File: docs/examples/XAS/Echem/Operando1/Cell D/CellD_01_01_OCV_C03.mpt
EC-Lab ASCII FILE
Nb header lines : 53

Open Circuit Voltage

Run on channel : 3 (SN 52371)
User :
CE vs. WE compliance from -10 V to 10 V
Electrode connection : standard
Potential control : Ewe
Ewe ctrl range : min = 0.00 V, max = 3.00 V
Safety Limits :
	Do not start on E overload
Acquisition started on : 12/11/2025 15:06:56.384
Technique started on : 12/11/2025 15:06:56.884
Loaded Setting File :  NONE
Saved on :
	File : CellD_01_01_OCV_C03.mpr
	Directory : L:\projects\cycle2025-II\20250340369-skhabazian\EC_lab\Cell D\
	Host : 84.89.228.57
Device : VSP (SN 2155)
Address : 10.0.48.130
EC-LAB for windows v11.61 (software)
Internet server v11.61 (firmware)
Command interpretor v11.61 (firmware)
Electrode material :
Initial state :
Electrolyte :
Comments :
Mass of active material : 0.001 mg
 at x = 0.000
Molecular weight of active material (at x = 0) : 0.001 g/mol
Atomic weight of intercalated ion : 0.001 g/mol
Acquisition started at : xo = 0.000
Number of e- transfered per intercalated ion : 1
for DX = 1, DQ = 26.802 mA.h
Battery capacity : 0.000 A.h
Electrode surface area : 0.000 cm²
Characteristic mass : 0.001 g
Volume (V) : 0.001 cm³
Text export
   Mode : Standard
   Time format : Absolute MMDDYYYY
Cycle Definition : Charge/Discharge alternance
tR (h:m:s)          20:00:30.0000
dER/dt (mV/h)       0.0
record              <Ewe>
dER (mV)            0.00
dtR (s)             0.5000
E range min (V)     0.000
E range max (V)     3.000

mode	error	time/s	<Ewe/V>
3	0	12/11/2025 15:06:56.8840	1.44567
3	0	12/11/2025 15:06:58.8840	1.44567
3	0	12/11/2025 15:07:00.8840	1.44567
3	0	12/11/2025 15:07:02.8840	1.44567
3	0	12/11/2025 15:07:04.8840	1.44566
3	0	12/11/2025 15:07:06.8840	1.44566
3	0	12/11/2025 15:07:08.8840	1.44565
3	0	12/11/2025 15:07:10.8840	1.44565
3	0	12/11/2025 15:07:12.8840	1.44565
3	0	12/11/2025 15:07:14.8840	1.44565
3	0	12/11/2025 15:07:16.8840	1.44564
3	0	12/11/2025 15:07:18.8840	1.44564
3	0	12/11/2025 15:07:20.8840	1.44564
3	0	12/11/2025 15:07:22.8840	1.44564
3	0	12/11/2025 15:07:24.8840	1.44564
3	0	12/11/2025 15:07:26.8840	1.44563
3	0	12/11/2025 15:07:28.8840	1.44563
3	0	12/11/2025 15:07:30.8840	1.44563
3	0	12/11/2025 15:07:32.8840	1.44563
3	0	12/11/2025 15:07:34.8840	1.44563
3	0	12/11/2025 15:07:36.8840	1.44562
3	0	12/11/2025 15:07:38.8840	1.44562
3	0	12/11/2025 15:07:40.8840	1.44561
3	0	12/11/2025 15:07:42.8840	1.4456
3	0	12/11/2025 15:07:44.8840	1.44561
3	0	12/11/2025 15:07:46.8840	1.4456
3	0	12/11/2025 15:07:48.8840	1.4456
3	0	12/11/2025 15:07:50.8840	1.4456
3	0	12/11/2025 15:07:52.8840	1.44561
3	0	12/11/2025 15:07:54.8840	1.44559
3	0	12/11/2025 15:07:56.8840	1.44559
3	0	12/11/2025 15:07:58.8840	1.44559
3	0	12/11/2025 15:08:00.8840	1.44558
3	0	12/11/2025 15:08:02.8840	1.44559
3	0	12/11/2025 15:08:04.8840	1.44558
3	0	12/11/2025 15:08:06.8840	1.44557
3	0	12/11/2025 15:08:08.8840	1.44557
3	0	12/11/2025 15:08:10.8840	1.44557
3	0	12/11/2025 15:08:12.8840	1.44557
3	0	12/11/2025 15:08:14.8840	1.44557
3	0	12/11/2025 15:08:16.8840	1.44558
3	0	12/11/2025 15:08:18.8840	1.44556
3	0	12/11/2025 15:08:20.8840	1.44555
3	0	12/11/2025 15:08:22.8840	1.44555
3	0	12/11/2025 15:08:24.8840	1.44555
3	0	12/11/2025 15:08:26.8840	1.44555
3	0	12/11/2025 15:08:28.8840	1.44555
3	0	12/11/2025 15:08:30.8840	1.44555
3	0	12/11/2025 15:08:32.8840	1.44555
3	0	12/11/2025 15:08:34.8840	1.44554
3	0	12/11/2025 15:08:36.8840	1.44554
3	0	12/11/2025 15:08:38.8840	1.44554
3	0	12/11/2025 15:08:40.8840	1.44553
3	0	12/11/2025 15:08:42.8840	1.44553
3	0	12/11/2025 15:08:44.8840	1.44553
3	0	12/11/2025 15:08:46.8840	1.44552
3	0	12/11/2025 15:08:48.8840	1.44552
3	0	12/11/2025 15:08:50.8840	1.44552
3	0	12/11/2025 15:08:52.8840	1.44552
3	0	12/11/2025 15:08:54.8840	1.44551
3	0	12/11/2025 15:08:56.8840	1.4455
3	0	12/11/2025 15:08:58.8840	1.4455
3	0	12/11/2025 15:09:00.8840	1.44548
3	0	12/11/2025 15:09:02.8840	1.44549
3	0	12/11/2025 15:09:04.8840	1.44548
3	0	12/11/2025 15:09:06.8840	1.44547
3	0	12/11/2025 15:09:08.8840	1.44547
3	0	12/11/2025 15:09:10.8840	1.44546
3	0	12/11/2025 15:09:12.8840	1.44545
3	0	12/11/2025 15:09:14.8840	1.44545
3	0	12/11/2025 15:09:16.8840	1.44544
3	0	12/11/2025 15:09:18.8840	1.44545
3	0	12/11/2025 15:09:20.8840	1.44544
3	0	12/11/2025 15:09:22.8840	1.44544
3	0	12/11/2025 15:09:24.8840	1.44544
3	0	12/11/2025 15:09:26.8840	1.44544
3	0	12/11/2025 15:09:28.8840	1.44544
3	0	12/11/2025 15:09:30.8840	1.44543
3	0	12/11/2025 15:09:32.8840	1.44542
3	0	12/11/2025 15:09:34.8840	1.44542
3	0	12/11/2025 15:09:36.8840	1.44542
3	0	12/11/2025 15:09:38.8840	1.44542
3	0	12/11/2025 15:09:40.8840	1.44541
3	0	12/11/2025 15:09:42.8840	1.44541
3	0	12/11/2025 15:09:44.8840	1.4454
3	0	12/11/2025 15:09:46.8840	1.4454
3	0	12/11/2025 15:09:48.8840	1.4454
3	0	12/11/2025 15:09:50.8840	1.4454
3	0	12/11/2025 15:09:52.8840	1.44539
3	0	12/11/2025 15:09:54.8840	1.44539
3	0	12/11/2025 15:09:56.8840	1.4454
3	0	12/11/2025 15:09:58.8840	1.44538
3	0	12/11/2025 15:10:00.8840	1.44538
3	0	12/11/2025 15:10:02.8840	1.44537
3	0	12/11/2025 15:10:04.8840	1.44537
3	0	12/11/2025 15:10:06.8840	1.44536
3	0	12/11/2025 15:10:08.8840	1.44536
3	0	12/11/2025 15:10:10.8840	1.44537
3	0	12/11/2025 15:10:12.8840	1.44536
3	0	12/11/2025 15:10:14.8840	1.44535
3	0	12/11/2025 15:10:16.8840	1.44535
3	0	12/11/2025 15:10:18.8840	1.44535
3	0	12/11/2025 15:10:20.8840	1.44535
3	0	12/11/2025 15:10:22.8840	1.44534
3	0	12/11/2025 15:10:24.8840	1.44534
3	0	12/11/2025 15:10:26.8840	1.44534
3	0	12/11/2025 15:10:28.8840	1.44535
3	0	12/11/2025 15:10:30.8840	1.44534
3	0	12/11/2025 15:10:32.8840	1.44534
3	0	12/11/2025 15:10:34.8840	1.44534
3	0	12/11/2025 15:10:36.8840	1.44533
3	0	12/11/2025 15:10:38.8840	1.44532
3	0	12/11/2025 15:10:40.8840	1.44532
3	0	12/11/2025 15:10:42.8840	1.44532
3	0	12/11/2025 15:10:44.8840	1.44531
3	0	12/11/2025 15:10:46.8840	1.4453
3	0	12/11/2025 15:10:48.8840	1.44529
3	0	12/11/2025 15:10:50.8840	1.44529
3	0	12/11/2025 15:10:52.8840	1.44528
3	0	12/11/2025 15:10:54.8840	1.44528
3	0	12/11/2025 15:10:56.8840	1.44527
3	0	12/11/2025 15:10:58.8840	1.44526
3	0	12/11/2025 15:11:00.8840	1.44526
3	0	12/11/2025 15:11:02.8840	1.44526
3	0	12/11/2025 15:11:04.8840	1.44525
3	0	12/11/2025 15:11:06.8840	1.44525
3	0	12/11/2025 15:11:08.8840	1.44525
3	0	12/11/2025 15:11:10.8840	1.44523
3	0	12/11/2025 15:11:12.8840	1.44523
3	0	12/11/2025 15:11:14.8840	1.44522
3	0	12/11/2025 15:11:16.8840	1.44521
3	0	12/11/2025 15:11:18.8840	1.44521
3	0	12/11/2025 15:11:20.8840	1.4452
3	0	12/11/2025 15:11:22.8840	1.4452
3	0	12/11/2025 15:11:24.8840	1.44519
3	0	12/11/2025 15:11:26.8840	1.44518
3	0	12/11/2025 15:11:28.8840	1.44518
3	0	12/11/2025 15:11:30.8840	1.44517
3	0	12/11/2025 15:11:32.8840	1.44517
3	0	12/11/2025 15:11:34.8840	1.44516
3	0	12/11/2025 15:11:36.8840	1.44516
3	0	12/11/2025 15:11:38.8840	1.44515
3	0	12/11/2025 15:11:40.8840	1.44515
3	0	12/11/2025 15:11:42.8840	1.44514
3	0	12/11/2025 15:11:44.8840	1.44514
3	0	12/11/2025 15:11:46.8840	1.44514
3	0	12/11/2025 15:11:48.8840	1.44515
3	0	12/11/2025 15:11:50.8840	1.44513
3	0	12/11/2025 15:11:52.8840	1.44513
3	0	12/11/2025 15:11:54.8840	1.44512
3	0	12/11/2025 15:11:56.8840	1.44512
3	0	12/11/2025 15:11:58.8840	1.44512
3	0	12/11/2025 15:12:00.8840	1.44511
3	0	12/11/2025 15:12:02.8840	1.44511
3	0	12/11/2025 15:12:04.8840	1.44511
3	0	12/11/2025 15:12:06.8840	1.44511
3	0	12/11/2025 15:12:08.8840	1.4451
3	0	12/11/2025 15:12:10.8840	1.4451
3	0	12/11/2025 15:12:12.8840	1.44509
3	0	12/11/2025 15:12:14.8840	1.44509
3	0	12/11/2025 15:12:16.8840	1.44509
3	0	12/11/2025 15:12:18.8840	1.44509
3	0	12/11/2025 15:12:20.8840	1.44508
3	0	12/11/2025 15:12:22.8840	1.44508
3	0	12/11/2025 15:12:24.8840	1.44507
3	0	12/11/2025 15:12:26.8840	1.44506
3	0	12/11/2025 15:12:28.8840	1.44506
3	0	12/11/2025 15:12:30.8840	1.44506
3	0	12/11/2025 15:12:32.8840	1.44506
3	0	12/11/2025 15:12:34.8840	1.44505
3	0	12/11/2025 15:12:36.8840	1.44505
3	0	12/11/2025 15:12:38.8840	1.44505
3	0	12/11/2025 15:12:40.8840	1.44504
3	0	12/11/2025 15:12:42.8840	1.44503
3	0	12/11/2025 15:12:44.8840	1.44503
3	0	12/11/2025 15:12:46.8840	1.44503
3	0	12/11/2025 15:12:48.8840	1.44503
3	0	12/11/2025 15:12:50.8840	1.44502
3	0	12/11/2025 15:12:52.8840	1.44502
3	0	12/11/2025 15:12:54.8840	1.44502
3	0	12/11/2025 15:12:56.8840	1.44501
3	0	12/11/2025 15:12:58.8840	1.445
3	0	12/11/2025 15:13:00.8840	1.445
3	0	12/11/2025 15:13:02.8840	1.445
3	0	12/11/2025 15:13:04.8840	1.44499
3	0	12/11/2025 15:13:06.8840	1.44499
3	0	12/11/2025 15:13:08.8840	1.44498
3	0	12/11/2025 15:13:10.8840	1.44497
3	0	12/11/2025 15:13:12.8840	1.44497
3	0	12/11/2025 15:13:14.8840	1.44496
3	0	12/11/2025 15:13:16.8840	1.44496
3	0	12/11/2025 15:13:18.8840	1.44496
3	0	12/11/2025 15:13:20.8840	1.44495
3	0	12/11/2025 15:13:22.8840	1.44494
3	0	12/11/2025 15:13:24.8840	1.44494
3	0	12/11/2025 15:13:26.8840	1.44493
3	0	12/11/2025 15:13:28.8840	1.44493
3	0	12/11/2025 15:13:30.8840	1.44492
3	0	12/11/2025 15:13:32.8840	1.44491
3	0	12/11/2025 15:13:34.8840	1.44489
3	0	12/11/2025 15:13:36.8840	1.44489
3	0	12/11/2025 15:13:38.8840	1.44488
3	0	12/11/2025 15:13:40.8840	1.44486
3	0	12/11/2025 15:13:42.8840	1.44488
3	0	12/11/2025 15:13:44.8840	1.44486
3	0	12/11/2025 15:13:46.8840	1.44485
3	0	12/11/2025 15:13:48.8840	1.44485
3	0	12/11/2025 15:13:50.8840	1.44483
3	0	12/11/2025 15:13:52.8840	1.44483
3	0	12/11/2025 15:13:54.8840	1.44482
3	0	12/11/2025 15:13:56.8840	1.44481
3	0	12/11/2025 15:13:58.8840	1.44481
3	0	12/11/2025 15:14:00.8840	1.44479
3	0	12/11/2025 15:14:02.8840	1.44478
3	0	12/11/2025 15:14:04.8840	1.44477
3	0	12/11/2025 15:14:06.8840	1.44476
3	0	12/11/2025 15:14:08.8840	1.44476
3	0	12/11/2025 15:14:10.8840	1.44474
3	0	12/11/2025 15:14:12.8840	1.44473
3	0	12/11/2025 15:14:14.8840	1.44473
3	0	12/11/2025 15:14:16.8840	1.44471
3	0	12/11/2025 15:14:18.8840	1.44471
3	0	12/11/2025 15:14:20.8840	1.4447
3	0	12/11/2025 15:14:22.8840	1.4447
3	0	12/11/2025 15:14:24.8840	1.44468
3	0	12/11/2025 15:14:26.8840	1.44467
3	0	12/11/2025 15:14:28.8840	1.44467
3	0	12/11/2025 15:14:30.8840	1.44465
3	0	12/11/2025 15:14:32.8840	1.44465
3	0	12/11/2025 15:14:34.8840	1.44466
3	0	12/11/2025 15:14:36.8840	1.44464
3	0	12/11/2025 15:14:38.8840	1.44464
3	0	12/11/2025 15:14:40.8840	1.44462
3	0	12/11/2025 15:14:42.8840	1.44462
3	0	12/11/2025 15:14:44.8840	1.44461
3	0	12/11/2025 15:14:46.8840	1.4446
3	0	12/11/2025 15:14:48.8840	1.4446
3	0	12/11/2025 15:14:50.8840	1.44459
3	0	12/11/2025 15:14:52.8840	1.44458
3	0	12/11/2025 15:14:54.8840	1.44456
3	0	12/11/2025 15:14:56.8840	1.44456
3	0	12/11/2025 15:14:58.8840	1.44455
3	0	12/11/2025 15:15:00.8840	1.44454
3	0	12/11/2025 15:15:02.8840	1.44454
3	0	12/11/2025 15:15:04.8840	1.44454
3	0	12/11/2025 15:15:06.8840	1.44454
3	0	12/11/2025 15:15:08.8840	1.44453
3	0	12/11/2025 15:15:10.8840	1.44454
3	0	12/11/2025 15:15:12.8840	1.44454
3	0	12/11/2025 15:15:14.8840	1.44453
3	0	12/11/2025 15:15:16.8840	1.44453
3	0	12/11/2025 15:15:18.8840	1.44453
3	0	12/11/2025 15:15:20.8840	1.44452
3	0	12/11/2025 15:15:22.8840	1.44453
3	0	12/11/2025 15:15:24.8840	1.44453
3	0	12/11/2025 15:15:26.8840	1.44452
3	0	12/11/2025 15:15:28.8840	1.44452
3	0	12/11/2025 15:15:30.8840	1.44452
3	0	12/11/2025 15:15:32.8840	1.44453
3	0	12/11/2025 15:15:34.8840	1.44452
3	0	12/11/2025 15:15:36.8840	1.44452
3	0	12/11/2025 15:15:38.8840	1.44452
3	0	12/11/2025 15:15:40.8840	1.44453
3	0	12/11/2025 15:15:42.8840	1.44451
3	0	12/11/2025 15:15:44.8840	1.44451
3	0	12/11/2025 15:15:46.8840	1.44452
3	0	12/11/2025 15:15:48.8840	1.44452
3	0	12/11/2025 15:15:50.8840	1.44451
3	0	12/11/2025 15:15:52.8840	1.44452
3	0	12/11/2025 15:15:54.8840	1.44451
3	0	12/11/2025 15:15:56.8840	1.44451
3	0	12/11/2025 15:15:58.8840	1.44451
3	0	12/11/2025 15:16:00.8840	1.44451
3	0	12/11/2025 15:16:02.8840	1.4445
3	0	12/11/2025 15:16:04.8840	1.4445
3	0	12/11/2025 15:16:06.8840	1.44451
3	0	12/11/2025 15:16:08.8840	1.4445
3	0	12/11/2025 15:16:10.8840	1.44449
3	0	12/11/2025 15:16:12.8840	1.44449
3	0	12/11/2025 15:16:14.8840	1.44448
3	0	12/11/2025 15:16:16.8840	1.4445
3	0	12/11/2025 15:16:18.8840	1.44449
3	0	12/11/2025 15:16:20.8840	1.44449
3	0	12/11/2025 15:16:22.8840	1.44448
3	0	12/11/2025 15:16:24.8840	1.44449
3	0	12/11/2025 15:16:26.8840	1.44449
3	0	12/11/2025 15:16:28.8840	1.44448
3	0	12/11/2025 15:16:30.8840	1.44448
3	0	12/11/2025 15:16:32.8840	1.44448
3	0	12/11/2025 15:16:34.8840	1.44448
3	0	12/11/2025 15:16:36.8840	1.44448
3	0	12/11/2025 15:16:38.8840	1.44447
3	0	12/11/2025 15:16:40.8840	1.44447
3	0	12/11/2025 15:16:42.8840	1.44447
3	0	12/11/2025 15:16:44.8840	1.44447
3	0	12/11/2025 15:16:46.8840	1.44447
3	0	12/11/2025 15:16:48.8840	1.44446
3	0	12/11/2025 15:16:50.8840	1.44446
3	0	12/11/2025 15:16:52.8840	1.44446
3	0	12/11/2025 15:16:54.8840	1.44445
3	0	12/11/2025 15:16:56.8840	1.44445
3	0	12/11/2025 15:16:58.8840	1.44446
3	0	12/11/2025 15:17:00.8840	1.44445
3	0	12/11/2025 15:17:02.8840	1.44444
3	0	12/11/2025 15:17:04.8840	1.44445
3	0	12/11/2025 15:17:06.8840	1.44444
3	0	12/11/2025 15:17:08.8840	1.44445
3	0	12/11/2025 15:17:10.8840	1.44444
3	0	12/11/2025 15:17:12.8840	1.44444
3	0	12/11/2025 15:17:14.8840	1.44444
3	0	12/11/2025 15:17:16.8840	1.44444
3	0	12/11/2025 15:17:18.8840	1.44443
3	0	12/11/2025 15:17:20.8840	1.44443
3	0	12/11/2025 15:17:22.8840	1.44443
3	0	12/11/2025 15:17:24.8840	1.44442
3	0	12/11/2025 15:17:26.8840	1.44443
3	0	12/11/2025 15:17:28.8840	1.44442
3	0	12/11/2025 15:17:30.8840	1.44442
3	0	12/11/2025 15:17:32.8840	1.44442
3	0	12/11/2025 15:17:34.8840	1.44442
3	0	12/11/2025 15:17:36.8840	1.44441
3	0	12/11/2025 15:17:38.8840	1.44441
3	0	12/11/2025 15:17:40.8840	1.44441
3	0	12/11/2025 15:17:42.8840	1.4444
3	0	12/11/2025 15:17:44.8840	1.44441
3	0	12/11/2025 15:17:46.8840	1.4444
3	0	12/11/2025 15:17:48.8840	1.4444
3	0	12/11/2025 15:17:50.8840	1.4444
3	0	12/11/2025 15:17:52.8840	1.44439
3	0	12/11/2025 15:17:54.8840	1.44439
3	0	12/11/2025 15:17:56.8840	1.44439
3	0	12/11/2025 15:17:58.8840	1.44439
3	0	12/11/2025 15:18:00.8840	1.4444
3	0	12/11/2025 15:18:02.8840	1.44438
3	0	12/11/2025 15:18:04.8840	1.44438
3	0	12/11/2025 15:18:06.8840	1.44439
3	0	12/11/2025 15:18:08.8840	1.44438
3	0	12/11/2025 15:18:10.8840	1.44437
3	0	12/11/2025 15:18:12.8840	1.44437
3	0	12/11/2025 15:18:14.8840	1.44437
3	0	12/11/2025 15:18:16.8840	1.44437
3	0	12/11/2025 15:18:18.8840	1.44436
3	0	12/11/2025 15:18:20.8840	1.44436
3	0	12/11/2025 15:18:22.8840	1.44436
3	0	12/11/2025 15:18:24.8840	1.44435
3	0	12/11/2025 15:18:26.8840	1.44435
3	0	12/11/2025 15:18:28.8840	1.44435
3	0	12/11/2025 15:18:30.8840	1.44434
3	0	12/11/2025 15:18:32.8840	1.44434
3	0	12/11/2025 15:18:34.8840	1.44433
3	0	12/11/2025 15:18:36.8840	1.44434
3	0	12/11/2025 15:18:38.8840	1.44433
3	0	12/11/2025 15:18:40.8840	1.44433
3	0	12/11/2025 15:18:42.8840	1.44433
3	0	12/11/2025 15:18:44.8840	1.44434
3	0	12/11/2025 15:18:46.8840	1.44432
3	0	12/11/2025 15:18:48.8840	1.44433
3	0	12/11/2025 15:18:50.8840	1.44432
3	0	12/11/2025 15:18:52.8840	1.44431
3	0	12/11/2025 15:18:54.8840	1.44432
3	0	12/11/2025 15:18:56.8840	1.44431
3	0	12/11/2025 15:18:58.8840	1.44431
3	0	12/11/2025 15:19:00.8840	1.4443
3	0	12/11/2025 15:19:02.8840	1.4443
3	0	12/11/2025 15:19:04.8840	1.4443
3	0	12/11/2025 15:19:06.8840	1.4443
3	0	12/11/2025 15:19:08.8840	1.44429
3	0	12/11/2025 15:19:10.8840	1.44429
3	0	12/11/2025 15:19:12.8840	1.44429
3	0	12/11/2025 15:19:14.8840	1.44428
3	0	12/11/2025 15:19:16.8840	1.44429
3	0	12/11/2025 15:19:18.8840	1.44429
3	0	12/11/2025 15:19:20.8840	1.44428
3	0	12/11/2025 15:19:22.8840	1.44428
3	0	12/11/2025 15:19:24.8840	1.44427
3	0	12/11/2025 15:19:26.8840	1.44427
3	0	12/11/2025 15:19:28.8840	1.44426
3	0	12/11/2025 15:19:30.8840	1.44426
3	0	12/11/2025 15:19:32.8840	1.44425
3	0	12/11/2025 15:19:34.8840	1.44424
3	0	12/11/2025 15:19:36.8840	1.44424
3	0	12/11/2025 15:19:38.8840	1.44424
3	0	12/11/2025 15:19:40.8840	1.44423
3	0	12/11/2025 15:19:42.8840	1.44422
3	0	12/11/2025 15:19:44.8840	1.44423
3	0	12/11/2025 15:19:46.8840	1.44423
3	0	12/11/2025 15:19:48.8840	1.44423
3	0	12/11/2025 15:19:50.8840	1.44422
3	0	12/11/2025 15:19:52.8840	1.44421
3	0	12/11/2025 15:19:54.8840	1.44421
3	0	12/11/2025 15:19:56.8840	1.44421
3	0	12/11/2025 15:19:58.8840	1.44421
3	0	12/11/2025 15:20:00.8840	1.44421
3	0	12/11/2025 15:20:02.8840	1.44421
3	0	12/11/2025 15:20:04.8840	1.4442
3	0	12/11/2025 15:20:06.8840	1.4442
3	0	12/11/2025 15:20:08.8840	1.4442
3	0	12/11/2025 15:20:10.8840	1.44419
3	0	12/11/2025 15:20:12.8840	1.4442
3	0	12/11/2025 15:20:14.8840	1.44418
3	0	12/11/2025 15:20:16.8840	1.44419
3	0	12/11/2025 15:20:18.8840	1.44419
3	0	12/11/2025 15:20:20.8840	1.44419
3	0	12/11/2025 15:20:22.8840	1.44419
3	0	12/11/2025 15:20:24.8840	1.44418
3	0	12/11/2025 15:20:26.8840	1.44418
3	0	12/11/2025 15:20:28.8840	1.44417
3	0	12/11/2025 15:20:30.8840	1.44417
3	0	12/11/2025 15:20:32.8840	1.44417
3	0	12/11/2025 15:20:34.8840	1.44417
3	0	12/11/2025 15:20:36.8840	1.44416
3	0	12/11/2025 15:20:38.8840	1.44416
3	0	12/11/2025 15:20:40.8840	1.44416
3	0	12/11/2025 15:20:42.8840	1.44415
3	0	12/11/2025 15:20:44.8840	1.44415
3	0	12/11/2025 15:20:46.8840	1.44415
3	0	12/11/2025 15:20:48.8840	1.44415
3	0	12/11/2025 15:20:50.8840	1.44414
3	0	12/11/2025 15:20:52.8840	1.44415
3	0	12/11/2025 15:20:54.8840	1.44414
3	0	12/11/2025 15:20:56.8840	1.44414
3	0	12/11/2025 15:20:58.8840	1.44414
3	0	12/11/2025 15:21:00.8840	1.44413
3	0	12/11/2025 15:21:02.8840	1.44413
3	0	12/11/2025 15:21:04.8840	1.44414
3	0	12/11/2025 15:21:06.8840	1.44413
3	0	12/11/2025 15:21:08.8840	1.44412
3	0	12/11/2025 15:21:10.8840	1.44413
3	0	12/11/2025 15:21:12.8840	1.44412
3	0	12/11/2025 15:21:14.8840	1.44412
3	0	12/11/2025 15:21:16.8840	1.44412
3	0	12/11/2025 15:21:18.8840	1.44412
3	0	12/11/2025 15:21:20.8840	1.44411
3	0	12/11/2025 15:21:22.8840	1.44411
3	0	12/11/2025 15:21:24.8840	1.44411
3	0	12/11/2025 15:21:26.8840	1.4441
3	0	12/11/2025 15:21:28.8840	1.44411
3	0	12/11/2025 15:21:30.8840	1.4441
3	0	12/11/2025 15:21:32.8840	1.4441
3	0	12/11/2025 15:21:34.8840	1.4441
3	0	12/11/2025 15:21:36.8840	1.44408
3	0	12/11/2025 15:21:38.8840	1.4441
3	0	12/11/2025 15:21:40.8840	1.44409
3	0	12/11/2025 15:21:42.8840	1.44408
3	0	12/11/2025 15:21:44.8840	1.44408
3	0	12/11/2025 15:21:46.8840	1.44409
3	0	12/11/2025 15:21:48.8840	1.44408
3	0	12/11/2025 15:21:50.8840	1.44407
3	0	12/11/2025 15:21:52.8840	1.44407
3	0	12/11/2025 15:21:54.8840	1.44407
3	0	12/11/2025 15:21:56.8840	1.44406
3	0	12/11/2025 15:21:58.8840	1.44406
3	0	12/11/2025 15:22:00.8840	1.44407
3	0	12/11/2025 15:22:02.8840	1.44406
3	0	12/11/2025 15:22:04.8840	1.44405
3	0	12/11/2025 15:22:06.8840	1.44406
3	0	12/11/2025 15:22:08.8840	1.44405
3	0	12/11/2025 15:22:10.8840	1.44405
3	0	12/11/2025 15:22:12.8840	1.44405
3	0	12/11/2025 15:22:14.8840	1.44405
3	0	12/11/2025 15:22:16.8840	1.44404
3	0	12/11/2025 15:22:18.8840	1.44404
3	0	12/11/2025 15:22:20.8840	1.44404
3	0	12/11/2025 15:22:22.8840	1.44403
3	0	12/11/2025 15:22:24.8840	1.44403
3	0	12/11/2025 15:22:26.8840	1.44402
3	0	12/11/2025 15:22:28.8840	1.44402
3	0	12/11/2025 15:22:30.8840	1.44402
3	0	12/11/2025 15:22:32.8840	1.44401
3	0	12/11/2025 15:22:34.8840	1.44401
3	0	12/11/2025 15:22:36.8840	1.444
3	0	12/11/2025 15:22:38.8840	1.444
3	0	12/11/2025 15:22:40.8840	1.444
3	0	12/11/2025 15:22:42.8840	1.44399
3	0	12/11/2025 15:22:44.8840	1.44399
3	0	12/11/2025 15:22:46.8840	1.44399
3	0	12/11/2025 15:22:48.8840	1.44399
3	0	12/11/2025 15:22:50.8840	1.44398
3	0	12/11/2025 15:22:52.8840	1.44397
3	0	12/11/2025 15:22:54.8840	1.44397
3	0	12/11/2025 15:22:56.8840	1.44396
3	0	12/11/2025 15:22:58.8840	1.44396
3	0	12/11/2025 15:23:00.8840	1.44395
3	0	12/11/2025 15:23:02.8840	1.44395
3	0	12/11/2025 15:23:04.8840	1.44394
3	0	12/11/2025 15:23:06.8840	1.44394
3	0	12/11/2025 15:23:08.8840	1.44394
3	0	12/11/2025 15:23:10.8840	1.44393
3	0	12/11/2025 15:23:12.8840	1.44394
3	0	12/11/2025 15:23:14.8840	1.44393
3	0	12/11/2025 15:23:16.8840	1.44393
3	0	12/11/2025 15:23:18.8840	1.44393
3	0	12/11/2025 15:23:20.8840	1.44393
3	0	12/11/2025 15:23:22.8840	1.44393
3	0	12/11/2025 15:23:24.8840	1.44392
3	0	12/11/2025 15:23:26.8840	1.44392
3	0	12/11/2025 15:23:28.8840	1.44391
3	0	12/11/2025 15:23:30.8840	1.44391
3	0	12/11/2025 15:23:32.8840	1.44392
3	0	12/11/2025 15:23:34.8840	1.44391
3	0	12/11/2025 15:23:36.8840	1.44392
3	0	12/11/2025 15:23:38.8840	1.44391
3	0	12/11/2025 15:23:40.8840	1.44391
3	0	12/11/2025 15:23:42.8840	1.44391
3	0	12/11/2025 15:23:44.8840	1.4439
3	0	12/11/2025 15:23:46.8840	1.4439
3	0	12/11/2025 15:23:48.8840	1.44391
3	0	12/11/2025 15:23:50.8840	1.4439
3	0	12/11/2025 15:23:52.8840	1.4439
3	0	12/11/2025 15:23:54.8840	1.4439
3	0	12/11/2025 15:23:56.8840	1.44389
3	0	12/11/2025 15:23:58.8840	1.44389
3	0	12/11/2025 15:24:00.8840	1.44389
3	0	12/11/2025 15:24:02.8840	1.44389
3	0	12/11/2025 15:24:04.8840	1.44388
3	0	12/11/2025 15:24:06.8840	1.44389
3	0	12/11/2025 15:24:08.8840	1.44388
3	0	12/11/2025 15:24:10.8840	1.44388
3	0	12/11/2025 15:24:12.8840	1.44388
3	0	12/11/2025 15:24:14.8840	1.44387
3	0	12/11/2025 15:24:16.8840	1.44387
3	0	12/11/2025 15:24:18.8840	1.44387
3	0	12/11/2025 15:24:20.8840	1.44387
3	0	12/11/2025 15:24:22.8840	1.44386
3	0	12/11/2025 15:24:24.8840	1.44386
3	0	12/11/2025 15:24:26.8840	1.44387
3	0	12/11/2025 15:24:28.8840	1.44385
3	0	12/11/2025 15:24:30.8840	1.44385
3	0	12/11/2025 15:24:32.8840	1.44386
3	0	12/11/2025 15:24:34.8840	1.44385
3	0	12/11/2025 15:24:36.8840	1.44385
3	0	12/11/2025 15:24:38.8840	1.44385
3	0	12/11/2025 15:24:40.8840	1.44384
3	0	12/11/2025 15:24:42.8840	1.44384
3	0	12/11/2025 15:24:44.8840	1.44384
3	0	12/11/2025 15:24:46.8840	1.44384
3	0	12/11/2025 15:24:48.8840	1.44383
3	0	12/11/2025 15:24:50.8840	1.44384
3	0	12/11/2025 15:24:52.8840	1.44383
3	0	12/11/2025 15:24:54.8840	1.44383
3	0	12/11/2025 15:24:56.8840	1.44382
3	0	12/11/2025 15:24:58.8840	1.44383
3	0	12/11/2025 15:25:00.8840	1.44383
3	0	12/11/2025 15:25:02.8840	1.44382
3	0	12/11/2025 15:25:04.8840	1.44382
3	0	12/11/2025 15:25:06.8840	1.44381
3	0	12/11/2025 15:25:08.8840	1.44381
3	0	12/11/2025 15:25:10.8840	1.44381
3	0	12/11/2025 15:25:12.8840	1.44381
3	0	12/11/2025 15:25:14.8840	1.4438
3	0	12/11/2025 15:25:16.8840	1.4438
3	0	12/11/2025 15:25:18.8840	1.44381
3	0	12/11/2025 15:25:20.8840	1.4438
3	0	12/11/2025 15:25:22.8840	1.4438
3	0	12/11/2025 15:25:24.8840	1.44379
3	0	12/11/2025 15:25:26.8840	1.44379
3	0	12/11/2025 15:25:28.8840	1.44379
3	0	12/11/2025 15:25:30.8840	1.4438
3	0	12/11/2025 15:25:32.8840	1.44379
3	0	12/11/2025 15:25:34.8840	1.44378
3	0	12/11/2025 15:25:36.8840	1.44378
3	0	12/11/2025 15:25:38.8840	1.44378
3	0	12/11/2025 15:25:40.8840	1.44377
3	0	12/11/2025 15:25:42.8840	1.44377
3	0	12/11/2025 15:25:44.8840	1.44377
3	0	12/11/2025 15:25:46.8840	1.44377
3	0	12/11/2025 15:25:48.8840	1.44376
3	0	12/11/2025 15:25:50.8840	1.44377
3	0	12/11/2025 15:25:52.8840	1.44377
3	0	12/11/2025 15:25:54.8840	1.44376
3	0	12/11/2025 15:25:56.8840	1.44375
3	0	12/11/2025 15:25:58.8840	1.44375
3	0	12/11/2025 15:26:00.8840	1.44375
3	0	12/11/2025 15:26:02.8840	1.44375
3	0	12/11/2025 15:26:04.8840	1.44374
3	0	12/11/2025 15:26:06.8840	1.44374
3	0	12/11/2025 15:26:08.8840	1.44374
3	0	12/11/2025 15:26:10.8840	1.44374
3	0	12/11/2025 15:26:12.8840	1.44374
3	0	12/11/2025 15:26:14.8840	1.44373
3	0	12/11/2025 15:26:16.8840	1.44373
3	0	12/11/2025 15:26:18.8840	1.44373
3	0	12/11/2025 15:26:20.8840	1.44373
3	0	12/11/2025 15:26:22.8840	1.44373
3	0	12/11/2025 15:26:24.8840	1.44372
3	0	12/11/2025 15:26:26.8840	1.44372
3	0	12/11/2025 15:26:28.8840	1.44371
3	0	12/11/2025 15:26:30.8840	1.44372
3	0	12/11/2025 15:26:32.8840	1.44371
3	0	12/11/2025 15:26:34.8840	1.44371
3	0	12/11/2025 15:26:36.8840	1.4437
3	0	12/11/2025 15:26:38.8840	1.44371
3	0	12/11/2025 15:26:40.8840	1.44371
3	0	12/11/2025 15:26:42.8840	1.4437
3	0	12/11/2025 15:26:44.8840	1.4437
3	0	12/11/2025 15:26:46.8840	1.4437
3	0	12/11/2025 15:26:48.8840	1.44369
3	0	12/11/2025 15:26:50.8840	1.44369
3	0	12/11/2025 15:26:52.8840	1.44369
3	0	12/11/2025 15:26:54.8840	1.44368
3	0	12/11/2025 15:26:56.8840	1.44368
3	0	12/11/2025 15:26:58.8840	1.44369
3	0	12/11/2025 15:27:00.8840	1.44368
3	0	12/11/2025 15:27:02.8840	1.44369
3	0	12/11/2025 15:27:04.8840	1.44368
3	0	12/11/2025 15:27:06.8840	1.44367
3	0	12/11/2025 15:27:08.8840	1.44367
3	0	12/11/2025 15:27:10.8840	1.44366
3	0	12/11/2025 15:27:12.8840	1.44366
3	0	12/11/2025 15:27:14.8840	1.44365
3	0	12/11/2025 15:27:16.8840	1.44365
3	0	12/11/2025 15:27:18.8840	1.44364
3	0	12/11/2025 15:27:20.8840	1.44363
3	0	12/11/2025 15:27:22.8840	1.44363
3	0	12/11/2025 15:27:24.8840	1.44363
3	0	12/11/2025 15:27:26.8840	1.44362
3	0	12/11/2025 15:27:28.8840	1.44361
3	0	12/11/2025 15:27:30.8840	1.44361
3	0	12/11/2025 15:27:32.8840	1.44361
3	0	12/11/2025 15:27:34.8840	1.4436
3	0	12/11/2025 15:27:36.8840	1.4436
3	0	12/11/2025 15:27:38.8840	1.44359
3	0	12/11/2025 15:27:40.8840	1.44359
3	0	12/11/2025 15:27:42.8840	1.44359
3	0	12/11/2025 15:27:44.8840	1.44359
3	0	12/11/2025 15:27:46.8840	1.44358
3	0	12/11/2025 15:27:48.8840	1.44357
3	0	12/11/2025 15:27:50.8840	1.44357
3	0	12/11/2025 15:27:52.8840	1.44356
3	0	12/11/2025 15:27:54.8840	1.44356
3	0	12/11/2025 15:27:56.8840	1.44355
3	0	12/11/2025 15:27:58.8840	1.44355
3	0	12/11/2025 15:28:00.8840	1.44356
3	0	12/11/2025 15:28:02.8840	1.44355
3	0	12/11/2025 15:28:04.8840	1.44354
3	0	12/11/2025 15:28:06.8840	1.44353
3	0	12/11/2025 15:28:08.8840	1.44354
3	0	12/11/2025 15:28:10.8840	1.44354
3	0	12/11/2025 15:28:12.8840	1.44352
3	0	12/11/2025 15:28:14.8840	1.44352
3	0	12/11/2025 15:28:16.8840	1.44352
3	0	12/11/2025 15:28:18.8840	1.44351
3	0	12/11/2025 15:28:20.8840	1.44351
3	0	12/11/2025 15:28:22.8840	1.44351
3	0	12/11/2025 15:28:24.8840	1.44351
3	0	12/11/2025 15:28:26.8840	1.4435
3	0	12/11/2025 15:28:28.8840	1.4435
3	0	12/11/2025 15:28:30.8840	1.44349
3	0	12/11/2025 15:28:32.8840	1.4435
3	0	12/11/2025 15:28:34.8840	1.44349
3	0	12/11/2025 15:28:36.8840	1.44348
3	0	12/11/2025 15:28:38.8840	1.44348
3	0	12/11/2025 15:28:40.8840	1.44347
3	0	12/11/2025 15:28:42.8840	1.44348
3	0	12/11/2025 15:28:44.8840	1.44345
3	0	12/11/2025 15:28:46.8840	1.44346
3	0	12/11/2025 15:28:48.8840	1.44344
3	0	12/11/2025 15:28:50.8840	1.44344
3	0	12/11/2025 15:28:52.8840	1.44344
3	0	12/11/2025 15:28:54.8840	1.44343
3	0	12/11/2025 15:28:56.8840	1.44342
3	0	12/11/2025 15:28:58.8840	1.44342
3	0	12/11/2025 15:29:00.8840	1.44341
3	0	12/11/2025 15:29:02.8840	1.44341
3	0	12/11/2025 15:29:04.8840	1.44341
3	0	12/11/2025 15:29:06.8840	1.4434
3	0	12/11/2025 15:29:08.8840	1.44339
3	0	12/11/2025 15:29:10.8840	1.44338
3	0	12/11/2025 15:29:12.8840	1.44338
3	0	12/11/2025 15:29:14.8840	1.44337
3	0	12/11/2025 15:29:16.8840	1.44336
3	0	12/11/2025 15:29:18.8840	1.44336
3	0	12/11/2025 15:29:20.8840	1.44335
3	0	12/11/2025 15:29:22.8840	1.44334
3	0	12/11/2025 15:29:24.8840	1.44333
3	0	12/11/2025 15:29:26.8840	1.44332
3	0	12/11/2025 15:29:28.8840	1.44331
3	0	12/11/2025 15:29:30.8840	1.4433
3	0	12/11/2025 15:29:32.8840	1.4433
3	0	12/11/2025 15:29:34.8840	1.44329
3	0	12/11/2025 15:29:36.8840	1.44328
3	0	12/11/2025 15:29:38.8840	1.44328
3	0	12/11/2025 15:29:40.8840	1.44326
3	0	12/11/2025 15:29:42.8840	1.44326
3	0	12/11/2025 15:29:44.8840	1.44325
3	0	12/11/2025 15:29:46.8840	1.44325
3	0	12/11/2025 15:29:48.8840	1.44324
3	0	12/11/2025 15:29:50.8840	1.44323
3	0	12/11/2025 15:29:52.8840	1.44322
3	0	12/11/2025 15:29:54.8840	1.44321
3	0	12/11/2025 15:29:56.8840	1.44321
3	0	12/11/2025 15:29:58.8840	1.4432
3	0	12/11/2025 15:30:00.8840	1.44319
3	0	12/11/2025 15:30:02.8840	1.44318
3	0	12/11/2025 15:30:04.8840	1.44318
3	0	12/11/2025 15:30:06.8840	1.44317
3	0	12/11/2025 15:30:08.8840	1.44316
3	0	12/11/2025 15:30:10.8840	1.44315
3	0	12/11/2025 15:30:12.8840	1.44314
3	0	12/11/2025 15:30:14.8840	1.44314
3	0	12/11/2025 15:30:16.8840	1.44313
3	0	12/11/2025 15:30:18.8840	1.44313
3	0	12/11/2025 15:30:20.8840	1.4431
3	0	12/11/2025 15:30:22.8840	1.44309
3	0	12/11/2025 15:30:24.8840	1.44309
3	0	12/11/2025 15:30:26.8840	1.44309
3	0	12/11/2025 15:30:28.8840	1.44308
3	0	12/11/2025 15:30:30.8840	1.44307
3	0	12/11/2025 15:30:32.8840	1.44305
3	0	12/11/2025 15:30:34.8840	1.44305
3	0	12/11/2025 15:30:36.8840	1.44304
3	0	12/11/2025 15:30:38.8840	1.44303
3	0	12/11/2025 15:30:40.8840	1.44303
3	0	12/11/2025 15:30:42.8840	1.44303
3	0	12/11/2025 15:30:44.8840	1.44303
3	0	12/11/2025 15:30:46.8840	1.44303
3	0	12/11/2025 15:30:48.8840	1.44303
3	0	12/11/2025 15:30:50.8840	1.44303
3	0	12/11/2025 15:30:52.8840	1.44302
3	0	12/11/2025 15:30:54.8840	1.44303
3	0	12/11/2025 15:30:56.8840	1.44303
3	0	12/11/2025 15:30:58.8840	1.44303
3	0	12/11/2025 15:31:00.8840	1.44303
3	0	12/11/2025 15:31:02.8840	1.44303
3	0	12/11/2025 15:31:04.8840	1.44302
3	0	12/11/2025 15:31:06.8840	1.44303
3	0	12/11/2025 15:31:08.8840	1.44302
3	0	12/11/2025 15:31:10.8840	1.44302
3	0	12/11/2025 15:31:12.8840	1.44302
3	0	12/11/2025 15:31:14.8840	1.44302
3	0	12/11/2025 15:31:16.8840	1.44302
3	0	12/11/2025 15:31:18.8840	1.44302
3	0	12/11/2025 15:31:20.8840	1.44304
3	0	12/11/2025 15:31:22.8840	1.44303
3	0	12/11/2025 15:31:24.8840	1.44303
3	0	12/11/2025 15:31:26.8840	1.44303
3	0	12/11/2025 15:31:28.8840	1.44304
3	0	12/11/2025 15:31:30.8840	1.44303
3	0	12/11/2025 15:31:32.8840	1.44304
3	0	12/11/2025 15:31:34.8840	1.44304
3	0	12/11/2025 15:31:36.8840	1.44303
3	0	12/11/2025 15:31:38.8840	1.44304
3	0	12/11/2025 15:31:40.8840	1.44302
3	0	12/11/2025 15:31:42.8840	1.44303
3	0	12/11/2025 15:31:44.8840	1.44303
3	0	12/11/2025 15:31:46.8840	1.44302
3	0	12/11/2025 15:31:48.8840	1.44302
3	0	12/11/2025 15:31:50.8840	1.44301
3	0	12/11/2025 15:31:52.8840	1.44302
3	0	12/11/2025 15:31:54.8840	1.44303
3	0	12/11/2025 15:31:56.8840	1.44302
3	0	12/11/2025 15:31:58.8840	1.44301
3	0	12/11/2025 15:32:00.8840	1.44301
3	0	12/11/2025 15:32:02.8840	1.44301
3	0	12/11/2025 15:32:04.8840	1.44301
3	0	12/11/2025 15:32:06.8840	1.44301
3	0	12/11/2025 15:32:08.8840	1.44301
3	0	12/11/2025 15:32:10.8840	1.44301
3	0	12/11/2025 15:32:12.8840	1.44301
3	0	12/11/2025 15:32:14.8840	1.44301
3	0	12/11/2025 15:32:16.8840	1.44301
3	0	12/11/2025 15:32:18.8840	1.44301
3	0	12/11/2025 15:32:20.8840	1.443
3	0	12/11/2025 15:32:22.8840	1.443
3	0	12/11/2025 15:32:24.8840	1.44298
3	0	12/11/2025 15:32:26.8840	1.44298
3	0	12/11/2025 15:32:28.8840	1.44298
3	0	12/11/2025 15:32:30.8840	1.44299
3	0	12/11/2025 15:32:32.8840	1.44299
3	0	12/11/2025 15:32:34.8840	1.44299
3	0	12/11/2025 15:32:36.8840	1.44299
3	0	12/11/2025 15:32:38.8840	1.44299
3	0	12/11/2025 15:32:40.8840	1.44299
3	0	12/11/2025 15:32:42.8840	1.44299
3	0	12/11/2025 15:32:44.8840	1.44299
3	0	12/11/2025 15:32:46.8840	1.44298
3	0	12/11/2025 15:32:48.8840	1.44298
3	0	12/11/2025 15:32:50.8840	1.44298
3	0	12/11/2025 15:32:52.8840	1.44298
3	0	12/11/2025 15:32:54.8840	1.44298
3	0	12/11/2025 15:32:56.8840	1.44297
3	0	12/11/2025 15:32:58.8840	1.44298
3	0	12/11/2025 15:33:00.8840	1.44298
3	0	12/11/2025 15:33:02.8840	1.44298
3	0	12/11/2025 15:33:04.8840	1.44297
3	0	12/11/2025 15:33:06.8840	1.44297
3	0	12/11/2025 15:33:08.8840	1.44297
3	0	12/11/2025 15:33:10.8840	1.44297
3	0	12/11/2025 15:33:12.8840	1.44296
3	0	12/11/2025 15:33:14.8840	1.44296
3	0	12/11/2025 15:33:16.8840	1.44296
3	0	12/11/2025 15:33:18.8840	1.44296
3	0	12/11/2025 15:33:20.8840	1.44296
3	0	12/11/2025 15:33:22.8840	1.44296
3	0	12/11/2025 15:33:24.8840	1.44295
3	0	12/11/2025 15:33:26.8840	1.44295
3	0	12/11/2025 15:33:28.8840	1.44295
3	0	12/11/2025 15:33:30.8840	1.44295
3	0	12/11/2025 15:33:32.8840	1.44295
3	0	12/11/2025 15:33:34.8840	1.44295
3	0	12/11/2025 15:33:36.8840	1.44295
3	0	12/11/2025 15:33:38.8840	1.44294
3	0	12/11/2025 15:33:40.8840	1.44295
3	0	12/11/2025 15:33:42.8840	1.44294
3	0	12/11/2025 15:33:44.8840	1.44294
3	0	12/11/2025 15:33:46.8840	1.44294
3	0	12/11/2025 15:33:48.8840	1.44293
3	0	12/11/2025 15:33:50.8840	1.44293
3	0	12/11/2025 15:33:52.8840	1.44293
3	0	12/11/2025 15:33:54.8840	1.44292
3	0	12/11/2025 15:33:56.8840	1.44292
3	0	12/11/2025 15:33:58.8840	1.44292
3	0	12/11/2025 15:34:00.8840	1.44292
3	0	12/11/2025 15:34:02.8840	1.44292
3	0	12/11/2025 15:34:04.8840	1.44292
3	0	12/11/2025 15:34:06.8840	1.44292
3	0	12/11/2025 15:34:08.8840	1.44292
3	0	12/11/2025 15:34:10.8840	1.44291
3	0	12/11/2025 15:34:12.8840	1.44291
3	0	12/11/2025 15:34:14.8840	1.44291
3	0	12/11/2025 15:34:16.8840	1.44291
3	0	12/11/2025 15:34:18.8840	1.44291
3	0	12/11/2025 15:34:20.8840	1.44291
3	0	12/11/2025 15:34:22.8840	1.44291
3	0	12/11/2025 15:34:24.8840	1.4429
3	0	12/11/2025 15:34:26.8840	1.44291
3	0	12/11/2025 15:34:28.8840	1.4429
3	0	12/11/2025 15:34:30.8840	1.44289
3	0	12/11/2025 15:34:32.8840	1.44289
3	0	12/11/2025 15:34:34.8840	1.44289
3	0	12/11/2025 15:34:36.8840	1.44288
3	0	12/11/2025 15:34:38.8840	1.44288
3	0	12/11/2025 15:34:40.8840	1.44287
3	0	12/11/2025 15:34:42.8840	1.44288
3	0	12/11/2025 15:34:44.8840	1.44288
3	0	12/11/2025 15:34:46.8840	1.44288
3	0	12/11/2025 15:34:48.8840	1.44288
3	0	12/11/2025 15:34:50.8840	1.44287
3	0	12/11/2025 15:34:52.8840	1.44287
3	0	12/11/2025 15:34:54.8840	1.44287
3	0	12/11/2025 15:34:56.8840	1.44287
3	0	12/11/2025 15:34:58.8840	1.44286
3	0	12/11/2025 15:35:00.8840	1.44286
3	0	12/11/2025 15:35:02.8840	1.44287
3	0	12/11/2025 15:35:04.8840	1.44287
3	0	12/11/2025 15:35:06.8840	1.44286
3	0	12/11/2025 15:35:08.8840	1.44286
3	0	12/11/2025 15:35:10.8840	1.44286
3	0	12/11/2025 15:35:12.8840	1.44286
3	0	12/11/2025 15:35:14.8840	1.44285
3	0	12/11/2025 15:35:16.8840	1.44285
3	0	12/11/2025 15:35:18.8840	1.44285
3	0	12/11/2025 15:35:20.8840	1.44285
3	0	12/11/2025 15:35:22.8840	1.44285
3	0	12/11/2025 15:35:24.8840	1.44284
3	0	12/11/2025 15:35:26.8840	1.44284
3	0	12/11/2025 15:35:28.8840	1.44284
3	0	12/11/2025 15:35:30.8840	1.44284
3	0	12/11/2025 15:35:32.8840	1.44284
3	0	12/11/2025 15:35:34.8840	1.44283
3	0	12/11/2025 15:35:36.8840	1.44283
3	0	12/11/2025 15:35:38.8840	1.44282
3	0	12/11/2025 15:35:40.8840	1.44283
3	0	12/11/2025 15:35:42.8840	1.44282
3	0	12/11/2025 15:35:44.8840	1.44283
3	0	12/11/2025 15:35:46.8840	1.44282
3	0	12/11/2025 15:35:48.8840	1.44281
3	0	12/11/2025 15:35:50.8840	1.44281
3	0	12/11/2025 15:35:52.8840	1.44281
3	0	12/11/2025 15:35:54.8840	1.44281
3	0	12/11/2025 15:35:56.8840	1.44281
3	0	12/11/2025 15:35:58.8840	1.44281
3	0	12/11/2025 15:36:00.8840	1.4428
3	0	12/11/2025 15:36:02.8840	1.4428
3	0	12/11/2025 15:36:04.8840	1.44278
3	0	12/11/2025 15:36:06.8840	1.44278
3	0	12/11/2025 15:36:08.8840	1.44279
3	0	12/11/2025 15:36:10.8840	1.44279
3	0	12/11/2025 15:36:12.8840	1.44278
3	0	12/11/2025 15:36:14.8840	1.44277
3	0	12/11/2025 15:36:16.8840	1.44278
3	0	12/11/2025 15:36:18.8840	1.44277
3	0	12/11/2025 15:36:20.8840	1.44277
3	0	12/11/2025 15:36:22.8840	1.44276
3	0	12/11/2025 15:36:24.8840	1.44276
3	0	12/11/2025 15:36:26.8840	1.44276
3	0	12/11/2025 15:36:28.8840	1.44276
3	0	12/11/2025 15:36:30.8840	1.44276
3	0	12/11/2025 15:36:32.8840	1.44276
3	0	12/11/2025 15:36:34.8840	1.44276
3	0	12/11/2025 15:36:36.8840	1.44275
3	0	12/11/2025 15:36:38.8840	1.44275
3	0	12/11/2025 15:36:40.8840	1.44275
3	0	12/11/2025 15:36:42.8840	1.44274
3	0	12/11/2025 15:36:44.8840	1.44274
3	0	12/11/2025 15:36:46.8840	1.44275
3	0	12/11/2025 15:36:48.8840	1.44274
3	0	12/11/2025 15:36:50.8840	1.44275
3	0	12/11/2025 15:36:52.8840	1.44275
3	0	12/11/2025 15:36:54.8840	1.44274
3	0	12/11/2025 15:36:56.8840	1.44273
3	0	12/11/2025 15:36:58.8840	1.44273
3	0	12/11/2025 15:37:00.8840	1.44273
3	0	12/11/2025 15:37:02.8840	1.44273
3	0	12/11/2025 15:37:04.8840	1.44273
3	0	12/11/2025 15:37:06.8840	1.44272
3	0	12/11/2025 15:37:08.8840	1.44271
3	0	12/11/2025 15:37:10.8840	1.44271
3	0	12/11/2025 15:37:12.8840	1.44271
3	0	12/11/2025 15:37:14.8840	1.44272
3	0	12/11/2025 15:37:16.8840	1.44271
3	0	12/11/2025 15:37:18.8840	1.4427
3	0	12/11/2025 15:37:20.8840	1.4427
3	0	12/11/2025 15:37:22.8840	1.44269
3	0	12/11/2025 15:37:24.8840	1.44269
3	0	12/11/2025 15:37:26.8840	1.44269
3	0	12/11/2025 15:37:28.8840	1.44269
3	0	12/11/2025 15:37:30.8840	1.44268
3	0	12/11/2025 15:37:32.8840	1.44268
3	0	12/11/2025 15:37:34.8840	1.44268
3	0	12/11/2025 15:37:36.8840	1.44267
3	0	12/11/2025 15:37:38.8840	1.44267
3	0	12/11/2025 15:37:40.8840	1.44267
3	0	12/11/2025 15:37:42.8840	1.44266
3	0	12/11/2025 15:37:44.8840	1.44266
3	0	12/11/2025 15:37:46.8840	1.44266
3	0	12/11/2025 15:37:48.8840	1.44265
3	0	12/11/2025 15:37:50.8840	1.44264
3	0	12/11/2025 15:37:52.8840	1.44264
3	0	12/11/2025 15:37:54.8840	1.44263
3	0	12/11/2025 15:37:56.8840	1.44263
3	0	12/11/2025 15:37:58.8840	1.44262
3	0	12/11/2025 15:38:00.8840	1.44262
3	0	12/11/2025 15:38:02.8840	1.44263
3	0	12/11/2025 15:38:04.8840	1.44261
3	0	12/11/2025 15:38:06.8840	1.4426
3	0	12/11/2025 15:38:08.8840	1.4426
3	0	12/11/2025 15:38:10.8840	1.4426
3	0	12/11/2025 15:38:12.8840	1.44259
3	0	12/11/2025 15:38:14.8840	1.44259
3	0	12/11/2025 15:38:16.8840	1.44259
3	0	12/11/2025 15:38:18.8840	1.44258
3	0	12/11/2025 15:38:20.8840	1.44258
3	0	12/11/2025 15:38:22.8840	1.44257
3	0	12/11/2025 15:38:24.8840	1.44257
3	0	12/11/2025 15:38:26.8840	1.44256
3	0	12/11/2025 15:38:28.8840	1.44256
3	0	12/11/2025 15:38:30.8840	1.44255
3	0	12/11/2025 15:38:32.8840	1.44255
3	0	12/11/2025 15:38:34.8840	1.44256
3	0	12/11/2025 15:38:36.8840	1.44254
3	0	12/11/2025 15:38:38.8840	1.44254
3	0	12/11/2025 15:38:40.8840	1.44253
3	0	12/11/2025 15:38:42.8840	1.44252
3	0	12/11/2025 15:38:44.8840	1.44251
3	0	12/11/2025 15:38:46.8840	1.44251
3	0	12/11/2025 15:38:48.8840	1.4425
3	0	12/11/2025 15:38:50.8840	1.44249
3	0	12/11/2025 15:38:52.8840	1.44249
3	0	12/11/2025 15:38:54.8840	1.44247
3	0	12/11/2025 15:38:56.8840	1.44247
3	0	12/11/2025 15:38:58.8840	1.44247
3	0	12/11/2025 15:39:00.8840	1.44245
3	0	12/11/2025 15:39:02.8840	1.44244
3	0	12/11/2025 15:39:04.8840	1.44245
3	0	12/11/2025 15:39:06.8840	1.44244
3	0	12/11/2025 15:39:08.8840	1.44242
3	0	12/11/2025 15:39:10.8840	1.44242
3	0	12/11/2025 15:39:12.8840	1.4424
3	0	12/11/2025 15:39:14.8840	1.4424
3	0	12/11/2025 15:39:16.8840	1.44239
3	0	12/11/2025 15:39:18.8840	1.44238
3	0	12/11/2025 15:39:20.8840	1.44238
3	0	12/11/2025 15:39:22.8840	1.44237
3	0	12/11/2025 15:39:24.8840	1.44236
3	0	12/11/2025 15:39:26.8840	1.44235
3	0	12/11/2025 15:39:28.8840	1.44235
3	0	12/11/2025 15:39:30.8840	1.44234
3	0	12/11/2025 15:39:32.8840	1.44233
3	0	12/11/2025 15:39:34.8840	1.44231
3	0	12/11/2025 15:39:36.8840	1.44231
3	0	12/11/2025 15:39:38.8840	1.4423
3	0	12/11/2025 15:39:40.8840	1.44229
3	0	12/11/2025 15:39:42.8840	1.44228
3	0	12/11/2025 15:39:44.8840	1.44228
3	0	12/11/2025 15:39:46.8840	1.44228
3	0	12/11/2025 15:39:48.8840	1.44226
3	0	12/11/2025 15:39:50.8840	1.44226
3	0	12/11/2025 15:39:52.8840	1.44225
3	0	12/11/2025 15:39:54.8839	1.44224
3	0	12/11/2025 15:39:56.8839	1.44223
3	0	12/11/2025 15:39:58.8839	1.44223
3	0	12/11/2025 15:40:00.8839	1.44221
3	0	12/11/2025 15:40:02.8839	1.44221
3	0	12/11/2025 15:40:04.8839	1.4422
3	0	12/11/2025 15:40:06.8839	1.44219
3	0	12/11/2025 15:40:08.8839	1.44218
3	0	12/11/2025 15:40:10.8839	1.44218
3	0	12/11/2025 15:40:12.8839	1.44217
3	0	12/11/2025 15:40:14.8839	1.44217
3	0	12/11/2025 15:40:16.8839	1.44216
3	0	12/11/2025 15:40:18.8839	1.44216
3	0	12/11/2025 15:40:20.8839	1.44216
3	0	12/11/2025 15:40:22.8839	1.44216
3	0	12/11/2025 15:40:24.8839	1.44216
3	0	12/11/2025 15:40:26.8839	1.44216
3	0	12/11/2025 15:40:28.8839	1.44216
3	0	12/11/2025 15:40:30.8839	1.44217
3	0	12/11/2025 15:40:32.8839	1.44216
3	0	12/11/2025 15:40:34.8839	1.44217
3	0	12/11/2025 15:40:36.8839	1.44218
3	0	12/11/2025 15:40:38.8839	1.44216
3	0	12/11/2025 15:40:40.8839	1.44217
3	0	12/11/2025 15:40:42.8839	1.44217
3	0	12/11/2025 15:40:44.8839	1.44217
3	0	12/11/2025 15:40:46.8839	1.44217
3	0	12/11/2025 15:40:48.8839	1.44217
3	0	12/11/2025 15:40:50.8839	1.44216
3	0	12/11/2025 15:40:52.8839	1.44217
3	0	12/11/2025 15:40:54.8839	1.44218
3	0	12/11/2025 15:40:56.8839	1.44217
3	0	12/11/2025 15:40:58.8839	1.44217
3	0	12/11/2025 15:41:00.8839	1.44217
3	0	12/11/2025 15:41:02.8839	1.44217
3	0	12/11/2025 15:41:04.8839	1.44217
3	0	12/11/2025 15:41:06.8839	1.44217
3	0	12/11/2025 15:41:08.8839	1.44217
3	0	12/11/2025 15:41:10.8839	1.44217
3	0	12/11/2025 15:41:12.8839	1.44216
3	0	12/11/2025 15:41:14.8839	1.44216
3	0	12/11/2025 15:41:16.8839	1.44217
3	0	12/11/2025 15:41:18.8839	1.44216
3	0	12/11/2025 15:41:20.8839	1.44216
3	0	12/11/2025 15:41:22.8839	1.44216
3	0	12/11/2025 15:41:24.8839	1.44217
3	0	12/11/2025 15:41:26.8839	1.44216
3	0	12/11/2025 15:41:28.8839	1.44216
3	0	12/11/2025 15:41:30.8839	1.44216
3	0	12/11/2025 15:41:32.8839	1.44217
3	0	12/11/2025 15:41:34.8839	1.44216
3	0	12/11/2025 15:41:36.8839	1.44216
3	0	12/11/2025 15:41:38.8839	1.44215
3	0	12/11/2025 15:41:40.8839	1.44215
3	0	12/11/2025 15:41:42.8839	1.44215
3	0	12/11/2025 15:41:44.8839	1.44215
3	0	12/11/2025 15:41:46.8839	1.44215
3	0	12/11/2025 15:41:48.8839	1.44215
3	0	12/11/2025 15:41:50.8839	1.44214
3	0	12/11/2025 15:41:52.8839	1.44215
3	0	12/11/2025 15:41:54.8839	1.44214
3	0	12/11/2025 15:41:56.8839	1.44215
3	0	12/11/2025 15:41:58.8839	1.44214
3	0	12/11/2025 15:42:00.8839	1.44214
3	0	12/11/2025 15:42:02.8839	1.44214
3	0	12/11/2025 15:42:04.8839	1.44214
3	0	12/11/2025 15:42:06.8839	1.44214
3	0	12/11/2025 15:42:08.8839	1.44213
3	0	12/11/2025 15:42:10.8839	1.44213
3	0	12/11/2025 15:42:12.8839	1.44214
3	0	12/11/2025 15:42:14.8839	1.44213
3	0	12/11/2025 15:42:16.8839	1.44213
3	0	12/11/2025 15:42:18.8839	1.44213
3	0	12/11/2025 15:42:20.8839	1.44213
3	0	12/11/2025 15:42:22.8839	1.44213
3	0	12/11/2025 15:42:24.8839	1.44212
3	0	12/11/2025 15:42:26.8839	1.44213
3	0	12/11/2025 15:42:28.8839	1.44213
3	0	12/11/2025 15:42:30.8839	1.44212
3	0	12/11/2025 15:42:32.8839	1.44212
3	0	12/11/2025 15:42:34.8839	1.44212
3	0	12/11/2025 15:42:36.8839	1.44212
3	0	12/11/2025 15:42:38.8839	1.44212
3	0	12/11/2025 15:42:40.8839	1.44211
3	0	12/11/2025 15:42:42.8839	1.44211
3	0	12/11/2025 15:42:44.8839	1.44211
3	0	12/11/2025 15:42:46.8839	1.44211
3	0	12/11/2025 15:42:48.8839	1.44211
3	0	12/11/2025 15:42:50.8839	1.44211
3	0	12/11/2025 15:42:52.8839	1.44211
3	0	12/11/2025 15:42:54.8839	1.4421
3	0	12/11/2025 15:42:56.8839	1.4421
3	0	12/11/2025 15:42:58.8839	1.44212
3	0	12/11/2025 15:43:00.8839	1.44211
3	0	12/11/2025 15:43:02.8839	1.4421
3	0	12/11/2025 15:43:04.8839	1.4421
3	0	12/11/2025 15:43:06.8839	1.44211
3	0	12/11/2025 15:43:08.8839	1.4421
3	0	12/11/2025 15:43:10.8839	1.44209
3	0	12/11/2025 15:43:12.8839	1.44209
3	0	12/11/2025 15:43:14.8839	1.44209
3	0	12/11/2025 15:43:16.8839	1.44208
3	0	12/11/2025 15:43:18.8839	1.44208
3	0	12/11/2025 15:43:20.8839	1.44208
3	0	12/11/2025 15:43:22.8839	1.44209
3	0	12/11/2025 15:43:24.8839	1.44208
3	0	12/11/2025 15:43:26.8839	1.44207
3	0	12/11/2025 15:43:28.8839	1.44207
3	0	12/11/2025 15:43:30.8839	1.44208
3	0	12/11/2025 15:43:32.8839	1.44208
3	0	12/11/2025 15:43:34.8839	1.44207
3	0	12/11/2025 15:43:36.8839	1.44207
3	0	12/11/2025 15:43:38.8839	1.44207
3	0	12/11/2025 15:43:40.8839	1.44207
3	0	12/11/2025 15:43:42.8839	1.44207
3	0	12/11/2025 15:43:44.8839	1.44206
3	0	12/11/2025 15:43:46.8839	1.44207
3	0	12/11/2025 15:43:48.8839	1.44206
3	0	12/11/2025 15:43:50.8839	1.44206
3	0	12/11/2025 15:43:52.8839	1.44206
3	0	12/11/2025 15:43:54.8839	1.44206
3	0	12/11/2025 15:43:56.8839	1.44206
3	0	12/11/2025 15:43:58.8839	1.44205
3	0	12/11/2025 15:44:00.8839	1.44205
3	0	12/11/2025 15:44:02.8839	1.44206
3	0	12/11/2025 15:44:04.8839	1.44206
3	0	12/11/2025 15:44:06.8839	1.44205
3	0	12/11/2025 15:44:08.8839	1.44206
3	0	12/11/2025 15:44:10.8839	1.44205
3	0	12/11/2025 15:44:12.8839	1.44205
3	0	12/11/2025 15:44:14.8839	1.44205
3	0	12/11/2025 15:44:16.8839	1.44204
3	0	12/11/2025 15:44:18.8839	1.44204
3	0	12/11/2025 15:44:20.8839	1.44204
3	0	12/11/2025 15:44:22.8839	1.44203
3	0	12/11/2025 15:44:24.8839	1.44202
3	0	12/11/2025 15:44:26.8839	1.44203
3	0	12/11/2025 15:44:28.8839	1.44203
3	0	12/11/2025 15:44:30.8839	1.44203
3	0	12/11/2025 15:44:32.8839	1.44204
3	0	12/11/2025 15:44:34.8839	1.44203
3	0	12/11/2025 15:44:36.8839	1.44202
3	0	12/11/2025 15:44:38.8839	1.44202
3	0	12/11/2025 15:44:40.8839	1.44201
3	0	12/11/2025 15:44:42.8839	1.442
3	0	12/11/2025 15:44:44.8839	1.442
3	0	12/11/2025 15:44:46.8839	1.442
3	0	12/11/2025 15:44:48.8839	1.44199
3	0	12/11/2025 15:44:50.8839	1.44199
3	0	12/11/2025 15:44:52.8839	1.44199
3	0	12/11/2025 15:44:54.8839	1.44199
3	0	12/11/2025 15:44:56.8839	1.44198
3	0	12/11/2025 15:44:58.8839	1.44198
3	0	12/11/2025 15:45:00.8839	1.44198
3	0	12/11/2025 15:45:02.8839	1.44198
3	0	12/11/2025 15:45:04.8839	1.44198
3	0	12/11/2025 15:45:06.8839	1.44198
3	0	12/11/2025 15:45:08.8839	1.44197
3	0	12/11/2025 15:45:10.8839	1.44198
3	0	12/11/2025 15:45:11.8365	1.44197