File: docs/examples/XAS/Echem/Operando2/Cell3_Buffers/HAC_NH3_02_02_GCPL_C04.mpt
EC-Lab ASCII FILE
Nb header lines : 80

Galvanostatic Cycling with Potential Limitation

Run on channel : 4 (SN 52456)
User :
CE vs. WE compliance from -10 V to 10 V
Electrode connection : standard
Potential control : Ewe
Ewe ctrl range : min = 0.00 V, max = 3.00 V
Safety Limits :
	Do not start on E overload
Acquisition started on : 12/12/2025 14:30:15.519
Technique started on : 12/12/2025 14:30:32.619
Loaded Setting File :  L:\projects\cycle2025-II\20250340369-skhabazian\EC_lab\20251211.EMD.mps
Saved on :
	File : HAC_NH3_02_02_GCPL_C04.mpr
	Directory : L:\projects\cycle2025-II\20250340369-skhabazian\EC_lab\Cell3_Buffers\
	Host : 84.89.228.57
Device : VSP (SN 2155)
Address : 10.0.48.130
EC-LAB for windows v11.61 (software)
Internet server v11.61 (firmware)
Command interpretor v11.61 (firmware)
Electrode material :
Initial state :
Electrolyte :
Comments :
Mass of active material : 0.001 mg
 at x = 0.000
Molecular weight of active material (at x = 0) : 0.001 g/mol
Atomic weight of intercalated ion : 0.001 g/mol
Acquisition started at : xo = 0.000
Number of e- transfered per intercalated ion : 1
for DX = 1, DQ = 26.802 mA.h
Battery capacity : 0.000 A.h
Electrode surface area : 0.000 cm²
Characteristic mass : 0.001 g
Volume (V) : 0.001 cm³
Text export
   Mode : Standard
   Time format : Absolute MMDDYYYY
Cycle Definition : Charge/Discharge alternance
Ns                  0                   1                   2
Set I/C             I                   I                   I
Is                  0.000               300.000             -300.000
unit Is             mA                  µA                  µA
vs.                 <None>              <None>              <None>
N                   1.00                1.00                1.00
I sign              > 0                 > 0                 > 0
t1 (h:m:s)          0:00:0.0000         4:00:0.0000         10:00:0.0000
I Range             1 mA                1 mA                1 mA
Bandwidth           5                   5                   5
dE1 (mV)            0.00                0.00                0.00
dt1 (s)             0.0000              2.0000              2.0000
EM (V)              0.000               2.200               0.900
tM (h:m:s)          0:00:0.0000         0:00:0.0000         0:00:0.0000
Im                  0.000               0.000               0.000
unit Im             mA                  mA                  mA
dI/dt               0.000               0.000               0.000
dunit dI/dt         mA/s                mA/s                mA/s
E range min (V)     0.000               0.000               0.000
E range max (V)     3.000               3.000               3.000
dq                  0.000               1.000               1.000
unit dq             A.h                 A.h                 A.h
dtq (s)             0.0000              120.0000            120.0000
dQM                 0.000               0.000               0.000
unit dQM            mA.h                mA.h                mA.h
dxM                 0.000               0.000               0.000
delta SoC (%)       pass                pass                pass
tR (h:m:s)          0:01:0.0000         0:00:0.0000         0:00:0.0000
dER/dt (mV/h)       0.0                 0.1                 0.1
dER (mV)            0.00                0.00                0.00
dtR (s)             1.0000              120.0000            120.0000
EL (V)              pass                pass                pass
goto Ns'            0                   0                   1
nc cycles           0                   0                   100

mode	ox/red	error	control changes	Ns changes	counter inc.	Ns	time/s	dq/mA.h	(Q-Qo)/mA.h	control/V/mA	Ewe/V	I Range	Q charge/discharge/mA.h	half cycle	Energy we charge/W.h	Energy we discharge/W.h	Capacitance charge/µF	Capacitance discharge/µF	step time/s	<I>/mA	x	Q discharge/mA.h	Q charge/mA.h	Capacity/mA.h	Efficiency/%	control/V	control/mA	cycle number	Pwe/W	Rwe/Ohm
3	0	0	1	0	0	0	12/12/2025 14:30:32.6194	0.000000000000000E+000	0.000000000000000E+000	0.0000000E+000	1.42011	14	0.000000000000000E+000	0	0.000000000000000E+000	0.000000000000000E+000	0.000000000000000E+000	0.000000000000000E+000	17.1004	0.000000000000000E+000	0.000000000000000E+000	0.000000000000000E+000	0.000000000000000E+000	0.000000000000000E+000	0.0000000E+000	0.0000000E+000	0.0000000E+000	0.000000000000000E+000	0.0000000E+000	0.0000000E+000
3	0	0	1	0	0	0	12/12/2025 14:30:33.6194	0.000000000000000E+000	0.000000000000000E+000	0.0000000E+000	1.42088	14	0.000000000000000E+000	0	0.000000000000000E+000	0.000000000000000E+000	0.000000000000000E+000	0.000000000000000E+000	18.1004	0.000000000000000E+000	0.000000000000000E+000	0.000000000000000E+000	0.000000000000000E+000	0.000000000000000E+000	0.0000000E+000	0.0000000E+000	0.0000000E+000	0.000000000000000E+000	0.0000000E+000	0.0000000E+000
3	0	0	1	0	0	0	12/12/2025 14:30:34.6194	0.000000000000000E+000	0.000000000000000E+000	0.0000000E+000	1.42137	14	0.000000000000000E+000	0	0.000000000000000E+000	0.000000000000000E+000	0.000000000000000E+000	0.000000000000000E+000	19.1004	0.000000000000000E+000	0.000000000000000E+000	0.000000000000000E+000	0.000000000000000E+000	0.000000000000000E+000	0.0000000E+000	0.0000000E+000	0.0000000E+000	0.000000000000000E+000	0.0000000E+000	0.0000000E+000
3	0	0	1	0	0	0	12/12/2025 14:30:35.6194	0.000000000000000E+000	0.000000000000000E+000	0.0000000E+000	1.42208	14	0.000000000000000E+000	0	0.000000000000000E+000	0.000000000000000E+000	0.000000000000000E+000	0.000000000000000E+000	20.1004	0.000000000000000E+000	0.000000000000000E+000	0.000000000000000E+000	0.000000000000000E+000	0.000000000000000E+000	0.0000000E+000	0.0000000E+000	0.0000000E+000	0.000000000000000E+000	0.0000000E+000	0.0000000E+000
3	0	0	1	0	0	0	12/12/2025 14:30:36.6194	0.000000000000000E+000	0.000000000000000E+000	0.0000000E+000	1.42259	14	0.000000000000000E+000	0	0.000000000000000E+000	0.000000000000000E+000	0.000000000000000E+000	0.000000000000000E+000	21.1004	0.000000000000000E+000	0.000000000000000E+000	0.000000000000000E+000	0.000000000000000E+000	0.000000000000000E+000	0.0000000E+000	0.0000000E+000	0.0000000E+000	0.000000000000000E+000	0.0000000E+000	0.0000000E+000
3	0	0	1	0	0	0	12/12/2025 14:30:37.6194	0.000000000000000E+000	0.000000000000000E+000	0.0000000E+000	1.42317	14	0.000000000000000E+000	0	0.000000000000000E+000	0.000000000000000E+000	0.000000000000000E+000	0.000000000000000E+000	22.1004	0.000000000000000E+000	0.000000000000000E+000	0.000000000000000E+000	0.000000000000000E+000	0.000000000000000E+000	0.0000000E+000	0.0000000E+000	0.0000000E+000	0.000000000000000E+000	0.0000000E+000	0.0000000E+000
3	0	0	1	0	0	0	12/12/2025 14:30:38.6194	0.000000000000000E+000	0.000000000000000E+000	0.0000000E+000	1.4237	14	0.000000000000000E+000	0	0.000000000000000E+000	0.000000000000000E+000	0.000000000000000E+000	0.000000000000000E+000	23.1004	0.000000000000000E+000	0.000000000000000E+000	0.000000000000000E+000	0.000000000000000E+000	0.000000000000000E+000	0.0000000E+000	0.0000000E+000	0.0000000E+000	0.000000000000000E+000	0.0000000E+000	0.0000000E+000
3	0	0	1	0	0	0	12/12/2025 14:30:39.6194	0.000000000000000E+000	0.000000000000000E+000	0.0000000E+000	1.42429	14	0.000000000000000E+000	0	0.000000000000000E+000	0.000000000000000E+000	0.000000000000000E+000	0.000000000000000E+000	24.1004	0.000000000000000E+000	0.000000000000000E+000	0.000000000000000E+000	0.000000000000000E+000	0.000000000000000E+000	0.0000000E+000	0.0000000E+000	0.0000000E+000	0.000000000000000E+000	0.0000000E+000	0.0000000E+000
3	0	0	1	0	0	0	12/12/2025 14:30:40.6194	0.000000000000000E+000	0.000000000000000E+000	0.0000000E+000	1.42492	14	0.000000000000000E+000	0	0.000000000000000E+000	0.000000000000000E+000	0.000000000000000E+000	0.000000000000000E+000	25.1004	0.000000000000000E+000	0.000000000000000E+000	0.000000000000000E+000	0.000000000000000E+000	0.000000000000000E+000	0.0000000E+000	0.0000000E+000	0.0000000E+000	0.000000000000000E+000	0.0000000E+000	0.0000000E+000
3	0	0	1	0	0	0	12/12/2025 14:30:41.6194	0.000000000000000E+000	0.000000000000000E+000	0.0000000E+000	1.42538	14	0.000000000000000E+000	0	0.000000000000000E+000	0.000000000000000E+000	0.000000000000000E+000	0.000000000000000E+000	26.1004	0.000000000000000E+000	0.000000000000000E+000	0.000000000000000E+000	0.000000000000000E+000	0.000000000000000E+000	0.0000000E+000	0.0000000E+000	0.0000000E+000	0.000000000000000E+000	0.0000000E+000	0.0000000E+000
3	0	0	1	0	0	0	12/12/2025 14:30:42.6194	0.000000000000000E+000	0.000000000000000E+000	0.0000000E+000	1.42605	14	0.000000000000000E+000	0	0.000000000000000E+000	0.000000000000000E+000	0.000000000000000E+000	0.000000000000000E+000	27.1004	0.000000000000000E+000	0.000000000000000E+000	0.000000000000000E+000	0.000000000000000E+000	0.000000000000000E+000	0.0000000E+000	0.0000000E+000	0.0000000E+000	0.000000000000000E+000	0.0000000E+000	0.0000000E+000
3	0	0	1	0	0	0	12/12/2025 14:30:43.6194	0.000000000000000E+000	0.000000000000000E+000	0.0000000E+000	1.42635	14	0.000000000000000E+000	0	0.000000000000000E+000	0.000000000000000E+000	0.000000000000000E+000	0.000000000000000E+000	28.1004	0.000000000000000E+000	0.000000000000000E+000	0.000000000000000E+000	0.000000000000000E+000	0.000000000000000E+000	0.0000000E+000	0.0000000E+000	0.0000000E+000	0.000000000000000E+000	0.0000000E+000	0.0000000E+000
3	0	0	1	0	0	0	12/12/2025 14:30:44.6194	0.000000000000000E+000	0.000000000000000E+000	0.0000000E+000	1.42698	14	0.000000000000000E+000	0	0.000000000000000E+000	0.000000000000000E+000	0.000000000000000E+000	0.000000000000000E+000	29.1004	0.000000000000000E+000	0.000000000000000E+000	0.000000000000000E+000	0.000000000000000E+000	0.000000000000000E+000	0.0000000E+000	0.0000000E+000	0.0000000E+000	0.000000000000000E+000	0.0000000E+000	0.0000000E+000
3	0	0	1	0	0	0	12/12/2025 14:30:45.6194	0.000000000000000E+000	0.000000000000000E+000	0.0000000E+000	1.42757	14	0.000000000000000E+000	0	0.000000000000000E+000	0.000000000000000E+000	0.000000000000000E+000	0.000000000000000E+000	30.1004	0.000000000000000E+000	0.000000000000000E+000	0.000000000000000E+000	0.000000000000000E+000	0.000000000000000E+000	0.0000000E+000	0.0000000E+000	0.0000000E+000	0.000000000000000E+000	0.0000000E+000	0.0000000E+000
3	0	0	1	0	0	0	12/12/2025 14:30:46.6194	0.000000000000000E+000	0.000000000000000E+000	0.0000000E+000	1.42809	14	0.000000000000000E+000	0	0.000000000000000E+000	0.000000000000000E+000	0.000000000000000E+000	0.000000000000000E+000	31.1004	0.000000000000000E+000	0.000000000000000E+000	0.000000000000000E+000	0.000000000000000E+000	0.000000000000000E+000	0.0000000E+000	0.0000000E+000	0.0000000E+000	0.000000000000000E+000	0.0000000E+000	0.0000000E+000
1	1	0	0	1	0	1	12/12/2025 14:30:47.1072	0.000000000000000E+000	0.000000000000000E+000	0.3	1.42822	12	0.000000000000000E+000	0	0.000000000000000E+000	0.000000000000000E+000	0.000000000000000E+000	0.000000000000000E+000	31.5882	0.000000000000000E+000	0.000000000000000E+000	0.000000000000000E+000	0.000000000000000E+000	0.000000000000000E+000	0.0000000E+000	0.0000000E+000	0.3	0.000000000000000E+000	0.0000000E+000	0.0000000E+000
1	1	0	0	0	0	1	12/12/2025 14:30:49.1072	0.000166598	0.000166598	0.3	1.65234	12	0.000166598	0	2.75276e-07	0.000000000000000E+000	0.000000000000000E+000	0.000000000000000E+000	33.5882	0.299876	-6.21598e-06	0.000000000000000E+000	0.000166598	0.000166598	0.0000000E+000	0.0000000E+000	0.3	0.000000000000000E+000	0.000495496	5510.09
1	1	0	0	0	0	1	12/12/2025 14:30:51.1072	0.000166729	0.000333327	0.3	1.65053	12	0.000333327	0	5.50467e-07	0.000000000000000E+000	662332	0.000000000000000E+000	35.5882	0.300112	-1.24369e-05	0.000000000000000E+000	0.000333327	0.000333327	0.0000000E+000	0.0000000E+000	0.3	0.000000000000000E+000	0.000495344	5499.7
1	1	0	0	0	0	1	12/12/2025 14:30:53.1072	0.000166728	0.000500055	0.3	1.65963	12	0.000500055	0	8.27173e-07	0.000000000000000E+000	247106	0.000000000000000E+000	37.5882	0.300111	-1.86577e-05	0.000000000000000E+000	0.000500055	0.000500055	0.0000000E+000	0.0000000E+000	0.3	0.000000000000000E+000	0.000498071	5530.04
1	1	0	0	0	0	1	12/12/2025 14:30:55.1072	0.000166727	0.000666782	0.3	1.68829	12	0.000666782	0	1.10866e-06	0.000000000000000E+000	66773.7	0.000000000000000E+000	39.5882	0.300109	-2.48785e-05	0.000000000000000E+000	0.000666782	0.000666782	0.0000000E+000	0.0000000E+000	0.3	0.000000000000000E+000	0.000506671	5625.58
1	1	0	0	0	0	1	12/12/2025 14:30:57.1072	0.000166727	0.000833509	0.3	1.62455	12	0.000833509	0	1.37951e-06	0.000000000000000E+000	107990	0.000000000000000E+000	41.5882	0.300108	-3.10993e-05	0.000000000000000E+000	0.000833509	0.000833509	0.0000000E+000	0.0000000E+000	0.3	0.000000000000000E+000	0.000487542	5413.23
1	1	0	0	0	0	1	12/12/2025 14:30:59.1072	0.000166726	0.00100024	0.3	1.61038	12	0.00100024	0	1.64801e-06	0.000000000000000E+000	85825	0.000000000000000E+000	43.5882	0.300107	-3.73201e-05	0.000000000000000E+000	0.00100024	0.00100024	0.0000000E+000	0.0000000E+000	0.3	0.000000000000000E+000	0.000483288	5366.03
1	1	0	0	0	0	1	12/12/2025 14:31:01.1072	0.000166727	0.00116696	0.3	1.60749	12	0.00116696	0	1.91602e-06	0.000000000000000E+000	93659.8	0.000000000000000E+000	45.5882	0.300109	-4.35409e-05	0.000000000000000E+000	0.00116696	0.00116696	0.0000000E+000	0.0000000E+000	0.3	0.000000000000000E+000	0.000482421	5356.34
1	1	0	0	0	0	1	12/12/2025 14:31:03.1072	0.000166726	0.00133369	0.3	1.60832	12	0.00133369	0	2.18417e-06	0.000000000000000E+000	109082	0.000000000000000E+000	47.5882	0.300107	-4.97617e-05	0.000000000000000E+000	0.00133369	0.00133369	0.0000000E+000	0.0000000E+000	0.3	0.000000000000000E+000	0.000482669	5359.17
1	1	0	0	0	0	1	12/12/2025 14:31:05.1072	0.000166726	0.00150042	0.3	1.61059	12	0.00150042	0	2.4527e-06	0.000000000000000E+000	129390	0.000000000000000E+000	49.5882	0.300108	-5.59825e-05	0.000000000000000E+000	0.00150042	0.00150042	0.0000000E+000	0.0000000E+000	0.3	0.000000000000000E+000	0.000483351	5366.72
1	1	0	0	0	0	1	12/12/2025 14:31:07.1072	0.000166725	0.00166714	0.3	1.61576	12	0.00166714	0	2.72209e-06	0.000000000000000E+000	164080	0.000000000000000E+000	51.5882	0.300106	-6.22033e-05	0.000000000000000E+000	0.00166714	0.00166714	0.0000000E+000	0.0000000E+000	0.3	0.000000000000000E+000	0.000484899	5383.98
1	1	0	0	0	0	1	12/12/2025 14:31:09.1072	0.000166724	0.00183386	0.3	1.62072	12	0.00183386	0	2.9923e-06	0.000000000000000E+000	208794	0.000000000000000E+000	53.5882	0.300104	-6.8424e-05	0.000000000000000E+000	0.00183386	0.00183386	0.0000000E+000	0.0000000E+000	0.3	0.000000000000000E+000	0.000486384	5400.53
1	1	0	0	0	0	1	12/12/2025 14:31:11.1072	0.000166725	0.00200059	0.3	1.62686	12	0.00200059	0	3.26354e-06	0.000000000000000E+000	282673	0.000000000000000E+000	55.5882	0.300104	-7.46447e-05	0.000000000000000E+000	0.00200059	0.00200059	0.0000000E+000	0.0000000E+000	0.3	0.000000000000000E+000	0.000488228	5420.98
1	1	0	0	0	0	1	12/12/2025 14:31:13.1072	0.000166724	0.00216731	0.3	1.6323	12	0.00216731	0	3.53568e-06	0.000000000000000E+000	389272	0.000000000000000E+000	57.5882	0.300104	-8.08654e-05	0.000000000000000E+000	0.00216731	0.00216731	0.0000000E+000	0.0000000E+000	0.3	0.000000000000000E+000	0.000489859	5439.1
1	1	0	0	0	0	1	12/12/2025 14:31:15.1072	0.000166724	0.00233404	0.3	1.63764	12	0.00233404	0	3.80871e-06	0.000000000000000E+000	571465	0.000000000000000E+000	59.5882	0.300103	-8.70861e-05	0.000000000000000E+000	0.00233404	0.00233404	0.0000000E+000	0.0000000E+000	0.3	0.000000000000000E+000	0.00049146	5456.91
1	1	0	0	0	0	1	12/12/2025 14:31:17.1072	0.000166726	0.00250076	0.3	1.64441	12	0.00250076	0	4.08288e-06	0.000000000000000E+000	1.13479e+06	0.000000000000000E+000	61.5882	0.300106	-9.33069e-05	0.000000000000000E+000	0.00250076	0.00250076	0.0000000E+000	0.0000000E+000	0.3	0.000000000000000E+000	0.000493497	5479.41
1	1	0	0	0	0	1	12/12/2025 14:31:19.1072	0.000166725	0.00266749	0.3	1.64883	12	0.00266749	0	4.35778e-06	0.000000000000000E+000	2.73663e+06	0.000000000000000E+000	63.5882	0.300106	-9.95276e-05	0.000000000000000E+000	0.00266749	0.00266749	0.0000000E+000	0.0000000E+000	0.3	0.000000000000000E+000	0.000494824	5494.16
1	1	0	0	0	0	1	12/12/2025 14:31:21.1072	0.000166724	0.00283421	0.3	1.64971	12	0.00283421	0	4.63283e-06	0.000000000000000E+000	3.8769e+06	0.000000000000000E+000	65.5882	0.300104	-0.000105748	0.000000000000000E+000	0.00283421	0.00283421	0.0000000E+000	0.0000000E+000	0.3	0.000000000000000E+000	0.000495084	5497.12
1	1	0	0	0	0	1	12/12/2025 14:31:23.1072	0.000166723	0.00300094	0.3	1.6527	12	0.00300094	0	4.90837e-06	0.000000000000000E+000	2.98109e+07	0.000000000000000E+000	67.5882	0.300102	-0.000111969	0.000000000000000E+000	0.00300094	0.00300094	0.0000000E+000	0.0000000E+000	0.3	0.000000000000000E+000	0.000495979	5507.14
1	1	0	0	0	0	1	12/12/2025 14:31:25.1072	0.000166723	0.00316766	0.3	1.65585	12	0.00316766	0	5.18444e-06	0.000000000000000E+000	3.24977e+06	0.000000000000000E+000	69.5882	0.300101	-0.00011819	0.000000000000000E+000	0.00316766	0.00316766	0.0000000E+000	0.0000000E+000	0.3	0.000000000000000E+000	0.000496921	5517.64
1	1	0	0	0	0	1	12/12/2025 14:31:27.1072	0.000166724	0.00333438	0.3	1.65953	12	0.00333438	0	5.46112e-06	0.000000000000000E+000	1.66957e+06	0.000000000000000E+000	71.5882	0.300103	-0.00012441	0.000000000000000E+000	0.00333438	0.00333438	0.0000000E+000	0.0000000E+000	0.3	0.000000000000000E+000	0.000498029	5529.87
1	1	0	0	0	0	1	12/12/2025 14:31:29.1072	0.000166723	0.00350111	0.3	1.66155	12	0.00350111	0	5.73814e-06	0.000000000000000E+000	1.36833e+06	0.000000000000000E+000	73.5882	0.300101	-0.000130631	0.000000000000000E+000	0.00350111	0.00350111	0.0000000E+000	0.0000000E+000	0.3	0.000000000000000E+000	0.000498634	5536.63
1	1	0	0	0	0	1	12/12/2025 14:31:31.1072	0.000166722	0.00366783	0.3	1.6643	12	0.00366783	0	6.01562e-06	0.000000000000000E+000	1.10427e+06	0.000000000000000E+000	75.5882	0.300099	-0.000136852	0.000000000000000E+000	0.00366783	0.00366783	0.0000000E+000	0.0000000E+000	0.3	0.000000000000000E+000	0.000499455	5545.82
1	1	0	0	0	0	1	12/12/2025 14:31:33.1072	0.000166722	0.00383455	0.3	1.66727	12	0.00383455	0	6.29359e-06	0.000000000000000E+000	924459	0.000000000000000E+000	77.5882	0.3001	-0.000143072	0.000000000000000E+000	0.00383455	0.00383455	0.0000000E+000	0.0000000E+000	0.3	0.000000000000000E+000	0.000500349	5555.71
1	1	0	0	0	0	1	12/12/2025 14:31:35.1072	0.000166723	0.00400127	0.3	1.66884	12	0.00400127	0	6.57182e-06	0.000000000000000E+000	873201	0.000000000000000E+000	79.5882	0.300101	-0.000149293	0.000000000000000E+000	0.00400127	0.00400127	0.0000000E+000	0.0000000E+000	0.3	0.000000000000000E+000	0.000500819	5560.92
1	1	0	0	0	0	1	12/12/2025 14:31:37.1072	0.000166722	0.004168	0.3	1.67015	12	0.004168	0	6.85027e-06	0.000000000000000E+000	842391	0.000000000000000E+000	81.5882	0.3001	-0.000155514	0.000000000000000E+000	0.004168	0.004168	0.0000000E+000	0.0000000E+000	0.3	0.000000000000000E+000	0.000501212	5565.32
1	1	0	0	0	0	1	12/12/2025 14:31:39.1072	0.000166721	0.00433472	0.3	1.67336	12	0.00433472	0	7.12925e-06	0.000000000000000E+000	742528	0.000000000000000E+000	83.5882	0.300098	-0.000161734	0.000000000000000E+000	0.00433472	0.00433472	0.0000000E+000	0.0000000E+000	0.3	0.000000000000000E+000	0.00050217	5576.04
1	1	0	0	0	0	1	12/12/2025 14:31:41.1072	0.00016672	0.00450144	0.3	1.67704	12	0.00450144	0	7.40885e-06	0.000000000000000E+000	656167	0.000000000000000E+000	85.5882	0.300097	-0.000167955	0.000000000000000E+000	0.00450144	0.00450144	0.0000000E+000	0.0000000E+000	0.3	0.000000000000000E+000	0.000503273	5588.32
1	1	0	0	0	0	1	12/12/2025 14:31:43.1072	0.000166723	0.00466816	0.3	1.68077	12	0.00466816	0	7.68907e-06	0.000000000000000E+000	591020	0.000000000000000E+000	87.5882	0.300101	-0.000174175	0.000000000000000E+000	0.00466816	0.00466816	0.0000000E+000	0.0000000E+000	0.3	0.000000000000000E+000	0.000504402	5600.7
1	1	0	0	0	0	1	12/12/2025 14:31:45.1072	0.000166722	0.00483488	0.3	1.69348	12	0.00483488	0	7.97141e-06	0.000000000000000E+000	423126	0.000000000000000E+000	89.5882	0.300099	-0.000180396	0.000000000000000E+000	0.00483488	0.00483488	0.0000000E+000	0.0000000E+000	0.3	0.000000000000000E+000	0.000508211	5643.05
1	1	0	0	0	0	1	12/12/2025 14:31:47.1072	0.000166722	0.0050016	0.3	1.76089	12	0.0050016	0	8.26499e-06	0.000000000000000E+000	165874	0.000000000000000E+000	91.5882	0.300099	-0.000186617	0.000000000000000E+000	0.0050016	0.0050016	0.0000000E+000	0.0000000E+000	0.3	0.000000000000000E+000	0.000528442	5867.7
1	1	0	0	0	0	1	12/12/2025 14:31:49.1072	0.000166721	0.00516832	0.3	1.74317	12	0.00516832	0	8.55562e-06	0.000000000000000E+000	204834	0.000000000000000E+000	93.5882	0.300097	-0.000192837	0.000000000000000E+000	0.00516832	0.00516832	0.0000000E+000	0.0000000E+000	0.3	0.000000000000000E+000	0.000523122	5808.7
1	1	0	0	0	0	1	12/12/2025 14:31:51.1072	0.00016672	0.00533504	0.3	1.74262	12	0.00533504	0	8.84615e-06	0.000000000000000E+000	212737	0.000000000000000E+000	95.5882	0.300096	-0.000199058	0.000000000000000E+000	0.00533504	0.00533504	0.0000000E+000	0.0000000E+000	0.3	0.000000000000000E+000	0.000522954	5806.88
1	1	0	0	0	0	1	12/12/2025 14:31:53.1072	0.000166721	0.00550176	0.3	1.67374	12	0.00550176	0	9.12519e-06	0.000000000000000E+000	925640	0.000000000000000E+000	97.5882	0.300098	-0.000205278	0.000000000000000E+000	0.00550176	0.00550176	0.0000000E+000	0.0000000E+000	0.3	0.000000000000000E+000	0.000502285	5577.31
1	1	0	0	0	0	1	12/12/2025 14:31:55.1072	0.000166721	0.00566849	0.3	1.6651	12	0.00566849	0	9.4028e-06	0.000000000000000E+000	1.59946e+06	0.000000000000000E+000	99.5882	0.300098	-0.000211499	0.000000000000000E+000	0.00566849	0.00566849	0.0000000E+000	0.0000000E+000	0.3	0.000000000000000E+000	0.000499693	5548.51
1	1	0	0	0	0	1	12/12/2025 14:31:57.1072	0.000166722	0.00583521	0.3	1.65922	12	0.00583521	0	9.67943e-06	0.000000000000000E+000	3.05128e+06	0.000000000000000E+000	101.588	0.300099	-0.000217719	0.000000000000000E+000	0.00583521	0.00583521	0.0000000E+000	0.0000000E+000	0.3	0.000000000000000E+000	0.000497932	5528.92
1	1	0	0	0	0	1	12/12/2025 14:31:59.1072	0.000166721	0.00600193	0.3	1.66657	12	0.00600193	0	9.95728e-06	0.000000000000000E+000	1.51875e+06	0.000000000000000E+000	103.588	0.300099	-0.00022394	0.000000000000000E+000	0.00600193	0.00600193	0.0000000E+000	0.0000000E+000	0.3	0.000000000000000E+000	0.000500134	5553.4
1	1	0	0	0	0	1	12/12/2025 14:32:01.1072	0.000166721	0.00616865	0.3	1.66741	12	0.00616865	0	1.02353e-05	0.000000000000000E+000	1.474e+06	0.000000000000000E+000	105.588	0.300099	-0.000230161	0.000000000000000E+000	0.00616865	0.00616865	0.0000000E+000	0.0000000E+000	0.3	0.000000000000000E+000	0.000500386	5556.2
1	1	0	0	0	0	1	12/12/2025 14:32:03.1072	0.000166721	0.00633537	0.3	1.67549	12	0.00633537	0	1.05146e-05	0.000000000000000E+000	985113	0.000000000000000E+000	107.588	0.300098	-0.000236381	0.000000000000000E+000	0.00633537	0.00633537	0.0000000E+000	0.0000000E+000	0.3	0.000000000000000E+000	0.000502812	5583.15
1	1	0	0	0	0	1	12/12/2025 14:32:05.1072	0.000166721	0.00650209	0.3	1.67877	12	0.00650209	0	1.07945e-05	0.000000000000000E+000	885570	0.000000000000000E+000	109.588	0.300098	-0.000242602	0.000000000000000E+000	0.00650209	0.00650209	0.0000000E+000	0.0000000E+000	0.3	0.000000000000000E+000	0.000503796	5594.08
1	1	0	0	0	0	1	12/12/2025 14:32:07.1072	0.000166722	0.00666881	0.3	1.68163	12	0.00666881	0	1.10749e-05	0.000000000000000E+000	819581	0.000000000000000E+000	111.588	0.300099	-0.000248822	0.000000000000000E+000	0.00666881	0.00666881	0.0000000E+000	0.0000000E+000	0.3	0.000000000000000E+000	0.000504657	5603.59
1	1	0	0	0	0	1	12/12/2025 14:32:09.1072	0.000166722	0.00683554	0.3	1.68592	12	0.00683554	0	1.13559e-05	0.000000000000000E+000	732736	0.000000000000000E+000	113.588	0.3001	-0.000255043	0.000000000000000E+000	0.00683554	0.00683554	0.0000000E+000	0.0000000E+000	0.3	0.000000000000000E+000	0.000505946	5617.87
1	1	0	0	0	0	1	12/12/2025 14:32:10.4650	0.000113188	0.00694872	0.3	1.68884	12	0.00694872	0	1.15471e-05	0.000000000000000E+000	685325	0.000000000000000E+000	114.946	0.3001	-0.000259266	0.000000000000000E+000	0.00694872	0.00694872	0.0000000E+000	0.0000000E+000	0.3	0.000000000000000E+000	0.000506821	5627.6