File: docs/examples/XAS/Echem/Operando2/Cell3_Buffers/HAC_NH3_01_01_OCV_C04.mpt
EC-Lab ASCII FILE
Nb header lines : 53

Open Circuit Voltage

Run on channel : 4 (SN 52456)
User :
CE vs. WE compliance from -10 V to 10 V
Electrode connection : standard
Potential control : Ewe
Ewe ctrl range : min = 0.00 V, max = 3.00 V
Safety Limits :
	Do not start on E overload
Acquisition started on : 12/12/2025 12:28:57.704
Technique started on : 12/12/2025 12:28:58.204
Loaded Setting File :  L:\projects\cycle2025-II\20250340369-skhabazian\EC_lab\20251211.EMD.mps
Saved on :
	File : HAC_NH3_01_01_OCV_C04.mpr
	Directory : L:\projects\cycle2025-II\20250340369-skhabazian\EC_lab\Cell3_Buffers\
	Host : 84.89.228.57
Device : VSP (SN 2155)
Address : 10.0.48.130
EC-LAB for windows v11.61 (software)
Internet server v11.61 (firmware)
Command interpretor v11.61 (firmware)
Electrode material :
Initial state :
Electrolyte :
Comments :
Mass of active material : 0.001 mg
 at x = 0.000
Molecular weight of active material (at x = 0) : 0.001 g/mol
Atomic weight of intercalated ion : 0.001 g/mol
Acquisition started at : xo = 0.000
Number of e- transfered per intercalated ion : 1
for DX = 1, DQ = 26.802 mA.h
Battery capacity : 0.000 A.h
Electrode surface area : 0.000 cm²
Characteristic mass : 0.001 g
Volume (V) : 0.001 cm³
Text export
   Mode : Standard
   Time format : Absolute MMDDYYYY
Cycle Definition : Charge/Discharge alternance
tR (h:m:s)          20:00:30.0000
dER/dt (mV/h)       0.0
record              <Ewe>
dER (mV)            0.00
dtR (s)             0.5000
E range min (V)     0.000
E range max (V)     3.000

mode	error	time/s	<Ewe/V>
3	0	12/12/2025 12:28:58.2040	1.24927
3	0	12/12/2025 12:29:01.7040	1.24927
3	0	12/12/2025 12:29:05.2040	1.24928
3	0	12/12/2025 12:29:08.7040	1.24928
3	0	12/12/2025 12:29:12.2040	1.24929
3	0	12/12/2025 12:29:15.7040	1.24928
3	0	12/12/2025 12:29:19.2040	1.24928
3	0	12/12/2025 12:29:22.7040	1.24929
3	0	12/12/2025 12:29:26.2040	1.24929
3	0	12/12/2025 12:29:29.7040	1.24928
3	0	12/12/2025 12:29:33.2040	1.24929
3	0	12/12/2025 12:29:36.7040	1.24929
3	0	12/12/2025 12:29:40.2040	1.24928
3	0	12/12/2025 12:29:43.7040	1.24928
3	0	12/12/2025 12:29:47.2040	1.24928
3	0	12/12/2025 12:29:50.7040	1.24928
3	0	12/12/2025 12:29:54.2040	1.24929
3	0	12/12/2025 12:29:57.7040	1.24929
3	0	12/12/2025 12:30:01.2040	1.24929
3	0	12/12/2025 12:30:04.7040	1.24929
3	0	12/12/2025 12:30:08.2040	1.24928
3	0	12/12/2025 12:30:11.7040	1.24928
3	0	12/12/2025 12:30:15.2040	1.24928
3	0	12/12/2025 12:30:18.7040	1.24929
3	0	12/12/2025 12:30:22.2040	1.24928
3	0	12/12/2025 12:30:25.7040	1.24928
3	0	12/12/2025 12:30:29.2040	1.24928
3	0	12/12/2025 12:30:32.7040	1.24928
3	0	12/12/2025 12:30:36.2040	1.24928
3	0	12/12/2025 12:30:39.7040	1.24928
3	0	12/12/2025 12:30:43.2040	1.24928
3	0	12/12/2025 12:30:46.7040	1.24929
3	0	12/12/2025 12:30:50.2040	1.24928
3	0	12/12/2025 12:30:53.7040	1.24929
3	0	12/12/2025 12:30:57.2040	1.24929
3	0	12/12/2025 12:31:00.7040	1.24929
3	0	12/12/2025 12:31:04.2040	1.24929
3	0	12/12/2025 12:31:07.7040	1.24929
3	0	12/12/2025 12:31:11.2040	1.24928
3	0	12/12/2025 12:31:14.7040	1.24928
3	0	12/12/2025 12:31:18.2040	1.24928
3	0	12/12/2025 12:31:21.7040	1.24928
3	0	12/12/2025 12:31:25.2040	1.24928
3	0	12/12/2025 12:31:28.7040	1.24928
3	0	12/12/2025 12:31:32.2040	1.24928
3	0	12/12/2025 12:31:35.7040	1.24928
3	0	12/12/2025 12:31:39.2040	1.24928
3	0	12/12/2025 12:31:42.7040	1.24928
3	0	12/12/2025 12:31:46.2040	1.24928
3	0	12/12/2025 12:31:49.7040	1.24928
3	0	12/12/2025 12:31:53.2040	1.24928
3	0	12/12/2025 12:31:56.7040	1.24928
3	0	12/12/2025 12:32:00.2040	1.24928
3	0	12/12/2025 12:32:03.7040	1.24928
3	0	12/12/2025 12:32:07.2040	1.24927
3	0	12/12/2025 12:32:10.7040	1.24928
3	0	12/12/2025 12:32:14.2040	1.24928
3	0	12/12/2025 12:32:17.7040	1.24927
3	0	12/12/2025 12:32:21.2040	1.24927
3	0	12/12/2025 12:32:24.7040	1.24927
3	0	12/12/2025 12:32:28.2040	1.24927
3	0	12/12/2025 12:32:31.7040	1.24927
3	0	12/12/2025 12:32:35.2040	1.24927
3	0	12/12/2025 12:32:38.7040	1.24927
3	0	12/12/2025 12:32:42.2040	1.24928
3	0	12/12/2025 12:32:45.7040	1.24928
3	0	12/12/2025 12:32:49.2040	1.24927
3	0	12/12/2025 12:32:52.7040	1.24927
3	0	12/12/2025 12:32:56.2040	1.24927
3	0	12/12/2025 12:32:59.7040	1.24927
3	0	12/12/2025 12:33:03.2040	1.24927
3	0	12/12/2025 12:33:06.7040	1.24927
3	0	12/12/2025 12:33:10.2040	1.24927
3	0	12/12/2025 12:33:13.7040	1.24927
3	0	12/12/2025 12:33:17.2040	1.24927
3	0	12/12/2025 12:33:20.7040	1.24926
3	0	12/12/2025 12:33:24.2040	1.24926
3	0	12/12/2025 12:33:27.7040	1.24926
3	0	12/12/2025 12:33:31.2040	1.24926
3	0	12/12/2025 12:33:34.7040	1.24926
3	0	12/12/2025 12:33:38.2040	1.24926
3	0	12/12/2025 12:33:41.7040	1.24926
3	0	12/12/2025 12:33:45.2040	1.24926
3	0	12/12/2025 12:33:48.7040	1.24927
3	0	12/12/2025 12:33:52.2040	1.24926
3	0	12/12/2025 12:33:55.7040	1.24926
3	0	12/12/2025 12:33:59.2040	1.24926
3	0	12/12/2025 12:34:02.7040	1.24925
3	0	12/12/2025 12:34:06.2040	1.24926
3	0	12/12/2025 12:34:09.7040	1.24925
3	0	12/12/2025 12:34:13.2040	1.24926
3	0	12/12/2025 12:34:16.7040	1.24926
3	0	12/12/2025 12:34:20.2040	1.24925
3	0	12/12/2025 12:34:23.7040	1.24926
3	0	12/12/2025 12:34:27.2040	1.24926
3	0	12/12/2025 12:34:30.7040	1.24926
3	0	12/12/2025 12:34:34.2040	1.24926
3	0	12/12/2025 12:34:37.7040	1.24926
3	0	12/12/2025 12:34:41.2040	1.24926
3	0	12/12/2025 12:34:44.7040	1.24926
3	0	12/12/2025 12:34:48.2040	1.24926
3	0	12/12/2025 12:34:51.7040	1.24925
3	0	12/12/2025 12:34:55.2040	1.24925
3	0	12/12/2025 12:34:58.7040	1.24925
3	0	12/12/2025 12:35:02.2040	1.24925
3	0	12/12/2025 12:35:05.7040	1.24925
3	0	12/12/2025 12:35:09.2040	1.24925
3	0	12/12/2025 12:35:12.7040	1.24925
3	0	12/12/2025 12:35:16.2040	1.24925
3	0	12/12/2025 12:35:19.7040	1.24925
3	0	12/12/2025 12:35:23.2040	1.24925
3	0	12/12/2025 12:35:26.7040	1.24925
3	0	12/12/2025 12:35:30.2040	1.24925
3	0	12/12/2025 12:35:33.7040	1.24925
3	0	12/12/2025 12:35:37.2040	1.24925
3	0	12/12/2025 12:35:40.7040	1.24925
3	0	12/12/2025 12:35:44.2040	1.24924
3	0	12/12/2025 12:35:47.7040	1.24924
3	0	12/12/2025 12:35:51.2040	1.24924
3	0	12/12/2025 12:35:54.7040	1.24924
3	0	12/12/2025 12:35:58.2040	1.24924
3	0	12/12/2025 12:36:01.7040	1.24924
3	0	12/12/2025 12:36:05.2040	1.24924
3	0	12/12/2025 12:36:08.7040	1.24924
3	0	12/12/2025 12:36:12.2040	1.24924
3	0	12/12/2025 12:36:15.7040	1.24924
3	0	12/12/2025 12:36:19.2040	1.24924
3	0	12/12/2025 12:36:22.7040	1.24924
3	0	12/12/2025 12:36:26.2040	1.24924
3	0	12/12/2025 12:36:29.7040	1.24924
3	0	12/12/2025 12:36:33.2040	1.24924
3	0	12/12/2025 12:36:36.7040	1.24924
3	0	12/12/2025 12:36:40.2040	1.24924
3	0	12/12/2025 12:36:43.7040	1.24924
3	0	12/12/2025 12:36:47.2040	1.24923
3	0	12/12/2025 12:36:50.7040	1.24923
3	0	12/12/2025 12:36:54.2040	1.24923
3	0	12/12/2025 12:36:57.7040	1.24923
3	0	12/12/2025 12:37:01.2040	1.24923
3	0	12/12/2025 12:37:04.7040	1.24923
3	0	12/12/2025 12:37:08.2040	1.24923
3	0	12/12/2025 12:37:11.7040	1.24922
3	0	12/12/2025 12:37:15.2040	1.24923
3	0	12/12/2025 12:37:18.7040	1.24923
3	0	12/12/2025 12:37:22.2040	1.24923
3	0	12/12/2025 12:37:25.7040	1.24923
3	0	12/12/2025 12:37:29.2040	1.24922
3	0	12/12/2025 12:37:32.7040	1.24923
3	0	12/12/2025 12:37:36.2040	1.24923
3	0	12/12/2025 12:37:39.7040	1.24923
3	0	12/12/2025 12:37:43.2040	1.24923
3	0	12/12/2025 12:37:46.7040	1.24922
3	0	12/12/2025 12:37:50.2040	1.24922
3	0	12/12/2025 12:37:53.7040	1.24922
3	0	12/12/2025 12:37:57.2040	1.24922
3	0	12/12/2025 12:38:00.7040	1.24922
3	0	12/12/2025 12:38:04.2040	1.24922
3	0	12/12/2025 12:38:07.7040	1.24922
3	0	12/12/2025 12:38:11.2040	1.24922
3	0	12/12/2025 12:38:14.7040	1.24922
3	0	12/12/2025 12:38:18.2040	1.24922
3	0	12/12/2025 12:38:21.7040	1.24922
3	0	12/12/2025 12:38:25.2040	1.24922
3	0	12/12/2025 12:38:28.7040	1.24922
3	0	12/12/2025 12:38:32.2040	1.24922
3	0	12/12/2025 12:38:35.7040	1.24923
3	0	12/12/2025 12:38:39.2040	1.24923
3	0	12/12/2025 12:38:42.7040	1.24922
3	0	12/12/2025 12:38:46.2040	1.24923
3	0	12/12/2025 12:38:49.7040	1.24922
3	0	12/12/2025 12:38:53.2040	1.24923
3	0	12/12/2025 12:38:56.7040	1.24923
3	0	12/12/2025 12:39:00.2040	1.24923
3	0	12/12/2025 12:39:03.7040	1.24922
3	0	12/12/2025 12:39:07.2040	1.24923
3	0	12/12/2025 12:39:10.7040	1.24923
3	0	12/12/2025 12:39:14.2040	1.24923
3	0	12/12/2025 12:39:17.7040	1.24922
3	0	12/12/2025 12:39:21.2040	1.24922
3	0	12/12/2025 12:39:24.7040	1.24922
3	0	12/12/2025 12:39:28.2040	1.24922
3	0	12/12/2025 12:39:31.7040	1.24922
3	0	12/12/2025 12:39:35.2040	1.24922
3	0	12/12/2025 12:39:38.7040	1.24922
3	0	12/12/2025 12:39:42.2040	1.24922
3	0	12/12/2025 12:39:45.7040	1.24922
3	0	12/12/2025 12:39:49.2040	1.24922
3	0	12/12/2025 12:39:52.7040	1.24922
3	0	12/12/2025 12:39:56.2040	1.24922
3	0	12/12/2025 12:39:59.7040	1.24922
3	0	12/12/2025 12:40:03.2040	1.24922
3	0	12/12/2025 12:40:06.7040	1.24922
3	0	12/12/2025 12:40:10.2040	1.24922
3	0	12/12/2025 12:40:13.7040	1.24922
3	0	12/12/2025 12:40:17.2040	1.24922
3	0	12/12/2025 12:40:20.7040	1.24922
3	0	12/12/2025 12:40:24.2040	1.24922
3	0	12/12/2025 12:40:27.7040	1.24922
3	0	12/12/2025 12:40:31.2040	1.24922
3	0	12/12/2025 12:40:34.7040	1.24923
3	0	12/12/2025 12:40:38.2040	1.24925
3	0	12/12/2025 12:40:41.7040	1.24926
3	0	12/12/2025 12:40:45.2040	1.24928
3	0	12/12/2025 12:40:48.7040	1.24929
3	0	12/12/2025 12:40:52.2040	1.2493
3	0	12/12/2025 12:40:55.7040	1.2493
3	0	12/12/2025 12:40:59.2040	1.24931
3	0	12/12/2025 12:41:02.7040	1.24932
3	0	12/12/2025 12:41:06.2040	1.24932
3	0	12/12/2025 12:41:09.7040	1.24932
3	0	12/12/2025 12:41:13.2040	1.24932
3	0	12/12/2025 12:41:16.7040	1.24932
3	0	12/12/2025 12:41:20.2040	1.24932
3	0	12/12/2025 12:41:23.7040	1.24932
3	0	12/12/2025 12:41:27.2040	1.24932
3	0	12/12/2025 12:41:30.7040	1.24932
3	0	12/12/2025 12:41:34.2040	1.24932
3	0	12/12/2025 12:41:37.7040	1.24932
3	0	12/12/2025 12:41:41.2040	1.24931
3	0	12/12/2025 12:41:44.7040	1.24931
3	0	12/12/2025 12:41:48.2040	1.24931
3	0	12/12/2025 12:41:51.7040	1.24931
3	0	12/12/2025 12:41:55.2040	1.24931
3	0	12/12/2025 12:41:58.7040	1.2493
3	0	12/12/2025 12:42:02.2040	1.24929
3	0	12/12/2025 12:42:05.7040	1.24929
3	0	12/12/2025 12:42:09.2040	1.24929
3	0	12/12/2025 12:42:12.7040	1.24928
3	0	12/12/2025 12:42:16.2040	1.24928
3	0	12/12/2025 12:42:19.7040	1.24928
3	0	12/12/2025 12:42:23.2040	1.24927
3	0	12/12/2025 12:42:26.7040	1.24927
3	0	12/12/2025 12:42:30.2040	1.24926
3	0	12/12/2025 12:42:33.7040	1.24926
3	0	12/12/2025 12:42:37.2040	1.24925
3	0	12/12/2025 12:42:40.7040	1.24925
3	0	12/12/2025 12:42:44.2040	1.24924
3	0	12/12/2025 12:42:47.7040	1.24924
3	0	12/12/2025 12:42:51.2040	1.24924
3	0	12/12/2025 12:42:54.7040	1.24924
3	0	12/12/2025 12:42:58.2040	1.24923
3	0	12/12/2025 12:43:01.7040	1.24923
3	0	12/12/2025 12:43:05.2040	1.24923
3	0	12/12/2025 12:43:08.7040	1.24922
3	0	12/12/2025 12:43:12.2040	1.24922
3	0	12/12/2025 12:43:15.7040	1.24921
3	0	12/12/2025 12:43:19.2040	1.24921
3	0	12/12/2025 12:43:22.7040	1.2492
3	0	12/12/2025 12:43:26.2040	1.2492
3	0	12/12/2025 12:43:29.7040	1.2492
3	0	12/12/2025 12:43:33.2040	1.2492
3	0	12/12/2025 12:43:36.7040	1.24919
3	0	12/12/2025 12:43:40.2040	1.24919
3	0	12/12/2025 12:43:43.7040	1.24919
3	0	12/12/2025 12:43:47.2040	1.24918
3	0	12/12/2025 12:43:50.7040	1.24918
3	0	12/12/2025 12:43:54.2040	1.24917
3	0	12/12/2025 12:43:57.7040	1.24917
3	0	12/12/2025 12:44:01.2040	1.24917
3	0	12/12/2025 12:44:04.7040	1.24916
3	0	12/12/2025 12:44:08.2040	1.24916
3	0	12/12/2025 12:44:11.7040	1.24915
3	0	12/12/2025 12:44:15.2040	1.24915
3	0	12/12/2025 12:44:18.7040	1.24914
3	0	12/12/2025 12:44:22.2040	1.24914
3	0	12/12/2025 12:44:25.7040	1.24913
3	0	12/12/2025 12:44:29.2040	1.24913
3	0	12/12/2025 12:44:32.7040	1.24913
3	0	12/12/2025 12:44:36.2040	1.24913
3	0	12/12/2025 12:44:39.7040	1.24912
3	0	12/12/2025 12:44:43.2040	1.24912
3	0	12/12/2025 12:44:46.7040	1.24911
3	0	12/12/2025 12:44:50.2040	1.24911
3	0	12/12/2025 12:44:53.7040	1.2491
3	0	12/12/2025 12:44:57.2040	1.2491
3	0	12/12/2025 12:45:00.7040	1.2491
3	0	12/12/2025 12:45:04.2040	1.24909
3	0	12/12/2025 12:45:07.7040	1.24909
3	0	12/12/2025 12:45:11.2040	1.24908
3	0	12/12/2025 12:45:14.7040	1.24908
3	0	12/12/2025 12:45:18.2040	1.24908
3	0	12/12/2025 12:45:21.7040	1.24907
3	0	12/12/2025 12:45:25.2040	1.24907
3	0	12/12/2025 12:45:28.7040	1.24907
3	0	12/12/2025 12:45:32.2040	1.24906
3	0	12/12/2025 12:45:35.7040	1.24906
3	0	12/12/2025 12:45:39.2040	1.24905
3	0	12/12/2025 12:45:42.7040	1.24905
3	0	12/12/2025 12:45:46.2040	1.24905
3	0	12/12/2025 12:45:49.7040	1.24905
3	0	12/12/2025 12:45:53.2040	1.24905
3	0	12/12/2025 12:45:56.7040	1.24904
3	0	12/12/2025 12:46:00.2040	1.24904
3	0	12/12/2025 12:46:03.7040	1.24903
3	0	12/12/2025 12:46:07.2040	1.24903
3	0	12/12/2025 12:46:10.7040	1.24902
3	0	12/12/2025 12:46:14.2040	1.24902
3	0	12/12/2025 12:46:17.7040	1.24902
3	0	12/12/2025 12:46:21.2040	1.24902
3	0	12/12/2025 12:46:24.7040	1.24901
3	0	12/12/2025 12:46:28.2040	1.24901
3	0	12/12/2025 12:46:31.7040	1.249
3	0	12/12/2025 12:46:35.2040	1.24901
3	0	12/12/2025 12:46:38.7040	1.249
3	0	12/12/2025 12:46:42.2040	1.249
3	0	12/12/2025 12:46:45.7040	1.24899
3	0	12/12/2025 12:46:49.2040	1.24899
3	0	12/12/2025 12:46:52.7040	1.24899
3	0	12/12/2025 12:46:56.2040	1.24898
3	0	12/12/2025 12:46:59.7040	1.24898
3	0	12/12/2025 12:47:03.2040	1.24897
3	0	12/12/2025 12:47:06.7040	1.24897
3	0	12/12/2025 12:47:10.2040	1.24896
3	0	12/12/2025 12:47:13.7040	1.24897
3	0	12/12/2025 12:47:17.2040	1.24896
3	0	12/12/2025 12:47:20.7040	1.24896
3	0	12/12/2025 12:47:24.2040	1.24896
3	0	12/12/2025 12:47:27.7040	1.24895
3	0	12/12/2025 12:47:31.2040	1.24895
3	0	12/12/2025 12:47:34.7040	1.24895
3	0	12/12/2025 12:47:38.2040	1.24895
3	0	12/12/2025 12:47:41.7040	1.24894
3	0	12/12/2025 12:47:45.2040	1.24894
3	0	12/12/2025 12:47:48.7040	1.24894
3	0	12/12/2025 12:47:52.2040	1.24894
3	0	12/12/2025 12:47:55.7040	1.24893
3	0	12/12/2025 12:47:59.2040	1.24893
3	0	12/12/2025 12:48:02.7040	1.24892
3	0	12/12/2025 12:48:06.2040	1.24892
3	0	12/12/2025 12:48:09.7040	1.24892
3	0	12/12/2025 12:48:13.2040	1.24891
3	0	12/12/2025 12:48:16.7040	1.24891
3	0	12/12/2025 12:48:20.2040	1.24891
3	0	12/12/2025 12:48:23.7040	1.24891
3	0	12/12/2025 12:48:27.2040	1.24891
3	0	12/12/2025 12:48:30.7040	1.2489
3	0	12/12/2025 12:48:34.2040	1.24891
3	0	12/12/2025 12:48:37.7040	1.2489
3	0	12/12/2025 12:48:41.2040	1.2489
3	0	12/12/2025 12:48:44.7040	1.2489
3	0	12/12/2025 12:48:48.2040	1.2489
3	0	12/12/2025 12:48:51.7040	1.24889
3	0	12/12/2025 12:48:55.2040	1.24888
3	0	12/12/2025 12:48:58.7040	1.24888
3	0	12/12/2025 12:49:02.2040	1.24888
3	0	12/12/2025 12:49:05.7040	1.24887
3	0	12/12/2025 12:49:09.2040	1.24887
3	0	12/12/2025 12:49:12.7040	1.24886
3	0	12/12/2025 12:49:16.2040	1.24887
3	0	12/12/2025 12:49:19.7040	1.24886
3	0	12/12/2025 12:49:23.2040	1.24885
3	0	12/12/2025 12:49:26.7040	1.24886
3	0	12/12/2025 12:49:30.2040	1.24884
3	0	12/12/2025 12:49:33.7040	1.24885
3	0	12/12/2025 12:49:37.2040	1.24884
3	0	12/12/2025 12:49:40.7040	1.24884
3	0	12/12/2025 12:49:44.2040	1.24883
3	0	12/12/2025 12:49:47.7040	1.24883
3	0	12/12/2025 12:49:51.2040	1.24883
3	0	12/12/2025 12:49:54.7040	1.24882
3	0	12/12/2025 12:49:58.2040	1.24883
3	0	12/12/2025 12:50:01.7040	1.24882
3	0	12/12/2025 12:50:05.2040	1.24881
3	0	12/12/2025 12:50:08.7040	1.24881
3	0	12/12/2025 12:50:12.2040	1.24881
3	0	12/12/2025 12:50:15.7040	1.2488
3	0	12/12/2025 12:50:19.2040	1.2488
3	0	12/12/2025 12:50:22.7040	1.2488
3	0	12/12/2025 12:50:26.2040	1.24879
3	0	12/12/2025 12:50:29.7040	1.2488
3	0	12/12/2025 12:50:33.2040	1.24879
3	0	12/12/2025 12:50:36.7040	1.24879
3	0	12/12/2025 12:50:40.2040	1.24878
3	0	12/12/2025 12:50:43.7040	1.24878
3	0	12/12/2025 12:50:47.2040	1.24878
3	0	12/12/2025 12:50:50.7040	1.24878
3	0	12/12/2025 12:50:54.2040	1.24877
3	0	12/12/2025 12:50:57.7040	1.24877
3	0	12/12/2025 12:51:01.2040	1.24877
3	0	12/12/2025 12:51:04.7040	1.24877
3	0	12/12/2025 12:51:08.2040	1.24876
3	0	12/12/2025 12:51:11.7040	1.24876
3	0	12/12/2025 12:51:15.2040	1.24875
3	0	12/12/2025 12:51:18.7040	1.24875
3	0	12/12/2025 12:51:22.2040	1.24875
3	0	12/12/2025 12:51:25.7040	1.24875
3	0	12/12/2025 12:51:29.2040	1.24874
3	0	12/12/2025 12:51:32.7040	1.24874
3	0	12/12/2025 12:51:36.2040	1.24873
3	0	12/12/2025 12:51:39.7040	1.24874
3	0	12/12/2025 12:51:43.2040	1.24873
3	0	12/12/2025 12:51:46.7040	1.24872
3	0	12/12/2025 12:51:50.2040	1.24872
3	0	12/12/2025 12:51:53.7040	1.24872
3	0	12/12/2025 12:51:57.2040	1.24872
3	0	12/12/2025 12:52:00.7040	1.24872
3	0	12/12/2025 12:52:04.2040	1.24872
3	0	12/12/2025 12:52:07.7040	1.24872
3	0	12/12/2025 12:52:11.2040	1.24871
3	0	12/12/2025 12:52:14.7040	1.24871
3	0	12/12/2025 12:52:18.2040	1.2487
3	0	12/12/2025 12:52:21.7040	1.2487
3	0	12/12/2025 12:52:25.2040	1.24869
3	0	12/12/2025 12:52:28.7040	1.24869
3	0	12/12/2025 12:52:32.2040	1.24868
3	0	12/12/2025 12:52:35.7040	1.24868
3	0	12/12/2025 12:52:39.2040	1.24868
3	0	12/12/2025 12:52:42.7040	1.24868
3	0	12/12/2025 12:52:46.2040	1.24867
3	0	12/12/2025 12:52:49.7040	1.24866
3	0	12/12/2025 12:52:53.2040	1.24866
3	0	12/12/2025 12:52:56.7040	1.24866
3	0	12/12/2025 12:53:00.2040	1.24865
3	0	12/12/2025 12:53:03.7040	1.24865
3	0	12/12/2025 12:53:07.2040	1.24865
3	0	12/12/2025 12:53:10.7040	1.24864
3	0	12/12/2025 12:53:14.2040	1.24864
3	0	12/12/2025 12:53:17.7040	1.24863
3	0	12/12/2025 12:53:21.2040	1.24863
3	0	12/12/2025 12:53:24.7040	1.24863
3	0	12/12/2025 12:53:28.2040	1.24863
3	0	12/12/2025 12:53:31.7040	1.24863
3	0	12/12/2025 12:53:35.2040	1.24863
3	0	12/12/2025 12:53:38.7040	1.24862
3	0	12/12/2025 12:53:42.2040	1.24862
3	0	12/12/2025 12:53:45.7040	1.24861
3	0	12/12/2025 12:53:49.2040	1.24861
3	0	12/12/2025 12:53:52.7040	1.24861
3	0	12/12/2025 12:53:56.2040	1.24861
3	0	12/12/2025 12:53:59.7040	1.24861
3	0	12/12/2025 12:54:03.2040	1.2486
3	0	12/12/2025 12:54:06.7040	1.2486
3	0	12/12/2025 12:54:10.2040	1.2486
3	0	12/12/2025 12:54:13.7040	1.24859
3	0	12/12/2025 12:54:17.2040	1.24859
3	0	12/12/2025 12:54:20.7040	1.24859
3	0	12/12/2025 12:54:24.2040	1.24859
3	0	12/12/2025 12:54:27.7040	1.24859
3	0	12/12/2025 12:54:31.2040	1.24858
3	0	12/12/2025 12:54:34.7040	1.24857
3	0	12/12/2025 12:54:38.2040	1.24857
3	0	12/12/2025 12:54:41.7040	1.24857
3	0	12/12/2025 12:54:45.2040	1.24857
3	0	12/12/2025 12:54:48.7040	1.24857
3	0	12/12/2025 12:54:52.2040	1.24857
3	0	12/12/2025 12:54:55.7040	1.24856
3	0	12/12/2025 12:54:59.2040	1.24856
3	0	12/12/2025 12:55:02.7040	1.24855
3	0	12/12/2025 12:55:06.2040	1.24855
3	0	12/12/2025 12:55:09.7040	1.24855
3	0	12/12/2025 12:55:13.2040	1.24854
3	0	12/12/2025 12:55:16.7040	1.24854
3	0	12/12/2025 12:55:20.2040	1.24854
3	0	12/12/2025 12:55:23.7040	1.24854
3	0	12/12/2025 12:55:27.2040	1.24853
3	0	12/12/2025 12:55:30.7040	1.24853
3	0	12/12/2025 12:55:34.2040	1.24853
3	0	12/12/2025 12:55:37.7040	1.24853
3	0	12/12/2025 12:55:41.2040	1.24852
3	0	12/12/2025 12:55:44.7040	1.24852
3	0	12/12/2025 12:55:48.2040	1.24852
3	0	12/12/2025 12:55:51.7040	1.24852
3	0	12/12/2025 12:55:55.2040	1.24851
3	0	12/12/2025 12:55:58.7040	1.24851
3	0	12/12/2025 12:56:02.2040	1.2485
3	0	12/12/2025 12:56:05.7040	1.2485
3	0	12/12/2025 12:56:09.2040	1.2485
3	0	12/12/2025 12:56:12.7040	1.24849
3	0	12/12/2025 12:56:16.2040	1.24849
3	0	12/12/2025 12:56:19.7040	1.24849
3	0	12/12/2025 12:56:23.2040	1.24848
3	0	12/12/2025 12:56:26.7040	1.24849
3	0	12/12/2025 12:56:30.2040	1.24848
3	0	12/12/2025 12:56:33.7040	1.24847
3	0	12/12/2025 12:56:37.2040	1.24847
3	0	12/12/2025 12:56:40.7040	1.24847
3	0	12/12/2025 12:56:44.2040	1.24847
3	0	12/12/2025 12:56:47.7040	1.24847
3	0	12/12/2025 12:56:51.2040	1.24846
3	0	12/12/2025 12:56:54.7040	1.24846
3	0	12/12/2025 12:56:58.2040	1.24846
3	0	12/12/2025 12:57:01.7040	1.24845
3	0	12/12/2025 12:57:05.2040	1.24845
3	0	12/12/2025 12:57:08.7040	1.24845
3	0	12/12/2025 12:57:12.2040	1.24845
3	0	12/12/2025 12:57:15.7040	1.24844
3	0	12/12/2025 12:57:19.2040	1.24843
3	0	12/12/2025 12:57:22.7040	1.24844
3	0	12/12/2025 12:57:26.2040	1.24843
3	0	12/12/2025 12:57:29.7040	1.24843
3	0	12/12/2025 12:57:33.2040	1.24843
3	0	12/12/2025 12:57:36.7040	1.24843
3	0	12/12/2025 12:57:40.2040	1.24842
3	0	12/12/2025 12:57:43.7040	1.24842
3	0	12/12/2025 12:57:47.2040	1.24842
3	0	12/12/2025 12:57:50.7040	1.24842
3	0	12/12/2025 12:57:54.2040	1.24841
3	0	12/12/2025 12:57:57.7040	1.24841
3	0	12/12/2025 12:58:01.2040	1.2484
3	0	12/12/2025 12:58:04.7040	1.2484
3	0	12/12/2025 12:58:08.2040	1.2484
3	0	12/12/2025 12:58:11.7040	1.2484
3	0	12/12/2025 12:58:15.2040	1.2484
3	0	12/12/2025 12:58:18.7040	1.24839
3	0	12/12/2025 12:58:22.2040	1.24839
3	0	12/12/2025 12:58:25.7040	1.24839
3	0	12/12/2025 12:58:29.2040	1.24839
3	0	12/12/2025 12:58:32.7040	1.24838
3	0	12/12/2025 12:58:36.2040	1.24838
3	0	12/12/2025 12:58:39.7040	1.24838
3	0	12/12/2025 12:58:43.2040	1.24837
3	0	12/12/2025 12:58:46.7040	1.24837
3	0	12/12/2025 12:58:50.2040	1.24837
3	0	12/12/2025 12:58:53.7040	1.24837
3	0	12/12/2025 12:58:57.2040	1.24836
3	0	12/12/2025 12:59:00.7040	1.24836
3	0	12/12/2025 12:59:04.2040	1.24836
3	0	12/12/2025 12:59:07.7040	1.24836
3	0	12/12/2025 12:59:11.2040	1.24836
3	0	12/12/2025 12:59:14.7040	1.24835
3	0	12/12/2025 12:59:18.2040	1.24835
3	0	12/12/2025 12:59:21.7040	1.24835
3	0	12/12/2025 12:59:25.2040	1.24834
3	0	12/12/2025 12:59:28.7040	1.24834
3	0	12/12/2025 12:59:32.2040	1.24834
3	0	12/12/2025 12:59:35.7040	1.24833
3	0	12/12/2025 12:59:39.2040	1.24833
3	0	12/12/2025 12:59:42.7040	1.24833
3	0	12/12/2025 12:59:46.2040	1.24832
3	0	12/12/2025 12:59:49.7040	1.24832
3	0	12/12/2025 12:59:53.2040	1.24832
3	0	12/12/2025 12:59:56.7040	1.24831
3	0	12/12/2025 13:00:00.2040	1.24831
3	0	12/12/2025 13:00:03.7040	1.24831
3	0	12/12/2025 13:00:07.2040	1.2483
3	0	12/12/2025 13:00:10.7040	1.2483
3	0	12/12/2025 13:00:14.2040	1.2483
3	0	12/12/2025 13:00:17.7040	1.2483
3	0	12/12/2025 13:00:21.2040	1.24829
3	0	12/12/2025 13:00:24.7040	1.24829
3	0	12/12/2025 13:00:28.2040	1.24829
3	0	12/12/2025 13:00:31.7040	1.24829
3	0	12/12/2025 13:00:35.2040	1.24829
3	0	12/12/2025 13:00:38.7040	1.24829
3	0	12/12/2025 13:00:42.2040	1.24828
3	0	12/12/2025 13:00:45.7040	1.24828
3	0	12/12/2025 13:00:49.2040	1.24827
3	0	12/12/2025 13:00:52.7040	1.24827
3	0	12/12/2025 13:00:56.2040	1.24827
3	0	12/12/2025 13:00:59.7040	1.24826
3	0	12/12/2025 13:01:03.2040	1.24826
3	0	12/12/2025 13:01:06.7040	1.24826
3	0	12/12/2025 13:01:10.2040	1.24826
3	0	12/12/2025 13:01:13.7040	1.24825
3	0	12/12/2025 13:01:17.2040	1.24825
3	0	12/12/2025 13:01:20.7040	1.24825
3	0	12/12/2025 13:01:24.2040	1.24825
3	0	12/12/2025 13:01:27.7040	1.24825
3	0	12/12/2025 13:01:31.2040	1.24824
3	0	12/12/2025 13:01:34.7040	1.24824
3	0	12/12/2025 13:01:38.2040	1.24824
3	0	12/12/2025 13:01:41.7040	1.24823
3	0	12/12/2025 13:01:45.2040	1.24823
3	0	12/12/2025 13:01:48.7040	1.24823
3	0	12/12/2025 13:01:52.2039	1.24823
3	0	12/12/2025 13:01:55.7039	1.24823
3	0	12/12/2025 13:01:59.2039	1.24822
3	0	12/12/2025 13:02:02.7039	1.24822
3	0	12/12/2025 13:02:06.2039	1.24821
3	0	12/12/2025 13:02:09.7039	1.24821
3	0	12/12/2025 13:02:13.2039	1.24821
3	0	12/12/2025 13:02:16.7039	1.24821
3	0	12/12/2025 13:02:20.2039	1.24821
3	0	12/12/2025 13:02:23.7039	1.2482
3	0	12/12/2025 13:02:27.2039	1.2482
3	0	12/12/2025 13:02:30.7039	1.2482
3	0	12/12/2025 13:02:34.2039	1.24819
3	0	12/12/2025 13:02:37.7039	1.24819
3	0	12/12/2025 13:02:41.2039	1.24819
3	0	12/12/2025 13:02:44.7039	1.24819
3	0	12/12/2025 13:02:48.2039	1.24818
3	0	12/12/2025 13:02:51.7039	1.24818
3	0	12/12/2025 13:02:55.2039	1.24818
3	0	12/12/2025 13:02:58.7039	1.24817
3	0	12/12/2025 13:03:02.2039	1.24816
3	0	12/12/2025 13:03:05.7039	1.24816
3	0	12/12/2025 13:03:09.2039	1.24816
3	0	12/12/2025 13:03:12.7039	1.24816
3	0	12/12/2025 13:03:16.2039	1.24816
3	0	12/12/2025 13:03:19.7039	1.24816
3	0	12/12/2025 13:03:23.2039	1.24815
3	0	12/12/2025 13:03:26.7039	1.24815
3	0	12/12/2025 13:03:30.2039	1.24815
3	0	12/12/2025 13:03:33.7039	1.24814
3	0	12/12/2025 13:03:37.2039	1.24815
3	0	12/12/2025 13:03:40.7039	1.24814
3	0	12/12/2025 13:03:44.2039	1.24814
3	0	12/12/2025 13:03:47.7039	1.24813
3	0	12/12/2025 13:03:51.2039	1.24813
3	0	12/12/2025 13:03:54.7039	1.24813
3	0	12/12/2025 13:03:58.2039	1.24813
3	0	12/12/2025 13:04:01.7039	1.24812
3	0	12/12/2025 13:04:05.2039	1.24812
3	0	12/12/2025 13:04:08.7039	1.24812
3	0	12/12/2025 13:04:12.2039	1.24812
3	0	12/12/2025 13:04:15.7039	1.24812
3	0	12/12/2025 13:04:19.2039	1.24812
3	0	12/12/2025 13:04:22.7039	1.24811
3	0	12/12/2025 13:04:26.2039	1.24811
3	0	12/12/2025 13:04:29.7039	1.2481
3	0	12/12/2025 13:04:33.2039	1.24811
3	0	12/12/2025 13:04:36.7039	1.2481
3	0	12/12/2025 13:04:40.2039	1.2481
3	0	12/12/2025 13:04:43.7039	1.2481
3	0	12/12/2025 13:04:47.2039	1.2481
3	0	12/12/2025 13:04:50.7039	1.2481
3	0	12/12/2025 13:04:54.2039	1.24809
3	0	12/12/2025 13:04:57.7039	1.24809
3	0	12/12/2025 13:05:01.2039	1.24808
3	0	12/12/2025 13:05:04.7039	1.24808
3	0	12/12/2025 13:05:08.2039	1.24808
3	0	12/12/2025 13:05:11.7039	1.24807
3	0	12/12/2025 13:05:15.2039	1.24807
3	0	12/12/2025 13:05:18.7039	1.24807
3	0	12/12/2025 13:05:22.2039	1.24807
3	0	12/12/2025 13:05:25.7039	1.24807
3	0	12/12/2025 13:05:29.2039	1.24806
3	0	12/12/2025 13:05:32.7039	1.24806
3	0	12/12/2025 13:05:36.2039	1.24806
3	0	12/12/2025 13:05:39.7039	1.24806
3	0	12/12/2025 13:05:43.2039	1.24806
3	0	12/12/2025 13:05:46.7039	1.24805
3	0	12/12/2025 13:05:50.2039	1.24804
3	0	12/12/2025 13:05:53.7039	1.24805
3	0	12/12/2025 13:05:57.2039	1.24804
3	0	12/12/2025 13:06:00.7039	1.24804
3	0	12/12/2025 13:06:04.2039	1.24803
3	0	12/12/2025 13:06:07.7039	1.24803
3	0	12/12/2025 13:06:11.2039	1.24803
3	0	12/12/2025 13:06:14.7039	1.24802
3	0	12/12/2025 13:06:18.2039	1.24803
3	0	12/12/2025 13:06:21.7039	1.24803
3	0	12/12/2025 13:06:25.2039	1.24802
3	0	12/12/2025 13:06:28.7039	1.24802
3	0	12/12/2025 13:06:32.2039	1.24802
3	0	12/12/2025 13:06:35.7039	1.24801
3	0	12/12/2025 13:06:39.2039	1.24801
3	0	12/12/2025 13:06:42.7039	1.24801
3	0	12/12/2025 13:06:46.2039	1.248
3	0	12/12/2025 13:06:49.7039	1.248
3	0	12/12/2025 13:06:53.2039	1.248
3	0	12/12/2025 13:06:56.7039	1.24799
3	0	12/12/2025 13:07:00.2039	1.24799
3	0	12/12/2025 13:07:03.7039	1.24799
3	0	12/12/2025 13:07:07.2039	1.24799
3	0	12/12/2025 13:07:10.7039	1.24799
3	0	12/12/2025 13:07:14.2039	1.24798
3	0	12/12/2025 13:07:17.7039	1.24798
3	0	12/12/2025 13:07:21.2039	1.24798
3	0	12/12/2025 13:07:24.7039	1.24797
3	0	12/12/2025 13:07:28.2039	1.24797
3	0	12/12/2025 13:07:31.7039	1.24796
3	0	12/12/2025 13:07:35.2039	1.24796
3	0	12/12/2025 13:07:38.7039	1.24796
3	0	12/12/2025 13:07:42.2039	1.24796
3	0	12/12/2025 13:07:45.7039	1.24796
3	0	12/12/2025 13:07:49.2039	1.24795
3	0	12/12/2025 13:07:52.7039	1.24796
3	0	12/12/2025 13:07:56.2039	1.24795
3	0	12/12/2025 13:07:59.7039	1.24795
3	0	12/12/2025 13:08:03.2039	1.24795
3	0	12/12/2025 13:08:06.7039	1.24795
3	0	12/12/2025 13:08:10.2039	1.24794
3	0	12/12/2025 13:08:13.7039	1.24794
3	0	12/12/2025 13:08:17.2039	1.24794
3	0	12/12/2025 13:08:20.7039	1.24794
3	0	12/12/2025 13:08:24.2039	1.24793
3	0	12/12/2025 13:08:27.7039	1.24793
3	0	12/12/2025 13:08:31.2039	1.24793
3	0	12/12/2025 13:08:34.7039	1.24793
3	0	12/12/2025 13:08:38.2039	1.24792
3	0	12/12/2025 13:08:41.7039	1.24792
3	0	12/12/2025 13:08:45.2039	1.24792
3	0	12/12/2025 13:08:48.7039	1.24792
3	0	12/12/2025 13:08:52.2039	1.24792
3	0	12/12/2025 13:08:55.7039	1.24791
3	0	12/12/2025 13:08:59.2039	1.24791
3	0	12/12/2025 13:09:02.7039	1.24791
3	0	12/12/2025 13:09:06.2039	1.24791
3	0	12/12/2025 13:09:09.7039	1.2479
3	0	12/12/2025 13:09:13.2039	1.2479
3	0	12/12/2025 13:09:16.7039	1.2479
3	0	12/12/2025 13:09:20.2039	1.24789
3	0	12/12/2025 13:09:23.7039	1.24789
3	0	12/12/2025 13:09:27.2039	1.24789
3	0	12/12/2025 13:09:30.7039	1.24789
3	0	12/12/2025 13:09:34.2039	1.24789
3	0	12/12/2025 13:09:37.7039	1.24789
3	0	12/12/2025 13:09:41.2039	1.24788
3	0	12/12/2025 13:09:44.7039	1.24788
3	0	12/12/2025 13:09:48.2039	1.24788
3	0	12/12/2025 13:09:51.7039	1.24788
3	0	12/12/2025 13:09:55.2039	1.24787
3	0	12/12/2025 13:09:58.7039	1.24787
3	0	12/12/2025 13:10:02.2039	1.24786
3	0	12/12/2025 13:10:05.7039	1.24786
3	0	12/12/2025 13:10:09.2039	1.24786
3	0	12/12/2025 13:10:12.7039	1.24786
3	0	12/12/2025 13:10:16.2039	1.24786
3	0	12/12/2025 13:10:19.7039	1.24785
3	0	12/12/2025 13:10:23.2039	1.24785
3	0	12/12/2025 13:10:26.7039	1.24785
3	0	12/12/2025 13:10:30.2039	1.24785
3	0	12/12/2025 13:10:33.7039	1.24784
3	0	12/12/2025 13:10:37.2039	1.24785
3	0	12/12/2025 13:10:40.7039	1.24784
3	0	12/12/2025 13:10:44.2039	1.24784
3	0	12/12/2025 13:10:47.7039	1.24783
3	0	12/12/2025 13:10:51.2039	1.24783
3	0	12/12/2025 13:10:54.7039	1.24783
3	0	12/12/2025 13:10:58.2039	1.24783
3	0	12/12/2025 13:11:01.7039	1.24782
3	0	12/12/2025 13:11:05.2039	1.24782
3	0	12/12/2025 13:11:08.7039	1.24782
3	0	12/12/2025 13:11:12.2039	1.24781
3	0	12/12/2025 13:11:15.7039	1.24781
3	0	12/12/2025 13:11:19.2039	1.24781
3	0	12/12/2025 13:11:22.7039	1.24781
3	0	12/12/2025 13:11:26.2039	1.24781
3	0	12/12/2025 13:11:29.7039	1.24781
3	0	12/12/2025 13:11:33.2039	1.2478
3	0	12/12/2025 13:11:36.7039	1.2478
3	0	12/12/2025 13:11:40.2039	1.24779
3	0	12/12/2025 13:11:43.7039	1.24779
3	0	12/12/2025 13:11:47.2039	1.24779
3	0	12/12/2025 13:11:50.7039	1.24778
3	0	12/12/2025 13:11:54.2039	1.24778
3	0	12/12/2025 13:11:57.7039	1.24778
3	0	12/12/2025 13:12:01.2039	1.24778
3	0	12/12/2025 13:12:04.7039	1.24778
3	0	12/12/2025 13:12:08.2039	1.24778
3	0	12/12/2025 13:12:11.7039	1.24778
3	0	12/12/2025 13:12:15.2039	1.24777
3	0	12/12/2025 13:12:18.7039	1.24777
3	0	12/12/2025 13:12:22.2039	1.24776
3	0	12/12/2025 13:12:25.7039	1.24776
3	0	12/12/2025 13:12:29.2039	1.24776
3	0	12/12/2025 13:12:32.7039	1.24776
3	0	12/12/2025 13:12:36.2039	1.24776
3	0	12/12/2025 13:12:39.7039	1.24775
3	0	12/12/2025 13:12:43.2039	1.24775
3	0	12/12/2025 13:12:46.7039	1.24775
3	0	12/12/2025 13:12:50.2039	1.24775
3	0	12/12/2025 13:12:53.7039	1.24775
3	0	12/12/2025 13:12:57.2039	1.24775
3	0	12/12/2025 13:13:00.7039	1.24774
3	0	12/12/2025 13:13:04.2039	1.24774
3	0	12/12/2025 13:13:07.7039	1.24774
3	0	12/12/2025 13:13:11.2039	1.24773
3	0	12/12/2025 13:13:14.7039	1.24773
3	0	12/12/2025 13:13:18.2039	1.24773
3	0	12/12/2025 13:13:21.7039	1.24773
3	0	12/12/2025 13:13:25.2039	1.24772
3	0	12/12/2025 13:13:28.7039	1.24772
3	0	12/12/2025 13:13:32.2039	1.24772
3	0	12/12/2025 13:13:35.7039	1.24772
3	0	12/12/2025 13:13:39.2039	1.24772
3	0	12/12/2025 13:13:42.7039	1.24773
3	0	12/12/2025 13:13:46.2039	1.24772
3	0	12/12/2025 13:13:49.7039	1.24772
3	0	12/12/2025 13:13:53.2039	1.24772
3	0	12/12/2025 13:13:56.7039	1.24772
3	0	12/12/2025 13:14:00.2039	1.24772
3	0	12/12/2025 13:14:03.7039	1.24771
3	0	12/12/2025 13:14:07.2039	1.24771
3	0	12/12/2025 13:14:10.7039	1.24772
3	0	12/12/2025 13:14:14.2039	1.24771
3	0	12/12/2025 13:14:17.7039	1.24771
3	0	12/12/2025 13:14:21.2039	1.24772
3	0	12/12/2025 13:14:24.7039	1.24771
3	0	12/12/2025 13:14:28.2039	1.24772
3	0	12/12/2025 13:14:31.7039	1.24772
3	0	12/12/2025 13:14:35.2039	1.24772
3	0	12/12/2025 13:14:38.7039	1.24772
3	0	12/12/2025 13:14:42.2039	1.24772
3	0	12/12/2025 13:14:45.7039	1.24772
3	0	12/12/2025 13:14:49.2039	1.24772
3	0	12/12/2025 13:14:52.7039	1.24772
3	0	12/12/2025 13:14:56.2039	1.24772
3	0	12/12/2025 13:14:59.7039	1.24772
3	0	12/12/2025 13:15:03.2039	1.24773
3	0	12/12/2025 13:15:06.7039	1.24773
3	0	12/12/2025 13:15:10.2039	1.24773
3	0	12/12/2025 13:15:13.7039	1.24773
3	0	12/12/2025 13:15:17.2039	1.24774
3	0	12/12/2025 13:15:20.7039	1.24773
3	0	12/12/2025 13:15:24.2039	1.24773
3	0	12/12/2025 13:15:27.7039	1.24773
3	0	12/12/2025 13:15:31.2039	1.24774
3	0	12/12/2025 13:15:34.7039	1.24774
3	0	12/12/2025 13:15:38.2039	1.24774
3	0	12/12/2025 13:15:41.7039	1.24774
3	0	12/12/2025 13:15:45.2039	1.24775
3	0	12/12/2025 13:15:48.7039	1.24774
3	0	12/12/2025 13:15:52.2039	1.24775
3	0	12/12/2025 13:15:55.7039	1.24775
3	0	12/12/2025 13:15:59.2039	1.24775
3	0	12/12/2025 13:16:02.7039	1.24776
3	0	12/12/2025 13:16:06.2039	1.24776
3	0	12/12/2025 13:16:09.7039	1.24777
3	0	12/12/2025 13:16:13.2039	1.24778
3	0	12/12/2025 13:16:16.7039	1.24778
3	0	12/12/2025 13:16:20.2039	1.24779
3	0	12/12/2025 13:16:23.7039	1.24779
3	0	12/12/2025 13:16:27.2039	1.2478
3	0	12/12/2025 13:16:30.7039	1.2478
3	0	12/12/2025 13:16:34.2039	1.24781
3	0	12/12/2025 13:16:37.7039	1.24781
3	0	12/12/2025 13:16:41.2039	1.24782
3	0	12/12/2025 13:16:44.7039	1.24782
3	0	12/12/2025 13:16:48.2039	1.24784
3	0	12/12/2025 13:16:51.7039	1.24785
3	0	12/12/2025 13:16:55.2039	1.24786
3	0	12/12/2025 13:16:58.7039	1.24786
3	0	12/12/2025 13:17:02.2039	1.24787
3	0	12/12/2025 13:17:05.7039	1.24788
3	0	12/12/2025 13:17:09.2039	1.24789
3	0	12/12/2025 13:17:12.7039	1.2479
3	0	12/12/2025 13:17:16.2039	1.24791
3	0	12/12/2025 13:17:19.7039	1.24792
3	0	12/12/2025 13:17:23.2039	1.24793
3	0	12/12/2025 13:17:26.7039	1.24795
3	0	12/12/2025 13:17:30.2039	1.24796
3	0	12/12/2025 13:17:33.7039	1.24797
3	0	12/12/2025 13:17:37.2039	1.24798
3	0	12/12/2025 13:17:40.7039	1.24799
3	0	12/12/2025 13:17:44.2039	1.248
3	0	12/12/2025 13:17:47.7039	1.24801
3	0	12/12/2025 13:17:51.2039	1.24802
3	0	12/12/2025 13:17:54.7039	1.24803
3	0	12/12/2025 13:17:58.2039	1.24803
3	0	12/12/2025 13:18:01.7039	1.24804
3	0	12/12/2025 13:18:05.2039	1.24805
3	0	12/12/2025 13:18:08.7039	1.24806
3	0	12/12/2025 13:18:12.2039	1.24807
3	0	12/12/2025 13:18:15.7039	1.24807
3	0	12/12/2025 13:18:19.2039	1.24807
3	0	12/12/2025 13:18:22.7039	1.24808
3	0	12/12/2025 13:18:26.2039	1.24808
3	0	12/12/2025 13:18:29.7039	1.24809
3	0	12/12/2025 13:18:33.2039	1.2481
3	0	12/12/2025 13:18:36.7039	1.2481
3	0	12/12/2025 13:18:40.2039	1.24811
3	0	12/12/2025 13:18:43.7039	1.24811
3	0	12/12/2025 13:18:47.2039	1.24812
3	0	12/12/2025 13:18:50.7039	1.24812
3	0	12/12/2025 13:18:54.2039	1.24812
3	0	12/12/2025 13:18:57.7039	1.24813
3	0	12/12/2025 13:19:01.2039	1.24813
3	0	12/12/2025 13:19:04.7039	1.24813
3	0	12/12/2025 13:19:08.2039	1.24813
3	0	12/12/2025 13:19:11.7039	1.24814
3	0	12/12/2025 13:19:15.2039	1.24814
3	0	12/12/2025 13:19:18.7039	1.24814
3	0	12/12/2025 13:19:22.2039	1.24814
3	0	12/12/2025 13:19:25.7039	1.24815
3	0	12/12/2025 13:19:29.2039	1.24815
3	0	12/12/2025 13:19:32.7039	1.24815
3	0	12/12/2025 13:19:36.2039	1.24815
3	0	12/12/2025 13:19:39.7039	1.24815
3	0	12/12/2025 13:19:43.2039	1.24815
3	0	12/12/2025 13:19:46.7039	1.24815
3	0	12/12/2025 13:19:50.2039	1.24815
3	0	12/12/2025 13:19:53.7039	1.24816
3	0	12/12/2025 13:19:57.2039	1.24816
3	0	12/12/2025 13:20:00.7039	1.24815
3	0	12/12/2025 13:20:04.2039	1.24816
3	0	12/12/2025 13:20:07.7039	1.24815
3	0	12/12/2025 13:20:11.2039	1.24815
3	0	12/12/2025 13:20:14.7039	1.24815
3	0	12/12/2025 13:20:18.2039	1.24815
3	0	12/12/2025 13:20:21.7039	1.24815
3	0	12/12/2025 13:20:25.2039	1.24815
3	0	12/12/2025 13:20:28.7039	1.24814
3	0	12/12/2025 13:20:32.2039	1.24814
3	0	12/12/2025 13:20:35.7039	1.24814
3	0	12/12/2025 13:20:39.2039	1.24814
3	0	12/12/2025 13:20:42.7039	1.24814
3	0	12/12/2025 13:20:46.2039	1.24814
3	0	12/12/2025 13:20:49.7039	1.24814
3	0	12/12/2025 13:20:53.2039	1.24814
3	0	12/12/2025 13:20:56.7039	1.24813
3	0	12/12/2025 13:21:00.2039	1.24813
3	0	12/12/2025 13:21:03.7039	1.24813
3	0	12/12/2025 13:21:07.2039	1.24813
3	0	12/12/2025 13:21:10.7039	1.24813
3	0	12/12/2025 13:21:14.2039	1.24813
3	0	12/12/2025 13:21:17.7039	1.24813
3	0	12/12/2025 13:21:21.2039	1.24813
3	0	12/12/2025 13:21:24.7039	1.24813
3	0	12/12/2025 13:21:28.2039	1.24812
3	0	12/12/2025 13:21:31.7039	1.24812
3	0	12/12/2025 13:21:35.2039	1.24812
3	0	12/12/2025 13:21:38.7039	1.24812
3	0	12/12/2025 13:21:42.2039	1.24812
3	0	12/12/2025 13:21:45.7039	1.24812
3	0	12/12/2025 13:21:49.2039	1.24812
3	0	12/12/2025 13:21:52.7039	1.24812
3	0	12/12/2025 13:21:56.2039	1.24812
3	0	12/12/2025 13:21:59.7039	1.24812
3	0	12/12/2025 13:22:03.2039	1.24812
3	0	12/12/2025 13:22:06.7039	1.24812
3	0	12/12/2025 13:22:10.2039	1.24812
3	0	12/12/2025 13:22:13.7039	1.24811
3	0	12/12/2025 13:22:17.2039	1.24812
3	0	12/12/2025 13:22:20.7039	1.24811
3	0	12/12/2025 13:22:24.2039	1.24811
3	0	12/12/2025 13:22:27.7039	1.24811
3	0	12/12/2025 13:22:31.2039	1.24811
3	0	12/12/2025 13:22:34.7039	1.2481
3	0	12/12/2025 13:22:38.2039	1.2481
3	0	12/12/2025 13:22:41.7039	1.24809
3	0	12/12/2025 13:22:45.2039	1.24809
3	0	12/12/2025 13:22:48.7039	1.24809
3	0	12/12/2025 13:22:52.2039	1.24808
3	0	12/12/2025 13:22:55.7039	1.24808
3	0	12/12/2025 13:22:59.2039	1.24808
3	0	12/12/2025 13:23:02.7039	1.24809
3	0	12/12/2025 13:23:06.2039	1.24808
3	0	12/12/2025 13:23:09.7039	1.24809
3	0	12/12/2025 13:23:13.2039	1.24808
3	0	12/12/2025 13:23:16.7039	1.24808
3	0	12/12/2025 13:23:20.2039	1.24807
3	0	12/12/2025 13:23:23.7039	1.24807
3	0	12/12/2025 13:23:27.2039	1.24808
3	0	12/12/2025 13:23:30.7039	1.24808
3	0	12/12/2025 13:23:34.2039	1.24807
3	0	12/12/2025 13:23:37.7039	1.24807
3	0	12/12/2025 13:23:41.2039	1.24807
3	0	12/12/2025 13:23:44.7039	1.24808
3	0	12/12/2025 13:23:48.2039	1.24807
3	0	12/12/2025 13:23:51.7039	1.24806
3	0	12/12/2025 13:23:55.2039	1.24807
3	0	12/12/2025 13:23:58.7039	1.24807
3	0	12/12/2025 13:24:02.2039	1.24807
3	0	12/12/2025 13:24:05.7039	1.24807
3	0	12/12/2025 13:24:09.2039	1.24807
3	0	12/12/2025 13:24:12.7039	1.24808
3	0	12/12/2025 13:24:16.2039	1.24807
3	0	12/12/2025 13:24:19.7039	1.24807
3	0	12/12/2025 13:24:23.2039	1.24808
3	0	12/12/2025 13:24:26.7039	1.24808
3	0	12/12/2025 13:24:30.2039	1.24807
3	0	12/12/2025 13:24:33.7039	1.24808
3	0	12/12/2025 13:24:37.2039	1.24809
3	0	12/12/2025 13:24:40.7039	1.24808
3	0	12/12/2025 13:24:44.2039	1.24809
3	0	12/12/2025 13:24:47.7039	1.24809
3	0	12/12/2025 13:24:51.2039	1.24809
3	0	12/12/2025 13:24:54.7039	1.24809
3	0	12/12/2025 13:24:58.2039	1.2481
3	0	12/12/2025 13:25:01.7039	1.2481
3	0	12/12/2025 13:25:05.2039	1.24809
3	0	12/12/2025 13:25:08.7039	1.2481
3	0	12/12/2025 13:25:12.2039	1.24811
3	0	12/12/2025 13:25:15.7039	1.24811
3	0	12/12/2025 13:25:19.2039	1.24811
3	0	12/12/2025 13:25:22.7039	1.24812
3	0	12/12/2025 13:25:26.2039	1.24812
3	0	12/12/2025 13:25:29.7039	1.24813
3	0	12/12/2025 13:25:33.2039	1.24814
3	0	12/12/2025 13:25:36.7039	1.24814
3	0	12/12/2025 13:25:40.2039	1.24815
3	0	12/12/2025 13:25:43.7039	1.24816
3	0	12/12/2025 13:25:47.2039	1.24817
3	0	12/12/2025 13:25:50.7039	1.24818
3	0	12/12/2025 13:25:54.2039	1.24818
3	0	12/12/2025 13:25:57.7039	1.24819
3	0	12/12/2025 13:26:01.2039	1.2482
3	0	12/12/2025 13:26:04.7039	1.24822
3	0	12/12/2025 13:26:08.2039	1.24823
3	0	12/12/2025 13:26:11.7039	1.24823
3	0	12/12/2025 13:26:15.2039	1.24825
3	0	12/12/2025 13:26:18.7039	1.24826
3	0	12/12/2025 13:26:22.2039	1.24827
3	0	12/12/2025 13:26:25.7039	1.24828
3	0	12/12/2025 13:26:29.2039	1.24829
3	0	12/12/2025 13:26:32.7039	1.2483
3	0	12/12/2025 13:26:36.2039	1.24831
3	0	12/12/2025 13:26:39.7039	1.24832
3	0	12/12/2025 13:26:43.2039	1.24833
3	0	12/12/2025 13:26:46.7039	1.24834
3	0	12/12/2025 13:26:50.2039	1.24835
3	0	12/12/2025 13:26:53.7039	1.24836
3	0	12/12/2025 13:26:57.2039	1.24838
3	0	12/12/2025 13:27:00.7039	1.24839
3	0	12/12/2025 13:27:04.2039	1.24839
3	0	12/12/2025 13:27:07.7039	1.2484
3	0	12/12/2025 13:27:11.2039	1.24841
3	0	12/12/2025 13:27:14.7039	1.24842
3	0	12/12/2025 13:27:18.2039	1.24843
3	0	12/12/2025 13:27:21.7039	1.24844
3	0	12/12/2025 13:27:25.2039	1.24844
3	0	12/12/2025 13:27:28.7039	1.24846
3	0	12/12/2025 13:27:32.2039	1.24846
3	0	12/12/2025 13:27:35.7039	1.24847
3	0	12/12/2025 13:27:39.2039	1.24848
3	0	12/12/2025 13:27:42.7039	1.24849
3	0	12/12/2025 13:27:46.2039	1.24849
3	0	12/12/2025 13:27:49.7039	1.2485
3	0	12/12/2025 13:27:53.2039	1.2485
3	0	12/12/2025 13:27:56.7039	1.24851
3	0	12/12/2025 13:28:00.2039	1.24852
3	0	12/12/2025 13:28:03.7039	1.24852
3	0	12/12/2025 13:28:07.2039	1.24853
3	0	12/12/2025 13:28:10.7039	1.24853
3	0	12/12/2025 13:28:14.2039	1.24854
3	0	12/12/2025 13:28:17.7039	1.24854
3	0	12/12/2025 13:28:21.2039	1.24854
3	0	12/12/2025 13:28:24.7039	1.24855
3	0	12/12/2025 13:28:28.2039	1.24856
3	0	12/12/2025 13:28:31.7039	1.24856
3	0	12/12/2025 13:28:35.2039	1.24856
3	0	12/12/2025 13:28:38.7039	1.24856
3	0	12/12/2025 13:28:42.2039	1.24856
3	0	12/12/2025 13:28:45.7039	1.24856
3	0	12/12/2025 13:28:49.2039	1.24857
3	0	12/12/2025 13:28:52.7039	1.24857
3	0	12/12/2025 13:28:56.2039	1.24857
3	0	12/12/2025 13:28:59.7039	1.24857
3	0	12/12/2025 13:29:03.2039	1.24857
3	0	12/12/2025 13:29:06.7039	1.24858
3	0	12/12/2025 13:29:10.2039	1.24858
3	0	12/12/2025 13:29:13.7039	1.24858
3	0	12/12/2025 13:29:17.2039	1.24858
3	0	12/12/2025 13:29:20.7039	1.24858
3	0	12/12/2025 13:29:24.2039	1.24858
3	0	12/12/2025 13:29:27.7039	1.24858
3	0	12/12/2025 13:29:31.2039	1.24858
3	0	12/12/2025 13:29:34.7039	1.24858
3	0	12/12/2025 13:29:38.2039	1.24858
3	0	12/12/2025 13:29:41.7039	1.24858
3	0	12/12/2025 13:29:45.2039	1.24858
3	0	12/12/2025 13:29:48.7039	1.24858
3	0	12/12/2025 13:29:52.2039	1.24858
3	0	12/12/2025 13:29:55.7039	1.24858
3	0	12/12/2025 13:29:59.2039	1.24858
3	0	12/12/2025 13:30:02.7039	1.24857
3	0	12/12/2025 13:30:06.2039	1.24857
3	0	12/12/2025 13:30:09.7039	1.24858
3	0	12/12/2025 13:30:13.2039	1.24857
3	0	12/12/2025 13:30:16.7039	1.24857
3	0	12/12/2025 13:30:20.2039	1.24857
3	0	12/12/2025 13:30:23.7039	1.24857
3	0	12/12/2025 13:30:27.2039	1.24857
3	0	12/12/2025 13:30:30.7039	1.24857
3	0	12/12/2025 13:30:34.2039	1.24857
3	0	12/12/2025 13:30:37.7039	1.24857
3	0	12/12/2025 13:30:41.2039	1.24857
3	0	12/12/2025 13:30:44.7039	1.24857
3	0	12/12/2025 13:30:48.2039	1.24857
3	0	12/12/2025 13:30:51.7039	1.24857
3	0	12/12/2025 13:30:55.2039	1.24857
3	0	12/12/2025 13:30:58.7039	1.24856
3	0	12/12/2025 13:31:02.2039	1.24857
3	0	12/12/2025 13:31:05.7039	1.24856
3	0	12/12/2025 13:31:09.2039	1.24856
3	0	12/12/2025 13:31:12.7039	1.24855
3	0	12/12/2025 13:31:16.2039	1.24856
3	0	12/12/2025 13:31:19.7039	1.24855
3	0	12/12/2025 13:31:23.2039	1.24855
3	0	12/12/2025 13:31:26.7039	1.24855
3	0	12/12/2025 13:31:30.2039	1.24856
3	0	12/12/2025 13:31:33.7039	1.24855
3	0	12/12/2025 13:31:37.2039	1.24856
3	0	12/12/2025 13:31:40.7039	1.24855
3	0	12/12/2025 13:31:44.2039	1.24855
3	0	12/12/2025 13:31:47.7039	1.24855
3	0	12/12/2025 13:31:51.2039	1.24855
3	0	12/12/2025 13:31:54.7039	1.24855
3	0	12/12/2025 13:31:58.2039	1.24855
3	0	12/12/2025 13:32:01.7039	1.24854
3	0	12/12/2025 13:32:05.2039	1.24854
3	0	12/12/2025 13:32:08.7039	1.24854
3	0	12/12/2025 13:32:12.2039	1.24854
3	0	12/12/2025 13:32:15.7039	1.24854
3	0	12/12/2025 13:32:19.2039	1.24853
3	0	12/12/2025 13:32:22.7039	1.24854
3	0	12/12/2025 13:32:26.2039	1.24853
3	0	12/12/2025 13:32:29.7039	1.24853
3	0	12/12/2025 13:32:33.2039	1.24853
3	0	12/12/2025 13:32:36.7039	1.24853
3	0	12/12/2025 13:32:40.2039	1.24853
3	0	12/12/2025 13:32:43.7039	1.24853
3	0	12/12/2025 13:32:47.2039	1.24853
3	0	12/12/2025 13:32:50.7039	1.24852
3	0	12/12/2025 13:32:54.2039	1.24852
3	0	12/12/2025 13:32:57.7039	1.24852
3	0	12/12/2025 13:33:01.2039	1.24852
3	0	12/12/2025 13:33:04.7039	1.24852
3	0	12/12/2025 13:33:08.2039	1.24852
3	0	12/12/2025 13:33:11.7039	1.24852
3	0	12/12/2025 13:33:15.2039	1.24852
3	0	12/12/2025 13:33:18.7039	1.24851
3	0	12/12/2025 13:33:22.2039	1.24852
3	0	12/12/2025 13:33:25.7039	1.24852
3	0	12/12/2025 13:33:29.2039	1.24851
3	0	12/12/2025 13:33:32.7039	1.24852
3	0	12/12/2025 13:33:36.2039	1.24852
3	0	12/12/2025 13:33:39.7039	1.24852
3	0	12/12/2025 13:33:43.2039	1.24851
3	0	12/12/2025 13:33:46.7039	1.24852
3	0	12/12/2025 13:33:50.2039	1.24852
3	0	12/12/2025 13:33:53.7039	1.24852
3	0	12/12/2025 13:33:57.2039	1.24852
3	0	12/12/2025 13:34:00.7039	1.24852
3	0	12/12/2025 13:34:04.2039	1.24852
3	0	12/12/2025 13:34:07.7039	1.24853
3	0	12/12/2025 13:34:11.2039	1.24853
3	0	12/12/2025 13:34:14.7039	1.24854
3	0	12/12/2025 13:34:18.2039	1.24853
3	0	12/12/2025 13:34:21.7039	1.24854
3	0	12/12/2025 13:34:25.2039	1.24854
3	0	12/12/2025 13:34:28.7039	1.24854
3	0	12/12/2025 13:34:32.2039	1.24855
3	0	12/12/2025 13:34:35.7039	1.24855
3	0	12/12/2025 13:34:39.2039	1.24855
3	0	12/12/2025 13:34:42.7039	1.24856
3	0	12/12/2025 13:34:46.2039	1.24856
3	0	12/12/2025 13:34:49.7039	1.24856
3	0	12/12/2025 13:34:53.2039	1.24857
3	0	12/12/2025 13:34:56.7039	1.24857
3	0	12/12/2025 13:35:00.2039	1.24858
3	0	12/12/2025 13:35:03.7039	1.24859
3	0	12/12/2025 13:35:07.2039	1.24859
3	0	12/12/2025 13:35:10.7039	1.2486
3	0	12/12/2025 13:35:14.2039	1.24861
3	0	12/12/2025 13:35:17.7039	1.24861
3	0	12/12/2025 13:35:21.2039	1.24862
3	0	12/12/2025 13:35:24.7039	1.24863
3	0	12/12/2025 13:35:28.2039	1.24863
3	0	12/12/2025 13:35:31.7039	1.24864
3	0	12/12/2025 13:35:35.2039	1.24865
3	0	12/12/2025 13:35:38.7039	1.24865
3	0	12/12/2025 13:35:42.2039	1.24866
3	0	12/12/2025 13:35:45.7039	1.24867
3	0	12/12/2025 13:35:49.2039	1.24867
3	0	12/12/2025 13:35:52.7039	1.24868
3	0	12/12/2025 13:35:56.2039	1.24868
3	0	12/12/2025 13:35:59.7039	1.24869
3	0	12/12/2025 13:36:03.2039	1.2487
3	0	12/12/2025 13:36:06.7039	1.2487
3	0	12/12/2025 13:36:10.2039	1.24871
3	0	12/12/2025 13:36:13.7039	1.24871
3	0	12/12/2025 13:36:17.2039	1.24872
3	0	12/12/2025 13:36:20.7039	1.24872
3	0	12/12/2025 13:36:24.2039	1.24873
3	0	12/12/2025 13:36:27.7039	1.24874
3	0	12/12/2025 13:36:31.2039	1.24875
3	0	12/12/2025 13:36:34.7039	1.24874
3	0	12/12/2025 13:36:38.2039	1.24875
3	0	12/12/2025 13:36:41.7039	1.24875
3	0	12/12/2025 13:36:45.2039	1.24876
3	0	12/12/2025 13:36:48.7039	1.24876
3	0	12/12/2025 13:36:52.2039	1.24877
3	0	12/12/2025 13:36:55.7039	1.24876
3	0	12/12/2025 13:36:59.2039	1.24877
3	0	12/12/2025 13:37:02.7039	1.24877
3	0	12/12/2025 13:37:06.2039	1.24877
3	0	12/12/2025 13:37:09.7039	1.24878
3	0	12/12/2025 13:37:13.2039	1.24878
3	0	12/12/2025 13:37:16.7039	1.24878
3	0	12/12/2025 13:37:20.2039	1.24878
3	0	12/12/2025 13:37:23.7039	1.24879
3	0	12/12/2025 13:37:27.2039	1.24879
3	0	12/12/2025 13:37:30.7039	1.24879
3	0	12/12/2025 13:37:34.2039	1.24879
3	0	12/12/2025 13:37:37.7039	1.2488
3	0	12/12/2025 13:37:41.2039	1.2488
3	0	12/12/2025 13:37:44.7039	1.2488
3	0	12/12/2025 13:37:48.2039	1.2488
3	0	12/12/2025 13:37:51.7039	1.2488
3	0	12/12/2025 13:37:55.2039	1.2488
3	0	12/12/2025 13:37:58.7039	1.24881
3	0	12/12/2025 13:38:02.2039	1.24881
3	0	12/12/2025 13:38:05.7039	1.24881
3	0	12/12/2025 13:38:09.2039	1.24881
3	0	12/12/2025 13:38:12.7039	1.24881
3	0	12/12/2025 13:38:16.2039	1.24881
3	0	12/12/2025 13:38:19.7039	1.24881
3	0	12/12/2025 13:38:23.2039	1.24881
3	0	12/12/2025 13:38:26.7039	1.24881
3	0	12/12/2025 13:38:30.2039	1.2488
3	0	12/12/2025 13:38:33.7039	1.24881
3	0	12/12/2025 13:38:37.2039	1.2488
3	0	12/12/2025 13:38:40.7039	1.2488
3	0	12/12/2025 13:38:44.2039	1.24881
3	0	12/12/2025 13:38:47.7039	1.24881
3	0	12/12/2025 13:38:51.2039	1.2488
3	0	12/12/2025 13:38:54.7039	1.24881
3	0	12/12/2025 13:38:58.2039	1.24881
3	0	12/12/2025 13:39:01.7039	1.24881
3	0	12/12/2025 13:39:05.2039	1.24881
3	0	12/12/2025 13:39:08.7039	1.24881
3	0	12/12/2025 13:39:12.2039	1.2488
3	0	12/12/2025 13:39:15.7039	1.2488
3	0	12/12/2025 13:39:19.2039	1.24879
3	0	12/12/2025 13:39:22.7039	1.2488
3	0	12/12/2025 13:39:26.2039	1.2488
3	0	12/12/2025 13:39:29.7039	1.2488
3	0	12/12/2025 13:39:33.2039	1.24879
3	0	12/12/2025 13:39:36.7039	1.24879
3	0	12/12/2025 13:39:40.2039	1.24879
3	0	12/12/2025 13:39:43.7039	1.24879
3	0	12/12/2025 13:39:47.2039	1.24879
3	0	12/12/2025 13:39:50.7039	1.24879
3	0	12/12/2025 13:39:54.2039	1.2488
3	0	12/12/2025 13:39:57.7039	1.24879
3	0	12/12/2025 13:40:01.2039	1.24879
3	0	12/12/2025 13:40:04.7039	1.24879
3	0	12/12/2025 13:40:08.2039	1.24879
3	0	12/12/2025 13:40:11.7039	1.24879
3	0	12/12/2025 13:40:15.2039	1.24879
3	0	12/12/2025 13:40:18.7039	1.24878
3	0	12/12/2025 13:40:22.2039	1.24878
3	0	12/12/2025 13:40:25.7039	1.24878
3	0	12/12/2025 13:40:29.2039	1.24878
3	0	12/12/2025 13:40:32.7039	1.24878
3	0	12/12/2025 13:40:36.2039	1.24877
3	0	12/12/2025 13:40:39.7039	1.24877
3	0	12/12/2025 13:40:43.2039	1.24877
3	0	12/12/2025 13:40:46.7039	1.24877
3	0	12/12/2025 13:40:50.2039	1.24877
3	0	12/12/2025 13:40:53.7039	1.24877
3	0	12/12/2025 13:40:57.2039	1.24877
3	0	12/12/2025 13:41:00.7039	1.24876
3	0	12/12/2025 13:41:04.2039	1.24876
3	0	12/12/2025 13:41:07.7039	1.24876
3	0	12/12/2025 13:41:11.2039	1.24876
3	0	12/12/2025 13:41:14.7039	1.24876
3	0	12/12/2025 13:41:18.2039	1.24876
3	0	12/12/2025 13:41:21.7039	1.24876
3	0	12/12/2025 13:41:25.2039	1.24875
3	0	12/12/2025 13:41:28.7039	1.24875
3	0	12/12/2025 13:41:32.2039	1.24875
3	0	12/12/2025 13:41:35.7039	1.24874
3	0	12/12/2025 13:41:39.2039	1.24875
3	0	12/12/2025 13:41:42.7039	1.24874
3	0	12/12/2025 13:41:46.2039	1.24874
3	0	12/12/2025 13:41:49.7039	1.24874
3	0	12/12/2025 13:41:53.2039	1.24874
3	0	12/12/2025 13:41:56.7039	1.24873
3	0	12/12/2025 13:42:00.2039	1.24873
3	0	12/12/2025 13:42:03.7039	1.24873
3	0	12/12/2025 13:42:07.2039	1.24873
3	0	12/12/2025 13:42:10.7039	1.24873
3	0	12/12/2025 13:42:14.2039	1.24873
3	0	12/12/2025 13:42:17.7039	1.24873
3	0	12/12/2025 13:42:21.2039	1.24873
3	0	12/12/2025 13:42:24.7039	1.24872
3	0	12/12/2025 13:42:28.2039	1.24872
3	0	12/12/2025 13:42:31.7039	1.24872
3	0	12/12/2025 13:42:35.2039	1.24871
3	0	12/12/2025 13:42:38.7039	1.24871
3	0	12/12/2025 13:42:42.2039	1.24871
3	0	12/12/2025 13:42:45.7039	1.24871
3	0	12/12/2025 13:42:49.2039	1.2487
3	0	12/12/2025 13:42:52.7039	1.2487
3	0	12/12/2025 13:42:56.2039	1.2487
3	0	12/12/2025 13:42:59.7039	1.2487
3	0	12/12/2025 13:43:03.2039	1.2487
3	0	12/12/2025 13:43:06.7039	1.2487
3	0	12/12/2025 13:43:10.2039	1.2487
3	0	12/12/2025 13:43:13.7039	1.2487
3	0	12/12/2025 13:43:17.2039	1.24869
3	0	12/12/2025 13:43:20.7039	1.24869
3	0	12/12/2025 13:43:24.2039	1.24869
3	0	12/12/2025 13:43:27.7039	1.24869
3	0	12/12/2025 13:43:31.2039	1.24869
3	0	12/12/2025 13:43:34.7039	1.2487
3	0	12/12/2025 13:43:38.2039	1.2487
3	0	12/12/2025 13:43:41.7039	1.24869
3	0	12/12/2025 13:43:45.2039	1.2487
3	0	12/12/2025 13:43:48.7039	1.24869
3	0	12/12/2025 13:43:52.2039	1.24869
3	0	12/12/2025 13:43:55.7039	1.2487
3	0	12/12/2025 13:43:59.2039	1.2487
3	0	12/12/2025 13:44:02.7039	1.2487
3	0	12/12/2025 13:44:06.2039	1.2487
3	0	12/12/2025 13:44:09.7039	1.2487
3	0	12/12/2025 13:44:13.2039	1.2487
3	0	12/12/2025 13:44:16.7039	1.2487
3	0	12/12/2025 13:44:20.2039	1.24871
3	0	12/12/2025 13:44:23.7039	1.24872
3	0	12/12/2025 13:44:27.2039	1.24872
3	0	12/12/2025 13:44:30.7039	1.24872
3	0	12/12/2025 13:44:34.2039	1.24873
3	0	12/12/2025 13:44:37.7039	1.24873
3	0	12/12/2025 13:44:41.2039	1.24873
3	0	12/12/2025 13:44:44.7039	1.24874
3	0	12/12/2025 13:44:48.2039	1.24874
3	0	12/12/2025 13:44:51.7039	1.24875
3	0	12/12/2025 13:44:55.2039	1.24875
3	0	12/12/2025 13:44:58.7039	1.24875
3	0	12/12/2025 13:45:02.2039	1.24876
3	0	12/12/2025 13:45:05.7039	1.24877
3	0	12/12/2025 13:45:09.2039	1.24877
3	0	12/12/2025 13:45:12.7039	1.24878
3	0	12/12/2025 13:45:16.2039	1.24879
3	0	12/12/2025 13:45:19.7039	1.2488
3	0	12/12/2025 13:45:23.2039	1.2488
3	0	12/12/2025 13:45:26.7039	1.24881
3	0	12/12/2025 13:45:30.2039	1.24882
3	0	12/12/2025 13:45:33.7039	1.24883
3	0	12/12/2025 13:45:37.2039	1.24884
3	0	12/12/2025 13:45:40.7039	1.24884
3	0	12/12/2025 13:45:44.2039	1.24886
3	0	12/12/2025 13:45:46.2103	1.24886