File: docs/examples/XAS/Echem/Operando2/Cell3_Buffers/HAC_NH3_01_02_GCPL_C04.mpt
EC-Lab ASCII FILE
Nb header lines : 80

Galvanostatic Cycling with Potential Limitation

Run on channel : 4 (SN 52456)
User :
CE vs. WE compliance from -10 V to 10 V
Electrode connection : standard
Potential control : Ewe
Ewe ctrl range : min = 0.00 V, max = 3.00 V
Safety Limits :
	Do not start on E overload
Acquisition started on : 12/12/2025 12:28:57.704
Technique started on : 12/12/2025 13:45:46.211
Loaded Setting File :  L:\projects\cycle2025-II\20250340369-skhabazian\EC_lab\20251211.EMD.mps
Saved on :
	File : HAC_NH3_01_02_GCPL_C04.mpr
	Directory : L:\projects\cycle2025-II\20250340369-skhabazian\EC_lab\Cell3_Buffers\
	Host : 84.89.228.57
Device : VSP (SN 2155)
Address : 10.0.48.130
EC-LAB for windows v11.61 (software)
Internet server v11.61 (firmware)
Command interpretor v11.61 (firmware)
Electrode material :
Initial state :
Electrolyte :
Comments :
Mass of active material : 0.001 mg
 at x = 0.000
Molecular weight of active material (at x = 0) : 0.001 g/mol
Atomic weight of intercalated ion : 0.001 g/mol
Acquisition started at : xo = 0.000
Number of e- transfered per intercalated ion : 1
for DX = 1, DQ = 26.802 mA.h
Battery capacity : 0.000 A.h
Electrode surface area : 0.000 cm²
Characteristic mass : 0.001 g
Volume (V) : 0.001 cm³
Text export
   Mode : Standard
   Time format : Absolute MMDDYYYY
Cycle Definition : Charge/Discharge alternance
Ns                  0                   1                   2
Set I/C             I                   I                   I
Is                  0.000               300.000             -300.000
unit Is             mA                  µA                  µA
vs.                 <None>              <None>              <None>
N                   1.00                1.00                1.00
I sign              > 0                 > 0                 > 0
t1 (h:m:s)          0:00:0.0000         4:00:0.0000         10:00:0.0000
I Range             1 mA                1 mA                1 mA
Bandwidth           5                   5                   5
dE1 (mV)            0.00                0.00                0.00
dt1 (s)             0.0000              2.0000              2.0000
EM (V)              0.000               2.200               0.900
tM (h:m:s)          0:00:0.0000         0:00:0.0000         0:00:0.0000
Im                  0.000               0.000               0.000
unit Im             mA                  mA                  mA
dI/dt               0.000               0.000               0.000
dunit dI/dt         mA/s                mA/s                mA/s
E range min (V)     0.000               0.000               0.000
E range max (V)     3.000               3.000               3.000
dq                  0.000               1.000               1.000
unit dq             A.h                 A.h                 A.h
dtq (s)             0.0000              120.0000            120.0000
dQM                 0.000               0.000               0.000
unit dQM            mA.h                mA.h                mA.h
dxM                 0.000               0.000               0.000
delta SoC (%)       pass                pass                pass
tR (h:m:s)          0:01:0.0000         0:00:0.0000         0:00:0.0000
dER/dt (mV/h)       0.0                 0.1                 0.1
dER (mV)            0.00                0.00                0.00
dtR (s)             1.0000              120.0000            120.0000
EL (V)              pass                pass                pass
goto Ns'            0                   0                   1
nc cycles           0                   0                   100

mode	ox/red	error	control changes	Ns changes	counter inc.	Ns	time/s	dq/mA.h	(Q-Qo)/mA.h	control/V/mA	Ewe/V	I Range	Q charge/discharge/mA.h	half cycle	Energy we charge/W.h	Energy we discharge/W.h	Capacitance charge/µF	Capacitance discharge/µF	step time/s	<I>/mA	x	Q discharge/mA.h	Q charge/mA.h	Capacity/mA.h	Efficiency/%	control/V	control/mA	cycle number	Pwe/W	Rwe/Ohm
3	0	0	1	0	0	0	12/12/2025 13:45:46.2109	0.000000000000000E+000	0.000000000000000E+000	0.0000000E+000	1.24877	14	0.000000000000000E+000	0	0.000000000000000E+000	0.000000000000000E+000	0.000000000000000E+000	0.000000000000000E+000	4608.51	0.000000000000000E+000	0.000000000000000E+000	0.000000000000000E+000	0.000000000000000E+000	0.000000000000000E+000	0.0000000E+000	0.0000000E+000	0.0000000E+000	0.000000000000000E+000	0.0000000E+000	0.0000000E+000
3	0	0	1	0	0	0	12/12/2025 13:45:55.2109	0.000000000000000E+000	0.000000000000000E+000	0.0000000E+000	1.24888	14	0.000000000000000E+000	0	0.000000000000000E+000	0.000000000000000E+000	0.000000000000000E+000	0.000000000000000E+000	4617.51	0.000000000000000E+000	0.000000000000000E+000	0.000000000000000E+000	0.000000000000000E+000	0.000000000000000E+000	0.0000000E+000	0.0000000E+000	0.0000000E+000	0.000000000000000E+000	0.0000000E+000	0.0000000E+000
3	0	0	1	0	0	0	12/12/2025 13:46:04.2109	0.000000000000000E+000	0.000000000000000E+000	0.0000000E+000	1.249	14	0.000000000000000E+000	0	0.000000000000000E+000	0.000000000000000E+000	0.000000000000000E+000	0.000000000000000E+000	4626.51	0.000000000000000E+000	0.000000000000000E+000	0.000000000000000E+000	0.000000000000000E+000	0.000000000000000E+000	0.0000000E+000	0.0000000E+000	0.0000000E+000	0.000000000000000E+000	0.0000000E+000	0.0000000E+000
3	0	0	1	0	0	0	12/12/2025 13:46:13.2109	0.000000000000000E+000	0.000000000000000E+000	0.0000000E+000	1.24875	14	0.000000000000000E+000	0	0.000000000000000E+000	0.000000000000000E+000	0.000000000000000E+000	0.000000000000000E+000	4635.51	0.000000000000000E+000	0.000000000000000E+000	0.000000000000000E+000	0.000000000000000E+000	0.000000000000000E+000	0.0000000E+000	0.0000000E+000	0.0000000E+000	0.000000000000000E+000	0.0000000E+000	0.0000000E+000
3	0	0	1	0	0	0	12/12/2025 13:46:22.2109	0.000000000000000E+000	0.000000000000000E+000	0.0000000E+000	1.24896	14	0.000000000000000E+000	0	0.000000000000000E+000	0.000000000000000E+000	0.000000000000000E+000	0.000000000000000E+000	4644.51	0.000000000000000E+000	0.000000000000000E+000	0.000000000000000E+000	0.000000000000000E+000	0.000000000000000E+000	0.0000000E+000	0.0000000E+000	0.0000000E+000	0.000000000000000E+000	0.0000000E+000	0.0000000E+000
3	0	0	1	0	0	0	12/12/2025 13:46:31.2109	0.000000000000000E+000	0.000000000000000E+000	0.0000000E+000	1.24888	14	0.000000000000000E+000	0	0.000000000000000E+000	0.000000000000000E+000	0.000000000000000E+000	0.000000000000000E+000	4653.51	0.000000000000000E+000	0.000000000000000E+000	0.000000000000000E+000	0.000000000000000E+000	0.000000000000000E+000	0.0000000E+000	0.0000000E+000	0.0000000E+000	0.000000000000000E+000	0.0000000E+000	0.0000000E+000
3	0	0	1	0	0	0	12/12/2025 13:46:40.2109	0.000000000000000E+000	0.000000000000000E+000	0.0000000E+000	1.24896	14	0.000000000000000E+000	0	0.000000000000000E+000	0.000000000000000E+000	0.000000000000000E+000	0.000000000000000E+000	4662.51	0.000000000000000E+000	0.000000000000000E+000	0.000000000000000E+000	0.000000000000000E+000	0.000000000000000E+000	0.0000000E+000	0.0000000E+000	0.0000000E+000	0.000000000000000E+000	0.0000000E+000	0.0000000E+000
1	1	0	0	0	0	1	12/12/2025 13:46:50.2111	0.000166737	0.00033351	0.3	1.62719	12	0.00033351	0	5.31553e-07	0.000000000000000E+000	3824.91	0.000000000000000E+000	4672.51	0.300127	-1.24437e-05	0.000000000000000E+000	0.00033351	0.00033351	0.0000000E+000	0.0000000E+000	0.3	0.000000000000000E+000	0.000488362	5421.66
1	1	0	0	0	0	1	12/12/2025 13:47:08.2111	0.000166729	0.00183409	0.3	1.61183	12	0.00183409	0	2.95931e-06	0.000000000000000E+000	22116.1	0.000000000000000E+000	4690.51	0.300112	-6.84323e-05	0.000000000000000E+000	0.00183409	0.00183409	0.0000000E+000	0.0000000E+000	0.3	0.000000000000000E+000	0.00048373	5370.78
1	1	0	0	0	0	1	12/12/2025 13:47:26.2111	0.000166726	0.00333462	0.3	1.61796	12	0.00333462	0	5.38281e-06	0.000000000000000E+000	39402.2	0.000000000000000E+000	4708.51	0.300106	-0.000124419	0.000000000000000E+000	0.00333462	0.00333462	0.0000000E+000	0.0000000E+000	0.3	0.000000000000000E+000	0.000485558	5391.28
1	1	0	0	0	0	1	12/12/2025 13:47:44.2111	0.000166724	0.00483513	0.3	1.62392	12	0.00483513	0	7.81582e-06	0.000000000000000E+000	56034.6	0.000000000000000E+000	4726.51	0.300103	-0.000180405	0.000000000000000E+000	0.00483513	0.00483513	0.0000000E+000	0.0000000E+000	0.3	0.000000000000000E+000	0.000487345	5411.22
1	1	0	0	0	0	1	12/12/2025 13:48:02.2111	0.000166721	0.00633563	0.3	1.62928	12	0.00633563	0	1.0257e-05	0.000000000000000E+000	72178.7	0.000000000000000E+000	4744.51	0.300098	-0.000236391	0.000000000000000E+000	0.00633563	0.00633563	0.0000000E+000	0.0000000E+000	0.3	0.000000000000000E+000	0.000488945	5429.16
1	1	0	0	0	0	1	12/12/2025 13:48:20.2111	0.000166721	0.00783612	0.3	1.6331	12	0.00783612	0	1.27048e-05	0.000000000000000E+000	88208.3	0.000000000000000E+000	4762.51	0.300097	-0.000292376	0.000000000000000E+000	0.00783612	0.00783612	0.0000000E+000	0.0000000E+000	0.3	0.000000000000000E+000	0.000490088	5441.89
1	1	0	0	0	0	1	12/12/2025 13:48:38.2111	0.00016672	0.0093366	0.3	1.63663	12	0.0093366	0	1.51583e-05	0.000000000000000E+000	103952	0.000000000000000E+000	4780.51	0.300096	-0.000348361	0.000000000000000E+000	0.0093366	0.0093366	0.0000000E+000	0.0000000E+000	0.3	0.000000000000000E+000	0.000491144	5453.68
1	1	0	0	0	0	1	12/12/2025 13:48:56.2111	0.000166718	0.0108371	0.3	1.64054	12	0.0108371	0	1.76171e-05	0.000000000000000E+000	119216	0.000000000000000E+000	4798.51	0.300092	-0.000404346	0.000000000000000E+000	0.0108371	0.0108371	0.0000000E+000	0.0000000E+000	0.3	0.000000000000000E+000	0.000492312	5466.77
1	1	0	0	0	0	1	12/12/2025 13:49:14.2111	0.00016672	0.0123375	0.3	1.64273	12	0.0123375	0	2.00809e-05	0.000000000000000E+000	134819	0.000000000000000E+000	4816.51	0.300096	-0.00046033	0.000000000000000E+000	0.0123375	0.0123375	0.0000000E+000	0.0000000E+000	0.3	0.000000000000000E+000	0.000492976	5474.01
1	1	0	0	0	0	1	12/12/2025 13:49:32.2111	0.00016672	0.013838	0.3	1.64628	12	0.013838	0	2.25486e-05	0.000000000000000E+000	149605	0.000000000000000E+000	4834.51	0.300096	-0.000516315	0.000000000000000E+000	0.013838	0.013838	0.0000000E+000	0.0000000E+000	0.3	0.000000000000000E+000	0.00049404	5485.83
1	1	0	0	0	0	1	12/12/2025 13:49:50.2111	0.00016672	0.0153385	0.3	1.64942	12	0.0153385	0	2.50213e-05	0.000000000000000E+000	164275	0.000000000000000E+000	4852.51	0.300096	-0.0005723	0.000000000000000E+000	0.0153385	0.0153385	0.0000000E+000	0.0000000E+000	0.3	0.000000000000000E+000	0.000494985	5496.32
1	1	0	0	0	0	1	12/12/2025 13:50:08.2111	0.00016672	0.016839	0.3	1.65154	12	0.016839	0	2.74981e-05	0.000000000000000E+000	179216	0.000000000000000E+000	4870.51	0.300096	-0.000628285	0.000000000000000E+000	0.016839	0.016839	0.0000000E+000	0.0000000E+000	0.3	0.000000000000000E+000	0.000495619	5503.38
1	1	0	0	0	0	1	12/12/2025 13:50:26.2111	0.000166719	0.0183395	0.3	1.65478	12	0.0183395	0	2.99789e-05	0.000000000000000E+000	193332	0.000000000000000E+000	4888.51	0.300094	-0.00068427	0.000000000000000E+000	0.0183395	0.0183395	0.0000000E+000	0.0000000E+000	0.3	0.000000000000000E+000	0.00049659	5514.21
1	1	0	0	0	0	1	12/12/2025 13:50:44.2111	0.000166721	0.0198399	0.3	1.65728	12	0.0198399	0	3.24638e-05	0.000000000000000E+000	207631	0.000000000000000E+000	4906.51	0.300097	-0.000740254	0.000000000000000E+000	0.0198399	0.0198399	0.0000000E+000	0.0000000E+000	0.3	0.000000000000000E+000	0.000497345	5522.47
1	1	0	0	0	0	1	12/12/2025 13:51:02.2111	0.000166721	0.0213404	0.3	1.65936	12	0.0213404	0	3.49523e-05	0.000000000000000E+000	221993	0.000000000000000E+000	4924.51	0.300098	-0.00079624	0.000000000000000E+000	0.0213404	0.0213404	0.0000000E+000	0.0000000E+000	0.3	0.000000000000000E+000	0.00049797	5529.38
1	1	0	0	0	0	1	12/12/2025 13:51:20.2111	0.000166719	0.0228409	0.3	1.66258	12	0.0228409	0	3.74447e-05	0.000000000000000E+000	235409	0.000000000000000E+000	4942.51	0.300095	-0.000852225	0.000000000000000E+000	0.0228409	0.0228409	0.0000000E+000	0.0000000E+000	0.3	0.000000000000000E+000	0.000498932	5540.19
1	1	0	0	0	0	1	12/12/2025 13:51:38.2111	0.000166719	0.0243414	0.3	1.66355	12	0.0243414	0	3.99407e-05	0.000000000000000E+000	250177	0.000000000000000E+000	4960.51	0.300095	-0.000908209	0.000000000000000E+000	0.0243414	0.0243414	0.0000000E+000	0.0000000E+000	0.3	0.000000000000000E+000	0.000499224	5543.43
1	1	0	0	0	0	1	12/12/2025 13:51:56.2111	0.000166718	0.0258418	0.3	1.66681	12	0.0258418	0	4.24394e-05	0.000000000000000E+000	263149	0.000000000000000E+000	4978.51	0.300092	-0.000964193	0.000000000000000E+000	0.0258418	0.0258418	0.0000000E+000	0.0000000E+000	0.3	0.000000000000000E+000	0.000500198	5554.34
1	1	0	0	0	0	1	12/12/2025 13:52:14.2111	0.000166719	0.0273423	0.3	1.67015	12	0.0273423	0	4.49431e-05	0.000000000000000E+000	275824	0.000000000000000E+000	4996.51	0.300094	-0.00102018	0.000000000000000E+000	0.0273423	0.0273423	0.0000000E+000	0.0000000E+000	0.3	0.000000000000000E+000	0.000501202	5565.43
1	1	0	0	0	0	1	12/12/2025 13:52:32.2111	0.000166718	0.0288428	0.3	1.67181	12	0.0288428	0	4.74506e-05	0.000000000000000E+000	289614	0.000000000000000E+000	5014.51	0.300093	-0.00107616	0.000000000000000E+000	0.0288428	0.0288428	0.0000000E+000	0.0000000E+000	0.3	0.000000000000000E+000	0.000501699	5570.98
1	1	0	0	0	0	1	12/12/2025 13:52:50.2111	0.000166718	0.0303432	0.3	1.67244	12	0.0303432	0	4.99602e-05	0.000000000000000E+000	304147	0.000000000000000E+000	5032.51	0.300093	-0.00113215	0.000000000000000E+000	0.0303432	0.0303432	0.0000000E+000	0.0000000E+000	0.3	0.000000000000000E+000	0.000501888	5573.07
1	1	0	0	0	0	1	12/12/2025 13:53:08.2111	0.00016672	0.0318437	0.3	1.67456	12	0.0318437	0	5.24712e-05	0.000000000000000E+000	317317	0.000000000000000E+000	5050.51	0.300096	-0.00118813	0.000000000000000E+000	0.0318437	0.0318437	0.0000000E+000	0.0000000E+000	0.3	0.000000000000000E+000	0.000502529	5580.07
1	1	0	0	0	0	1	12/12/2025 13:53:26.2111	0.00016672	0.0333442	0.3	1.67772	12	0.0333442	0	5.49868e-05	0.000000000000000E+000	329382	0.000000000000000E+000	5068.51	0.300096	-0.00124412	0.000000000000000E+000	0.0333442	0.0333442	0.0000000E+000	0.0000000E+000	0.3	0.000000000000000E+000	0.000503477	5590.63
1	1	0	0	0	0	1	12/12/2025 13:53:44.2111	0.00016672	0.0348447	0.3	1.6798	12	0.0348447	0	5.7506e-05	0.000000000000000E+000	342252	0.000000000000000E+000	5086.51	0.300097	-0.0013001	0.000000000000000E+000	0.0348447	0.0348447	0.0000000E+000	0.0000000E+000	0.3	0.000000000000000E+000	0.000504103	5597.54
1	1	0	0	0	0	1	12/12/2025 13:54:02.2111	0.000166719	0.0363451	0.3	1.6831	12	0.0363451	0	6.0029e-05	0.000000000000000E+000	353805	0.000000000000000E+000	5104.51	0.300094	-0.00135609	0.000000000000000E+000	0.0363451	0.0363451	0.0000000E+000	0.0000000E+000	0.3	0.000000000000000E+000	0.000505089	5608.58
1	1	0	0	0	0	1	12/12/2025 13:54:20.2111	0.000166719	0.0378456	0.3	1.68446	12	0.0378456	0	6.25557e-05	0.000000000000000E+000	367068	0.000000000000000E+000	5122.51	0.300093	-0.00141207	0.000000000000000E+000	0.0378456	0.0378456	0.0000000E+000	0.0000000E+000	0.3	0.000000000000000E+000	0.000505494	5613.1
1	1	0	0	0	0	1	12/12/2025 13:54:38.2111	0.000166718	0.0393461	0.3	1.68718	12	0.0393461	0	6.50855e-05	0.000000000000000E+000	378838	0.000000000000000E+000	5140.51	0.300093	-0.00146806	0.000000000000000E+000	0.0393461	0.0393461	0.0000000E+000	0.0000000E+000	0.3	0.000000000000000E+000	0.000506311	5622.2
1	1	0	0	0	0	1	12/12/2025 13:54:56.2111	0.000166719	0.0408465	0.3	1.6889	12	0.0408465	0	6.7619e-05	0.000000000000000E+000	391487	0.000000000000000E+000	5158.51	0.300094	-0.00152404	0.000000000000000E+000	0.0408465	0.0408465	0.0000000E+000	0.0000000E+000	0.3	0.000000000000000E+000	0.000506828	5627.91
1	1	0	0	0	0	1	12/12/2025 13:55:14.2111	0.00016672	0.042347	0.3	1.69082	12	0.042347	0	7.01542e-05	0.000000000000000E+000	403798	0.000000000000000E+000	5176.51	0.300096	-0.00158002	0.000000000000000E+000	0.042347	0.042347	0.0000000E+000	0.0000000E+000	0.3	0.000000000000000E+000	0.000507411	5634.27
1	1	0	0	0	0	1	12/12/2025 13:55:32.2111	0.000166719	0.0438475	0.3	1.6925	12	0.0438475	0	7.26923e-05	0.000000000000000E+000	416255	0.000000000000000E+000	5194.51	0.300095	-0.00163601	0.000000000000000E+000	0.0438475	0.0438475	0.0000000E+000	0.0000000E+000	0.3	0.000000000000000E+000	0.000507912	5639.89
1	1	0	0	0	0	1	12/12/2025 13:55:50.2111	0.000166717	0.045348	0.3	1.69452	12	0.045348	0	7.52336e-05	0.000000000000000E+000	428217	0.000000000000000E+000	5212.51	0.300091	-0.00169199	0.000000000000000E+000	0.045348	0.045348	0.0000000E+000	0.0000000E+000	0.3	0.000000000000000E+000	0.000508512	5646.7
1	1	0	0	0	0	1	12/12/2025 13:56:08.2111	0.000166717	0.0468484	0.3	1.6962	12	0.0468484	0	7.7777e-05	0.000000000000000E+000	440447	0.000000000000000E+000	5230.51	0.30009	-0.00174798	0.000000000000000E+000	0.0468484	0.0468484	0.0000000E+000	0.0000000E+000	0.3	0.000000000000000E+000	0.000509014	5652.31
1	1	0	0	0	0	1	12/12/2025 13:56:26.2111	0.00016672	0.0483489	0.3	1.69758	12	0.0483489	0	8.03231e-05	0.000000000000000E+000	452929	0.000000000000000E+000	5248.51	0.300095	-0.00180396	0.000000000000000E+000	0.0483489	0.0483489	0.0000000E+000	0.0000000E+000	0.3	0.000000000000000E+000	0.000509435	5656.79
1	1	0	0	0	0	1	12/12/2025 13:56:44.2111	0.00016672	0.0498494	0.3	1.69929	12	0.0498494	0	8.28712e-05	0.000000000000000E+000	464909	0.000000000000000E+000	5266.51	0.300096	-0.00185995	0.000000000000000E+000	0.0498494	0.0498494	0.0000000E+000	0.0000000E+000	0.3	0.000000000000000E+000	0.00050995	5662.5
1	1	0	0	0	0	1	12/12/2025 13:57:02.2111	0.000166719	0.0513498	0.3	1.70131	12	0.0513498	0	8.54226e-05	0.000000000000000E+000	476408	0.000000000000000E+000	5284.51	0.300095	-0.00191593	0.000000000000000E+000	0.0513498	0.0513498	0.0000000E+000	0.0000000E+000	0.3	0.000000000000000E+000	0.000510555	5669.26
1	1	0	0	0	0	1	12/12/2025 13:57:20.2111	0.00016672	0.0528503	0.3	1.70309	12	0.0528503	0	8.79763e-05	0.000000000000000E+000	488098	0.000000000000000E+000	5302.51	0.300095	-0.00197192	0.000000000000000E+000	0.0528503	0.0528503	0.0000000E+000	0.0000000E+000	0.3	0.000000000000000E+000	0.000511089	5675.15
1	1	0	0	0	0	1	12/12/2025 13:57:38.2111	0.000166719	0.0543508	0.3	1.70511	12	0.0543508	0	9.0533e-05	0.000000000000000E+000	499366	0.000000000000000E+000	5320.51	0.300095	-0.0020279	0.000000000000000E+000	0.0543508	0.0543508	0.0000000E+000	0.0000000E+000	0.3	0.000000000000000E+000	0.000511694	5681.9
1	1	0	0	0	0	1	12/12/2025 13:57:56.2111	0.00016672	0.0558513	0.3	1.70696	12	0.0558513	0	9.30931e-05	0.000000000000000E+000	510741	0.000000000000000E+000	5338.51	0.300096	-0.00208389	0.000000000000000E+000	0.0558513	0.0558513	0.0000000E+000	0.0000000E+000	0.3	0.000000000000000E+000	0.000512252	5688.04
1	1	0	0	0	0	1	12/12/2025 13:58:14.2111	0.00016672	0.0573517	0.3	1.70887	12	0.0573517	0	9.56558e-05	0.000000000000000E+000	521934	0.000000000000000E+000	5356.51	0.300096	-0.00213987	0.000000000000000E+000	0.0573517	0.0573517	0.0000000E+000	0.0000000E+000	0.3	0.000000000000000E+000	0.000512824	5694.39
1	1	0	0	0	0	1	12/12/2025 13:58:32.2111	0.000166719	0.0588522	0.3	1.71049	12	0.0588522	0	9.82213e-05	0.000000000000000E+000	533403	0.000000000000000E+000	5374.51	0.300095	-0.00219586	0.000000000000000E+000	0.0588522	0.0588522	0.0000000E+000	0.0000000E+000	0.3	0.000000000000000E+000	0.000513308	5699.83
1	1	0	0	0	0	1	12/12/2025 13:58:50.2111	0.000166719	0.0603527	0.3	1.71176	12	0.0603527	0	0.000100789	0.000000000000000E+000	545248	0.000000000000000E+000	5392.51	0.300095	-0.00225184	0.000000000000000E+000	0.0603527	0.0603527	0.0000000E+000	0.0000000E+000	0.3	0.000000000000000E+000	0.000513692	5704.07
1	1	0	0	0	0	1	12/12/2025 13:59:08.2111	0.000166718	0.0618532	0.3	1.71375	12	0.0618532	0	0.000103359	0.000000000000000E+000	556037	0.000000000000000E+000	5410.51	0.300093	-0.00230782	0.000000000000000E+000	0.0618532	0.0618532	0.0000000E+000	0.0000000E+000	0.3	0.000000000000000E+000	0.000514283	5710.73
1	1	0	0	0	0	1	12/12/2025 13:59:26.2111	0.000166718	0.0633536	0.3	1.71518	12	0.0633536	0	0.000105932	0.000000000000000E+000	567498	0.000000000000000E+000	5428.51	0.300093	-0.00236381	0.000000000000000E+000	0.0633536	0.0633536	0.0000000E+000	0.0000000E+000	0.3	0.000000000000000E+000	0.000514713	5715.49
1	1	0	0	0	0	1	12/12/2025 13:59:44.2111	0.000166718	0.0648541	0.3	1.71682	12	0.0648541	0	0.000108507	0.000000000000000E+000	578578	0.000000000000000E+000	5446.51	0.300092	-0.00241979	0.000000000000000E+000	0.0648541	0.0648541	0.0000000E+000	0.0000000E+000	0.3	0.000000000000000E+000	0.000515203	5720.98
1	1	0	0	0	0	1	12/12/2025 14:00:02.2111	0.000166718	0.0663546	0.3	1.71924	12	0.0663546	0	0.000111085	0.000000000000000E+000	588432	0.000000000000000E+000	5464.51	0.300093	-0.00247578	0.000000000000000E+000	0.0663546	0.0663546	0.0000000E+000	0.0000000E+000	0.3	0.000000000000000E+000	0.000515932	5729.02
1	1	0	0	0	0	1	12/12/2025 14:00:20.2111	0.000166718	0.067855	0.3	1.71998	12	0.067855	0	0.000113665	0.000000000000000E+000	600638	0.000000000000000E+000	5482.51	0.300093	-0.00253176	0.000000000000000E+000	0.067855	0.067855	0.0000000E+000	0.0000000E+000	0.3	0.000000000000000E+000	0.000516155	5731.51
1	1	0	0	0	0	1	12/12/2025 14:00:38.2111	0.000166719	0.0693555	0.3	1.7181	12	0.0693555	0	0.000116244	0.000000000000000E+000	616783	0.000000000000000E+000	5500.51	0.300094	-0.00258775	0.000000000000000E+000	0.0693555	0.0693555	0.0000000E+000	0.0000000E+000	0.3	0.000000000000000E+000	0.00051559	5725.2
1	1	0	0	0	0	1	12/12/2025 14:00:56.2111	0.000166719	0.070856	0.3	1.71754	12	0.070856	0	0.000118821	0.000000000000000E+000	630989	0.000000000000000E+000	5518.51	0.300095	-0.00264373	0.000000000000000E+000	0.070856	0.070856	0.0000000E+000	0.0000000E+000	0.3	0.000000000000000E+000	0.000515426	5723.33
1	1	0	0	0	0	1	12/12/2025 14:01:14.2111	0.00016672	0.0723564	0.3	1.71949	12	0.0723564	0	0.0001214	0.000000000000000E+000	641265	0.000000000000000E+000	5536.51	0.300096	-0.00269972	0.000000000000000E+000	0.0723564	0.0723564	0.0000000E+000	0.0000000E+000	0.3	0.000000000000000E+000	0.000516011	5729.8
1	1	0	0	0	0	1	12/12/2025 14:01:32.2111	0.000166718	0.0738569	0.3	1.72294	12	0.0738569	0	0.000123983	0.000000000000000E+000	649048	0.000000000000000E+000	5554.51	0.300093	-0.0027557	0.000000000000000E+000	0.0738569	0.0738569	0.0000000E+000	0.0000000E+000	0.3	0.000000000000000E+000	0.000517042	5741.36
1	1	0	0	0	0	1	12/12/2025 14:01:50.2111	0.000166717	0.0753573	0.3	1.72494	12	0.0753573	0	0.00012657	0.000000000000000E+000	659012	0.000000000000000E+000	5572.51	0.300091	-0.00281168	0.000000000000000E+000	0.0753573	0.0753573	0.0000000E+000	0.0000000E+000	0.3	0.000000000000000E+000	0.000517639	5748.07
1	1	0	0	0	0	1	12/12/2025 14:02:08.2111	0.000166719	0.0768578	0.3	1.72807	12	0.0768578	0	0.000129161	0.000000000000000E+000	667066	0.000000000000000E+000	5590.51	0.300094	-0.00286767	0.000000000000000E+000	0.0768578	0.0768578	0.0000000E+000	0.0000000E+000	0.3	0.000000000000000E+000	0.000518583	5758.44
1	1	0	0	0	0	1	12/12/2025 14:02:26.2111	0.000166718	0.0783583	0.3	1.73255	12	0.0783583	0	0.000131758	0.000000000000000E+000	672819	0.000000000000000E+000	5608.51	0.300093	-0.00292365	0.000000000000000E+000	0.0783583	0.0783583	0.0000000E+000	0.0000000E+000	0.3	0.000000000000000E+000	0.000519926	5773.39
1	1	0	0	0	0	1	12/12/2025 14:02:44.2111	0.000166719	0.0798587	0.3	1.73686	12	0.0798587	0	0.000134361	0.000000000000000E+000	678725	0.000000000000000E+000	5626.51	0.300094	-0.00297964	0.000000000000000E+000	0.0798587	0.0798587	0.0000000E+000	0.0000000E+000	0.3	0.000000000000000E+000	0.000521221	5787.73
1	1	0	0	0	0	1	12/12/2025 14:03:02.2111	0.000166718	0.0813592	0.3	1.74003	12	0.0813592	0	0.000136969	0.000000000000000E+000	686348	0.000000000000000E+000	5644.51	0.300093	-0.00303562	0.000000000000000E+000	0.0813592	0.0813592	0.0000000E+000	0.0000000E+000	0.3	0.000000000000000E+000	0.00052217	5798.29
1	1	0	0	0	0	1	12/12/2025 14:03:20.2111	0.000166718	0.0828596	0.3	1.74462	12	0.0828596	0	0.000139584	0.000000000000000E+000	691558	0.000000000000000E+000	5662.51	0.300093	-0.0030916	0.000000000000000E+000	0.0828596	0.0828596	0.0000000E+000	0.0000000E+000	0.3	0.000000000000000E+000	0.000523549	5813.61
1	1	0	0	0	0	1	12/12/2025 14:03:38.2111	0.000166718	0.0843601	0.3	1.74714	12	0.0843601	0	0.000142204	0.000000000000000E+000	699996	0.000000000000000E+000	5680.51	0.300093	-0.00314759	0.000000000000000E+000	0.0843601	0.0843601	0.0000000E+000	0.0000000E+000	0.3	0.000000000000000E+000	0.000524305	5821.99
1	1	0	0	0	0	1	12/12/2025 14:03:56.2111	0.000166719	0.0858606	0.3	1.74951	12	0.0858606	0	0.000144827	0.000000000000000E+000	708584	0.000000000000000E+000	5698.51	0.300094	-0.00320357	0.000000000000000E+000	0.0858606	0.0858606	0.0000000E+000	0.0000000E+000	0.3	0.000000000000000E+000	0.000525017	5829.85
1	1	0	0	0	0	1	12/12/2025 14:04:14.2111	0.000166721	0.0873611	0.3	1.75151	12	0.0873611	0	0.000147454	0.000000000000000E+000	717673	0.000000000000000E+000	5716.51	0.300097	-0.00325956	0.000000000000000E+000	0.0873611	0.0873611	0.0000000E+000	0.0000000E+000	0.3	0.000000000000000E+000	0.000525623	5836.47
1	1	0	0	0	0	1	12/12/2025 14:04:32.2111	0.000166722	0.0888616	0.3	1.75338	12	0.0888616	0	0.000150084	0.000000000000000E+000	726899	0.000000000000000E+000	5734.51	0.300099	-0.00331554	0.000000000000000E+000	0.0888616	0.0888616	0.0000000E+000	0.0000000E+000	0.3	0.000000000000000E+000	0.000526187	5842.66
1	1	0	0	0	0	1	12/12/2025 14:04:50.2111	0.000166719	0.090362	0.3	1.75597	12	0.090362	0	0.000152717	0.000000000000000E+000	734843	0.000000000000000E+000	5752.51	0.300095	-0.00337153	0.000000000000000E+000	0.090362	0.090362	0.0000000E+000	0.0000000E+000	0.3	0.000000000000000E+000	0.000526958	5851.38
1	1	0	0	0	0	1	12/12/2025 14:05:08.2111	0.000166719	0.0918625	0.3	1.75843	12	0.0918625	0	0.000155354	0.000000000000000E+000	742916	0.000000000000000E+000	5770.51	0.300094	-0.00342751	0.000000000000000E+000	0.0918625	0.0918625	0.0000000E+000	0.0000000E+000	0.3	0.000000000000000E+000	0.000527694	5859.6
1	1	0	0	0	0	1	12/12/2025 14:05:26.2111	0.000166718	0.093363	0.3	1.76131	12	0.093363	0	0.000157995	0.000000000000000E+000	750198	0.000000000000000E+000	5788.51	0.300092	-0.0034835	0.000000000000000E+000	0.093363	0.093363	0.0000000E+000	0.0000000E+000	0.3	0.000000000000000E+000	0.000528555	5869.24
1	1	0	0	0	0	1	12/12/2025 14:05:44.2111	0.000166718	0.0948634	0.3	1.76339	12	0.0948634	0	0.000160639	0.000000000000000E+000	758734	0.000000000000000E+000	5806.51	0.300092	-0.00353948	0.000000000000000E+000	0.0948634	0.0948634	0.0000000E+000	0.0000000E+000	0.3	0.000000000000000E+000	0.000529179	5876.17
1	1	0	0	0	0	1	12/12/2025 14:06:02.2111	0.000166718	0.0963639	0.3	1.76541	12	0.0963639	0	0.000163287	0.000000000000000E+000	767289	0.000000000000000E+000	5824.51	0.300093	-0.00359547	0.000000000000000E+000	0.0963639	0.0963639	0.0000000E+000	0.0000000E+000	0.3	0.000000000000000E+000	0.000529787	5882.88
1	1	0	0	0	0	1	12/12/2025 14:06:20.2111	0.000166719	0.0978644	0.3	1.76789	12	0.0978644	0	0.000165938	0.000000000000000E+000	774986	0.000000000000000E+000	5842.51	0.300094	-0.00365145	0.000000000000000E+000	0.0978644	0.0978644	0.0000000E+000	0.0000000E+000	0.3	0.000000000000000E+000	0.000530534	5891.11
1	1	0	0	0	0	1	12/12/2025 14:06:38.2111	0.000166717	0.0993648	0.3	1.77046	12	0.0993648	0	0.000168593	0.000000000000000E+000	782437	0.000000000000000E+000	5860.51	0.300091	-0.00370744	0.000000000000000E+000	0.0993648	0.0993648	0.0000000E+000	0.0000000E+000	0.3	0.000000000000000E+000	0.000531301	5899.75
1	1	0	0	0	0	1	12/12/2025 14:06:56.2111	0.000166716	0.100865	0.3	1.77306	12	0.100865	0	0.000171251	0.000000000000000E+000	789772	0.000000000000000E+000	5878.51	0.30009	-0.00376342	0.000000000000000E+000	0.100865	0.100865	0.0000000E+000	0.0000000E+000	0.3	0.000000000000000E+000	0.000532076	5908.43
1	1	0	0	0	0	1	12/12/2025 14:07:14.2111	0.000166716	0.102366	0.3	1.77592	12	0.102366	0	0.000173914	0.000000000000000E+000	796565	0.000000000000000E+000	5896.51	0.300089	-0.0038194	0.000000000000000E+000	0.102366	0.102366	0.0000000E+000	0.0000000E+000	0.3	0.000000000000000E+000	0.000532934	5917.97
1	1	0	0	0	0	1	12/12/2025 14:07:32.2111	0.000166717	0.103866	0.3	1.77842	12	0.103866	0	0.00017658	0.000000000000000E+000	803899	0.000000000000000E+000	5914.51	0.300091	-0.00387539	0.000000000000000E+000	0.103866	0.103866	0.0000000E+000	0.0000000E+000	0.3	0.000000000000000E+000	0.000533687	5926.26
1	1	0	0	0	0	1	12/12/2025 14:07:50.2111	0.000166717	0.105367	0.3	1.78113	12	0.105367	0	0.000179251	0.000000000000000E+000	810792	0.000000000000000E+000	5932.51	0.300091	-0.00393137	0.000000000000000E+000	0.105367	0.105367	0.0000000E+000	0.0000000E+000	0.3	0.000000000000000E+000	0.0005345	5935.28
1	1	0	0	0	0	1	12/12/2025 14:08:08.2111	0.000166717	0.106867	0.3	1.78385	12	0.106867	0	0.000181925	0.000000000000000E+000	817572	0.000000000000000E+000	5950.51	0.30009	-0.00398736	0.000000000000000E+000	0.106867	0.106867	0.0000000E+000	0.0000000E+000	0.3	0.000000000000000E+000	0.000535317	5944.39
1	1	0	0	0	0	1	12/12/2025 14:08:26.2111	0.000166717	0.108368	0.3	1.78593	12	0.108368	0	0.000184604	0.000000000000000E+000	825405	0.000000000000000E+000	5968.51	0.30009	-0.00404334	0.000000000000000E+000	0.108368	0.108368	0.0000000E+000	0.0000000E+000	0.3	0.000000000000000E+000	0.00053594	5951.31
1	1	0	0	0	0	1	12/12/2025 14:08:44.2111	0.000166717	0.109868	0.3	1.78929	12	0.109868	0	0.000187286	0.000000000000000E+000	830932	0.000000000000000E+000	5986.51	0.30009	-0.00409932	0.000000000000000E+000	0.109868	0.109868	0.0000000E+000	0.0000000E+000	0.3	0.000000000000000E+000	0.000536947	5962.5
1	1	0	0	0	0	1	12/12/2025 14:09:02.2111	0.000166718	0.111368	0.3	1.79169	12	0.111368	0	0.000189973	0.000000000000000E+000	838050	0.000000000000000E+000	6004.51	0.300092	-0.00415531	0.000000000000000E+000	0.111368	0.111368	0.0000000E+000	0.0000000E+000	0.3	0.000000000000000E+000	0.000537673	5970.46
1	1	0	0	0	0	1	12/12/2025 14:09:20.2111	0.000166717	0.112869	0.3	1.79417	12	0.112869	0	0.000192663	0.000000000000000E+000	844962	0.000000000000000E+000	6022.51	0.300091	-0.00421129	0.000000000000000E+000	0.112869	0.112869	0.0000000E+000	0.0000000E+000	0.3	0.000000000000000E+000	0.000538414	5978.75
1	1	0	0	0	0	1	12/12/2025 14:09:38.2111	0.00016672	0.114369	0.3	1.7968	12	0.114369	0	0.000195357	0.000000000000000E+000	851535	0.000000000000000E+000	6040.51	0.300096	-0.00426728	0.000000000000000E+000	0.114369	0.114369	0.0000000E+000	0.0000000E+000	0.3	0.000000000000000E+000	0.000539213	5987.42
1	1	0	0	0	0	1	12/12/2025 14:09:56.2111	0.00016672	0.11587	0.3	1.79981	12	0.11587	0	0.000198056	0.000000000000000E+000	857364	0.000000000000000E+000	6058.51	0.300096	-0.00432326	0.000000000000000E+000	0.11587	0.11587	0.0000000E+000	0.0000000E+000	0.3	0.000000000000000E+000	0.000540117	5997.46
1	1	0	0	0	0	1	12/12/2025 14:10:14.2111	0.00016672	0.11737	0.3	1.80315	12	0.11737	0	0.000200759	0.000000000000000E+000	862549	0.000000000000000E+000	6076.51	0.300096	-0.00437925	0.000000000000000E+000	0.11737	0.11737	0.0000000E+000	0.0000000E+000	0.3	0.000000000000000E+000	0.000541118	6008.59
1	1	0	0	0	0	1	12/12/2025 14:10:32.2111	0.000166717	0.118871	0.3	1.80611	12	0.118871	0	0.000203467	0.000000000000000E+000	868336	0.000000000000000E+000	6094.51	0.30009	-0.00443523	0.000000000000000E+000	0.118871	0.118871	0.0000000E+000	0.0000000E+000	0.3	0.000000000000000E+000	0.000541995	6018.56
1	1	0	0	0	0	1	12/12/2025 14:10:50.2111	0.000166716	0.120371	0.3	1.81061	12	0.120371	0	0.000206181	0.000000000000000E+000	871339	0.000000000000000E+000	6112.51	0.300088	-0.00449121	0.000000000000000E+000	0.120371	0.120371	0.0000000E+000	0.0000000E+000	0.3	0.000000000000000E+000	0.000543342	6033.59
1	1	0	0	0	0	1	12/12/2025 14:11:08.2111	0.000166717	0.121872	0.3	1.82926	12	0.121872	0	0.000208911	0.000000000000000E+000	850311	0.000000000000000E+000	6130.51	0.300091	-0.0045472	0.000000000000000E+000	0.121872	0.121872	0.0000000E+000	0.0000000E+000	0.3	0.000000000000000E+000	0.000548945	6095.68
1	1	0	0	0	0	1	12/12/2025 14:11:26.2111	0.000166717	0.123372	0.3	1.84713	12	0.123372	0	0.000211668	0.000000000000000E+000	831967	0.000000000000000E+000	6148.51	0.300091	-0.00460318	0.000000000000000E+000	0.123372	0.123372	0.0000000E+000	0.0000000E+000	0.3	0.000000000000000E+000	0.000554306	6155.23
1	1	0	0	0	0	1	12/12/2025 14:11:44.2111	0.000166717	0.124873	0.3	1.83921	12	0.124873	0	0.000214433	0.000000000000000E+000	854758	0.000000000000000E+000	6166.51	0.300091	-0.00465917	0.000000000000000E+000	0.124873	0.124873	0.0000000E+000	0.0000000E+000	0.3	0.000000000000000E+000	0.000551931	6128.86
1	1	0	0	0	0	1	12/12/2025 14:12:02.2111	0.000166715	0.126373	0.3	1.83735	12	0.126373	0	0.000217187	0.000000000000000E+000	868113	0.000000000000000E+000	6184.51	0.300086	-0.00471515	0.000000000000000E+000	0.126373	0.126373	0.0000000E+000	0.0000000E+000	0.3	0.000000000000000E+000	0.000551362	6122.72
1	1	0	0	0	0	1	12/12/2025 14:12:20.2111	0.000166718	0.127874	0.3	1.83471	12	0.127874	0	0.000219942	0.000000000000000E+000	882854	0.000000000000000E+000	6202.51	0.300092	-0.00477113	0.000000000000000E+000	0.127874	0.127874	0.0000000E+000	0.0000000E+000	0.3	0.000000000000000E+000	0.000550584	6113.83
1	1	0	0	0	0	1	12/12/2025 14:12:38.2111	0.000166718	0.129374	0.3	1.83416	12	0.129374	0	0.000222694	0.000000000000000E+000	894162	0.000000000000000E+000	6220.51	0.300092	-0.00482712	0.000000000000000E+000	0.129374	0.129374	0.0000000E+000	0.0000000E+000	0.3	0.000000000000000E+000	0.000550418	6111.99
1	1	0	0	0	0	1	12/12/2025 14:12:56.2111	0.000166718	0.130874	0.3	1.83956	12	0.130874	0	0.00022545	0.000000000000000E+000	895256	0.000000000000000E+000	6238.51	0.300093	-0.0048831	0.000000000000000E+000	0.130874	0.130874	0.0000000E+000	0.0000000E+000	0.3	0.000000000000000E+000	0.000552038	6129.97
1	1	0	0	0	0	1	12/12/2025 14:13:14.2111	0.000166717	0.132375	0.3	1.8449	12	0.132375	0	0.000228215	0.000000000000000E+000	896425	0.000000000000000E+000	6256.51	0.30009	-0.00493909	0.000000000000000E+000	0.132375	0.132375	0.0000000E+000	0.0000000E+000	0.3	0.000000000000000E+000	0.000553636	6147.81
1	1	0	0	0	0	1	12/12/2025 14:13:32.2111	0.000166719	0.133875	0.3	1.85247	12	0.133875	0	0.00023099	0.000000000000000E+000	893855	0.000000000000000E+000	6274.51	0.300094	-0.00499507	0.000000000000000E+000	0.133875	0.133875	0.0000000E+000	0.0000000E+000	0.3	0.000000000000000E+000	0.000555914	6172.97
1	1	0	0	0	0	1	12/12/2025 14:13:50.2111	0.000166717	0.135376	0.3	1.86202	12	0.135376	0	0.000233777	0.000000000000000E+000	888135	0.000000000000000E+000	6292.51	0.300091	-0.00505105	0.000000000000000E+000	0.135376	0.135376	0.0000000E+000	0.0000000E+000	0.3	0.000000000000000E+000	0.000558776	6204.87
1	1	0	0	0	0	1	12/12/2025 14:14:08.2111	0.000166718	0.136876	0.3	1.87137	12	0.136876	0	0.000236578	0.000000000000000E+000	882943	0.000000000000000E+000	6310.51	0.300093	-0.00510704	0.000000000000000E+000	0.136876	0.136876	0.0000000E+000	0.0000000E+000	0.3	0.000000000000000E+000	0.000561585	6235.95
1	1	0	0	0	0	1	12/12/2025 14:14:26.2111	0.00016672	0.138377	0.3	1.8793	12	0.138377	0	0.000239393	0.000000000000000E+000	880111	0.000000000000000E+000	6328.51	0.300095	-0.00516302	0.000000000000000E+000	0.138377	0.138377	0.0000000E+000	0.0000000E+000	0.3	0.000000000000000E+000	0.00056397	6262.35
1	1	0	0	0	0	1	12/12/2025 14:14:44.2111	0.000166718	0.139877	0.3	1.88495	12	0.139877	0	0.000242218	0.000000000000000E+000	880869	0.000000000000000E+000	6346.51	0.300093	-0.00521901	0.000000000000000E+000	0.139877	0.139877	0.0000000E+000	0.0000000E+000	0.3	0.000000000000000E+000	0.000565658	6281.22
1	1	0	0	0	0	1	12/12/2025 14:15:02.2111	0.000166718	0.141378	0.3	1.89145	12	0.141378	0	0.000245051	0.000000000000000E+000	880304	0.000000000000000E+000	6364.51	0.300092	-0.00527499	0.000000000000000E+000	0.141378	0.141378	0.0000000E+000	0.0000000E+000	0.3	0.000000000000000E+000	0.000567609	6302.9
1	1	0	0	0	0	1	12/12/2025 14:15:20.2111	0.000166718	0.142878	0.3	1.89709	12	0.142878	0	0.000247894	0.000000000000000E+000	881045	0.000000000000000E+000	6382.51	0.300093	-0.00533098	0.000000000000000E+000	0.142878	0.142878	0.0000000E+000	0.0000000E+000	0.3	0.000000000000000E+000	0.000569304	6321.7
1	1	0	0	0	0	1	12/12/2025 14:15:38.2111	0.000166719	0.144379	0.3	1.90383	12	0.144379	0	0.000250747	0.000000000000000E+000	880148	0.000000000000000E+000	6400.51	0.300093	-0.00538696	0.000000000000000E+000	0.144379	0.144379	0.0000000E+000	0.0000000E+000	0.3	0.000000000000000E+000	0.000571326	6344.11
1	1	0	0	0	0	1	12/12/2025 14:15:56.2111	0.000166718	0.145879	0.3	1.90999	12	0.145879	0	0.00025361	0.000000000000000E+000	880115	0.000000000000000E+000	6418.51	0.300092	-0.00544294	0.000000000000000E+000	0.145879	0.145879	0.0000000E+000	0.0000000E+000	0.3	0.000000000000000E+000	0.000573172	6364.67
1	1	0	0	0	0	1	12/12/2025 14:16:14.2111	0.000166719	0.14738	0.3	1.91971	12	0.14738	0	0.000256483	0.000000000000000E+000	874907	0.000000000000000E+000	6436.51	0.300094	-0.00549893	0.000000000000000E+000	0.14738	0.14738	0.0000000E+000	0.0000000E+000	0.3	0.000000000000000E+000	0.000576094	6397.04
1	1	0	0	0	0	1	12/12/2025 14:16:32.2111	0.000166718	0.14888	0.3	1.92822	12	0.14888	0	0.000259372	0.000000000000000E+000	871589	0.000000000000000E+000	6454.51	0.300093	-0.00555491	0.000000000000000E+000	0.14888	0.14888	0.0000000E+000	0.0000000E+000	0.3	0.000000000000000E+000	0.000578644	6425.41
1	1	0	0	0	0	1	12/12/2025 14:16:50.2111	0.000166719	0.15038	0.3	1.93857	12	0.15038	0	0.000262274	0.000000000000000E+000	865794	0.000000000000000E+000	6472.51	0.300094	-0.0056109	0.000000000000000E+000	0.15038	0.15038	0.0000000E+000	0.0000000E+000	0.3	0.000000000000000E+000	0.000581754	6459.9
1	1	0	0	0	0	1	12/12/2025 14:17:08.2111	0.000166718	0.151881	0.3	1.94937	12	0.151881	0	0.000265191	0.000000000000000E+000	859594	0.000000000000000E+000	6490.51	0.300093	-0.00566688	0.000000000000000E+000	0.151881	0.151881	0.0000000E+000	0.0000000E+000	0.3	0.000000000000000E+000	0.000584992	6495.88
1	1	0	0	0	0	1	12/12/2025 14:17:26.2111	0.000166717	0.153381	0.3	1.96085	12	0.153381	0	0.000268125	0.000000000000000E+000	852695	0.000000000000000E+000	6508.51	0.300091	-0.00572287	0.000000000000000E+000	0.153381	0.153381	0.0000000E+000	0.0000000E+000	0.3	0.000000000000000E+000	0.000588433	6534.18
1	1	0	0	0	0	1	12/12/2025 14:17:44.2111	0.000166718	0.154882	0.3	1.97248	12	0.154882	0	0.000271076	0.000000000000000E+000	845842	0.000000000000000E+000	6526.51	0.300092	-0.00577885	0.000000000000000E+000	0.154882	0.154882	0.0000000E+000	0.0000000E+000	0.3	0.000000000000000E+000	0.000591926	6572.93
1	1	0	0	0	0	1	12/12/2025 14:18:02.2111	0.000166717	0.156382	0.3	1.98251	12	0.156382	0	0.000274044	0.000000000000000E+000	841234	0.000000000000000E+000	6544.51	0.300091	-0.00583483	0.000000000000000E+000	0.156382	0.156382	0.0000000E+000	0.0000000E+000	0.3	0.000000000000000E+000	0.000594934	6606.37
1	1	0	0	0	0	1	12/12/2025 14:18:20.2111	0.000166716	0.157883	0.3	1.99439	12	0.157883	0	0.000277029	0.000000000000000E+000	834491	0.000000000000000E+000	6562.51	0.300089	-0.00589082	0.000000000000000E+000	0.157883	0.157883	0.0000000E+000	0.0000000E+000	0.3	0.000000000000000E+000	0.000598496	6646
1	1	0	0	0	0	1	12/12/2025 14:18:38.2111	0.000166715	0.159383	0.3	2.00988	12	0.159383	0	0.000280035	0.000000000000000E+000	823694	0.000000000000000E+000	6580.51	0.300087	-0.0059468	0.000000000000000E+000	0.159383	0.159383	0.0000000E+000	0.0000000E+000	0.3	0.000000000000000E+000	0.000603138	6697.66
1	1	0	0	0	0	1	12/12/2025 14:18:56.2111	0.000166716	0.160884	0.3	2.02809	12	0.160884	0	0.000283066	0.000000000000000E+000	810264	0.000000000000000E+000	6598.51	0.30009	-0.00600279	0.000000000000000E+000	0.160884	0.160884	0.0000000E+000	0.0000000E+000	0.3	0.000000000000000E+000	0.000608609	6758.29
1	1	0	0	0	0	1	12/12/2025 14:19:14.2111	0.000166713	0.162384	0.3	2.04438	12	0.162384	0	0.000286122	0.000000000000000E+000	799602	0.000000000000000E+000	6616.51	0.300084	-0.00605877	0.000000000000000E+000	0.162384	0.162384	0.0000000E+000	0.0000000E+000	0.3	0.000000000000000E+000	0.000613485	6812.69
1	1	0	0	0	0	1	12/12/2025 14:19:32.2111	0.000166714	0.163885	0.3	2.06229	12	0.163885	0	0.000289205	0.000000000000000E+000	787696	0.000000000000000E+000	6634.51	0.300084	-0.00611475	0.000000000000000E+000	0.163885	0.163885	0.0000000E+000	0.0000000E+000	0.3	0.000000000000000E+000	0.00061886	6872.35
1	1	0	0	0	0	1	12/12/2025 14:19:50.2111	0.000166715	0.165385	0.3	2.08014	12	0.165385	0	0.000292314	0.000000000000000E+000	776405	0.000000000000000E+000	6652.51	0.300088	-0.00617073	0.000000000000000E+000	0.165385	0.165385	0.0000000E+000	0.0000000E+000	0.3	0.000000000000000E+000	0.000624223	6931.76
1	1	0	0	0	0	1	12/12/2025 14:20:08.2111	0.000166715	0.166885	0.3	2.10159	12	0.166885	0	0.000295453	0.000000000000000E+000	762126	0.000000000000000E+000	6670.51	0.300088	-0.00622672	0.000000000000000E+000	0.166885	0.166885	0.0000000E+000	0.0000000E+000	0.3	0.000000000000000E+000	0.000630661	7003.26
1	1	0	0	0	0	1	12/12/2025 14:20:26.2111	0.000166715	0.168386	0.3	2.12636	12	0.168386	0	0.000298627	0.000000000000000E+000	745549	0.000000000000000E+000	6688.51	0.300087	-0.0062827	0.000000000000000E+000	0.168386	0.168386	0.0000000E+000	0.0000000E+000	0.3	0.000000000000000E+000	0.000638095	7085.81
1	1	0	0	0	0	1	12/12/2025 14:20:44.2111	0.000166715	0.169886	0.3	2.15543	12	0.169886	0	0.000301842	0.000000000000000E+000	726233	0.000000000000000E+000	6706.51	0.300088	-0.00633868	0.000000000000000E+000	0.169886	0.169886	0.0000000E+000	0.0000000E+000	0.3	0.000000000000000E+000	0.000646817	7182.66
1	1	0	0	0	0	1	12/12/2025 14:21:02.2111	0.000166715	0.171387	0.3	2.18596	12	0.171387	0	0.000305103	0.000000000000000E+000	707014	0.000000000000000E+000	6724.51	0.300087	-0.00639467	0.000000000000000E+000	0.171387	0.171387	0.0000000E+000	0.0000000E+000	0.3	0.000000000000000E+000	0.000655977	7284.43
1	0	0	1	0	0	2	12/12/2025 14:21:16.0675	-0.000166649	0.171542	-0.3	1.53565	12	-0.000499983	1	0.000306541	7.77288e-07	698300	4139.41	6	-0.299969	-0.00640044	0.000499983	0.000000000000000E+000	0.000499983	0.0000000E+000	0.0000000E+000	-0.3	0.000000000000000E+000	-0.000460646	5119.35
1	0	0	1	0	0	2	12/12/2025 14:21:34.0675	-0.000166649	0.170042	-0.3	1.46222	12	-0.00199983	1	0.000306541	3.01174e-06	698300	14165	24	-0.299969	-0.00634448	0.00199983	0.000000000000000E+000	0.00199983	0.0000000E+000	0.0000000E+000	-0.3	0.000000000000000E+000	-0.000438622	4874.58
1	0	0	1	0	0	2	12/12/2025 14:21:52.0675	-0.000166649	0.168542	-0.3	1.43957	12	-0.00349967	1	0.000306541	5.18261e-06	698300	23730.7	42	-0.299968	-0.00628852	0.00349967	0.000000000000000E+000	0.00349967	0.0000000E+000	0.0000000E+000	-0.3	0.000000000000000E+000	-0.000431823	4799.08
1	0	0	1	0	0	2	12/12/2025 14:22:10.0675	-0.000166648	0.167042	-0.3	1.42669	12	-0.00499951	1	0.000306541	7.33002e-06	698300	33098.3	60	-0.299966	-0.00623256	0.00499951	0.000000000000000E+000	0.00499951	0.0000000E+000	0.0000000E+000	-0.3	0.000000000000000E+000	-0.00042796	4756.18
1	0	0	1	0	0	2	12/12/2025 14:22:28.0675	-0.000166649	0.165542	-0.3	1.41184	12	-0.00649934	1	0.000306541	9.45669e-06	698300	41883.4	78	-0.299969	-0.0061766	0.00649934	0.000000000000000E+000	0.00649934	0.0000000E+000	0.0000000E+000	-0.3	0.000000000000000E+000	-0.000423507	4706.62
1	0	0	1	0	0	2	12/12/2025 14:22:46.0675	-0.000166647	0.164042	-0.3	1.39561	12	-0.00799917	1	0.000306541	1.15611e-05	698300	50093.4	96	-0.299965	-0.00612064	0.00799917	0.000000000000000E+000	0.00799917	0.0000000E+000	0.0000000E+000	-0.3	0.000000000000000E+000	-0.000418633	4652.58
1	0	0	1	0	0	2	12/12/2025 14:23:04.0675	-0.000166647	0.162543	-0.3	1.38079	12	-0.00949899	1	0.000306541	1.36418e-05	698300	57990.9	114	-0.299964	-0.00606468	0.00949899	0.000000000000000E+000	0.00949899	0.0000000E+000	0.0000000E+000	-0.3	0.000000000000000E+000	-0.000414188	4603.18
1	0	0	1	0	0	2	12/12/2025 14:23:22.0675	-0.000166647	0.161043	-0.3	1.36691	12	-0.0109988	1	0.000306541	1.5701e-05	698300	65602.8	132	-0.299965	-0.00600872	0.0109988	0.000000000000000E+000	0.0109988	0.0000000E+000	0.0000000E+000	-0.3	0.000000000000000E+000	-0.000410024	4556.89
1	0	0	1	0	0	2	12/12/2025 14:23:40.0675	-0.000166645	0.159543	-0.3	1.35388	12	-0.0124986	1	0.000306541	1.77405e-05	698300	72973.7	150	-0.299961	-0.00595276	0.0124986	0.000000000000000E+000	0.0124986	0.0000000E+000	0.0000000E+000	-0.3	0.000000000000000E+000	-0.000406112	4513.52
1	0	0	1	0	0	2	12/12/2025 14:23:58.0675	-0.000166647	0.158043	-0.3	1.34156	12	-0.0139984	1	0.000306541	1.97604e-05	698300	80129.4	168	-0.299964	-0.0058968	0.0139984	0.000000000000000E+000	0.0139984	0.0000000E+000	0.0000000E+000	-0.3	0.000000000000000E+000	-0.000402421	4472.41
1	0	0	1	0	0	2	12/12/2025 14:24:16.0675	-0.000166646	0.156543	-0.3	1.3297	12	-0.0154983	1	0.000306541	2.17623e-05	698300	87072.3	186	-0.299963	-0.00584084	0.0154983	0.000000000000000E+000	0.0154983	0.0000000E+000	0.0000000E+000	-0.3	0.000000000000000E+000	-0.000398862	4432.87
1	0	0	1	0	0	2	12/12/2025 14:24:34.0675	-0.000166647	0.155043	-0.3	1.31852	12	-0.0169981	1	0.000306541	2.37468e-05	698300	93861.6	204	-0.299964	-0.00578488	0.0169981	0.000000000000000E+000	0.0169981	0.0000000E+000	0.0000000E+000	-0.3	0.000000000000000E+000	-0.00039551	4395.61
1	0	0	1	0	0	2	12/12/2025 14:24:52.0675	-0.000166645	0.153544	-0.3	1.30666	12	-0.0184979	1	0.000306541	2.57146e-05	698300	100318	222	-0.299961	-0.00572892	0.0184979	0.000000000000000E+000	0.0184979	0.0000000E+000	0.0000000E+000	-0.3	0.000000000000000E+000	-0.000391948	4356.11
1	0	0	1	0	0	2	12/12/2025 14:25:10.0675	-0.000166645	0.152044	-0.3	1.29497	12	-0.0199977	1	0.000306541	2.7665e-05	698300	106575	240	-0.29996	-0.00567296	0.0199977	0.000000000000000E+000	0.0199977	0.0000000E+000	0.0000000E+000	-0.3	0.000000000000000E+000	-0.00038844	4317.15
1	0	0	1	0	0	2	12/12/2025 14:25:28.0675	-0.000166645	0.150544	-0.3	1.28429	12	-0.0214975	1	0.000306541	2.95986e-05	698300	112785	258	-0.299961	-0.005617	0.0214975	0.000000000000000E+000	0.0214975	0.0000000E+000	0.0000000E+000	-0.3	0.000000000000000E+000	-0.000385238	4281.53
1	0	0	1	0	0	2	12/12/2025 14:25:46.0675	-0.000166648	0.149044	-0.3	1.27243	12	-0.0229973	1	0.000306541	3.15152e-05	698300	118603	276	-0.299966	-0.00556104	0.0229973	0.000000000000000E+000	0.0229973	0.0000000E+000	0.0000000E+000	-0.3	0.000000000000000E+000	-0.000381685	4241.92
1	0	0	1	0	0	2	12/12/2025 14:26:04.0675	-0.000166648	0.147544	-0.3	1.26051	12	-0.0244972	1	0.000306541	3.34142e-05	698300	124217	294	-0.299967	-0.00550508	0.0244972	0.000000000000000E+000	0.0244972	0.0000000E+000	0.0000000E+000	-0.3	0.000000000000000E+000	-0.000378112	4202.17
1	0	0	1	0	0	2	12/12/2025 14:26:22.0675	-0.000166649	0.146044	-0.3	1.24834	12	-0.025997	1	0.000306541	3.52956e-05	698300	129601	312	-0.299969	-0.00544912	0.025997	0.000000000000000E+000	0.025997	0.0000000E+000	0.0000000E+000	-0.3	0.000000000000000E+000	-0.000374465	4161.58
1	0	0	1	0	0	2	12/12/2025 14:26:40.0675	-0.000166651	0.144545	-0.3	1.23602	12	-0.0274969	1	0.000306541	3.71573e-05	698300	134779	330	-0.299971	-0.00539316	0.0274969	0.000000000000000E+000	0.0274969	0.0000000E+000	0.0000000E+000	-0.3	0.000000000000000E+000	-0.000370771	4120.48
1	0	0	1	0	0	2	12/12/2025 14:26:58.0675	-0.000166649	0.143045	-0.3	1.22201	12	-0.0289967	1	0.000306541	3.90004e-05	698300	139469	348	-0.299969	-0.00533719	0.0289967	0.000000000000000E+000	0.0289967	0.0000000E+000	0.0000000E+000	-0.3	0.000000000000000E+000	-0.000366564	4073.78
1	0	0	1	0	0	2	12/12/2025 14:27:16.0675	-0.00016665	0.141545	-0.3	1.20826	12	-0.0304965	1	0.000306541	4.0822e-05	698300	144037	366	-0.29997	-0.00528123	0.0304965	0.000000000000000E+000	0.0304965	0.0000000E+000	0.0000000E+000	-0.3	0.000000000000000E+000	-0.000362441	4027.93
1	0	0	1	0	0	2	12/12/2025 14:27:34.0675	-0.000166651	0.140045	-0.3	1.19455	12	-0.0319964	1	0.000306541	4.2623e-05	698300	148450	384	-0.299971	-0.00522527	0.0319964	0.000000000000000E+000	0.0319964	0.0000000E+000	0.0000000E+000	-0.3	0.000000000000000E+000	-0.000358329	3982.2
1	0	0	1	0	0	2	12/12/2025 14:27:52.0675	-0.000166649	0.138545	-0.3	1.17935	12	-0.0334962	1	0.000306541	4.44018e-05	698300	152423	402	-0.299967	-0.00516931	0.0334962	0.000000000000000E+000	0.0334962	0.0000000E+000	0.0000000E+000	-0.3	0.000000000000000E+000	-0.000353765	3931.58
1	0	0	1	0	0	2	12/12/2025 14:28:10.0675	-0.00016665	0.137045	-0.3	1.16382	12	-0.0349961	1	0.000306541	4.61588e-05	698300	156183	420	-0.299969	-0.00511335	0.0349961	0.000000000000000E+000	0.0349961	0.0000000E+000	0.0000000E+000	-0.3	0.000000000000000E+000	-0.000349111	3879.8
1	0	0	1	0	0	2	12/12/2025 14:28:28.0675	-0.000166649	0.135546	-0.3	1.14729	12	-0.0364959	1	0.000306541	4.78907e-05	698300	159606	438	-0.299968	-0.00505739	0.0364959	0.000000000000000E+000	0.0364959	0.0000000E+000	0.0000000E+000	-0.3	0.000000000000000E+000	-0.00034415	3824.7
1	0	0	1	0	0	2	12/12/2025 14:28:46.0675	-0.000166649	0.134046	-0.3	1.12559	12	-0.0379958	1	0.000306541	4.95948e-05	698300	161897	456	-0.299969	-0.00500143	0.0379958	0.000000000000000E+000	0.0379958	0.0000000E+000	0.0000000E+000	-0.3	0.000000000000000E+000	-0.000337641	3752.34
1	0	0	1	0	0	2	12/12/2025 14:29:04.0675	-0.000166649	0.132546	-0.3	1.10201	12	-0.0394956	1	0.000306541	5.12626e-05	698300	163720	474	-0.299969	-0.00494547	0.0394956	0.000000000000000E+000	0.0394956	0.0000000E+000	0.0000000E+000	-0.3	0.000000000000000E+000	-0.00033057	3673.76
1	0	0	1	0	0	2	12/12/2025 14:29:15.6587	-0.000132586	0.13158	-0.3	1.0883	12	-0.0404614	1	0.000306541	5.23179e-05	698300	165116	485.591	-0.299969	-0.00490943	0.0404614	0.000000000000000E+000	0.0404614	0.0000000E+000	0.0000000E+000	-0.3	0.000000000000000E+000	-0.000326457	3628.05