File: docs/examples/echem/folder/aa.mpt
EC-Lab ASCII FILE
Nb header lines : 51

Open Circuit Voltage

Run on channel : 2 (SN 35864)
User :
CE vs. WE compliance from -10 V to 10 V
Electrode connection : standard
Potential control : Ewe
Ewe ctrl range : min = -2.50 V, max = 2.50 V
Safety Limits :
	Do not start on E overload
Acquisition started on : 02/19/2024 13:44:47.893
Loaded Setting File :  NONE
Saved on :
	File : LC-005C-Zn-1M ZnSO4+02M MnSO4-alphaMnO2-8112-12mm_01_OCV_C02.mpr
	Directory : C:\DATA\CHENG\2024\BulkCell\2024-02\
	Host : 192.109.209.127
Device : VSP (SN 1377)
Address : 192.109.209.128
EC-LAB for windows v11.52 (software)
Internet server v11.52 (firmware)
Command interpretor v11.50 (firmware)
Electrode material :
Initial state :
Electrolyte :
Comments : Li-ion 18650 1.35 A.h
Comments : GITT
Mass of active material : 7000.000 mg
 at x = 1.000
Molecular weight of active material (at x = 0) : 90.930 g/mol
Atomic weight of intercalated ion : 6.940 g/mol
Acquisition started at : xo = 0.900
Number of e- transfered per intercalated ion : 1
for DX = 1, DQ = 1916.936 mA.h
Battery capacity : 0.000 A.h
Electrode surface area : 0.001 cm2
Characteristic mass : 0.001 g
Volume (V) : 0.001 cm3
Record Ece
Cycle Definition : Charge/Discharge alternance
tR (h:m:s)          2:00:0.0000
dER/dt (mV/h)       1.0
record              <Ewe>
dER (mV)            0.00
dtR (s)             0.50
E range min (V)     -2.500
E range max (V)     2.500

mode	error	time/s	<Ewe/V>	<Ece>/V	Ewe-Ece/V
3	0	0.5	1.46861	5.01452e-05	1.46856
3	0	4.5	1.46867	5.09357e-05	1.46862
3	0	8.5	1.46872	5.6107e-05	1.46866
3	0	12.5	1.46877	5.34488e-05	1.46871
3	0	16.5	1.46879	5.08822e-05	1.46874
3	0	20.5	1.4688	5.51598e-05	1.46874
3	0	24.5	1.46881	5.00802e-05	1.46876
3	0	28.5	1.46884	5.20815e-05	1.46879
3	0	32.5	1.46888	5.33724e-05	1.46883
3	0	36.5	1.46897	4.52984e-05	1.46892
3	0	40.5	1.46909	4.67192e-05	1.46904
3	0	44.5	1.46922	4.67879e-05	1.46917
3	0	48.5	1.46933	4.7674e-05	1.46928
3	0	52.5	1.46911	5.19287e-05	1.46906
3	0	56.5	1.46869	5.44876e-05	1.46864
3	0	60.5	1.46863	5.08898e-05	1.46858
3	0	64.5	1.46743	5.27766e-05	1.46737
3	0	68.5	1.46669	5.03933e-05	1.46664
3	0	72.5	1.46599	5.07065e-05	1.46593
3	0	76.5	1.46716	5.51522e-05	1.4671
3	0	80.5	1.46687	5.69931e-05	1.46682
3	0	84.5	1.46758	5.34411e-05	1.46752
3	0	88.5	1.46795	5.45793e-05	1.4679
3	0	92.5	1.46821	5.41668e-05	1.46816
3	0	96.5	1.46842	5.32884e-05	1.46837
3	0	100.5	1.46858	5.49154e-05	1.46852
3	0	104.5	1.46873	5.45029e-05	1.46867
3	0	108.5	1.46883	5.75278e-05	1.46877
3	0	112.5	1.46889	5.58626e-05	1.46883
3	0	116.5	1.46895	5.16919e-05	1.4689
3	0	120.5	1.46902	5.5832e-05	1.46896
3	0	124.5	1.46909	5.6764e-05	1.46903
3	0	128.5	1.46917	5.63438e-05	1.46912
3	0	132.5	1.46927	5.29828e-05	1.46921
3	0	136.5	1.46935	5.71077e-05	1.46929
3	0	140.5	1.46943	5.58397e-05	1.46937
3	0	144.5	1.46952	5.40981e-05	1.46946
3	0	148.5	1.46958	5.82382e-05	1.46952
3	0	152.5	1.46528	5.39224e-05	1.46523
3	0	156.5	1.46566	5.32425e-05	1.46561
3	0	160.5	1.47046	5.06683e-05	1.47041
3	0	164.5	1.47496	5.42127e-05	1.47491
3	0	168.5	1.47709	5.21579e-05	1.47704
3	0	172.5	1.4783	5.3571e-05	1.47824
3	0	176.5	1.479	5.34335e-05	1.47894
3	0	180.5	1.4794	5.27842e-05	1.47935
3	0	184.5	1.47962	5.2853e-05	1.47956
3	0	188.5	1.47973	4.78802e-05	1.47969
3	0	192.5	1.47978	5.23717e-05	1.47972
3	0	196.5	1.47975	4.76664e-05	1.4797
3	0	200.5	1.47971	5.45793e-05	1.47966
3	0	204.5	1.47965	5.59237e-05	1.4796
3	0	208.5	1.47961	5.30974e-05	1.47955
3	0	212.5	1.47957	5.42127e-05	1.47952
3	0	216.5	1.47961	5.503e-05	1.47956
3	0	220.5	1.47954	5.34335e-05	1.47949
3	0	224.5	1.47952	5.69167e-05	1.47946
3	0	228.5	1.47951	5.38536e-05	1.47946
3	0	232.5	1.47958	5.86354e-05	1.47952
3	0	236.5	1.47956	5.48619e-05	1.4795
3	0	240.5	1.47959	5.50529e-05	1.47953
3	0	244.5	1.47969	5.35481e-05	1.47964
3	0	248.5	1.47972	5.67181e-05	1.47966
3	0	252.5	1.47972	5.54654e-05	1.47966
3	0	256.5	1.47976	5.448e-05	1.4797
3	0	260.5	1.47981	5.37925e-05	1.47975
3	0	264.5	1.47986	4.91635e-05	1.47981
3	0	268.5	1.47991	5.28682e-05	1.47986
3	0	272.5	1.47996	5.28682e-05	1.47991
3	0	276.5	1.48	4.95454e-05	1.47995
3	0	280.5	1.48006	5.53126e-05	1.48
3	0	284.5	1.48013	5.43883e-05	1.48007
3	0	288.5	1.4802	5.00572e-05	1.48015
3	0	292.5	1.48028	4.87281e-05	1.48023
3	0	296.5	1.48035	4.72462e-05	1.4803
3	0	300.5	1.48041	5.07371e-05	1.48036
3	0	304.5	1.48049	5.58168e-05	1.48043
3	0	308.5	1.48056	5.11954e-05	1.48051
3	0	312.5	1.48065	5.25551e-05	1.4806
3	0	316.5	1.48075	5.13634e-05	1.4807
3	0	320.5	1.48085	5.23106e-05	1.48079
3	0	324.5	1.48095	5.01107e-05	1.4809
3	0	328.5	1.48105	5.35634e-05	1.48099
3	0	332.5	1.48115	5.31203e-05	1.4811
3	0	336.5	1.48125	5.11343e-05	1.4812
3	0	340.5	1.48136	5.10732e-05	1.48131
3	0	344.5	1.48146	4.96677e-05	1.48141
3	0	348.5	1.48156	4.76129e-05	1.48152
3	0	352.5	1.48167	5.10884e-05	1.48162
3	0	356.5	1.48178	5.01947e-05	1.48173
3	0	360.5	1.48187	5.23412e-05	1.48182
3	0	364.5	1.48197	5.43731e-05	1.48191
3	0	368.5	1.48207	5.36168e-05	1.48202
3	0	372.5	1.48217	5.35481e-05	1.48211
3	0	376.5	1.48227	5.02864e-05	1.48222
3	0	380.5	1.48237	5.05385e-05	1.48232
3	0	384.5	1.48246	4.89114e-05	1.48241
3	0	388.5	1.48256	5.19745e-05	1.4825
3	0	392.5	1.48264	5.22419e-05	1.48259
3	0	396.5	1.48273	5.45946e-05	1.48267
3	0	400.5	1.48282	5.36398e-05	1.48276
3	0	404.5	1.48291	5.00725e-05	1.48286
3	0	408.5	1.483	5.22037e-05	1.48295
3	0	412.5	1.48309	5.14933e-05	1.48304
3	0	416.5	1.48318	5.2578e-05	1.48313
3	0	420.5	1.48327	5.49841e-05	1.48322
3	0	424.5	1.48336	5.40446e-05	1.48331
3	0	428.5	1.48345	4.87739e-05	1.4834
3	0	432.5	1.48353	5.076e-05	1.48348
3	0	436.5	1.48362	4.98968e-05	1.48357
3	0	440.5	1.48371	4.78573e-05	1.48366
3	0	444.5	1.48379	4.88656e-05	1.48374
3	0	448.5	1.48386	4.55505e-05	1.48381
3	0	452.5	1.48393	4.75212e-05	1.48388
3	0	456.5	1.484	5.1478e-05	1.48395
3	0	460.5	1.48408	5.06301e-05	1.48403
3	0	464.5	1.48416	5.03857e-05	1.48411
3	0	468.5	1.48424	5.0294e-05	1.48419
3	0	472.5	1.48431	5.23335e-05	1.48426
3	0	476.5	1.48439	5.31891e-05	1.48434
3	0	480.5	1.48446	5.27308e-05	1.48441
3	0	484.5	1.48455	5.61758e-05	1.48449
3	0	488.5	1.48464	5.64508e-05	1.48459
3	0	492.5	1.48473	5.08058e-05	1.48468
3	0	496.5	1.48481	5.23794e-05	1.48476
3	0	500.5	1.48491	5.08287e-05	1.48486
3	0	504.5	1.48499	5.47626e-05	1.48494
3	0	508.5	1.48508	5.51293e-05	1.48502
3	0	512.5	1.48516	5.59543e-05	1.4851
3	0	516.5	1.48524	5.71841e-05	1.48518
3	0	520.5	1.48533	5.57404e-05	1.48527
3	0	524.5	1.48542	5.69167e-05	1.48536
3	0	528.5	1.4855	5.78486e-05	1.48544
3	0	532.5	1.48558	5.56029e-05	1.48553
3	0	536.5	1.48566	5.35252e-05	1.48561
3	0	540.5	1.48573	6.03541e-05	1.48567
3	0	544.5	1.4858	5.67181e-05	1.48575
3	0	548.5	1.48586	5.7925e-05	1.48581
3	0	552.5	1.48594	5.39835e-05	1.48588
3	0	556.5	1.486	5.10121e-05	1.48595
3	0	560.5	1.48607	5.64202e-05	1.48601
3	0	564.5	1.48613	5.53966e-05	1.48608
3	0	568.5	1.48621	5.43501e-05	1.48615
3	0	572.5	1.48628	5.21884e-05	1.48623
3	0	576.5	1.48634	5.1585e-05	1.48629
3	0	580.5	1.48641	5.28912e-05	1.48636
3	0	584.5	1.48648	5.10961e-05	1.48643
3	0	588.5	1.48654	5.45564e-05	1.48649
3	0	592.5	1.48662	5.70007e-05	1.48656
3	0	596.5	1.48667	5.90708e-05	1.48661
3	0	600.5	1.48674	5.42279e-05	1.48669
3	0	604.5	1.48685	5.59925e-05	1.48679
3	0	608.5	1.48689	5.21961e-05	1.48684
3	0	612.5	1.48696	5.35939e-05	1.48691
3	0	616.5	1.48703	5.4755e-05	1.48698
3	0	620.5	1.48711	5.64202e-05	1.48706
3	0	624.5	1.48716	5.18065e-05	1.48711
3	0	628.5	1.48726	5.50605e-05	1.4872
3	0	632.5	1.48734	4.94156e-05	1.48729
3	0	636.5	1.48751	4.87969e-05	1.48746
3	0	640.5	1.48752	5.15697e-05	1.48747
3	0	644.5	1.48756	5.05919e-05	1.48751
3	0	648.5	1.48763	4.99503e-05	1.48758
3	0	652.5	1.48771	4.84913e-05	1.48767
3	0	656.5	1.48779	5.08211e-05	1.48774
3	0	660.5	1.48787	5.00038e-05	1.48782
3	0	664.5	1.48797	5.15009e-05	1.48792
3	0	668.5	1.48805	4.62379e-05	1.488
3	0	672.5	1.48814	4.68796e-05	1.48809
3	0	676.5	1.48821	4.9385e-05	1.48816
3	0	680.5	1.48829	5.23565e-05	1.48824
3	0	684.5	1.48837	5.04392e-05	1.48832
3	0	688.5	1.48843	5.36398e-05	1.48838
3	0	692.5	1.48851	5.44647e-05	1.48845
3	0	696.5	1.48856	5.44876e-05	1.4885
3	0	700.5	1.48863	4.99503e-05	1.48858
3	0	704.5	1.48873	5.06378e-05	1.48868
3	0	708.5	1.4888	4.68567e-05	1.48875
3	0	712.5	1.48884	4.89038e-05	1.48879
3	0	716.5	1.48889	5.00572e-05	1.48884
3	0	720.5	1.48895	5.03857e-05	1.4889
3	0	724.5	1.48906	5.07982e-05	1.48901
3	0	728.5	1.48914	4.72691e-05	1.48909
3	0	732.5	1.48916	5.53584e-05	1.4891
3	0	736.5	1.48921	5.11037e-05	1.48916
3	0	740.5	1.48936	5.29217e-05	1.48931
3	0	744.5	1.48945	5.27919e-05	1.4894
3	0	748.5	1.4895	5.09739e-05	1.48945
3	0	752.5	1.48951	5.17377e-05	1.48945
3	0	756.5	1.48958	4.55352e-05	1.48954
3	0	760.5	1.4897	4.95225e-05	1.48965
3	0	764.5	1.48975	5.15773e-05	1.48969
3	0	768.5	1.48981	5.52439e-05	1.48976
3	0	772.5	1.4899	5.92159e-05	1.48984
3	0	776.5	1.48997	5.05919e-05	1.48992
3	0	780.5	1.49005	5.5198e-05	1.48999
3	0	784.5	1.49013	5.53814e-05	1.49007
3	0	788.5	1.4902	5.28835e-05	1.49014
3	0	792.5	1.4903	5.23335e-05	1.49025
3	0	796.5	1.49038	5.74285e-05	1.49032
3	0	800.5	1.49043	5.51675e-05	1.49037
3	0	804.5	1.4905	5.84903e-05	1.49044
3	0	808.5	1.49058	5.6023e-05	1.49052
3	0	812.5	1.49067	5.58931e-05	1.49061
3	0	816.5	1.49073	5.59161e-05	1.49068
3	0	820.5	1.4908	5.12565e-05	1.49075
3	0	824.5	1.49087	5.40293e-05	1.49082
3	0	828.5	1.49095	4.95225e-05	1.4909
3	0	832.5	1.49102	4.69178e-05	1.49097
3	0	836.5	1.49108	5.06225e-05	1.49103
3	0	840.5	1.49115	4.89038e-05	1.4911
3	0	844.5	1.49122	5.27078e-05	1.49116
3	0	848.5	1.49128	5.28682e-05	1.49123
3	0	852.5	1.49134	5.3296e-05	1.49128
3	0	856.5	1.49139	5.4755e-05	1.49134
3	0	860.5	1.4915	5.54119e-05	1.49145
3	0	864.5	1.49153	5.53279e-05	1.49147
3	0	868.5	1.49157	5.48085e-05	1.49152
3	0	872.5	1.49163	6.00486e-05	1.49157
3	0	876.5	1.49178	5.6848e-05	1.49173
3	0	880.5	1.49176	5.11037e-05	1.49171
3	0	884.5	1.4918	5.1837e-05	1.49175
3	0	888.5	1.49202	5.01795e-05	1.49197
3	0	892.5	1.49197	5.47092e-05	1.49192
3	0	896.5	1.49202	5.54654e-05	1.49196
3	0	900.5	1.49207	5.27995e-05	1.49202
3	0	904.5	1.49212	5.42967e-05	1.49207
3	0	908.5	1.49219	5.16614e-05	1.49214
3	0	912.5	1.49226	4.31519e-05	1.49221
3	0	916.5	1.4923	4.68261e-05	1.49225
3	0	920.5	1.49235	4.759e-05	1.49231
3	0	924.5	1.49243	4.89191e-05	1.49238
3	0	928.5	1.49249	5.14857e-05	1.49244
3	0	932.5	1.49256	5.01718e-05	1.49251
3	0	936.5	1.49262	5.14933e-05	1.49257
3	0	940.5	1.49268	4.61692e-05	1.49263
3	0	944.5	1.49274	4.9217e-05	1.49269
3	0	948.5	1.4928	4.78191e-05	1.49275
3	0	952.5	1.49287	5.20433e-05	1.49282
3	0	956.5	1.49293	5.28453e-05	1.49288
3	0	960.5	1.493	5.26696e-05	1.49295
3	0	964.5	1.49306	5.4755e-05	1.49301
3	0	968.5	1.49313	5.15773e-05	1.49308
3	0	972.5	1.49319	5.60612e-05	1.49314
3	0	976.5	1.49327	5.47626e-05	1.49321
3	0	980.5	1.49335	5.22342e-05	1.49329
3	0	984.5	1.49344	5.23183e-05	1.49338
3	0	988.5	1.49353	5.3571e-05	1.49347
3	0	992.5	1.49358	5.27002e-05	1.49353
3	0	996.5	1.49365	5.47703e-05	1.4936
3	0	1000.5	1.49371	5.11419e-05	1.49366
3	0	1004.5	1.49378	5.10273e-05	1.49373
3	0	1008.5	1.49386	5.03399e-05	1.49381
3	0	1012.5	1.49393	5.03322e-05	1.49388
3	0	1016.5	1.49399	5.2471e-05	1.49394
3	0	1020.5	1.49406	4.68643e-05	1.49401
3	0	1024.5	1.49412	5.09433e-05	1.49407
3	0	1028.5	1.49417	4.79413e-05	1.49412
3	0	1032.5	1.49423	4.97746e-05	1.49418
3	0	1036.5	1.49429	4.79643e-05	1.49424
3	0	1040.5	1.49434	4.72691e-05	1.49429
3	0	1044.5	1.4944	5.06607e-05	1.49435
3	0	1048.5	1.49443	5.06149e-05	1.49438
3	0	1052.5	1.49447	5.3655e-05	1.49441
3	0	1056.5	1.49451	4.71087e-05	1.49446
3	0	1060.5	1.49455	5.15162e-05	1.4945
3	0	1064.5	1.49459	4.60164e-05	1.49454
3	0	1068.5	1.49462	5.48161e-05	1.49457
3	0	1072.5	1.49466	5.14857e-05	1.49461
3	0	1076.5	1.49469	5.22113e-05	1.49464
3	0	1080.5	1.49473	5.10426e-05	1.49468
3	0	1084.5	1.49477	5.2662e-05	1.49472
3	0	1088.5	1.49482	4.8033e-05	1.49477
3	0	1092.5	1.49486	5.12641e-05	1.49481
3	0	1096.5	1.4949	4.98739e-05	1.49485
3	0	1100.5	1.49495	4.49241e-05	1.49491
3	0	1104.5	1.49501	4.63907e-05	1.49496
3	0	1108.5	1.49505	5.07982e-05	1.495
3	0	1112.5	1.4951	5.03628e-05	1.49505
3	0	1116.5	1.49516	5.13329e-05	1.49511
3	0	1120.5	1.49522	4.43054e-05	1.49517
3	0	1124.5	1.49527	4.80941e-05	1.49523
3	0	1128.5	1.49533	5.12641e-05	1.49528
3	0	1132.5	1.4954	4.70858e-05	1.49535
3	0	1136.5	1.49546	4.76358e-05	1.49541
3	0	1140.5	1.49553	5.40675e-05	1.49547
3	0	1144.5	1.49559	5.51293e-05	1.49553
3	0	1148.5	1.49564	5.4946e-05	1.49559
3	0	1152.5	1.4957	5.33113e-05	1.49565
3	0	1156.5	1.49574	5.38078e-05	1.49569
3	0	1160.5	1.4958	5.12183e-05	1.49575
3	0	1164.5	1.49585	5.06683e-05	1.49579
3	0	1168.5	1.49593	5.4312e-05	1.49588
3	0	1172.5	1.49593	5.43654e-05	1.49588
3	0	1176.5	1.49595	5.35557e-05	1.4959
3	0	1180.5	1.49598	5.30592e-05	1.49592
3	0	1184.5	1.49601	5.10884e-05	1.49596
3	0	1188.5	1.49604	5.28988e-05	1.49599
3	0	1192.5	1.49607	5.37543e-05	1.49601
3	0	1196.5	1.4961	5.52821e-05	1.49604
3	0	1200.5	1.49613	5.39606e-05	1.49608
3	0	1204.5	1.49617	5.54043e-05	1.49611
3	0	1208.5	1.49627	5.51446e-05	1.49622
3	0	1212.5	1.49623	5.6489e-05	1.49618
3	0	1216.5	1.49632	5.50071e-05	1.49627
3	0	1220.5	1.4963	5.49689e-05	1.49625
3	0	1224.5	1.49632	5.53661e-05	1.49626
3	0	1228.5	1.49634	5.37925e-05	1.49629
3	0	1232.5	1.49636	5.93534e-05	1.4963
3	0	1236.5	1.49643	5.93916e-05	1.49637
3	0	1240.5	1.49645	5.3571e-05	1.4964
3	0	1244.5	1.49647	5.38689e-05	1.49641
3	0	1248.5	1.4965	5.30745e-05	1.49644
3	0	1252.5	1.49653	5.23641e-05	1.49648
3	0	1256.5	1.49659	5.17836e-05	1.49654
3	0	1260.5	1.49674	5.18218e-05	1.49669
3	0	1264.5	1.4967	4.97746e-05	1.49665
3	0	1268.5	1.4967	5.44036e-05	1.49665
3	0	1272.5	1.49672	4.73761e-05	1.49667
3	0	1276.5	1.49675	4.92094e-05	1.4967
3	0	1280.5	1.49678	5.15239e-05	1.49673
3	0	1284.5	1.49679	5.04697e-05	1.49674
3	0	1288.5	1.49688	5.1944e-05	1.49683
3	0	1292.5	1.49686	4.89344e-05	1.49681
3	0	1296.5	1.49688	4.94996e-05	1.49683
3	0	1300.5	1.49691	5.24634e-05	1.49686
3	0	1304.5	1.49695	4.7567e-05	1.4969
3	0	1308.5	1.49701	4.87739e-05	1.49696
3	0	1312.5	1.49702	4.65969e-05	1.49698
3	0	1316.5	1.49716	4.88427e-05	1.49712
3	0	1320.5	1.49721	4.73914e-05	1.49716
3	0	1324.5	1.49713	5.12336e-05	1.49708
3	0	1328.5	1.49715	5.13711e-05	1.49709
3	0	1332.5	1.49716	4.98968e-05	1.49711
3	0	1336.5	1.49718	4.94614e-05	1.49713
3	0	1340.5	1.49721	5.26926e-05	1.49715
3	0	1344.5	1.49723	4.69178e-05	1.49719
3	0	1348.5	1.49726	5.0485e-05	1.49721
3	0	1352.5	1.49733	5.02024e-05	1.49728
3	0	1356.5	1.49735	4.94385e-05	1.4973
3	0	1360.5	1.49737	5.0317e-05	1.49732
3	0	1364.5	1.4974	5.26467e-05	1.49735
3	0	1368.5	1.49741	4.96982e-05	1.49736
3	0	1372.5	1.49746	4.88733e-05	1.49741
3	0	1376.5	1.49752	4.94156e-05	1.49747
3	0	1380.5	1.49752	4.61768e-05	1.49747
3	0	1384.5	1.4976	4.59171e-05	1.49755
3	0	1388.5	1.49761	4.45116e-05	1.49756
3	0	1392.5	1.49765	5.02635e-05	1.4976
3	0	1396.5	1.49767	4.97899e-05	1.49762
3	0	1400.5	1.49775	4.77809e-05	1.4977
3	0	1404.5	1.49774	4.90948e-05	1.49769
3	0	1408.5	1.49775	4.58636e-05	1.4977
3	0	1412.5	1.49778	4.67726e-05	1.49773
3	0	1416.5	1.49783	4.97441e-05	1.49778
3	0	1420.5	1.4979	4.76282e-05	1.49785
3	0	1424.5	1.49794	4.6681e-05	1.49789
3	0	1428.5	1.49795	5.1035e-05	1.4979
3	0	1432.5	1.49798	4.9408e-05	1.49794
3	0	1436.5	1.49803	4.58789e-05	1.49798
3	0	1440.5	1.49808	5.26085e-05	1.49803
3	0	1444.5	1.49812	4.99427e-05	1.49807
3	0	1448.5	1.49825	5.45411e-05	1.4982
3	0	1452.5	1.49824	5.1562e-05	1.49819
3	0	1456.5	1.49835	5.08287e-05	1.4983
3	0	1460.5	1.49852	5.45258e-05	1.49847
3	0	1464.5	1.49862	5.33495e-05	1.49857
3	0	1468.5	1.49862	5.10273e-05	1.49857
3	0	1472.5	1.49855	5.28682e-05	1.49849
3	0	1476.5	1.49859	5.1119e-05	1.49854
3	0	1480.5	1.49867	5.1753e-05	1.49861
3	0	1484.5	1.4988	5.63897e-05	1.49875
3	0	1488.5	1.49878	6.08812e-05	1.49872
3	0	1492.5	1.49879	6.02242e-05	1.49873
3	0	1496.5	1.49882	5.77264e-05	1.49876
3	0	1500.5	1.49883	5.96743e-05	1.49877
3	0	1504.5	1.49894	5.31356e-05	1.49889
3	0	1508.5	1.49892	5.17301e-05	1.49886
3	0	1512.5	1.4989	5.31203e-05	1.49885
3	0	1516.5	1.49891	5.66723e-05	1.49885
3	0	1520.5	1.49893	5.69778e-05	1.49887
3	0	1524.5	1.49895	5.07829e-05	1.4989
3	0	1528.5	1.49897	5.00954e-05	1.49892
3	0	1532.5	1.499	4.70705e-05	1.49895
3	0	1536.5	1.49901	5.34946e-05	1.49896
3	0	1540.5	1.49901	5.16308e-05	1.49896
3	0	1544.5	1.49905	5.25474e-05	1.499
3	0	1548.5	1.49907	5.5557e-05	1.49901
3	0	1552.5	1.49908	5.49078e-05	1.49903
3	0	1556.5	1.4991	5.076e-05	1.49905
3	0	1560.5	1.49911	5.46481e-05	1.49905
3	0	1564.5	1.49913	4.9026e-05	1.49908
3	0	1568.5	1.49914	4.85372e-05	1.49909
3	0	1572.5	1.49916	5.02558e-05	1.49911
3	0	1576.5	1.49917	5.3655e-05	1.49912
3	0	1580.5	1.49918	4.85448e-05	1.49913
3	0	1584.5	1.4992	5.01565e-05	1.49915
3	0	1588.5	1.49921	4.85142e-05	1.49917
3	0	1592.5	1.49922	4.77198e-05	1.49917
3	0	1596.5	1.49923	4.99197e-05	1.49918
3	0	1600.5	1.49924	4.90184e-05	1.49919
3	0	1604.5	1.49925	4.81781e-05	1.4992
3	0	1608.5	1.49924	5.45487e-05	1.49918
3	0	1612.5	1.49924	5.31967e-05	1.49919
3	0	1616.5	1.49923	4.80101e-05	1.49919
3	0	1620.5	1.49923	5.12871e-05	1.49918
3	0	1624.5	1.49923	4.65053e-05	1.49918
3	0	1628.5	1.49922	4.89344e-05	1.49918
3	0	1632.5	1.49922	5.1203e-05	1.49917
3	0	1636.5	1.49922	4.94614e-05	1.49917
3	0	1640.5	1.49922	4.50692e-05	1.49918
3	0	1644.5	1.49923	4.61233e-05	1.49918
3	0	1648.5	1.49924	4.61997e-05	1.49919
3	0	1652.5	1.49923	4.83691e-05	1.49918
3	0	1656.5	1.49923	4.966e-05	1.49918
3	0	1660.5	1.49921	4.97211e-05	1.49916
3	0	1664.5	1.4992	4.83691e-05	1.49915
3	0	1668.5	1.49917	4.79719e-05	1.49912
3	0	1672.5	1.49914	4.48019e-05	1.49909
3	0	1676.5	1.4991	5.16537e-05	1.49905
3	0	1680.5	1.49908	5.26696e-05	1.49902
3	0	1684.5	1.49906	5.01642e-05	1.49901
3	0	1688.5	1.49904	5.36092e-05	1.49898
3	0	1692.5	1.49902	5.1119e-05	1.49897
3	0	1696.5	1.49901	5.06301e-05	1.49895
3	0	1700.5	1.499	5.30287e-05	1.49895
3	0	1704.5	1.499	5.15697e-05	1.49894
3	0	1708.5	1.49899	4.82087e-05	1.49894
3	0	1712.5	1.49898	4.87816e-05	1.49894
3	0	1716.5	1.49897	4.7483e-05	1.49893
3	0	1720.5	1.49896	5.01031e-05	1.49891
3	0	1724.5	1.49894	5.50758e-05	1.49889
3	0	1728.5	1.49893	5.19974e-05	1.49888
3	0	1732.5	1.49893	5.77188e-05	1.49887
3	0	1736.5	1.49892	5.77875e-05	1.49886
3	0	1740.5	1.49893	5.41668e-05	1.49887
3	0	1744.5	1.49894	5.32273e-05	1.49888
3	0	1748.5	1.49894	5.2387e-05	1.49889
3	0	1752.5	1.49896	5.04774e-05	1.49891
3	0	1756.5	1.49897	4.90948e-05	1.49893
3	0	1760.5	1.49899	5.33877e-05	1.49894
3	0	1764.5	1.49902	5.12183e-05	1.49897
3	0	1768.5	1.49904	5.34641e-05	1.49899
3	0	1772.5	1.49906	5.19822e-05	1.49901
3	0	1776.5	1.49909	4.96906e-05	1.49904
3	0	1780.5	1.49912	5.27613e-05	1.49907
3	0	1784.5	1.49914	5.06683e-05	1.49909
3	0	1788.5	1.49915	5.07218e-05	1.4991
3	0	1792.5	1.49917	5.0317e-05	1.49912
3	0	1796.5	1.49918	5.22266e-05	1.49912
3	0	1800.5	1.49919	5.25856e-05	1.49914
3	0	1804.5	1.4992	5.17301e-05	1.49915
3	0	1808.5	1.4992	4.82087e-05	1.49915
3	0	1812.5	1.4992	5.2853e-05	1.49915
3	0	1816.5	1.49921	5.38995e-05	1.49916
3	0	1820.5	1.49921	5.62522e-05	1.49915
3	0	1824.5	1.4992	5.48161e-05	1.49915
3	0	1828.5	1.4992	5.90861e-05	1.49914
3	0	1832.5	1.4992	5.37391e-05	1.49914
3	0	1836.5	1.4992	5.09051e-05	1.49915
3	0	1840.5	1.49919	5.10426e-05	1.49914
3	0	1844.5	1.4992	4.78344e-05	1.49915
3	0	1848.5	1.4992	4.85448e-05	1.49916
3	0	1852.5	1.4992	4.77045e-05	1.49916
3	0	1856.5	1.49921	4.61081e-05	1.49916
3	0	1860.5	1.49921	4.79566e-05	1.49916
3	0	1864.5	1.49923	5.00878e-05	1.49918
3	0	1868.5	1.49924	4.89267e-05	1.49919
3	0	1872.5	1.49926	4.3679e-05	1.49921
3	0	1876.5	1.49927	4.69101e-05	1.49923
3	0	1880.5	1.49928	5.08822e-05	1.49923
3	0	1884.5	1.4993	4.80559e-05	1.49925
3	0	1888.5	1.49931	4.95607e-05	1.49926
3	0	1892.5	1.49933	4.91177e-05	1.49928
3	0	1896.5	1.49933	4.78497e-05	1.49929
3	0	1900.5	1.49934	5.14704e-05	1.49929
3	0	1904.5	1.49936	5.05996e-05	1.49931
3	0	1908.5	1.49938	5.58779e-05	1.49932
3	0	1912.5	1.4994	5.13405e-05	1.49934
3	0	1916.5	1.49942	4.77045e-05	1.49937
3	0	1920.5	1.49945	4.50616e-05	1.4994
3	0	1924.5	1.49947	4.87434e-05	1.49942
3	0	1928.5	1.4995	4.96524e-05	1.49945
3	0	1932.5	1.49953	5.021e-05	1.49948
3	0	1936.5	1.49956	4.92475e-05	1.49951
3	0	1940.5	1.49959	4.99961e-05	1.49954
3	0	1944.5	1.49963	4.66733e-05	1.49958
3	0	1948.5	1.49965	4.539e-05	1.49961
3	0	1952.5	1.49969	4.99197e-05	1.49964
3	0	1956.5	1.49973	4.68261e-05	1.49968
3	0	1960.5	1.49976	4.76282e-05	1.49971
3	0	1964.5	1.49979	4.72921e-05	1.49974
3	0	1968.5	1.49983	5.12794e-05	1.49978
3	0	1972.5	1.49986	5.16232e-05	1.49981
3	0	1976.5	1.4999	5.11266e-05	1.49985
3	0	1980.5	1.49993	5.40446e-05	1.49988
3	0	1984.5	1.49997	4.87892e-05	1.49992
3	0	1988.5	1.50001	5.25016e-05	1.49995
3	0	1992.5	1.50004	5.4014e-05	1.49999
3	0	1996.5	1.50008	5.12183e-05	1.50003
3	0	2000.5	1.50011	4.92017e-05	1.50006
3	0	2004.5	1.50014	5.0844e-05	1.50009
3	0	2008.5	1.50017	5.10503e-05	1.50012
3	0	2012.5	1.5002	4.71698e-05	1.50015
3	0	2016.5	1.50023	4.88351e-05	1.50018
3	0	2020.5	1.50026	5.37238e-05	1.5002
3	0	2024.5	1.50029	4.91406e-05	1.50024
3	0	2028.5	1.50032	5.28071e-05	1.50026
3	0	2032.5	1.50035	5.04239e-05	1.5003
3	0	2036.5	1.50038	5.1394e-05	1.50033
3	0	2040.5	1.50042	5.07753e-05	1.50037
3	0	2044.5	1.50046	4.72615e-05	1.50041
3	0	2048.5	1.50049	4.86517e-05	1.50044
3	0	2052.5	1.50053	4.85601e-05	1.50048
3	0	2056.5	1.50056	5.25169e-05	1.50051
3	0	2060.5	1.5006	4.70782e-05	1.50055
3	0	2064.5	1.50063	4.95378e-05	1.50058
3	0	2068.5	1.50066	4.89267e-05	1.50061
3	0	2072.5	1.50069	5.24176e-05	1.50064
3	0	2076.5	1.50073	5.06225e-05	1.50068
3	0	2080.5	1.50075	5.32655e-05	1.5007
3	0	2084.5	1.50078	5.71306e-05	1.50072
3	0	2088.5	1.5008	5.25933e-05	1.50075
3	0	2092.5	1.50083	4.99579e-05	1.50078
3	0	2096.5	1.50086	4.88962e-05	1.50081
3	0	2100.5	1.50088	4.9576e-05	1.50083
3	0	2104.5	1.50091	5.02711e-05	1.50086
3	0	2108.5	1.50094	5.10961e-05	1.50089
3	0	2112.5	1.50096	5.1394e-05	1.50091
3	0	2116.5	1.50099	5.21961e-05	1.50094
3	0	2120.5	1.50101	5.0317e-05	1.50096
3	0	2124.5	1.50103	5.22724e-05	1.50098
3	0	2128.5	1.50106	5.02406e-05	1.50101
3	0	2132.5	1.50107	5.10044e-05	1.50102
3	0	2136.5	1.50108	5.29064e-05	1.50103
3	0	2140.5	1.5011	4.96142e-05	1.50105
3	0	2144.5	1.50111	5.07142e-05	1.50106
3	0	2148.5	1.50112	5.1562e-05	1.50107
3	0	2152.5	1.50114	5.18676e-05	1.50109
3	0	2156.5	1.50115	5.01489e-05	1.5011
3	0	2160.5	1.50116	5.00496e-05	1.50111
3	0	2164.5	1.50116	5.44342e-05	1.5011
3	0	2168.5	1.50117	5.14169e-05	1.50112
3	0	2172.5	1.50117	5.02329e-05	1.50112
3	0	2176.5	1.50118	5.05614e-05	1.50113
3	0	2180.5	1.50119	5.83833e-05	1.50113
3	0	2184.5	1.5012	5.27155e-05	1.50114
3	0	2188.5	1.50121	5.19211e-05	1.50116
3	0	2192.5	1.50122	5.4312e-05	1.50117
3	0	2196.5	1.50123	5.12336e-05	1.50118
3	0	2200.5	1.50125	5.63515e-05	1.50119
3	0	2204.5	1.50126	5.89333e-05	1.5012
3	0	2208.5	1.50128	5.83528e-05	1.50122
3	0	2212.5	1.50129	5.47474e-05	1.50124
3	0	2216.5	1.50132	5.90785e-05	1.50126
3	0	2220.5	1.50134	5.83757e-05	1.50128
3	0	2224.5	1.50136	5.73674e-05	1.5013
3	0	2228.5	1.50138	5.39835e-05	1.50132
3	0	2232.5	1.5014	5.32578e-05	1.50135
3	0	2236.5	1.50142	5.39682e-05	1.50136
3	0	2240.5	1.50144	5.2471e-05	1.50139
3	0	2244.5	1.50146	5.53508e-05	1.50141
3	0	2248.5	1.50149	5.39988e-05	1.50143
3	0	2252.5	1.5015	5.29752e-05	1.50145
3	0	2256.5	1.50152	5.2853e-05	1.50147
3	0	2260.5	1.50154	5.20356e-05	1.50149
3	0	2264.5	1.50156	5.12947e-05	1.50151
3	0	2268.5	1.50159	5.1837e-05	1.50153
3	0	2272.5	1.5016	5.49689e-05	1.50155
3	0	2276.5	1.50163	5.11496e-05	1.50158
3	0	2280.5	1.50166	5.39377e-05	1.50161
3	0	2284.5	1.50169	5.18829e-05	1.50164
3	0	2288.5	1.50172	5.56563e-05	1.50166
3	0	2292.5	1.50175	5.38918e-05	1.5017
3	0	2296.5	1.50178	5.80472e-05	1.50172
3	0	2300.5	1.50182	5.86507e-05	1.50176
3	0	2304.5	1.50185	5.61529e-05	1.5018
3	0	2308.5	1.50189	5.82458e-05	1.50183
3	0	2312.5	1.50193	5.80396e-05	1.50187
3	0	2316.5	1.50197	5.90097e-05	1.50191
3	0	2320.5	1.50201	5.84903e-05	1.50195
3	0	2324.5	1.50204	5.59313e-05	1.50198
3	0	2328.5	1.50207	5.53355e-05	1.50202
3	0	2332.5	1.5021	5.74591e-05	1.50205
3	0	2336.5	1.50213	5.66035e-05	1.50207
3	0	2340.5	1.50217	5.55494e-05	1.50211
3	0	2344.5	1.50219	5.30516e-05	1.50214
3	0	2348.5	1.50222	5.59619e-05	1.50216
3	0	2352.5	1.50224	5.44571e-05	1.50219
3	0	2356.5	1.50227	5.43883e-05	1.50222
3	0	2360.5	1.5023	5.30745e-05	1.50224
3	0	2364.5	1.50233	5.17301e-05	1.50227
3	0	2368.5	1.50235	5.5748e-05	1.50229
3	0	2372.5	1.50238	5.21273e-05	1.50233
3	0	2376.5	1.5024	5.41286e-05	1.50235
3	0	2380.5	1.50243	5.00267e-05	1.50238
3	0	2384.5	1.50245	5.35175e-05	1.5024
3	0	2388.5	1.50248	5.42661e-05	1.50242
3	0	2392.5	1.50251	4.98968e-05	1.50246
3	0	2396.5	1.50253	5.37467e-05	1.50248
3	0	2400.5	1.50255	5.12259e-05	1.5025
3	0	2404.5	1.50258	5.56945e-05	1.50252
3	0	2408.5	1.5026	5.5939e-05	1.50254
3	0	2412.5	1.50262	5.77417e-05	1.50257
3	0	2416.5	1.50264	5.52286e-05	1.50259
3	0	2420.5	1.50266	5.65348e-05	1.5026
3	0	2424.5	1.50268	5.21044e-05	1.50263
3	0	2428.5	1.50269	5.83146e-05	1.50264
3	0	2432.5	1.50272	5.4946e-05	1.50266
3	0	2436.5	1.50273	5.48772e-05	1.50268
3	0	2440.5	1.50275	5.88264e-05	1.50269
3	0	2444.5	1.50277	5.503e-05	1.50271
3	0	2448.5	1.50278	5.64431e-05	1.50272
3	0	2452.5	1.5028	5.62292e-05	1.50274
3	0	2456.5	1.5028	5.95291e-05	1.50274
3	0	2460.5	1.50281	5.80702e-05	1.50275
3	0	2464.5	1.50282	5.68327e-05	1.50276
3	0	2468.5	1.50282	5.6023e-05	1.50277
3	0	2472.5	1.50283	5.91548e-05	1.50277
3	0	2476.5	1.50284	5.48925e-05	1.50278
3	0	2480.5	1.50284	5.46633e-05	1.50279
3	0	2484.5	1.50285	5.31127e-05	1.5028
3	0	2488.5	1.50286	5.78563e-05	1.5028
3	0	2492.5	1.50287	5.81847e-05	1.50281
3	0	2496.5	1.50288	5.95673e-05	1.50282
3	0	2500.5	1.5029	5.57098e-05	1.50284
3	0	2504.5	1.50292	5.77188e-05	1.50286
3	0	2508.5	1.50294	5.70771e-05	1.50289
3	0	2512.5	1.50297	5.8559e-05	1.50291
3	0	2516.5	1.503	5.69778e-05	1.50294
3	0	2520.5	1.50303	5.75736e-05	1.50297
3	0	2524.5	1.50306	5.61376e-05	1.503
3	0	2528.5	1.50308	5.49689e-05	1.50303
3	0	2532.5	1.50311	5.69778e-05	1.50305
3	0	2536.5	1.50313	5.69702e-05	1.50307
3	0	2540.5	1.50315	5.65195e-05	1.50309
3	0	2544.5	1.50316	5.81542e-05	1.5031
3	0	2548.5	1.50318	5.86965e-05	1.50312
3	0	2552.5	1.50319	5.83146e-05	1.50313
3	0	2556.5	1.50321	5.31738e-05	1.50315
3	0	2560.5	1.50322	5.63591e-05	1.50316
3	0	2564.5	1.50323	5.28224e-05	1.50318
3	0	2568.5	1.50326	5.65272e-05	1.5032
3	0	2572.5	1.50327	5.22648e-05	1.50322
3	0	2576.5	1.50329	5.448e-05	1.50324
3	0	2580.5	1.5033	5.27689e-05	1.50325
3	0	2584.5	1.50332	5.60077e-05	1.50326
3	0	2588.5	1.50333	5.81618e-05	1.50327
3	0	2592.5	1.50334	5.32196e-05	1.50329
3	0	2596.5	1.50336	5.19974e-05	1.50331
3	0	2600.5	1.50339	5.1119e-05	1.50334
3	0	2604.5	1.50342	4.82545e-05	1.50338
3	0	2608.5	1.50346	5.26162e-05	1.50341
3	0	2612.5	1.50349	5.06072e-05	1.50344
3	0	2616.5	1.50352	5.06149e-05	1.50347
3	0	2620.5	1.50356	5.04697e-05	1.50351
3	0	2624.5	1.50361	5.36856e-05	1.50356
3	0	2628.5	1.50365	5.55647e-05	1.5036
3	0	2632.5	1.50369	5.74973e-05	1.50363
3	0	2636.5	1.50375	5.65806e-05	1.5037
3	0	2640.5	1.50381	5.39682e-05	1.50376
3	0	2644.5	1.50384	5.15773e-05	1.50379
3	0	2648.5	1.50389	5.3296e-05	1.50383
3	0	2652.5	1.5039	5.28606e-05	1.50385
3	0	2656.5	1.50391	5.5198e-05	1.50385
3	0	2660.5	1.50389	5.7925e-05	1.50383
3	0	2664.5	1.50391	5.52591e-05	1.50385
3	0	2668.5	1.50395	5.5832e-05	1.50389
3	0	2672.5	1.50397	5.68403e-05	1.50391
3	0	2676.5	1.504	5.89868e-05	1.50394
3	0	2680.5	1.50402	5.78486e-05	1.50396
3	0	2684.5	1.50403	6.01555e-05	1.50397
3	0	2688.5	1.50404	5.65959e-05	1.50398
3	0	2692.5	1.50404	6.02777e-05	1.50398
3	0	2696.5	1.50405	5.94069e-05	1.50399
3	0	2700.5	1.50406	5.73827e-05	1.504
3	0	2704.5	1.50405	5.62827e-05	1.50399
3	0	2708.5	1.50401	5.94145e-05	1.50395
3	0	2712.5	1.50398	6.1202e-05	1.50391
3	0	2716.5	1.5039	6.18054e-05	1.50384
3	0	2720.5	1.50383	5.87729e-05	1.50377
3	0	2724.5	1.50376	5.27842e-05	1.50371
3	0	2728.5	1.50367	5.19745e-05	1.50362
3	0	2732.5	1.50358	5.42203e-05	1.50353
3	0	2736.5	1.5035	5.2112e-05	1.50345
3	0	2740.5	1.50341	5.25322e-05	1.50336
3	0	2744.5	1.5033	5.13252e-05	1.50325
3	0	2748.5	1.5032	5.35557e-05	1.50315
3	0	2752.5	1.50309	5.61987e-05	1.50303
3	0	2756.5	1.50298	5.16843e-05	1.50293
3	0	2760.5	1.50288	5.34488e-05	1.50283
3	0	2764.5	1.50278	5.38995e-05	1.50273
3	0	2768.5	1.5027	5.19822e-05	1.50264
3	0	2772.5	1.5026	5.05232e-05	1.50255
3	0	2776.5	1.50249	4.87358e-05	1.50244
3	0	2780.5	1.50236	4.95989e-05	1.50232
3	0	2784.5	1.50221	4.85448e-05	1.50216
3	0	2788.5	1.50203	5.13711e-05	1.50197
3	0	2792.5	1.50188	5.41897e-05	1.50183
3	0	2796.5	1.50175	5.46022e-05	1.5017
3	0	2800.5	1.50163	4.90566e-05	1.50158
3	0	2804.5	1.50152	5.50529e-05	1.50147
3	0	2808.5	1.50143	5.23488e-05	1.50138
3	0	2812.5	1.50132	5.18676e-05	1.50127
3	0	2816.5	1.50123	5.50453e-05	1.50118
3	0	2820.5	1.50113	5.13482e-05	1.50108
3	0	2824.5	1.50102	5.00878e-05	1.50097
3	0	2828.5	1.5009	4.95378e-05	1.50085
3	0	2832.5	1.50082	4.97135e-05	1.50077
3	0	2836.5	1.50071	5.38384e-05	1.50066
3	0	2840.5	1.50062	5.0844e-05	1.50057
3	0	2844.5	1.50053	5.0676e-05	1.50048
3	0	2848.5	1.50044	5.04926e-05	1.50039
3	0	2852.5	1.50036	5.71764e-05	1.5003
3	0	2856.5	1.50028	5.48772e-05	1.50022
3	0	2860.5	1.5002	5.62445e-05	1.50014
3	0	2864.5	1.50014	5.58244e-05	1.50008
3	0	2868.5	1.50008	5.71535e-05	1.50002
3	0	2872.5	1.50002	5.44036e-05	1.49997
3	0	2876.5	1.49996	5.65577e-05	1.4999
3	0	2880.5	1.49991	5.186e-05	1.49986
3	0	2884.5	1.49986	5.29523e-05	1.49981
3	0	2888.5	1.49981	5.34106e-05	1.49975
3	0	2892.5	1.49976	5.98729e-05	1.4997
3	0	2896.5	1.49962	5.7207e-05	1.49957
3	0	2900.5	1.49945	5.80014e-05	1.49939
3	0	2904.5	1.49931	6.1118e-05	1.49925
3	0	2908.5	1.49916	6.10492e-05	1.4991
3	0	2912.5	1.49902	6.74809e-05	1.49896
3	0	2916.5	1.49887	6.33332e-05	1.49881
3	0	2920.5	1.4987	6.05985e-05	1.49864
3	0	2924.5	1.49852	5.83375e-05	1.49846
3	0	2928.5	1.4983	5.92389e-05	1.49825
3	0	2932.5	1.49807	5.79327e-05	1.49801
3	0	2936.5	1.49783	5.90326e-05	1.49777
3	0	2940.5	1.49759	5.74132e-05	1.49753
3	0	2944.5	1.49733	5.91778e-05	1.49727
3	0	2948.5	1.49707	6.28137e-05	1.49701
3	0	2952.5	1.49684	5.88035e-05	1.49678
3	0	2956.5	1.49659	5.54119e-05	1.49654
3	0	2960.5	1.49635	5.89486e-05	1.49629
3	0	2964.5	1.49611	5.78792e-05	1.49605
3	0	2968.5	1.49588	5.57786e-05	1.49583
3	0	2972.5	1.49566	5.49689e-05	1.4956
3	0	2976.5	1.49544	5.47092e-05	1.49539
3	0	2980.5	1.49523	5.59161e-05	1.49518
3	0	2984.5	1.49502	5.47703e-05	1.49497
3	0	2988.5	1.49482	5.67716e-05	1.49476
3	0	2992.5	1.49463	5.73903e-05	1.49457
3	0	2996.5	1.49445	6.14693e-05	1.49439
3	0	3000.5	1.49424	5.82382e-05	1.49418
3	0	3004.5	1.49403	5.54883e-05	1.49397
3	0	3008.5	1.49382	5.28148e-05	1.49377
3	0	3012.5	1.49361	5.18218e-05	1.49356
3	0	3016.5	1.4934	5.37543e-05	1.49334
3	0	3020.5	1.4932	5.30057e-05	1.49315
3	0	3024.5	1.493	5.5473e-05	1.49295
3	0	3028.5	1.49282	5.12336e-05	1.49276
3	0	3032.5	1.49263	5.88722e-05	1.49257
3	0	3036.5	1.49244	5.42508e-05	1.49239
3	0	3040.5	1.49226	5.23183e-05	1.49221
3	0	3044.5	1.49206	5.48925e-05	1.492
3	0	3048.5	1.49187	5.31203e-05	1.49181
3	0	3052.5	1.4917	5.15162e-05	1.49165
3	0	3056.5	1.49159	5.79861e-05	1.49153
3	0	3060.5	1.49149	5.92618e-05	1.49143
3	0	3064.5	1.4914	5.88035e-05	1.49134
3	0	3068.5	1.49132	5.78715e-05	1.49126
3	0	3072.5	1.49124	5.72605e-05	1.49118
3	0	3076.5	1.49116	5.7123e-05	1.4911
3	0	3080.5	1.49109	6.05222e-05	1.49103
3	0	3084.5	1.49101	5.69626e-05	1.49095
3	0	3088.5	1.49094	5.96666e-05	1.49088
3	0	3092.5	1.49088	5.65119e-05	1.49082
3	0	3096.5	1.49081	5.73216e-05	1.49075
3	0	3100.5	1.49073	5.58244e-05	1.49067
3	0	3104.5	1.49065	5.8116e-05	1.49059
3	0	3108.5	1.49057	5.52821e-05	1.49052
3	0	3112.5	1.4905	5.40217e-05	1.49045
3	0	3116.5	1.49043	5.65883e-05	1.49037
3	0	3120.5	1.49037	5.03933e-05	1.49032
3	0	3124.5	1.49031	5.66188e-05	1.49026
3	0	3128.5	1.49025	5.6573e-05	1.4902
3	0	3132.5	1.4902	5.3487e-05	1.49015
3	0	3136.5	1.49015	5.11419e-05	1.4901
3	0	3140.5	1.4901	5.54654e-05	1.49004
3	0	3144.5	1.49005	5.73827e-05	1.48999
3	0	3148.5	1.48998	5.28606e-05	1.48993
3	0	3152.5	1.48994	5.23412e-05	1.48988
3	0	3156.5	1.48989	5.2853e-05	1.48983
3	0	3160.5	1.48983	5.50453e-05	1.48978
3	0	3164.5	1.48979	5.66952e-05	1.48973
3	0	3168.5	1.48974	5.73521e-05	1.48968
3	0	3172.5	1.48969	5.52821e-05	1.48963
3	0	3176.5	1.48965	5.52057e-05	1.48959
3	0	3180.5	1.48961	5.96284e-05	1.48955
3	0	3184.5	1.48958	5.62827e-05	1.48952
3	0	3188.5	1.48955	5.78257e-05	1.48949
3	0	3192.5	1.48952	5.73598e-05	1.48946
3	0	3196.5	1.48948	5.65272e-05	1.48943
3	0	3200.5	1.48944	5.61911e-05	1.48938
3	0	3204.5	1.48936	5.27155e-05	1.48931
3	0	3208.5	1.48932	5.80167e-05	1.48927
3	0	3212.5	1.48929	5.0676e-05	1.48924
3	0	3216.5	1.48926	5.64049e-05	1.48921
3	0	3220.5	1.48923	5.70771e-05	1.48918
3	0	3224.5	1.4892	6.03847e-05	1.48914
3	0	3228.5	1.48918	5.77188e-05	1.48912
3	0	3232.5	1.48914	5.85361e-05	1.48909
3	0	3236.5	1.48913	5.47932e-05	1.48907
3	0	3240.5	1.4891	5.39988e-05	1.48905
3	0	3244.5	1.48909	5.5389e-05	1.48903
3	0	3248.5	1.48907	5.93534e-05	1.48901
3	0	3252.5	1.48904	5.66112e-05	1.48898
3	0	3256.5	1.48902	5.39606e-05	1.48897
3	0	3260.5	1.48901	5.4564e-05	1.48895
3	0	3264.5	1.48899	5.3212e-05	1.48894
3	0	3268.5	1.48898	5.45487e-05	1.48892
3	0	3272.5	1.48896	5.4839e-05	1.48891
3	0	3276.5	1.48893	5.5855e-05	1.48888
3	0	3280.5	1.48891	5.65272e-05	1.48885
3	0	3284.5	1.48888	5.75278e-05	1.48882
3	0	3288.5	1.48885	5.76577e-05	1.48879
3	0	3292.5	1.48882	5.36627e-05	1.48877
3	0	3296.5	1.48879	5.53814e-05	1.48873
3	0	3300.5	1.48875	5.31662e-05	1.4887
3	0	3304.5	1.48872	5.82458e-05	1.48866
3	0	3308.5	1.48869	5.60994e-05	1.48863
3	0	3312.5	1.48866	5.30134e-05	1.4886
3	0	3316.5	1.48863	5.61834e-05	1.48858
3	0	3320.5	1.48861	5.78945e-05	1.48855
3	0	3324.5	1.48858	5.62216e-05	1.48852
3	0	3328.5	1.48856	5.47626e-05	1.4885
3	0	3332.5	1.48852	5.96666e-05	1.48846
3	0	3336.5	1.48849	5.45029e-05	1.48844
3	0	3340.5	1.48846	5.5664e-05	1.4884
3	0	3344.5	1.48842	6.07055e-05	1.48836
3	0	3348.5	1.48839	5.18676e-05	1.48834
3	0	3352.5	1.48837	5.63209e-05	1.48832
3	0	3356.5	1.48835	5.51064e-05	1.48829
3	0	3360.5	1.48832	5.89104e-05	1.48826
3	0	3364.5	1.48827	5.51751e-05	1.48822
3	0	3368.5	1.48824	5.55112e-05	1.48819
3	0	3372.5	1.48822	5.61987e-05	1.48816
3	0	3376.5	1.48819	5.46786e-05	1.48814
3	0	3380.5	1.48816	5.49612e-05	1.48811
3	0	3384.5	1.48813	5.5389e-05	1.48808
3	0	3388.5	1.4881	5.55265e-05	1.48805
3	0	3392.5	1.48807	6.1118e-05	1.48801
3	0	3396.5	1.48804	6.24853e-05	1.48797
3	0	3400.5	1.48801	5.80014e-05	1.48795
3	0	3404.5	1.48797	5.81542e-05	1.48791
3	0	3408.5	1.48792	5.48848e-05	1.48787
3	0	3412.5	1.48788	5.69091e-05	1.48783
3	0	3416.5	1.48784	6.20881e-05	1.48777
3	0	3420.5	1.48779	6.29818e-05	1.48772
3	0	3424.5	1.48774	6.3547e-05	1.48768
3	0	3428.5	1.48769	5.78257e-05	1.48763
3	0	3432.5	1.48763	5.89486e-05	1.48757
3	0	3436.5	1.48757	5.84292e-05	1.48751
3	0	3440.5	1.48753	6.25082e-05	1.48747
3	0	3444.5	1.48746	6.05069e-05	1.4874
3	0	3448.5	1.48741	6.33408e-05	1.48735
3	0	3452.5	1.48737	6.39137e-05	1.48731
3	0	3456.5	1.48733	6.30582e-05	1.48727
3	0	3460.5	1.48729	5.91548e-05	1.48724
3	0	3464.5	1.48725	5.93611e-05	1.48719
3	0	3468.5	1.48721	6.13471e-05	1.48715
3	0	3472.5	1.48716	6.16909e-05	1.48709
3	0	3476.5	1.48711	5.78563e-05	1.48705
3	0	3480.5	1.48706	5.51369e-05	1.48701
3	0	3484.5	1.48702	6.03388e-05	1.48696
3	0	3488.5	1.48698	5.72452e-05	1.48692
3	0	3492.5	1.48693	6.1752e-05	1.48687
3	0	3496.5	1.48689	5.88035e-05	1.48684
3	0	3500.5	1.48685	6.41581e-05	1.48679
3	0	3504.5	1.48681	6.09576e-05	1.48675
3	0	3508.5	1.48677	6.10645e-05	1.48671
3	0	3512.5	1.48672	6.15763e-05	1.48666
3	0	3516.5	1.48667	5.73139e-05	1.48661
3	0	3520.5	1.48662	5.91014e-05	1.48656
3	0	3524.5	1.48657	5.60841e-05	1.48652
3	0	3528.5	1.48653	5.94451e-05	1.48647
3	0	3532.5	1.48649	5.92541e-05	1.48643
3	0	3536.5	1.48645	6.12325e-05	1.48638
3	0	3540.5	1.48641	5.99111e-05	1.48635
3	0	3544.5	1.48636	6.18513e-05	1.4863
3	0	3548.5	1.48633	6.03083e-05	1.48627
3	0	3552.5	1.4863	5.97965e-05	1.48624
3	0	3556.5	1.48626	5.89868e-05	1.4862
3	0	3560.5	1.48622	5.84826e-05	1.48616
3	0	3564.5	1.48619	5.97506e-05	1.48613
3	0	3568.5	1.48616	5.95291e-05	1.4861
3	0	3572.5	1.48612	5.91472e-05	1.48606
3	0	3576.5	1.48609	6.07666e-05	1.48602
3	0	3580.5	1.48605	5.74973e-05	1.48599
3	0	3584.5	1.48601	5.54807e-05	1.48596
3	0	3588.5	1.48598	5.65653e-05	1.48592
3	0	3592.5	1.48594	5.67487e-05	1.48588
3	0	3596.5	1.48591	5.86049e-05	1.48585
3	0	3600.5	1.48586	5.78563e-05	1.48581
3	0	3604.5	1.48583	5.67945e-05	1.48577
3	0	3608.5	1.48578	6.04305e-05	1.48572
3	0	3612.5	1.48569	6.1836e-05	1.48563
3	0	3616.5	1.4856	5.93611e-05	1.48554
3	0	3620.5	1.48551	6.14923e-05	1.48545
3	0	3624.5	1.48543	5.70389e-05	1.48537
3	0	3628.5	1.48536	6.29283e-05	1.48529
3	0	3632.5	1.48528	5.67181e-05	1.48522
3	0	3636.5	1.4852	5.73292e-05	1.48515
3	0	3640.5	1.48514	5.93382e-05	1.48508
3	0	3644.5	1.48507	5.71688e-05	1.48501
3	0	3648.5	1.485	5.75584e-05	1.48494
3	0	3652.5	1.48494	6.12478e-05	1.48488
3	0	3656.5	1.48489	5.79021e-05	1.48483
3	0	3660.5	1.48483	6.05603e-05	1.48477
3	0	3664.5	1.48476	5.71306e-05	1.48471
3	0	3668.5	1.4847	5.58397e-05	1.48465
3	0	3672.5	1.48467	5.23794e-05	1.48462
3	0	3676.5	1.48463	5.54195e-05	1.48458
3	0	3680.5	1.4846	5.2112e-05	1.48455
3	0	3684.5	1.48457	5.13023e-05	1.48452
3	0	3688.5	1.48454	5.61605e-05	1.48448
3	0	3692.5	1.48451	5.60841e-05	1.48445
3	0	3696.5	1.48447	5.26315e-05	1.48442
3	0	3700.5	1.48443	5.46786e-05	1.48438
3	0	3704.5	1.4844	5.24023e-05	1.48434
3	0	3708.5	1.48433	5.18829e-05	1.48428
3	0	3712.5	1.48427	5.20051e-05	1.48422
3	0	3716.5	1.48424	5.01183e-05	1.48419
3	0	3720.5	1.48421	5.27766e-05	1.48415
3	0	3724.5	1.48417	5.28224e-05	1.48412
3	0	3728.5	1.48414	5.88493e-05	1.48408
3	0	3732.5	1.48411	5.79327e-05	1.48405
3	0	3736.5	1.48408	5.54959e-05	1.48402
3	0	3740.5	1.48405	5.03551e-05	1.484
3	0	3744.5	1.48403	5.25933e-05	1.48398
3	0	3748.5	1.484	5.78486e-05	1.48394
3	0	3752.5	1.48397	5.69702e-05	1.48391
3	0	3756.5	1.48394	5.50758e-05	1.48389
3	0	3760.5	1.48391	5.92847e-05	1.48385
3	0	3764.5	1.48388	5.47168e-05	1.48383
3	0	3768.5	1.48386	5.92007e-05	1.4838
3	0	3772.5	1.48384	5.48619e-05	1.48378
3	0	3776.5	1.4838	5.67258e-05	1.48375
3	0	3780.5	1.48377	5.76882e-05	1.48371
3	0	3784.5	1.48374	5.56793e-05	1.48368
3	0	3788.5	1.4837	5.99722e-05	1.48364
3	0	3792.5	1.48367	5.56945e-05	1.48361
3	0	3796.5	1.48362	5.39224e-05	1.48356
3	0	3800.5	1.48357	5.74514e-05	1.48352
3	0	3804.5	1.48353	5.51598e-05	1.48347
3	0	3808.5	1.48348	5.62522e-05	1.48342
3	0	3812.5	1.48342	5.92847e-05	1.48336
3	0	3816.5	1.48338	5.70771e-05	1.48332
3	0	3820.5	1.48333	5.79632e-05	1.48327
3	0	3824.5	1.48328	5.59466e-05	1.48322
3	0	3828.5	1.48323	5.18294e-05	1.48318
3	0	3832.5	1.4832	4.85677e-05	1.48315
3	0	3836.5	1.48316	4.94691e-05	1.48311
3	0	3840.5	1.48313	5.02024e-05	1.48308
3	0	3844.5	1.4831	5.0569e-05	1.48305
3	0	3848.5	1.48306	5.29981e-05	1.48301
3	0	3852.5	1.48303	5.4037e-05	1.48297
3	0	3856.5	1.48298	5.29523e-05	1.48293
3	0	3860.5	1.48287	5.74361e-05	1.48281
3	0	3864.5	1.4827	5.31662e-05	1.48265
3	0	3868.5	1.48267	5.76577e-05	1.48261
3	0	3872.5	1.48264	5.36168e-05	1.48259
3	0	3876.5	1.48259	5.47321e-05	1.48254
3	0	3880.5	1.48254	5.32502e-05	1.48249
3	0	3884.5	1.48249	5.10732e-05	1.48244
3	0	3888.5	1.48244	5.21808e-05	1.48238
3	0	3892.5	1.48237	5.59161e-05	1.48231
3	0	3896.5	1.48231	5.17607e-05	1.48226
3	0	3900.5	1.48224	5.12565e-05	1.48219
3	0	3904.5	1.48218	5.63973e-05	1.48213
3	0	3908.5	1.48213	5.43883e-05	1.48208
3	0	3912.5	1.48208	5.53202e-05	1.48202
3	0	3916.5	1.48202	5.40981e-05	1.48197
3	0	3920.5	1.48197	5.28682e-05	1.48192
3	0	3924.5	1.48193	5.55189e-05	1.48188
3	0	3928.5	1.48188	5.31127e-05	1.48182
3	0	3932.5	1.48182	5.68632e-05	1.48176
3	0	3936.5	1.48176	5.69626e-05	1.4817
3	0	3940.5	1.4817	5.62751e-05	1.48165
3	0	3944.5	1.48166	6.0759e-05	1.4816
3	0	3948.5	1.48162	5.71688e-05	1.48156
3	0	3952.5	1.48157	5.8307e-05	1.48151
3	0	3956.5	1.48153	5.65348e-05	1.48147
3	0	3960.5	1.48147	5.96513e-05	1.48141
3	0	3964.5	1.48142	6.09805e-05	1.48136
3	0	3968.5	1.48136	5.97583e-05	1.4813
3	0	3972.5	1.48132	5.64966e-05	1.48126
3	0	3976.5	1.48126	5.96743e-05	1.4812
3	0	3980.5	1.48121	6.16527e-05	1.48115
3	0	3984.5	1.48034	5.74285e-05	1.48028
3	0	3988.5	1.48001	5.77493e-05	1.47996
3	0	3992.5	1.47985	5.74132e-05	1.47979
3	0	3996.5	1.47973	5.55112e-05	1.47967
3	0	4000.5	1.47962	5.61223e-05	1.47957
3	0	4004.5	1.47955	5.31891e-05	1.4795
3	0	4008.5	1.4795	5.43807e-05	1.47944
3	0	4012.5	1.47944	5.6382e-05	1.47939
3	0	4016.5	1.4794	5.99798e-05	1.47934
3	0	4020.5	1.47935	5.98958e-05	1.47929
3	0	4024.5	1.47932	5.86431e-05	1.47927
3	0	4028.5	1.47928	5.85438e-05	1.47922
3	0	4032.5	1.47924	5.76882e-05	1.47918
3	0	4036.5	1.4792	5.68403e-05	1.47914
3	0	4040.5	1.47915	5.92312e-05	1.47909
3	0	4044.5	1.47912	5.38918e-05	1.47906
3	0	4048.5	1.47907	5.73598e-05	1.47901
3	0	4052.5	1.47905	5.59161e-05	1.47899
3	0	4056.5	1.47902	5.4839e-05	1.47896
3	0	4060.5	1.479	6.16297e-05	1.47894
3	0	4064.5	1.47898	6.06138e-05	1.47892
3	0	4068.5	1.47896	5.97965e-05	1.4789
3	0	4072.5	1.47895	5.86812e-05	1.47889
3	0	4076.5	1.47893	6.35089e-05	1.47886
3	0	4080.5	1.47891	6.34172e-05	1.47885
3	0	4084.5	1.4789	6.09576e-05	1.47884
3	0	4088.5	1.47887	5.85208e-05	1.47881
3	0	4092.5	1.47884	5.77035e-05	1.47878
3	0	4096.5	1.47882	5.71382e-05	1.47876
3	0	4100.5	1.4788	5.76195e-05	1.47874
3	0	4104.5	1.47878	6.07895e-05	1.47872
3	0	4108.5	1.47876	5.97277e-05	1.4787
3	0	4112.5	1.47874	5.46786e-05	1.47869
3	0	4116.5	1.47872	5.13634e-05	1.47866
3	0	4120.5	1.47869	5.52591e-05	1.47864
3	0	4124.5	1.47867	5.78104e-05	1.47862
3	0	4128.5	1.47866	5.97736e-05	1.4786
3	0	4132.5	1.47864	6.4838e-05	1.47858
3	0	4136.5	1.47863	5.99798e-05	1.47857
3	0	4140.5	1.47862	5.71994e-05	1.47856
3	0	4144.5	1.47861	5.25551e-05	1.47855
3	0	4148.5	1.47859	5.57022e-05	1.47854
3	0	4152.5	1.47858	6.00256e-05	1.47852
3	0	4156.5	1.47856	5.27231e-05	1.47851
3	0	4160.5	1.47854	5.22572e-05	1.47849
3	0	4164.5	1.47852	5.54195e-05	1.47847
3	0	4168.5	1.4785	5.46786e-05	1.47844
3	0	4172.5	1.47847	5.5389e-05	1.47842
3	0	4176.5	1.47844	5.38002e-05	1.47839
3	0	4180.5	1.47842	5.94604e-05	1.47836
3	0	4184.5	1.47838	5.74591e-05	1.47832
3	0	4188.5	1.47835	5.87653e-05	1.47829
3	0	4192.5	1.47831	5.86354e-05	1.47825
3	0	4196.5	1.47827	5.81313e-05	1.47821
3	0	4200.5	1.47821	5.87042e-05	1.47816
3	0	4204.5	1.47815	5.41745e-05	1.4781
3	0	4208.5	1.47811	5.74896e-05	1.47805
3	0	4212.5	1.47806	5.77722e-05	1.478
3	0	4216.5	1.47801	5.88646e-05	1.47795
3	0	4220.5	1.47796	6.31193e-05	1.4779
3	0	4224.5	1.47792	5.68403e-05	1.47786
3	0	4228.5	1.47788	6.48303e-05	1.47781
3	0	4232.5	1.47784	6.12936e-05	1.47778
3	0	4236.5	1.47781	5.75278e-05	1.47775
3	0	4240.5	1.47778	5.73139e-05	1.47772
3	0	4244.5	1.47775	5.8559e-05	1.47769
3	0	4248.5	1.47772	5.99722e-05	1.47766
3	0	4252.5	1.47769	5.97965e-05	1.47763
3	0	4256.5	1.47766	5.80625e-05	1.4776
3	0	4260.5	1.47763	6.00944e-05	1.47757
3	0	4264.5	1.47762	5.87042e-05	1.47756
3	0	4268.5	1.47759	6.22561e-05	1.47753
3	0	4272.5	1.47758	5.8307e-05	1.47752
3	0	4276.5	1.47756	5.96437e-05	1.47751
3	0	4280.5	1.47755	5.74132e-05	1.47749
3	0	4284.5	1.47753	5.78792e-05	1.47747
3	0	4288.5	1.47751	6.05909e-05	1.47745
3	0	4292.5	1.47749	5.89639e-05	1.47743
3	0	4296.5	1.47747	5.50682e-05	1.47742
3	0	4300.5	1.47746	6.18131e-05	1.47739
3	0	4304.5	1.47744	5.91014e-05	1.47738
3	0	4308.5	1.47743	5.92923e-05	1.47737
3	0	4312.5	1.47742	5.60918e-05	1.47736
3	0	4316.5	1.4774	5.89104e-05	1.47734
3	0	4320.5	1.47739	5.71535e-05	1.47733
3	0	4324.5	1.47737	6.1729e-05	1.47731
3	0	4328.5	1.47735	6.35547e-05	1.47729
3	0	4332.5	1.47734	6.24394e-05	1.47727
3	0	4336.5	1.47732	6.22026e-05	1.47726
3	0	4340.5	1.4773	6.28367e-05	1.47724
3	0	4344.5	1.47728	6.1393e-05	1.47722
3	0	4348.5	1.47726	6.27144e-05	1.4772
3	0	4352.5	1.47725	5.875e-05	1.47719
3	0	4356.5	1.47723	6.30658e-05	1.47717
3	0	4360.5	1.47722	6.192e-05	1.47716
3	0	4364.5	1.47721	6.09652e-05	1.47715
3	0	4368.5	1.4772	5.87958e-05	1.47714
3	0	4372.5	1.47718	5.62369e-05	1.47713
3	0	4376.5	1.47717	5.42585e-05	1.47711
3	0	4380.5	1.47715	5.79709e-05	1.47709
3	0	4384.5	1.47713	5.56105e-05	1.47707
3	0	4388.5	1.47711	5.65119e-05	1.47705
3	0	4392.5	1.47709	5.87347e-05	1.47703
3	0	4396.5	1.47706	5.97354e-05	1.477
3	0	4400.5	1.47704	5.84674e-05	1.47698
3	0	4404.5	1.47701	6.29589e-05	1.47695
3	0	4408.5	1.47697	5.60841e-05	1.47692
3	0	4412.5	1.47693	5.19822e-05	1.47688
3	0	4416.5	1.47689	5.25933e-05	1.47684
3	0	4420.5	1.47684	5.41515e-05	1.47678
3	0	4424.5	1.47679	5.06454e-05	1.47674
3	0	4428.5	1.47674	5.47244e-05	1.47669
3	0	4432.5	1.47669	5.26773e-05	1.47664
3	0	4436.5	1.47665	5.56945e-05	1.4766
3	0	4440.5	1.4766	5.07829e-05	1.47655
3	0	4444.5	1.47655	5.0569e-05	1.4765
3	0	4448.5	1.47648	5.3571e-05	1.47643
3	0	4452.5	1.4764	5.53584e-05	1.47635
3	0	4456.5	1.47632	5.73368e-05	1.47626
3	0	4460.5	1.47624	5.35099e-05	1.47619
3	0	4464.5	1.47615	5.09204e-05	1.47609
3	0	4468.5	1.47606	5.01336e-05	1.47601
3	0	4472.5	1.47598	5.49001e-05	1.47592
3	0	4476.5	1.47589	5.52362e-05	1.47584
3	0	4480.5	1.47581	5.60306e-05	1.47575
3	0	4484.5	1.47573	5.6214e-05	1.47568
3	0	4488.5	1.47566	5.89791e-05	1.4756
3	0	4492.5	1.47557	5.50147e-05	1.47552
3	0	4496.5	1.47548	6.03312e-05	1.47542
3	0	4500.5	1.47536	6.07437e-05	1.4753
3	0	4504.5	1.47523	5.80167e-05	1.47518
3	0	4508.5	1.47514	5.89944e-05	1.47508
3	0	4512.5	1.47503	5.89028e-05	1.47497
3	0	4516.5	1.47494	6.22867e-05	1.47488
3	0	4520.5	1.47486	5.83451e-05	1.4748
3	0	4524.5	1.47477	5.65119e-05	1.47471
3	0	4528.5	1.47468	6.07513e-05	1.47462
3	0	4532.5	1.47458	5.4205e-05	1.47452
3	0	4536.5	1.47447	5.57251e-05	1.47442
3	0	4540.5	1.47435	5.22419e-05	1.4743
3	0	4544.5	1.47405	5.55723e-05	1.47399
3	0	4548.5	1.47367	5.16384e-05	1.47362
3	0	4552.5	1.47354	5.52362e-05	1.47349
3	0	4556.5	1.47343	5.25398e-05	1.47337
3	0	4560.5	1.47327	5.08211e-05	1.47322
3	0	4564.5	1.47311	5.19745e-05	1.47306
3	0	4568.5	1.47298	5.54883e-05	1.47293
3	0	4572.5	1.47287	5.38231e-05	1.47281
3	0	4576.5	1.47275	5.43349e-05	1.4727
3	0	4580.5	1.47263	5.49078e-05	1.47258
3	0	4584.5	1.4725	5.60459e-05	1.47245
3	0	4588.5	1.47236	5.4946e-05	1.47231
3	0	4592.5	1.47222	5.89486e-05	1.47216
3	0	4596.5	1.47207	5.98729e-05	1.47201
3	0	4600.5	1.4719	6.04916e-05	1.47184
3	0	4604.5	1.47167	5.8032e-05	1.47161
3	0	4608.5	1.47137	5.94375e-05	1.47131
3	0	4612.5	1.47118	5.79632e-05	1.47113
3	0	4616.5	1.471	5.69014e-05	1.47095
3	0	4620.5	1.4708	5.74514e-05	1.47074
3	0	4624.5	1.47061	5.76042e-05	1.47055
3	0	4628.5	1.47038	5.6466e-05	1.47032
3	0	4632.5	1.47017	5.84063e-05	1.47011
3	0	4636.5	1.46997	5.81389e-05	1.46991
3	0	4640.5	1.46979	5.94527e-05	1.46973
3	0	4644.5	1.46961	6.19506e-05	1.46955
3	0	4648.5	1.46942	5.99111e-05	1.46936
3	0	4652.5	1.46924	6.11256e-05	1.46918
3	0	4656.5	1.46905	6.13471e-05	1.46899
3	0	4660.5	1.46887	6.37151e-05	1.4688
3	0	4664.5	1.46869	6.23401e-05	1.46862
3	0	4668.5	1.46852	5.69855e-05	1.46846
3	0	4672.5	1.46837	6.37686e-05	1.4683
3	0	4676.5	1.46819	6.16679e-05	1.46813
3	0	4680.5	1.46801	5.59848e-05	1.46796
3	0	4684.5	1.46783	5.9827e-05	1.46777
3	0	4688.5	1.46763	5.93764e-05	1.46757
3	0	4692.5	1.46745	6.32339e-05	1.46739
3	0	4696.5	1.4673	6.59914e-05	1.46723
3	0	4700.5	1.46713	5.985e-05	1.46707
3	0	4704.5	1.46696	6.17978e-05	1.4669
3	0	4708.5	1.46677	6.28596e-05	1.4667
3	0	4712.5	1.46656	6.23631e-05	1.4665
3	0	4716.5	1.46633	6.36693e-05	1.46627
3	0	4720.5	1.46614	6.34554e-05	1.46607
3	0	4724.5	1.46595	6.46165e-05	1.46589
3	0	4728.5	1.46575	6.23631e-05	1.46568
3	0	4732.5	1.46555	5.85132e-05	1.46549
3	0	4736.5	1.46534	6.27526e-05	1.46527
3	0	4740.5	1.46513	5.92312e-05	1.46507
3	0	4744.5	1.46494	5.9552e-05	1.46488
3	0	4748.5	1.46475	6.06215e-05	1.46469
3	0	4752.5	1.46455	5.58855e-05	1.4645
3	0	4756.5	1.4644	5.97736e-05	1.46434
3	0	4760.5	1.46424	5.49307e-05	1.46419
3	0	4764.5	1.46408	5.79479e-05	1.46403
3	0	4768.5	1.46393	5.8307e-05	1.46387
3	0	4772.5	1.46378	6.10416e-05	1.46372
3	0	4776.5	1.46362	5.46404e-05	1.46356
3	0	4780.5	1.46346	5.97888e-05	1.4634
3	0	4784.5	1.46332	5.96666e-05	1.46326
3	0	4788.5	1.46316	6.18284e-05	1.4631
3	0	4792.5	1.46297	6.40359e-05	1.46291
3	0	4796.5	1.46281	5.55265e-05	1.46275
3	0	4800.5	1.46266	5.80854e-05	1.4626
3	0	4804.5	1.46252	5.98958e-05	1.46246
3	0	4808.5	1.46238	6.03847e-05	1.46232
3	0	4812.5	1.46226	6.01479e-05	1.4622
3	0	4816.5	1.46215	6.15839e-05	1.46209
3	0	4820.5	1.46201	5.7398e-05	1.46195
3	0	4824.5	1.46187	5.97277e-05	1.46181
3	0	4828.5	1.46177	5.72986e-05	1.46171
3	0	4832.5	1.46168	5.77722e-05	1.46162
3	0	4836.5	1.46159	6.01708e-05	1.46153
3	0	4840.5	1.46151	5.90097e-05	1.46145
3	0	4844.5	1.46143	6.20422e-05	1.46136
3	0	4848.5	1.46134	5.94986e-05	1.46128
3	0	4852.5	1.46126	6.05833e-05	1.4612
3	0	4856.5	1.46118	5.99111e-05	1.46112
3	0	4860.5	1.46109	5.95597e-05	1.46104
3	0	4864.5	1.46102	6.01402e-05	1.46096
3	0	4868.5	1.46095	5.9384e-05	1.46089
3	0	4872.5	1.46088	5.88264e-05	1.46082
3	0	4876.5	1.46081	6.14006e-05	1.46075
3	0	4880.5	1.46075	5.88722e-05	1.46069
3	0	4884.5	1.46068	6.36769e-05	1.46062
3	0	4888.5	1.46062	6.1118e-05	1.46056
3	0	4892.5	1.46052	6.11867e-05	1.46046
3	0	4896.5	1.46044	5.7291e-05	1.46039
3	0	4900.5	1.46039	5.69091e-05	1.46033
3	0	4904.5	1.46033	6.27755e-05	1.46027
3	0	4908.5	1.46027	6.51664e-05	1.4602
3	0	4912.5	1.46021	6.19429e-05	1.46015
3	0	4916.5	1.46016	5.4839e-05	1.4601
3	0	4920.5	1.46012	5.35939e-05	1.46006
3	0	4924.5	1.46007	5.58397e-05	1.46002
3	0	4928.5	1.46004	5.78563e-05	1.45998
3	0	4932.5	1.46	5.80167e-05	1.45994
3	0	4936.5	1.45997	5.55723e-05	1.45992
3	0	4940.5	1.45994	5.64431e-05	1.45988
3	0	4942.7	1.45992	5.72246e-05	1.45986