File: docs/examples/opeando_xrd/IS17_D/Echem/A/ZMO_D_C03.mpt
EC-Lab ASCII FILE
Nb header lines : 84

Galvanostatic Cycling with Potential Limitation

Run on channel : 3 (SN 37153)
User :
CE vs. WE compliance from -10 V to 10 V
Electrode connection : standard
Potential control : Ewe
Ewe ctrl range : min = 0.00 V, max = 5.00 V
Safety Limits :
	Do not start on E overload
Acquisition started on : 09/23/2025 16:11:07.633
Technique started on : 09/23/2025 16:11:07.633
Loaded Setting File :  L:\projects\cycle2025-II\20250340008-atejeroplaza\DATA\elChem\16_FC_NP47_fresh_4p3V_C16_cell22.mps
Saved on :
	File : ZMO_D_C03.mpr
	Directory : L:\projects\cycle2025-II\20250340211-lsimonelli\EC_lab\
	Host : 84.89.224.156
Device : VSP (SN 1760)
Address : 10.0.48.120
EC-LAB for windows v11.61 (software)
Internet server v11.61 (firmware)
Command interpretor v11.61 (firmware)
Electrode material : NMF111_FC
Initial state : x=1
Electrolyte : NaPF6 ECDEC
Comments : Cell: MSPD_06
Comments : N/P 0.47
Comments : aged 100 cycles 4.3V
Comments : mAM=6.504mg
Mass of active material : 6.504 mg
 at x = 1.000
Molecular weight of active material (at x = 0) : 87.930 g/mol
Atomic weight of intercalated ion : 22.990 g/mol
Acquisition started at : xo = 1.000
Number of e- transfered per intercalated ion : 1
for DX = 1, DQ = 1.572 mA.h
Battery capacity : 1.572 mA.h
Electrode surface area : 1.000 cm²
Characteristic mass : 6.504 mg
Volume (V) : 0.001 cm³
Record Ece
Text export
   Mode : Standard
   Time format : Elapsed
Cycle Definition : Charge/Discharge alternance
Ns                  0                   1                   2
Set I/C             I                   I                   I
Is                  0.000               -100.000            100.000
unit Is             mA                  µA                  µA
vs.                 <None>              <None>              <None>
N                   1.00                16.10               16.10
I sign              > 0                 < 0                 < 0
t1 (h:m:s)          0:00:0.0000         10:00:0.0000        10:00:0.0000
I Range             100 µA              100 µA              100 µA
Bandwidth           5                   5                   5
dE1 (mV)            0.00                0.00                0.00
dt1 (s)             0.0000              10.0000             10.0000
EM (V)              0.000               0.900               1.850
tM (h:m:s)          0:00:0.0000         0:00:0.0000         0:00:0.0000
Im                  0.000               0.000               0.000
unit Im             mA                  mA                  mA
dI/dt               0.000               0.000               0.000
dunit dI/dt         mA/s                mA/s                mA/s
E range min (V)     0.000               0.000               0.000
E range max (V)     5.000               5.000               5.000
dq                  0.000               1.000               1.000
unit dq             mA.h                mA.h                mA.h
dtq (s)             0.0000              60.0000             60.0000
dQM                 0.000               0.000               0.000
unit dQM            mA.h                mA.h                mA.h
dxM                 0.000               0.000               0.000
delta SoC (%)       pass                pass                pass
tR (h:m:s)          100:00:10.0000      0:00:0.0000         0:00:0.0000
dER/dt (mV/h)       0.0                 0.0                 0.0
dER (mV)            0.00                0.00                0.00
dtR (s)             1.0000              10.0000             10.0000
EL (V)              pass                pass                pass
goto Ns'            0                   1                   1
nc cycles           0                   0                   10

mode	ox/red	error	control changes	Ns changes	counter inc.	Ns	time/s	dq/mA.h	(Q-Qo)/mA.h	control/V/mA	Ewe/V	Ece/V	I Range	Q charge/discharge/mA.h	half cycle	Energy we charge/W.h	Energy we discharge/W.h	Capacitance charge/µF	Capacitance discharge/µF	step time/s	<I>/mA	x	Q discharge/mA.h	Q charge/mA.h	Capacity/mA.h	Efficiency/%	control/V	control/mA	cycle number	Pwe/W	Pce/W	Pwe-ce/W	Ewe-Ece/V	Rwe/Ohm	Rce/Ohm	Rwe-ce/Ohm
3	0	0	0	0	0	0	0.000000000000000E+000	0.000000000000000E+000	0.000000000000000E+000	0.0000000E+000	1.5328	0.000162939	14	0.000000000000000E+000	0	0.000000000000000E+000	0.000000000000000E+000	0.000000000000000E+000	0.000000000000000E+000	0.000000000000000E+000	0.000000000000000E+000	1	0.000000000000000E+000	0.000000000000000E+000	0.000000000000000E+000	0.0000000E+000	0.0000000E+000	0.0000000E+000	0.000000000000000E+000	0.0000000E+000	0.0000000E+000	0.0000000E+000	1.53263	0.0000000E+000	0.0000000E+000	0.0000000E+000
3	0	0	0	0	0	0	16	0.000000000000000E+000	0.000000000000000E+000	0.0000000E+000	1.53263	-4.71227e-05	14	0.000000000000000E+000	0	0.000000000000000E+000	0.000000000000000E+000	0.000000000000000E+000	0.000000000000000E+000	16	0.000000000000000E+000	1	0.000000000000000E+000	0.000000000000000E+000	0.000000000000000E+000	0.0000000E+000	0.0000000E+000	0.0000000E+000	0.000000000000000E+000	0.0000000E+000	0.0000000E+000	0.0000000E+000	1.53267	0.0000000E+000	0.0000000E+000	0.0000000E+000
3	0	0	0	0	0	0	32	0.000000000000000E+000	0.000000000000000E+000	0.0000000E+000	1.53238	-8.53157e-05	14	0.000000000000000E+000	0	0.000000000000000E+000	0.000000000000000E+000	0.000000000000000E+000	0.000000000000000E+000	32	0.000000000000000E+000	1	0.000000000000000E+000	0.000000000000000E+000	0.000000000000000E+000	0.0000000E+000	0.0000000E+000	0.0000000E+000	0.000000000000000E+000	0.0000000E+000	0.0000000E+000	0.0000000E+000	1.53246	0.0000000E+000	0.0000000E+000	0.0000000E+000
3	0	0	0	0	0	0	48	0.000000000000000E+000	0.000000000000000E+000	0.0000000E+000	1.53236	8.6553e-05	14	0.000000000000000E+000	0	0.000000000000000E+000	0.000000000000000E+000	0.000000000000000E+000	0.000000000000000E+000	48	0.000000000000000E+000	1	0.000000000000000E+000	0.000000000000000E+000	0.000000000000000E+000	0.0000000E+000	0.0000000E+000	0.0000000E+000	0.000000000000000E+000	0.0000000E+000	0.0000000E+000	0.0000000E+000	1.53227	0.0000000E+000	0.0000000E+000	0.0000000E+000
3	0	0	0	0	0	0	64	0.000000000000000E+000	0.000000000000000E+000	0.0000000E+000	1.53255	-8.53157e-05	14	0.000000000000000E+000	0	0.000000000000000E+000	0.000000000000000E+000	0.000000000000000E+000	0.000000000000000E+000	64	0.000000000000000E+000	1	0.000000000000000E+000	0.000000000000000E+000	0.000000000000000E+000	0.0000000E+000	0.0000000E+000	0.0000000E+000	0.000000000000000E+000	0.0000000E+000	0.0000000E+000	0.0000000E+000	1.53263	0.0000000E+000	0.0000000E+000	0.0000000E+000
3	0	0	0	0	0	0	80	0.000000000000000E+000	0.000000000000000E+000	0.0000000E+000	1.53243	-6.62192e-05	14	0.000000000000000E+000	0	0.000000000000000E+000	0.000000000000000E+000	0.000000000000000E+000	0.000000000000000E+000	80	0.000000000000000E+000	1	0.000000000000000E+000	0.000000000000000E+000	0.000000000000000E+000	0.0000000E+000	0.0000000E+000	0.0000000E+000	0.000000000000000E+000	0.0000000E+000	0.0000000E+000	0.0000000E+000	1.5325	0.0000000E+000	0.0000000E+000	0.0000000E+000
3	0	0	0	0	0	0	96	0.000000000000000E+000	0.000000000000000E+000	0.0000000E+000	1.53221	-6.62192e-05	14	0.000000000000000E+000	0	0.000000000000000E+000	0.000000000000000E+000	0.000000000000000E+000	0.000000000000000E+000	96	0.000000000000000E+000	1	0.000000000000000E+000	0.000000000000000E+000	0.000000000000000E+000	0.0000000E+000	0.0000000E+000	0.0000000E+000	0.000000000000000E+000	0.0000000E+000	0.0000000E+000	0.0000000E+000	1.53227	0.0000000E+000	0.0000000E+000	0.0000000E+000
3	0	0	0	0	0	0	112	0.000000000000000E+000	0.000000000000000E+000	0.0000000E+000	1.53238	2.92634e-05	14	0.000000000000000E+000	0	0.000000000000000E+000	0.000000000000000E+000	0.000000000000000E+000	0.000000000000000E+000	112	0.000000000000000E+000	1	0.000000000000000E+000	0.000000000000000E+000	0.000000000000000E+000	0.0000000E+000	0.0000000E+000	0.0000000E+000	0.000000000000000E+000	0.0000000E+000	0.0000000E+000	0.0000000E+000	1.53235	0.0000000E+000	0.0000000E+000	0.0000000E+000
3	0	0	0	0	0	0	128	0.000000000000000E+000	0.000000000000000E+000	0.0000000E+000	1.5323	6.74564e-05	14	0.000000000000000E+000	0	0.000000000000000E+000	0.000000000000000E+000	0.000000000000000E+000	0.000000000000000E+000	128	0.000000000000000E+000	1	0.000000000000000E+000	0.000000000000000E+000	0.000000000000000E+000	0.0000000E+000	0.0000000E+000	0.0000000E+000	0.000000000000000E+000	0.0000000E+000	0.0000000E+000	0.0000000E+000	1.53223	0.0000000E+000	0.0000000E+000	0.0000000E+000
3	0	0	0	0	0	0	144	0.000000000000000E+000	0.000000000000000E+000	0.0000000E+000	1.53215	4.83599e-05	14	0.000000000000000E+000	0	0.000000000000000E+000	0.000000000000000E+000	0.000000000000000E+000	0.000000000000000E+000	144	0.000000000000000E+000	1	0.000000000000000E+000	0.000000000000000E+000	0.000000000000000E+000	0.0000000E+000	0.0000000E+000	0.0000000E+000	0.000000000000000E+000	0.0000000E+000	0.0000000E+000	0.0000000E+000	1.5321	0.0000000E+000	0.0000000E+000	0.0000000E+000
3	0	0	0	0	0	0	160	0.000000000000000E+000	0.000000000000000E+000	0.0000000E+000	1.53211	6.74564e-05	14	0.000000000000000E+000	0	0.000000000000000E+000	0.000000000000000E+000	0.000000000000000E+000	0.000000000000000E+000	160	0.000000000000000E+000	1	0.000000000000000E+000	0.000000000000000E+000	0.000000000000000E+000	0.0000000E+000	0.0000000E+000	0.0000000E+000	0.000000000000000E+000	0.0000000E+000	0.0000000E+000	0.0000000E+000	1.53204	0.0000000E+000	0.0000000E+000	0.0000000E+000
3	0	0	0	0	0	0	176	0.000000000000000E+000	0.000000000000000E+000	0.0000000E+000	1.53205	-8.92964e-06	14	0.000000000000000E+000	0	0.000000000000000E+000	0.000000000000000E+000	0.000000000000000E+000	0.000000000000000E+000	176	0.000000000000000E+000	1	0.000000000000000E+000	0.000000000000000E+000	0.000000000000000E+000	0.0000000E+000	0.0000000E+000	0.0000000E+000	0.000000000000000E+000	0.0000000E+000	0.0000000E+000	0.0000000E+000	1.53206	0.0000000E+000	0.0000000E+000	0.0000000E+000
3	0	0	0	0	0	0	192	0.000000000000000E+000	0.000000000000000E+000	0.0000000E+000	1.53201	4.83599e-05	14	0.000000000000000E+000	0	0.000000000000000E+000	0.000000000000000E+000	0.000000000000000E+000	0.000000000000000E+000	192	0.000000000000000E+000	1	0.000000000000000E+000	0.000000000000000E+000	0.000000000000000E+000	0.0000000E+000	0.0000000E+000	0.0000000E+000	0.000000000000000E+000	0.0000000E+000	0.0000000E+000	0.0000000E+000	1.53197	0.0000000E+000	0.0000000E+000	0.0000000E+000
3	0	0	0	0	0	0	208	0.000000000000000E+000	0.000000000000000E+000	0.0000000E+000	1.53188	8.6553e-05	14	0.000000000000000E+000	0	0.000000000000000E+000	0.000000000000000E+000	0.000000000000000E+000	0.000000000000000E+000	208	0.000000000000000E+000	1	0.000000000000000E+000	0.000000000000000E+000	0.000000000000000E+000	0.0000000E+000	0.0000000E+000	0.0000000E+000	0.000000000000000E+000	0.0000000E+000	0.0000000E+000	0.0000000E+000	1.53179	0.0000000E+000	0.0000000E+000	0.0000000E+000
3	0	0	0	0	0	0	224	0.000000000000000E+000	0.000000000000000E+000	0.0000000E+000	1.53196	-8.92964e-06	14	0.000000000000000E+000	0	0.000000000000000E+000	0.000000000000000E+000	0.000000000000000E+000	0.000000000000000E+000	224	0.000000000000000E+000	1	0.000000000000000E+000	0.000000000000000E+000	0.000000000000000E+000	0.0000000E+000	0.0000000E+000	0.0000000E+000	0.000000000000000E+000	0.0000000E+000	0.0000000E+000	0.0000000E+000	1.53197	0.0000000E+000	0.0000000E+000	0.0000000E+000
3	0	0	0	0	0	0	240	0.000000000000000E+000	0.000000000000000E+000	0.0000000E+000	1.5318	1.01669e-05	14	0.000000000000000E+000	0	0.000000000000000E+000	0.000000000000000E+000	0.000000000000000E+000	0.000000000000000E+000	240	0.000000000000000E+000	1	0.000000000000000E+000	0.000000000000000E+000	0.000000000000000E+000	0.0000000E+000	0.0000000E+000	0.0000000E+000	0.000000000000000E+000	0.0000000E+000	0.0000000E+000	0.0000000E+000	1.53179	0.0000000E+000	0.0000000E+000	0.0000000E+000
3	0	0	0	0	0	0	256	0.000000000000000E+000	0.000000000000000E+000	0.0000000E+000	1.53192	8.6553e-05	14	0.000000000000000E+000	0	0.000000000000000E+000	0.000000000000000E+000	0.000000000000000E+000	0.000000000000000E+000	256	0.000000000000000E+000	1	0.000000000000000E+000	0.000000000000000E+000	0.000000000000000E+000	0.0000000E+000	0.0000000E+000	0.0000000E+000	0.000000000000000E+000	0.0000000E+000	0.0000000E+000	0.0000000E+000	1.53183	0.0000000E+000	0.0000000E+000	0.0000000E+000
3	0	0	0	0	0	0	272	0.000000000000000E+000	0.000000000000000E+000	0.0000000E+000	1.53169	4.83599e-05	14	0.000000000000000E+000	0	0.000000000000000E+000	0.000000000000000E+000	0.000000000000000E+000	0.000000000000000E+000	272	0.000000000000000E+000	1	0.000000000000000E+000	0.000000000000000E+000	0.000000000000000E+000	0.0000000E+000	0.0000000E+000	0.0000000E+000	0.000000000000000E+000	0.0000000E+000	0.0000000E+000	0.0000000E+000	1.53164	0.0000000E+000	0.0000000E+000	0.0000000E+000
3	0	0	0	0	0	0	288	0.000000000000000E+000	0.000000000000000E+000	0.0000000E+000	1.53182	1.01669e-05	14	0.000000000000000E+000	0	0.000000000000000E+000	0.000000000000000E+000	0.000000000000000E+000	0.000000000000000E+000	288	0.000000000000000E+000	1	0.000000000000000E+000	0.000000000000000E+000	0.000000000000000E+000	0.0000000E+000	0.0000000E+000	0.0000000E+000	0.000000000000000E+000	0.0000000E+000	0.0000000E+000	0.0000000E+000	1.53181	0.0000000E+000	0.0000000E+000	0.0000000E+000
3	0	0	0	0	0	0	304	0.000000000000000E+000	0.000000000000000E+000	0.0000000E+000	1.53161	8.6553e-05	14	0.000000000000000E+000	0	0.000000000000000E+000	0.000000000000000E+000	0.000000000000000E+000	0.000000000000000E+000	304	0.000000000000000E+000	1	0.000000000000000E+000	0.000000000000000E+000	0.000000000000000E+000	0.0000000E+000	0.0000000E+000	0.0000000E+000	0.000000000000000E+000	0.0000000E+000	0.0000000E+000	0.0000000E+000	1.53153	0.0000000E+000	0.0000000E+000	0.0000000E+000
3	0	0	0	0	0	0	320	0.000000000000000E+000	0.000000000000000E+000	0.0000000E+000	1.53148	-8.92964e-06	14	0.000000000000000E+000	0	0.000000000000000E+000	0.000000000000000E+000	0.000000000000000E+000	0.000000000000000E+000	320	0.000000000000000E+000	1	0.000000000000000E+000	0.000000000000000E+000	0.000000000000000E+000	0.0000000E+000	0.0000000E+000	0.0000000E+000	0.000000000000000E+000	0.0000000E+000	0.0000000E+000	0.0000000E+000	1.53149	0.0000000E+000	0.0000000E+000	0.0000000E+000
3	0	0	0	0	0	0	336	0.000000000000000E+000	0.000000000000000E+000	0.0000000E+000	1.53154	-4.71227e-05	14	0.000000000000000E+000	0	0.000000000000000E+000	0.000000000000000E+000	0.000000000000000E+000	0.000000000000000E+000	336	0.000000000000000E+000	1	0.000000000000000E+000	0.000000000000000E+000	0.000000000000000E+000	0.0000000E+000	0.0000000E+000	0.0000000E+000	0.000000000000000E+000	0.0000000E+000	0.0000000E+000	0.0000000E+000	1.53158	0.0000000E+000	0.0000000E+000	0.0000000E+000
3	0	0	0	0	0	0	352	0.000000000000000E+000	0.000000000000000E+000	0.0000000E+000	1.53146	8.6553e-05	14	0.000000000000000E+000	0	0.000000000000000E+000	0.000000000000000E+000	0.000000000000000E+000	0.000000000000000E+000	352	0.000000000000000E+000	1	0.000000000000000E+000	0.000000000000000E+000	0.000000000000000E+000	0.0000000E+000	0.0000000E+000	0.0000000E+000	0.000000000000000E+000	0.0000000E+000	0.0000000E+000	0.0000000E+000	1.53137	0.0000000E+000	0.0000000E+000	0.0000000E+000
3	0	0	0	0	0	0	368	0.000000000000000E+000	0.000000000000000E+000	0.0000000E+000	1.53138	-8.92964e-06	14	0.000000000000000E+000	0	0.000000000000000E+000	0.000000000000000E+000	0.000000000000000E+000	0.000000000000000E+000	368	0.000000000000000E+000	1	0.000000000000000E+000	0.000000000000000E+000	0.000000000000000E+000	0.0000000E+000	0.0000000E+000	0.0000000E+000	0.000000000000000E+000	0.0000000E+000	0.0000000E+000	0.0000000E+000	1.53139	0.0000000E+000	0.0000000E+000	0.0000000E+000
3	0	0	0	0	0	0	384	0.000000000000000E+000	0.000000000000000E+000	0.0000000E+000	1.53131	-2.80262e-05	14	0.000000000000000E+000	0	0.000000000000000E+000	0.000000000000000E+000	0.000000000000000E+000	0.000000000000000E+000	384	0.000000000000000E+000	1	0.000000000000000E+000	0.000000000000000E+000	0.000000000000000E+000	0.0000000E+000	0.0000000E+000	0.0000000E+000	0.000000000000000E+000	0.0000000E+000	0.0000000E+000	0.0000000E+000	1.53134	0.0000000E+000	0.0000000E+000	0.0000000E+000
3	0	0	0	0	0	0	400	0.000000000000000E+000	0.000000000000000E+000	0.0000000E+000	1.53131	2.92634e-05	14	0.000000000000000E+000	0	0.000000000000000E+000	0.000000000000000E+000	0.000000000000000E+000	0.000000000000000E+000	400	0.000000000000000E+000	1	0.000000000000000E+000	0.000000000000000E+000	0.000000000000000E+000	0.0000000E+000	0.0000000E+000	0.0000000E+000	0.000000000000000E+000	0.0000000E+000	0.0000000E+000	0.0000000E+000	1.53128	0.0000000E+000	0.0000000E+000	0.0000000E+000
3	0	0	0	0	0	0	416	0.000000000000000E+000	0.000000000000000E+000	0.0000000E+000	1.53127	8.6553e-05	14	0.000000000000000E+000	0	0.000000000000000E+000	0.000000000000000E+000	0.000000000000000E+000	0.000000000000000E+000	416	0.000000000000000E+000	1	0.000000000000000E+000	0.000000000000000E+000	0.000000000000000E+000	0.0000000E+000	0.0000000E+000	0.0000000E+000	0.000000000000000E+000	0.0000000E+000	0.0000000E+000	0.0000000E+000	1.53118	0.0000000E+000	0.0000000E+000	0.0000000E+000
3	0	0	0	0	0	0	432	0.000000000000000E+000	0.000000000000000E+000	0.0000000E+000	1.53121	-0.000104412	14	0.000000000000000E+000	0	0.000000000000000E+000	0.000000000000000E+000	0.000000000000000E+000	0.000000000000000E+000	432	0.000000000000000E+000	1	0.000000000000000E+000	0.000000000000000E+000	0.000000000000000E+000	0.0000000E+000	0.0000000E+000	0.0000000E+000	0.000000000000000E+000	0.0000000E+000	0.0000000E+000	0.0000000E+000	1.53132	0.0000000E+000	0.0000000E+000	0.0000000E+000
3	0	0	0	0	0	0	448	0.000000000000000E+000	0.000000000000000E+000	0.0000000E+000	1.53117	0.000105649	14	0.000000000000000E+000	0	0.000000000000000E+000	0.000000000000000E+000	0.000000000000000E+000	0.000000000000000E+000	448	0.000000000000000E+000	1	0.000000000000000E+000	0.000000000000000E+000	0.000000000000000E+000	0.0000000E+000	0.0000000E+000	0.0000000E+000	0.000000000000000E+000	0.0000000E+000	0.0000000E+000	0.0000000E+000	1.53107	0.0000000E+000	0.0000000E+000	0.0000000E+000
3	0	0	0	0	0	0	464	0.000000000000000E+000	0.000000000000000E+000	0.0000000E+000	1.53112	4.83599e-05	14	0.000000000000000E+000	0	0.000000000000000E+000	0.000000000000000E+000	0.000000000000000E+000	0.000000000000000E+000	464	0.000000000000000E+000	1	0.000000000000000E+000	0.000000000000000E+000	0.000000000000000E+000	0.0000000E+000	0.0000000E+000	0.0000000E+000	0.000000000000000E+000	0.0000000E+000	0.0000000E+000	0.0000000E+000	1.53107	0.0000000E+000	0.0000000E+000	0.0000000E+000
3	0	0	0	0	0	0	480	0.000000000000000E+000	0.000000000000000E+000	0.0000000E+000	1.53104	-4.71227e-05	14	0.000000000000000E+000	0	0.000000000000000E+000	0.000000000000000E+000	0.000000000000000E+000	0.000000000000000E+000	480	0.000000000000000E+000	1	0.000000000000000E+000	0.000000000000000E+000	0.000000000000000E+000	0.0000000E+000	0.0000000E+000	0.0000000E+000	0.000000000000000E+000	0.0000000E+000	0.0000000E+000	0.0000000E+000	1.53109	0.0000000E+000	0.0000000E+000	0.0000000E+000
3	0	0	0	0	0	0	496	0.000000000000000E+000	0.000000000000000E+000	0.0000000E+000	1.53094	2.92634e-05	14	0.000000000000000E+000	0	0.000000000000000E+000	0.000000000000000E+000	0.000000000000000E+000	0.000000000000000E+000	496	0.000000000000000E+000	1	0.000000000000000E+000	0.000000000000000E+000	0.000000000000000E+000	0.0000000E+000	0.0000000E+000	0.0000000E+000	0.000000000000000E+000	0.0000000E+000	0.0000000E+000	0.0000000E+000	1.53092	0.0000000E+000	0.0000000E+000	0.0000000E+000
3	0	0	0	0	0	0	512	0.000000000000000E+000	0.000000000000000E+000	0.0000000E+000	1.53089	0.000143843	14	0.000000000000000E+000	0	0.000000000000000E+000	0.000000000000000E+000	0.000000000000000E+000	0.000000000000000E+000	512	0.000000000000000E+000	1	0.000000000000000E+000	0.000000000000000E+000	0.000000000000000E+000	0.0000000E+000	0.0000000E+000	0.0000000E+000	0.000000000000000E+000	0.0000000E+000	0.0000000E+000	0.0000000E+000	1.53074	0.0000000E+000	0.0000000E+000	0.0000000E+000
3	0	0	0	0	0	0	528	0.000000000000000E+000	0.000000000000000E+000	0.0000000E+000	1.53085	2.92634e-05	14	0.000000000000000E+000	0	0.000000000000000E+000	0.000000000000000E+000	0.000000000000000E+000	0.000000000000000E+000	528	0.000000000000000E+000	1	0.000000000000000E+000	0.000000000000000E+000	0.000000000000000E+000	0.0000000E+000	0.0000000E+000	0.0000000E+000	0.000000000000000E+000	0.0000000E+000	0.0000000E+000	0.0000000E+000	1.53082	0.0000000E+000	0.0000000E+000	0.0000000E+000
3	0	0	0	0	0	0	544	0.000000000000000E+000	0.000000000000000E+000	0.0000000E+000	1.53091	0.000182036	14	0.000000000000000E+000	0	0.000000000000000E+000	0.000000000000000E+000	0.000000000000000E+000	0.000000000000000E+000	544	0.000000000000000E+000	1	0.000000000000000E+000	0.000000000000000E+000	0.000000000000000E+000	0.0000000E+000	0.0000000E+000	0.0000000E+000	0.000000000000000E+000	0.0000000E+000	0.0000000E+000	0.0000000E+000	1.53072	0.0000000E+000	0.0000000E+000	0.0000000E+000
3	0	0	0	0	0	0	560	0.000000000000000E+000	0.000000000000000E+000	0.0000000E+000	1.53072	-0.000104412	14	0.000000000000000E+000	0	0.000000000000000E+000	0.000000000000000E+000	0.000000000000000E+000	0.000000000000000E+000	560	0.000000000000000E+000	1	0.000000000000000E+000	0.000000000000000E+000	0.000000000000000E+000	0.0000000E+000	0.0000000E+000	0.0000000E+000	0.000000000000000E+000	0.0000000E+000	0.0000000E+000	0.0000000E+000	1.53082	0.0000000E+000	0.0000000E+000	0.0000000E+000
3	0	0	0	0	0	0	576	0.000000000000000E+000	0.000000000000000E+000	0.0000000E+000	1.5306	-8.92964e-06	14	0.000000000000000E+000	0	0.000000000000000E+000	0.000000000000000E+000	0.000000000000000E+000	0.000000000000000E+000	576	0.000000000000000E+000	1	0.000000000000000E+000	0.000000000000000E+000	0.000000000000000E+000	0.0000000E+000	0.0000000E+000	0.0000000E+000	0.000000000000000E+000	0.0000000E+000	0.0000000E+000	0.0000000E+000	1.53061	0.0000000E+000	0.0000000E+000	0.0000000E+000
3	0	0	0	0	0	0	592	0.000000000000000E+000	0.000000000000000E+000	0.0000000E+000	1.53052	1.01669e-05	14	0.000000000000000E+000	0	0.000000000000000E+000	0.000000000000000E+000	0.000000000000000E+000	0.000000000000000E+000	592	0.000000000000000E+000	1	0.000000000000000E+000	0.000000000000000E+000	0.000000000000000E+000	0.0000000E+000	0.0000000E+000	0.0000000E+000	0.000000000000000E+000	0.0000000E+000	0.0000000E+000	0.0000000E+000	1.53051	0.0000000E+000	0.0000000E+000	0.0000000E+000
3	0	0	0	0	0	0	608	0.000000000000000E+000	0.000000000000000E+000	0.0000000E+000	1.53058	0.000105649	14	0.000000000000000E+000	0	0.000000000000000E+000	0.000000000000000E+000	0.000000000000000E+000	0.000000000000000E+000	608	0.000000000000000E+000	1	0.000000000000000E+000	0.000000000000000E+000	0.000000000000000E+000	0.0000000E+000	0.0000000E+000	0.0000000E+000	0.000000000000000E+000	0.0000000E+000	0.0000000E+000	0.0000000E+000	1.53048	0.0000000E+000	0.0000000E+000	0.0000000E+000
3	0	0	0	0	0	0	624	0.000000000000000E+000	0.000000000000000E+000	0.0000000E+000	1.53051	-8.92964e-06	14	0.000000000000000E+000	0	0.000000000000000E+000	0.000000000000000E+000	0.000000000000000E+000	0.000000000000000E+000	624	0.000000000000000E+000	1	0.000000000000000E+000	0.000000000000000E+000	0.000000000000000E+000	0.0000000E+000	0.0000000E+000	0.0000000E+000	0.000000000000000E+000	0.0000000E+000	0.0000000E+000	0.0000000E+000	1.53051	0.0000000E+000	0.0000000E+000	0.0000000E+000
3	0	0	0	0	0	0	640	0.000000000000000E+000	0.000000000000000E+000	0.0000000E+000	1.53043	-0.000104412	14	0.000000000000000E+000	0	0.000000000000000E+000	0.000000000000000E+000	0.000000000000000E+000	0.000000000000000E+000	640	0.000000000000000E+000	1	0.000000000000000E+000	0.000000000000000E+000	0.000000000000000E+000	0.0000000E+000	0.0000000E+000	0.0000000E+000	0.000000000000000E+000	0.0000000E+000	0.0000000E+000	0.0000000E+000	1.53053	0.0000000E+000	0.0000000E+000	0.0000000E+000
3	0	0	0	0	0	0	656	0.000000000000000E+000	0.000000000000000E+000	0.0000000E+000	1.53041	1.01669e-05	14	0.000000000000000E+000	0	0.000000000000000E+000	0.000000000000000E+000	0.000000000000000E+000	0.000000000000000E+000	656	0.000000000000000E+000	1	0.000000000000000E+000	0.000000000000000E+000	0.000000000000000E+000	0.0000000E+000	0.0000000E+000	0.0000000E+000	0.000000000000000E+000	0.0000000E+000	0.0000000E+000	0.0000000E+000	1.5304	0.0000000E+000	0.0000000E+000	0.0000000E+000
3	0	0	0	0	0	0	672	0.000000000000000E+000	0.000000000000000E+000	0.0000000E+000	1.53031	-2.80262e-05	14	0.000000000000000E+000	0	0.000000000000000E+000	0.000000000000000E+000	0.000000000000000E+000	0.000000000000000E+000	672	0.000000000000000E+000	1	0.000000000000000E+000	0.000000000000000E+000	0.000000000000000E+000	0.0000000E+000	0.0000000E+000	0.0000000E+000	0.000000000000000E+000	0.0000000E+000	0.0000000E+000	0.0000000E+000	1.53034	0.0000000E+000	0.0000000E+000	0.0000000E+000
3	0	0	0	0	0	0	688	0.000000000000000E+000	0.000000000000000E+000	0.0000000E+000	1.5302	-0.000161702	14	0.000000000000000E+000	0	0.000000000000000E+000	0.000000000000000E+000	0.000000000000000E+000	0.000000000000000E+000	688	0.000000000000000E+000	1	0.000000000000000E+000	0.000000000000000E+000	0.000000000000000E+000	0.0000000E+000	0.0000000E+000	0.0000000E+000	0.000000000000000E+000	0.0000000E+000	0.0000000E+000	0.0000000E+000	1.53036	0.0000000E+000	0.0000000E+000	0.0000000E+000
3	0	0	0	0	0	0	704	0.000000000000000E+000	0.000000000000000E+000	0.0000000E+000	1.53026	0.000182036	14	0.000000000000000E+000	0	0.000000000000000E+000	0.000000000000000E+000	0.000000000000000E+000	0.000000000000000E+000	704	0.000000000000000E+000	1	0.000000000000000E+000	0.000000000000000E+000	0.000000000000000E+000	0.0000000E+000	0.0000000E+000	0.0000000E+000	0.000000000000000E+000	0.0000000E+000	0.0000000E+000	0.0000000E+000	1.53007	0.0000000E+000	0.0000000E+000	0.0000000E+000
3	0	0	0	0	0	0	720	0.000000000000000E+000	0.000000000000000E+000	0.0000000E+000	1.53012	0.000143843	14	0.000000000000000E+000	0	0.000000000000000E+000	0.000000000000000E+000	0.000000000000000E+000	0.000000000000000E+000	720	0.000000000000000E+000	1	0.000000000000000E+000	0.000000000000000E+000	0.000000000000000E+000	0.0000000E+000	0.0000000E+000	0.0000000E+000	0.000000000000000E+000	0.0000000E+000	0.0000000E+000	0.0000000E+000	1.52998	0.0000000E+000	0.0000000E+000	0.0000000E+000
3	0	0	0	0	0	0	736	0.000000000000000E+000	0.000000000000000E+000	0.0000000E+000	1.53018	4.83599e-05	14	0.000000000000000E+000	0	0.000000000000000E+000	0.000000000000000E+000	0.000000000000000E+000	0.000000000000000E+000	736	0.000000000000000E+000	1	0.000000000000000E+000	0.000000000000000E+000	0.000000000000000E+000	0.0000000E+000	0.0000000E+000	0.0000000E+000	0.000000000000000E+000	0.0000000E+000	0.0000000E+000	0.0000000E+000	1.53013	0.0000000E+000	0.0000000E+000	0.0000000E+000
3	0	0	0	0	0	0	752	0.000000000000000E+000	0.000000000000000E+000	0.0000000E+000	1.53008	4.83599e-05	14	0.000000000000000E+000	0	0.000000000000000E+000	0.000000000000000E+000	0.000000000000000E+000	0.000000000000000E+000	752	0.000000000000000E+000	1	0.000000000000000E+000	0.000000000000000E+000	0.000000000000000E+000	0.0000000E+000	0.0000000E+000	0.0000000E+000	0.000000000000000E+000	0.0000000E+000	0.0000000E+000	0.0000000E+000	1.53004	0.0000000E+000	0.0000000E+000	0.0000000E+000
3	0	0	0	0	0	0	768	0.000000000000000E+000	0.000000000000000E+000	0.0000000E+000	1.53003	1.01669e-05	14	0.000000000000000E+000	0	0.000000000000000E+000	0.000000000000000E+000	0.000000000000000E+000	0.000000000000000E+000	768	0.000000000000000E+000	1	0.000000000000000E+000	0.000000000000000E+000	0.000000000000000E+000	0.0000000E+000	0.0000000E+000	0.0000000E+000	0.000000000000000E+000	0.0000000E+000	0.0000000E+000	0.0000000E+000	1.53002	0.0000000E+000	0.0000000E+000	0.0000000E+000
3	0	0	0	0	0	0	784	0.000000000000000E+000	0.000000000000000E+000	0.0000000E+000	1.52999	0.000143843	14	0.000000000000000E+000	0	0.000000000000000E+000	0.000000000000000E+000	0.000000000000000E+000	0.000000000000000E+000	784	0.000000000000000E+000	1	0.000000000000000E+000	0.000000000000000E+000	0.000000000000000E+000	0.0000000E+000	0.0000000E+000	0.0000000E+000	0.000000000000000E+000	0.0000000E+000	0.0000000E+000	0.0000000E+000	1.52985	0.0000000E+000	0.0000000E+000	0.0000000E+000
3	0	0	0	0	0	0	800	0.000000000000000E+000	0.000000000000000E+000	0.0000000E+000	1.53003	-2.80262e-05	14	0.000000000000000E+000	0	0.000000000000000E+000	0.000000000000000E+000	0.000000000000000E+000	0.000000000000000E+000	800	0.000000000000000E+000	1	0.000000000000000E+000	0.000000000000000E+000	0.000000000000000E+000	0.0000000E+000	0.0000000E+000	0.0000000E+000	0.000000000000000E+000	0.0000000E+000	0.0000000E+000	0.0000000E+000	1.53006	0.0000000E+000	0.0000000E+000	0.0000000E+000
3	0	0	0	0	0	0	816	0.000000000000000E+000	0.000000000000000E+000	0.0000000E+000	1.52986	0.000105649	14	0.000000000000000E+000	0	0.000000000000000E+000	0.000000000000000E+000	0.000000000000000E+000	0.000000000000000E+000	816	0.000000000000000E+000	1	0.000000000000000E+000	0.000000000000000E+000	0.000000000000000E+000	0.0000000E+000	0.0000000E+000	0.0000000E+000	0.000000000000000E+000	0.0000000E+000	0.0000000E+000	0.0000000E+000	1.52975	0.0000000E+000	0.0000000E+000	0.0000000E+000
3	0	0	0	0	0	0	832	0.000000000000000E+000	0.000000000000000E+000	0.0000000E+000	1.52978	4.83599e-05	14	0.000000000000000E+000	0	0.000000000000000E+000	0.000000000000000E+000	0.000000000000000E+000	0.000000000000000E+000	832	0.000000000000000E+000	1	0.000000000000000E+000	0.000000000000000E+000	0.000000000000000E+000	0.0000000E+000	0.0000000E+000	0.0000000E+000	0.000000000000000E+000	0.0000000E+000	0.0000000E+000	0.0000000E+000	1.52973	0.0000000E+000	0.0000000E+000	0.0000000E+000
3	0	0	0	0	0	0	848	0.000000000000000E+000	0.000000000000000E+000	0.0000000E+000	1.52963	0.000105649	14	0.000000000000000E+000	0	0.000000000000000E+000	0.000000000000000E+000	0.000000000000000E+000	0.000000000000000E+000	848	0.000000000000000E+000	1	0.000000000000000E+000	0.000000000000000E+000	0.000000000000000E+000	0.0000000E+000	0.0000000E+000	0.0000000E+000	0.000000000000000E+000	0.0000000E+000	0.0000000E+000	0.0000000E+000	1.52952	0.0000000E+000	0.0000000E+000	0.0000000E+000
3	0	0	0	0	0	0	864	0.000000000000000E+000	0.000000000000000E+000	0.0000000E+000	1.52953	-8.92964e-06	14	0.000000000000000E+000	0	0.000000000000000E+000	0.000000000000000E+000	0.000000000000000E+000	0.000000000000000E+000	864	0.000000000000000E+000	1	0.000000000000000E+000	0.000000000000000E+000	0.000000000000000E+000	0.0000000E+000	0.0000000E+000	0.0000000E+000	0.000000000000000E+000	0.0000000E+000	0.0000000E+000	0.0000000E+000	1.52954	0.0000000E+000	0.0000000E+000	0.0000000E+000
3	0	0	0	0	0	0	880	0.000000000000000E+000	0.000000000000000E+000	0.0000000E+000	1.52963	-8.92964e-06	14	0.000000000000000E+000	0	0.000000000000000E+000	0.000000000000000E+000	0.000000000000000E+000	0.000000000000000E+000	880	0.000000000000000E+000	1	0.000000000000000E+000	0.000000000000000E+000	0.000000000000000E+000	0.0000000E+000	0.0000000E+000	0.0000000E+000	0.000000000000000E+000	0.0000000E+000	0.0000000E+000	0.0000000E+000	1.52964	0.0000000E+000	0.0000000E+000	0.0000000E+000
3	0	0	0	0	0	0	896	0.000000000000000E+000	0.000000000000000E+000	0.0000000E+000	1.5297	0.000105649	14	0.000000000000000E+000	0	0.000000000000000E+000	0.000000000000000E+000	0.000000000000000E+000	0.000000000000000E+000	896	0.000000000000000E+000	1	0.000000000000000E+000	0.000000000000000E+000	0.000000000000000E+000	0.0000000E+000	0.0000000E+000	0.0000000E+000	0.000000000000000E+000	0.0000000E+000	0.0000000E+000	0.0000000E+000	1.5296	0.0000000E+000	0.0000000E+000	0.0000000E+000
3	0	0	0	0	0	0	912	0.000000000000000E+000	0.000000000000000E+000	0.0000000E+000	1.52949	2.92634e-05	14	0.000000000000000E+000	0	0.000000000000000E+000	0.000000000000000E+000	0.000000000000000E+000	0.000000000000000E+000	912	0.000000000000000E+000	1	0.000000000000000E+000	0.000000000000000E+000	0.000000000000000E+000	0.0000000E+000	0.0000000E+000	0.0000000E+000	0.000000000000000E+000	0.0000000E+000	0.0000000E+000	0.0000000E+000	1.52946	0.0000000E+000	0.0000000E+000	0.0000000E+000
3	0	0	0	0	0	0	928	0.000000000000000E+000	0.000000000000000E+000	0.0000000E+000	1.52949	2.92634e-05	14	0.000000000000000E+000	0	0.000000000000000E+000	0.000000000000000E+000	0.000000000000000E+000	0.000000000000000E+000	928	0.000000000000000E+000	1	0.000000000000000E+000	0.000000000000000E+000	0.000000000000000E+000	0.0000000E+000	0.0000000E+000	0.0000000E+000	0.000000000000000E+000	0.0000000E+000	0.0000000E+000	0.0000000E+000	1.52946	0.0000000E+000	0.0000000E+000	0.0000000E+000
3	0	0	0	0	0	0	944	0.000000000000000E+000	0.000000000000000E+000	0.0000000E+000	1.52942	0.000239325	14	0.000000000000000E+000	0	0.000000000000000E+000	0.000000000000000E+000	0.000000000000000E+000	0.000000000000000E+000	944	0.000000000000000E+000	1	0.000000000000000E+000	0.000000000000000E+000	0.000000000000000E+000	0.0000000E+000	0.0000000E+000	0.0000000E+000	0.000000000000000E+000	0.0000000E+000	0.0000000E+000	0.0000000E+000	1.52918	0.0000000E+000	0.0000000E+000	0.0000000E+000
3	0	0	0	0	0	0	960	0.000000000000000E+000	0.000000000000000E+000	0.0000000E+000	1.52934	0.000162939	14	0.000000000000000E+000	0	0.000000000000000E+000	0.000000000000000E+000	0.000000000000000E+000	0.000000000000000E+000	960	0.000000000000000E+000	1	0.000000000000000E+000	0.000000000000000E+000	0.000000000000000E+000	0.0000000E+000	0.0000000E+000	0.0000000E+000	0.000000000000000E+000	0.0000000E+000	0.0000000E+000	0.0000000E+000	1.52918	0.0000000E+000	0.0000000E+000	0.0000000E+000
3	0	0	0	0	0	0	976	0.000000000000000E+000	0.000000000000000E+000	0.0000000E+000	1.52923	-8.53157e-05	14	0.000000000000000E+000	0	0.000000000000000E+000	0.000000000000000E+000	0.000000000000000E+000	0.000000000000000E+000	976	0.000000000000000E+000	1	0.000000000000000E+000	0.000000000000000E+000	0.000000000000000E+000	0.0000000E+000	0.0000000E+000	0.0000000E+000	0.000000000000000E+000	0.0000000E+000	0.0000000E+000	0.0000000E+000	1.52931	0.0000000E+000	0.0000000E+000	0.0000000E+000
3	0	0	0	0	0	0	992	0.000000000000000E+000	0.000000000000000E+000	0.0000000E+000	1.52924	8.6553e-05	14	0.000000000000000E+000	0	0.000000000000000E+000	0.000000000000000E+000	0.000000000000000E+000	0.000000000000000E+000	992	0.000000000000000E+000	1	0.000000000000000E+000	0.000000000000000E+000	0.000000000000000E+000	0.0000000E+000	0.0000000E+000	0.0000000E+000	0.000000000000000E+000	0.0000000E+000	0.0000000E+000	0.0000000E+000	1.52916	0.0000000E+000	0.0000000E+000	0.0000000E+000
3	0	0	0	0	0	0	1008	0.000000000000000E+000	0.000000000000000E+000	0.0000000E+000	1.52911	1.01669e-05	14	0.000000000000000E+000	0	0.000000000000000E+000	0.000000000000000E+000	0.000000000000000E+000	0.000000000000000E+000	1008	0.000000000000000E+000	1	0.000000000000000E+000	0.000000000000000E+000	0.000000000000000E+000	0.0000000E+000	0.0000000E+000	0.0000000E+000	0.000000000000000E+000	0.0000000E+000	0.0000000E+000	0.0000000E+000	1.5291	0.0000000E+000	0.0000000E+000	0.0000000E+000
3	0	0	0	0	0	0	1024	0.000000000000000E+000	0.000000000000000E+000	0.0000000E+000	1.52905	8.6553e-05	14	0.000000000000000E+000	0	0.000000000000000E+000	0.000000000000000E+000	0.000000000000000E+000	0.000000000000000E+000	1024	0.000000000000000E+000	1	0.000000000000000E+000	0.000000000000000E+000	0.000000000000000E+000	0.0000000E+000	0.0000000E+000	0.0000000E+000	0.000000000000000E+000	0.0000000E+000	0.0000000E+000	0.0000000E+000	1.52897	0.0000000E+000	0.0000000E+000	0.0000000E+000
3	0	0	0	0	0	0	1040	0.000000000000000E+000	0.000000000000000E+000	0.0000000E+000	1.52907	8.6553e-05	14	0.000000000000000E+000	0	0.000000000000000E+000	0.000000000000000E+000	0.000000000000000E+000	0.000000000000000E+000	1040	0.000000000000000E+000	1	0.000000000000000E+000	0.000000000000000E+000	0.000000000000000E+000	0.0000000E+000	0.0000000E+000	0.0000000E+000	0.000000000000000E+000	0.0000000E+000	0.0000000E+000	0.0000000E+000	1.52899	0.0000000E+000	0.0000000E+000	0.0000000E+000
3	0	0	0	0	0	0	1056	0.000000000000000E+000	0.000000000000000E+000	0.0000000E+000	1.52903	-2.80262e-05	14	0.000000000000000E+000	0	0.000000000000000E+000	0.000000000000000E+000	0.000000000000000E+000	0.000000000000000E+000	1056	0.000000000000000E+000	1	0.000000000000000E+000	0.000000000000000E+000	0.000000000000000E+000	0.0000000E+000	0.0000000E+000	0.0000000E+000	0.000000000000000E+000	0.0000000E+000	0.0000000E+000	0.0000000E+000	1.52906	0.0000000E+000	0.0000000E+000	0.0000000E+000
3	0	0	0	0	0	0	1072	0.000000000000000E+000	0.000000000000000E+000	0.0000000E+000	1.52903	0.000124746	14	0.000000000000000E+000	0	0.000000000000000E+000	0.000000000000000E+000	0.000000000000000E+000	0.000000000000000E+000	1072	0.000000000000000E+000	1	0.000000000000000E+000	0.000000000000000E+000	0.000000000000000E+000	0.0000000E+000	0.0000000E+000	0.0000000E+000	0.000000000000000E+000	0.0000000E+000	0.0000000E+000	0.0000000E+000	1.52891	0.0000000E+000	0.0000000E+000	0.0000000E+000
3	0	0	0	0	0	0	1088	0.000000000000000E+000	0.000000000000000E+000	0.0000000E+000	1.52898	-0.000104412	14	0.000000000000000E+000	0	0.000000000000000E+000	0.000000000000000E+000	0.000000000000000E+000	0.000000000000000E+000	1088	0.000000000000000E+000	1	0.000000000000000E+000	0.000000000000000E+000	0.000000000000000E+000	0.0000000E+000	0.0000000E+000	0.0000000E+000	0.000000000000000E+000	0.0000000E+000	0.0000000E+000	0.0000000E+000	1.52908	0.0000000E+000	0.0000000E+000	0.0000000E+000
3	0	0	0	0	0	0	1104	0.000000000000000E+000	0.000000000000000E+000	0.0000000E+000	1.52879	-2.80262e-05	14	0.000000000000000E+000	0	0.000000000000000E+000	0.000000000000000E+000	0.000000000000000E+000	0.000000000000000E+000	1104	0.000000000000000E+000	1	0.000000000000000E+000	0.000000000000000E+000	0.000000000000000E+000	0.0000000E+000	0.0000000E+000	0.0000000E+000	0.000000000000000E+000	0.0000000E+000	0.0000000E+000	0.0000000E+000	1.52881	0.0000000E+000	0.0000000E+000	0.0000000E+000
3	0	0	0	0	0	0	1120	0.000000000000000E+000	0.000000000000000E+000	0.0000000E+000	1.52896	0.000124746	14	0.000000000000000E+000	0	0.000000000000000E+000	0.000000000000000E+000	0.000000000000000E+000	0.000000000000000E+000	1120	0.000000000000000E+000	1	0.000000000000000E+000	0.000000000000000E+000	0.000000000000000E+000	0.0000000E+000	0.0000000E+000	0.0000000E+000	0.000000000000000E+000	0.0000000E+000	0.0000000E+000	0.0000000E+000	1.52883	0.0000000E+000	0.0000000E+000	0.0000000E+000
3	0	0	0	0	0	0	1136	0.000000000000000E+000	0.000000000000000E+000	0.0000000E+000	1.5289	0.000162939	14	0.000000000000000E+000	0	0.000000000000000E+000	0.000000000000000E+000	0.000000000000000E+000	0.000000000000000E+000	1136	0.000000000000000E+000	1	0.000000000000000E+000	0.000000000000000E+000	0.000000000000000E+000	0.0000000E+000	0.0000000E+000	0.0000000E+000	0.000000000000000E+000	0.0000000E+000	0.0000000E+000	0.0000000E+000	1.52874	0.0000000E+000	0.0000000E+000	0.0000000E+000
3	0	0	0	0	0	0	1152	0.000000000000000E+000	0.000000000000000E+000	0.0000000E+000	1.52877	0.000162939	14	0.000000000000000E+000	0	0.000000000000000E+000	0.000000000000000E+000	0.000000000000000E+000	0.000000000000000E+000	1152	0.000000000000000E+000	1	0.000000000000000E+000	0.000000000000000E+000	0.000000000000000E+000	0.0000000E+000	0.0000000E+000	0.0000000E+000	0.000000000000000E+000	0.0000000E+000	0.0000000E+000	0.0000000E+000	1.5286	0.0000000E+000	0.0000000E+000	0.0000000E+000
3	0	0	0	0	0	0	1168	0.000000000000000E+000	0.000000000000000E+000	0.0000000E+000	1.52865	1.01669e-05	14	0.000000000000000E+000	0	0.000000000000000E+000	0.000000000000000E+000	0.000000000000000E+000	0.000000000000000E+000	1168	0.000000000000000E+000	1	0.000000000000000E+000	0.000000000000000E+000	0.000000000000000E+000	0.0000000E+000	0.0000000E+000	0.0000000E+000	0.000000000000000E+000	0.0000000E+000	0.0000000E+000	0.0000000E+000	1.52864	0.0000000E+000	0.0000000E+000	0.0000000E+000
3	0	0	0	0	0	0	1184	0.000000000000000E+000	0.000000000000000E+000	0.0000000E+000	1.52852	2.92634e-05	14	0.000000000000000E+000	0	0.000000000000000E+000	0.000000000000000E+000	0.000000000000000E+000	0.000000000000000E+000	1184	0.000000000000000E+000	1	0.000000000000000E+000	0.000000000000000E+000	0.000000000000000E+000	0.0000000E+000	0.0000000E+000	0.0000000E+000	0.000000000000000E+000	0.0000000E+000	0.0000000E+000	0.0000000E+000	1.52849	0.0000000E+000	0.0000000E+000	0.0000000E+000
3	0	0	0	0	0	0	1200	0.000000000000000E+000	0.000000000000000E+000	0.0000000E+000	1.52861	4.83599e-05	14	0.000000000000000E+000	0	0.000000000000000E+000	0.000000000000000E+000	0.000000000000000E+000	0.000000000000000E+000	1200	0.000000000000000E+000	1	0.000000000000000E+000	0.000000000000000E+000	0.000000000000000E+000	0.0000000E+000	0.0000000E+000	0.0000000E+000	0.000000000000000E+000	0.0000000E+000	0.0000000E+000	0.0000000E+000	1.52857	0.0000000E+000	0.0000000E+000	0.0000000E+000
3	0	0	0	0	0	0	1216	0.000000000000000E+000	0.000000000000000E+000	0.0000000E+000	1.52858	-8.92964e-06	14	0.000000000000000E+000	0	0.000000000000000E+000	0.000000000000000E+000	0.000000000000000E+000	0.000000000000000E+000	1216	0.000000000000000E+000	1	0.000000000000000E+000	0.000000000000000E+000	0.000000000000000E+000	0.0000000E+000	0.0000000E+000	0.0000000E+000	0.000000000000000E+000	0.0000000E+000	0.0000000E+000	0.0000000E+000	1.52859	0.0000000E+000	0.0000000E+000	0.0000000E+000
3	0	0	0	0	0	0	1232	0.000000000000000E+000	0.000000000000000E+000	0.0000000E+000	1.52852	0.000105649	14	0.000000000000000E+000	0	0.000000000000000E+000	0.000000000000000E+000	0.000000000000000E+000	0.000000000000000E+000	1232	0.000000000000000E+000	1	0.000000000000000E+000	0.000000000000000E+000	0.000000000000000E+000	0.0000000E+000	0.0000000E+000	0.0000000E+000	0.000000000000000E+000	0.0000000E+000	0.0000000E+000	0.0000000E+000	1.52841	0.0000000E+000	0.0000000E+000	0.0000000E+000
3	0	0	0	0	0	0	1248	0.000000000000000E+000	0.000000000000000E+000	0.0000000E+000	1.52833	-4.71227e-05	14	0.000000000000000E+000	0	0.000000000000000E+000	0.000000000000000E+000	0.000000000000000E+000	0.000000000000000E+000	1248	0.000000000000000E+000	1	0.000000000000000E+000	0.000000000000000E+000	0.000000000000000E+000	0.0000000E+000	0.0000000E+000	0.0000000E+000	0.000000000000000E+000	0.0000000E+000	0.0000000E+000	0.0000000E+000	1.52838	0.0000000E+000	0.0000000E+000	0.0000000E+000
3	0	0	0	0	0	0	1264	0.000000000000000E+000	0.000000000000000E+000	0.0000000E+000	1.52842	-8.53157e-05	14	0.000000000000000E+000	0	0.000000000000000E+000	0.000000000000000E+000	0.000000000000000E+000	0.000000000000000E+000	1264	0.000000000000000E+000	1	0.000000000000000E+000	0.000000000000000E+000	0.000000000000000E+000	0.0000000E+000	0.0000000E+000	0.0000000E+000	0.000000000000000E+000	0.0000000E+000	0.0000000E+000	0.0000000E+000	1.52851	0.0000000E+000	0.0000000E+000	0.0000000E+000
3	0	0	0	0	0	0	1280	0.000000000000000E+000	0.000000000000000E+000	0.0000000E+000	1.52831	6.74564e-05	14	0.000000000000000E+000	0	0.000000000000000E+000	0.000000000000000E+000	0.000000000000000E+000	0.000000000000000E+000	1280	0.000000000000000E+000	1	0.000000000000000E+000	0.000000000000000E+000	0.000000000000000E+000	0.0000000E+000	0.0000000E+000	0.0000000E+000	0.000000000000000E+000	0.0000000E+000	0.0000000E+000	0.0000000E+000	1.52824	0.0000000E+000	0.0000000E+000	0.0000000E+000
3	0	0	0	0	0	0	1296	0.000000000000000E+000	0.000000000000000E+000	0.0000000E+000	1.52827	-0.000104412	14	0.000000000000000E+000	0	0.000000000000000E+000	0.000000000000000E+000	0.000000000000000E+000	0.000000000000000E+000	1296	0.000000000000000E+000	1	0.000000000000000E+000	0.000000000000000E+000	0.000000000000000E+000	0.0000000E+000	0.0000000E+000	0.0000000E+000	0.000000000000000E+000	0.0000000E+000	0.0000000E+000	0.0000000E+000	1.52838	0.0000000E+000	0.0000000E+000	0.0000000E+000
3	0	0	0	0	0	0	1312	0.000000000000000E+000	0.000000000000000E+000	0.0000000E+000	1.52814	-2.80262e-05	14	0.000000000000000E+000	0	0.000000000000000E+000	0.000000000000000E+000	0.000000000000000E+000	0.000000000000000E+000	1312	0.000000000000000E+000	1	0.000000000000000E+000	0.000000000000000E+000	0.000000000000000E+000	0.0000000E+000	0.0000000E+000	0.0000000E+000	0.000000000000000E+000	0.0000000E+000	0.0000000E+000	0.0000000E+000	1.52816	0.0000000E+000	0.0000000E+000	0.0000000E+000
3	0	0	0	0	0	0	1328	0.000000000000000E+000	0.000000000000000E+000	0.0000000E+000	1.52821	1.01669e-05	14	0.000000000000000E+000	0	0.000000000000000E+000	0.000000000000000E+000	0.000000000000000E+000	0.000000000000000E+000	1328	0.000000000000000E+000	1	0.000000000000000E+000	0.000000000000000E+000	0.000000000000000E+000	0.0000000E+000	0.0000000E+000	0.0000000E+000	0.000000000000000E+000	0.0000000E+000	0.0000000E+000	0.0000000E+000	1.5282	0.0000000E+000	0.0000000E+000	0.0000000E+000
3	0	0	0	0	0	0	1344	0.000000000000000E+000	0.000000000000000E+000	0.0000000E+000	1.52816	2.92634e-05	14	0.000000000000000E+000	0	0.000000000000000E+000	0.000000000000000E+000	0.000000000000000E+000	0.000000000000000E+000	1344	0.000000000000000E+000	1	0.000000000000000E+000	0.000000000000000E+000	0.000000000000000E+000	0.0000000E+000	0.0000000E+000	0.0000000E+000	0.000000000000000E+000	0.0000000E+000	0.0000000E+000	0.0000000E+000	1.52813	0.0000000E+000	0.0000000E+000	0.0000000E+000
3	0	0	0	0	0	0	1360	0.000000000000000E+000	0.000000000000000E+000	0.0000000E+000	1.52787	2.92634e-05	14	0.000000000000000E+000	0	0.000000000000000E+000	0.000000000000000E+000	0.000000000000000E+000	0.000000000000000E+000	1360	0.000000000000000E+000	1	0.000000000000000E+000	0.000000000000000E+000	0.000000000000000E+000	0.0000000E+000	0.0000000E+000	0.0000000E+000	0.000000000000000E+000	0.0000000E+000	0.0000000E+000	0.0000000E+000	1.52784	0.0000000E+000	0.0000000E+000	0.0000000E+000
3	0	0	0	0	0	0	1376	0.000000000000000E+000	0.000000000000000E+000	0.0000000E+000	1.52812	-2.80262e-05	14	0.000000000000000E+000	0	0.000000000000000E+000	0.000000000000000E+000	0.000000000000000E+000	0.000000000000000E+000	1376	0.000000000000000E+000	1	0.000000000000000E+000	0.000000000000000E+000	0.000000000000000E+000	0.0000000E+000	0.0000000E+000	0.0000000E+000	0.000000000000000E+000	0.0000000E+000	0.0000000E+000	0.0000000E+000	1.52815	0.0000000E+000	0.0000000E+000	0.0000000E+000
3	0	0	0	0	0	0	1392	0.000000000000000E+000	0.000000000000000E+000	0.0000000E+000	1.528	8.6553e-05	14	0.000000000000000E+000	0	0.000000000000000E+000	0.000000000000000E+000	0.000000000000000E+000	0.000000000000000E+000	1392	0.000000000000000E+000	1	0.000000000000000E+000	0.000000000000000E+000	0.000000000000000E+000	0.0000000E+000	0.0000000E+000	0.0000000E+000	0.000000000000000E+000	0.0000000E+000	0.0000000E+000	0.0000000E+000	1.52792	0.0000000E+000	0.0000000E+000	0.0000000E+000
3	0	0	0	0	0	0	1408	0.000000000000000E+000	0.000000000000000E+000	0.0000000E+000	1.528	-4.71227e-05	14	0.000000000000000E+000	0	0.000000000000000E+000	0.000000000000000E+000	0.000000000000000E+000	0.000000000000000E+000	1408	0.000000000000000E+000	1	0.000000000000000E+000	0.000000000000000E+000	0.000000000000000E+000	0.0000000E+000	0.0000000E+000	0.0000000E+000	0.000000000000000E+000	0.0000000E+000	0.0000000E+000	0.0000000E+000	1.52805	0.0000000E+000	0.0000000E+000	0.0000000E+000
3	0	0	0	0	0	0	1424	0.000000000000000E+000	0.000000000000000E+000	0.0000000E+000	1.52777	2.92634e-05	14	0.000000000000000E+000	0	0.000000000000000E+000	0.000000000000000E+000	0.000000000000000E+000	0.000000000000000E+000	1424	0.000000000000000E+000	1	0.000000000000000E+000	0.000000000000000E+000	0.000000000000000E+000	0.0000000E+000	0.0000000E+000	0.0000000E+000	0.000000000000000E+000	0.0000000E+000	0.0000000E+000	0.0000000E+000	1.52774	0.0000000E+000	0.0000000E+000	0.0000000E+000
3	0	0	0	0	0	0	1440	0.000000000000000E+000	0.000000000000000E+000	0.0000000E+000	1.52783	2.92634e-05	14	0.000000000000000E+000	0	0.000000000000000E+000	0.000000000000000E+000	0.000000000000000E+000	0.000000000000000E+000	1440	0.000000000000000E+000	1	0.000000000000000E+000	0.000000000000000E+000	0.000000000000000E+000	0.0000000E+000	0.0000000E+000	0.0000000E+000	0.000000000000000E+000	0.0000000E+000	0.0000000E+000	0.0000000E+000	1.5278	0.0000000E+000	0.0000000E+000	0.0000000E+000
3	0	0	0	0	0	0	1456	0.000000000000000E+000	0.000000000000000E+000	0.0000000E+000	1.52783	-6.62192e-05	14	0.000000000000000E+000	0	0.000000000000000E+000	0.000000000000000E+000	0.000000000000000E+000	0.000000000000000E+000	1456	0.000000000000000E+000	1	0.000000000000000E+000	0.000000000000000E+000	0.000000000000000E+000	0.0000000E+000	0.0000000E+000	0.0000000E+000	0.000000000000000E+000	0.0000000E+000	0.0000000E+000	0.0000000E+000	1.5279	0.0000000E+000	0.0000000E+000	0.0000000E+000
3	0	0	0	0	0	0	1472	0.000000000000000E+000	0.000000000000000E+000	0.0000000E+000	1.52766	4.83599e-05	14	0.000000000000000E+000	0	0.000000000000000E+000	0.000000000000000E+000	0.000000000000000E+000	0.000000000000000E+000	1472	0.000000000000000E+000	1	0.000000000000000E+000	0.000000000000000E+000	0.000000000000000E+000	0.0000000E+000	0.0000000E+000	0.0000000E+000	0.000000000000000E+000	0.0000000E+000	0.0000000E+000	0.0000000E+000	1.52761	0.0000000E+000	0.0000000E+000	0.0000000E+000
3	0	0	0	0	0	0	1488	0.000000000000000E+000	0.000000000000000E+000	0.0000000E+000	1.52775	0.000105649	14	0.000000000000000E+000	0	0.000000000000000E+000	0.000000000000000E+000	0.000000000000000E+000	0.000000000000000E+000	1488	0.000000000000000E+000	1	0.000000000000000E+000	0.000000000000000E+000	0.000000000000000E+000	0.0000000E+000	0.0000000E+000	0.0000000E+000	0.000000000000000E+000	0.0000000E+000	0.0000000E+000	0.0000000E+000	1.52765	0.0000000E+000	0.0000000E+000	0.0000000E+000
3	0	0	0	0	0	0	1504	0.000000000000000E+000	0.000000000000000E+000	0.0000000E+000	1.52762	-6.62192e-05	14	0.000000000000000E+000	0	0.000000000000000E+000	0.000000000000000E+000	0.000000000000000E+000	0.000000000000000E+000	1504	0.000000000000000E+000	1	0.000000000000000E+000	0.000000000000000E+000	0.000000000000000E+000	0.0000000E+000	0.0000000E+000	0.0000000E+000	0.000000000000000E+000	0.0000000E+000	0.0000000E+000	0.0000000E+000	1.52769	0.0000000E+000	0.0000000E+000	0.0000000E+000
3	0	0	0	0	0	0	1520	0.000000000000000E+000	0.000000000000000E+000	0.0000000E+000	1.52747	4.83599e-05	14	0.000000000000000E+000	0	0.000000000000000E+000	0.000000000000000E+000	0.000000000000000E+000	0.000000000000000E+000	1520	0.000000000000000E+000	1	0.000000000000000E+000	0.000000000000000E+000	0.000000000000000E+000	0.0000000E+000	0.0000000E+000	0.0000000E+000	0.000000000000000E+000	0.0000000E+000	0.0000000E+000	0.0000000E+000	1.52742	0.0000000E+000	0.0000000E+000	0.0000000E+000
3	0	0	0	0	0	0	1536	0.000000000000000E+000	0.000000000000000E+000	0.0000000E+000	1.52739	4.83599e-05	14	0.000000000000000E+000	0	0.000000000000000E+000	0.000000000000000E+000	0.000000000000000E+000	0.000000000000000E+000	1536	0.000000000000000E+000	1	0.000000000000000E+000	0.000000000000000E+000	0.000000000000000E+000	0.0000000E+000	0.0000000E+000	0.0000000E+000	0.000000000000000E+000	0.0000000E+000	0.0000000E+000	0.0000000E+000	1.52734	0.0000000E+000	0.0000000E+000	0.0000000E+000
3	0	0	0	0	0	0	1552	0.000000000000000E+000	0.000000000000000E+000	0.0000000E+000	1.52737	2.92634e-05	14	0.000000000000000E+000	0	0.000000000000000E+000	0.000000000000000E+000	0.000000000000000E+000	0.000000000000000E+000	1552	0.000000000000000E+000	1	0.000000000000000E+000	0.000000000000000E+000	0.000000000000000E+000	0.0000000E+000	0.0000000E+000	0.0000000E+000	0.000000000000000E+000	0.0000000E+000	0.0000000E+000	0.0000000E+000	1.52734	0.0000000E+000	0.0000000E+000	0.0000000E+000
3	0	0	0	0	0	0	1568	0.000000000000000E+000	0.000000000000000E+000	0.0000000E+000	1.52745	8.6553e-05	14	0.000000000000000E+000	0	0.000000000000000E+000	0.000000000000000E+000	0.000000000000000E+000	0.000000000000000E+000	1568	0.000000000000000E+000	1	0.000000000000000E+000	0.000000000000000E+000	0.000000000000000E+000	0.0000000E+000	0.0000000E+000	0.0000000E+000	0.000000000000000E+000	0.0000000E+000	0.0000000E+000	0.0000000E+000	1.52736	0.0000000E+000	0.0000000E+000	0.0000000E+000
3	0	0	0	0	0	0	1580.16	0.000000000000000E+000	0.000000000000000E+000	0.0000000E+000	1.52739	6.74564e-05	14	0.000000000000000E+000	0	0.000000000000000E+000	0.000000000000000E+000	0.000000000000000E+000	0.000000000000000E+000	1580.16	0.000000000000000E+000	1	0.000000000000000E+000	0.000000000000000E+000	0.000000000000000E+000	0.0000000E+000	0.0000000E+000	0.0000000E+000	0.000000000000000E+000	0.0000000E+000	0.0000000E+000	0.0000000E+000	1.52732	0.0000000E+000	0.0000000E+000	0.0000000E+000