File: docs/examples/opeando_xrd/IS17_D/Echem/B/ZMO_D_C03.mpt
EC-Lab ASCII FILE
Nb header lines : 84

Galvanostatic Cycling with Potential Limitation

Run on channel : 3 (SN 37153)
User :
CE vs. WE compliance from -10 V to 10 V
Electrode connection : standard
Potential control : Ewe
Ewe ctrl range : min = 0.00 V, max = 5.00 V
Safety Limits :
	Do not start on E overload
Acquisition started on : 09/23/2025 16:37:38.524
Technique started on : 09/23/2025 16:37:38.524
Loaded Setting File :  L:\projects\cycle2025-II\20250340008-atejeroplaza\DATA\elChem\16_FC_NP47_fresh_4p3V_C16_cell22.mps
Saved on :
	File : ZMO_D_C03.mpr
	Directory : L:\projects\cycle2025-II\20250340211-lsimonelli\DATA\elchem\
	Host : 84.89.224.156
Device : VSP (SN 1760)
Address : 10.0.48.120
EC-LAB for windows v11.61 (software)
Internet server v11.61 (firmware)
Command interpretor v11.61 (firmware)
Electrode material : NMF111_FC
Initial state : x=1
Electrolyte : NaPF6 ECDEC
Comments : Cell: MSPD_06
Comments : N/P 0.47
Comments : aged 100 cycles 4.3V
Comments : mAM=6.504mg
Mass of active material : 6.504 mg
 at x = 1.000
Molecular weight of active material (at x = 0) : 87.930 g/mol
Atomic weight of intercalated ion : 22.990 g/mol
Acquisition started at : xo = 1.000
Number of e- transfered per intercalated ion : 1
for DX = 1, DQ = 1.572 mA.h
Battery capacity : 1.572 mA.h
Electrode surface area : 1.000 cm²
Characteristic mass : 6.504 mg
Volume (V) : 0.001 cm³
Record Ece
Text export
   Mode : Standard
   Time format : Elapsed
Cycle Definition : Charge/Discharge alternance
Ns                  0                   1                   2
Set I/C             I                   I                   I
Is                  0.000               -100.000            100.000
unit Is             mA                  µA                  µA
vs.                 <None>              <None>              <None>
N                   1.00                16.10               16.10
I sign              > 0                 < 0                 < 0
t1 (h:m:s)          0:00:0.0000         10:00:0.0000        10:00:0.0000
I Range             100 µA              100 µA              100 µA
Bandwidth           5                   5                   5
dE1 (mV)            0.00                0.00                0.00
dt1 (s)             0.0000              10.0000             10.0000
EM (V)              0.000               0.900               1.850
tM (h:m:s)          0:00:0.0000         0:00:0.0000         0:00:0.0000
Im                  0.000               0.000               0.000
unit Im             mA                  mA                  mA
dI/dt               0.000               0.000               0.000
dunit dI/dt         mA/s                mA/s                mA/s
E range min (V)     0.000               0.000               0.000
E range max (V)     5.000               5.000               5.000
dq                  0.000               1.000               1.000
unit dq             mA.h                mA.h                mA.h
dtq (s)             0.0000              60.0000             60.0000
dQM                 0.000               0.000               0.000
unit dQM            mA.h                mA.h                mA.h
dxM                 0.000               0.000               0.000
delta SoC (%)       pass                pass                pass
tR (h:m:s)          100:00:10.0000      0:00:0.0000         0:00:0.0000
dER/dt (mV/h)       0.0                 0.0                 0.0
dER (mV)            0.00                0.00                0.00
dtR (s)             1.0000              10.0000             10.0000
EL (V)              pass                pass                pass
goto Ns'            0                   1                   1
nc cycles           0                   0                   10

mode	ox/red	error	control changes	Ns changes	counter inc.	Ns	time/s	dq/mA.h	(Q-Qo)/mA.h	control/V/mA	Ewe/V	Ece/V	I Range	Q charge/discharge/mA.h	half cycle	Energy we charge/W.h	Energy we discharge/W.h	Capacitance charge/µF	Capacitance discharge/µF	step time/s	<I>/mA	x	Q discharge/mA.h	Q charge/mA.h	Capacity/mA.h	Efficiency/%	control/V	control/mA	cycle number	Pwe/W	Pce/W	Pwe-ce/W	Ewe-Ece/V	Rwe/Ohm	Rce/Ohm	Rwe-ce/Ohm
3	0	0	0	0	0	0	0.000000000000000E+000	0.000000000000000E+000	0.000000000000000E+000	0.0000000E+000	1.52726	6.74564e-05	14	0.000000000000000E+000	0	0.000000000000000E+000	0.000000000000000E+000	0.000000000000000E+000	0.000000000000000E+000	0.000000000000000E+000	0.000000000000000E+000	1	0.000000000000000E+000	0.000000000000000E+000	0.000000000000000E+000	0.0000000E+000	0.0000000E+000	0.0000000E+000	0.000000000000000E+000	0.0000000E+000	0.0000000E+000	0.0000000E+000	1.52719	0.0000000E+000	0.0000000E+000	0.0000000E+000
3	0	0	0	0	0	0	60	0.000000000000000E+000	0.000000000000000E+000	0.0000000E+000	1.52709	-4.71227e-05	14	0.000000000000000E+000	0	0.000000000000000E+000	0.000000000000000E+000	0.000000000000000E+000	0.000000000000000E+000	60	0.000000000000000E+000	1	0.000000000000000E+000	0.000000000000000E+000	0.000000000000000E+000	0.0000000E+000	0.0000000E+000	0.0000000E+000	0.000000000000000E+000	0.0000000E+000	0.0000000E+000	0.0000000E+000	1.52713	0.0000000E+000	0.0000000E+000	0.0000000E+000
3	0	0	0	0	0	0	120	0.000000000000000E+000	0.000000000000000E+000	0.0000000E+000	1.52697	0.000143843	14	0.000000000000000E+000	0	0.000000000000000E+000	0.000000000000000E+000	0.000000000000000E+000	0.000000000000000E+000	120	0.000000000000000E+000	1	0.000000000000000E+000	0.000000000000000E+000	0.000000000000000E+000	0.0000000E+000	0.0000000E+000	0.0000000E+000	0.000000000000000E+000	0.0000000E+000	0.0000000E+000	0.0000000E+000	1.52683	0.0000000E+000	0.0000000E+000	0.0000000E+000
3	0	0	0	0	0	0	180	0.000000000000000E+000	0.000000000000000E+000	0.0000000E+000	1.52688	8.6553e-05	14	0.000000000000000E+000	0	0.000000000000000E+000	0.000000000000000E+000	0.000000000000000E+000	0.000000000000000E+000	180	0.000000000000000E+000	1	0.000000000000000E+000	0.000000000000000E+000	0.000000000000000E+000	0.0000000E+000	0.0000000E+000	0.0000000E+000	0.000000000000000E+000	0.0000000E+000	0.0000000E+000	0.0000000E+000	1.52679	0.0000000E+000	0.0000000E+000	0.0000000E+000
3	0	0	0	0	0	0	240	0.000000000000000E+000	0.000000000000000E+000	0.0000000E+000	1.52655	8.6553e-05	14	0.000000000000000E+000	0	0.000000000000000E+000	0.000000000000000E+000	0.000000000000000E+000	0.000000000000000E+000	240	0.000000000000000E+000	1	0.000000000000000E+000	0.000000000000000E+000	0.000000000000000E+000	0.0000000E+000	0.0000000E+000	0.0000000E+000	0.000000000000000E+000	0.0000000E+000	0.0000000E+000	0.0000000E+000	1.52647	0.0000000E+000	0.0000000E+000	0.0000000E+000
3	0	0	0	0	0	0	300	0.000000000000000E+000	0.000000000000000E+000	0.0000000E+000	1.5264	-6.62192e-05	14	0.000000000000000E+000	0	0.000000000000000E+000	0.000000000000000E+000	0.000000000000000E+000	0.000000000000000E+000	300	0.000000000000000E+000	1	0.000000000000000E+000	0.000000000000000E+000	0.000000000000000E+000	0.0000000E+000	0.0000000E+000	0.0000000E+000	0.000000000000000E+000	0.0000000E+000	0.0000000E+000	0.0000000E+000	1.52647	0.0000000E+000	0.0000000E+000	0.0000000E+000
3	0	0	0	0	0	0	360	0.000000000000000E+000	0.000000000000000E+000	0.0000000E+000	1.52625	6.74564e-05	14	0.000000000000000E+000	0	0.000000000000000E+000	0.000000000000000E+000	0.000000000000000E+000	0.000000000000000E+000	360	0.000000000000000E+000	1	0.000000000000000E+000	0.000000000000000E+000	0.000000000000000E+000	0.0000000E+000	0.0000000E+000	0.0000000E+000	0.000000000000000E+000	0.0000000E+000	0.0000000E+000	0.0000000E+000	1.52618	0.0000000E+000	0.0000000E+000	0.0000000E+000
3	0	0	0	0	0	0	420	0.000000000000000E+000	0.000000000000000E+000	0.0000000E+000	1.526	2.92634e-05	14	0.000000000000000E+000	0	0.000000000000000E+000	0.000000000000000E+000	0.000000000000000E+000	0.000000000000000E+000	420	0.000000000000000E+000	1	0.000000000000000E+000	0.000000000000000E+000	0.000000000000000E+000	0.0000000E+000	0.0000000E+000	0.0000000E+000	0.000000000000000E+000	0.0000000E+000	0.0000000E+000	0.0000000E+000	1.52597	0.0000000E+000	0.0000000E+000	0.0000000E+000
3	0	0	0	0	0	0	480	0.000000000000000E+000	0.000000000000000E+000	0.0000000E+000	1.52579	-0.000123509	14	0.000000000000000E+000	0	0.000000000000000E+000	0.000000000000000E+000	0.000000000000000E+000	0.000000000000000E+000	480	0.000000000000000E+000	1	0.000000000000000E+000	0.000000000000000E+000	0.000000000000000E+000	0.0000000E+000	0.0000000E+000	0.0000000E+000	0.000000000000000E+000	0.0000000E+000	0.0000000E+000	0.0000000E+000	1.52591	0.0000000E+000	0.0000000E+000	0.0000000E+000
3	0	0	0	0	0	0	540	0.000000000000000E+000	0.000000000000000E+000	0.0000000E+000	1.52575	-8.92964e-06	14	0.000000000000000E+000	0	0.000000000000000E+000	0.000000000000000E+000	0.000000000000000E+000	0.000000000000000E+000	540	0.000000000000000E+000	1	0.000000000000000E+000	0.000000000000000E+000	0.000000000000000E+000	0.0000000E+000	0.0000000E+000	0.0000000E+000	0.000000000000000E+000	0.0000000E+000	0.0000000E+000	0.0000000E+000	1.52576	0.0000000E+000	0.0000000E+000	0.0000000E+000
3	0	0	0	0	0	0	600	0.000000000000000E+000	0.000000000000000E+000	0.0000000E+000	1.5255	0.000143843	14	0.000000000000000E+000	0	0.000000000000000E+000	0.000000000000000E+000	0.000000000000000E+000	0.000000000000000E+000	600	0.000000000000000E+000	1	0.000000000000000E+000	0.000000000000000E+000	0.000000000000000E+000	0.0000000E+000	0.0000000E+000	0.0000000E+000	0.000000000000000E+000	0.0000000E+000	0.0000000E+000	0.0000000E+000	1.52536	0.0000000E+000	0.0000000E+000	0.0000000E+000
3	0	0	0	0	0	0	660	0.000000000000000E+000	0.000000000000000E+000	0.0000000E+000	1.52541	4.83599e-05	14	0.000000000000000E+000	0	0.000000000000000E+000	0.000000000000000E+000	0.000000000000000E+000	0.000000000000000E+000	660	0.000000000000000E+000	1	0.000000000000000E+000	0.000000000000000E+000	0.000000000000000E+000	0.0000000E+000	0.0000000E+000	0.0000000E+000	0.000000000000000E+000	0.0000000E+000	0.0000000E+000	0.0000000E+000	1.52536	0.0000000E+000	0.0000000E+000	0.0000000E+000
3	0	0	0	0	0	0	720	0.000000000000000E+000	0.000000000000000E+000	0.0000000E+000	1.5252	4.83599e-05	14	0.000000000000000E+000	0	0.000000000000000E+000	0.000000000000000E+000	0.000000000000000E+000	0.000000000000000E+000	720	0.000000000000000E+000	1	0.000000000000000E+000	0.000000000000000E+000	0.000000000000000E+000	0.0000000E+000	0.0000000E+000	0.0000000E+000	0.000000000000000E+000	0.0000000E+000	0.0000000E+000	0.0000000E+000	1.52515	0.0000000E+000	0.0000000E+000	0.0000000E+000
3	0	0	0	0	0	0	780	0.000000000000000E+000	0.000000000000000E+000	0.0000000E+000	1.52487	6.74564e-05	14	0.000000000000000E+000	0	0.000000000000000E+000	0.000000000000000E+000	0.000000000000000E+000	0.000000000000000E+000	780	0.000000000000000E+000	1	0.000000000000000E+000	0.000000000000000E+000	0.000000000000000E+000	0.0000000E+000	0.0000000E+000	0.0000000E+000	0.000000000000000E+000	0.0000000E+000	0.0000000E+000	0.0000000E+000	1.5248	0.0000000E+000	0.0000000E+000	0.0000000E+000
3	0	0	0	0	0	0	840	0.000000000000000E+000	0.000000000000000E+000	0.0000000E+000	1.52481	2.92634e-05	14	0.000000000000000E+000	0	0.000000000000000E+000	0.000000000000000E+000	0.000000000000000E+000	0.000000000000000E+000	840	0.000000000000000E+000	1	0.000000000000000E+000	0.000000000000000E+000	0.000000000000000E+000	0.0000000E+000	0.0000000E+000	0.0000000E+000	0.000000000000000E+000	0.0000000E+000	0.0000000E+000	0.0000000E+000	1.52478	0.0000000E+000	0.0000000E+000	0.0000000E+000
3	0	0	0	0	0	0	900	0.000000000000000E+000	0.000000000000000E+000	0.0000000E+000	1.52464	2.92634e-05	14	0.000000000000000E+000	0	0.000000000000000E+000	0.000000000000000E+000	0.000000000000000E+000	0.000000000000000E+000	900	0.000000000000000E+000	1	0.000000000000000E+000	0.000000000000000E+000	0.000000000000000E+000	0.0000000E+000	0.0000000E+000	0.0000000E+000	0.000000000000000E+000	0.0000000E+000	0.0000000E+000	0.0000000E+000	1.52461	0.0000000E+000	0.0000000E+000	0.0000000E+000
3	0	0	0	0	0	0	960	0.000000000000000E+000	0.000000000000000E+000	0.0000000E+000	1.52451	2.92634e-05	14	0.000000000000000E+000	0	0.000000000000000E+000	0.000000000000000E+000	0.000000000000000E+000	0.000000000000000E+000	960	0.000000000000000E+000	1	0.000000000000000E+000	0.000000000000000E+000	0.000000000000000E+000	0.0000000E+000	0.0000000E+000	0.0000000E+000	0.000000000000000E+000	0.0000000E+000	0.0000000E+000	0.0000000E+000	1.52448	0.0000000E+000	0.0000000E+000	0.0000000E+000
3	0	0	0	0	0	0	1020	0.000000000000000E+000	0.000000000000000E+000	0.0000000E+000	1.52422	0.000105649	14	0.000000000000000E+000	0	0.000000000000000E+000	0.000000000000000E+000	0.000000000000000E+000	0.000000000000000E+000	1020	0.000000000000000E+000	1	0.000000000000000E+000	0.000000000000000E+000	0.000000000000000E+000	0.0000000E+000	0.0000000E+000	0.0000000E+000	0.000000000000000E+000	0.0000000E+000	0.0000000E+000	0.0000000E+000	1.52412	0.0000000E+000	0.0000000E+000	0.0000000E+000
3	0	0	0	0	0	0	1080	0.000000000000000E+000	0.000000000000000E+000	0.0000000E+000	1.52403	6.74564e-05	14	0.000000000000000E+000	0	0.000000000000000E+000	0.000000000000000E+000	0.000000000000000E+000	0.000000000000000E+000	1080	0.000000000000000E+000	1	0.000000000000000E+000	0.000000000000000E+000	0.000000000000000E+000	0.0000000E+000	0.0000000E+000	0.0000000E+000	0.000000000000000E+000	0.0000000E+000	0.0000000E+000	0.0000000E+000	1.52396	0.0000000E+000	0.0000000E+000	0.0000000E+000
3	0	0	0	0	0	0	1140	0.000000000000000E+000	0.000000000000000E+000	0.0000000E+000	1.52403	8.6553e-05	14	0.000000000000000E+000	0	0.000000000000000E+000	0.000000000000000E+000	0.000000000000000E+000	0.000000000000000E+000	1140	0.000000000000000E+000	1	0.000000000000000E+000	0.000000000000000E+000	0.000000000000000E+000	0.0000000E+000	0.0000000E+000	0.0000000E+000	0.000000000000000E+000	0.0000000E+000	0.0000000E+000	0.0000000E+000	1.52394	0.0000000E+000	0.0000000E+000	0.0000000E+000
3	0	0	0	0	0	0	1200	0.000000000000000E+000	0.000000000000000E+000	0.0000000E+000	1.52382	1.01669e-05	14	0.000000000000000E+000	0	0.000000000000000E+000	0.000000000000000E+000	0.000000000000000E+000	0.000000000000000E+000	1200	0.000000000000000E+000	1	0.000000000000000E+000	0.000000000000000E+000	0.000000000000000E+000	0.0000000E+000	0.0000000E+000	0.0000000E+000	0.000000000000000E+000	0.0000000E+000	0.0000000E+000	0.0000000E+000	1.52381	0.0000000E+000	0.0000000E+000	0.0000000E+000
3	0	0	0	0	0	0	1260	0.000000000000000E+000	0.000000000000000E+000	0.0000000E+000	1.52357	2.92634e-05	14	0.000000000000000E+000	0	0.000000000000000E+000	0.000000000000000E+000	0.000000000000000E+000	0.000000000000000E+000	1260	0.000000000000000E+000	1	0.000000000000000E+000	0.000000000000000E+000	0.000000000000000E+000	0.0000000E+000	0.0000000E+000	0.0000000E+000	0.000000000000000E+000	0.0000000E+000	0.0000000E+000	0.0000000E+000	1.52354	0.0000000E+000	0.0000000E+000	0.0000000E+000
3	0	0	0	0	0	0	1320	0.000000000000000E+000	0.000000000000000E+000	0.0000000E+000	1.52342	-2.80262e-05	14	0.000000000000000E+000	0	0.000000000000000E+000	0.000000000000000E+000	0.000000000000000E+000	0.000000000000000E+000	1320	0.000000000000000E+000	1	0.000000000000000E+000	0.000000000000000E+000	0.000000000000000E+000	0.0000000E+000	0.0000000E+000	0.0000000E+000	0.000000000000000E+000	0.0000000E+000	0.0000000E+000	0.0000000E+000	1.52345	0.0000000E+000	0.0000000E+000	0.0000000E+000
3	0	0	0	0	0	0	1380	0.000000000000000E+000	0.000000000000000E+000	0.0000000E+000	1.52327	-8.92964e-06	14	0.000000000000000E+000	0	0.000000000000000E+000	0.000000000000000E+000	0.000000000000000E+000	0.000000000000000E+000	1380	0.000000000000000E+000	1	0.000000000000000E+000	0.000000000000000E+000	0.000000000000000E+000	0.0000000E+000	0.0000000E+000	0.0000000E+000	0.000000000000000E+000	0.0000000E+000	0.0000000E+000	0.0000000E+000	1.52328	0.0000000E+000	0.0000000E+000	0.0000000E+000
3	0	0	0	0	0	0	1440	0.000000000000000E+000	0.000000000000000E+000	0.0000000E+000	1.52306	0.000105649	14	0.000000000000000E+000	0	0.000000000000000E+000	0.000000000000000E+000	0.000000000000000E+000	0.000000000000000E+000	1440	0.000000000000000E+000	1	0.000000000000000E+000	0.000000000000000E+000	0.000000000000000E+000	0.0000000E+000	0.0000000E+000	0.0000000E+000	0.000000000000000E+000	0.0000000E+000	0.0000000E+000	0.0000000E+000	1.52295	0.0000000E+000	0.0000000E+000	0.0000000E+000
3	0	0	0	0	0	0	1500	0.000000000000000E+000	0.000000000000000E+000	0.0000000E+000	1.52292	-2.80262e-05	14	0.000000000000000E+000	0	0.000000000000000E+000	0.000000000000000E+000	0.000000000000000E+000	0.000000000000000E+000	1500	0.000000000000000E+000	1	0.000000000000000E+000	0.000000000000000E+000	0.000000000000000E+000	0.0000000E+000	0.0000000E+000	0.0000000E+000	0.000000000000000E+000	0.0000000E+000	0.0000000E+000	0.0000000E+000	1.52295	0.0000000E+000	0.0000000E+000	0.0000000E+000
3	0	0	0	0	0	0	1560	0.000000000000000E+000	0.000000000000000E+000	0.0000000E+000	1.52283	-6.62192e-05	14	0.000000000000000E+000	0	0.000000000000000E+000	0.000000000000000E+000	0.000000000000000E+000	0.000000000000000E+000	1560	0.000000000000000E+000	1	0.000000000000000E+000	0.000000000000000E+000	0.000000000000000E+000	0.0000000E+000	0.0000000E+000	0.0000000E+000	0.000000000000000E+000	0.0000000E+000	0.0000000E+000	0.0000000E+000	1.52289	0.0000000E+000	0.0000000E+000	0.0000000E+000
3	0	0	0	0	0	0	1620	0.000000000000000E+000	0.000000000000000E+000	0.0000000E+000	1.52252	2.92634e-05	14	0.000000000000000E+000	0	0.000000000000000E+000	0.000000000000000E+000	0.000000000000000E+000	0.000000000000000E+000	1620	0.000000000000000E+000	1	0.000000000000000E+000	0.000000000000000E+000	0.000000000000000E+000	0.0000000E+000	0.0000000E+000	0.0000000E+000	0.000000000000000E+000	0.0000000E+000	0.0000000E+000	0.0000000E+000	1.52249	0.0000000E+000	0.0000000E+000	0.0000000E+000
3	0	0	0	0	0	0	1680	0.000000000000000E+000	0.000000000000000E+000	0.0000000E+000	1.5226	4.83599e-05	14	0.000000000000000E+000	0	0.000000000000000E+000	0.000000000000000E+000	0.000000000000000E+000	0.000000000000000E+000	1680	0.000000000000000E+000	1	0.000000000000000E+000	0.000000000000000E+000	0.000000000000000E+000	0.0000000E+000	0.0000000E+000	0.0000000E+000	0.000000000000000E+000	0.0000000E+000	0.0000000E+000	0.0000000E+000	1.52255	0.0000000E+000	0.0000000E+000	0.0000000E+000
3	0	0	0	0	0	0	1740	0.000000000000000E+000	0.000000000000000E+000	0.0000000E+000	1.52229	-8.92964e-06	14	0.000000000000000E+000	0	0.000000000000000E+000	0.000000000000000E+000	0.000000000000000E+000	0.000000000000000E+000	1740	0.000000000000000E+000	1	0.000000000000000E+000	0.000000000000000E+000	0.000000000000000E+000	0.0000000E+000	0.0000000E+000	0.0000000E+000	0.000000000000000E+000	0.0000000E+000	0.0000000E+000	0.0000000E+000	1.5223	0.0000000E+000	0.0000000E+000	0.0000000E+000
3	0	0	0	0	0	0	1800	0.000000000000000E+000	0.000000000000000E+000	0.0000000E+000	1.52218	8.6553e-05	14	0.000000000000000E+000	0	0.000000000000000E+000	0.000000000000000E+000	0.000000000000000E+000	0.000000000000000E+000	1800	0.000000000000000E+000	1	0.000000000000000E+000	0.000000000000000E+000	0.000000000000000E+000	0.0000000E+000	0.0000000E+000	0.0000000E+000	0.000000000000000E+000	0.0000000E+000	0.0000000E+000	0.0000000E+000	1.52209	0.0000000E+000	0.0000000E+000	0.0000000E+000
3	0	0	0	0	0	0	1860	0.000000000000000E+000	0.000000000000000E+000	0.0000000E+000	1.52189	-6.62192e-05	14	0.000000000000000E+000	0	0.000000000000000E+000	0.000000000000000E+000	0.000000000000000E+000	0.000000000000000E+000	1860	0.000000000000000E+000	1	0.000000000000000E+000	0.000000000000000E+000	0.000000000000000E+000	0.0000000E+000	0.0000000E+000	0.0000000E+000	0.000000000000000E+000	0.0000000E+000	0.0000000E+000	0.0000000E+000	1.52196	0.0000000E+000	0.0000000E+000	0.0000000E+000
3	0	0	0	0	0	0	1920	0.000000000000000E+000	0.000000000000000E+000	0.0000000E+000	1.52172	0.000124746	14	0.000000000000000E+000	0	0.000000000000000E+000	0.000000000000000E+000	0.000000000000000E+000	0.000000000000000E+000	1920	0.000000000000000E+000	1	0.000000000000000E+000	0.000000000000000E+000	0.000000000000000E+000	0.0000000E+000	0.0000000E+000	0.0000000E+000	0.000000000000000E+000	0.0000000E+000	0.0000000E+000	0.0000000E+000	1.5216	0.0000000E+000	0.0000000E+000	0.0000000E+000
3	0	0	0	0	0	0	1980	0.000000000000000E+000	0.000000000000000E+000	0.0000000E+000	1.52161	4.83599e-05	14	0.000000000000000E+000	0	0.000000000000000E+000	0.000000000000000E+000	0.000000000000000E+000	0.000000000000000E+000	1980	0.000000000000000E+000	1	0.000000000000000E+000	0.000000000000000E+000	0.000000000000000E+000	0.0000000E+000	0.0000000E+000	0.0000000E+000	0.000000000000000E+000	0.0000000E+000	0.0000000E+000	0.0000000E+000	1.52156	0.0000000E+000	0.0000000E+000	0.0000000E+000
3	0	0	0	0	0	0	2040	0.000000000000000E+000	0.000000000000000E+000	0.0000000E+000	1.52153	-2.80262e-05	14	0.000000000000000E+000	0	0.000000000000000E+000	0.000000000000000E+000	0.000000000000000E+000	0.000000000000000E+000	2040	0.000000000000000E+000	1	0.000000000000000E+000	0.000000000000000E+000	0.000000000000000E+000	0.0000000E+000	0.0000000E+000	0.0000000E+000	0.000000000000000E+000	0.0000000E+000	0.0000000E+000	0.0000000E+000	1.52156	0.0000000E+000	0.0000000E+000	0.0000000E+000
3	0	0	0	0	0	0	2100	0.000000000000000E+000	0.000000000000000E+000	0.0000000E+000	1.52124	-2.80262e-05	14	0.000000000000000E+000	0	0.000000000000000E+000	0.000000000000000E+000	0.000000000000000E+000	0.000000000000000E+000	2100	0.000000000000000E+000	1	0.000000000000000E+000	0.000000000000000E+000	0.000000000000000E+000	0.0000000E+000	0.0000000E+000	0.0000000E+000	0.000000000000000E+000	0.0000000E+000	0.0000000E+000	0.0000000E+000	1.52127	0.0000000E+000	0.0000000E+000	0.0000000E+000
3	0	0	0	0	0	0	2160	0.000000000000000E+000	0.000000000000000E+000	0.0000000E+000	1.52113	6.74564e-05	14	0.000000000000000E+000	0	0.000000000000000E+000	0.000000000000000E+000	0.000000000000000E+000	0.000000000000000E+000	2160	0.000000000000000E+000	1	0.000000000000000E+000	0.000000000000000E+000	0.000000000000000E+000	0.0000000E+000	0.0000000E+000	0.0000000E+000	0.000000000000000E+000	0.0000000E+000	0.0000000E+000	0.0000000E+000	1.52106	0.0000000E+000	0.0000000E+000	0.0000000E+000
3	0	0	0	0	0	0	2220	0.000000000000000E+000	0.000000000000000E+000	0.0000000E+000	1.52092	-6.62192e-05	14	0.000000000000000E+000	0	0.000000000000000E+000	0.000000000000000E+000	0.000000000000000E+000	0.000000000000000E+000	2220	0.000000000000000E+000	1	0.000000000000000E+000	0.000000000000000E+000	0.000000000000000E+000	0.0000000E+000	0.0000000E+000	0.0000000E+000	0.000000000000000E+000	0.0000000E+000	0.0000000E+000	0.0000000E+000	1.52098	0.0000000E+000	0.0000000E+000	0.0000000E+000
3	0	0	0	0	0	0	2280	0.000000000000000E+000	0.000000000000000E+000	0.0000000E+000	1.52094	-8.92964e-06	14	0.000000000000000E+000	0	0.000000000000000E+000	0.000000000000000E+000	0.000000000000000E+000	0.000000000000000E+000	2280	0.000000000000000E+000	1	0.000000000000000E+000	0.000000000000000E+000	0.000000000000000E+000	0.0000000E+000	0.0000000E+000	0.0000000E+000	0.000000000000000E+000	0.0000000E+000	0.0000000E+000	0.0000000E+000	1.52095	0.0000000E+000	0.0000000E+000	0.0000000E+000
3	0	0	0	0	0	0	2340	0.000000000000000E+000	0.000000000000000E+000	0.0000000E+000	1.52073	-8.92964e-06	14	0.000000000000000E+000	0	0.000000000000000E+000	0.000000000000000E+000	0.000000000000000E+000	0.000000000000000E+000	2340	0.000000000000000E+000	1	0.000000000000000E+000	0.000000000000000E+000	0.000000000000000E+000	0.0000000E+000	0.0000000E+000	0.0000000E+000	0.000000000000000E+000	0.0000000E+000	0.0000000E+000	0.0000000E+000	1.52074	0.0000000E+000	0.0000000E+000	0.0000000E+000
3	0	0	0	0	0	0	2400	0.000000000000000E+000	0.000000000000000E+000	0.0000000E+000	1.52054	0.000143843	14	0.000000000000000E+000	0	0.000000000000000E+000	0.000000000000000E+000	0.000000000000000E+000	0.000000000000000E+000	2400	0.000000000000000E+000	1	0.000000000000000E+000	0.000000000000000E+000	0.000000000000000E+000	0.0000000E+000	0.0000000E+000	0.0000000E+000	0.000000000000000E+000	0.0000000E+000	0.0000000E+000	0.0000000E+000	1.52039	0.0000000E+000	0.0000000E+000	0.0000000E+000
3	0	0	0	0	0	0	2460	0.000000000000000E+000	0.000000000000000E+000	0.0000000E+000	1.52046	1.01669e-05	14	0.000000000000000E+000	0	0.000000000000000E+000	0.000000000000000E+000	0.000000000000000E+000	0.000000000000000E+000	2460	0.000000000000000E+000	1	0.000000000000000E+000	0.000000000000000E+000	0.000000000000000E+000	0.0000000E+000	0.0000000E+000	0.0000000E+000	0.000000000000000E+000	0.0000000E+000	0.0000000E+000	0.0000000E+000	1.52045	0.0000000E+000	0.0000000E+000	0.0000000E+000
3	0	0	0	0	0	0	2520	0.000000000000000E+000	0.000000000000000E+000	0.0000000E+000	1.52021	4.83599e-05	14	0.000000000000000E+000	0	0.000000000000000E+000	0.000000000000000E+000	0.000000000000000E+000	0.000000000000000E+000	2520	0.000000000000000E+000	1	0.000000000000000E+000	0.000000000000000E+000	0.000000000000000E+000	0.0000000E+000	0.0000000E+000	0.0000000E+000	0.000000000000000E+000	0.0000000E+000	0.0000000E+000	0.0000000E+000	1.52016	0.0000000E+000	0.0000000E+000	0.0000000E+000
3	0	0	0	0	0	0	2580	0.000000000000000E+000	0.000000000000000E+000	0.0000000E+000	1.51998	-8.92964e-06	14	0.000000000000000E+000	0	0.000000000000000E+000	0.000000000000000E+000	0.000000000000000E+000	0.000000000000000E+000	2580	0.000000000000000E+000	1	0.000000000000000E+000	0.000000000000000E+000	0.000000000000000E+000	0.0000000E+000	0.0000000E+000	0.0000000E+000	0.000000000000000E+000	0.0000000E+000	0.0000000E+000	0.0000000E+000	1.51999	0.0000000E+000	0.0000000E+000	0.0000000E+000
3	0	0	0	0	0	0	2640	0.000000000000000E+000	0.000000000000000E+000	0.0000000E+000	1.51979	4.83599e-05	14	0.000000000000000E+000	0	0.000000000000000E+000	0.000000000000000E+000	0.000000000000000E+000	0.000000000000000E+000	2640	0.000000000000000E+000	1	0.000000000000000E+000	0.000000000000000E+000	0.000000000000000E+000	0.0000000E+000	0.0000000E+000	0.0000000E+000	0.000000000000000E+000	0.0000000E+000	0.0000000E+000	0.0000000E+000	1.51974	0.0000000E+000	0.0000000E+000	0.0000000E+000
3	0	0	0	0	0	0	2700	0.000000000000000E+000	0.000000000000000E+000	0.0000000E+000	1.51971	-4.71227e-05	14	0.000000000000000E+000	0	0.000000000000000E+000	0.000000000000000E+000	0.000000000000000E+000	0.000000000000000E+000	2700	0.000000000000000E+000	1	0.000000000000000E+000	0.000000000000000E+000	0.000000000000000E+000	0.0000000E+000	0.0000000E+000	0.0000000E+000	0.000000000000000E+000	0.0000000E+000	0.0000000E+000	0.0000000E+000	1.51976	0.0000000E+000	0.0000000E+000	0.0000000E+000
3	0	0	0	0	0	0	2760	0.000000000000000E+000	0.000000000000000E+000	0.0000000E+000	1.51968	1.01669e-05	14	0.000000000000000E+000	0	0.000000000000000E+000	0.000000000000000E+000	0.000000000000000E+000	0.000000000000000E+000	2760	0.000000000000000E+000	1	0.000000000000000E+000	0.000000000000000E+000	0.000000000000000E+000	0.0000000E+000	0.0000000E+000	0.0000000E+000	0.000000000000000E+000	0.0000000E+000	0.0000000E+000	0.0000000E+000	1.51967	0.0000000E+000	0.0000000E+000	0.0000000E+000
3	0	0	0	0	0	0	2820	0.000000000000000E+000	0.000000000000000E+000	0.0000000E+000	1.51937	1.01669e-05	14	0.000000000000000E+000	0	0.000000000000000E+000	0.000000000000000E+000	0.000000000000000E+000	0.000000000000000E+000	2820	0.000000000000000E+000	1	0.000000000000000E+000	0.000000000000000E+000	0.000000000000000E+000	0.0000000E+000	0.0000000E+000	0.0000000E+000	0.000000000000000E+000	0.0000000E+000	0.0000000E+000	0.0000000E+000	1.51936	0.0000000E+000	0.0000000E+000	0.0000000E+000
3	0	0	0	0	0	0	2880	0.000000000000000E+000	0.000000000000000E+000	0.0000000E+000	1.5192	6.74564e-05	14	0.000000000000000E+000	0	0.000000000000000E+000	0.000000000000000E+000	0.000000000000000E+000	0.000000000000000E+000	2880	0.000000000000000E+000	1	0.000000000000000E+000	0.000000000000000E+000	0.000000000000000E+000	0.0000000E+000	0.0000000E+000	0.0000000E+000	0.000000000000000E+000	0.0000000E+000	0.0000000E+000	0.0000000E+000	1.51913	0.0000000E+000	0.0000000E+000	0.0000000E+000
3	0	0	0	0	0	0	2940	0.000000000000000E+000	0.000000000000000E+000	0.0000000E+000	1.51912	4.83599e-05	14	0.000000000000000E+000	0	0.000000000000000E+000	0.000000000000000E+000	0.000000000000000E+000	0.000000000000000E+000	2940	0.000000000000000E+000	1	0.000000000000000E+000	0.000000000000000E+000	0.000000000000000E+000	0.0000000E+000	0.0000000E+000	0.0000000E+000	0.000000000000000E+000	0.0000000E+000	0.0000000E+000	0.0000000E+000	1.51907	0.0000000E+000	0.0000000E+000	0.0000000E+000
3	0	0	0	0	0	0	3000	0.000000000000000E+000	0.000000000000000E+000	0.0000000E+000	1.51897	0.000124746	14	0.000000000000000E+000	0	0.000000000000000E+000	0.000000000000000E+000	0.000000000000000E+000	0.000000000000000E+000	3000	0.000000000000000E+000	1	0.000000000000000E+000	0.000000000000000E+000	0.000000000000000E+000	0.0000000E+000	0.0000000E+000	0.0000000E+000	0.000000000000000E+000	0.0000000E+000	0.0000000E+000	0.0000000E+000	1.51884	0.0000000E+000	0.0000000E+000	0.0000000E+000
3	0	0	0	0	0	0	3060	0.000000000000000E+000	0.000000000000000E+000	0.0000000E+000	1.51884	-6.62192e-05	14	0.000000000000000E+000	0	0.000000000000000E+000	0.000000000000000E+000	0.000000000000000E+000	0.000000000000000E+000	3060	0.000000000000000E+000	1	0.000000000000000E+000	0.000000000000000E+000	0.000000000000000E+000	0.0000000E+000	0.0000000E+000	0.0000000E+000	0.000000000000000E+000	0.0000000E+000	0.0000000E+000	0.0000000E+000	1.5189	0.0000000E+000	0.0000000E+000	0.0000000E+000
3	0	0	0	0	0	0	3120	0.000000000000000E+000	0.000000000000000E+000	0.0000000E+000	1.5188	-8.92964e-06	14	0.000000000000000E+000	0	0.000000000000000E+000	0.000000000000000E+000	0.000000000000000E+000	0.000000000000000E+000	3120	0.000000000000000E+000	1	0.000000000000000E+000	0.000000000000000E+000	0.000000000000000E+000	0.0000000E+000	0.0000000E+000	0.0000000E+000	0.000000000000000E+000	0.0000000E+000	0.0000000E+000	0.0000000E+000	1.51881	0.0000000E+000	0.0000000E+000	0.0000000E+000
3	0	0	0	0	0	0	3180	0.000000000000000E+000	0.000000000000000E+000	0.0000000E+000	1.51863	0.000105649	14	0.000000000000000E+000	0	0.000000000000000E+000	0.000000000000000E+000	0.000000000000000E+000	0.000000000000000E+000	3180	0.000000000000000E+000	1	0.000000000000000E+000	0.000000000000000E+000	0.000000000000000E+000	0.0000000E+000	0.0000000E+000	0.0000000E+000	0.000000000000000E+000	0.0000000E+000	0.0000000E+000	0.0000000E+000	1.51852	0.0000000E+000	0.0000000E+000	0.0000000E+000
3	0	0	0	0	0	0	3240	0.000000000000000E+000	0.000000000000000E+000	0.0000000E+000	1.51832	8.6553e-05	14	0.000000000000000E+000	0	0.000000000000000E+000	0.000000000000000E+000	0.000000000000000E+000	0.000000000000000E+000	3240	0.000000000000000E+000	1	0.000000000000000E+000	0.000000000000000E+000	0.000000000000000E+000	0.0000000E+000	0.0000000E+000	0.0000000E+000	0.000000000000000E+000	0.0000000E+000	0.0000000E+000	0.0000000E+000	1.51823	0.0000000E+000	0.0000000E+000	0.0000000E+000
3	0	0	0	0	0	0	3300	0.000000000000000E+000	0.000000000000000E+000	0.0000000E+000	1.5183	-8.92964e-06	14	0.000000000000000E+000	0	0.000000000000000E+000	0.000000000000000E+000	0.000000000000000E+000	0.000000000000000E+000	3300	0.000000000000000E+000	1	0.000000000000000E+000	0.000000000000000E+000	0.000000000000000E+000	0.0000000E+000	0.0000000E+000	0.0000000E+000	0.000000000000000E+000	0.0000000E+000	0.0000000E+000	0.0000000E+000	1.51831	0.0000000E+000	0.0000000E+000	0.0000000E+000
3	0	0	0	0	0	0	3360	0.000000000000000E+000	0.000000000000000E+000	0.0000000E+000	1.51819	4.83599e-05	14	0.000000000000000E+000	0	0.000000000000000E+000	0.000000000000000E+000	0.000000000000000E+000	0.000000000000000E+000	3360	0.000000000000000E+000	1	0.000000000000000E+000	0.000000000000000E+000	0.000000000000000E+000	0.0000000E+000	0.0000000E+000	0.0000000E+000	0.000000000000000E+000	0.0000000E+000	0.0000000E+000	0.0000000E+000	1.51814	0.0000000E+000	0.0000000E+000	0.0000000E+000
3	0	0	0	0	0	0	3420	0.000000000000000E+000	0.000000000000000E+000	0.0000000E+000	1.51803	1.01669e-05	14	0.000000000000000E+000	0	0.000000000000000E+000	0.000000000000000E+000	0.000000000000000E+000	0.000000000000000E+000	3420	0.000000000000000E+000	1	0.000000000000000E+000	0.000000000000000E+000	0.000000000000000E+000	0.0000000E+000	0.0000000E+000	0.0000000E+000	0.000000000000000E+000	0.0000000E+000	0.0000000E+000	0.0000000E+000	1.51802	0.0000000E+000	0.0000000E+000	0.0000000E+000
3	0	0	0	0	0	0	3480	0.000000000000000E+000	0.000000000000000E+000	0.0000000E+000	1.51782	0.000105649	14	0.000000000000000E+000	0	0.000000000000000E+000	0.000000000000000E+000	0.000000000000000E+000	0.000000000000000E+000	3480	0.000000000000000E+000	1	0.000000000000000E+000	0.000000000000000E+000	0.000000000000000E+000	0.0000000E+000	0.0000000E+000	0.0000000E+000	0.000000000000000E+000	0.0000000E+000	0.0000000E+000	0.0000000E+000	1.51772	0.0000000E+000	0.0000000E+000	0.0000000E+000
3	0	0	0	0	0	0	3540	0.000000000000000E+000	0.000000000000000E+000	0.0000000E+000	1.51746	4.83599e-05	14	0.000000000000000E+000	0	0.000000000000000E+000	0.000000000000000E+000	0.000000000000000E+000	0.000000000000000E+000	3540	0.000000000000000E+000	1	0.000000000000000E+000	0.000000000000000E+000	0.000000000000000E+000	0.0000000E+000	0.0000000E+000	0.0000000E+000	0.000000000000000E+000	0.0000000E+000	0.0000000E+000	0.0000000E+000	1.51741	0.0000000E+000	0.0000000E+000	0.0000000E+000
3	0	0	0	0	0	0	3600	0.000000000000000E+000	0.000000000000000E+000	0.0000000E+000	1.51744	0.000201132	14	0.000000000000000E+000	0	0.000000000000000E+000	0.000000000000000E+000	0.000000000000000E+000	0.000000000000000E+000	3600	0.000000000000000E+000	1	0.000000000000000E+000	0.000000000000000E+000	0.000000000000000E+000	0.0000000E+000	0.0000000E+000	0.0000000E+000	0.000000000000000E+000	0.0000000E+000	0.0000000E+000	0.0000000E+000	1.51724	0.0000000E+000	0.0000000E+000	0.0000000E+000
3	0	0	0	0	0	0	3660	0.000000000000000E+000	0.000000000000000E+000	0.0000000E+000	1.51721	-8.92964e-06	14	0.000000000000000E+000	0	0.000000000000000E+000	0.000000000000000E+000	0.000000000000000E+000	0.000000000000000E+000	3660	0.000000000000000E+000	1	0.000000000000000E+000	0.000000000000000E+000	0.000000000000000E+000	0.0000000E+000	0.0000000E+000	0.0000000E+000	0.000000000000000E+000	0.0000000E+000	0.0000000E+000	0.0000000E+000	1.51722	0.0000000E+000	0.0000000E+000	0.0000000E+000
3	0	0	0	0	0	0	3720	0.000000000000000E+000	0.000000000000000E+000	0.0000000E+000	1.5171	0.000201132	14	0.000000000000000E+000	0	0.000000000000000E+000	0.000000000000000E+000	0.000000000000000E+000	0.000000000000000E+000	3720	0.000000000000000E+000	1	0.000000000000000E+000	0.000000000000000E+000	0.000000000000000E+000	0.0000000E+000	0.0000000E+000	0.0000000E+000	0.000000000000000E+000	0.0000000E+000	0.0000000E+000	0.0000000E+000	1.5169	0.0000000E+000	0.0000000E+000	0.0000000E+000
3	0	0	0	0	0	0	3780	0.000000000000000E+000	0.000000000000000E+000	0.0000000E+000	1.51693	0.000124746	14	0.000000000000000E+000	0	0.000000000000000E+000	0.000000000000000E+000	0.000000000000000E+000	0.000000000000000E+000	3780	0.000000000000000E+000	1	0.000000000000000E+000	0.000000000000000E+000	0.000000000000000E+000	0.0000000E+000	0.0000000E+000	0.0000000E+000	0.000000000000000E+000	0.0000000E+000	0.0000000E+000	0.0000000E+000	1.5168	0.0000000E+000	0.0000000E+000	0.0000000E+000
3	0	0	0	0	0	0	3840	0.000000000000000E+000	0.000000000000000E+000	0.0000000E+000	1.51683	-6.62192e-05	14	0.000000000000000E+000	0	0.000000000000000E+000	0.000000000000000E+000	0.000000000000000E+000	0.000000000000000E+000	3840	0.000000000000000E+000	1	0.000000000000000E+000	0.000000000000000E+000	0.000000000000000E+000	0.0000000E+000	0.0000000E+000	0.0000000E+000	0.000000000000000E+000	0.0000000E+000	0.0000000E+000	0.0000000E+000	1.5169	0.0000000E+000	0.0000000E+000	0.0000000E+000
3	0	0	0	0	0	0	3900	0.000000000000000E+000	0.000000000000000E+000	0.0000000E+000	1.5166	-6.62192e-05	14	0.000000000000000E+000	0	0.000000000000000E+000	0.000000000000000E+000	0.000000000000000E+000	0.000000000000000E+000	3900	0.000000000000000E+000	1	0.000000000000000E+000	0.000000000000000E+000	0.000000000000000E+000	0.0000000E+000	0.0000000E+000	0.0000000E+000	0.000000000000000E+000	0.0000000E+000	0.0000000E+000	0.0000000E+000	1.51667	0.0000000E+000	0.0000000E+000	0.0000000E+000
3	0	0	0	0	0	0	3960	0.000000000000000E+000	0.000000000000000E+000	0.0000000E+000	1.51654	8.6553e-05	14	0.000000000000000E+000	0	0.000000000000000E+000	0.000000000000000E+000	0.000000000000000E+000	0.000000000000000E+000	3960	0.000000000000000E+000	1	0.000000000000000E+000	0.000000000000000E+000	0.000000000000000E+000	0.0000000E+000	0.0000000E+000	0.0000000E+000	0.000000000000000E+000	0.0000000E+000	0.0000000E+000	0.0000000E+000	1.51646	0.0000000E+000	0.0000000E+000	0.0000000E+000
3	0	0	0	0	0	0	4020	0.000000000000000E+000	0.000000000000000E+000	0.0000000E+000	1.51639	-8.92964e-06	14	0.000000000000000E+000	0	0.000000000000000E+000	0.000000000000000E+000	0.000000000000000E+000	0.000000000000000E+000	4020	0.000000000000000E+000	1	0.000000000000000E+000	0.000000000000000E+000	0.000000000000000E+000	0.0000000E+000	0.0000000E+000	0.0000000E+000	0.000000000000000E+000	0.0000000E+000	0.0000000E+000	0.0000000E+000	1.5164	0.0000000E+000	0.0000000E+000	0.0000000E+000
3	0	0	0	0	0	0	4080	0.000000000000000E+000	0.000000000000000E+000	0.0000000E+000	1.51633	4.83599e-05	14	0.000000000000000E+000	0	0.000000000000000E+000	0.000000000000000E+000	0.000000000000000E+000	0.000000000000000E+000	4080	0.000000000000000E+000	1	0.000000000000000E+000	0.000000000000000E+000	0.000000000000000E+000	0.0000000E+000	0.0000000E+000	0.0000000E+000	0.000000000000000E+000	0.0000000E+000	0.0000000E+000	0.0000000E+000	1.51629	0.0000000E+000	0.0000000E+000	0.0000000E+000
3	0	0	0	0	0	0	4140	0.000000000000000E+000	0.000000000000000E+000	0.0000000E+000	1.51612	4.83599e-05	14	0.000000000000000E+000	0	0.000000000000000E+000	0.000000000000000E+000	0.000000000000000E+000	0.000000000000000E+000	4140	0.000000000000000E+000	1	0.000000000000000E+000	0.000000000000000E+000	0.000000000000000E+000	0.0000000E+000	0.0000000E+000	0.0000000E+000	0.000000000000000E+000	0.0000000E+000	0.0000000E+000	0.0000000E+000	1.51608	0.0000000E+000	0.0000000E+000	0.0000000E+000
3	0	0	0	0	0	0	4200	0.000000000000000E+000	0.000000000000000E+000	0.0000000E+000	1.51607	-8.92964e-06	14	0.000000000000000E+000	0	0.000000000000000E+000	0.000000000000000E+000	0.000000000000000E+000	0.000000000000000E+000	4200	0.000000000000000E+000	1	0.000000000000000E+000	0.000000000000000E+000	0.000000000000000E+000	0.0000000E+000	0.0000000E+000	0.0000000E+000	0.000000000000000E+000	0.0000000E+000	0.0000000E+000	0.0000000E+000	1.51608	0.0000000E+000	0.0000000E+000	0.0000000E+000
3	0	0	0	0	0	0	4260	0.000000000000000E+000	0.000000000000000E+000	0.0000000E+000	1.51584	0.000105649	14	0.000000000000000E+000	0	0.000000000000000E+000	0.000000000000000E+000	0.000000000000000E+000	0.000000000000000E+000	4260	0.000000000000000E+000	1	0.000000000000000E+000	0.000000000000000E+000	0.000000000000000E+000	0.0000000E+000	0.0000000E+000	0.0000000E+000	0.000000000000000E+000	0.0000000E+000	0.0000000E+000	0.0000000E+000	1.51573	0.0000000E+000	0.0000000E+000	0.0000000E+000
3	0	0	0	0	0	0	4320	0.000000000000000E+000	0.000000000000000E+000	0.0000000E+000	1.5154	1.01669e-05	14	0.000000000000000E+000	0	0.000000000000000E+000	0.000000000000000E+000	0.000000000000000E+000	0.000000000000000E+000	4320	0.000000000000000E+000	1	0.000000000000000E+000	0.000000000000000E+000	0.000000000000000E+000	0.0000000E+000	0.0000000E+000	0.0000000E+000	0.000000000000000E+000	0.0000000E+000	0.0000000E+000	0.0000000E+000	1.51539	0.0000000E+000	0.0000000E+000	0.0000000E+000
3	0	0	0	0	0	0	4380	0.000000000000000E+000	0.000000000000000E+000	0.0000000E+000	1.51551	0.000143843	14	0.000000000000000E+000	0	0.000000000000000E+000	0.000000000000000E+000	0.000000000000000E+000	0.000000000000000E+000	4380	0.000000000000000E+000	1	0.000000000000000E+000	0.000000000000000E+000	0.000000000000000E+000	0.0000000E+000	0.0000000E+000	0.0000000E+000	0.000000000000000E+000	0.0000000E+000	0.0000000E+000	0.0000000E+000	1.51537	0.0000000E+000	0.0000000E+000	0.0000000E+000
3	0	0	0	0	0	0	4440	0.000000000000000E+000	0.000000000000000E+000	0.0000000E+000	1.51528	0.000143843	14	0.000000000000000E+000	0	0.000000000000000E+000	0.000000000000000E+000	0.000000000000000E+000	0.000000000000000E+000	4440	0.000000000000000E+000	1	0.000000000000000E+000	0.000000000000000E+000	0.000000000000000E+000	0.0000000E+000	0.0000000E+000	0.0000000E+000	0.000000000000000E+000	0.0000000E+000	0.0000000E+000	0.0000000E+000	1.51514	0.0000000E+000	0.0000000E+000	0.0000000E+000
3	0	0	0	0	0	0	4500	0.000000000000000E+000	0.000000000000000E+000	0.0000000E+000	1.51525	-2.80262e-05	14	0.000000000000000E+000	0	0.000000000000000E+000	0.000000000000000E+000	0.000000000000000E+000	0.000000000000000E+000	4500	0.000000000000000E+000	1	0.000000000000000E+000	0.000000000000000E+000	0.000000000000000E+000	0.0000000E+000	0.0000000E+000	0.0000000E+000	0.000000000000000E+000	0.0000000E+000	0.0000000E+000	0.0000000E+000	1.51527	0.0000000E+000	0.0000000E+000	0.0000000E+000
3	0	0	0	0	0	0	4560	0.000000000000000E+000	0.000000000000000E+000	0.0000000E+000	1.51505	6.74564e-05	14	0.000000000000000E+000	0	0.000000000000000E+000	0.000000000000000E+000	0.000000000000000E+000	0.000000000000000E+000	4560	0.000000000000000E+000	1	0.000000000000000E+000	0.000000000000000E+000	0.000000000000000E+000	0.0000000E+000	0.0000000E+000	0.0000000E+000	0.000000000000000E+000	0.0000000E+000	0.0000000E+000	0.0000000E+000	1.51499	0.0000000E+000	0.0000000E+000	0.0000000E+000
3	0	0	0	0	0	0	4620	0.000000000000000E+000	0.000000000000000E+000	0.0000000E+000	1.51483	2.92634e-05	14	0.000000000000000E+000	0	0.000000000000000E+000	0.000000000000000E+000	0.000000000000000E+000	0.000000000000000E+000	4620	0.000000000000000E+000	1	0.000000000000000E+000	0.000000000000000E+000	0.000000000000000E+000	0.0000000E+000	0.0000000E+000	0.0000000E+000	0.000000000000000E+000	0.0000000E+000	0.0000000E+000	0.0000000E+000	1.5148	0.0000000E+000	0.0000000E+000	0.0000000E+000
3	0	0	0	0	0	0	4680	0.000000000000000E+000	0.000000000000000E+000	0.0000000E+000	1.51488	-8.53157e-05	14	0.000000000000000E+000	0	0.000000000000000E+000	0.000000000000000E+000	0.000000000000000E+000	0.000000000000000E+000	4680	0.000000000000000E+000	1	0.000000000000000E+000	0.000000000000000E+000	0.000000000000000E+000	0.0000000E+000	0.0000000E+000	0.0000000E+000	0.000000000000000E+000	0.0000000E+000	0.0000000E+000	0.0000000E+000	1.51497	0.0000000E+000	0.0000000E+000	0.0000000E+000
3	0	0	0	0	0	0	4740	0.000000000000000E+000	0.000000000000000E+000	0.0000000E+000	1.51463	-2.80262e-05	14	0.000000000000000E+000	0	0.000000000000000E+000	0.000000000000000E+000	0.000000000000000E+000	0.000000000000000E+000	4740	0.000000000000000E+000	1	0.000000000000000E+000	0.000000000000000E+000	0.000000000000000E+000	0.0000000E+000	0.0000000E+000	0.0000000E+000	0.000000000000000E+000	0.0000000E+000	0.0000000E+000	0.0000000E+000	1.51466	0.0000000E+000	0.0000000E+000	0.0000000E+000
3	0	0	0	0	0	0	4800	0.000000000000000E+000	0.000000000000000E+000	0.0000000E+000	1.51439	2.92634e-05	14	0.000000000000000E+000	0	0.000000000000000E+000	0.000000000000000E+000	0.000000000000000E+000	0.000000000000000E+000	4800	0.000000000000000E+000	1	0.000000000000000E+000	0.000000000000000E+000	0.000000000000000E+000	0.0000000E+000	0.0000000E+000	0.0000000E+000	0.000000000000000E+000	0.0000000E+000	0.0000000E+000	0.0000000E+000	1.51436	0.0000000E+000	0.0000000E+000	0.0000000E+000
3	0	0	0	0	0	0	4860	0.000000000000000E+000	0.000000000000000E+000	0.0000000E+000	1.51442	-8.92964e-06	14	0.000000000000000E+000	0	0.000000000000000E+000	0.000000000000000E+000	0.000000000000000E+000	0.000000000000000E+000	4860	0.000000000000000E+000	1	0.000000000000000E+000	0.000000000000000E+000	0.000000000000000E+000	0.0000000E+000	0.0000000E+000	0.0000000E+000	0.000000000000000E+000	0.0000000E+000	0.0000000E+000	0.0000000E+000	1.51443	0.0000000E+000	0.0000000E+000	0.0000000E+000
3	0	0	0	0	0	0	4920	0.000000000000000E+000	0.000000000000000E+000	0.0000000E+000	1.51427	-8.92964e-06	14	0.000000000000000E+000	0	0.000000000000000E+000	0.000000000000000E+000	0.000000000000000E+000	0.000000000000000E+000	4920	0.000000000000000E+000	1	0.000000000000000E+000	0.000000000000000E+000	0.000000000000000E+000	0.0000000E+000	0.0000000E+000	0.0000000E+000	0.000000000000000E+000	0.0000000E+000	0.0000000E+000	0.0000000E+000	1.51428	0.0000000E+000	0.0000000E+000	0.0000000E+000
3	0	0	0	0	0	0	4980	0.000000000000000E+000	0.000000000000000E+000	0.0000000E+000	1.51404	-8.92964e-06	14	0.000000000000000E+000	0	0.000000000000000E+000	0.000000000000000E+000	0.000000000000000E+000	0.000000000000000E+000	4980	0.000000000000000E+000	1	0.000000000000000E+000	0.000000000000000E+000	0.000000000000000E+000	0.0000000E+000	0.0000000E+000	0.0000000E+000	0.000000000000000E+000	0.0000000E+000	0.0000000E+000	0.0000000E+000	1.51405	0.0000000E+000	0.0000000E+000	0.0000000E+000
3	0	0	0	0	0	0	5040	0.000000000000000E+000	0.000000000000000E+000	0.0000000E+000	1.51385	4.83599e-05	14	0.000000000000000E+000	0	0.000000000000000E+000	0.000000000000000E+000	0.000000000000000E+000	0.000000000000000E+000	5040	0.000000000000000E+000	1	0.000000000000000E+000	0.000000000000000E+000	0.000000000000000E+000	0.0000000E+000	0.0000000E+000	0.0000000E+000	0.000000000000000E+000	0.0000000E+000	0.0000000E+000	0.0000000E+000	1.5138	0.0000000E+000	0.0000000E+000	0.0000000E+000
3	0	0	0	0	0	0	5100	0.000000000000000E+000	0.000000000000000E+000	0.0000000E+000	1.51379	1.01669e-05	14	0.000000000000000E+000	0	0.000000000000000E+000	0.000000000000000E+000	0.000000000000000E+000	0.000000000000000E+000	5100	0.000000000000000E+000	1	0.000000000000000E+000	0.000000000000000E+000	0.000000000000000E+000	0.0000000E+000	0.0000000E+000	0.0000000E+000	0.000000000000000E+000	0.0000000E+000	0.0000000E+000	0.0000000E+000	1.51378	0.0000000E+000	0.0000000E+000	0.0000000E+000
3	0	0	0	0	0	0	5160	0.000000000000000E+000	0.000000000000000E+000	0.0000000E+000	1.5136	6.74564e-05	14	0.000000000000000E+000	0	0.000000000000000E+000	0.000000000000000E+000	0.000000000000000E+000	0.000000000000000E+000	5160	0.000000000000000E+000	1	0.000000000000000E+000	0.000000000000000E+000	0.000000000000000E+000	0.0000000E+000	0.0000000E+000	0.0000000E+000	0.000000000000000E+000	0.0000000E+000	0.0000000E+000	0.0000000E+000	1.51354	0.0000000E+000	0.0000000E+000	0.0000000E+000
3	0	0	0	0	0	0	5220	0.000000000000000E+000	0.000000000000000E+000	0.0000000E+000	1.51351	4.83599e-05	14	0.000000000000000E+000	0	0.000000000000000E+000	0.000000000000000E+000	0.000000000000000E+000	0.000000000000000E+000	5220	0.000000000000000E+000	1	0.000000000000000E+000	0.000000000000000E+000	0.000000000000000E+000	0.0000000E+000	0.0000000E+000	0.0000000E+000	0.000000000000000E+000	0.0000000E+000	0.0000000E+000	0.0000000E+000	1.51346	0.0000000E+000	0.0000000E+000	0.0000000E+000
3	0	0	0	0	0	0	5280	0.000000000000000E+000	0.000000000000000E+000	0.0000000E+000	1.51339	1.01669e-05	14	0.000000000000000E+000	0	0.000000000000000E+000	0.000000000000000E+000	0.000000000000000E+000	0.000000000000000E+000	5280	0.000000000000000E+000	1	0.000000000000000E+000	0.000000000000000E+000	0.000000000000000E+000	0.0000000E+000	0.0000000E+000	0.0000000E+000	0.000000000000000E+000	0.0000000E+000	0.0000000E+000	0.0000000E+000	1.51338	0.0000000E+000	0.0000000E+000	0.0000000E+000
3	0	0	0	0	0	0	5340	0.000000000000000E+000	0.000000000000000E+000	0.0000000E+000	1.51326	1.01669e-05	14	0.000000000000000E+000	0	0.000000000000000E+000	0.000000000000000E+000	0.000000000000000E+000	0.000000000000000E+000	5340	0.000000000000000E+000	1	0.000000000000000E+000	0.000000000000000E+000	0.000000000000000E+000	0.0000000E+000	0.0000000E+000	0.0000000E+000	0.000000000000000E+000	0.0000000E+000	0.0000000E+000	0.0000000E+000	1.51325	0.0000000E+000	0.0000000E+000	0.0000000E+000
3	0	0	0	0	0	0	5400	0.000000000000000E+000	0.000000000000000E+000	0.0000000E+000	1.51316	0.000124746	14	0.000000000000000E+000	0	0.000000000000000E+000	0.000000000000000E+000	0.000000000000000E+000	0.000000000000000E+000	5400	0.000000000000000E+000	1	0.000000000000000E+000	0.000000000000000E+000	0.000000000000000E+000	0.0000000E+000	0.0000000E+000	0.0000000E+000	0.000000000000000E+000	0.0000000E+000	0.0000000E+000	0.0000000E+000	1.51304	0.0000000E+000	0.0000000E+000	0.0000000E+000
3	0	0	0	0	0	0	5460	0.000000000000000E+000	0.000000000000000E+000	0.0000000E+000	1.51286	-8.92964e-06	14	0.000000000000000E+000	0	0.000000000000000E+000	0.000000000000000E+000	0.000000000000000E+000	0.000000000000000E+000	5460	0.000000000000000E+000	1	0.000000000000000E+000	0.000000000000000E+000	0.000000000000000E+000	0.0000000E+000	0.0000000E+000	0.0000000E+000	0.000000000000000E+000	0.0000000E+000	0.0000000E+000	0.0000000E+000	1.51287	0.0000000E+000	0.0000000E+000	0.0000000E+000
3	0	0	0	0	0	0	5520	0.000000000000000E+000	0.000000000000000E+000	0.0000000E+000	1.51288	-4.71227e-05	14	0.000000000000000E+000	0	0.000000000000000E+000	0.000000000000000E+000	0.000000000000000E+000	0.000000000000000E+000	5520	0.000000000000000E+000	1	0.000000000000000E+000	0.000000000000000E+000	0.000000000000000E+000	0.0000000E+000	0.0000000E+000	0.0000000E+000	0.000000000000000E+000	0.0000000E+000	0.0000000E+000	0.0000000E+000	1.51292	0.0000000E+000	0.0000000E+000	0.0000000E+000
3	0	0	0	0	0	0	5580	0.000000000000000E+000	0.000000000000000E+000	0.0000000E+000	1.51263	8.6553e-05	14	0.000000000000000E+000	0	0.000000000000000E+000	0.000000000000000E+000	0.000000000000000E+000	0.000000000000000E+000	5580	0.000000000000000E+000	1	0.000000000000000E+000	0.000000000000000E+000	0.000000000000000E+000	0.0000000E+000	0.0000000E+000	0.0000000E+000	0.000000000000000E+000	0.0000000E+000	0.0000000E+000	0.0000000E+000	1.51254	0.0000000E+000	0.0000000E+000	0.0000000E+000
3	0	0	0	0	0	0	5640	0.000000000000000E+000	0.000000000000000E+000	0.0000000E+000	1.51253	6.74564e-05	14	0.000000000000000E+000	0	0.000000000000000E+000	0.000000000000000E+000	0.000000000000000E+000	0.000000000000000E+000	5640	0.000000000000000E+000	1	0.000000000000000E+000	0.000000000000000E+000	0.000000000000000E+000	0.0000000E+000	0.0000000E+000	0.0000000E+000	0.000000000000000E+000	0.0000000E+000	0.0000000E+000	0.0000000E+000	1.51247	0.0000000E+000	0.0000000E+000	0.0000000E+000
3	0	0	0	0	0	0	5700	0.000000000000000E+000	0.000000000000000E+000	0.0000000E+000	1.51246	2.92634e-05	14	0.000000000000000E+000	0	0.000000000000000E+000	0.000000000000000E+000	0.000000000000000E+000	0.000000000000000E+000	5700	0.000000000000000E+000	1	0.000000000000000E+000	0.000000000000000E+000	0.000000000000000E+000	0.0000000E+000	0.0000000E+000	0.0000000E+000	0.000000000000000E+000	0.0000000E+000	0.0000000E+000	0.0000000E+000	1.51243	0.0000000E+000	0.0000000E+000	0.0000000E+000
1	0	0	1	0	0	1	6182.3	-0.000277968	-0.0130645	-0.1	1.42349	-8.92964e-06	13	-0.0130645	0	0.000000000000000E+000	1.89341e-05	0.000000000000000E+000	722161	6182.3	-0.100068	1.00831	0.0130645	0.000000000000000E+000	0.0130645	0.0000000E+000	0.0000000E+000	-0.1	0.000000000000000E+000	-0.000142447	8.93575e-10	-0.000142448	1.4235	14225.2	0.0892354	14225.3
1	0	0	1	0	0	1	6782.3	-0.00027797	-0.0297427	-0.1	1.38896	0.000143843	13	-0.0297427	0	0.000000000000000E+000	4.23533e-05	0.000000000000000E+000	1.07442e+06	6782.3	-0.100069	1.01893	0.0297427	0.000000000000000E+000	0.0297427	0.0000000E+000	0.0000000E+000	-0.1	0.000000000000000E+000	-0.000138992	-1.43942e-08	-0.000138978	1.38882	13880	1.43743	13878.6
1	0	0	1	0	0	1	7382.3	-0.00027797	-0.0464208	-0.1	1.36205	0.000162939	13	-0.0464208	0	0.000000000000000E+000	6.52961e-05	0.000000000000000E+000	1.32036e+06	7382.3	-0.100069	1.02954	0.0464208	0.000000000000000E+000	0.0464208	0.0000000E+000	0.0000000E+000	-0.1	0.000000000000000E+000	-0.0001363	-1.63052e-08	-0.000136283	1.36189	13611.1	1.62826	13609.5
1	0	0	1	0	0	1	7982.3	-0.000277969	-0.0630989	-0.1	1.32733	0.000239325	13	-0.0630989	0	0.000000000000000E+000	8.77314e-05	0.000000000000000E+000	1.40838e+06	7982.3	-0.100069	1.04015	0.0630989	0.000000000000000E+000	0.0630989	0.0000000E+000	0.0000000E+000	-0.1	0.000000000000000E+000	-0.000132825	-2.3949e-08	-0.000132801	1.32709	13264.2	2.3916	13261.8
1	0	0	1	0	0	1	8582.3	-0.00027797	-0.0797771	-0.1	1.29095	6.74564e-05	13	-0.0797771	0	0.000000000000000E+000	0.000109525	0.000000000000000E+000	1.4529e+06	8582.3	-0.100069	1.05076	0.0797771	0.000000000000000E+000	0.0797771	0.0000000E+000	0.0000000E+000	-0.1	0.000000000000000E+000	-0.000129184	-6.75031e-09	-0.000129177	1.29088	12900.6	0.674098	12899.9
1	0	0	1	0	0	1	9182.3	-0.000277971	-0.0964553	-0.1	1.31356	0.000105649	13	-0.0964553	0	0.000000000000000E+000	0.000131261	0.000000000000000E+000	1.98355e+06	9182.3	-0.100069	1.06138	0.0964553	0.000000000000000E+000	0.0964553	0.0000000E+000	0.0000000E+000	-0.1	0.000000000000000E+000	-0.000131447	-1.05723e-08	-0.000131437	1.31346	13126.5	1.05576	13125.4
1	0	0	1	0	0	1	9782.3	-0.000277969	-0.113133	-0.1	1.31274	8.6553e-05	13	-0.113133	0	0.000000000000000E+000	0.000153185	0.000000000000000E+000	2.31566e+06	9782.3	-0.100069	1.07199	0.113133	0.000000000000000E+000	0.113133	0.0000000E+000	0.0000000E+000	-0.1	0.000000000000000E+000	-0.000131364	-8.66124e-09	-0.000131356	1.31265	13118.4	0.864935	13117.5
1	0	0	1	0	0	1	10382.3	-0.00027797	-0.129812	-0.1	1.29504	4.83599e-05	13	-0.129812	0	0.000000000000000E+000	0.000174955	0.000000000000000E+000	2.41404e+06	10382.3	-0.100069	1.0826	0.129812	0.000000000000000E+000	0.129812	0.0000000E+000	0.0000000E+000	-0.1	0.000000000000000E+000	-0.000129593	-4.83934e-09	-0.000129588	1.29499	12941.4	0.483265	12940.9
1	0	0	1	0	0	1	10982.3	-0.000277967	-0.14649	-0.1	1.2319	1.01669e-05	13	-0.14649	0	0.000000000000000E+000	0.000196135	0.000000000000000E+000	2.05419e+06	10982.3	-0.100068	1.09321	0.14649	0.000000000000000E+000	0.14649	0.0000000E+000	0.0000000E+000	-0.1	0.000000000000000E+000	-0.000123274	-1.01738e-09	-0.000123273	1.23189	12310.5	0.101599	12310.4
1	1	0	0	1	0	2	11557.4	1.1041e-08	-0.162477	0.1	0.906431	-0.000432769	13	1.1041e-08	2	1.00079e-11	0.000000000000000E+000	0.000000000000000E+000	0.000000000000000E+000	0.000000000000000E+000	0.0496844	1.10339	0.000000000000000E+000	1.1041e-08	1.1041e-08	0.0000000E+000	0.0000000E+000	0.1	1	4.50355e-05	-2.15019e-08	4.5057e-05	0.906864	18243.8	8.71035	18252.5
1	1	0	1	0	0	2	14337.4	1.10109e-05	-0.151768	0.03	1.42878	-8.92964e-06	13	0.0107091	2	1.59068e-05	0.000000000000000E+000	73805.7	0.000000000000000E+000	2779.92	0.0299706	1.09657	0.000000000000000E+000	0.0107091	0.0107091	0.0000000E+000	0.0000000E+000	0.03	1	4.28215e-05	-2.67627e-10	4.28218e-05	1.42879	47672.9	0.297947	47673.2