File: docs/examples/XAS/Echem/Operando2/Cell4_Buffers+Fe2+/HAC_NH3_Fe_01_02_GCPL_C03.mpt
EC-Lab ASCII FILE
Nb header lines : 80

Galvanostatic Cycling with Potential Limitation

Run on channel : 3 (SN 52371)
User :
CE vs. WE compliance from -10 V to 10 V
Electrode connection : standard
Potential control : Ewe
Ewe ctrl range : min = 0.00 V, max = 3.00 V
Safety Limits :
	Do not start on E overload
Acquisition started on : 12/12/2025 12:29:39.154
Technique started on : 12/12/2025 13:45:37.221
Loaded Setting File :  L:\projects\cycle2025-II\20250340369-skhabazian\EC_lab\Cell C\CellC_01.mps
Saved on :
	File : HAC_NH3_Fe_01_02_GCPL_C03.mpr
	Directory : L:\projects\cycle2025-II\20250340369-skhabazian\EC_lab\Cell4_Buffers+Fe2+\
	Host : 84.89.228.57
Device : VSP (SN 2155)
Address : 10.0.48.130
EC-LAB for windows v11.61 (software)
Internet server v11.61 (firmware)
Command interpretor v11.61 (firmware)
Electrode material :
Initial state :
Electrolyte :
Comments :
Mass of active material : 0.001 mg
 at x = 0.000
Molecular weight of active material (at x = 0) : 0.001 g/mol
Atomic weight of intercalated ion : 0.001 g/mol
Acquisition started at : xo = 0.000
Number of e- transfered per intercalated ion : 1
for DX = 1, DQ = 26.802 mA.h
Battery capacity : 0.000 A.h
Electrode surface area : 0.000 cm²
Characteristic mass : 0.001 g
Volume (V) : 0.001 cm³
Text export
   Mode : Standard
   Time format : Absolute MMDDYYYY
Cycle Definition : Charge/Discharge alternance
Ns                  0                   1                   2
Set I/C             I                   I                   I
Is                  0.000               300.000             -300.000
unit Is             mA                  µA                  µA
vs.                 <None>              <None>              <None>
N                   1.00                1.00                1.00
I sign              > 0                 > 0                 > 0
t1 (h:m:s)          0:00:0.0000         4:00:0.0000         10:00:0.0000
I Range             1 mA                1 mA                1 mA
Bandwidth           5                   5                   5
dE1 (mV)            0.00                0.00                0.00
dt1 (s)             0.0000              2.0000              2.0000
EM (V)              0.000               2.200               0.900
tM (h:m:s)          0:00:0.0000         0:00:0.0000         0:00:0.0000
Im                  0.000               0.000               0.000
unit Im             mA                  mA                  mA
dI/dt               0.000               0.000               0.000
dunit dI/dt         mA/s                mA/s                mA/s
E range min (V)     0.000               0.000               0.000
E range max (V)     3.000               3.000               3.000
dq                  0.000               1.000               1.000
unit dq             A.h                 A.h                 A.h
dtq (s)             0.0000              120.0000            120.0000
dQM                 0.000               0.000               0.000
unit dQM            mA.h                mA.h                mA.h
dxM                 0.000               0.000               0.000
delta SoC (%)       pass                pass                pass
tR (h:m:s)          0:01:0.0000         0:00:0.0000         0:00:0.0000
dER/dt (mV/h)       0.0                 0.1                 0.1
dER (mV)            0.00                0.00                0.00
dtR (s)             1.0000              120.0000            120.0000
EL (V)              pass                pass                pass
goto Ns'            0                   0                   1
nc cycles           0                   0                   100

mode	ox/red	error	control changes	Ns changes	counter inc.	Ns	time/s	dq/mA.h	(Q-Qo)/mA.h	control/V/mA	Ewe/V	I Range	Q charge/discharge/mA.h	half cycle	Energy we charge/W.h	Energy we discharge/W.h	Capacitance charge/µF	Capacitance discharge/µF	step time/s	<I>/mA	x	Q discharge/mA.h	Q charge/mA.h	Capacity/mA.h	Efficiency/%	control/V	control/mA	cycle number	Pwe/W	Rwe/Ohm
3	0	0	0	0	0	0	12/12/2025 13:45:37.2207	0.000000000000000E+000	0.000000000000000E+000	0.0000000E+000	1.14107	14	0.000000000000000E+000	0	0.000000000000000E+000	0.000000000000000E+000	0.000000000000000E+000	0.000000000000000E+000	4558.07	0.000000000000000E+000	0.000000000000000E+000	0.000000000000000E+000	0.000000000000000E+000	0.000000000000000E+000	0.0000000E+000	0.0000000E+000	0.0000000E+000	0.000000000000000E+000	0.0000000E+000	0.0000000E+000
3	0	0	0	0	0	0	12/12/2025 13:45:46.2207	0.000000000000000E+000	0.000000000000000E+000	0.0000000E+000	1.14064	14	0.000000000000000E+000	0	0.000000000000000E+000	0.000000000000000E+000	0.000000000000000E+000	0.000000000000000E+000	4567.07	0.000000000000000E+000	0.000000000000000E+000	0.000000000000000E+000	0.000000000000000E+000	0.000000000000000E+000	0.0000000E+000	0.0000000E+000	0.0000000E+000	0.000000000000000E+000	0.0000000E+000	0.0000000E+000
3	0	0	0	0	0	0	12/12/2025 13:45:55.2207	0.000000000000000E+000	0.000000000000000E+000	0.0000000E+000	1.14102	14	0.000000000000000E+000	0	0.000000000000000E+000	0.000000000000000E+000	0.000000000000000E+000	0.000000000000000E+000	4576.07	0.000000000000000E+000	0.000000000000000E+000	0.000000000000000E+000	0.000000000000000E+000	0.000000000000000E+000	0.0000000E+000	0.0000000E+000	0.0000000E+000	0.000000000000000E+000	0.0000000E+000	0.0000000E+000
3	0	0	0	0	0	0	12/12/2025 13:46:04.2207	0.000000000000000E+000	0.000000000000000E+000	0.0000000E+000	1.14081	14	0.000000000000000E+000	0	0.000000000000000E+000	0.000000000000000E+000	0.000000000000000E+000	0.000000000000000E+000	4585.07	0.000000000000000E+000	0.000000000000000E+000	0.000000000000000E+000	0.000000000000000E+000	0.000000000000000E+000	0.0000000E+000	0.0000000E+000	0.0000000E+000	0.000000000000000E+000	0.0000000E+000	0.0000000E+000
3	0	0	0	0	0	0	12/12/2025 13:46:13.2207	0.000000000000000E+000	0.000000000000000E+000	0.0000000E+000	1.1406	14	0.000000000000000E+000	0	0.000000000000000E+000	0.000000000000000E+000	0.000000000000000E+000	0.000000000000000E+000	4594.07	0.000000000000000E+000	0.000000000000000E+000	0.000000000000000E+000	0.000000000000000E+000	0.000000000000000E+000	0.0000000E+000	0.0000000E+000	0.0000000E+000	0.000000000000000E+000	0.0000000E+000	0.0000000E+000
3	0	0	0	0	0	0	12/12/2025 13:46:22.2207	0.000000000000000E+000	0.000000000000000E+000	0.0000000E+000	1.14052	14	0.000000000000000E+000	0	0.000000000000000E+000	0.000000000000000E+000	0.000000000000000E+000	0.000000000000000E+000	4603.07	0.000000000000000E+000	0.000000000000000E+000	0.000000000000000E+000	0.000000000000000E+000	0.000000000000000E+000	0.0000000E+000	0.0000000E+000	0.0000000E+000	0.000000000000000E+000	0.0000000E+000	0.0000000E+000
3	0	0	0	0	0	0	12/12/2025 13:46:31.2207	0.000000000000000E+000	0.000000000000000E+000	0.0000000E+000	1.14088	14	0.000000000000000E+000	0	0.000000000000000E+000	0.000000000000000E+000	0.000000000000000E+000	0.000000000000000E+000	4612.07	0.000000000000000E+000	0.000000000000000E+000	0.000000000000000E+000	0.000000000000000E+000	0.000000000000000E+000	0.0000000E+000	0.0000000E+000	0.0000000E+000	0.000000000000000E+000	0.0000000E+000	0.0000000E+000
1	1	0	1	0	0	1	12/12/2025 13:46:41.2209	0.0001667	0.000333434	0.3	1.31694	12	0.000333434	0	4.39639e-07	0.000000000000000E+000	33825.2	0.000000000000000E+000	4622.07	0.30006	-1.24409e-05	0.000000000000000E+000	0.000333434	0.000333434	0.0000000E+000	0.0000000E+000	0.3	0.000000000000000E+000	0.000395161	4388.94
1	1	0	1	0	0	1	12/12/2025 13:46:59.2209	0.00016669	0.00183367	0.3	1.33178	12	0.00183367	0	2.42128e-06	0.000000000000000E+000	319636	0.000000000000000E+000	4640.07	0.300042	-6.84167e-05	0.000000000000000E+000	0.00183367	0.00183367	0.0000000E+000	0.0000000E+000	0.3	0.000000000000000E+000	0.000399589	4438.64
1	1	0	1	0	0	1	12/12/2025 13:47:17.2209	0.000166688	0.00333386	0.3	1.38006	12	0.00333386	0	4.45608e-06	0.000000000000000E+000	434414	0.000000000000000E+000	4658.07	0.300039	-0.000124391	0.000000000000000E+000	0.00333386	0.00333386	0.0000000E+000	0.0000000E+000	0.3	0.000000000000000E+000	0.000414071	4599.6
1	1	0	1	0	0	1	12/12/2025 13:47:35.2209	0.000166686	0.00483405	0.3	1.44516	12	0.00483405	0	6.58002e-06	0.000000000000000E+000	187678	0.000000000000000E+000	4676.07	0.300035	-0.000180365	0.000000000000000E+000	0.00483405	0.00483405	0.0000000E+000	0.0000000E+000	0.3	0.000000000000000E+000	0.000433598	4816.62
1	1	0	1	0	0	1	12/12/2025 13:47:53.2209	0.000166687	0.00633423	0.3	1.51203	12	0.00633423	0	8.80378e-06	0.000000000000000E+000	142880	0.000000000000000E+000	4694.07	0.300037	-0.000236339	0.000000000000000E+000	0.00633423	0.00633423	0.0000000E+000	0.0000000E+000	0.3	0.000000000000000E+000	0.000453664	5039.47
1	1	0	1	0	0	1	12/12/2025 13:48:11.2209	0.000166684	0.00783439	0.3	1.57953	12	0.00783439	0	1.11282e-05	0.000000000000000E+000	124192	0.000000000000000E+000	4712.07	0.300031	-0.000292312	0.000000000000000E+000	0.00783439	0.00783439	0.0000000E+000	0.0000000E+000	0.3	0.000000000000000E+000	0.000473907	5264.55
1	1	0	1	0	0	1	12/12/2025 13:48:29.2209	0.000166685	0.00933455	0.3	1.6481	12	0.00933455	0	1.35546e-05	0.000000000000000E+000	113656	0.000000000000000E+000	4730.07	0.300034	-0.000348285	0.000000000000000E+000	0.00933455	0.00933455	0.0000000E+000	0.0000000E+000	0.3	0.000000000000000E+000	0.000494484	5493.04
1	1	0	1	0	0	1	12/12/2025 13:48:47.2209	0.000166686	0.0108347	0.3	1.71514	12	0.0108347	0	1.60834e-05	0.000000000000000E+000	107538	0.000000000000000E+000	4748.07	0.300034	-0.000404258	0.000000000000000E+000	0.0108347	0.0108347	0.0000000E+000	0.0000000E+000	0.3	0.000000000000000E+000	0.0005146	5716.48
1	1	0	1	0	0	1	12/12/2025 13:49:05.2209	0.000166685	0.0123349	0.3	1.77284	12	0.0123349	0	1.87066e-05	0.000000000000000E+000	105625	0.000000000000000E+000	4766.07	0.300033	-0.000460231	0.000000000000000E+000	0.0123349	0.0123349	0.0000000E+000	0.0000000E+000	0.3	0.000000000000000E+000	0.000531911	5908.81
1	1	0	1	0	0	1	12/12/2025 13:49:23.2209	0.000166685	0.013835	0.3	1.8122	12	0.013835	0	2.14017e-05	0.000000000000000E+000	108329	0.000000000000000E+000	4784.07	0.300032	-0.000516204	0.000000000000000E+000	0.013835	0.013835	0.0000000E+000	0.0000000E+000	0.3	0.000000000000000E+000	0.000543717	6040
1	1	0	1	0	0	1	12/12/2025 13:49:41.2209	0.000166683	0.0153352	0.3	1.83044	12	0.0153352	0	2.41384e-05	0.000000000000000E+000	115492	0.000000000000000E+000	4802.07	0.300029	-0.000572176	0.000000000000000E+000	0.0153352	0.0153352	0.0000000E+000	0.0000000E+000	0.3	0.000000000000000E+000	0.000549187	6100.88
1	1	0	1	0	0	1	12/12/2025 13:49:59.2209	0.000166683	0.0168353	0.3	1.82093	12	0.0168353	0	2.68773e-05	0.000000000000000E+000	129365	0.000000000000000E+000	4820.07	0.30003	-0.000628149	0.000000000000000E+000	0.0168353	0.0168353	0.0000000E+000	0.0000000E+000	0.3	0.000000000000000E+000	0.000546333	6069.16
1	1	0	1	0	0	1	12/12/2025 13:50:17.2209	0.000166684	0.0183355	0.3	1.81753	12	0.0183355	0	2.96052e-05	0.000000000000000E+000	141920	0.000000000000000E+000	4838.07	0.300031	-0.000684122	0.000000000000000E+000	0.0183355	0.0183355	0.0000000E+000	0.0000000E+000	0.3	0.000000000000000E+000	0.000545316	6057.83
1	1	0	1	0	0	1	12/12/2025 13:50:35.2209	0.000166684	0.0198356	0.3	1.81898	12	0.0198356	0	3.23327e-05	0.000000000000000E+000	153055	0.000000000000000E+000	4856.07	0.300032	-0.000740094	0.000000000000000E+000	0.0198356	0.0198356	0.0000000E+000	0.0000000E+000	0.3	0.000000000000000E+000	0.000545753	6062.64
1	1	0	1	0	0	1	12/12/2025 13:50:53.2209	0.000166682	0.0213358	0.3	1.82211	12	0.0213358	0	3.50637e-05	0.000000000000000E+000	163534	0.000000000000000E+000	4874.07	0.300028	-0.000796067	0.000000000000000E+000	0.0213358	0.0213358	0.0000000E+000	0.0000000E+000	0.3	0.000000000000000E+000	0.000546683	6073.15
1	1	0	1	0	0	1	12/12/2025 13:51:11.2209	0.000166683	0.0228359	0.3	1.82652	12	0.0228359	0	3.78012e-05	0.000000000000000E+000	173406	0.000000000000000E+000	4892.07	0.30003	-0.000852039	0.000000000000000E+000	0.0228359	0.0228359	0.0000000E+000	0.0000000E+000	0.3	0.000000000000000E+000	0.00054801	6087.77
1	1	0	1	0	0	1	12/12/2025 13:51:29.2209	0.000166683	0.0243361	0.3	1.83214	12	0.0243361	0	4.0546e-05	0.000000000000000E+000	182631	0.000000000000000E+000	4910.07	0.300029	-0.000908012	0.000000000000000E+000	0.0243361	0.0243361	0.0000000E+000	0.0000000E+000	0.3	0.000000000000000E+000	0.000549696	6106.54
1	1	0	1	0	0	1	12/12/2025 13:51:47.2209	0.000166682	0.0258362	0.3	1.83899	12	0.0258362	0	4.33002e-05	0.000000000000000E+000	191161	0.000000000000000E+000	4928.07	0.300027	-0.000963984	0.000000000000000E+000	0.0258362	0.0258362	0.0000000E+000	0.0000000E+000	0.3	0.000000000000000E+000	0.000551746	6129.4
1	1	0	1	0	0	1	12/12/2025 13:52:05.2209	0.00016668	0.0273364	0.3	1.84638	12	0.0273364	0	4.60651e-05	0.000000000000000E+000	199231	0.000000000000000E+000	4946.07	0.300025	-0.00101996	0.000000000000000E+000	0.0273364	0.0273364	0.0000000E+000	0.0000000E+000	0.3	0.000000000000000E+000	0.000553961	6154.11
1	1	0	1	0	0	1	12/12/2025 13:52:23.2209	0.000166683	0.0288365	0.3	1.85184	12	0.0288365	0	4.88394e-05	0.000000000000000E+000	207869	0.000000000000000E+000	4964.07	0.300029	-0.00107593	0.000000000000000E+000	0.0288365	0.0288365	0.0000000E+000	0.0000000E+000	0.3	0.000000000000000E+000	0.000555605	6172.2
1	1	0	1	0	0	1	12/12/2025 13:52:41.2209	0.000166681	0.0303366	0.3	1.86114	12	0.0303366	0	5.16255e-05	0.000000000000000E+000	214683	0.000000000000000E+000	4982.07	0.300027	-0.0011319	0.000000000000000E+000	0.0303366	0.0303366	0.0000000E+000	0.0000000E+000	0.3	0.000000000000000E+000	0.000558392	6203.26
1	1	0	1	0	0	1	12/12/2025 13:52:59.2209	0.000166682	0.0318368	0.3	1.87138	12	0.0318368	0	5.44256e-05	0.000000000000000E+000	220853	0.000000000000000E+000	5000.07	0.300027	-0.00118787	0.000000000000000E+000	0.0318368	0.0318368	0.0000000E+000	0.0000000E+000	0.3	0.000000000000000E+000	0.000561465	6237.38
1	1	0	1	0	0	1	12/12/2025 13:53:17.2209	0.00016668	0.0333369	0.3	1.87672	12	0.0333369	0	5.72374e-05	0.000000000000000E+000	228905	0.000000000000000E+000	5018.07	0.300023	-0.00124384	0.000000000000000E+000	0.0333369	0.0333369	0.0000000E+000	0.0000000E+000	0.3	0.000000000000000E+000	0.00056306	6255.25
1	1	0	1	0	0	1	12/12/2025 13:53:35.2209	0.000166681	0.034837	0.3	1.88231	12	0.034837	0	6.00577e-05	0.000000000000000E+000	236683	0.000000000000000E+000	5036.07	0.300026	-0.00129982	0.000000000000000E+000	0.034837	0.034837	0.0000000E+000	0.0000000E+000	0.3	0.000000000000000E+000	0.000564741	6273.82
1	1	0	1	0	0	1	12/12/2025 13:53:53.2209	0.00016668	0.0363371	0.3	1.88523	12	0.0363371	0	6.28839e-05	0.000000000000000E+000	245523	0.000000000000000E+000	5054.07	0.300024	-0.00135579	0.000000000000000E+000	0.0363371	0.0363371	0.0000000E+000	0.0000000E+000	0.3	0.000000000000000E+000	0.000565613	6283.58
1	1	0	1	0	0	1	12/12/2025 13:54:11.2209	0.000166681	0.0378372	0.3	1.88892	12	0.0378372	0	6.57147e-05	0.000000000000000E+000	253896	0.000000000000000E+000	5072.07	0.300025	-0.00141176	0.000000000000000E+000	0.0378372	0.0378372	0.0000000E+000	0.0000000E+000	0.3	0.000000000000000E+000	0.000566725	6295.89
1	1	0	1	0	0	1	12/12/2025 13:54:29.2209	0.00016668	0.0393374	0.3	1.88934	12	0.0393374	0	6.85487e-05	0.000000000000000E+000	263756	0.000000000000000E+000	5090.07	0.300025	-0.00146773	0.000000000000000E+000	0.0393374	0.0393374	0.0000000E+000	0.0000000E+000	0.3	0.000000000000000E+000	0.00056685	6297.3
1	1	0	1	0	0	1	12/12/2025 13:54:47.2209	0.000166681	0.0408375	0.3	1.89224	12	0.0408375	0	7.13855e-05	0.000000000000000E+000	272344	0.000000000000000E+000	5108.07	0.300027	-0.0015237	0.000000000000000E+000	0.0408375	0.0408375	0.0000000E+000	0.0000000E+000	0.3	0.000000000000000E+000	0.000567723	6306.92
1	1	0	1	0	0	1	12/12/2025 13:55:05.2209	0.00016668	0.0423376	0.3	1.89404	12	0.0423376	0	7.4225e-05	0.000000000000000E+000	281414	0.000000000000000E+000	5126.07	0.300025	-0.00157967	0.000000000000000E+000	0.0423376	0.0423376	0.0000000E+000	0.0000000E+000	0.3	0.000000000000000E+000	0.000568257	6312.93
1	1	0	1	0	0	1	12/12/2025 13:55:23.2209	0.00016668	0.0438377	0.3	1.89386	12	0.0438377	0	7.70661e-05	0.000000000000000E+000	291478	0.000000000000000E+000	5144.07	0.300024	-0.00163565	0.000000000000000E+000	0.0438377	0.0438377	0.0000000E+000	0.0000000E+000	0.3	0.000000000000000E+000	0.000568204	6312.38
1	1	0	1	0	0	1	12/12/2025 13:55:41.2209	0.00016668	0.0453379	0.3	1.89379	12	0.0453379	0	7.99069e-05	0.000000000000000E+000	301495	0.000000000000000E+000	5162.07	0.300024	-0.00169162	0.000000000000000E+000	0.0453379	0.0453379	0.0000000E+000	0.0000000E+000	0.3	0.000000000000000E+000	0.000568182	6312.12
1	1	0	1	0	0	1	12/12/2025 13:55:59.2209	0.000166679	0.046838	0.3	1.89266	12	0.046838	0	8.27462e-05	0.000000000000000E+000	312119	0.000000000000000E+000	5180.07	0.300022	-0.00174759	0.000000000000000E+000	0.046838	0.046838	0.0000000E+000	0.0000000E+000	0.3	0.000000000000000E+000	0.00056784	6308.41
1	1	0	1	0	0	1	12/12/2025 13:56:17.2209	0.000166678	0.0483381	0.3	1.89451	12	0.0483381	0	8.55856e-05	0.000000000000000E+000	321016	0.000000000000000E+000	5198.07	0.30002	-0.00180356	0.000000000000000E+000	0.0483381	0.0483381	0.0000000E+000	0.0000000E+000	0.3	0.000000000000000E+000	0.000568391	6314.62
1	1	0	1	0	0	1	12/12/2025 13:56:35.2209	0.000166678	0.0498382	0.3	1.89686	12	0.0498382	0	8.8429e-05	0.000000000000000E+000	329553	0.000000000000000E+000	5216.07	0.30002	-0.00185953	0.000000000000000E+000	0.0498382	0.0498382	0.0000000E+000	0.0000000E+000	0.3	0.000000000000000E+000	0.000569095	6322.44
1	1	0	1	0	0	1	12/12/2025 13:56:53.2209	0.000166679	0.0513383	0.3	1.89531	12	0.0513383	0	9.12743e-05	0.000000000000000E+000	340438	0.000000000000000E+000	5234.07	0.300023	-0.0019155	0.000000000000000E+000	0.0513383	0.0513383	0.0000000E+000	0.0000000E+000	0.3	0.000000000000000E+000	0.000568637	6317.23
1	1	0	1	0	0	1	12/12/2025 13:57:11.2209	0.000166679	0.0528384	0.3	1.89724	12	0.0528384	0	9.41184e-05	0.000000000000000E+000	349147	0.000000000000000E+000	5252.07	0.300022	-0.00197147	0.000000000000000E+000	0.0528384	0.0528384	0.0000000E+000	0.0000000E+000	0.3	0.000000000000000E+000	0.000569213	6323.67
1	1	0	1	0	0	1	12/12/2025 13:57:29.2209	0.00016668	0.0543385	0.3	1.89609	12	0.0543385	0	9.6962e-05	0.000000000000000E+000	359815	0.000000000000000E+000	5270.07	0.300024	-0.00202744	0.000000000000000E+000	0.0543385	0.0543385	0.0000000E+000	0.0000000E+000	0.3	0.000000000000000E+000	0.000568875	6319.8
1	1	0	1	0	0	1	12/12/2025 13:57:47.2209	0.000166679	0.0558386	0.3	1.89659	12	0.0558386	0	9.98081e-05	0.000000000000000E+000	369411	0.000000000000000E+000	5288.07	0.300023	-0.00208341	0.000000000000000E+000	0.0558386	0.0558386	0.0000000E+000	0.0000000E+000	0.3	0.000000000000000E+000	0.00056902	6321.49
1	1	0	1	0	0	1	12/12/2025 13:58:05.2209	0.00016668	0.0573387	0.3	1.89693	12	0.0573387	0	0.000102654	0.000000000000000E+000	379097	0.000000000000000E+000	5306.07	0.300024	-0.00213939	0.000000000000000E+000	0.0573387	0.0573387	0.0000000E+000	0.0000000E+000	0.3	0.000000000000000E+000	0.000569126	6322.6
1	1	0	1	0	0	1	12/12/2025 13:58:23.2209	0.000166679	0.0588389	0.3	1.89596	12	0.0588389	0	0.000105498	0.000000000000000E+000	389711	0.000000000000000E+000	5324.07	0.300022	-0.00219536	0.000000000000000E+000	0.0588389	0.0588389	0.0000000E+000	0.0000000E+000	0.3	0.000000000000000E+000	0.00056883	6319.41
1	1	0	1	0	0	1	12/12/2025 13:58:41.2209	0.00016668	0.060339	0.3	1.89659	12	0.060339	0	0.000108344	0.000000000000000E+000	399184	0.000000000000000E+000	5342.07	0.300023	-0.00225133	0.000000000000000E+000	0.060339	0.060339	0.0000000E+000	0.0000000E+000	0.3	0.000000000000000E+000	0.000569022	6321.47
1	1	0	1	0	0	1	12/12/2025 13:58:59.2209	0.000166679	0.0618391	0.3	1.89693	12	0.0618391	0	0.00011119	0.000000000000000E+000	408851	0.000000000000000E+000	5360.07	0.300021	-0.0023073	0.000000000000000E+000	0.0618391	0.0618391	0.0000000E+000	0.0000000E+000	0.3	0.000000000000000E+000	0.000569121	6322.66
1	1	0	1	0	0	1	12/12/2025 13:59:17.2209	0.00016668	0.0633392	0.3	1.89785	12	0.0633392	0	0.000114035	0.000000000000000E+000	418066	0.000000000000000E+000	5378.07	0.300025	-0.00236327	0.000000000000000E+000	0.0633392	0.0633392	0.0000000E+000	0.0000000E+000	0.3	0.000000000000000E+000	0.000569401	6325.65
1	1	0	1	0	0	1	12/12/2025 13:59:35.2209	0.000166682	0.0648393	0.3	1.8965	12	0.0648393	0	0.000116881	0.000000000000000E+000	429033	0.000000000000000E+000	5396.07	0.300028	-0.00241924	0.000000000000000E+000	0.0648393	0.0648393	0.0000000E+000	0.0000000E+000	0.3	0.000000000000000E+000	0.000569001	6321.07
1	1	0	1	0	0	1	12/12/2025 13:59:53.2209	0.000166681	0.0663394	0.3	1.8939	12	0.0663394	0	0.000119727	0.000000000000000E+000	441061	0.000000000000000E+000	5414.07	0.300025	-0.00247521	0.000000000000000E+000	0.0663394	0.0663394	0.0000000E+000	0.0000000E+000	0.3	0.000000000000000E+000	0.000568218	6312.47
1	1	0	1	0	0	1	12/12/2025 14:00:11.2209	0.000166682	0.0678396	0.3	1.89175	12	0.0678396	0	0.000122566	0.000000000000000E+000	452837	0.000000000000000E+000	5432.07	0.300027	-0.00253119	0.000000000000000E+000	0.0678396	0.0678396	0.0000000E+000	0.0000000E+000	0.3	0.000000000000000E+000	0.000567575	6305.26
1	1	0	1	0	0	1	12/12/2025 14:00:29.2209	0.000166682	0.0693397	0.3	1.89442	12	0.0693397	0	0.000125407	0.000000000000000E+000	460570	0.000000000000000E+000	5450.07	0.300027	-0.00258716	0.000000000000000E+000	0.0693397	0.0693397	0.0000000E+000	0.0000000E+000	0.3	0.000000000000000E+000	0.000568376	6314.16
1	1	0	1	0	0	1	12/12/2025 14:00:47.2209	0.000166681	0.0708398	0.3	1.89409	12	0.0708398	0	0.000128249	0.000000000000000E+000	470816	0.000000000000000E+000	5468.07	0.300026	-0.00264313	0.000000000000000E+000	0.0708398	0.0708398	0.0000000E+000	0.0000000E+000	0.3	0.000000000000000E+000	0.000568277	6313.1
1	1	0	1	0	0	1	12/12/2025 14:01:05.2209	0.000166679	0.07234	0.3	1.89585	12	0.07234	0	0.000131093	0.000000000000000E+000	479234	0.000000000000000E+000	5486.07	0.300022	-0.0026991	0.000000000000000E+000	0.07234	0.07234	0.0000000E+000	0.0000000E+000	0.3	0.000000000000000E+000	0.000568795	6319.03
1	1	0	1	0	0	1	12/12/2025 14:01:23.2209	0.00016668	0.0738401	0.3	1.89833	12	0.0738401	0	0.000133938	0.000000000000000E+000	486951	0.000000000000000E+000	5504.07	0.300024	-0.00275507	0.000000000000000E+000	0.0738401	0.0738401	0.0000000E+000	0.0000000E+000	0.3	0.000000000000000E+000	0.000569543	6327.24
1	1	0	1	0	0	1	12/12/2025 14:01:41.2209	0.000166681	0.0753402	0.3	1.89722	12	0.0753402	0	0.000136783	0.000000000000000E+000	497852	0.000000000000000E+000	5522.07	0.300025	-0.00281104	0.000000000000000E+000	0.0753402	0.0753402	0.0000000E+000	0.0000000E+000	0.3	0.000000000000000E+000	0.000569214	6323.54
1	1	0	1	0	0	1	12/12/2025 14:01:59.2209	0.000166682	0.0768403	0.3	1.89274	12	0.0768403	0	0.000139628	0.000000000000000E+000	511976	0.000000000000000E+000	5540.07	0.300027	-0.00286702	0.000000000000000E+000	0.0768403	0.0768403	0.0000000E+000	0.0000000E+000	0.3	0.000000000000000E+000	0.000567873	6308.56
1	1	0	1	0	0	1	12/12/2025 14:02:17.2209	0.000166681	0.0783405	0.3	1.89144	12	0.0783405	0	0.000142467	0.000000000000000E+000	523227	0.000000000000000E+000	5558.07	0.300025	-0.00292299	0.000000000000000E+000	0.0783405	0.0783405	0.0000000E+000	0.0000000E+000	0.3	0.000000000000000E+000	0.00056748	6304.28
1	1	0	1	0	0	1	12/12/2025 14:02:35.2209	0.000166682	0.0798406	0.3	1.89352	12	0.0798406	0	0.000145306	0.000000000000000E+000	531198	0.000000000000000E+000	5576.07	0.300027	-0.00297896	0.000000000000000E+000	0.0798406	0.0798406	0.0000000E+000	0.0000000E+000	0.3	0.000000000000000E+000	0.000568107	6311.17
1	1	0	1	0	0	1	12/12/2025 14:02:53.2209	0.000166682	0.0813408	0.3	1.89413	12	0.0813408	0	0.000148145	0.000000000000000E+000	540570	0.000000000000000E+000	5594.07	0.300027	-0.00303493	0.000000000000000E+000	0.0813408	0.0813408	0.0000000E+000	0.0000000E+000	0.3	0.000000000000000E+000	0.00056829	6313.2
1	1	0	1	0	0	1	12/12/2025 14:03:11.2209	0.000166683	0.0828409	0.3	1.89505	12	0.0828409	0	0.000150988	0.000000000000000E+000	549610	0.000000000000000E+000	5612.07	0.30003	-0.0030909	0.000000000000000E+000	0.0828409	0.0828409	0.0000000E+000	0.0000000E+000	0.3	0.000000000000000E+000	0.000568571	6316.18
1	1	0	1	0	0	1	12/12/2025 14:03:29.2209	0.000166682	0.084341	0.3	1.8952	12	0.084341	0	0.000153831	0.000000000000000E+000	559406	0.000000000000000E+000	5630.07	0.300028	-0.00314688	0.000000000000000E+000	0.084341	0.084341	0.0000000E+000	0.0000000E+000	0.3	0.000000000000000E+000	0.000568612	6316.74
1	1	0	1	0	0	1	12/12/2025 14:03:47.2209	0.000166681	0.0858412	0.3	1.89276	12	0.0858412	0	0.000156673	0.000000000000000E+000	571928	0.000000000000000E+000	5648.07	0.300027	-0.00320285	0.000000000000000E+000	0.0858412	0.0858412	0.0000000E+000	0.0000000E+000	0.3	0.000000000000000E+000	0.000567878	6308.63
1	1	0	1	0	0	1	12/12/2025 14:04:05.2209	0.00016668	0.0873413	0.3	1.89615	12	0.0873413	0	0.000159515	0.000000000000000E+000	578290	0.000000000000000E+000	5666.07	0.300023	-0.00325882	0.000000000000000E+000	0.0873413	0.0873413	0.0000000E+000	0.0000000E+000	0.3	0.000000000000000E+000	0.00056889	6320.01
1	1	0	1	0	0	1	12/12/2025 14:04:23.2209	0.000166681	0.0888414	0.3	1.89386	12	0.0888414	0	0.000162358	0.000000000000000E+000	590708	0.000000000000000E+000	5684.07	0.300026	-0.00331479	0.000000000000000E+000	0.0888414	0.0888414	0.0000000E+000	0.0000000E+000	0.3	0.000000000000000E+000	0.000568208	6312.33
1	1	0	1	0	0	1	12/12/2025 14:04:41.2209	0.00016668	0.0903415	0.3	1.89592	12	0.0903415	0	0.0001652	0.000000000000000E+000	598406	0.000000000000000E+000	5702.07	0.300024	-0.00337076	0.000000000000000E+000	0.0903415	0.0903415	0.0000000E+000	0.0000000E+000	0.3	0.000000000000000E+000	0.000568822	6319.24
1	1	0	1	0	0	1	12/12/2025 14:04:59.2209	0.000166683	0.0918417	0.3	1.89606	12	0.0918417	0	0.000168044	0.000000000000000E+000	608194	0.000000000000000E+000	5720.07	0.300029	-0.00342674	0.000000000000000E+000	0.0918417	0.0918417	0.0000000E+000	0.0000000E+000	0.3	0.000000000000000E+000	0.000568871	6319.58
1	1	0	1	0	0	1	12/12/2025 14:05:17.2209	0.000166681	0.0933418	0.3	1.89436	12	0.0933418	0	0.000170886	0.000000000000000E+000	620063	0.000000000000000E+000	5738.07	0.300026	-0.00348271	0.000000000000000E+000	0.0933418	0.0933418	0.0000000E+000	0.0000000E+000	0.3	0.000000000000000E+000	0.000568358	6313.98
1	1	0	1	0	0	1	12/12/2025 14:05:35.2209	0.000166681	0.0948419	0.3	1.89228	12	0.0948419	0	0.000173723	0.000000000000000E+000	632454	0.000000000000000E+000	5756.07	0.300026	-0.00353868	0.000000000000000E+000	0.0948419	0.0948419	0.0000000E+000	0.0000000E+000	0.3	0.000000000000000E+000	0.000567733	6307.06
1	1	0	1	0	0	1	12/12/2025 14:05:53.2209	0.000166681	0.0963421	0.3	1.89207	12	0.0963421	0	0.000176562	0.000000000000000E+000	642708	0.000000000000000E+000	5774.07	0.300026	-0.00359465	0.000000000000000E+000	0.0963421	0.0963421	0.0000000E+000	0.0000000E+000	0.3	0.000000000000000E+000	0.00056767	6306.37
1	1	0	1	0	0	1	12/12/2025 14:06:11.2209	0.000166683	0.0978422	0.3	1.89457	12	0.0978422	0	0.000179403	0.000000000000000E+000	649708	0.000000000000000E+000	5792.07	0.300029	-0.00365062	0.000000000000000E+000	0.0978422	0.0978422	0.0000000E+000	0.0000000E+000	0.3	0.000000000000000E+000	0.000568426	6314.62
1	1	0	1	0	0	1	12/12/2025 14:06:29.2209	0.000166682	0.0993423	0.3	1.89287	12	0.0993423	0	0.000182243	0.000000000000000E+000	661741	0.000000000000000E+000	5810.07	0.300027	-0.0037066	0.000000000000000E+000	0.0993423	0.0993423	0.0000000E+000	0.0000000E+000	0.3	0.000000000000000E+000	0.000567914	6309
1	1	0	1	0	0	1	12/12/2025 14:06:47.2209	0.00016668	0.100842	0.3	1.89415	12	0.100842	0	0.000185082	0.000000000000000E+000	670149	0.000000000000000E+000	5828.07	0.300024	-0.00376257	0.000000000000000E+000	0.100842	0.100842	0.0000000E+000	0.0000000E+000	0.3	0.000000000000000E+000	0.000568291	6313.32
1	1	0	1	0	0	1	12/12/2025 14:07:05.2209	0.000166681	0.102343	0.3	1.89365	12	0.102343	0	0.000187925	0.000000000000000E+000	680741	0.000000000000000E+000	5846.07	0.300025	-0.00381854	0.000000000000000E+000	0.102343	0.102343	0.0000000E+000	0.0000000E+000	0.3	0.000000000000000E+000	0.000568143	6311.66
1	1	0	1	0	0	1	12/12/2025 14:07:23.2209	0.000166681	0.103843	0.3	1.8919	12	0.103843	0	0.000190763	0.000000000000000E+000	692966	0.000000000000000E+000	5864.07	0.300026	-0.00387451	0.000000000000000E+000	0.103843	0.103843	0.0000000E+000	0.0000000E+000	0.3	0.000000000000000E+000	0.00056762	6305.78
1	1	0	1	0	0	1	12/12/2025 14:07:41.2209	0.000166681	0.105343	0.3	1.89241	12	0.105343	0	0.000193602	0.000000000000000E+000	702306	0.000000000000000E+000	5882.07	0.300026	-0.00393048	0.000000000000000E+000	0.105343	0.105343	0.0000000E+000	0.0000000E+000	0.3	0.000000000000000E+000	0.000567774	6307.5
1	1	0	1	0	0	1	12/12/2025 14:07:59.2209	0.000166679	0.106843	0.3	1.89047	12	0.106843	0	0.00019644	0.000000000000000E+000	714882	0.000000000000000E+000	5900.07	0.300023	-0.00398646	0.000000000000000E+000	0.106843	0.106843	0.0000000E+000	0.0000000E+000	0.3	0.000000000000000E+000	0.000567184	6301.08
1	1	0	1	0	0	1	12/12/2025 14:08:17.2209	0.00016668	0.108343	0.3	1.88837	12	0.108343	0	0.000199274	0.000000000000000E+000	727756	0.000000000000000E+000	5918.07	0.300024	-0.00404243	0.000000000000000E+000	0.108343	0.108343	0.0000000E+000	0.0000000E+000	0.3	0.000000000000000E+000	0.000566557	6294.07
1	1	0	1	0	0	1	12/12/2025 14:08:35.2209	0.000166684	0.109843	0.3	1.88555	12	0.109843	0	0.000202105	0.000000000000000E+000	741739	0.000000000000000E+000	5936.07	0.300031	-0.0040984	0.000000000000000E+000	0.109843	0.109843	0.0000000E+000	0.0000000E+000	0.3	0.000000000000000E+000	0.000565724	6284.51
1	1	0	1	0	0	1	12/12/2025 14:08:53.2209	0.000166682	0.111343	0.3	1.8849	12	0.111343	0	0.000204932	0.000000000000000E+000	752784	0.000000000000000E+000	5954.07	0.300027	-0.00415437	0.000000000000000E+000	0.111343	0.111343	0.0000000E+000	0.0000000E+000	0.3	0.000000000000000E+000	0.000565521	6282.44
1	1	0	1	0	0	1	12/12/2025 14:09:11.2209	0.00016668	0.112844	0.3	1.88568	12	0.112844	0	0.000207761	0.000000000000000E+000	761808	0.000000000000000E+000	5972.07	0.300024	-0.00421034	0.000000000000000E+000	0.112844	0.112844	0.0000000E+000	0.0000000E+000	0.3	0.000000000000000E+000	0.00056575	6285.11
1	1	0	1	0	0	1	12/12/2025 14:09:29.2209	0.000166681	0.114344	0.3	1.88696	12	0.114344	0	0.00021059	0.000000000000000E+000	770090	0.000000000000000E+000	5990.07	0.300026	-0.00426631	0.000000000000000E+000	0.114344	0.114344	0.0000000E+000	0.0000000E+000	0.3	0.000000000000000E+000	0.000566138	6289.32
1	1	0	1	0	0	1	12/12/2025 14:09:47.2209	0.000166681	0.115844	0.3	1.88858	12	0.115844	0	0.000213421	0.000000000000000E+000	777835	0.000000000000000E+000	6008.07	0.300026	-0.00432229	0.000000000000000E+000	0.115844	0.115844	0.0000000E+000	0.0000000E+000	0.3	0.000000000000000E+000	0.000566624	6294.72
1	1	0	1	0	0	1	12/12/2025 14:10:05.2209	0.000166681	0.117344	0.3	1.88898	12	0.117344	0	0.000216254	0.000000000000000E+000	787320	0.000000000000000E+000	6026.07	0.300026	-0.00437826	0.000000000000000E+000	0.117344	0.117344	0.0000000E+000	0.0000000E+000	0.3	0.000000000000000E+000	0.000566743	6296.07
1	1	0	1	0	0	1	12/12/2025 14:10:23.2209	0.000166682	0.118844	0.3	1.88971	12	0.118844	0	0.000219087	0.000000000000000E+000	796309	0.000000000000000E+000	6044.07	0.300028	-0.00443423	0.000000000000000E+000	0.118844	0.118844	0.0000000E+000	0.0000000E+000	0.3	0.000000000000000E+000	0.000566966	6298.43
1	1	0	1	0	0	1	12/12/2025 14:10:41.2209	0.000166683	0.120344	0.3	1.88864	12	0.120344	0	0.000221918	0.000000000000000E+000	807967	0.000000000000000E+000	6062.07	0.30003	-0.0044902	0.000000000000000E+000	0.120344	0.120344	0.0000000E+000	0.0000000E+000	0.3	0.000000000000000E+000	0.000566648	6294.84
1	1	0	1	0	0	1	12/12/2025 14:10:59.2209	0.000166682	0.121844	0.3	1.88963	12	0.121844	0	0.000224753	0.000000000000000E+000	816529	0.000000000000000E+000	6080.07	0.300028	-0.00454617	0.000000000000000E+000	0.121844	0.121844	0.0000000E+000	0.0000000E+000	0.3	0.000000000000000E+000	0.000566942	6298.18
1	1	0	1	0	0	1	12/12/2025 14:11:17.2209	0.000166682	0.123344	0.3	1.88788	12	0.123344	0	0.000227586	0.000000000000000E+000	829290	0.000000000000000E+000	6098.07	0.300028	-0.00460215	0.000000000000000E+000	0.123344	0.123344	0.0000000E+000	0.0000000E+000	0.3	0.000000000000000E+000	0.000566416	6292.33
1	1	0	1	0	0	1	12/12/2025 14:11:35.2209	0.000166682	0.124845	0.3	1.88179	12	0.124845	0	0.000230417	0.000000000000000E+000	849021	0.000000000000000E+000	6116.07	0.300027	-0.00465812	0.000000000000000E+000	0.124845	0.124845	0.0000000E+000	0.0000000E+000	0.3	0.000000000000000E+000	0.000564589	6272.08
1	1	0	1	0	0	1	12/12/2025 14:11:53.2209	0.000166681	0.126345	0.3	1.88532	12	0.126345	0	0.000233241	0.000000000000000E+000	853535	0.000000000000000E+000	6134.07	0.300026	-0.00471409	0.000000000000000E+000	0.126345	0.126345	0.0000000E+000	0.0000000E+000	0.3	0.000000000000000E+000	0.000565645	6283.86
1	1	0	1	0	0	1	12/12/2025 14:12:11.2209	0.000166681	0.127845	0.3	1.88711	12	0.127845	0	0.000236071	0.000000000000000E+000	860774	0.000000000000000E+000	6152.07	0.300025	-0.00477006	0.000000000000000E+000	0.127845	0.127845	0.0000000E+000	0.0000000E+000	0.3	0.000000000000000E+000	0.000566182	6289.85
1	1	0	1	0	0	1	12/12/2025 14:12:29.2209	0.000166679	0.129345	0.3	1.89152	12	0.129345	0	0.000238906	0.000000000000000E+000	863758	0.000000000000000E+000	6170.07	0.300021	-0.00482603	0.000000000000000E+000	0.129345	0.129345	0.0000000E+000	0.0000000E+000	0.3	0.000000000000000E+000	0.000567496	6304.61
1	1	0	1	0	0	1	12/12/2025 14:12:47.2209	0.000166681	0.130845	0.3	1.89049	12	0.130845	0	0.000241744	0.000000000000000E+000	875448	0.000000000000000E+000	6188.07	0.300026	-0.00488201	0.000000000000000E+000	0.130845	0.130845	0.0000000E+000	0.0000000E+000	0.3	0.000000000000000E+000	0.000567195	6301.09
1	1	0	1	0	0	1	12/12/2025 14:13:05.2209	0.00016668	0.132345	0.3	1.88675	12	0.132345	0	0.000244574	0.000000000000000E+000	891679	0.000000000000000E+000	6206.07	0.300024	-0.00493798	0.000000000000000E+000	0.132345	0.132345	0.0000000E+000	0.0000000E+000	0.3	0.000000000000000E+000	0.000566071	6288.66
1	1	0	1	0	0	1	12/12/2025 14:13:23.2209	0.000166681	0.133845	0.3	1.89159	12	0.133845	0	0.000247409	0.000000000000000E+000	893685	0.000000000000000E+000	6224.07	0.300026	-0.00499395	0.000000000000000E+000	0.133845	0.133845	0.0000000E+000	0.0000000E+000	0.3	0.000000000000000E+000	0.000567528	6304.76
1	1	0	1	0	0	1	12/12/2025 14:13:41.2209	0.000166679	0.135345	0.3	1.89362	12	0.135345	0	0.000250247	0.000000000000000E+000	900326	0.000000000000000E+000	6242.07	0.300022	-0.00504992	0.000000000000000E+000	0.135345	0.135345	0.0000000E+000	0.0000000E+000	0.3	0.000000000000000E+000	0.000568127	6311.58
1	1	0	1	0	0	1	12/12/2025 14:13:59.2209	0.00016668	0.136846	0.3	1.89093	12	0.136846	0	0.000253085	0.000000000000000E+000	914850	0.000000000000000E+000	6260.07	0.300023	-0.00510589	0.000000000000000E+000	0.136846	0.136846	0.0000000E+000	0.0000000E+000	0.3	0.000000000000000E+000	0.000567322	6302.6
1	1	0	1	0	0	1	12/12/2025 14:14:17.2209	0.000166679	0.138346	0.3	1.89358	12	0.138346	0	0.000255924	0.000000000000000E+000	920349	0.000000000000000E+000	6278.07	0.300022	-0.00516186	0.000000000000000E+000	0.138346	0.138346	0.0000000E+000	0.0000000E+000	0.3	0.000000000000000E+000	0.000568116	6311.45
1	1	0	1	0	0	1	12/12/2025 14:14:35.2209	0.000166681	0.139846	0.3	1.89297	12	0.139846	0	0.000258764	0.000000000000000E+000	931379	0.000000000000000E+000	6296.07	0.300025	-0.00521784	0.000000000000000E+000	0.139846	0.139846	0.0000000E+000	0.0000000E+000	0.3	0.000000000000000E+000	0.000567938	6309.36
1	1	0	1	0	0	1	12/12/2025 14:14:53.2209	0.000166678	0.141346	0.3	1.8927	12	0.141346	0	0.000261603	0.000000000000000E+000	941835	0.000000000000000E+000	6314.07	0.300021	-0.00527381	0.000000000000000E+000	0.141346	0.141346	0.0000000E+000	0.0000000E+000	0.3	0.000000000000000E+000	0.000567849	6308.56
1	1	0	1	0	0	1	12/12/2025 14:15:11.2209	0.00016668	0.142846	0.3	1.89161	12	0.142846	0	0.000264441	0.000000000000000E+000	953749	0.000000000000000E+000	6332.07	0.300025	-0.00532978	0.000000000000000E+000	0.142846	0.142846	0.0000000E+000	0.0000000E+000	0.3	0.000000000000000E+000	0.000567531	6304.86
1	1	0	1	0	0	1	12/12/2025 14:15:29.2209	0.000166683	0.144346	0.3	1.89087	12	0.144346	0	0.000267277	0.000000000000000E+000	965096	0.000000000000000E+000	6350.07	0.300029	-0.00538575	0.000000000000000E+000	0.144346	0.144346	0.0000000E+000	0.0000000E+000	0.3	0.000000000000000E+000	0.000567315	6302.3
1	1	0	1	0	0	1	12/12/2025 14:15:47.2209	0.00016668	0.145846	0.3	1.89205	12	0.145846	0	0.000270116	0.000000000000000E+000	972990	0.000000000000000E+000	6368.07	0.300024	-0.00544172	0.000000000000000E+000	0.145846	0.145846	0.0000000E+000	0.0000000E+000	0.3	0.000000000000000E+000	0.000567661	6306.34
1	1	0	1	0	0	1	12/12/2025 14:16:05.2209	0.000166682	0.147346	0.3	1.89129	12	0.147346	0	0.000272954	0.000000000000000E+000	984389	0.000000000000000E+000	6386.07	0.300027	-0.00549769	0.000000000000000E+000	0.147346	0.147346	0.0000000E+000	0.0000000E+000	0.3	0.000000000000000E+000	0.000567438	6303.73
1	1	0	1	0	0	1	12/12/2025 14:16:23.2209	0.000166682	0.148847	0.3	1.89098	12	0.148847	0	0.000275791	0.000000000000000E+000	994974	0.000000000000000E+000	6404.07	0.300028	-0.00555367	0.000000000000000E+000	0.148847	0.148847	0.0000000E+000	0.0000000E+000	0.3	0.000000000000000E+000	0.000567349	6302.69
1	1	0	1	0	0	1	12/12/2025 14:16:41.2209	0.00016668	0.150347	0.3	1.88833	12	0.150347	0	0.000278626	0.000000000000000E+000	1.00997e+06	0.000000000000000E+000	6422.07	0.300024	-0.00560964	0.000000000000000E+000	0.150347	0.150347	0.0000000E+000	0.0000000E+000	0.3	0.000000000000000E+000	0.000566546	6293.94
1	1	0	1	0	0	1	12/12/2025 14:16:59.2209	0.00016668	0.151847	0.3	1.88643	12	0.151847	0	0.000281456	0.000000000000000E+000	1.02369e+06	0.000000000000000E+000	6440.07	0.300025	-0.00566561	0.000000000000000E+000	0.151847	0.151847	0.0000000E+000	0.0000000E+000	0.3	0.000000000000000E+000	0.000565975	6287.57
1	1	0	1	0	0	1	12/12/2025 14:17:17.2209	0.000166682	0.153347	0.3	1.8869	12	0.153347	0	0.000284286	0.000000000000000E+000	1.03288e+06	0.000000000000000E+000	6458.07	0.300027	-0.00572158	0.000000000000000E+000	0.153347	0.153347	0.0000000E+000	0.0000000E+000	0.3	0.000000000000000E+000	0.000566123	6289.1
1	1	0	1	0	0	1	12/12/2025 14:17:35.2209	0.000166681	0.154847	0.3	1.88822	12	0.154847	0	0.000287117	0.000000000000000E+000	1.04043e+06	0.000000000000000E+000	6476.07	0.300025	-0.00577755	0.000000000000000E+000	0.154847	0.154847	0.0000000E+000	0.0000000E+000	0.3	0.000000000000000E+000	0.000566514	6293.53
1	1	0	1	0	0	1	12/12/2025 14:17:53.2209	0.000166682	0.156347	0.3	1.88942	12	0.156347	0	0.00028995	0.000000000000000E+000	1.04816e+06	0.000000000000000E+000	6494.07	0.300027	-0.00583352	0.000000000000000E+000	0.156347	0.156347	0.0000000E+000	0.0000000E+000	0.3	0.000000000000000E+000	0.000566877	6297.51
1	1	0	1	0	0	1	12/12/2025 14:18:11.2209	0.000166679	0.157847	0.3	1.8894	12	0.157847	0	0.000292785	0.000000000000000E+000	1.05825e+06	0.000000000000000E+000	6512.07	0.300022	-0.0058895	0.000000000000000E+000	0.157847	0.157847	0.0000000E+000	0.0000000E+000	0.3	0.000000000000000E+000	0.000566862	6297.55
1	1	0	1	0	0	1	12/12/2025 14:18:29.2209	0.00016668	0.159347	0.3	1.89068	12	0.159347	0	0.000295622	0.000000000000000E+000	1.06577e+06	0.000000000000000E+000	6530.07	0.300025	-0.00594547	0.000000000000000E+000	0.159347	0.159347	0.0000000E+000	0.0000000E+000	0.3	0.000000000000000E+000	0.000567251	6301.74
1	1	0	1	0	0	1	12/12/2025 14:18:47.2209	0.000166681	0.160848	0.3	1.89171	12	0.160848	0	0.000298459	0.000000000000000E+000	1.07375e+06	0.000000000000000E+000	6548.07	0.300026	-0.00600144	0.000000000000000E+000	0.160848	0.160848	0.0000000E+000	0.0000000E+000	0.3	0.000000000000000E+000	0.000567563	6305.14
1	1	0	1	0	0	1	12/12/2025 14:19:05.2209	0.000166682	0.162348	0.3	1.89327	12	0.162348	0	0.000301298	0.000000000000000E+000	1.08063e+06	0.000000000000000E+000	6566.07	0.300028	-0.00605741	0.000000000000000E+000	0.162348	0.162348	0.0000000E+000	0.0000000E+000	0.3	0.000000000000000E+000	0.000568035	6310.31
1	1	0	1	0	0	1	12/12/2025 14:19:23.2209	0.000166681	0.163848	0.3	1.89255	12	0.163848	0	0.000304137	0.000000000000000E+000	1.09208e+06	0.000000000000000E+000	6584.07	0.300026	-0.00611338	0.000000000000000E+000	0.163848	0.163848	0.0000000E+000	0.0000000E+000	0.3	0.000000000000000E+000	0.000567813	6307.95
1	1	0	1	0	0	1	12/12/2025 14:19:41.2209	0.000166682	0.165348	0.3	1.89066	12	0.165348	0	0.000306974	0.000000000000000E+000	1.10594e+06	0.000000000000000E+000	6602.07	0.300027	-0.00616936	0.000000000000000E+000	0.165348	0.165348	0.0000000E+000	0.0000000E+000	0.3	0.000000000000000E+000	0.000567249	6301.63
1	1	0	1	0	0	1	12/12/2025 14:19:59.2209	0.000166682	0.166848	0.3	1.89095	12	0.166848	0	0.000309811	0.000000000000000E+000	1.11539e+06	0.000000000000000E+000	6620.07	0.300028	-0.00622533	0.000000000000000E+000	0.166848	0.166848	0.0000000E+000	0.0000000E+000	0.3	0.000000000000000E+000	0.000567337	6302.56
1	1	0	1	0	0	1	12/12/2025 14:20:17.2209	0.000166682	0.168348	0.3	1.89049	12	0.168348	0	0.000312646	0.000000000000000E+000	1.12637e+06	0.000000000000000E+000	6638.07	0.300028	-0.0062813	0.000000000000000E+000	0.168348	0.168348	0.0000000E+000	0.0000000E+000	0.3	0.000000000000000E+000	0.000567199	6301.04
1	1	0	1	0	0	1	12/12/2025 14:20:35.2209	0.000166681	0.169848	0.3	1.89236	12	0.169848	0	0.000315484	0.000000000000000E+000	1.13248e+06	0.000000000000000E+000	6656.07	0.300027	-0.00633727	0.000000000000000E+000	0.169848	0.169848	0.0000000E+000	0.0000000E+000	0.3	0.000000000000000E+000	0.000567758	6307.3
1	1	0	1	0	0	1	12/12/2025 14:20:53.2209	0.000166683	0.171349	0.3	1.89312	12	0.171349	0	0.000318323	0.000000000000000E+000	1.14087e+06	0.000000000000000E+000	6674.07	0.300029	-0.00639324	0.000000000000000E+000	0.171349	0.171349	0.0000000E+000	0.0000000E+000	0.3	0.000000000000000E+000	0.000567991	6309.79
1	1	0	1	0	0	1	12/12/2025 14:21:11.2209	0.000166683	0.172849	0.3	1.89085	12	0.172849	0	0.000321162	0.000000000000000E+000	1.1557e+06	0.000000000000000E+000	6692.07	0.30003	-0.00644922	0.000000000000000E+000	0.172849	0.172849	0.0000000E+000	0.0000000E+000	0.3	0.000000000000000E+000	0.000567312	6302.21
1	1	0	1	0	0	1	12/12/2025 14:21:29.2209	0.000166681	0.174349	0.3	1.89165	12	0.174349	0	0.000323994	0.000000000000000E+000	1.164e+06	0.000000000000000E+000	6710.07	0.300025	-0.00650519	0.000000000000000E+000	0.174349	0.174349	0.0000000E+000	0.0000000E+000	0.3	0.000000000000000E+000	0.000567544	6304.97
1	1	0	1	0	0	1	12/12/2025 14:21:47.2209	0.000166682	0.175849	0.3	1.89383	12	0.175849	0	0.000326834	0.000000000000000E+000	1.16931e+06	0.000000000000000E+000	6728.07	0.300027	-0.00656116	0.000000000000000E+000	0.175849	0.175849	0.0000000E+000	0.0000000E+000	0.3	0.000000000000000E+000	0.000568199	6312.18
1	1	0	1	0	0	1	12/12/2025 14:22:05.2209	0.000166682	0.177349	0.3	1.89466	12	0.177349	0	0.000329676	0.000000000000000E+000	1.17746e+06	0.000000000000000E+000	6746.07	0.300028	-0.00661713	0.000000000000000E+000	0.177349	0.177349	0.0000000E+000	0.0000000E+000	0.3	0.000000000000000E+000	0.000568452	6314.96
1	1	0	1	0	0	1	12/12/2025 14:22:23.2209	0.000166682	0.178849	0.3	1.89291	12	0.178849	0	0.000332516	0.000000000000000E+000	1.19127e+06	0.000000000000000E+000	6764.07	0.300027	-0.00667311	0.000000000000000E+000	0.178849	0.178849	0.0000000E+000	0.0000000E+000	0.3	0.000000000000000E+000	0.000567924	6309.13
1	1	0	1	0	0	1	12/12/2025 14:22:41.2209	0.00016668	0.180349	0.3	1.89156	12	0.180349	0	0.000335354	0.000000000000000E+000	1.20428e+06	0.000000000000000E+000	6782.07	0.300025	-0.00672908	0.000000000000000E+000	0.180349	0.180349	0.0000000E+000	0.0000000E+000	0.3	0.000000000000000E+000	0.000567513	6304.67
1	1	0	1	0	0	1	12/12/2025 14:22:59.2209	0.000166679	0.181849	0.3	1.8924	12	0.181849	0	0.000338192	0.000000000000000E+000	1.21241e+06	0.000000000000000E+000	6800.07	0.300022	-0.00678505	0.000000000000000E+000	0.181849	0.181849	0.0000000E+000	0.0000000E+000	0.3	0.000000000000000E+000	0.000567759	6307.53
1	1	0	1	0	0	1	12/12/2025 14:23:17.2209	0.00016668	0.18335	0.3	1.89232	12	0.18335	0	0.000341031	0.000000000000000E+000	1.22258e+06	0.000000000000000E+000	6818.07	0.300024	-0.00684102	0.000000000000000E+000	0.18335	0.18335	0.0000000E+000	0.0000000E+000	0.3	0.000000000000000E+000	0.000567741	6307.23
1	1	0	1	0	0	1	12/12/2025 14:23:35.2209	0.000166681	0.18485	0.3	1.89302	12	0.18485	0	0.00034387	0.000000000000000E+000	1.23098e+06	0.000000000000000E+000	6836.07	0.300026	-0.00689699	0.000000000000000E+000	0.18485	0.18485	0.0000000E+000	0.0000000E+000	0.3	0.000000000000000E+000	0.000567957	6309.54
1	1	0	1	0	0	1	12/12/2025 14:23:53.2209	0.000166679	0.18635	0.3	1.89262	12	0.18635	0	0.00034671	0.000000000000000E+000	1.24189e+06	0.000000000000000E+000	6854.07	0.300022	-0.00695296	0.000000000000000E+000	0.18635	0.18635	0.0000000E+000	0.0000000E+000	0.3	0.000000000000000E+000	0.000567829	6308.29
1	1	0	1	0	0	1	12/12/2025 14:24:11.2209	0.00016668	0.18785	0.3	1.89272	12	0.18785	0	0.000349548	0.000000000000000E+000	1.25166e+06	0.000000000000000E+000	6872.07	0.300025	-0.00700893	0.000000000000000E+000	0.18785	0.18785	0.0000000E+000	0.0000000E+000	0.3	0.000000000000000E+000	0.000567863	6308.55
1	1	0	1	0	0	1	12/12/2025 14:24:29.2209	0.00016668	0.18935	0.3	1.89344	12	0.18935	0	0.000352387	0.000000000000000E+000	1.25997e+06	0.000000000000000E+000	6890.07	0.300023	-0.00706491	0.000000000000000E+000	0.18935	0.18935	0.0000000E+000	0.0000000E+000	0.3	0.000000000000000E+000	0.000568078	6310.99
1	1	0	1	0	0	1	12/12/2025 14:24:47.2209	0.00016668	0.19085	0.3	1.88887	12	0.19085	0	0.000355226	0.000000000000000E+000	1.28078e+06	0.000000000000000E+000	6908.07	0.300024	-0.00712088	0.000000000000000E+000	0.19085	0.19085	0.0000000E+000	0.0000000E+000	0.3	0.000000000000000E+000	0.000566705	6295.73
1	1	0	1	0	0	1	12/12/2025 14:25:05.2209	0.00016668	0.19235	0.3	1.88917	12	0.19235	0	0.000358059	0.000000000000000E+000	1.29012e+06	0.000000000000000E+000	6926.07	0.300024	-0.00717685	0.000000000000000E+000	0.19235	0.19235	0.0000000E+000	0.0000000E+000	0.3	0.000000000000000E+000	0.000566798	6296.73
1	1	0	1	0	0	1	12/12/2025 14:25:23.2209	0.000166682	0.19385	0.3	1.89127	12	0.19385	0	0.000360895	0.000000000000000E+000	1.29512e+06	0.000000000000000E+000	6944.07	0.300027	-0.00723282	0.000000000000000E+000	0.19385	0.19385	0.0000000E+000	0.0000000E+000	0.3	0.000000000000000E+000	0.000567432	6303.67
1	1	0	1	0	0	1	12/12/2025 14:25:41.2209	0.000166684	0.195351	0.3	1.89131	12	0.195351	0	0.000363733	0.000000000000000E+000	1.30505e+06	0.000000000000000E+000	6962.07	0.300031	-0.00728879	0.000000000000000E+000	0.195351	0.195351	0.0000000E+000	0.0000000E+000	0.3	0.000000000000000E+000	0.000567452	6303.71
1	1	0	1	0	0	1	12/12/2025 14:25:59.2209	0.000166684	0.196851	0.3	1.8936	12	0.196851	0	0.000366572	0.000000000000000E+000	1.30951e+06	0.000000000000000E+000	6980.07	0.300032	-0.00734477	0.000000000000000E+000	0.196851	0.196851	0.0000000E+000	0.0000000E+000	0.3	0.000000000000000E+000	0.000568139	6311.32
1	1	0	1	0	0	1	12/12/2025 14:26:17.2209	0.000166682	0.198351	0.3	1.8879	12	0.198351	0	0.000369407	0.000000000000000E+000	1.33354e+06	0.000000000000000E+000	6998.07	0.300028	-0.00740074	0.000000000000000E+000	0.198351	0.198351	0.0000000E+000	0.0000000E+000	0.3	0.000000000000000E+000	0.000566421	6292.41
1	1	0	1	0	0	1	12/12/2025 14:26:35.2209	0.000166684	0.199851	0.3	1.89224	12	0.199851	0	0.000372245	0.000000000000000E+000	1.3328e+06	0.000000000000000E+000	7016.07	0.300032	-0.00745671	0.000000000000000E+000	0.199851	0.199851	0.0000000E+000	0.0000000E+000	0.3	0.000000000000000E+000	0.000567733	6306.8
1	1	0	1	0	0	1	12/12/2025 14:26:53.2209	0.000166683	0.201351	0.3	1.89083	12	0.201351	0	0.000375083	0.000000000000000E+000	1.34633e+06	0.000000000000000E+000	7034.07	0.30003	-0.00751268	0.000000000000000E+000	0.201351	0.201351	0.0000000E+000	0.0000000E+000	0.3	0.000000000000000E+000	0.000567305	6302.15
1	1	0	1	0	0	1	12/12/2025 14:27:11.2209	0.000166682	0.202851	0.3	1.89245	12	0.202851	0	0.000377921	0.000000000000000E+000	1.35229e+06	0.000000000000000E+000	7052.07	0.300028	-0.00756866	0.000000000000000E+000	0.202851	0.202851	0.0000000E+000	0.0000000E+000	0.3	0.000000000000000E+000	0.00056779	6307.58
1	1	0	1	0	0	1	12/12/2025 14:27:29.2209	0.000166682	0.204351	0.3	1.89249	12	0.204351	0	0.00038076	0.000000000000000E+000	1.36219e+06	0.000000000000000E+000	7070.07	0.300028	-0.00762463	0.000000000000000E+000	0.204351	0.204351	0.0000000E+000	0.0000000E+000	0.3	0.000000000000000E+000	0.0005678	6307.72
1	1	0	1	0	0	1	12/12/2025 14:27:47.2209	0.000166682	0.205852	0.3	1.89411	12	0.205852	0	0.000383601	0.000000000000000E+000	1.36808e+06	0.000000000000000E+000	7088.07	0.300028	-0.0076806	0.000000000000000E+000	0.205852	0.205852	0.0000000E+000	0.0000000E+000	0.3	0.000000000000000E+000	0.000568287	6313.11
1	1	0	1	0	0	1	12/12/2025 14:28:05.2209	0.000166681	0.207352	0.3	1.89341	12	0.207352	0	0.000386441	0.000000000000000E+000	1.37985e+06	0.000000000000000E+000	7106.07	0.300025	-0.00773657	0.000000000000000E+000	0.207352	0.207352	0.0000000E+000	0.0000000E+000	0.3	0.000000000000000E+000	0.000568069	6310.82
1	1	0	1	0	0	1	12/12/2025 14:28:23.2209	0.00016668	0.208852	0.3	1.89272	12	0.208852	0	0.00038928	0.000000000000000E+000	1.3916e+06	0.000000000000000E+000	7124.07	0.300025	-0.00779254	0.000000000000000E+000	0.208852	0.208852	0.0000000E+000	0.0000000E+000	0.3	0.000000000000000E+000	0.000567862	6308.55
1	1	0	1	0	0	1	12/12/2025 14:28:41.2209	0.00016668	0.210352	0.3	1.89383	12	0.210352	0	0.00039212	0.000000000000000E+000	1.39873e+06	0.000000000000000E+000	7142.07	0.300025	-0.00784852	0.000000000000000E+000	0.210352	0.210352	0.0000000E+000	0.0000000E+000	0.3	0.000000000000000E+000	0.000568194	6312.23
1	1	0	1	0	0	1	12/12/2025 14:28:59.2209	0.000166679	0.211852	0.3	1.89379	12	0.211852	0	0.00039496	0.000000000000000E+000	1.40881e+06	0.000000000000000E+000	7160.07	0.300023	-0.00790449	0.000000000000000E+000	0.211852	0.211852	0.0000000E+000	0.0000000E+000	0.3	0.000000000000000E+000	0.000568179	6312.15
1	1	0	1	0	0	1	12/12/2025 14:29:17.2209	0.000166681	0.213352	0.3	1.88786	12	0.213352	0	0.000397796	0.000000000000000E+000	1.4345e+06	0.000000000000000E+000	7178.07	0.300025	-0.00796046	0.000000000000000E+000	0.213352	0.213352	0.0000000E+000	0.0000000E+000	0.3	0.000000000000000E+000	0.000566404	6292.33
1	1	0	1	0	0	1	12/12/2025 14:29:35.2209	0.00016668	0.214852	0.3	1.891	12	0.214852	0	0.00040063	0.000000000000000E+000	1.43614e+06	0.000000000000000E+000	7196.07	0.300024	-0.00801643	0.000000000000000E+000	0.214852	0.214852	0.0000000E+000	0.0000000E+000	0.3	0.000000000000000E+000	0.000567346	6302.84
1	1	0	1	0	0	1	12/12/2025 14:29:53.2209	0.000166683	0.216352	0.3	1.89194	12	0.216352	0	0.000403467	0.000000000000000E+000	1.44367e+06	0.000000000000000E+000	7214.07	0.300029	-0.0080724	0.000000000000000E+000	0.216352	0.216352	0.0000000E+000	0.0000000E+000	0.3	0.000000000000000E+000	0.000567636	6305.85
1	1	0	1	0	0	1	12/12/2025 14:30:11.2209	0.000166683	0.217853	0.3	1.90647	12	0.217853	0	0.00040631	0.000000000000000E+000	1.41555e+06	0.000000000000000E+000	7232.07	0.30003	-0.00812837	0.000000000000000E+000	0.217853	0.217853	0.0000000E+000	0.0000000E+000	0.3	0.000000000000000E+000	0.000571997	6354.26
1	0	0	0	0	0	2	12/12/2025 14:30:23.3265	-0.000166728	0.217528	-0.3	1.64852	12	-0.000666951	1	0.000407002	1.10324e-06	923879	13137.2	8	-0.30011	-0.00811625	0.000666951	0.000000000000000E+000	0.000666951	0.0000000E+000	0.0000000E+000	-0.3	0.000000000000000E+000	-0.000494736	5493.04
1	0	0	0	0	0	2	12/12/2025 14:30:41.3265	-0.000166729	0.216027	-0.3	1.61673	12	-0.00216751	1	0.000407002	3.5473e-06	923879	51682.7	26	-0.300113	-0.00806027	0.00216751	0.000000000000000E+000	0.00216751	0.0000000E+000	0.0000000E+000	-0.3	0.000000000000000E+000	-0.000485201	5387.07
1	0	0	0	0	0	2	12/12/2025 14:30:59.3265	-0.00016673	0.214527	-0.3	1.59787	12	-0.00366807	1	0.000407002	5.95675e-06	923879	99946.6	44	-0.300113	-0.00800428	0.00366807	0.000000000000000E+000	0.00366807	0.0000000E+000	0.0000000E+000	-0.3	0.000000000000000E+000	-0.000479542	5324.23
1	0	0	0	0	0	2	12/12/2025 14:31:17.3265	-0.00016673	0.213026	-0.3	1.5845	12	-0.00516864	1	0.000407002	8.34281e-06	923879	156685	62	-0.300113	-0.00794829	0.00516864	0.000000000000000E+000	0.00516864	0.0000000E+000	0.0000000E+000	-0.3	0.000000000000000E+000	-0.000475531	5279.69
1	0	0	0	0	0	2	12/12/2025 14:31:35.3265	-0.000166729	0.211526	-0.3	1.57434	12	-0.0066692	1	0.000407002	1.07116e-05	923879	221096	80	-0.300111	-0.0078923	0.0066692	0.000000000000000E+000	0.0066692	0.0000000E+000	0.0000000E+000	-0.3	0.000000000000000E+000	-0.000472478	5245.86
1	0	0	0	0	0	2	12/12/2025 14:31:53.3265	-0.000166729	0.210025	-0.3	1.56639	12	-0.00816976	1	0.000407002	1.3067e-05	923879	292241	98	-0.300112	-0.00783631	0.00816976	0.000000000000000E+000	0.00816976	0.0000000E+000	0.0000000E+000	-0.3	0.000000000000000E+000	-0.000470092	5219.36
1	0	0	0	0	0	2	12/12/2025 14:32:11.3265	-0.000166729	0.208524	-0.3	1.55996	12	-0.00967032	1	0.000407002	1.54119e-05	923879	369511	116	-0.300112	-0.00778033	0.00967032	0.000000000000000E+000	0.00967032	0.0000000E+000	0.0000000E+000	-0.3	0.000000000000000E+000	-0.000468163	5197.95
1	0	0	0	0	0	2	12/12/2025 14:32:16.5625	-0.000103037	0.208088	-0.3	1.55823	12	-0.0101068	1	0.000407002	1.60923e-05	923879	393436	121.236	-0.300107	-0.00776404	0.0101068	0.000000000000000E+000	0.0101068	0.0000000E+000	0.0000000E+000	-0.3	0.000000000000000E+000	-0.000467636	5192.24