File: docs/examples/XAS/Echem/Operando2/Cell4_Buffers+Fe2+/HAC_NH3_Fe_01_01_OCV_C03.mpt
EC-Lab ASCII FILE
Nb header lines : 53

Open Circuit Voltage

Run on channel : 3 (SN 52371)
User :
CE vs. WE compliance from -10 V to 10 V
Electrode connection : standard
Potential control : Ewe
Ewe ctrl range : min = 0.00 V, max = 3.00 V
Safety Limits :
	Do not start on E overload
Acquisition started on : 12/12/2025 12:29:39.154
Technique started on : 12/12/2025 12:29:39.654
Loaded Setting File :  L:\projects\cycle2025-II\20250340369-skhabazian\EC_lab\Cell C\CellC_01.mps
Saved on :
	File : HAC_NH3_Fe_01_01_OCV_C03.mpr
	Directory : L:\projects\cycle2025-II\20250340369-skhabazian\EC_lab\Cell4_Buffers+Fe2+\
	Host : 84.89.228.57
Device : VSP (SN 2155)
Address : 10.0.48.130
EC-LAB for windows v11.61 (software)
Internet server v11.61 (firmware)
Command interpretor v11.61 (firmware)
Electrode material :
Initial state :
Electrolyte :
Comments :
Mass of active material : 0.001 mg
 at x = 0.000
Molecular weight of active material (at x = 0) : 0.001 g/mol
Atomic weight of intercalated ion : 0.001 g/mol
Acquisition started at : xo = 0.000
Number of e- transfered per intercalated ion : 1
for DX = 1, DQ = 26.802 mA.h
Battery capacity : 0.000 A.h
Electrode surface area : 0.000 cm²
Characteristic mass : 0.001 g
Volume (V) : 0.001 cm³
Text export
   Mode : Standard
   Time format : Absolute MMDDYYYY
Cycle Definition : Charge/Discharge alternance
tR (h:m:s)          20:00:30.0000
dER/dt (mV/h)       0.0
record              <Ewe>
dER (mV)            0.00
dtR (s)             0.5000
E range min (V)     0.000
E range max (V)     3.000

mode	error	time/s	<Ewe/V>
3	0	12/12/2025 12:29:39.6540	1.14118
3	0	12/12/2025 12:29:43.1540	1.14119
3	0	12/12/2025 12:29:46.6540	1.14119
3	0	12/12/2025 12:29:50.1540	1.14119
3	0	12/12/2025 12:29:53.6540	1.14118
3	0	12/12/2025 12:29:57.1540	1.14118
3	0	12/12/2025 12:30:00.6540	1.14119
3	0	12/12/2025 12:30:04.1540	1.14116
3	0	12/12/2025 12:30:07.6540	1.14118
3	0	12/12/2025 12:30:11.1540	1.14118
3	0	12/12/2025 12:30:14.6540	1.14118
3	0	12/12/2025 12:30:18.1540	1.14117
3	0	12/12/2025 12:30:21.6540	1.14118
3	0	12/12/2025 12:30:25.1540	1.14119
3	0	12/12/2025 12:30:28.6540	1.14118
3	0	12/12/2025 12:30:32.1540	1.14118
3	0	12/12/2025 12:30:35.6540	1.1412
3	0	12/12/2025 12:30:39.1540	1.14119
3	0	12/12/2025 12:30:42.6540	1.1412
3	0	12/12/2025 12:30:46.1540	1.14121
3	0	12/12/2025 12:30:49.6540	1.14119
3	0	12/12/2025 12:30:53.1540	1.1412
3	0	12/12/2025 12:30:56.6540	1.14118
3	0	12/12/2025 12:31:00.1540	1.14119
3	0	12/12/2025 12:31:03.6540	1.14118
3	0	12/12/2025 12:31:07.1540	1.14118
3	0	12/12/2025 12:31:10.6540	1.14119
3	0	12/12/2025 12:31:14.1540	1.14119
3	0	12/12/2025 12:31:17.6540	1.1412
3	0	12/12/2025 12:31:21.1540	1.14118
3	0	12/12/2025 12:31:24.6540	1.14119
3	0	12/12/2025 12:31:28.1540	1.14122
3	0	12/12/2025 12:31:31.6540	1.1412
3	0	12/12/2025 12:31:35.1540	1.1412
3	0	12/12/2025 12:31:38.6540	1.14119
3	0	12/12/2025 12:31:42.1540	1.14119
3	0	12/12/2025 12:31:45.6540	1.14119
3	0	12/12/2025 12:31:49.1540	1.14119
3	0	12/12/2025 12:31:52.6540	1.14117
3	0	12/12/2025 12:31:56.1540	1.14116
3	0	12/12/2025 12:31:59.6540	1.14117
3	0	12/12/2025 12:32:03.1540	1.14118
3	0	12/12/2025 12:32:06.6540	1.14119
3	0	12/12/2025 12:32:10.1540	1.14117
3	0	12/12/2025 12:32:13.6540	1.14117
3	0	12/12/2025 12:32:17.1540	1.14118
3	0	12/12/2025 12:32:20.6540	1.14118
3	0	12/12/2025 12:32:24.1540	1.14118
3	0	12/12/2025 12:32:27.6540	1.14118
3	0	12/12/2025 12:32:31.1540	1.14118
3	0	12/12/2025 12:32:34.6540	1.1412
3	0	12/12/2025 12:32:38.1540	1.14124
3	0	12/12/2025 12:32:41.6540	1.14121
3	0	12/12/2025 12:32:45.1540	1.1412
3	0	12/12/2025 12:32:48.6540	1.14119
3	0	12/12/2025 12:32:52.1540	1.14119
3	0	12/12/2025 12:32:55.6540	1.14121
3	0	12/12/2025 12:32:59.1540	1.1412
3	0	12/12/2025 12:33:02.6540	1.14118
3	0	12/12/2025 12:33:06.1540	1.1412
3	0	12/12/2025 12:33:09.6540	1.14119
3	0	12/12/2025 12:33:13.1540	1.1412
3	0	12/12/2025 12:33:16.6540	1.14119
3	0	12/12/2025 12:33:20.1540	1.14119
3	0	12/12/2025 12:33:23.6540	1.14117
3	0	12/12/2025 12:33:27.1540	1.14121
3	0	12/12/2025 12:33:30.6540	1.1412
3	0	12/12/2025 12:33:34.1540	1.14116
3	0	12/12/2025 12:33:37.6540	1.14119
3	0	12/12/2025 12:33:41.1540	1.14119
3	0	12/12/2025 12:33:44.6540	1.14118
3	0	12/12/2025 12:33:48.1540	1.14117
3	0	12/12/2025 12:33:51.6540	1.14118
3	0	12/12/2025 12:33:55.1540	1.1412
3	0	12/12/2025 12:33:58.6540	1.14119
3	0	12/12/2025 12:34:02.1540	1.1412
3	0	12/12/2025 12:34:05.6540	1.1412
3	0	12/12/2025 12:34:09.1540	1.1412
3	0	12/12/2025 12:34:12.6540	1.14123
3	0	12/12/2025 12:34:16.1540	1.14121
3	0	12/12/2025 12:34:19.6540	1.14119
3	0	12/12/2025 12:34:23.1540	1.1412
3	0	12/12/2025 12:34:26.6540	1.14123
3	0	12/12/2025 12:34:30.1540	1.14121
3	0	12/12/2025 12:34:33.6540	1.1412
3	0	12/12/2025 12:34:37.1540	1.14121
3	0	12/12/2025 12:34:40.6540	1.14121
3	0	12/12/2025 12:34:44.1540	1.14121
3	0	12/12/2025 12:34:47.6540	1.14122
3	0	12/12/2025 12:34:51.1540	1.1412
3	0	12/12/2025 12:34:54.6540	1.14118
3	0	12/12/2025 12:34:58.1540	1.14123
3	0	12/12/2025 12:35:01.6540	1.14121
3	0	12/12/2025 12:35:05.1540	1.14119
3	0	12/12/2025 12:35:08.6540	1.14121
3	0	12/12/2025 12:35:12.1540	1.14121
3	0	12/12/2025 12:35:15.6540	1.1412
3	0	12/12/2025 12:35:19.1540	1.14121
3	0	12/12/2025 12:35:22.6540	1.14121
3	0	12/12/2025 12:35:26.1540	1.1412
3	0	12/12/2025 12:35:29.6540	1.1412
3	0	12/12/2025 12:35:33.1540	1.14122
3	0	12/12/2025 12:35:36.6540	1.1412
3	0	12/12/2025 12:35:40.1540	1.1412
3	0	12/12/2025 12:35:43.6540	1.14121
3	0	12/12/2025 12:35:47.1540	1.1412
3	0	12/12/2025 12:35:50.6540	1.14118
3	0	12/12/2025 12:35:54.1540	1.14119
3	0	12/12/2025 12:35:57.6540	1.14118
3	0	12/12/2025 12:36:01.1540	1.14119
3	0	12/12/2025 12:36:04.6540	1.14119
3	0	12/12/2025 12:36:08.1540	1.14118
3	0	12/12/2025 12:36:11.6540	1.14118
3	0	12/12/2025 12:36:15.1540	1.14119
3	0	12/12/2025 12:36:18.6540	1.14119
3	0	12/12/2025 12:36:22.1540	1.14116
3	0	12/12/2025 12:36:25.6540	1.14118
3	0	12/12/2025 12:36:29.1540	1.14121
3	0	12/12/2025 12:36:32.6540	1.14121
3	0	12/12/2025 12:36:36.1540	1.14119
3	0	12/12/2025 12:36:39.6540	1.14119
3	0	12/12/2025 12:36:43.1540	1.1412
3	0	12/12/2025 12:36:46.6540	1.14119
3	0	12/12/2025 12:36:50.1540	1.1412
3	0	12/12/2025 12:36:53.6540	1.1412
3	0	12/12/2025 12:36:57.1540	1.14117
3	0	12/12/2025 12:37:00.6540	1.14119
3	0	12/12/2025 12:37:04.1540	1.14119
3	0	12/12/2025 12:37:07.6540	1.14117
3	0	12/12/2025 12:37:11.1540	1.14119
3	0	12/12/2025 12:37:14.6540	1.14119
3	0	12/12/2025 12:37:18.1540	1.14119
3	0	12/12/2025 12:37:21.6540	1.14118
3	0	12/12/2025 12:37:25.1540	1.14119
3	0	12/12/2025 12:37:28.6540	1.14118
3	0	12/12/2025 12:37:32.1540	1.14118
3	0	12/12/2025 12:37:35.6540	1.14121
3	0	12/12/2025 12:37:39.1540	1.14119
3	0	12/12/2025 12:37:42.6540	1.14118
3	0	12/12/2025 12:37:46.1540	1.14118
3	0	12/12/2025 12:37:49.6540	1.1412
3	0	12/12/2025 12:37:53.1540	1.14118
3	0	12/12/2025 12:37:56.6540	1.14118
3	0	12/12/2025 12:38:00.1540	1.1412
3	0	12/12/2025 12:38:03.6540	1.1412
3	0	12/12/2025 12:38:07.1540	1.14119
3	0	12/12/2025 12:38:10.6540	1.14119
3	0	12/12/2025 12:38:14.1540	1.14119
3	0	12/12/2025 12:38:17.6540	1.1412
3	0	12/12/2025 12:38:21.1540	1.1412
3	0	12/12/2025 12:38:24.6540	1.14121
3	0	12/12/2025 12:38:28.1540	1.14121
3	0	12/12/2025 12:38:31.6540	1.14121
3	0	12/12/2025 12:38:35.1540	1.14122
3	0	12/12/2025 12:38:38.6540	1.14126
3	0	12/12/2025 12:38:42.1540	1.14122
3	0	12/12/2025 12:38:45.6540	1.14122
3	0	12/12/2025 12:38:49.1540	1.14121
3	0	12/12/2025 12:38:52.6540	1.1412
3	0	12/12/2025 12:38:56.1540	1.14118
3	0	12/12/2025 12:38:59.6540	1.14121
3	0	12/12/2025 12:39:03.1540	1.14119
3	0	12/12/2025 12:39:06.6540	1.14119
3	0	12/12/2025 12:39:10.1540	1.14119
3	0	12/12/2025 12:39:13.6540	1.14118
3	0	12/12/2025 12:39:17.1540	1.14119
3	0	12/12/2025 12:39:20.6540	1.1412
3	0	12/12/2025 12:39:24.1540	1.14119
3	0	12/12/2025 12:39:27.6540	1.14118
3	0	12/12/2025 12:39:31.1540	1.1412
3	0	12/12/2025 12:39:34.6540	1.14118
3	0	12/12/2025 12:39:38.1540	1.14118
3	0	12/12/2025 12:39:41.6540	1.14119
3	0	12/12/2025 12:39:45.1540	1.14119
3	0	12/12/2025 12:39:48.6540	1.14117
3	0	12/12/2025 12:39:52.1540	1.1412
3	0	12/12/2025 12:39:55.6540	1.1412
3	0	12/12/2025 12:39:59.1540	1.14117
3	0	12/12/2025 12:40:02.6540	1.14117
3	0	12/12/2025 12:40:06.1540	1.1412
3	0	12/12/2025 12:40:09.6540	1.14118
3	0	12/12/2025 12:40:13.1540	1.14118
3	0	12/12/2025 12:40:16.6540	1.14119
3	0	12/12/2025 12:40:20.1540	1.14118
3	0	12/12/2025 12:40:23.6540	1.14119
3	0	12/12/2025 12:40:27.1540	1.14118
3	0	12/12/2025 12:40:30.6540	1.14118
3	0	12/12/2025 12:40:34.1540	1.14116
3	0	12/12/2025 12:40:37.6540	1.14121
3	0	12/12/2025 12:40:41.1540	1.14119
3	0	12/12/2025 12:40:44.6540	1.14116
3	0	12/12/2025 12:40:48.1540	1.14116
3	0	12/12/2025 12:40:51.6540	1.14118
3	0	12/12/2025 12:40:55.1540	1.14116
3	0	12/12/2025 12:40:58.6540	1.14117
3	0	12/12/2025 12:41:02.1540	1.14118
3	0	12/12/2025 12:41:05.6540	1.14115
3	0	12/12/2025 12:41:09.1540	1.14114
3	0	12/12/2025 12:41:12.6540	1.14113
3	0	12/12/2025 12:41:16.1540	1.14112
3	0	12/12/2025 12:41:19.6540	1.14111
3	0	12/12/2025 12:41:23.1540	1.14115
3	0	12/12/2025 12:41:26.6540	1.14117
3	0	12/12/2025 12:41:30.1540	1.14116
3	0	12/12/2025 12:41:33.6540	1.1412
3	0	12/12/2025 12:41:37.1540	1.1412
3	0	12/12/2025 12:41:40.6540	1.14122
3	0	12/12/2025 12:41:44.1540	1.14121
3	0	12/12/2025 12:41:47.6540	1.14122
3	0	12/12/2025 12:41:51.1540	1.14121
3	0	12/12/2025 12:41:54.6540	1.14121
3	0	12/12/2025 12:41:58.1540	1.14123
3	0	12/12/2025 12:42:01.6540	1.14121
3	0	12/12/2025 12:42:05.1540	1.14121
3	0	12/12/2025 12:42:08.6540	1.14125
3	0	12/12/2025 12:42:12.1540	1.14124
3	0	12/12/2025 12:42:15.6540	1.14122
3	0	12/12/2025 12:42:19.1540	1.14123
3	0	12/12/2025 12:42:22.6540	1.14123
3	0	12/12/2025 12:42:26.1540	1.14123
3	0	12/12/2025 12:42:29.6540	1.14123
3	0	12/12/2025 12:42:33.1540	1.14123
3	0	12/12/2025 12:42:36.6540	1.1412
3	0	12/12/2025 12:42:40.1540	1.14122
3	0	12/12/2025 12:42:43.6540	1.14123
3	0	12/12/2025 12:42:47.1540	1.14122
3	0	12/12/2025 12:42:50.6540	1.14122
3	0	12/12/2025 12:42:54.1540	1.14124
3	0	12/12/2025 12:42:57.6540	1.14124
3	0	12/12/2025 12:43:01.1540	1.14123
3	0	12/12/2025 12:43:04.6540	1.14124
3	0	12/12/2025 12:43:08.1540	1.14123
3	0	12/12/2025 12:43:11.6540	1.14123
3	0	12/12/2025 12:43:15.1540	1.14125
3	0	12/12/2025 12:43:18.6540	1.14123
3	0	12/12/2025 12:43:22.1540	1.14122
3	0	12/12/2025 12:43:25.6540	1.14123
3	0	12/12/2025 12:43:29.1540	1.14125
3	0	12/12/2025 12:43:32.6540	1.14124
3	0	12/12/2025 12:43:36.1540	1.14123
3	0	12/12/2025 12:43:39.6540	1.14124
3	0	12/12/2025 12:43:43.1540	1.14124
3	0	12/12/2025 12:43:46.6540	1.14123
3	0	12/12/2025 12:43:50.1540	1.14124
3	0	12/12/2025 12:43:53.6540	1.14121
3	0	12/12/2025 12:43:57.1540	1.14122
3	0	12/12/2025 12:44:00.6540	1.14125
3	0	12/12/2025 12:44:04.1540	1.14124
3	0	12/12/2025 12:44:07.6540	1.14121
3	0	12/12/2025 12:44:11.1540	1.14122
3	0	12/12/2025 12:44:14.6540	1.14123
3	0	12/12/2025 12:44:18.1540	1.14122
3	0	12/12/2025 12:44:21.6540	1.14122
3	0	12/12/2025 12:44:25.1540	1.14122
3	0	12/12/2025 12:44:28.6540	1.14122
3	0	12/12/2025 12:44:32.1540	1.14123
3	0	12/12/2025 12:44:35.6540	1.14122
3	0	12/12/2025 12:44:39.1540	1.14121
3	0	12/12/2025 12:44:42.6540	1.14121
3	0	12/12/2025 12:44:46.1540	1.14123
3	0	12/12/2025 12:44:49.6540	1.14123
3	0	12/12/2025 12:44:53.1540	1.1412
3	0	12/12/2025 12:44:56.6540	1.14122
3	0	12/12/2025 12:45:00.1540	1.14121
3	0	12/12/2025 12:45:03.6540	1.14122
3	0	12/12/2025 12:45:07.1540	1.14122
3	0	12/12/2025 12:45:10.6540	1.14121
3	0	12/12/2025 12:45:14.1540	1.14121
3	0	12/12/2025 12:45:17.6540	1.14122
3	0	12/12/2025 12:45:21.1540	1.14122
3	0	12/12/2025 12:45:24.6540	1.14119
3	0	12/12/2025 12:45:28.1540	1.1412
3	0	12/12/2025 12:45:31.6540	1.14122
3	0	12/12/2025 12:45:35.1540	1.14121
3	0	12/12/2025 12:45:38.6540	1.1412
3	0	12/12/2025 12:45:42.1540	1.1412
3	0	12/12/2025 12:45:45.6540	1.1412
3	0	12/12/2025 12:45:49.1540	1.1412
3	0	12/12/2025 12:45:52.6540	1.14121
3	0	12/12/2025 12:45:56.1540	1.14119
3	0	12/12/2025 12:45:59.6540	1.14118
3	0	12/12/2025 12:46:03.1540	1.1412
3	0	12/12/2025 12:46:06.6540	1.14119
3	0	12/12/2025 12:46:10.1540	1.14119
3	0	12/12/2025 12:46:13.6540	1.14118
3	0	12/12/2025 12:46:17.1540	1.14119
3	0	12/12/2025 12:46:20.6540	1.14119
3	0	12/12/2025 12:46:24.1540	1.14119
3	0	12/12/2025 12:46:27.6540	1.14118
3	0	12/12/2025 12:46:31.1540	1.14119
3	0	12/12/2025 12:46:34.6540	1.14119
3	0	12/12/2025 12:46:38.1540	1.14122
3	0	12/12/2025 12:46:41.6540	1.14118
3	0	12/12/2025 12:46:45.1540	1.14117
3	0	12/12/2025 12:46:48.6540	1.1412
3	0	12/12/2025 12:46:52.1540	1.14118
3	0	12/12/2025 12:46:55.6540	1.14116
3	0	12/12/2025 12:46:59.1540	1.14118
3	0	12/12/2025 12:47:02.6540	1.14117
3	0	12/12/2025 12:47:06.1540	1.14117
3	0	12/12/2025 12:47:09.6540	1.14119
3	0	12/12/2025 12:47:13.1540	1.14117
3	0	12/12/2025 12:47:16.6540	1.14116
3	0	12/12/2025 12:47:20.1540	1.14118
3	0	12/12/2025 12:47:23.6540	1.14118
3	0	12/12/2025 12:47:27.1540	1.14117
3	0	12/12/2025 12:47:30.6540	1.14117
3	0	12/12/2025 12:47:34.1540	1.14118
3	0	12/12/2025 12:47:37.6540	1.14119
3	0	12/12/2025 12:47:41.1540	1.14118
3	0	12/12/2025 12:47:44.6540	1.14119
3	0	12/12/2025 12:47:48.1540	1.14119
3	0	12/12/2025 12:47:51.6540	1.14118
3	0	12/12/2025 12:47:55.1540	1.1412
3	0	12/12/2025 12:47:58.6540	1.14119
3	0	12/12/2025 12:48:02.1540	1.14118
3	0	12/12/2025 12:48:05.6540	1.14118
3	0	12/12/2025 12:48:09.1540	1.14119
3	0	12/12/2025 12:48:12.6540	1.14116
3	0	12/12/2025 12:48:16.1540	1.14118
3	0	12/12/2025 12:48:19.6540	1.14118
3	0	12/12/2025 12:48:23.1540	1.14117
3	0	12/12/2025 12:48:26.6540	1.14117
3	0	12/12/2025 12:48:30.1540	1.14118
3	0	12/12/2025 12:48:33.6540	1.14116
3	0	12/12/2025 12:48:37.1540	1.14117
3	0	12/12/2025 12:48:40.6540	1.14118
3	0	12/12/2025 12:48:44.1540	1.14117
3	0	12/12/2025 12:48:47.6540	1.14115
3	0	12/12/2025 12:48:51.1540	1.14116
3	0	12/12/2025 12:48:54.6540	1.14118
3	0	12/12/2025 12:48:58.1540	1.14118
3	0	12/12/2025 12:49:01.6540	1.14118
3	0	12/12/2025 12:49:05.1540	1.14116
3	0	12/12/2025 12:49:08.6540	1.14117
3	0	12/12/2025 12:49:12.1540	1.14119
3	0	12/12/2025 12:49:15.6540	1.14118
3	0	12/12/2025 12:49:19.1540	1.14116
3	0	12/12/2025 12:49:22.6540	1.14117
3	0	12/12/2025 12:49:26.1540	1.14119
3	0	12/12/2025 12:49:29.6540	1.14117
3	0	12/12/2025 12:49:33.1540	1.14117
3	0	12/12/2025 12:49:36.6540	1.14117
3	0	12/12/2025 12:49:40.1540	1.14116
3	0	12/12/2025 12:49:43.6540	1.14118
3	0	12/12/2025 12:49:47.1540	1.14118
3	0	12/12/2025 12:49:50.6540	1.14116
3	0	12/12/2025 12:49:54.1540	1.14117
3	0	12/12/2025 12:49:57.6540	1.14119
3	0	12/12/2025 12:50:01.1540	1.14118
3	0	12/12/2025 12:50:04.6540	1.14116
3	0	12/12/2025 12:50:08.1540	1.14116
3	0	12/12/2025 12:50:11.6540	1.14117
3	0	12/12/2025 12:50:15.1540	1.14118
3	0	12/12/2025 12:50:18.6540	1.14116
3	0	12/12/2025 12:50:22.1540	1.14116
3	0	12/12/2025 12:50:25.6540	1.14115
3	0	12/12/2025 12:50:29.1540	1.14116
3	0	12/12/2025 12:50:32.6540	1.14118
3	0	12/12/2025 12:50:36.1540	1.14114
3	0	12/12/2025 12:50:39.6540	1.14114
3	0	12/12/2025 12:50:43.1540	1.14116
3	0	12/12/2025 12:50:46.6540	1.14115
3	0	12/12/2025 12:50:50.1540	1.14114
3	0	12/12/2025 12:50:53.6540	1.14116
3	0	12/12/2025 12:50:57.1540	1.14115
3	0	12/12/2025 12:51:00.6540	1.14114
3	0	12/12/2025 12:51:04.1540	1.14116
3	0	12/12/2025 12:51:07.6540	1.14115
3	0	12/12/2025 12:51:11.1540	1.14114
3	0	12/12/2025 12:51:14.6540	1.14116
3	0	12/12/2025 12:51:18.1540	1.14116
3	0	12/12/2025 12:51:21.6540	1.14114
3	0	12/12/2025 12:51:25.1540	1.14115
3	0	12/12/2025 12:51:28.6540	1.1412
3	0	12/12/2025 12:51:32.1540	1.14119
3	0	12/12/2025 12:51:35.6540	1.1412
3	0	12/12/2025 12:51:39.1540	1.14119
3	0	12/12/2025 12:51:42.6540	1.14118
3	0	12/12/2025 12:51:46.1540	1.14119
3	0	12/12/2025 12:51:49.6540	1.1412
3	0	12/12/2025 12:51:53.1540	1.1412
3	0	12/12/2025 12:51:56.6540	1.14116
3	0	12/12/2025 12:52:00.1540	1.14118
3	0	12/12/2025 12:52:03.6540	1.14119
3	0	12/12/2025 12:52:07.1540	1.14117
3	0	12/12/2025 12:52:10.6540	1.14117
3	0	12/12/2025 12:52:14.1540	1.14118
3	0	12/12/2025 12:52:17.6540	1.14118
3	0	12/12/2025 12:52:21.1540	1.14119
3	0	12/12/2025 12:52:24.6540	1.14117
3	0	12/12/2025 12:52:28.1540	1.14115
3	0	12/12/2025 12:52:31.6540	1.14117
3	0	12/12/2025 12:52:35.1540	1.14119
3	0	12/12/2025 12:52:38.6540	1.14117
3	0	12/12/2025 12:52:42.1540	1.14115
3	0	12/12/2025 12:52:45.6540	1.14117
3	0	12/12/2025 12:52:49.1540	1.14118
3	0	12/12/2025 12:52:52.6540	1.14116
3	0	12/12/2025 12:52:56.1540	1.14119
3	0	12/12/2025 12:52:59.6540	1.14117
3	0	12/12/2025 12:53:03.1540	1.14116
3	0	12/12/2025 12:53:06.6540	1.14119
3	0	12/12/2025 12:53:10.1540	1.14119
3	0	12/12/2025 12:53:13.6540	1.14115
3	0	12/12/2025 12:53:17.1540	1.14118
3	0	12/12/2025 12:53:20.6540	1.14118
3	0	12/12/2025 12:53:24.1540	1.14116
3	0	12/12/2025 12:53:27.6540	1.14116
3	0	12/12/2025 12:53:31.1540	1.14116
3	0	12/12/2025 12:53:34.6540	1.14116
3	0	12/12/2025 12:53:38.1540	1.14117
3	0	12/12/2025 12:53:41.6540	1.14117
3	0	12/12/2025 12:53:45.1540	1.14112
3	0	12/12/2025 12:53:48.6540	1.14115
3	0	12/12/2025 12:53:52.1540	1.14116
3	0	12/12/2025 12:53:55.6540	1.14115
3	0	12/12/2025 12:53:59.1540	1.14114
3	0	12/12/2025 12:54:02.6540	1.14116
3	0	12/12/2025 12:54:06.1540	1.14115
3	0	12/12/2025 12:54:09.6540	1.14115
3	0	12/12/2025 12:54:13.1540	1.14115
3	0	12/12/2025 12:54:16.6540	1.14115
3	0	12/12/2025 12:54:20.1540	1.14114
3	0	12/12/2025 12:54:23.6540	1.14117
3	0	12/12/2025 12:54:27.1540	1.14116
3	0	12/12/2025 12:54:30.6540	1.14113
3	0	12/12/2025 12:54:34.1540	1.14115
3	0	12/12/2025 12:54:37.6540	1.14116
3	0	12/12/2025 12:54:41.1540	1.14115
3	0	12/12/2025 12:54:44.6540	1.14113
3	0	12/12/2025 12:54:48.1540	1.14115
3	0	12/12/2025 12:54:51.6540	1.14114
3	0	12/12/2025 12:54:55.1540	1.14115
3	0	12/12/2025 12:54:58.6540	1.14115
3	0	12/12/2025 12:55:02.1540	1.14112
3	0	12/12/2025 12:55:05.6540	1.14113
3	0	12/12/2025 12:55:09.1540	1.14116
3	0	12/12/2025 12:55:12.6540	1.14114
3	0	12/12/2025 12:55:16.1540	1.14112
3	0	12/12/2025 12:55:19.6540	1.14114
3	0	12/12/2025 12:55:23.1540	1.14115
3	0	12/12/2025 12:55:26.6540	1.14113
3	0	12/12/2025 12:55:30.1540	1.14113
3	0	12/12/2025 12:55:33.6540	1.14113
3	0	12/12/2025 12:55:37.1540	1.14112
3	0	12/12/2025 12:55:40.6540	1.14113
3	0	12/12/2025 12:55:44.1540	1.14114
3	0	12/12/2025 12:55:47.6540	1.14112
3	0	12/12/2025 12:55:51.1540	1.14112
3	0	12/12/2025 12:55:54.6540	1.14114
3	0	12/12/2025 12:55:58.1540	1.14113
3	0	12/12/2025 12:56:01.6540	1.14112
3	0	12/12/2025 12:56:05.1540	1.14114
3	0	12/12/2025 12:56:08.6540	1.14113
3	0	12/12/2025 12:56:12.1540	1.14114
3	0	12/12/2025 12:56:15.6540	1.14115
3	0	12/12/2025 12:56:19.1540	1.14113
3	0	12/12/2025 12:56:22.6540	1.14111
3	0	12/12/2025 12:56:26.1540	1.14115
3	0	12/12/2025 12:56:29.6540	1.14114
3	0	12/12/2025 12:56:33.1540	1.14112
3	0	12/12/2025 12:56:36.6540	1.14114
3	0	12/12/2025 12:56:40.1540	1.14114
3	0	12/12/2025 12:56:43.6540	1.14113
3	0	12/12/2025 12:56:47.1540	1.14114
3	0	12/12/2025 12:56:50.6540	1.14114
3	0	12/12/2025 12:56:54.1540	1.14112
3	0	12/12/2025 12:56:57.6540	1.14114
3	0	12/12/2025 12:57:01.1540	1.14116
3	0	12/12/2025 12:57:04.6540	1.14113
3	0	12/12/2025 12:57:08.1540	1.14112
3	0	12/12/2025 12:57:11.6540	1.14116
3	0	12/12/2025 12:57:15.1540	1.14114
3	0	12/12/2025 12:57:18.6540	1.14114
3	0	12/12/2025 12:57:22.1540	1.14113
3	0	12/12/2025 12:57:25.6540	1.14113
3	0	12/12/2025 12:57:29.1540	1.14113
3	0	12/12/2025 12:57:32.6540	1.14115
3	0	12/12/2025 12:57:36.1540	1.14114
3	0	12/12/2025 12:57:39.6540	1.14111
3	0	12/12/2025 12:57:43.1540	1.14114
3	0	12/12/2025 12:57:46.6540	1.14116
3	0	12/12/2025 12:57:50.1540	1.14113
3	0	12/12/2025 12:57:53.6540	1.14113
3	0	12/12/2025 12:57:57.1540	1.14115
3	0	12/12/2025 12:58:00.6540	1.14115
3	0	12/12/2025 12:58:04.1540	1.14114
3	0	12/12/2025 12:58:07.6540	1.14114
3	0	12/12/2025 12:58:11.1540	1.14113
3	0	12/12/2025 12:58:14.6540	1.14115
3	0	12/12/2025 12:58:18.1540	1.14116
3	0	12/12/2025 12:58:21.6540	1.14116
3	0	12/12/2025 12:58:25.1540	1.14113
3	0	12/12/2025 12:58:28.6540	1.14116
3	0	12/12/2025 12:58:32.1540	1.14118
3	0	12/12/2025 12:58:35.6540	1.14115
3	0	12/12/2025 12:58:39.1540	1.14115
3	0	12/12/2025 12:58:42.6540	1.14117
3	0	12/12/2025 12:58:46.1540	1.14116
3	0	12/12/2025 12:58:49.6540	1.14117
3	0	12/12/2025 12:58:53.1540	1.14116
3	0	12/12/2025 12:58:56.6540	1.14115
3	0	12/12/2025 12:59:00.1540	1.14116
3	0	12/12/2025 12:59:03.6540	1.14117
3	0	12/12/2025 12:59:07.1540	1.14116
3	0	12/12/2025 12:59:10.6540	1.14115
3	0	12/12/2025 12:59:14.1540	1.14118
3	0	12/12/2025 12:59:17.6540	1.14117
3	0	12/12/2025 12:59:21.1540	1.14116
3	0	12/12/2025 12:59:24.6540	1.14116
3	0	12/12/2025 12:59:28.1540	1.14116
3	0	12/12/2025 12:59:31.6540	1.14116
3	0	12/12/2025 12:59:35.1540	1.14117
3	0	12/12/2025 12:59:38.6540	1.14116
3	0	12/12/2025 12:59:42.1540	1.14114
3	0	12/12/2025 12:59:45.6540	1.14116
3	0	12/12/2025 12:59:49.1540	1.14115
3	0	12/12/2025 12:59:52.6540	1.14115
3	0	12/12/2025 12:59:56.1540	1.14114
3	0	12/12/2025 12:59:59.6540	1.14116
3	0	12/12/2025 13:00:03.1540	1.14114
3	0	12/12/2025 13:00:06.6540	1.14116
3	0	12/12/2025 13:00:10.1540	1.14115
3	0	12/12/2025 13:00:13.6540	1.14113
3	0	12/12/2025 13:00:17.1540	1.14114
3	0	12/12/2025 13:00:20.6540	1.14115
3	0	12/12/2025 13:00:24.1540	1.14113
3	0	12/12/2025 13:00:27.6540	1.14112
3	0	12/12/2025 13:00:31.1540	1.14114
3	0	12/12/2025 13:00:34.6540	1.14113
3	0	12/12/2025 13:00:38.1540	1.14112
3	0	12/12/2025 13:00:41.6540	1.14112
3	0	12/12/2025 13:00:45.1540	1.14112
3	0	12/12/2025 13:00:48.6540	1.14112
3	0	12/12/2025 13:00:52.1540	1.14114
3	0	12/12/2025 13:00:55.6540	1.14113
3	0	12/12/2025 13:00:59.1540	1.14111
3	0	12/12/2025 13:01:02.6540	1.14113
3	0	12/12/2025 13:01:06.1540	1.14114
3	0	12/12/2025 13:01:09.6540	1.14113
3	0	12/12/2025 13:01:13.1540	1.14112
3	0	12/12/2025 13:01:16.6540	1.14113
3	0	12/12/2025 13:01:20.1540	1.14112
3	0	12/12/2025 13:01:23.6540	1.14114
3	0	12/12/2025 13:01:27.1540	1.14114
3	0	12/12/2025 13:01:30.6540	1.14111
3	0	12/12/2025 13:01:34.1540	1.14111
3	0	12/12/2025 13:01:37.6540	1.14114
3	0	12/12/2025 13:01:41.1540	1.14112
3	0	12/12/2025 13:01:44.6540	1.14111
3	0	12/12/2025 13:01:48.1540	1.14112
3	0	12/12/2025 13:01:51.6540	1.14112
3	0	12/12/2025 13:01:55.1540	1.14112
3	0	12/12/2025 13:01:58.6540	1.14111
3	0	12/12/2025 13:02:02.1540	1.14111
3	0	12/12/2025 13:02:05.6540	1.14111
3	0	12/12/2025 13:02:09.1540	1.14112
3	0	12/12/2025 13:02:12.6540	1.14113
3	0	12/12/2025 13:02:16.1540	1.14108
3	0	12/12/2025 13:02:19.6540	1.1411
3	0	12/12/2025 13:02:23.1540	1.14112
3	0	12/12/2025 13:02:26.6540	1.14111
3	0	12/12/2025 13:02:30.1540	1.1411
3	0	12/12/2025 13:02:33.6540	1.14111
3	0	12/12/2025 13:02:37.1540	1.1411
3	0	12/12/2025 13:02:40.6540	1.1411
3	0	12/12/2025 13:02:44.1540	1.14111
3	0	12/12/2025 13:02:47.6539	1.1411
3	0	12/12/2025 13:02:51.1539	1.14109
3	0	12/12/2025 13:02:54.6539	1.14111
3	0	12/12/2025 13:02:58.1539	1.1411
3	0	12/12/2025 13:03:01.6539	1.14108
3	0	12/12/2025 13:03:05.1539	1.14109
3	0	12/12/2025 13:03:08.6539	1.1411
3	0	12/12/2025 13:03:12.1539	1.14111
3	0	12/12/2025 13:03:15.6539	1.14111
3	0	12/12/2025 13:03:19.1539	1.14111
3	0	12/12/2025 13:03:22.6539	1.14108
3	0	12/12/2025 13:03:26.1539	1.14111
3	0	12/12/2025 13:03:29.6539	1.14114
3	0	12/12/2025 13:03:33.1539	1.14108
3	0	12/12/2025 13:03:36.6539	1.14109
3	0	12/12/2025 13:03:40.1539	1.14111
3	0	12/12/2025 13:03:43.6539	1.1411
3	0	12/12/2025 13:03:47.1539	1.14109
3	0	12/12/2025 13:03:50.6539	1.14109
3	0	12/12/2025 13:03:54.1539	1.14109
3	0	12/12/2025 13:03:57.6539	1.1411
3	0	12/12/2025 13:04:01.1539	1.1411
3	0	12/12/2025 13:04:04.6539	1.14108
3	0	12/12/2025 13:04:08.1539	1.14108
3	0	12/12/2025 13:04:11.6539	1.1411
3	0	12/12/2025 13:04:15.1539	1.1411
3	0	12/12/2025 13:04:18.6539	1.14109
3	0	12/12/2025 13:04:22.1539	1.14108
3	0	12/12/2025 13:04:25.6539	1.14109
3	0	12/12/2025 13:04:29.1539	1.14108
3	0	12/12/2025 13:04:32.6539	1.14108
3	0	12/12/2025 13:04:36.1539	1.14108
3	0	12/12/2025 13:04:39.6539	1.14106
3	0	12/12/2025 13:04:43.1539	1.14108
3	0	12/12/2025 13:04:46.6539	1.14109
3	0	12/12/2025 13:04:50.1539	1.14106
3	0	12/12/2025 13:04:53.6539	1.14105
3	0	12/12/2025 13:04:57.1539	1.14107
3	0	12/12/2025 13:05:00.6539	1.14108
3	0	12/12/2025 13:05:04.1539	1.14106
3	0	12/12/2025 13:05:07.6539	1.14106
3	0	12/12/2025 13:05:11.1539	1.14106
3	0	12/12/2025 13:05:14.6539	1.14106
3	0	12/12/2025 13:05:18.1539	1.14108
3	0	12/12/2025 13:05:21.6539	1.14107
3	0	12/12/2025 13:05:25.1539	1.14105
3	0	12/12/2025 13:05:28.6539	1.14107
3	0	12/12/2025 13:05:32.1539	1.14108
3	0	12/12/2025 13:05:35.6539	1.14105
3	0	12/12/2025 13:05:39.1539	1.14106
3	0	12/12/2025 13:05:42.6539	1.14106
3	0	12/12/2025 13:05:46.1539	1.14106
3	0	12/12/2025 13:05:49.6539	1.14106
3	0	12/12/2025 13:05:53.1539	1.14106
3	0	12/12/2025 13:05:56.6539	1.14106
3	0	12/12/2025 13:06:00.1539	1.14107
3	0	12/12/2025 13:06:03.6539	1.14107
3	0	12/12/2025 13:06:07.1539	1.14106
3	0	12/12/2025 13:06:10.6539	1.14104
3	0	12/12/2025 13:06:14.1539	1.14105
3	0	12/12/2025 13:06:17.6539	1.14106
3	0	12/12/2025 13:06:21.1539	1.14106
3	0	12/12/2025 13:06:24.6539	1.14105
3	0	12/12/2025 13:06:28.1539	1.14105
3	0	12/12/2025 13:06:31.6539	1.14105
3	0	12/12/2025 13:06:35.1539	1.14107
3	0	12/12/2025 13:06:38.6539	1.14106
3	0	12/12/2025 13:06:42.1539	1.14104
3	0	12/12/2025 13:06:45.6539	1.14106
3	0	12/12/2025 13:06:49.1539	1.14107
3	0	12/12/2025 13:06:52.6539	1.14104
3	0	12/12/2025 13:06:56.1539	1.14106
3	0	12/12/2025 13:06:59.6539	1.14107
3	0	12/12/2025 13:07:03.1539	1.14107
3	0	12/12/2025 13:07:06.6539	1.14105
3	0	12/12/2025 13:07:10.1539	1.14107
3	0	12/12/2025 13:07:13.6539	1.14104
3	0	12/12/2025 13:07:17.1539	1.14105
3	0	12/12/2025 13:07:20.6539	1.14107
3	0	12/12/2025 13:07:24.1539	1.14106
3	0	12/12/2025 13:07:27.6539	1.14106
3	0	12/12/2025 13:07:31.1539	1.14107
3	0	12/12/2025 13:07:34.6539	1.14107
3	0	12/12/2025 13:07:38.1539	1.14107
3	0	12/12/2025 13:07:41.6539	1.14107
3	0	12/12/2025 13:07:45.1539	1.14106
3	0	12/12/2025 13:07:48.6539	1.14105
3	0	12/12/2025 13:07:52.1539	1.14109
3	0	12/12/2025 13:07:55.6539	1.14106
3	0	12/12/2025 13:07:59.1539	1.14104
3	0	12/12/2025 13:08:02.6539	1.14106
3	0	12/12/2025 13:08:06.1539	1.14107
3	0	12/12/2025 13:08:09.6539	1.14106
3	0	12/12/2025 13:08:13.1539	1.14105
3	0	12/12/2025 13:08:16.6539	1.14106
3	0	12/12/2025 13:08:20.1539	1.14106
3	0	12/12/2025 13:08:23.6539	1.14108
3	0	12/12/2025 13:08:27.1539	1.14108
3	0	12/12/2025 13:08:30.6539	1.14107
3	0	12/12/2025 13:08:34.1539	1.14108
3	0	12/12/2025 13:08:37.6539	1.14109
3	0	12/12/2025 13:08:41.1539	1.14107
3	0	12/12/2025 13:08:44.6539	1.14105
3	0	12/12/2025 13:08:48.1539	1.14108
3	0	12/12/2025 13:08:51.6539	1.14108
3	0	12/12/2025 13:08:55.1539	1.14108
3	0	12/12/2025 13:08:58.6539	1.14107
3	0	12/12/2025 13:09:02.1539	1.14108
3	0	12/12/2025 13:09:05.6539	1.14107
3	0	12/12/2025 13:09:09.1539	1.14109
3	0	12/12/2025 13:09:12.6539	1.14107
3	0	12/12/2025 13:09:16.1539	1.14106
3	0	12/12/2025 13:09:19.6539	1.14107
3	0	12/12/2025 13:09:23.1539	1.14108
3	0	12/12/2025 13:09:26.6539	1.14106
3	0	12/12/2025 13:09:30.1539	1.14106
3	0	12/12/2025 13:09:33.6539	1.14107
3	0	12/12/2025 13:09:37.1539	1.14105
3	0	12/12/2025 13:09:40.6539	1.14107
3	0	12/12/2025 13:09:44.1539	1.14108
3	0	12/12/2025 13:09:47.6539	1.14104
3	0	12/12/2025 13:09:51.1539	1.14106
3	0	12/12/2025 13:09:54.6539	1.14109
3	0	12/12/2025 13:09:58.1539	1.14107
3	0	12/12/2025 13:10:01.6539	1.14106
3	0	12/12/2025 13:10:05.1539	1.14107
3	0	12/12/2025 13:10:08.6539	1.14107
3	0	12/12/2025 13:10:12.1539	1.14105
3	0	12/12/2025 13:10:15.6539	1.14106
3	0	12/12/2025 13:10:19.1539	1.14104
3	0	12/12/2025 13:10:22.6539	1.14104
3	0	12/12/2025 13:10:26.1539	1.14108
3	0	12/12/2025 13:10:29.6539	1.14106
3	0	12/12/2025 13:10:33.1539	1.14103
3	0	12/12/2025 13:10:36.6539	1.14106
3	0	12/12/2025 13:10:40.1539	1.14108
3	0	12/12/2025 13:10:43.6539	1.14106
3	0	12/12/2025 13:10:47.1539	1.14105
3	0	12/12/2025 13:10:50.6539	1.14106
3	0	12/12/2025 13:10:54.1539	1.14105
3	0	12/12/2025 13:10:57.6539	1.14107
3	0	12/12/2025 13:11:01.1539	1.14106
3	0	12/12/2025 13:11:04.6539	1.14105
3	0	12/12/2025 13:11:08.1539	1.14105
3	0	12/12/2025 13:11:11.6539	1.14107
3	0	12/12/2025 13:11:15.1539	1.14106
3	0	12/12/2025 13:11:18.6539	1.14104
3	0	12/12/2025 13:11:22.1539	1.14105
3	0	12/12/2025 13:11:25.6539	1.14109
3	0	12/12/2025 13:11:29.1539	1.14107
3	0	12/12/2025 13:11:32.6539	1.14107
3	0	12/12/2025 13:11:36.1539	1.14107
3	0	12/12/2025 13:11:39.6539	1.14106
3	0	12/12/2025 13:11:43.1539	1.14107
3	0	12/12/2025 13:11:46.6539	1.14106
3	0	12/12/2025 13:11:50.1539	1.14105
3	0	12/12/2025 13:11:53.6539	1.14107
3	0	12/12/2025 13:11:57.1539	1.14109
3	0	12/12/2025 13:12:00.6539	1.14107
3	0	12/12/2025 13:12:04.1539	1.14107
3	0	12/12/2025 13:12:07.6539	1.14107
3	0	12/12/2025 13:12:11.1539	1.14104
3	0	12/12/2025 13:12:14.6539	1.14104
3	0	12/12/2025 13:12:18.1539	1.14106
3	0	12/12/2025 13:12:21.6539	1.14102
3	0	12/12/2025 13:12:25.1539	1.14102
3	0	12/12/2025 13:12:28.6539	1.14104
3	0	12/12/2025 13:12:32.1539	1.14105
3	0	12/12/2025 13:12:35.6539	1.14102
3	0	12/12/2025 13:12:39.1539	1.14104
3	0	12/12/2025 13:12:42.6539	1.14103
3	0	12/12/2025 13:12:46.1539	1.14104
3	0	12/12/2025 13:12:49.6539	1.14103
3	0	12/12/2025 13:12:53.1539	1.14103
3	0	12/12/2025 13:12:56.6539	1.14102
3	0	12/12/2025 13:13:00.1539	1.14103
3	0	12/12/2025 13:13:03.6539	1.14105
3	0	12/12/2025 13:13:07.1539	1.14103
3	0	12/12/2025 13:13:10.6539	1.14104
3	0	12/12/2025 13:13:14.1539	1.14106
3	0	12/12/2025 13:13:17.6539	1.14104
3	0	12/12/2025 13:13:21.1539	1.14103
3	0	12/12/2025 13:13:24.6539	1.14104
3	0	12/12/2025 13:13:28.1539	1.14103
3	0	12/12/2025 13:13:31.6539	1.14104
3	0	12/12/2025 13:13:35.1539	1.14106
3	0	12/12/2025 13:13:38.6539	1.14102
3	0	12/12/2025 13:13:42.1539	1.14102
3	0	12/12/2025 13:13:45.6539	1.14103
3	0	12/12/2025 13:13:49.1539	1.14105
3	0	12/12/2025 13:13:52.6539	1.14102
3	0	12/12/2025 13:13:56.1539	1.14103
3	0	12/12/2025 13:13:59.6539	1.14104
3	0	12/12/2025 13:14:03.1539	1.14103
3	0	12/12/2025 13:14:06.6539	1.14104
3	0	12/12/2025 13:14:10.1539	1.14104
3	0	12/12/2025 13:14:13.6539	1.14101
3	0	12/12/2025 13:14:17.1539	1.14102
3	0	12/12/2025 13:14:20.6539	1.14105
3	0	12/12/2025 13:14:24.1539	1.14101
3	0	12/12/2025 13:14:27.6539	1.14101
3	0	12/12/2025 13:14:31.1539	1.14104
3	0	12/12/2025 13:14:34.6539	1.14102
3	0	12/12/2025 13:14:38.1539	1.14102
3	0	12/12/2025 13:14:41.6539	1.14101
3	0	12/12/2025 13:14:45.1539	1.141
3	0	12/12/2025 13:14:48.6539	1.14101
3	0	12/12/2025 13:14:52.1539	1.14103
3	0	12/12/2025 13:14:55.6539	1.141
3	0	12/12/2025 13:14:59.1539	1.141
3	0	12/12/2025 13:15:02.6539	1.14103
3	0	12/12/2025 13:15:06.1539	1.14103
3	0	12/12/2025 13:15:09.6539	1.141
3	0	12/12/2025 13:15:13.1539	1.141
3	0	12/12/2025 13:15:16.6539	1.14101
3	0	12/12/2025 13:15:20.1539	1.14101
3	0	12/12/2025 13:15:23.6539	1.14102
3	0	12/12/2025 13:15:27.1539	1.14102
3	0	12/12/2025 13:15:30.6539	1.141
3	0	12/12/2025 13:15:34.1539	1.141
3	0	12/12/2025 13:15:37.6539	1.14104
3	0	12/12/2025 13:15:41.1539	1.14099
3	0	12/12/2025 13:15:44.6539	1.14099
3	0	12/12/2025 13:15:48.1539	1.14101
3	0	12/12/2025 13:15:51.6539	1.14101
3	0	12/12/2025 13:15:55.1539	1.14099
3	0	12/12/2025 13:15:58.6539	1.14099
3	0	12/12/2025 13:16:02.1539	1.141
3	0	12/12/2025 13:16:05.6539	1.14099
3	0	12/12/2025 13:16:09.1539	1.141
3	0	12/12/2025 13:16:12.6539	1.141
3	0	12/12/2025 13:16:16.1539	1.14098
3	0	12/12/2025 13:16:19.6539	1.14101
3	0	12/12/2025 13:16:23.1539	1.14101
3	0	12/12/2025 13:16:26.6539	1.14098
3	0	12/12/2025 13:16:30.1539	1.14099
3	0	12/12/2025 13:16:33.6539	1.14101
3	0	12/12/2025 13:16:37.1539	1.14099
3	0	12/12/2025 13:16:40.6539	1.141
3	0	12/12/2025 13:16:44.1539	1.141
3	0	12/12/2025 13:16:47.6539	1.14098
3	0	12/12/2025 13:16:51.1539	1.14098
3	0	12/12/2025 13:16:54.6539	1.14101
3	0	12/12/2025 13:16:58.1539	1.14098
3	0	12/12/2025 13:17:01.6539	1.14097
3	0	12/12/2025 13:17:05.1539	1.141
3	0	12/12/2025 13:17:08.6539	1.141
3	0	12/12/2025 13:17:12.1539	1.14098
3	0	12/12/2025 13:17:15.6539	1.14098
3	0	12/12/2025 13:17:19.1539	1.14099
3	0	12/12/2025 13:17:22.6539	1.14098
3	0	12/12/2025 13:17:26.1539	1.14099
3	0	12/12/2025 13:17:29.6539	1.14099
3	0	12/12/2025 13:17:33.1539	1.14096
3	0	12/12/2025 13:17:36.6539	1.14098
3	0	12/12/2025 13:17:40.1539	1.14101
3	0	12/12/2025 13:17:43.6539	1.14098
3	0	12/12/2025 13:17:47.1539	1.14098
3	0	12/12/2025 13:17:50.6539	1.14098
3	0	12/12/2025 13:17:54.1539	1.14099
3	0	12/12/2025 13:17:57.6539	1.14095
3	0	12/12/2025 13:18:01.1539	1.14096
3	0	12/12/2025 13:18:04.6539	1.14098
3	0	12/12/2025 13:18:08.1539	1.14097
3	0	12/12/2025 13:18:11.6539	1.141
3	0	12/12/2025 13:18:15.1539	1.141
3	0	12/12/2025 13:18:18.6539	1.14096
3	0	12/12/2025 13:18:22.1539	1.14098
3	0	12/12/2025 13:18:25.6539	1.14098
3	0	12/12/2025 13:18:29.1539	1.14097
3	0	12/12/2025 13:18:32.6539	1.14095
3	0	12/12/2025 13:18:36.1539	1.14098
3	0	12/12/2025 13:18:39.6539	1.14096
3	0	12/12/2025 13:18:43.1539	1.14097
3	0	12/12/2025 13:18:46.6539	1.14099
3	0	12/12/2025 13:18:50.1539	1.14097
3	0	12/12/2025 13:18:53.6539	1.14096
3	0	12/12/2025 13:18:57.1539	1.14098
3	0	12/12/2025 13:19:00.6539	1.14098
3	0	12/12/2025 13:19:04.1539	1.14095
3	0	12/12/2025 13:19:07.6539	1.14096
3	0	12/12/2025 13:19:11.1539	1.14099
3	0	12/12/2025 13:19:14.6539	1.14097
3	0	12/12/2025 13:19:18.1539	1.14096
3	0	12/12/2025 13:19:21.6539	1.14095
3	0	12/12/2025 13:19:25.1539	1.14097
3	0	12/12/2025 13:19:28.6539	1.14098
3	0	12/12/2025 13:19:32.1539	1.14099
3	0	12/12/2025 13:19:35.6539	1.14098
3	0	12/12/2025 13:19:39.1539	1.14096
3	0	12/12/2025 13:19:42.6539	1.14098
3	0	12/12/2025 13:19:46.1539	1.14098
3	0	12/12/2025 13:19:49.6539	1.14096
3	0	12/12/2025 13:19:53.1539	1.14096
3	0	12/12/2025 13:19:56.6539	1.14097
3	0	12/12/2025 13:20:00.1539	1.14098
3	0	12/12/2025 13:20:03.6539	1.14098
3	0	12/12/2025 13:20:07.1539	1.14098
3	0	12/12/2025 13:20:10.6539	1.14096
3	0	12/12/2025 13:20:14.1539	1.14096
3	0	12/12/2025 13:20:17.6539	1.141
3	0	12/12/2025 13:20:21.1539	1.14096
3	0	12/12/2025 13:20:24.6539	1.14095
3	0	12/12/2025 13:20:28.1539	1.14099
3	0	12/12/2025 13:20:31.6539	1.14098
3	0	12/12/2025 13:20:35.1539	1.14096
3	0	12/12/2025 13:20:38.6539	1.14097
3	0	12/12/2025 13:20:42.1539	1.14097
3	0	12/12/2025 13:20:45.6539	1.14096
3	0	12/12/2025 13:20:49.1539	1.14098
3	0	12/12/2025 13:20:52.6539	1.14097
3	0	12/12/2025 13:20:56.1539	1.14096
3	0	12/12/2025 13:20:59.6539	1.14098
3	0	12/12/2025 13:21:03.1539	1.14099
3	0	12/12/2025 13:21:06.6539	1.14095
3	0	12/12/2025 13:21:10.1539	1.14097
3	0	12/12/2025 13:21:13.6539	1.14098
3	0	12/12/2025 13:21:17.1539	1.14097
3	0	12/12/2025 13:21:20.6539	1.14096
3	0	12/12/2025 13:21:24.1539	1.14096
3	0	12/12/2025 13:21:27.6539	1.14096
3	0	12/12/2025 13:21:31.1539	1.14096
3	0	12/12/2025 13:21:34.6539	1.14097
3	0	12/12/2025 13:21:38.1539	1.14096
3	0	12/12/2025 13:21:41.6539	1.14095
3	0	12/12/2025 13:21:45.1539	1.14096
3	0	12/12/2025 13:21:48.6539	1.14098
3	0	12/12/2025 13:21:52.1539	1.14096
3	0	12/12/2025 13:21:55.6539	1.14095
3	0	12/12/2025 13:21:59.1539	1.14096
3	0	12/12/2025 13:22:02.6539	1.14097
3	0	12/12/2025 13:22:06.1539	1.14096
3	0	12/12/2025 13:22:09.6539	1.14097
3	0	12/12/2025 13:22:13.1539	1.14095
3	0	12/12/2025 13:22:16.6539	1.14097
3	0	12/12/2025 13:22:20.1539	1.14098
3	0	12/12/2025 13:22:23.6539	1.14096
3	0	12/12/2025 13:22:27.1539	1.14094
3	0	12/12/2025 13:22:30.6539	1.14097
3	0	12/12/2025 13:22:34.1539	1.141
3	0	12/12/2025 13:22:37.6539	1.14097
3	0	12/12/2025 13:22:41.1539	1.14096
3	0	12/12/2025 13:22:44.6539	1.14098
3	0	12/12/2025 13:22:48.1539	1.14097
3	0	12/12/2025 13:22:51.6539	1.14097
3	0	12/12/2025 13:22:55.1539	1.14097
3	0	12/12/2025 13:22:58.6539	1.14096
3	0	12/12/2025 13:23:02.1539	1.14097
3	0	12/12/2025 13:23:05.6539	1.14097
3	0	12/12/2025 13:23:09.1539	1.14096
3	0	12/12/2025 13:23:12.6539	1.14095
3	0	12/12/2025 13:23:16.1539	1.14097
3	0	12/12/2025 13:23:19.6539	1.14098
3	0	12/12/2025 13:23:23.1539	1.14096
3	0	12/12/2025 13:23:26.6539	1.14096
3	0	12/12/2025 13:23:30.1539	1.14098
3	0	12/12/2025 13:23:33.6539	1.14097
3	0	12/12/2025 13:23:37.1539	1.14096
3	0	12/12/2025 13:23:40.6539	1.14096
3	0	12/12/2025 13:23:44.1539	1.14095
3	0	12/12/2025 13:23:47.6539	1.14095
3	0	12/12/2025 13:23:51.1539	1.14098
3	0	12/12/2025 13:23:54.6539	1.14094
3	0	12/12/2025 13:23:58.1539	1.14094
3	0	12/12/2025 13:24:01.6539	1.14096
3	0	12/12/2025 13:24:05.1539	1.14097
3	0	12/12/2025 13:24:08.6539	1.14094
3	0	12/12/2025 13:24:12.1539	1.14095
3	0	12/12/2025 13:24:15.6539	1.14097
3	0	12/12/2025 13:24:19.1539	1.14096
3	0	12/12/2025 13:24:22.6539	1.14094
3	0	12/12/2025 13:24:26.1539	1.14096
3	0	12/12/2025 13:24:29.6539	1.14094
3	0	12/12/2025 13:24:33.1539	1.14096
3	0	12/12/2025 13:24:36.6539	1.14095
3	0	12/12/2025 13:24:40.1539	1.14094
3	0	12/12/2025 13:24:43.6539	1.14093
3	0	12/12/2025 13:24:47.1539	1.14095
3	0	12/12/2025 13:24:50.6539	1.14095
3	0	12/12/2025 13:24:54.1539	1.14093
3	0	12/12/2025 13:24:57.6539	1.14094
3	0	12/12/2025 13:25:01.1539	1.14095
3	0	12/12/2025 13:25:04.6539	1.14093
3	0	12/12/2025 13:25:08.1539	1.14093
3	0	12/12/2025 13:25:11.6539	1.14093
3	0	12/12/2025 13:25:15.1539	1.14094
3	0	12/12/2025 13:25:18.6539	1.14093
3	0	12/12/2025 13:25:22.1539	1.14094
3	0	12/12/2025 13:25:25.6539	1.14092
3	0	12/12/2025 13:25:29.1539	1.14093
3	0	12/12/2025 13:25:32.6539	1.14095
3	0	12/12/2025 13:25:36.1539	1.14094
3	0	12/12/2025 13:25:39.6539	1.14092
3	0	12/12/2025 13:25:43.1539	1.14094
3	0	12/12/2025 13:25:46.6539	1.14094
3	0	12/12/2025 13:25:50.1539	1.14091
3	0	12/12/2025 13:25:53.6539	1.14091
3	0	12/12/2025 13:25:57.1539	1.14093
3	0	12/12/2025 13:26:00.6539	1.14093
3	0	12/12/2025 13:26:04.1539	1.14092
3	0	12/12/2025 13:26:07.6539	1.14093
3	0	12/12/2025 13:26:11.1539	1.14092
3	0	12/12/2025 13:26:14.6539	1.14095
3	0	12/12/2025 13:26:18.1539	1.14094
3	0	12/12/2025 13:26:21.6539	1.14093
3	0	12/12/2025 13:26:25.1539	1.14094
3	0	12/12/2025 13:26:28.6539	1.14094
3	0	12/12/2025 13:26:32.1539	1.14093
3	0	12/12/2025 13:26:35.6539	1.14091
3	0	12/12/2025 13:26:39.1539	1.14092
3	0	12/12/2025 13:26:42.6539	1.14094
3	0	12/12/2025 13:26:46.1539	1.1409
3	0	12/12/2025 13:26:49.6539	1.14091
3	0	12/12/2025 13:26:53.1539	1.14092
3	0	12/12/2025 13:26:56.6539	1.14091
3	0	12/12/2025 13:27:00.1539	1.14092
3	0	12/12/2025 13:27:03.6539	1.14091
3	0	12/12/2025 13:27:07.1539	1.14092
3	0	12/12/2025 13:27:10.6539	1.14091
3	0	12/12/2025 13:27:14.1539	1.14093
3	0	12/12/2025 13:27:17.6539	1.14091
3	0	12/12/2025 13:27:21.1539	1.1409
3	0	12/12/2025 13:27:24.6539	1.14091
3	0	12/12/2025 13:27:28.1539	1.14092
3	0	12/12/2025 13:27:31.6539	1.1409
3	0	12/12/2025 13:27:35.1539	1.1409
3	0	12/12/2025 13:27:38.6539	1.14093
3	0	12/12/2025 13:27:42.1539	1.14091
3	0	12/12/2025 13:27:45.6539	1.1409
3	0	12/12/2025 13:27:49.1539	1.14091
3	0	12/12/2025 13:27:52.6539	1.14092
3	0	12/12/2025 13:27:56.1539	1.14091
3	0	12/12/2025 13:27:59.6539	1.1409
3	0	12/12/2025 13:28:03.1539	1.14089
3	0	12/12/2025 13:28:06.6539	1.14089
3	0	12/12/2025 13:28:10.1539	1.14092
3	0	12/12/2025 13:28:13.6539	1.14091
3	0	12/12/2025 13:28:17.1539	1.14089
3	0	12/12/2025 13:28:20.6539	1.14089
3	0	12/12/2025 13:28:24.1539	1.14093
3	0	12/12/2025 13:28:27.6539	1.1409
3	0	12/12/2025 13:28:31.1539	1.14089
3	0	12/12/2025 13:28:34.6539	1.1409
3	0	12/12/2025 13:28:38.1539	1.1409
3	0	12/12/2025 13:28:41.6539	1.14089
3	0	12/12/2025 13:28:45.1539	1.14089
3	0	12/12/2025 13:28:48.6539	1.1409
3	0	12/12/2025 13:28:52.1539	1.1409
3	0	12/12/2025 13:28:55.6539	1.1409
3	0	12/12/2025 13:28:59.1539	1.1409
3	0	12/12/2025 13:29:02.6539	1.14088
3	0	12/12/2025 13:29:06.1539	1.1409
3	0	12/12/2025 13:29:09.6539	1.14091
3	0	12/12/2025 13:29:13.1539	1.14091
3	0	12/12/2025 13:29:16.6539	1.14088
3	0	12/12/2025 13:29:20.1539	1.14091
3	0	12/12/2025 13:29:23.6539	1.14092
3	0	12/12/2025 13:29:27.1539	1.14088
3	0	12/12/2025 13:29:30.6539	1.1409
3	0	12/12/2025 13:29:34.1539	1.14092
3	0	12/12/2025 13:29:37.6539	1.14089
3	0	12/12/2025 13:29:41.1539	1.1409
3	0	12/12/2025 13:29:44.6539	1.1409
3	0	12/12/2025 13:29:48.1539	1.1409
3	0	12/12/2025 13:29:51.6539	1.1409
3	0	12/12/2025 13:29:55.1539	1.14091
3	0	12/12/2025 13:29:58.6539	1.14088
3	0	12/12/2025 13:30:02.1539	1.14089
3	0	12/12/2025 13:30:05.6539	1.14092
3	0	12/12/2025 13:30:09.1539	1.14089
3	0	12/12/2025 13:30:12.6539	1.14088
3	0	12/12/2025 13:30:16.1539	1.1409
3	0	12/12/2025 13:30:19.6539	1.14092
3	0	12/12/2025 13:30:23.1539	1.14089
3	0	12/12/2025 13:30:26.6539	1.1409
3	0	12/12/2025 13:30:30.1539	1.1409
3	0	12/12/2025 13:30:33.6539	1.14091
3	0	12/12/2025 13:30:37.1539	1.14089
3	0	12/12/2025 13:30:40.6539	1.14091
3	0	12/12/2025 13:30:44.1539	1.1409
3	0	12/12/2025 13:30:47.6539	1.14091
3	0	12/12/2025 13:30:51.1539	1.14091
3	0	12/12/2025 13:30:54.6539	1.1409
3	0	12/12/2025 13:30:58.1539	1.14089
3	0	12/12/2025 13:31:01.6539	1.14092
3	0	12/12/2025 13:31:05.1539	1.14093
3	0	12/12/2025 13:31:08.6539	1.14089
3	0	12/12/2025 13:31:12.1539	1.14089
3	0	12/12/2025 13:31:15.6539	1.14091
3	0	12/12/2025 13:31:19.1539	1.1409
3	0	12/12/2025 13:31:22.6539	1.1409
3	0	12/12/2025 13:31:26.1539	1.14091
3	0	12/12/2025 13:31:29.6539	1.14093
3	0	12/12/2025 13:31:33.1539	1.1409
3	0	12/12/2025 13:31:36.6539	1.1409
3	0	12/12/2025 13:31:40.1539	1.14091
3	0	12/12/2025 13:31:43.6539	1.1409
3	0	12/12/2025 13:31:47.1539	1.14091
3	0	12/12/2025 13:31:50.6539	1.14091
3	0	12/12/2025 13:31:54.1539	1.14088
3	0	12/12/2025 13:31:57.6539	1.14091
3	0	12/12/2025 13:32:01.1539	1.14092
3	0	12/12/2025 13:32:04.6539	1.14091
3	0	12/12/2025 13:32:08.1539	1.14088
3	0	12/12/2025 13:32:11.6539	1.1409
3	0	12/12/2025 13:32:15.1539	1.1409
3	0	12/12/2025 13:32:18.6539	1.14089
3	0	12/12/2025 13:32:22.1539	1.14089
3	0	12/12/2025 13:32:25.6539	1.14089
3	0	12/12/2025 13:32:29.1539	1.14089
3	0	12/12/2025 13:32:32.6539	1.14088
3	0	12/12/2025 13:32:36.1539	1.14089
3	0	12/12/2025 13:32:39.6539	1.14089
3	0	12/12/2025 13:32:43.1539	1.1409
3	0	12/12/2025 13:32:46.6539	1.14091
3	0	12/12/2025 13:32:50.1539	1.14089
3	0	12/12/2025 13:32:53.6539	1.14088
3	0	12/12/2025 13:32:57.1539	1.1409
3	0	12/12/2025 13:33:00.6539	1.1409
3	0	12/12/2025 13:33:04.1539	1.14087
3	0	12/12/2025 13:33:07.6539	1.14088
3	0	12/12/2025 13:33:11.1539	1.1409
3	0	12/12/2025 13:33:14.6539	1.14089
3	0	12/12/2025 13:33:18.1539	1.14087
3	0	12/12/2025 13:33:21.6539	1.14089
3	0	12/12/2025 13:33:25.1539	1.14089
3	0	12/12/2025 13:33:28.6539	1.14088
3	0	12/12/2025 13:33:32.1539	1.14088
3	0	12/12/2025 13:33:35.6539	1.14088
3	0	12/12/2025 13:33:39.1539	1.14088
3	0	12/12/2025 13:33:42.6539	1.14088
3	0	12/12/2025 13:33:46.1539	1.14089
3	0	12/12/2025 13:33:49.6539	1.14087
3	0	12/12/2025 13:33:53.1539	1.14088
3	0	12/12/2025 13:33:56.6539	1.14089
3	0	12/12/2025 13:34:00.1539	1.14088
3	0	12/12/2025 13:34:03.6539	1.14086
3	0	12/12/2025 13:34:07.1539	1.14087
3	0	12/12/2025 13:34:10.6539	1.14089
3	0	12/12/2025 13:34:14.1539	1.14086
3	0	12/12/2025 13:34:17.6539	1.14088
3	0	12/12/2025 13:34:21.1539	1.14087
3	0	12/12/2025 13:34:24.6539	1.14087
3	0	12/12/2025 13:34:28.1539	1.14087
3	0	12/12/2025 13:34:31.6539	1.14087
3	0	12/12/2025 13:34:35.1539	1.14086
3	0	12/12/2025 13:34:38.6539	1.14088
3	0	12/12/2025 13:34:42.1539	1.14087
3	0	12/12/2025 13:34:45.6539	1.14085
3	0	12/12/2025 13:34:49.1539	1.14085
3	0	12/12/2025 13:34:52.6539	1.14087
3	0	12/12/2025 13:34:56.1539	1.14087
3	0	12/12/2025 13:34:59.6539	1.14084
3	0	12/12/2025 13:35:03.1539	1.14086
3	0	12/12/2025 13:35:06.6539	1.14087
3	0	12/12/2025 13:35:10.1539	1.14087
3	0	12/12/2025 13:35:13.6539	1.14085
3	0	12/12/2025 13:35:17.1539	1.14086
3	0	12/12/2025 13:35:20.6539	1.14087
3	0	12/12/2025 13:35:24.1539	1.14086
3	0	12/12/2025 13:35:27.6539	1.14087
3	0	12/12/2025 13:35:31.1539	1.14085
3	0	12/12/2025 13:35:34.6539	1.14084
3	0	12/12/2025 13:35:38.1539	1.14083
3	0	12/12/2025 13:35:41.6539	1.14085
3	0	12/12/2025 13:35:45.1539	1.14083
3	0	12/12/2025 13:35:48.6539	1.14085
3	0	12/12/2025 13:35:52.1539	1.14087
3	0	12/12/2025 13:35:55.6539	1.14084
3	0	12/12/2025 13:35:59.1539	1.14083
3	0	12/12/2025 13:36:02.6539	1.14086
3	0	12/12/2025 13:36:06.1539	1.14086
3	0	12/12/2025 13:36:09.6539	1.14084
3	0	12/12/2025 13:36:13.1539	1.14083
3	0	12/12/2025 13:36:16.6539	1.14084
3	0	12/12/2025 13:36:20.1539	1.14085
3	0	12/12/2025 13:36:23.6539	1.14084
3	0	12/12/2025 13:36:27.1539	1.14085
3	0	12/12/2025 13:36:30.6539	1.14083
3	0	12/12/2025 13:36:34.1539	1.14085
3	0	12/12/2025 13:36:37.6539	1.14086
3	0	12/12/2025 13:36:41.1539	1.14085
3	0	12/12/2025 13:36:44.6539	1.14083
3	0	12/12/2025 13:36:48.1539	1.14085
3	0	12/12/2025 13:36:51.6539	1.14085
3	0	12/12/2025 13:36:55.1539	1.14084
3	0	12/12/2025 13:36:58.6539	1.14083
3	0	12/12/2025 13:37:02.1539	1.14084
3	0	12/12/2025 13:37:05.6539	1.14083
3	0	12/12/2025 13:37:09.1539	1.14084
3	0	12/12/2025 13:37:12.6539	1.14084
3	0	12/12/2025 13:37:16.1539	1.14084
3	0	12/12/2025 13:37:19.6539	1.14084
3	0	12/12/2025 13:37:23.1539	1.14085
3	0	12/12/2025 13:37:26.6539	1.14084
3	0	12/12/2025 13:37:30.1539	1.14083
3	0	12/12/2025 13:37:33.6539	1.14085
3	0	12/12/2025 13:37:37.1539	1.14085
3	0	12/12/2025 13:37:40.6539	1.14082
3	0	12/12/2025 13:37:44.1539	1.14084
3	0	12/12/2025 13:37:47.6539	1.14084
3	0	12/12/2025 13:37:51.1539	1.14084
3	0	12/12/2025 13:37:54.6539	1.14083
3	0	12/12/2025 13:37:58.1539	1.14085
3	0	12/12/2025 13:38:01.6539	1.14085
3	0	12/12/2025 13:38:05.1539	1.14084
3	0	12/12/2025 13:38:08.6539	1.14084
3	0	12/12/2025 13:38:12.1539	1.14084
3	0	12/12/2025 13:38:15.6539	1.14082
3	0	12/12/2025 13:38:19.1539	1.14085
3	0	12/12/2025 13:38:22.6539	1.14084
3	0	12/12/2025 13:38:26.1539	1.14083
3	0	12/12/2025 13:38:29.6539	1.14084
3	0	12/12/2025 13:38:33.1539	1.14085
3	0	12/12/2025 13:38:36.6539	1.14084
3	0	12/12/2025 13:38:40.1539	1.14081
3	0	12/12/2025 13:38:43.6539	1.14086
3	0	12/12/2025 13:38:47.1539	1.14085
3	0	12/12/2025 13:38:50.6539	1.14083
3	0	12/12/2025 13:38:54.1539	1.14083
3	0	12/12/2025 13:38:57.6539	1.14084
3	0	12/12/2025 13:39:01.1539	1.14084
3	0	12/12/2025 13:39:04.6539	1.14083
3	0	12/12/2025 13:39:08.1539	1.14085
3	0	12/12/2025 13:39:11.6539	1.14083
3	0	12/12/2025 13:39:15.1539	1.14084
3	0	12/12/2025 13:39:18.6539	1.14084
3	0	12/12/2025 13:39:22.1539	1.14082
3	0	12/12/2025 13:39:25.6539	1.14082
3	0	12/12/2025 13:39:29.1539	1.14084
3	0	12/12/2025 13:39:32.6539	1.14085
3	0	12/12/2025 13:39:36.1539	1.14083
3	0	12/12/2025 13:39:39.6539	1.14083
3	0	12/12/2025 13:39:43.1539	1.14085
3	0	12/12/2025 13:39:46.6539	1.14084
3	0	12/12/2025 13:39:50.1539	1.14084
3	0	12/12/2025 13:39:53.6539	1.14085
3	0	12/12/2025 13:39:57.1539	1.14085
3	0	12/12/2025 13:40:00.6539	1.14085
3	0	12/12/2025 13:40:04.1539	1.14085
3	0	12/12/2025 13:40:07.6539	1.14085
3	0	12/12/2025 13:40:11.1539	1.14084
3	0	12/12/2025 13:40:14.6539	1.14084
3	0	12/12/2025 13:40:18.1539	1.14086
3	0	12/12/2025 13:40:21.6539	1.14085
3	0	12/12/2025 13:40:25.1539	1.14085
3	0	12/12/2025 13:40:28.6539	1.14086
3	0	12/12/2025 13:40:32.1539	1.14086
3	0	12/12/2025 13:40:35.6539	1.14084
3	0	12/12/2025 13:40:39.1539	1.14085
3	0	12/12/2025 13:40:42.6539	1.14085
3	0	12/12/2025 13:40:46.1539	1.14084
3	0	12/12/2025 13:40:49.6539	1.14084
3	0	12/12/2025 13:40:53.1539	1.14083
3	0	12/12/2025 13:40:56.6539	1.14085
3	0	12/12/2025 13:41:00.1539	1.14084
3	0	12/12/2025 13:41:03.6539	1.14083
3	0	12/12/2025 13:41:07.1539	1.14082
3	0	12/12/2025 13:41:10.6539	1.1408
3	0	12/12/2025 13:41:14.1539	1.14082
3	0	12/12/2025 13:41:17.6539	1.14083
3	0	12/12/2025 13:41:21.1539	1.14083
3	0	12/12/2025 13:41:24.6539	1.14081
3	0	12/12/2025 13:41:28.1539	1.14083
3	0	12/12/2025 13:41:31.6539	1.14082
3	0	12/12/2025 13:41:35.1539	1.14081
3	0	12/12/2025 13:41:38.6539	1.14083
3	0	12/12/2025 13:41:42.1539	1.14084
3	0	12/12/2025 13:41:45.6539	1.14082
3	0	12/12/2025 13:41:49.1539	1.14082
3	0	12/12/2025 13:41:52.6539	1.14082
3	0	12/12/2025 13:41:56.1539	1.14081
3	0	12/12/2025 13:41:59.6539	1.14085
3	0	12/12/2025 13:42:03.1539	1.14084
3	0	12/12/2025 13:42:06.6539	1.14082
3	0	12/12/2025 13:42:10.1539	1.14083
3	0	12/12/2025 13:42:13.6539	1.14085
3	0	12/12/2025 13:42:17.1539	1.14084
3	0	12/12/2025 13:42:20.6539	1.14082
3	0	12/12/2025 13:42:24.1539	1.14084
3	0	12/12/2025 13:42:27.6539	1.14084
3	0	12/12/2025 13:42:31.1539	1.14082
3	0	12/12/2025 13:42:34.6539	1.14083
3	0	12/12/2025 13:42:38.1539	1.14083
3	0	12/12/2025 13:42:41.6539	1.14083
3	0	12/12/2025 13:42:45.1539	1.14082
3	0	12/12/2025 13:42:48.6539	1.14081
3	0	12/12/2025 13:42:52.1539	1.14082
3	0	12/12/2025 13:42:55.6539	1.14082
3	0	12/12/2025 13:42:59.1539	1.14082
3	0	12/12/2025 13:43:02.6539	1.14082
3	0	12/12/2025 13:43:06.1539	1.14081
3	0	12/12/2025 13:43:09.6539	1.14082
3	0	12/12/2025 13:43:13.1539	1.14085
3	0	12/12/2025 13:43:16.6539	1.1408
3	0	12/12/2025 13:43:20.1539	1.1408
3	0	12/12/2025 13:43:23.6539	1.14084
3	0	12/12/2025 13:43:27.1539	1.14082
3	0	12/12/2025 13:43:30.6539	1.1408
3	0	12/12/2025 13:43:34.1539	1.14081
3	0	12/12/2025 13:43:37.6539	1.14082
3	0	12/12/2025 13:43:41.1539	1.14081
3	0	12/12/2025 13:43:44.6539	1.14081
3	0	12/12/2025 13:43:48.1539	1.14081
3	0	12/12/2025 13:43:51.6539	1.14081
3	0	12/12/2025 13:43:55.1539	1.14081
3	0	12/12/2025 13:43:58.6539	1.14082
3	0	12/12/2025 13:44:02.1539	1.1408
3	0	12/12/2025 13:44:05.6539	1.14079
3	0	12/12/2025 13:44:09.1539	1.14081
3	0	12/12/2025 13:44:12.6539	1.14083
3	0	12/12/2025 13:44:16.1539	1.1408
3	0	12/12/2025 13:44:19.6539	1.14081
3	0	12/12/2025 13:44:23.1539	1.14082
3	0	12/12/2025 13:44:26.6539	1.14081
3	0	12/12/2025 13:44:30.1539	1.14079
3	0	12/12/2025 13:44:33.6539	1.14081
3	0	12/12/2025 13:44:37.1539	1.1408
3	0	12/12/2025 13:44:40.6539	1.14081
3	0	12/12/2025 13:44:44.1539	1.1408
3	0	12/12/2025 13:44:47.6539	1.14081
3	0	12/12/2025 13:44:51.1539	1.1408
3	0	12/12/2025 13:44:54.6539	1.14082
3	0	12/12/2025 13:44:58.1539	1.14081
3	0	12/12/2025 13:45:01.6539	1.14079
3	0	12/12/2025 13:45:05.1539	1.1408
3	0	12/12/2025 13:45:08.6539	1.14082
3	0	12/12/2025 13:45:12.1539	1.1408
3	0	12/12/2025 13:45:15.6539	1.14078
3	0	12/12/2025 13:45:19.1539	1.1408
3	0	12/12/2025 13:45:22.6539	1.14082
3	0	12/12/2025 13:45:26.1539	1.14081
3	0	12/12/2025 13:45:29.6539	1.1408
3	0	12/12/2025 13:45:33.1539	1.14079
3	0	12/12/2025 13:45:36.6539	1.14081
3	0	12/12/2025 13:45:37.2201	1.1408