File: docs/examples/XAS/Echem/Operando1/Cell C/CellC_01_01_OCV_C04.mpt
EC-Lab ASCII FILE
Nb header lines : 53

Open Circuit Voltage

Run on channel : 4 (SN 52456)
User :
CE vs. WE compliance from -10 V to 10 V
Electrode connection : standard
Potential control : Ewe
Ewe ctrl range : min = 0.00 V, max = 3.00 V
Safety Limits :
	Do not start on E overload
Acquisition started on : 12/11/2025 15:07:26.419
Technique started on : 12/11/2025 15:07:26.919
Loaded Setting File :  NONE
Saved on :
	File : CellC_01_01_OCV_C04.mpr
	Directory : L:\projects\cycle2025-II\20250340369-skhabazian\EC_lab\Cell C\
	Host : 84.89.228.57
Device : VSP (SN 2155)
Address : 10.0.48.130
EC-LAB for windows v11.61 (software)
Internet server v11.61 (firmware)
Command interpretor v11.61 (firmware)
Electrode material :
Initial state :
Electrolyte :
Comments :
Mass of active material : 0.001 mg
 at x = 0.000
Molecular weight of active material (at x = 0) : 0.001 g/mol
Atomic weight of intercalated ion : 0.001 g/mol
Acquisition started at : xo = 0.000
Number of e- transfered per intercalated ion : 1
for DX = 1, DQ = 26.802 mA.h
Battery capacity : 0.000 A.h
Electrode surface area : 0.000 cm²
Characteristic mass : 0.001 g
Volume (V) : 0.001 cm³
Text export
   Mode : Standard
   Time format : Absolute MMDDYYYY
Cycle Definition : Charge/Discharge alternance
tR (h:m:s)          20:00:30.0000
dER/dt (mV/h)       0.0
record              <Ewe>
dER (mV)            0.00
dtR (s)             0.5000
E range min (V)     0.000
E range max (V)     3.000

mode	error	time/s	<Ewe/V>
3	0	12/11/2025 15:07:26.9190	1.43211
3	0	12/11/2025 15:07:28.9190	1.43211
3	0	12/11/2025 15:07:30.9190	1.43212
3	0	12/11/2025 15:07:32.9190	1.43211
3	0	12/11/2025 15:07:34.9190	1.4321
3	0	12/11/2025 15:07:36.9190	1.4321
3	0	12/11/2025 15:07:38.9190	1.43211
3	0	12/11/2025 15:07:40.9190	1.4321
3	0	12/11/2025 15:07:42.9190	1.4321
3	0	12/11/2025 15:07:44.9190	1.4321
3	0	12/11/2025 15:07:46.9190	1.43209
3	0	12/11/2025 15:07:48.9190	1.4321
3	0	12/11/2025 15:07:50.9190	1.4321
3	0	12/11/2025 15:07:52.9190	1.4321
3	0	12/11/2025 15:07:54.9190	1.4321
3	0	12/11/2025 15:07:56.9190	1.4321
3	0	12/11/2025 15:07:58.9190	1.43209
3	0	12/11/2025 15:08:00.9190	1.43209
3	0	12/11/2025 15:08:02.9190	1.43209
3	0	12/11/2025 15:08:04.9190	1.4321
3	0	12/11/2025 15:08:06.9190	1.43209
3	0	12/11/2025 15:08:08.9190	1.4321
3	0	12/11/2025 15:08:10.9190	1.43209
3	0	12/11/2025 15:08:12.9190	1.43209
3	0	12/11/2025 15:08:14.9190	1.43209
3	0	12/11/2025 15:08:16.9190	1.43208
3	0	12/11/2025 15:08:18.9190	1.43209
3	0	12/11/2025 15:08:20.9190	1.43208
3	0	12/11/2025 15:08:22.9190	1.43208
3	0	12/11/2025 15:08:24.9190	1.43208
3	0	12/11/2025 15:08:26.9190	1.43208
3	0	12/11/2025 15:08:28.9190	1.43208
3	0	12/11/2025 15:08:30.9190	1.43208
3	0	12/11/2025 15:08:32.9190	1.43208
3	0	12/11/2025 15:08:34.9190	1.43207
3	0	12/11/2025 15:08:36.9190	1.43207
3	0	12/11/2025 15:08:38.9190	1.43207
3	0	12/11/2025 15:08:40.9190	1.43207
3	0	12/11/2025 15:08:42.9190	1.43207
3	0	12/11/2025 15:08:44.9190	1.43207
3	0	12/11/2025 15:08:46.9190	1.43207
3	0	12/11/2025 15:08:48.9190	1.43207
3	0	12/11/2025 15:08:50.9190	1.43207
3	0	12/11/2025 15:08:52.9190	1.43207
3	0	12/11/2025 15:08:54.9190	1.43207
3	0	12/11/2025 15:08:56.9190	1.43207
3	0	12/11/2025 15:08:58.9190	1.43206
3	0	12/11/2025 15:09:00.9190	1.43206
3	0	12/11/2025 15:09:02.9190	1.43206
3	0	12/11/2025 15:09:04.9190	1.43206
3	0	12/11/2025 15:09:06.9190	1.43206
3	0	12/11/2025 15:09:08.9190	1.43206
3	0	12/11/2025 15:09:10.9190	1.43205
3	0	12/11/2025 15:09:12.9190	1.43205
3	0	12/11/2025 15:09:14.9190	1.43205
3	0	12/11/2025 15:09:16.9190	1.43205
3	0	12/11/2025 15:09:18.9190	1.43205
3	0	12/11/2025 15:09:20.9190	1.43204
3	0	12/11/2025 15:09:22.9190	1.43204
3	0	12/11/2025 15:09:24.9190	1.43204
3	0	12/11/2025 15:09:26.9190	1.43204
3	0	12/11/2025 15:09:28.9190	1.43203
3	0	12/11/2025 15:09:30.9190	1.43203
3	0	12/11/2025 15:09:32.9190	1.43203
3	0	12/11/2025 15:09:34.9190	1.43203
3	0	12/11/2025 15:09:36.9190	1.43203
3	0	12/11/2025 15:09:38.9190	1.43203
3	0	12/11/2025 15:09:40.9190	1.43203
3	0	12/11/2025 15:09:42.9190	1.43203
3	0	12/11/2025 15:09:44.9190	1.43202
3	0	12/11/2025 15:09:46.9190	1.43203
3	0	12/11/2025 15:09:48.9190	1.43202
3	0	12/11/2025 15:09:50.9190	1.43202
3	0	12/11/2025 15:09:52.9190	1.43202
3	0	12/11/2025 15:09:54.9190	1.43202
3	0	12/11/2025 15:09:56.9190	1.43202
3	0	12/11/2025 15:09:58.9190	1.43202
3	0	12/11/2025 15:10:00.9190	1.43201
3	0	12/11/2025 15:10:02.9190	1.43202
3	0	12/11/2025 15:10:04.9190	1.43201
3	0	12/11/2025 15:10:06.9190	1.43201
3	0	12/11/2025 15:10:08.9190	1.43202
3	0	12/11/2025 15:10:10.9190	1.432
3	0	12/11/2025 15:10:12.9190	1.432
3	0	12/11/2025 15:10:14.9190	1.432
3	0	12/11/2025 15:10:16.9190	1.43199
3	0	12/11/2025 15:10:18.9190	1.43199
3	0	12/11/2025 15:10:20.9190	1.43199
3	0	12/11/2025 15:10:22.9190	1.43199
3	0	12/11/2025 15:10:24.9190	1.43198
3	0	12/11/2025 15:10:26.9190	1.43198
3	0	12/11/2025 15:10:28.9190	1.43199
3	0	12/11/2025 15:10:30.9190	1.43198
3	0	12/11/2025 15:10:32.9190	1.43198
3	0	12/11/2025 15:10:34.9190	1.43197
3	0	12/11/2025 15:10:36.9190	1.43197
3	0	12/11/2025 15:10:38.9190	1.43197
3	0	12/11/2025 15:10:40.9190	1.43197
3	0	12/11/2025 15:10:42.9190	1.43197
3	0	12/11/2025 15:10:44.9190	1.43197
3	0	12/11/2025 15:10:46.9190	1.43197
3	0	12/11/2025 15:10:48.9190	1.43197
3	0	12/11/2025 15:10:50.9190	1.43197
3	0	12/11/2025 15:10:52.9190	1.43197
3	0	12/11/2025 15:10:54.9190	1.43197
3	0	12/11/2025 15:10:56.9190	1.43197
3	0	12/11/2025 15:10:58.9190	1.43196
3	0	12/11/2025 15:11:00.9190	1.43196
3	0	12/11/2025 15:11:02.9190	1.43196
3	0	12/11/2025 15:11:04.9190	1.43196
3	0	12/11/2025 15:11:06.9190	1.43196
3	0	12/11/2025 15:11:08.9190	1.43195
3	0	12/11/2025 15:11:10.9190	1.43196
3	0	12/11/2025 15:11:12.9190	1.43195
3	0	12/11/2025 15:11:14.9190	1.43195
3	0	12/11/2025 15:11:16.9190	1.43195
3	0	12/11/2025 15:11:18.9190	1.43195
3	0	12/11/2025 15:11:20.9190	1.43195
3	0	12/11/2025 15:11:22.9190	1.43194
3	0	12/11/2025 15:11:24.9190	1.43195
3	0	12/11/2025 15:11:26.9190	1.43195
3	0	12/11/2025 15:11:28.9190	1.43194
3	0	12/11/2025 15:11:30.9190	1.43194
3	0	12/11/2025 15:11:32.9190	1.43194
3	0	12/11/2025 15:11:34.9190	1.43194
3	0	12/11/2025 15:11:36.9190	1.43194
3	0	12/11/2025 15:11:38.9190	1.43194
3	0	12/11/2025 15:11:40.9190	1.43194
3	0	12/11/2025 15:11:42.9190	1.43194
3	0	12/11/2025 15:11:44.9190	1.43194
3	0	12/11/2025 15:11:46.9190	1.43193
3	0	12/11/2025 15:11:48.9190	1.43193
3	0	12/11/2025 15:11:50.9190	1.43194
3	0	12/11/2025 15:11:52.9190	1.43193
3	0	12/11/2025 15:11:54.9190	1.43193
3	0	12/11/2025 15:11:56.9190	1.43193
3	0	12/11/2025 15:11:58.9190	1.43192
3	0	12/11/2025 15:12:00.9190	1.43192
3	0	12/11/2025 15:12:02.9190	1.43192
3	0	12/11/2025 15:12:04.9190	1.43192
3	0	12/11/2025 15:12:06.9190	1.43192
3	0	12/11/2025 15:12:08.9190	1.43192
3	0	12/11/2025 15:12:10.9190	1.43191
3	0	12/11/2025 15:12:12.9190	1.43191
3	0	12/11/2025 15:12:14.9190	1.43191
3	0	12/11/2025 15:12:16.9190	1.43191
3	0	12/11/2025 15:12:18.9190	1.43191
3	0	12/11/2025 15:12:20.9190	1.43191
3	0	12/11/2025 15:12:22.9190	1.4319
3	0	12/11/2025 15:12:24.9190	1.4319
3	0	12/11/2025 15:12:26.9190	1.4319
3	0	12/11/2025 15:12:28.9190	1.4319
3	0	12/11/2025 15:12:30.9190	1.4319
3	0	12/11/2025 15:12:32.9190	1.4319
3	0	12/11/2025 15:12:34.9190	1.4319
3	0	12/11/2025 15:12:36.9190	1.4319
3	0	12/11/2025 15:12:38.9190	1.4319
3	0	12/11/2025 15:12:40.9190	1.4319
3	0	12/11/2025 15:12:42.9190	1.43189
3	0	12/11/2025 15:12:44.9190	1.4319
3	0	12/11/2025 15:12:46.9190	1.43189
3	0	12/11/2025 15:12:48.9190	1.43189
3	0	12/11/2025 15:12:50.9190	1.43189
3	0	12/11/2025 15:12:52.9190	1.43189
3	0	12/11/2025 15:12:54.9190	1.43189
3	0	12/11/2025 15:12:56.9190	1.43189
3	0	12/11/2025 15:12:58.9190	1.43189
3	0	12/11/2025 15:13:00.9190	1.43188
3	0	12/11/2025 15:13:02.9190	1.43188
3	0	12/11/2025 15:13:04.9190	1.43188
3	0	12/11/2025 15:13:06.9190	1.43188
3	0	12/11/2025 15:13:08.9190	1.43187
3	0	12/11/2025 15:13:10.9190	1.43187
3	0	12/11/2025 15:13:12.9190	1.43187
3	0	12/11/2025 15:13:14.9190	1.43187
3	0	12/11/2025 15:13:16.9190	1.43186
3	0	12/11/2025 15:13:18.9190	1.43186
3	0	12/11/2025 15:13:20.9190	1.43186
3	0	12/11/2025 15:13:22.9190	1.43186
3	0	12/11/2025 15:13:24.9190	1.43186
3	0	12/11/2025 15:13:26.9190	1.43186
3	0	12/11/2025 15:13:28.9190	1.43186
3	0	12/11/2025 15:13:30.9190	1.43186
3	0	12/11/2025 15:13:32.9190	1.43186
3	0	12/11/2025 15:13:34.9190	1.43186
3	0	12/11/2025 15:13:36.9190	1.43185
3	0	12/11/2025 15:13:38.9190	1.43185
3	0	12/11/2025 15:13:40.9190	1.43185
3	0	12/11/2025 15:13:42.9190	1.43185
3	0	12/11/2025 15:13:44.9190	1.43185
3	0	12/11/2025 15:13:46.9190	1.43184
3	0	12/11/2025 15:13:48.9190	1.43184
3	0	12/11/2025 15:13:50.9190	1.43184
3	0	12/11/2025 15:13:52.9190	1.43184
3	0	12/11/2025 15:13:54.9190	1.43185
3	0	12/11/2025 15:13:56.9190	1.43184
3	0	12/11/2025 15:13:58.9190	1.43184
3	0	12/11/2025 15:14:00.9190	1.43184
3	0	12/11/2025 15:14:02.9190	1.43184
3	0	12/11/2025 15:14:04.9190	1.43184
3	0	12/11/2025 15:14:06.9190	1.43184
3	0	12/11/2025 15:14:08.9190	1.43184
3	0	12/11/2025 15:14:10.9190	1.43184
3	0	12/11/2025 15:14:12.9190	1.43183
3	0	12/11/2025 15:14:14.9190	1.43183
3	0	12/11/2025 15:14:16.9190	1.43183
3	0	12/11/2025 15:14:18.9190	1.43183
3	0	12/11/2025 15:14:20.9190	1.43183
3	0	12/11/2025 15:14:22.9190	1.43183
3	0	12/11/2025 15:14:24.9190	1.43183
3	0	12/11/2025 15:14:26.9190	1.43182
3	0	12/11/2025 15:14:28.9190	1.43185
3	0	12/11/2025 15:14:30.9190	1.43183
3	0	12/11/2025 15:14:32.9190	1.43183
3	0	12/11/2025 15:14:34.9190	1.43183
3	0	12/11/2025 15:14:36.9190	1.43182
3	0	12/11/2025 15:14:38.9190	1.43182
3	0	12/11/2025 15:14:40.9190	1.43182
3	0	12/11/2025 15:14:42.9190	1.43182
3	0	12/11/2025 15:14:44.9190	1.43182
3	0	12/11/2025 15:14:46.9190	1.43182
3	0	12/11/2025 15:14:48.9190	1.43182
3	0	12/11/2025 15:14:50.9190	1.43182
3	0	12/11/2025 15:14:52.9190	1.43181
3	0	12/11/2025 15:14:54.9190	1.43181
3	0	12/11/2025 15:14:56.9190	1.43181
3	0	12/11/2025 15:14:58.9190	1.43181
3	0	12/11/2025 15:15:00.9190	1.43181
3	0	12/11/2025 15:15:02.9190	1.43181
3	0	12/11/2025 15:15:04.9190	1.4318
3	0	12/11/2025 15:15:06.9190	1.43181
3	0	12/11/2025 15:15:08.9190	1.4318
3	0	12/11/2025 15:15:10.9190	1.4318
3	0	12/11/2025 15:15:12.9190	1.4318
3	0	12/11/2025 15:15:14.9190	1.4318
3	0	12/11/2025 15:15:16.9190	1.4318
3	0	12/11/2025 15:15:18.9190	1.4318
3	0	12/11/2025 15:15:20.9190	1.4318
3	0	12/11/2025 15:15:22.9190	1.43179
3	0	12/11/2025 15:15:24.9190	1.43179
3	0	12/11/2025 15:15:26.9190	1.43179
3	0	12/11/2025 15:15:28.9190	1.4318
3	0	12/11/2025 15:15:30.9190	1.43179
3	0	12/11/2025 15:15:32.9190	1.43178
3	0	12/11/2025 15:15:34.9190	1.43177
3	0	12/11/2025 15:15:36.9190	1.43177
3	0	12/11/2025 15:15:38.9190	1.43177
3	0	12/11/2025 15:15:40.9190	1.43177
3	0	12/11/2025 15:15:42.9190	1.43176
3	0	12/11/2025 15:15:44.9190	1.43176
3	0	12/11/2025 15:15:46.9190	1.43176
3	0	12/11/2025 15:15:48.9190	1.43176
3	0	12/11/2025 15:15:50.9190	1.43175
3	0	12/11/2025 15:15:52.9190	1.43175
3	0	12/11/2025 15:15:54.9190	1.43175
3	0	12/11/2025 15:15:56.9190	1.43174
3	0	12/11/2025 15:15:58.9190	1.43174
3	0	12/11/2025 15:16:00.9190	1.43174
3	0	12/11/2025 15:16:02.9190	1.43174
3	0	12/11/2025 15:16:04.9190	1.43174
3	0	12/11/2025 15:16:06.9190	1.43174
3	0	12/11/2025 15:16:08.9190	1.43173
3	0	12/11/2025 15:16:10.9190	1.43173
3	0	12/11/2025 15:16:12.9190	1.43172
3	0	12/11/2025 15:16:14.9190	1.43172
3	0	12/11/2025 15:16:16.9190	1.43172
3	0	12/11/2025 15:16:18.9190	1.43172
3	0	12/11/2025 15:16:20.9190	1.43172
3	0	12/11/2025 15:16:22.9190	1.43171
3	0	12/11/2025 15:16:24.9190	1.43171
3	0	12/11/2025 15:16:26.9190	1.43171
3	0	12/11/2025 15:16:28.9190	1.43171
3	0	12/11/2025 15:16:30.9190	1.43171
3	0	12/11/2025 15:16:32.9190	1.4317
3	0	12/11/2025 15:16:34.9190	1.4317
3	0	12/11/2025 15:16:36.9190	1.4317
3	0	12/11/2025 15:16:38.9190	1.4317
3	0	12/11/2025 15:16:40.9190	1.43169
3	0	12/11/2025 15:16:42.9190	1.43168
3	0	12/11/2025 15:16:44.9190	1.43168
3	0	12/11/2025 15:16:46.9190	1.43168
3	0	12/11/2025 15:16:48.9190	1.43168
3	0	12/11/2025 15:16:50.9190	1.43167
3	0	12/11/2025 15:16:52.9190	1.43167
3	0	12/11/2025 15:16:54.9190	1.43167
3	0	12/11/2025 15:16:56.9190	1.43166
3	0	12/11/2025 15:16:58.9190	1.43166
3	0	12/11/2025 15:17:00.9190	1.43165
3	0	12/11/2025 15:17:02.9190	1.43165
3	0	12/11/2025 15:17:04.9190	1.43164
3	0	12/11/2025 15:17:06.9190	1.43164
3	0	12/11/2025 15:17:08.9190	1.43163
3	0	12/11/2025 15:17:10.9190	1.43162
3	0	12/11/2025 15:17:12.9190	1.43162
3	0	12/11/2025 15:17:14.9190	1.43162
3	0	12/11/2025 15:17:16.9190	1.43162
3	0	12/11/2025 15:17:18.9190	1.4316
3	0	12/11/2025 15:17:20.9190	1.4316
3	0	12/11/2025 15:17:22.9190	1.43159
3	0	12/11/2025 15:17:24.9190	1.43158
3	0	12/11/2025 15:17:26.9190	1.43157
3	0	12/11/2025 15:17:28.9190	1.43157
3	0	12/11/2025 15:17:30.9190	1.43156
3	0	12/11/2025 15:17:32.9190	1.43156
3	0	12/11/2025 15:17:34.9190	1.43155
3	0	12/11/2025 15:17:36.9190	1.43154
3	0	12/11/2025 15:17:38.9190	1.43153
3	0	12/11/2025 15:17:40.9190	1.43152
3	0	12/11/2025 15:17:42.9190	1.43151
3	0	12/11/2025 15:17:44.9190	1.43151
3	0	12/11/2025 15:17:46.9190	1.4315
3	0	12/11/2025 15:17:48.9190	1.43149
3	0	12/11/2025 15:17:50.9190	1.43148
3	0	12/11/2025 15:17:52.9190	1.43147
3	0	12/11/2025 15:17:54.9190	1.43146
3	0	12/11/2025 15:17:56.9190	1.43146
3	0	12/11/2025 15:17:58.9190	1.43145
3	0	12/11/2025 15:18:00.9190	1.43143
3	0	12/11/2025 15:18:02.9190	1.43143
3	0	12/11/2025 15:18:04.9190	1.43142
3	0	12/11/2025 15:18:06.9190	1.43141
3	0	12/11/2025 15:18:08.9190	1.4314
3	0	12/11/2025 15:18:10.9190	1.4314
3	0	12/11/2025 15:18:12.9190	1.43139
3	0	12/11/2025 15:18:14.9190	1.43138
3	0	12/11/2025 15:18:16.9190	1.43138
3	0	12/11/2025 15:18:18.9190	1.43137
3	0	12/11/2025 15:18:20.9190	1.43136
3	0	12/11/2025 15:18:22.9190	1.43136
3	0	12/11/2025 15:18:24.9190	1.43135
3	0	12/11/2025 15:18:26.9190	1.43134
3	0	12/11/2025 15:18:28.9190	1.43133
3	0	12/11/2025 15:18:30.9190	1.43133
3	0	12/11/2025 15:18:32.9190	1.43132
3	0	12/11/2025 15:18:34.9190	1.43131
3	0	12/11/2025 15:18:36.9190	1.4313
3	0	12/11/2025 15:18:38.9190	1.4313
3	0	12/11/2025 15:18:40.9190	1.4313
3	0	12/11/2025 15:18:42.9190	1.43129
3	0	12/11/2025 15:18:44.9190	1.43129
3	0	12/11/2025 15:18:46.9190	1.43128
3	0	12/11/2025 15:18:48.9190	1.43127
3	0	12/11/2025 15:18:50.9190	1.43126
3	0	12/11/2025 15:18:52.9190	1.43125
3	0	12/11/2025 15:18:54.9190	1.43125
3	0	12/11/2025 15:18:56.9190	1.43127
3	0	12/11/2025 15:18:58.9190	1.43128
3	0	12/11/2025 15:19:00.9190	1.43128
3	0	12/11/2025 15:19:02.9190	1.43128
3	0	12/11/2025 15:19:04.9190	1.43128
3	0	12/11/2025 15:19:06.9190	1.43129
3	0	12/11/2025 15:19:08.9190	1.43129
3	0	12/11/2025 15:19:10.9190	1.43129
3	0	12/11/2025 15:19:12.9190	1.43129
3	0	12/11/2025 15:19:14.9190	1.43109
3	0	12/11/2025 15:19:16.9190	1.43107
3	0	12/11/2025 15:19:18.9190	1.43107
3	0	12/11/2025 15:19:20.9190	1.43107
3	0	12/11/2025 15:19:22.9190	1.43107
3	0	12/11/2025 15:19:24.9190	1.43108
3	0	12/11/2025 15:19:26.9190	1.43107
3	0	12/11/2025 15:19:28.9190	1.43108
3	0	12/11/2025 15:19:30.9190	1.43108
3	0	12/11/2025 15:19:32.9190	1.43108
3	0	12/11/2025 15:19:34.9190	1.43108
3	0	12/11/2025 15:19:36.9190	1.43108
3	0	12/11/2025 15:19:38.9190	1.43109
3	0	12/11/2025 15:19:40.9190	1.43108
3	0	12/11/2025 15:19:42.9190	1.43108
3	0	12/11/2025 15:19:44.9190	1.43108
3	0	12/11/2025 15:19:46.9190	1.43108
3	0	12/11/2025 15:19:48.9190	1.43108
3	0	12/11/2025 15:19:50.9190	1.43108
3	0	12/11/2025 15:19:52.9190	1.43108
3	0	12/11/2025 15:19:54.9190	1.43108
3	0	12/11/2025 15:19:56.9190	1.43108
3	0	12/11/2025 15:19:58.9190	1.43108
3	0	12/11/2025 15:20:00.9190	1.43109
3	0	12/11/2025 15:20:02.9190	1.43108
3	0	12/11/2025 15:20:04.9190	1.43108
3	0	12/11/2025 15:20:06.9190	1.43108
3	0	12/11/2025 15:20:08.9190	1.43108
3	0	12/11/2025 15:20:10.9190	1.43108
3	0	12/11/2025 15:20:12.9190	1.43108
3	0	12/11/2025 15:20:14.9190	1.43108
3	0	12/11/2025 15:20:16.9190	1.43108
3	0	12/11/2025 15:20:18.9190	1.43108
3	0	12/11/2025 15:20:20.9190	1.43108
3	0	12/11/2025 15:20:22.9190	1.43108
3	0	12/11/2025 15:20:24.9190	1.43108
3	0	12/11/2025 15:20:26.9190	1.43108
3	0	12/11/2025 15:20:28.9190	1.43108
3	0	12/11/2025 15:20:30.9190	1.43108
3	0	12/11/2025 15:20:32.9190	1.43108
3	0	12/11/2025 15:20:34.9190	1.43108
3	0	12/11/2025 15:20:36.9190	1.43108
3	0	12/11/2025 15:20:38.9190	1.43109
3	0	12/11/2025 15:20:40.9190	1.43109
3	0	12/11/2025 15:20:42.9190	1.43109
3	0	12/11/2025 15:20:44.9190	1.43108
3	0	12/11/2025 15:20:46.9190	1.43108
3	0	12/11/2025 15:20:48.9190	1.43109
3	0	12/11/2025 15:20:50.9190	1.43108
3	0	12/11/2025 15:20:52.9190	1.43109
3	0	12/11/2025 15:20:54.9190	1.43109
3	0	12/11/2025 15:20:56.9190	1.43108
3	0	12/11/2025 15:20:58.9190	1.43109
3	0	12/11/2025 15:21:00.9190	1.43108
3	0	12/11/2025 15:21:02.9190	1.43109
3	0	12/11/2025 15:21:04.9190	1.43108
3	0	12/11/2025 15:21:06.9190	1.43109
3	0	12/11/2025 15:21:08.9190	1.43108
3	0	12/11/2025 15:21:10.9190	1.43108
3	0	12/11/2025 15:21:12.9190	1.43109
3	0	12/11/2025 15:21:14.9190	1.43109
3	0	12/11/2025 15:21:16.9190	1.43108
3	0	12/11/2025 15:21:18.9190	1.43108
3	0	12/11/2025 15:21:20.9190	1.43108
3	0	12/11/2025 15:21:22.9190	1.43108
3	0	12/11/2025 15:21:24.9190	1.43108
3	0	12/11/2025 15:21:26.9190	1.43108
3	0	12/11/2025 15:21:28.9190	1.43108
3	0	12/11/2025 15:21:30.9190	1.43108
3	0	12/11/2025 15:21:32.9190	1.43108
3	0	12/11/2025 15:21:34.9190	1.43108
3	0	12/11/2025 15:21:36.9190	1.43108
3	0	12/11/2025 15:21:38.9190	1.43108
3	0	12/11/2025 15:21:40.9190	1.43108
3	0	12/11/2025 15:21:42.9190	1.43108
3	0	12/11/2025 15:21:44.9190	1.43107
3	0	12/11/2025 15:21:46.9190	1.43108
3	0	12/11/2025 15:21:48.9190	1.43108
3	0	12/11/2025 15:21:50.9190	1.43108
3	0	12/11/2025 15:21:52.9190	1.43108
3	0	12/11/2025 15:21:54.9190	1.43107
3	0	12/11/2025 15:21:56.9190	1.43108
3	0	12/11/2025 15:21:58.9190	1.43107
3	0	12/11/2025 15:22:00.9190	1.43107
3	0	12/11/2025 15:22:02.9190	1.43107
3	0	12/11/2025 15:22:04.9190	1.43107
3	0	12/11/2025 15:22:06.9190	1.43107
3	0	12/11/2025 15:22:08.9190	1.43107
3	0	12/11/2025 15:22:10.9190	1.43105
3	0	12/11/2025 15:22:12.9190	1.43105
3	0	12/11/2025 15:22:14.9190	1.43105
3	0	12/11/2025 15:22:16.9190	1.43105
3	0	12/11/2025 15:22:18.9190	1.43104
3	0	12/11/2025 15:22:20.9190	1.43104
3	0	12/11/2025 15:22:22.9190	1.43105
3	0	12/11/2025 15:22:24.9190	1.43105
3	0	12/11/2025 15:22:26.9190	1.43105
3	0	12/11/2025 15:22:28.9190	1.43104
3	0	12/11/2025 15:22:30.9190	1.43104
3	0	12/11/2025 15:22:32.9190	1.43104
3	0	12/11/2025 15:22:34.9190	1.43105
3	0	12/11/2025 15:22:36.9190	1.43105
3	0	12/11/2025 15:22:38.9190	1.43104
3	0	12/11/2025 15:22:40.9190	1.43104
3	0	12/11/2025 15:22:42.9190	1.43105
3	0	12/11/2025 15:22:44.9190	1.43104
3	0	12/11/2025 15:22:46.9190	1.43104
3	0	12/11/2025 15:22:48.9190	1.43105
3	0	12/11/2025 15:22:50.9190	1.43104
3	0	12/11/2025 15:22:52.9190	1.43104
3	0	12/11/2025 15:22:54.9190	1.43104
3	0	12/11/2025 15:22:56.9190	1.43104
3	0	12/11/2025 15:22:58.9190	1.43104
3	0	12/11/2025 15:23:00.9190	1.43103
3	0	12/11/2025 15:23:02.9190	1.43103
3	0	12/11/2025 15:23:04.9190	1.43103
3	0	12/11/2025 15:23:06.9190	1.43103
3	0	12/11/2025 15:23:08.9190	1.43103
3	0	12/11/2025 15:23:10.9190	1.43103
3	0	12/11/2025 15:23:12.9190	1.43103
3	0	12/11/2025 15:23:14.9190	1.43103
3	0	12/11/2025 15:23:16.9190	1.43103
3	0	12/11/2025 15:23:18.9190	1.43103
3	0	12/11/2025 15:23:20.9190	1.43103
3	0	12/11/2025 15:23:22.9190	1.43104
3	0	12/11/2025 15:23:24.9190	1.43103
3	0	12/11/2025 15:23:26.9190	1.43103
3	0	12/11/2025 15:23:28.9190	1.43103
3	0	12/11/2025 15:23:30.9190	1.43103
3	0	12/11/2025 15:23:32.9190	1.43102
3	0	12/11/2025 15:23:34.9190	1.43103
3	0	12/11/2025 15:23:36.9190	1.43103
3	0	12/11/2025 15:23:38.9190	1.43103
3	0	12/11/2025 15:23:40.9190	1.43103
3	0	12/11/2025 15:23:42.9190	1.43102
3	0	12/11/2025 15:23:44.9190	1.43103
3	0	12/11/2025 15:23:46.9190	1.43103
3	0	12/11/2025 15:23:48.9190	1.43102
3	0	12/11/2025 15:23:50.9190	1.43102
3	0	12/11/2025 15:23:52.9190	1.43102
3	0	12/11/2025 15:23:54.9190	1.43102
3	0	12/11/2025 15:23:56.9190	1.43102
3	0	12/11/2025 15:23:58.9190	1.43102
3	0	12/11/2025 15:24:00.9190	1.43102
3	0	12/11/2025 15:24:02.9190	1.43102
3	0	12/11/2025 15:24:04.9190	1.43101
3	0	12/11/2025 15:24:06.9190	1.43101
3	0	12/11/2025 15:24:08.9190	1.43101
3	0	12/11/2025 15:24:10.9190	1.43101
3	0	12/11/2025 15:24:12.9190	1.43101
3	0	12/11/2025 15:24:14.9190	1.43101
3	0	12/11/2025 15:24:16.9190	1.43101
3	0	12/11/2025 15:24:18.9190	1.43101
3	0	12/11/2025 15:24:20.9190	1.43101
3	0	12/11/2025 15:24:22.9190	1.43102
3	0	12/11/2025 15:24:24.9190	1.43101
3	0	12/11/2025 15:24:26.9190	1.43101
3	0	12/11/2025 15:24:28.9190	1.43101
3	0	12/11/2025 15:24:30.9190	1.43101
3	0	12/11/2025 15:24:32.9190	1.43101
3	0	12/11/2025 15:24:34.9190	1.431
3	0	12/11/2025 15:24:36.9190	1.431
3	0	12/11/2025 15:24:38.9190	1.431
3	0	12/11/2025 15:24:40.9190	1.431
3	0	12/11/2025 15:24:42.9190	1.431
3	0	12/11/2025 15:24:44.9190	1.43099
3	0	12/11/2025 15:24:46.9190	1.43099
3	0	12/11/2025 15:24:48.9190	1.43099
3	0	12/11/2025 15:24:50.9190	1.43099
3	0	12/11/2025 15:24:52.9190	1.43099
3	0	12/11/2025 15:24:54.9190	1.43099
3	0	12/11/2025 15:24:56.9190	1.43099
3	0	12/11/2025 15:24:58.9190	1.43098
3	0	12/11/2025 15:25:00.9190	1.43098
3	0	12/11/2025 15:25:02.9190	1.43098
3	0	12/11/2025 15:25:04.9190	1.43099
3	0	12/11/2025 15:25:06.9190	1.43098
3	0	12/11/2025 15:25:08.9190	1.43098
3	0	12/11/2025 15:25:10.9190	1.43098
3	0	12/11/2025 15:25:12.9190	1.43099
3	0	12/11/2025 15:25:14.9190	1.43099
3	0	12/11/2025 15:25:16.9190	1.43099
3	0	12/11/2025 15:25:18.9190	1.43099
3	0	12/11/2025 15:25:20.9190	1.43098
3	0	12/11/2025 15:25:22.9190	1.43098
3	0	12/11/2025 15:25:24.9190	1.43098
3	0	12/11/2025 15:25:26.9190	1.43098
3	0	12/11/2025 15:25:28.9190	1.43098
3	0	12/11/2025 15:25:30.9190	1.43098
3	0	12/11/2025 15:25:32.9190	1.43098
3	0	12/11/2025 15:25:34.9190	1.43098
3	0	12/11/2025 15:25:36.9190	1.43098
3	0	12/11/2025 15:25:38.9190	1.43097
3	0	12/11/2025 15:25:40.9190	1.43097
3	0	12/11/2025 15:25:42.9190	1.43097
3	0	12/11/2025 15:25:44.9190	1.43097
3	0	12/11/2025 15:25:46.9190	1.43098
3	0	12/11/2025 15:25:48.9190	1.43097
3	0	12/11/2025 15:25:50.9190	1.43098
3	0	12/11/2025 15:25:52.9190	1.43097
3	0	12/11/2025 15:25:54.9190	1.43097
3	0	12/11/2025 15:25:56.9190	1.43097
3	0	12/11/2025 15:25:58.9190	1.43097
3	0	12/11/2025 15:26:00.9190	1.43097
3	0	12/11/2025 15:26:02.9190	1.43097
3	0	12/11/2025 15:26:04.9190	1.43097
3	0	12/11/2025 15:26:06.9190	1.43096
3	0	12/11/2025 15:26:08.9190	1.43097
3	0	12/11/2025 15:26:10.9190	1.43096
3	0	12/11/2025 15:26:12.9190	1.43096
3	0	12/11/2025 15:26:14.9190	1.43096
3	0	12/11/2025 15:26:16.9190	1.43096
3	0	12/11/2025 15:26:18.9190	1.43096
3	0	12/11/2025 15:26:20.9190	1.43096
3	0	12/11/2025 15:26:22.9190	1.43096
3	0	12/11/2025 15:26:24.9190	1.43096
3	0	12/11/2025 15:26:26.9190	1.43096
3	0	12/11/2025 15:26:28.9190	1.43095
3	0	12/11/2025 15:26:30.9190	1.43094
3	0	12/11/2025 15:26:32.9190	1.43094
3	0	12/11/2025 15:26:34.9190	1.43094
3	0	12/11/2025 15:26:36.9190	1.43095
3	0	12/11/2025 15:26:38.9190	1.43094
3	0	12/11/2025 15:26:40.9190	1.43094
3	0	12/11/2025 15:26:42.9190	1.43094
3	0	12/11/2025 15:26:44.9190	1.43094
3	0	12/11/2025 15:26:46.9190	1.43094
3	0	12/11/2025 15:26:48.9190	1.43094
3	0	12/11/2025 15:26:50.9190	1.43094
3	0	12/11/2025 15:26:52.9190	1.43094
3	0	12/11/2025 15:26:54.9190	1.43093
3	0	12/11/2025 15:26:56.9190	1.43091
3	0	12/11/2025 15:26:58.9190	1.4309
3	0	12/11/2025 15:27:00.9190	1.4309
3	0	12/11/2025 15:27:02.9190	1.4309
3	0	12/11/2025 15:27:04.9190	1.4309
3	0	12/11/2025 15:27:06.9190	1.4309
3	0	12/11/2025 15:27:08.9190	1.4309
3	0	12/11/2025 15:27:10.9190	1.4309
3	0	12/11/2025 15:27:12.9190	1.4309
3	0	12/11/2025 15:27:14.9190	1.4309
3	0	12/11/2025 15:27:16.9190	1.4309
3	0	12/11/2025 15:27:18.9190	1.4309
3	0	12/11/2025 15:27:20.9190	1.4309
3	0	12/11/2025 15:27:22.9190	1.4309
3	0	12/11/2025 15:27:24.9190	1.4309
3	0	12/11/2025 15:27:26.9190	1.4309
3	0	12/11/2025 15:27:28.9190	1.4309
3	0	12/11/2025 15:27:30.9190	1.43089
3	0	12/11/2025 15:27:32.9190	1.43089
3	0	12/11/2025 15:27:34.9190	1.4309
3	0	12/11/2025 15:27:36.9190	1.43089
3	0	12/11/2025 15:27:38.9190	1.43089
3	0	12/11/2025 15:27:40.9190	1.43089
3	0	12/11/2025 15:27:42.9190	1.43089
3	0	12/11/2025 15:27:44.9190	1.43089
3	0	12/11/2025 15:27:46.9190	1.43089
3	0	12/11/2025 15:27:48.9190	1.43088
3	0	12/11/2025 15:27:50.9190	1.43087
3	0	12/11/2025 15:27:52.9190	1.43088
3	0	12/11/2025 15:27:54.9190	1.43087
3	0	12/11/2025 15:27:56.9190	1.43087
3	0	12/11/2025 15:27:58.9190	1.43087
3	0	12/11/2025 15:28:00.9190	1.43087
3	0	12/11/2025 15:28:02.9190	1.43087
3	0	12/11/2025 15:28:04.9190	1.43087
3	0	12/11/2025 15:28:06.9190	1.43086
3	0	12/11/2025 15:28:08.9190	1.43086
3	0	12/11/2025 15:28:10.9190	1.43086
3	0	12/11/2025 15:28:12.9190	1.43086
3	0	12/11/2025 15:28:14.9190	1.43086
3	0	12/11/2025 15:28:16.9190	1.43086
3	0	12/11/2025 15:28:18.9190	1.43086
3	0	12/11/2025 15:28:20.9190	1.43086
3	0	12/11/2025 15:28:22.9190	1.43086
3	0	12/11/2025 15:28:24.9190	1.43085
3	0	12/11/2025 15:28:26.9190	1.43085
3	0	12/11/2025 15:28:28.9190	1.43085
3	0	12/11/2025 15:28:30.9190	1.43086
3	0	12/11/2025 15:28:32.9190	1.43085
3	0	12/11/2025 15:28:34.9190	1.43085
3	0	12/11/2025 15:28:36.9190	1.43085
3	0	12/11/2025 15:28:38.9190	1.43085
3	0	12/11/2025 15:28:40.9190	1.43085
3	0	12/11/2025 15:28:42.9190	1.43085
3	0	12/11/2025 15:28:44.9190	1.43085
3	0	12/11/2025 15:28:46.9190	1.43084
3	0	12/11/2025 15:28:48.9190	1.43084
3	0	12/11/2025 15:28:50.9190	1.43084
3	0	12/11/2025 15:28:52.9190	1.43084
3	0	12/11/2025 15:28:54.9190	1.43085
3	0	12/11/2025 15:28:56.9190	1.43084
3	0	12/11/2025 15:28:58.9190	1.43084
3	0	12/11/2025 15:29:00.9190	1.43085
3	0	12/11/2025 15:29:02.9190	1.43085
3	0	12/11/2025 15:29:04.9190	1.43084
3	0	12/11/2025 15:29:06.9190	1.43084
3	0	12/11/2025 15:29:08.9190	1.43084
3	0	12/11/2025 15:29:10.9190	1.43084
3	0	12/11/2025 15:29:12.9190	1.43084
3	0	12/11/2025 15:29:14.9190	1.43084
3	0	12/11/2025 15:29:16.9190	1.43084
3	0	12/11/2025 15:29:18.9190	1.43084
3	0	12/11/2025 15:29:20.9190	1.43083
3	0	12/11/2025 15:29:22.9190	1.43083
3	0	12/11/2025 15:29:24.9190	1.43084
3	0	12/11/2025 15:29:26.9190	1.43084
3	0	12/11/2025 15:29:28.9190	1.43084
3	0	12/11/2025 15:29:30.9190	1.43083
3	0	12/11/2025 15:29:32.9190	1.43084
3	0	12/11/2025 15:29:34.9190	1.43083
3	0	12/11/2025 15:29:36.9190	1.43084
3	0	12/11/2025 15:29:38.9190	1.43083
3	0	12/11/2025 15:29:40.9190	1.43083
3	0	12/11/2025 15:29:42.9190	1.43083
3	0	12/11/2025 15:29:44.9190	1.43083
3	0	12/11/2025 15:29:46.9190	1.43082
3	0	12/11/2025 15:29:48.9190	1.43083
3	0	12/11/2025 15:29:50.9190	1.43083
3	0	12/11/2025 15:29:52.9190	1.43082
3	0	12/11/2025 15:29:54.9190	1.43082
3	0	12/11/2025 15:29:56.9190	1.43082
3	0	12/11/2025 15:29:58.9190	1.43082
3	0	12/11/2025 15:30:00.9190	1.43082
3	0	12/11/2025 15:30:02.9190	1.43081
3	0	12/11/2025 15:30:04.9190	1.43081
3	0	12/11/2025 15:30:06.9190	1.43081
3	0	12/11/2025 15:30:08.9190	1.43081
3	0	12/11/2025 15:30:10.9190	1.43081
3	0	12/11/2025 15:30:12.9190	1.43081
3	0	12/11/2025 15:30:14.9190	1.43081
3	0	12/11/2025 15:30:16.9190	1.4308
3	0	12/11/2025 15:30:18.9190	1.4308
3	0	12/11/2025 15:30:20.9190	1.4308
3	0	12/11/2025 15:30:22.9190	1.4308
3	0	12/11/2025 15:30:24.9190	1.4308
3	0	12/11/2025 15:30:26.9190	1.4308
3	0	12/11/2025 15:30:28.9190	1.4308
3	0	12/11/2025 15:30:30.9190	1.43079
3	0	12/11/2025 15:30:32.9190	1.43079
3	0	12/11/2025 15:30:34.9190	1.4308
3	0	12/11/2025 15:30:36.9190	1.4308
3	0	12/11/2025 15:30:38.9190	1.4308
3	0	12/11/2025 15:30:40.9190	1.4308
3	0	12/11/2025 15:30:42.9190	1.43079
3	0	12/11/2025 15:30:44.9190	1.43079
3	0	12/11/2025 15:30:46.9190	1.43079
3	0	12/11/2025 15:30:48.9190	1.43079
3	0	12/11/2025 15:30:50.9190	1.43079
3	0	12/11/2025 15:30:52.9190	1.43079
3	0	12/11/2025 15:30:54.9190	1.43079
3	0	12/11/2025 15:30:56.9190	1.43079
3	0	12/11/2025 15:30:58.9190	1.43078
3	0	12/11/2025 15:31:00.9190	1.43078
3	0	12/11/2025 15:31:02.9190	1.43078
3	0	12/11/2025 15:31:04.9190	1.43079
3	0	12/11/2025 15:31:06.9190	1.43078
3	0	12/11/2025 15:31:08.9190	1.43077
3	0	12/11/2025 15:31:10.9190	1.43077
3	0	12/11/2025 15:31:12.9190	1.43077
3	0	12/11/2025 15:31:14.9190	1.43077
3	0	12/11/2025 15:31:16.9190	1.43076
3	0	12/11/2025 15:31:18.9190	1.43076
3	0	12/11/2025 15:31:20.9190	1.43076
3	0	12/11/2025 15:31:22.9190	1.43076
3	0	12/11/2025 15:31:24.9190	1.43076
3	0	12/11/2025 15:31:26.9190	1.43076
3	0	12/11/2025 15:31:28.9190	1.43076
3	0	12/11/2025 15:31:30.9190	1.43075
3	0	12/11/2025 15:31:32.9190	1.43075
3	0	12/11/2025 15:31:34.9190	1.43075
3	0	12/11/2025 15:31:36.9190	1.43075
3	0	12/11/2025 15:31:38.9190	1.43075
3	0	12/11/2025 15:31:40.9190	1.43059
3	0	12/11/2025 15:31:42.9190	1.43055
3	0	12/11/2025 15:31:44.9190	1.43055
3	0	12/11/2025 15:31:46.9190	1.43056
3	0	12/11/2025 15:31:48.9190	1.43055
3	0	12/11/2025 15:31:50.9190	1.43055
3	0	12/11/2025 15:31:52.9190	1.43055
3	0	12/11/2025 15:31:54.9190	1.43054
3	0	12/11/2025 15:31:56.9190	1.43055
3	0	12/11/2025 15:31:58.9190	1.43054
3	0	12/11/2025 15:32:00.9190	1.43054
3	0	12/11/2025 15:32:02.9190	1.43053
3	0	12/11/2025 15:32:04.9190	1.43054
3	0	12/11/2025 15:32:06.9190	1.43053
3	0	12/11/2025 15:32:08.9190	1.43053
3	0	12/11/2025 15:32:10.9190	1.43053
3	0	12/11/2025 15:32:12.9190	1.43052
3	0	12/11/2025 15:32:14.9190	1.43052
3	0	12/11/2025 15:32:16.9190	1.43052
3	0	12/11/2025 15:32:18.9190	1.43052
3	0	12/11/2025 15:32:20.9190	1.43052
3	0	12/11/2025 15:32:22.9190	1.43051
3	0	12/11/2025 15:32:24.9190	1.43051
3	0	12/11/2025 15:32:26.9190	1.43051
3	0	12/11/2025 15:32:28.9190	1.43051
3	0	12/11/2025 15:32:30.9190	1.43051
3	0	12/11/2025 15:32:32.9190	1.43051
3	0	12/11/2025 15:32:34.9190	1.4305
3	0	12/11/2025 15:32:36.9190	1.4305
3	0	12/11/2025 15:32:38.9190	1.4305
3	0	12/11/2025 15:32:40.9190	1.43049
3	0	12/11/2025 15:32:42.9190	1.43049
3	0	12/11/2025 15:32:44.9190	1.43049
3	0	12/11/2025 15:32:46.9190	1.43048
3	0	12/11/2025 15:32:48.9190	1.43048
3	0	12/11/2025 15:32:50.9190	1.43048
3	0	12/11/2025 15:32:52.9190	1.43047
3	0	12/11/2025 15:32:54.9190	1.43047
3	0	12/11/2025 15:32:56.9190	1.43047
3	0	12/11/2025 15:32:58.9190	1.43046
3	0	12/11/2025 15:33:00.9190	1.43046
3	0	12/11/2025 15:33:02.9190	1.43045
3	0	12/11/2025 15:33:04.9190	1.43046
3	0	12/11/2025 15:33:06.9190	1.43044
3	0	12/11/2025 15:33:08.9190	1.43044
3	0	12/11/2025 15:33:10.9190	1.43043
3	0	12/11/2025 15:33:12.9190	1.43043
3	0	12/11/2025 15:33:14.9190	1.43043
3	0	12/11/2025 15:33:16.9190	1.43041
3	0	12/11/2025 15:33:18.9190	1.43041
3	0	12/11/2025 15:33:20.9190	1.4304
3	0	12/11/2025 15:33:22.9190	1.4304
3	0	12/11/2025 15:33:24.9190	1.43039
3	0	12/11/2025 15:33:26.9190	1.43039
3	0	12/11/2025 15:33:28.9190	1.43038
3	0	12/11/2025 15:33:30.9190	1.43037
3	0	12/11/2025 15:33:32.9190	1.43037
3	0	12/11/2025 15:33:34.9190	1.43037
3	0	12/11/2025 15:33:36.9190	1.43035
3	0	12/11/2025 15:33:38.9190	1.43035
3	0	12/11/2025 15:33:40.9190	1.43035
3	0	12/11/2025 15:33:42.9190	1.43034
3	0	12/11/2025 15:33:44.9190	1.43033
3	0	12/11/2025 15:33:46.9190	1.43033
3	0	12/11/2025 15:33:48.9190	1.43033
3	0	12/11/2025 15:33:50.9190	1.43032
3	0	12/11/2025 15:33:52.9190	1.43031
3	0	12/11/2025 15:33:54.9190	1.43031
3	0	12/11/2025 15:33:56.9190	1.4303
3	0	12/11/2025 15:33:58.9190	1.4303
3	0	12/11/2025 15:34:00.9190	1.43029
3	0	12/11/2025 15:34:02.9190	1.43029
3	0	12/11/2025 15:34:04.9190	1.43028
3	0	12/11/2025 15:34:06.9190	1.43028
3	0	12/11/2025 15:34:08.9190	1.43027
3	0	12/11/2025 15:34:10.9190	1.43026
3	0	12/11/2025 15:34:12.9190	1.43026
3	0	12/11/2025 15:34:14.9190	1.43025
3	0	12/11/2025 15:34:16.9190	1.43024
3	0	12/11/2025 15:34:18.9190	1.43024
3	0	12/11/2025 15:34:20.9190	1.43024
3	0	12/11/2025 15:34:22.9190	1.43023
3	0	12/11/2025 15:34:24.9190	1.43022
3	0	12/11/2025 15:34:26.9190	1.43022
3	0	12/11/2025 15:34:28.9190	1.43021
3	0	12/11/2025 15:34:30.9190	1.43021
3	0	12/11/2025 15:34:32.9190	1.4302
3	0	12/11/2025 15:34:34.9190	1.43019
3	0	12/11/2025 15:34:36.9190	1.4302
3	0	12/11/2025 15:34:38.9190	1.4302
3	0	12/11/2025 15:34:40.9190	1.43021
3	0	12/11/2025 15:34:42.9190	1.43019
3	0	12/11/2025 15:34:44.9190	1.4302
3	0	12/11/2025 15:34:46.9190	1.43021
3	0	12/11/2025 15:34:48.9190	1.43021
3	0	12/11/2025 15:34:50.9190	1.43021
3	0	12/11/2025 15:34:52.9190	1.43021
3	0	12/11/2025 15:34:54.9190	1.43021
3	0	12/11/2025 15:34:56.9190	1.43021
3	0	12/11/2025 15:34:58.9190	1.43022
3	0	12/11/2025 15:35:00.9190	1.43023
3	0	12/11/2025 15:35:02.9190	1.43023
3	0	12/11/2025 15:35:04.9190	1.43023
3	0	12/11/2025 15:35:06.9190	1.43023
3	0	12/11/2025 15:35:08.9190	1.43024
3	0	12/11/2025 15:35:10.9190	1.43023
3	0	12/11/2025 15:35:12.9190	1.43024
3	0	12/11/2025 15:35:14.9190	1.43024
3	0	12/11/2025 15:35:16.9190	1.43024
3	0	12/11/2025 15:35:18.9190	1.43024
3	0	12/11/2025 15:35:20.9190	1.43024
3	0	12/11/2025 15:35:22.9190	1.43024
3	0	12/11/2025 15:35:24.9190	1.43024
3	0	12/11/2025 15:35:26.9190	1.43024
3	0	12/11/2025 15:35:28.9190	1.43024
3	0	12/11/2025 15:35:30.9190	1.43024
3	0	12/11/2025 15:35:32.9190	1.43023
3	0	12/11/2025 15:35:34.9190	1.43023
3	0	12/11/2025 15:35:36.9190	1.43023
3	0	12/11/2025 15:35:38.9190	1.43023
3	0	12/11/2025 15:35:40.9190	1.43022
3	0	12/11/2025 15:35:42.9190	1.43023
3	0	12/11/2025 15:35:44.9190	1.43023
3	0	12/11/2025 15:35:46.9190	1.43023
3	0	12/11/2025 15:35:48.9190	1.43023
3	0	12/11/2025 15:35:50.9190	1.43023
3	0	12/11/2025 15:35:52.9190	1.43023
3	0	12/11/2025 15:35:54.9190	1.43022
3	0	12/11/2025 15:35:56.9190	1.43022
3	0	12/11/2025 15:35:58.9190	1.43022
3	0	12/11/2025 15:36:00.9190	1.43022
3	0	12/11/2025 15:36:02.9190	1.43022
3	0	12/11/2025 15:36:04.9190	1.43022
3	0	12/11/2025 15:36:06.9190	1.43022
3	0	12/11/2025 15:36:08.9190	1.43022
3	0	12/11/2025 15:36:10.9190	1.43021
3	0	12/11/2025 15:36:12.9190	1.43021
3	0	12/11/2025 15:36:14.9190	1.43021
3	0	12/11/2025 15:36:16.9190	1.43021
3	0	12/11/2025 15:36:18.9190	1.43021
3	0	12/11/2025 15:36:20.9190	1.43021
3	0	12/11/2025 15:36:22.9190	1.43021
3	0	12/11/2025 15:36:24.9190	1.43021
3	0	12/11/2025 15:36:26.9190	1.43021
3	0	12/11/2025 15:36:28.9190	1.43021
3	0	12/11/2025 15:36:30.9190	1.43021
3	0	12/11/2025 15:36:32.9190	1.43021
3	0	12/11/2025 15:36:34.9190	1.43022
3	0	12/11/2025 15:36:36.9190	1.43021
3	0	12/11/2025 15:36:38.9190	1.43021
3	0	12/11/2025 15:36:40.9190	1.43021
3	0	12/11/2025 15:36:42.9190	1.43021
3	0	12/11/2025 15:36:44.9190	1.43021
3	0	12/11/2025 15:36:46.9190	1.43021
3	0	12/11/2025 15:36:48.9190	1.43021
3	0	12/11/2025 15:36:50.9190	1.43021
3	0	12/11/2025 15:36:52.9190	1.43021
3	0	12/11/2025 15:36:54.9190	1.43021
3	0	12/11/2025 15:36:56.9190	1.43021
3	0	12/11/2025 15:36:58.9190	1.43021
3	0	12/11/2025 15:37:00.9190	1.43021
3	0	12/11/2025 15:37:02.9190	1.43021
3	0	12/11/2025 15:37:04.9190	1.43021
3	0	12/11/2025 15:37:06.9190	1.43021
3	0	12/11/2025 15:37:08.9190	1.43021
3	0	12/11/2025 15:37:10.9190	1.43021
3	0	12/11/2025 15:37:12.9190	1.43021
3	0	12/11/2025 15:37:14.9190	1.43021
3	0	12/11/2025 15:37:16.9190	1.43021
3	0	12/11/2025 15:37:18.9190	1.43021
3	0	12/11/2025 15:37:20.9190	1.43022
3	0	12/11/2025 15:37:22.9190	1.43021
3	0	12/11/2025 15:37:24.9190	1.43021
3	0	12/11/2025 15:37:26.9190	1.43021
3	0	12/11/2025 15:37:28.9190	1.43021
3	0	12/11/2025 15:37:30.9190	1.43021
3	0	12/11/2025 15:37:32.9190	1.43021
3	0	12/11/2025 15:37:34.9190	1.43021
3	0	12/11/2025 15:37:36.9190	1.43021
3	0	12/11/2025 15:37:38.9190	1.4302
3	0	12/11/2025 15:37:40.9190	1.4302
3	0	12/11/2025 15:37:42.9190	1.4302
3	0	12/11/2025 15:37:44.9190	1.4302
3	0	12/11/2025 15:37:46.9190	1.4302
3	0	12/11/2025 15:37:48.9190	1.4302
3	0	12/11/2025 15:37:50.9190	1.4302
3	0	12/11/2025 15:37:52.9190	1.4302
3	0	12/11/2025 15:37:54.9190	1.4302
3	0	12/11/2025 15:37:56.9190	1.4302
3	0	12/11/2025 15:37:58.9190	1.4302
3	0	12/11/2025 15:38:00.9190	1.4302
3	0	12/11/2025 15:38:02.9190	1.4302
3	0	12/11/2025 15:38:04.9190	1.4302
3	0	12/11/2025 15:38:06.9190	1.4302
3	0	12/11/2025 15:38:08.9190	1.4302
3	0	12/11/2025 15:38:10.9190	1.43021
3	0	12/11/2025 15:38:12.9190	1.4302
3	0	12/11/2025 15:38:14.9190	1.4302
3	0	12/11/2025 15:38:16.9190	1.4302
3	0	12/11/2025 15:38:18.9190	1.4302
3	0	12/11/2025 15:38:20.9190	1.4302
3	0	12/11/2025 15:38:22.9190	1.43019
3	0	12/11/2025 15:38:24.9190	1.4302
3	0	12/11/2025 15:38:26.9190	1.4302
3	0	12/11/2025 15:38:28.9190	1.4302
3	0	12/11/2025 15:38:30.9190	1.43019
3	0	12/11/2025 15:38:32.9190	1.43019
3	0	12/11/2025 15:38:34.9190	1.43019
3	0	12/11/2025 15:38:36.9190	1.43019
3	0	12/11/2025 15:38:38.9190	1.4302
3	0	12/11/2025 15:38:40.9190	1.43019
3	0	12/11/2025 15:38:42.9190	1.43019
3	0	12/11/2025 15:38:44.9190	1.43019
3	0	12/11/2025 15:38:46.9190	1.43019
3	0	12/11/2025 15:38:48.9190	1.43019
3	0	12/11/2025 15:38:50.9190	1.43019
3	0	12/11/2025 15:38:52.9190	1.43019
3	0	12/11/2025 15:38:54.9190	1.43019
3	0	12/11/2025 15:38:56.9190	1.43019
3	0	12/11/2025 15:38:58.9190	1.43019
3	0	12/11/2025 15:39:00.9190	1.43018
3	0	12/11/2025 15:39:02.9190	1.43019
3	0	12/11/2025 15:39:04.9190	1.43019
3	0	12/11/2025 15:39:06.9190	1.43018
3	0	12/11/2025 15:39:08.9190	1.43019
3	0	12/11/2025 15:39:10.9190	1.43021
3	0	12/11/2025 15:39:12.9190	1.43019
3	0	12/11/2025 15:39:14.9190	1.43019
3	0	12/11/2025 15:39:16.9190	1.43019
3	0	12/11/2025 15:39:18.9190	1.43019
3	0	12/11/2025 15:39:20.9190	1.43019
3	0	12/11/2025 15:39:22.9190	1.43019
3	0	12/11/2025 15:39:24.9190	1.43019
3	0	12/11/2025 15:39:26.9190	1.43019
3	0	12/11/2025 15:39:28.9190	1.43019
3	0	12/11/2025 15:39:30.9190	1.43019
3	0	12/11/2025 15:39:32.9190	1.43019
3	0	12/11/2025 15:39:34.9190	1.43019
3	0	12/11/2025 15:39:36.9190	1.43019
3	0	12/11/2025 15:39:38.9190	1.43018
3	0	12/11/2025 15:39:40.9190	1.43019
3	0	12/11/2025 15:39:42.9190	1.43018
3	0	12/11/2025 15:39:44.9190	1.43018
3	0	12/11/2025 15:39:46.9190	1.43018
3	0	12/11/2025 15:39:48.9190	1.43018
3	0	12/11/2025 15:39:50.9190	1.43018
3	0	12/11/2025 15:39:52.9190	1.43018
3	0	12/11/2025 15:39:54.9190	1.43018
3	0	12/11/2025 15:39:56.9190	1.43018
3	0	12/11/2025 15:39:58.9190	1.43018
3	0	12/11/2025 15:40:00.9190	1.43018
3	0	12/11/2025 15:40:02.9190	1.43018
3	0	12/11/2025 15:40:04.9190	1.43017
3	0	12/11/2025 15:40:06.9190	1.43017
3	0	12/11/2025 15:40:08.9190	1.43017
3	0	12/11/2025 15:40:10.9190	1.43017
3	0	12/11/2025 15:40:12.9190	1.43017
3	0	12/11/2025 15:40:14.9190	1.43017
3	0	12/11/2025 15:40:16.9190	1.43017
3	0	12/11/2025 15:40:18.9190	1.43017
3	0	12/11/2025 15:40:20.9189	1.43017
3	0	12/11/2025 15:40:22.9189	1.43017
3	0	12/11/2025 15:40:24.9189	1.43017
3	0	12/11/2025 15:40:26.9189	1.43017
3	0	12/11/2025 15:40:28.9189	1.43017
3	0	12/11/2025 15:40:30.9189	1.43016
3	0	12/11/2025 15:40:32.9189	1.43016
3	0	12/11/2025 15:40:34.9189	1.43016
3	0	12/11/2025 15:40:36.9189	1.43016
3	0	12/11/2025 15:40:38.9189	1.43016
3	0	12/11/2025 15:40:40.9189	1.43016
3	0	12/11/2025 15:40:42.9189	1.43016
3	0	12/11/2025 15:40:44.9189	1.43014
3	0	12/11/2025 15:40:46.9189	1.43013
3	0	12/11/2025 15:40:48.9189	1.43013
3	0	12/11/2025 15:40:50.9189	1.43013
3	0	12/11/2025 15:40:52.9189	1.43013
3	0	12/11/2025 15:40:54.9189	1.43013
3	0	12/11/2025 15:40:56.9189	1.43013
3	0	12/11/2025 15:40:58.9189	1.43012
3	0	12/11/2025 15:41:00.9189	1.43012
3	0	12/11/2025 15:41:02.9189	1.43012
3	0	12/11/2025 15:41:04.9189	1.43012
3	0	12/11/2025 15:41:06.9189	1.43011
3	0	12/11/2025 15:41:08.9189	1.43011
3	0	12/11/2025 15:41:10.9189	1.43011
3	0	12/11/2025 15:41:12.9189	1.43011
3	0	12/11/2025 15:41:14.9189	1.43011
3	0	12/11/2025 15:41:16.9189	1.4301
3	0	12/11/2025 15:41:18.9189	1.4301
3	0	12/11/2025 15:41:20.9189	1.4301
3	0	12/11/2025 15:41:22.9189	1.4301
3	0	12/11/2025 15:41:24.9189	1.4301
3	0	12/11/2025 15:41:26.9189	1.4301
3	0	12/11/2025 15:41:28.9189	1.43009
3	0	12/11/2025 15:41:30.9189	1.43009
3	0	12/11/2025 15:41:32.9189	1.4301
3	0	12/11/2025 15:41:34.9189	1.43009
3	0	12/11/2025 15:41:36.9189	1.43009
3	0	12/11/2025 15:41:38.9189	1.43009
3	0	12/11/2025 15:41:40.9189	1.43009
3	0	12/11/2025 15:41:42.9189	1.43009
3	0	12/11/2025 15:41:44.9189	1.43008
3	0	12/11/2025 15:41:46.9189	1.43009
3	0	12/11/2025 15:41:48.9189	1.43008
3	0	12/11/2025 15:41:50.9189	1.43008
3	0	12/11/2025 15:41:52.9189	1.43007
3	0	12/11/2025 15:41:54.9189	1.43007
3	0	12/11/2025 15:41:56.9189	1.43006
3	0	12/11/2025 15:41:58.9189	1.43006
3	0	12/11/2025 15:42:00.9189	1.43006
3	0	12/11/2025 15:42:02.9189	1.43006
3	0	12/11/2025 15:42:04.9189	1.43005
3	0	12/11/2025 15:42:06.9189	1.43005
3	0	12/11/2025 15:42:08.9189	1.43005
3	0	12/11/2025 15:42:10.9189	1.43004
3	0	12/11/2025 15:42:12.9189	1.43004
3	0	12/11/2025 15:42:14.9189	1.43004
3	0	12/11/2025 15:42:16.9189	1.43003
3	0	12/11/2025 15:42:18.9189	1.43002
3	0	12/11/2025 15:42:20.9189	1.43002
3	0	12/11/2025 15:42:22.9189	1.43002
3	0	12/11/2025 15:42:24.9189	1.43002
3	0	12/11/2025 15:42:26.9189	1.43001
3	0	12/11/2025 15:42:28.9189	1.43001
3	0	12/11/2025 15:42:30.9189	1.43
3	0	12/11/2025 15:42:32.9189	1.42999
3	0	12/11/2025 15:42:34.9189	1.42999
3	0	12/11/2025 15:42:36.9189	1.42998
3	0	12/11/2025 15:42:38.9189	1.42998
3	0	12/11/2025 15:42:40.9189	1.42997
3	0	12/11/2025 15:42:42.9189	1.42997
3	0	12/11/2025 15:42:44.9189	1.42996
3	0	12/11/2025 15:42:46.9189	1.42995
3	0	12/11/2025 15:42:48.9189	1.42994
3	0	12/11/2025 15:42:50.9189	1.42993
3	0	12/11/2025 15:42:52.9189	1.42992
3	0	12/11/2025 15:42:54.9189	1.42992
3	0	12/11/2025 15:42:56.9189	1.42991
3	0	12/11/2025 15:42:58.9189	1.42991
3	0	12/11/2025 15:43:00.9189	1.4299
3	0	12/11/2025 15:43:02.9189	1.42989
3	0	12/11/2025 15:43:04.9189	1.42988
3	0	12/11/2025 15:43:06.9189	1.42987
3	0	12/11/2025 15:43:08.9189	1.42987
3	0	12/11/2025 15:43:10.9189	1.42985
3	0	12/11/2025 15:43:12.9189	1.42985
3	0	12/11/2025 15:43:14.9189	1.42984
3	0	12/11/2025 15:43:16.9189	1.42983
3	0	12/11/2025 15:43:18.9189	1.42983
3	0	12/11/2025 15:43:20.9189	1.42982
3	0	12/11/2025 15:43:22.9189	1.42981
3	0	12/11/2025 15:43:24.9189	1.42981
3	0	12/11/2025 15:43:26.9189	1.42979
3	0	12/11/2025 15:43:28.9189	1.42979
3	0	12/11/2025 15:43:30.9189	1.42978
3	0	12/11/2025 15:43:32.9189	1.42977
3	0	12/11/2025 15:43:34.9189	1.42976
3	0	12/11/2025 15:43:36.9189	1.42976
3	0	12/11/2025 15:43:38.9189	1.42975
3	0	12/11/2025 15:43:40.9189	1.42975
3	0	12/11/2025 15:43:42.9189	1.42974
3	0	12/11/2025 15:43:44.9189	1.42973
3	0	12/11/2025 15:43:46.9189	1.42973
3	0	12/11/2025 15:43:48.9189	1.42972
3	0	12/11/2025 15:43:50.9189	1.42971
3	0	12/11/2025 15:43:52.9189	1.4297
3	0	12/11/2025 15:43:54.9189	1.4297
3	0	12/11/2025 15:43:56.9189	1.42969
3	0	12/11/2025 15:43:58.9189	1.42968
3	0	12/11/2025 15:44:00.9189	1.42967
3	0	12/11/2025 15:44:02.9189	1.42967
3	0	12/11/2025 15:44:04.9189	1.42966
3	0	12/11/2025 15:44:06.9189	1.42966
3	0	12/11/2025 15:44:08.9189	1.42967
3	0	12/11/2025 15:44:10.9189	1.42968
3	0	12/11/2025 15:44:12.9189	1.42959
3	0	12/11/2025 15:44:14.9189	1.42951
3	0	12/11/2025 15:44:16.9189	1.4295
3	0	12/11/2025 15:44:18.9189	1.42951
3	0	12/11/2025 15:44:20.9189	1.42951
3	0	12/11/2025 15:44:22.9189	1.42952
3	0	12/11/2025 15:44:24.9189	1.42952
3	0	12/11/2025 15:44:26.9189	1.42952
3	0	12/11/2025 15:44:28.9189	1.42951
3	0	12/11/2025 15:44:30.9189	1.42951
3	0	12/11/2025 15:44:32.9189	1.42951
3	0	12/11/2025 15:44:34.9189	1.42952
3	0	12/11/2025 15:44:36.9189	1.42952
3	0	12/11/2025 15:44:38.9189	1.42952
3	0	12/11/2025 15:44:40.9189	1.42953
3	0	12/11/2025 15:44:42.9189	1.42953
3	0	12/11/2025 15:44:44.9189	1.42952
3	0	12/11/2025 15:44:46.9189	1.42952
3	0	12/11/2025 15:44:48.9189	1.42953
3	0	12/11/2025 15:44:50.9189	1.42953
3	0	12/11/2025 15:44:52.9189	1.42954
3	0	12/11/2025 15:44:54.9189	1.42954
3	0	12/11/2025 15:44:56.9189	1.42955
3	0	12/11/2025 15:44:58.9189	1.42954
3	0	12/11/2025 15:45:00.9189	1.42954
3	0	12/11/2025 15:45:02.9189	1.42955
3	0	12/11/2025 15:45:03.4989	1.42954