File: docs/examples/XAS/Echem/Operando3/Cell3_Buffers+Fe2+-2/HAC_NH3_02_01_OCV_C04.mpt
EC-Lab ASCII FILE
Nb header lines : 53

Open Circuit Voltage

Run on channel : 4 (SN 52456)
User :
CE vs. WE compliance from -10 V to 10 V
Electrode connection : standard
Potential control : Ewe
Ewe ctrl range : min = 0.00 V, max = 3.00 V
Safety Limits :
	Do not start on E overload
Acquisition started on : 12/12/2025 16:13:07.309
Technique started on : 12/12/2025 16:13:07.809
Loaded Setting File :  L:\projects\cycle2025-II\20250340369-skhabazian\EC_lab\20251211.EMD.mps
Saved on :
	File : HAC_NH3_02_01_OCV_C04.mpr
	Directory : L:\projects\cycle2025-II\20250340369-skhabazian\EC_lab\Cell3_Buffers-2\
	Host : 84.89.228.57
Device : VSP (SN 2155)
Address : 10.0.48.130
EC-LAB for windows v11.61 (software)
Internet server v11.61 (firmware)
Command interpretor v11.61 (firmware)
Electrode material :
Initial state :
Electrolyte :
Comments :
Mass of active material : 0.001 mg
 at x = 0.000
Molecular weight of active material (at x = 0) : 0.001 g/mol
Atomic weight of intercalated ion : 0.001 g/mol
Acquisition started at : xo = 0.000
Number of e- transfered per intercalated ion : 1
for DX = 1, DQ = 26.802 mA.h
Battery capacity : 0.000 A.h
Electrode surface area : 0.000 cm²
Characteristic mass : 0.001 g
Volume (V) : 0.001 cm³
Text export
   Mode : Standard
   Time format : Absolute MMDDYYYY
Cycle Definition : Charge/Discharge alternance
tR (h:m:s)          20:00:30.0000
dER/dt (mV/h)       0.0
record              <Ewe>
dER (mV)            0.00
dtR (s)             0.5000
E range min (V)     0.000
E range max (V)     3.000

mode	error	time/s	<Ewe/V>
3	0	12/12/2025 16:13:07.8090	1.1388
3	0	12/12/2025 16:13:11.3090	1.13884
3	0	12/12/2025 16:13:14.8090	1.13882
3	0	12/12/2025 16:13:18.3090	1.1388
3	0	12/12/2025 16:13:21.8090	1.13878
3	0	12/12/2025 16:13:25.3090	1.13879
3	0	12/12/2025 16:13:28.8090	1.1388
3	0	12/12/2025 16:13:32.3090	1.13879
3	0	12/12/2025 16:13:35.8090	1.13875
3	0	12/12/2025 16:13:39.3090	1.13876
3	0	12/12/2025 16:13:42.8090	1.13876
3	0	12/12/2025 16:13:46.3090	1.13869
3	0	12/12/2025 16:13:49.8090	1.13869
3	0	12/12/2025 16:13:53.3090	1.13867
3	0	12/12/2025 16:13:56.8090	1.13871
3	0	12/12/2025 16:14:00.3090	1.13866
3	0	12/12/2025 16:14:03.8090	1.13853
3	0	12/12/2025 16:14:07.3090	1.1385
3	0	12/12/2025 16:14:10.8090	1.13851
3	0	12/12/2025 16:14:14.3090	1.13848
3	0	12/12/2025 16:14:17.8090	1.13849
3	0	12/12/2025 16:14:21.3090	1.13843
3	0	12/12/2025 16:14:24.8090	1.13843
3	0	12/12/2025 16:14:28.3090	1.13845
3	0	12/12/2025 16:14:31.8090	1.13849
3	0	12/12/2025 16:14:35.3090	1.1385
3	0	12/12/2025 16:14:38.8090	1.13848
3	0	12/12/2025 16:14:42.3090	1.1385
3	0	12/12/2025 16:14:45.8090	1.13852
3	0	12/12/2025 16:14:49.3090	1.13841
3	0	12/12/2025 16:14:52.8090	1.1385
3	0	12/12/2025 16:14:56.3090	1.13844
3	0	12/12/2025 16:14:59.8090	1.13849
3	0	12/12/2025 16:15:03.3090	1.13815
3	0	12/12/2025 16:15:06.8090	1.13829
3	0	12/12/2025 16:15:10.3090	1.13808
3	0	12/12/2025 16:15:13.8090	1.13809
3	0	12/12/2025 16:15:17.3090	1.13814
3	0	12/12/2025 16:15:20.8090	1.13778
3	0	12/12/2025 16:15:24.3090	1.13784
3	0	12/12/2025 16:15:27.8090	1.13786
3	0	12/12/2025 16:15:31.3090	1.13784
3	0	12/12/2025 16:15:34.8090	1.13789
3	0	12/12/2025 16:15:38.3090	1.13786
3	0	12/12/2025 16:15:41.8090	1.13786
3	0	12/12/2025 16:15:45.3090	1.13785
3	0	12/12/2025 16:15:48.8090	1.13788
3	0	12/12/2025 16:15:52.3090	1.13786
3	0	12/12/2025 16:15:55.8090	1.13787
3	0	12/12/2025 16:15:59.3090	1.13792
3	0	12/12/2025 16:16:02.8090	1.13791
3	0	12/12/2025 16:16:06.3090	1.13786
3	0	12/12/2025 16:16:09.8090	1.13789
3	0	12/12/2025 16:16:13.3090	1.13791
3	0	12/12/2025 16:16:16.8090	1.13793
3	0	12/12/2025 16:16:20.3090	1.13793
3	0	12/12/2025 16:16:23.8090	1.13795
3	0	12/12/2025 16:16:27.3090	1.13795
3	0	12/12/2025 16:16:30.8090	1.13793
3	0	12/12/2025 16:16:34.3090	1.13794
3	0	12/12/2025 16:16:37.8090	1.13796
3	0	12/12/2025 16:16:41.3090	1.13795
3	0	12/12/2025 16:16:44.8090	1.13796
3	0	12/12/2025 16:16:48.3090	1.13795
3	0	12/12/2025 16:16:51.8090	1.13798
3	0	12/12/2025 16:16:55.3090	1.13799
3	0	12/12/2025 16:16:58.8090	1.13795
3	0	12/12/2025 16:17:02.3090	1.138
3	0	12/12/2025 16:17:05.8090	1.138
3	0	12/12/2025 16:17:09.3090	1.13799
3	0	12/12/2025 16:17:12.8090	1.13797
3	0	12/12/2025 16:17:16.3090	1.13799
3	0	12/12/2025 16:17:19.8090	1.13801
3	0	12/12/2025 16:17:23.3090	1.13799
3	0	12/12/2025 16:17:26.8090	1.13797
3	0	12/12/2025 16:17:30.3090	1.13799
3	0	12/12/2025 16:17:33.8090	1.13801
3	0	12/12/2025 16:17:37.3090	1.138
3	0	12/12/2025 16:17:40.8090	1.13803
3	0	12/12/2025 16:17:44.3090	1.13806
3	0	12/12/2025 16:17:47.8090	1.13802
3	0	12/12/2025 16:17:51.3090	1.138
3	0	12/12/2025 16:17:54.8090	1.138
3	0	12/12/2025 16:17:58.3090	1.13809
3	0	12/12/2025 16:18:01.8090	1.13817
3	0	12/12/2025 16:18:05.3090	1.13801
3	0	12/12/2025 16:18:08.8090	1.13796
3	0	12/12/2025 16:18:12.3090	1.13797
3	0	12/12/2025 16:18:15.8090	1.13804
3	0	12/12/2025 16:18:19.3090	1.13797
3	0	12/12/2025 16:18:22.8090	1.13801
3	0	12/12/2025 16:18:26.3090	1.13788
3	0	12/12/2025 16:18:29.8090	1.13784
3	0	12/12/2025 16:18:33.3090	1.13801
3	0	12/12/2025 16:18:36.8090	1.13797
3	0	12/12/2025 16:18:40.3090	1.13796
3	0	12/12/2025 16:18:43.8090	1.13787
3	0	12/12/2025 16:18:47.3090	1.13797
3	0	12/12/2025 16:18:50.8090	1.13803
3	0	12/12/2025 16:18:54.3090	1.13794
3	0	12/12/2025 16:18:57.8090	1.13795
3	0	12/12/2025 16:19:01.3090	1.13797
3	0	12/12/2025 16:19:04.8090	1.13798
3	0	12/12/2025 16:19:08.3090	1.13797
3	0	12/12/2025 16:19:11.8090	1.13789
3	0	12/12/2025 16:19:15.3090	1.13794
3	0	12/12/2025 16:19:18.8090	1.13798
3	0	12/12/2025 16:19:22.3090	1.13795
3	0	12/12/2025 16:19:25.8090	1.13789
3	0	12/12/2025 16:19:29.3090	1.13787
3	0	12/12/2025 16:19:32.8090	1.1379
3	0	12/12/2025 16:19:36.3090	1.13781
3	0	12/12/2025 16:19:39.8090	1.13781
3	0	12/12/2025 16:19:43.3090	1.13778
3	0	12/12/2025 16:19:46.8090	1.13743
3	0	12/12/2025 16:19:50.3090	1.13741
3	0	12/12/2025 16:19:53.8090	1.13725
3	0	12/12/2025 16:19:57.3090	1.13728
3	0	12/12/2025 16:20:00.8090	1.13737
3	0	12/12/2025 16:20:04.3090	1.13751
3	0	12/12/2025 16:20:07.8090	1.13746
3	0	12/12/2025 16:20:11.3090	1.13728
3	0	12/12/2025 16:20:14.8090	1.13726
3	0	12/12/2025 16:20:18.3090	1.13743
3	0	12/12/2025 16:20:21.8090	1.13734
3	0	12/12/2025 16:20:25.3090	1.13746
3	0	12/12/2025 16:20:28.8090	1.13756
3	0	12/12/2025 16:20:32.3090	1.13747
3	0	12/12/2025 16:20:35.8090	1.13755
3	0	12/12/2025 16:20:39.3090	1.13747
3	0	12/12/2025 16:20:42.8090	1.13772
3	0	12/12/2025 16:20:46.3090	1.13741
3	0	12/12/2025 16:20:49.8090	1.13745
3	0	12/12/2025 16:20:53.3090	1.13754
3	0	12/12/2025 16:20:56.8090	1.13743
3	0	12/12/2025 16:21:00.3090	1.13758
3	0	12/12/2025 16:21:03.8090	1.13748
3	0	12/12/2025 16:21:07.3090	1.13757
3	0	12/12/2025 16:21:10.8090	1.1376
3	0	12/12/2025 16:21:14.3090	1.13767
3	0	12/12/2025 16:21:17.8090	1.13761
3	0	12/12/2025 16:21:21.3090	1.13763
3	0	12/12/2025 16:21:24.8090	1.1376
3	0	12/12/2025 16:21:28.3090	1.13762
3	0	12/12/2025 16:21:31.8090	1.1376
3	0	12/12/2025 16:21:35.3090	1.1376
3	0	12/12/2025 16:21:38.8090	1.13774
3	0	12/12/2025 16:21:42.3090	1.1376
3	0	12/12/2025 16:21:45.8090	1.13755
3	0	12/12/2025 16:21:49.3090	1.13772
3	0	12/12/2025 16:21:52.8090	1.13776
3	0	12/12/2025 16:21:56.3090	1.13779
3	0	12/12/2025 16:21:59.8090	1.13777
3	0	12/12/2025 16:22:03.3090	1.13804
3	0	12/12/2025 16:22:06.8090	1.13796
3	0	12/12/2025 16:22:10.3090	1.13803
3	0	12/12/2025 16:22:13.8090	1.1379
3	0	12/12/2025 16:22:17.3090	1.138
3	0	12/12/2025 16:22:20.8090	1.13796
3	0	12/12/2025 16:22:24.3090	1.13796
3	0	12/12/2025 16:22:27.8090	1.13811
3	0	12/12/2025 16:22:31.3090	1.13823
3	0	12/12/2025 16:22:34.8090	1.13812
3	0	12/12/2025 16:22:38.3090	1.13823
3	0	12/12/2025 16:22:41.8090	1.13825
3	0	12/12/2025 16:22:45.3090	1.13829
3	0	12/12/2025 16:22:48.8090	1.13833
3	0	12/12/2025 16:22:52.3090	1.13837
3	0	12/12/2025 16:22:55.8090	1.1384
3	0	12/12/2025 16:22:59.3090	1.13827
3	0	12/12/2025 16:23:02.8090	1.13825
3	0	12/12/2025 16:23:06.3090	1.1383
3	0	12/12/2025 16:23:09.8090	1.13827
3	0	12/12/2025 16:23:13.3090	1.13828
3	0	12/12/2025 16:23:16.8090	1.13829
3	0	12/12/2025 16:23:20.3090	1.13833
3	0	12/12/2025 16:23:23.8090	1.13833
3	0	12/12/2025 16:23:27.3090	1.1383
3	0	12/12/2025 16:23:30.8090	1.13831
3	0	12/12/2025 16:23:34.3090	1.13836
3	0	12/12/2025 16:23:37.8090	1.13835
3	0	12/12/2025 16:23:41.3090	1.13834
3	0	12/12/2025 16:23:44.8090	1.13835
3	0	12/12/2025 16:23:48.3090	1.13835
3	0	12/12/2025 16:23:51.8090	1.13836
3	0	12/12/2025 16:23:55.3090	1.13836
3	0	12/12/2025 16:23:58.8090	1.13837
3	0	12/12/2025 16:24:02.3090	1.1384
3	0	12/12/2025 16:24:05.8090	1.1384
3	0	12/12/2025 16:24:09.3090	1.13839
3	0	12/12/2025 16:24:12.8090	1.1384
3	0	12/12/2025 16:24:16.3090	1.1384
3	0	12/12/2025 16:24:19.8090	1.13842
3	0	12/12/2025 16:24:23.3090	1.13841
3	0	12/12/2025 16:24:26.8090	1.13842
3	0	12/12/2025 16:24:30.3090	1.13842
3	0	12/12/2025 16:24:33.8090	1.13841
3	0	12/12/2025 16:24:37.3090	1.13843
3	0	12/12/2025 16:24:40.8090	1.13837
3	0	12/12/2025 16:24:44.3090	1.13838
3	0	12/12/2025 16:24:47.8090	1.1384
3	0	12/12/2025 16:24:51.3090	1.13841
3	0	12/12/2025 16:24:54.8090	1.13841
3	0	12/12/2025 16:24:58.3090	1.13841
3	0	12/12/2025 16:25:01.8090	1.13835
3	0	12/12/2025 16:25:05.3090	1.13836
3	0	12/12/2025 16:25:08.8090	1.13831
3	0	12/12/2025 16:25:12.3090	1.13821
3	0	12/12/2025 16:25:15.8090	1.13803
3	0	12/12/2025 16:25:19.3090	1.13682
3	0	12/12/2025 16:25:22.8090	1.13736
3	0	12/12/2025 16:25:26.3090	1.13814
3	0	12/12/2025 16:25:29.8090	1.13813
3	0	12/12/2025 16:25:33.3090	1.13813
3	0	12/12/2025 16:25:36.8090	1.13812
3	0	12/12/2025 16:25:40.3090	1.13808
3	0	12/12/2025 16:25:43.8090	1.13802
3	0	12/12/2025 16:25:47.3090	1.13806
3	0	12/12/2025 16:25:50.8090	1.13806
3	0	12/12/2025 16:25:54.3090	1.13805
3	0	12/12/2025 16:25:57.8090	1.13803
3	0	12/12/2025 16:26:01.3090	1.13802
3	0	12/12/2025 16:26:04.8090	1.13799
3	0	12/12/2025 16:26:08.3090	1.13799
3	0	12/12/2025 16:26:11.8090	1.13801
3	0	12/12/2025 16:26:15.3090	1.13803
3	0	12/12/2025 16:26:18.8090	1.13805
3	0	12/12/2025 16:26:22.3090	1.138
3	0	12/12/2025 16:26:25.8090	1.13805
3	0	12/12/2025 16:26:29.3090	1.1381
3	0	12/12/2025 16:26:32.8090	1.13796
3	0	12/12/2025 16:26:36.3090	1.13798
3	0	12/12/2025 16:26:39.8090	1.13801
3	0	12/12/2025 16:26:43.3090	1.1379
3	0	12/12/2025 16:26:46.8090	1.13782
3	0	12/12/2025 16:26:50.3090	1.1379
3	0	12/12/2025 16:26:53.8090	1.13788
3	0	12/12/2025 16:26:57.3090	1.13788
3	0	12/12/2025 16:27:00.8090	1.138
3	0	12/12/2025 16:27:04.3090	1.13795
3	0	12/12/2025 16:27:07.8090	1.13796
3	0	12/12/2025 16:27:11.3090	1.1379
3	0	12/12/2025 16:27:14.8090	1.13795
3	0	12/12/2025 16:27:18.3090	1.13793
3	0	12/12/2025 16:27:21.8090	1.13791
3	0	12/12/2025 16:27:25.3090	1.13786
3	0	12/12/2025 16:27:28.8090	1.13789
3	0	12/12/2025 16:27:32.3090	1.13784
3	0	12/12/2025 16:27:35.8090	1.13775
3	0	12/12/2025 16:27:39.3090	1.13778
3	0	12/12/2025 16:27:42.8090	1.13777
3	0	12/12/2025 16:27:46.3090	1.13775
3	0	12/12/2025 16:27:49.8090	1.13781
3	0	12/12/2025 16:27:53.3090	1.13779
3	0	12/12/2025 16:27:56.8090	1.13774
3	0	12/12/2025 16:28:00.3090	1.13765
3	0	12/12/2025 16:28:03.8090	1.13749
3	0	12/12/2025 16:28:07.3090	1.13764
3	0	12/12/2025 16:28:10.8090	1.13764
3	0	12/12/2025 16:28:14.3090	1.13767
3	0	12/12/2025 16:28:17.8090	1.13755
3	0	12/12/2025 16:28:21.3090	1.13772
3	0	12/12/2025 16:28:24.8090	1.1376
3	0	12/12/2025 16:28:28.3090	1.13678
3	0	12/12/2025 16:28:31.8090	1.13707
3	0	12/12/2025 16:28:35.3090	1.1373
3	0	12/12/2025 16:28:38.8090	1.13709
3	0	12/12/2025 16:28:42.3090	1.13703
3	0	12/12/2025 16:28:45.8090	1.13708
3	0	12/12/2025 16:28:49.3090	1.13709
3	0	12/12/2025 16:28:52.8090	1.13721
3	0	12/12/2025 16:28:56.3090	1.13711
3	0	12/12/2025 16:28:59.8090	1.13718
3	0	12/12/2025 16:29:03.3090	1.13718
3	0	12/12/2025 16:29:06.8090	1.13749
3	0	12/12/2025 16:29:10.3090	1.13737
3	0	12/12/2025 16:29:13.8090	1.13755
3	0	12/12/2025 16:29:17.3090	1.13775
3	0	12/12/2025 16:29:20.8090	1.1379
3	0	12/12/2025 16:29:24.3090	1.138
3	0	12/12/2025 16:29:27.8090	1.13813
3	0	12/12/2025 16:29:31.3090	1.13815
3	0	12/12/2025 16:29:34.8090	1.13811
3	0	12/12/2025 16:29:38.3090	1.13809
3	0	12/12/2025 16:29:41.8090	1.13818
3	0	12/12/2025 16:29:45.3090	1.13827
3	0	12/12/2025 16:29:48.8090	1.1382
3	0	12/12/2025 16:29:52.3090	1.13839
3	0	12/12/2025 16:29:55.8090	1.13843
3	0	12/12/2025 16:29:59.3090	1.13845
3	0	12/12/2025 16:30:02.8090	1.13845
3	0	12/12/2025 16:30:06.3090	1.13844
3	0	12/12/2025 16:30:09.8090	1.13844
3	0	12/12/2025 16:30:13.3090	1.13845
3	0	12/12/2025 16:30:16.8090	1.13845
3	0	12/12/2025 16:30:20.3090	1.13845
3	0	12/12/2025 16:30:23.8090	1.13846
3	0	12/12/2025 16:30:27.3090	1.13847
3	0	12/12/2025 16:30:30.8090	1.13846
3	0	12/12/2025 16:30:34.3090	1.13846
3	0	12/12/2025 16:30:37.8090	1.13847
3	0	12/12/2025 16:30:41.3090	1.13847
3	0	12/12/2025 16:30:44.8090	1.13846
3	0	12/12/2025 16:30:48.3090	1.13847
3	0	12/12/2025 16:30:51.8090	1.13847
3	0	12/12/2025 16:30:55.3090	1.13847
3	0	12/12/2025 16:30:58.8090	1.13847
3	0	12/12/2025 16:31:02.3090	1.13847
3	0	12/12/2025 16:31:05.8090	1.13847
3	0	12/12/2025 16:31:09.3090	1.13848
3	0	12/12/2025 16:31:12.8090	1.13848
3	0	12/12/2025 16:31:16.3090	1.13847
3	0	12/12/2025 16:31:19.8090	1.13846
3	0	12/12/2025 16:31:23.3090	1.13847
3	0	12/12/2025 16:31:26.8090	1.13848
3	0	12/12/2025 16:31:30.3090	1.13834
3	0	12/12/2025 16:31:33.8090	1.13829
3	0	12/12/2025 16:31:37.3090	1.1383
3	0	12/12/2025 16:31:40.8090	1.13832
3	0	12/12/2025 16:31:44.3090	1.13832
3	0	12/12/2025 16:31:47.8090	1.1383
3	0	12/12/2025 16:31:51.3090	1.13831
3	0	12/12/2025 16:31:54.8090	1.13832
3	0	12/12/2025 16:31:58.3090	1.13832
3	0	12/12/2025 16:32:01.8090	1.13831
3	0	12/12/2025 16:32:05.3090	1.13833
3	0	12/12/2025 16:32:08.8090	1.13833
3	0	12/12/2025 16:32:12.3090	1.13832
3	0	12/12/2025 16:32:15.8090	1.13832
3	0	12/12/2025 16:32:19.3090	1.13832
3	0	12/12/2025 16:32:22.8090	1.13833
3	0	12/12/2025 16:32:26.3090	1.13832
3	0	12/12/2025 16:32:29.8090	1.13832
3	0	12/12/2025 16:32:33.3090	1.13835
3	0	12/12/2025 16:32:36.8090	1.13834
3	0	12/12/2025 16:32:40.3090	1.13833
3	0	12/12/2025 16:32:43.8090	1.13832
3	0	12/12/2025 16:32:47.3090	1.13835
3	0	12/12/2025 16:32:50.8090	1.13833
3	0	12/12/2025 16:32:54.3090	1.13832
3	0	12/12/2025 16:32:57.8090	1.13832
3	0	12/12/2025 16:33:01.3090	1.13834
3	0	12/12/2025 16:33:04.8090	1.13834
3	0	12/12/2025 16:33:08.3090	1.13831
3	0	12/12/2025 16:33:11.8090	1.13832
3	0	12/12/2025 16:33:15.3090	1.13829
3	0	12/12/2025 16:33:18.8090	1.1383
3	0	12/12/2025 16:33:22.3090	1.13824
3	0	12/12/2025 16:33:25.8090	1.13823
3	0	12/12/2025 16:33:29.3090	1.13826
3	0	12/12/2025 16:33:32.8090	1.13827
3	0	12/12/2025 16:33:36.3090	1.13825
3	0	12/12/2025 16:33:39.8090	1.13825
3	0	12/12/2025 16:33:43.3090	1.13827
3	0	12/12/2025 16:33:46.8090	1.13828
3	0	12/12/2025 16:33:50.3090	1.13826
3	0	12/12/2025 16:33:53.8090	1.13826
3	0	12/12/2025 16:33:57.3090	1.13829
3	0	12/12/2025 16:34:00.8090	1.13827
3	0	12/12/2025 16:34:04.3090	1.13826
3	0	12/12/2025 16:34:07.8090	1.13828
3	0	12/12/2025 16:34:11.3090	1.13828
3	0	12/12/2025 16:34:14.8090	1.13826
3	0	12/12/2025 16:34:18.3090	1.13827
3	0	12/12/2025 16:34:21.8090	1.13828
3	0	12/12/2025 16:34:25.3090	1.13829
3	0	12/12/2025 16:34:28.8090	1.13829
3	0	12/12/2025 16:34:32.3090	1.13828
3	0	12/12/2025 16:34:35.8090	1.13829
3	0	12/12/2025 16:34:39.3090	1.13829
3	0	12/12/2025 16:34:42.8090	1.13829
3	0	12/12/2025 16:34:46.3090	1.13829
3	0	12/12/2025 16:34:49.8090	1.1383
3	0	12/12/2025 16:34:53.3090	1.13828
3	0	12/12/2025 16:34:56.8090	1.1383
3	0	12/12/2025 16:35:00.3090	1.13829
3	0	12/12/2025 16:35:03.8090	1.13831
3	0	12/12/2025 16:35:07.3090	1.1383
3	0	12/12/2025 16:35:10.8090	1.1383
3	0	12/12/2025 16:35:14.3090	1.13831
3	0	12/12/2025 16:35:17.8090	1.13832
3	0	12/12/2025 16:35:21.3090	1.1383
3	0	12/12/2025 16:35:24.8090	1.13823
3	0	12/12/2025 16:35:28.3090	1.13809
3	0	12/12/2025 16:35:31.8090	1.13812
3	0	12/12/2025 16:35:35.3090	1.13812
3	0	12/12/2025 16:35:38.8090	1.13813
3	0	12/12/2025 16:35:42.3090	1.13813
3	0	12/12/2025 16:35:45.8090	1.13813
3	0	12/12/2025 16:35:49.3090	1.13811
3	0	12/12/2025 16:35:52.8090	1.13808
3	0	12/12/2025 16:35:56.3090	1.1381
3	0	12/12/2025 16:35:59.8090	1.13808
3	0	12/12/2025 16:36:03.3090	1.13827
3	0	12/12/2025 16:36:06.8090	1.13834
3	0	12/12/2025 16:36:10.3090	1.13834
3	0	12/12/2025 16:36:13.8090	1.13832
3	0	12/12/2025 16:36:17.3090	1.13833
3	0	12/12/2025 16:36:20.8090	1.13835
3	0	12/12/2025 16:36:24.3090	1.13822
3	0	12/12/2025 16:36:27.8090	1.13813
3	0	12/12/2025 16:36:31.3090	1.13815
3	0	12/12/2025 16:36:34.8090	1.13817
3	0	12/12/2025 16:36:38.3090	1.13814
3	0	12/12/2025 16:36:41.8090	1.13815
3	0	12/12/2025 16:36:45.3090	1.13817
3	0	12/12/2025 16:36:48.8090	1.13817
3	0	12/12/2025 16:36:52.3090	1.13819
3	0	12/12/2025 16:36:55.8090	1.13818
3	0	12/12/2025 16:36:59.3090	1.1382
3	0	12/12/2025 16:37:02.8090	1.13821
3	0	12/12/2025 16:37:06.3090	1.1382
3	0	12/12/2025 16:37:09.8090	1.13824
3	0	12/12/2025 16:37:13.3090	1.13829
3	0	12/12/2025 16:37:16.8090	1.13829
3	0	12/12/2025 16:37:20.3090	1.13816
3	0	12/12/2025 16:37:23.8090	1.13812
3	0	12/12/2025 16:37:27.3090	1.13813
3	0	12/12/2025 16:37:30.8090	1.13814
3	0	12/12/2025 16:37:34.3090	1.13808
3	0	12/12/2025 16:37:37.8090	1.13818
3	0	12/12/2025 16:37:41.3090	1.1382
3	0	12/12/2025 16:37:44.8090	1.13819
3	0	12/12/2025 16:37:48.3090	1.13815
3	0	12/12/2025 16:37:51.8090	1.1382
3	0	12/12/2025 16:37:55.3090	1.13832
3	0	12/12/2025 16:37:58.8090	1.13833
3	0	12/12/2025 16:38:02.3090	1.13831
3	0	12/12/2025 16:38:05.8090	1.13828
3	0	12/12/2025 16:38:09.3090	1.1383
3	0	12/12/2025 16:38:12.8090	1.13822
3	0	12/12/2025 16:38:16.3090	1.13807
3	0	12/12/2025 16:38:19.8090	1.13784
3	0	12/12/2025 16:38:23.3090	1.13793
3	0	12/12/2025 16:38:26.8090	1.13796
3	0	12/12/2025 16:38:30.3090	1.13798
3	0	12/12/2025 16:38:33.8090	1.138
3	0	12/12/2025 16:38:37.3090	1.13803
3	0	12/12/2025 16:38:40.8090	1.13803
3	0	12/12/2025 16:38:44.3090	1.13806
3	0	12/12/2025 16:38:47.8090	1.13804
3	0	12/12/2025 16:38:51.3090	1.13805
3	0	12/12/2025 16:38:54.8090	1.13803
3	0	12/12/2025 16:38:58.3090	1.13807
3	0	12/12/2025 16:39:01.8090	1.13812
3	0	12/12/2025 16:39:05.3090	1.13811
3	0	12/12/2025 16:39:08.8090	1.138
3	0	12/12/2025 16:39:12.3090	1.13798
3	0	12/12/2025 16:39:15.8090	1.13797
3	0	12/12/2025 16:39:19.3090	1.13792
3	0	12/12/2025 16:39:22.8090	1.13788
3	0	12/12/2025 16:39:26.3090	1.13788
3	0	12/12/2025 16:39:29.8090	1.13788
3	0	12/12/2025 16:39:33.3090	1.13781
3	0	12/12/2025 16:39:36.8090	1.13773
3	0	12/12/2025 16:39:40.3090	1.13766
3	0	12/12/2025 16:39:43.8090	1.13767
3	0	12/12/2025 16:39:47.3090	1.13761
3	0	12/12/2025 16:39:50.8090	1.13754
3	0	12/12/2025 16:39:54.3090	1.13759
3	0	12/12/2025 16:39:57.8090	1.13753
3	0	12/12/2025 16:40:01.3090	1.13791
3	0	12/12/2025 16:40:04.8090	1.13782
3	0	12/12/2025 16:40:08.3090	1.13776
3	0	12/12/2025 16:40:11.8090	1.13765
3	0	12/12/2025 16:40:15.3090	1.13763
3	0	12/12/2025 16:40:18.8090	1.13767
3	0	12/12/2025 16:40:22.3090	1.13777
3	0	12/12/2025 16:40:25.8090	1.13778
3	0	12/12/2025 16:40:29.3090	1.13784
3	0	12/12/2025 16:40:32.8090	1.13784
3	0	12/12/2025 16:40:36.3090	1.13783
3	0	12/12/2025 16:40:39.8090	1.13781
3	0	12/12/2025 16:40:43.3090	1.13784
3	0	12/12/2025 16:40:46.8090	1.1378
3	0	12/12/2025 16:40:50.3090	1.13782
3	0	12/12/2025 16:40:53.8090	1.13777
3	0	12/12/2025 16:40:57.3090	1.13776
3	0	12/12/2025 16:41:00.8090	1.13772
3	0	12/12/2025 16:41:04.3090	1.13769
3	0	12/12/2025 16:41:07.8090	1.13754
3	0	12/12/2025 16:41:11.3090	1.13736
3	0	12/12/2025 16:41:14.8090	1.13765
3	0	12/12/2025 16:41:18.3090	1.13761
3	0	12/12/2025 16:41:21.8090	1.13749
3	0	12/12/2025 16:41:25.3090	1.13722
3	0	12/12/2025 16:41:28.8090	1.13736
3	0	12/12/2025 16:41:32.3090	1.13727
3	0	12/12/2025 16:41:35.8090	1.13725
3	0	12/12/2025 16:41:39.3090	1.13729
3	0	12/12/2025 16:41:42.8090	1.13728
3	0	12/12/2025 16:41:46.3090	1.1373
3	0	12/12/2025 16:41:49.8090	1.1373
3	0	12/12/2025 16:41:53.3090	1.13733
3	0	12/12/2025 16:41:56.8090	1.13746
3	0	12/12/2025 16:42:00.3090	1.13746
3	0	12/12/2025 16:42:03.8090	1.13757
3	0	12/12/2025 16:42:07.3090	1.13739
3	0	12/12/2025 16:42:10.8090	1.13752
3	0	12/12/2025 16:42:14.3090	1.13758
3	0	12/12/2025 16:42:17.8090	1.1375
3	0	12/12/2025 16:42:21.3090	1.13745
3	0	12/12/2025 16:42:24.8090	1.13754
3	0	12/12/2025 16:42:28.3090	1.13765
3	0	12/12/2025 16:42:31.8090	1.13763
3	0	12/12/2025 16:42:35.3090	1.13753
3	0	12/12/2025 16:42:38.8090	1.13758
3	0	12/12/2025 16:42:42.3090	1.13747
3	0	12/12/2025 16:42:45.8090	1.13764
3	0	12/12/2025 16:42:49.3090	1.13755
3	0	12/12/2025 16:42:52.8090	1.13754
3	0	12/12/2025 16:42:56.3090	1.13742
3	0	12/12/2025 16:42:59.8090	1.13739
3	0	12/12/2025 16:43:03.3090	1.13741
3	0	12/12/2025 16:43:06.8090	1.13733
3	0	12/12/2025 16:43:10.3090	1.13733
3	0	12/12/2025 16:43:13.8090	1.13744
3	0	12/12/2025 16:43:17.3090	1.13747
3	0	12/12/2025 16:43:20.8090	1.13747
3	0	12/12/2025 16:43:24.3090	1.13758
3	0	12/12/2025 16:43:27.8090	1.13754
3	0	12/12/2025 16:43:31.3090	1.13768
3	0	12/12/2025 16:43:34.8090	1.13772
3	0	12/12/2025 16:43:38.3090	1.13771
3	0	12/12/2025 16:43:41.8090	1.13772
3	0	12/12/2025 16:43:45.3090	1.13773
3	0	12/12/2025 16:43:48.8090	1.13776
3	0	12/12/2025 16:43:52.3090	1.13782
3	0	12/12/2025 16:43:55.8090	1.13759
3	0	12/12/2025 16:43:59.3090	1.13752
3	0	12/12/2025 16:44:02.8090	1.13744
3	0	12/12/2025 16:44:06.3090	1.13735
3	0	12/12/2025 16:44:09.8090	1.13732
3	0	12/12/2025 16:44:13.3090	1.13726
3	0	12/12/2025 16:44:16.8090	1.13762
3	0	12/12/2025 16:44:20.3090	1.13744
3	0	12/12/2025 16:44:23.8090	1.13745
3	0	12/12/2025 16:44:27.3090	1.1374
3	0	12/12/2025 16:44:30.8090	1.13738
3	0	12/12/2025 16:44:34.3090	1.13723
3	0	12/12/2025 16:44:37.8090	1.13725
3	0	12/12/2025 16:44:41.3090	1.13727
3	0	12/12/2025 16:44:44.8090	1.1373
3	0	12/12/2025 16:44:48.3090	1.13747
3	0	12/12/2025 16:44:51.8090	1.13764
3	0	12/12/2025 16:44:55.3090	1.13766
3	0	12/12/2025 16:44:58.8090	1.13763
3	0	12/12/2025 16:45:02.3090	1.13767
3	0	12/12/2025 16:45:05.8090	1.13769
3	0	12/12/2025 16:45:09.3090	1.13767
3	0	12/12/2025 16:45:12.8090	1.13776
3	0	12/12/2025 16:45:16.3090	1.13782
3	0	12/12/2025 16:45:19.8090	1.13783
3	0	12/12/2025 16:45:23.3090	1.13783
3	0	12/12/2025 16:45:26.8090	1.13786
3	0	12/12/2025 16:45:30.3090	1.13789
3	0	12/12/2025 16:45:33.8090	1.1379
3	0	12/12/2025 16:45:37.3090	1.13786
3	0	12/12/2025 16:45:40.8090	1.13789
3	0	12/12/2025 16:45:44.3090	1.13785
3	0	12/12/2025 16:45:47.8090	1.13782
3	0	12/12/2025 16:45:51.3090	1.13781
3	0	12/12/2025 16:45:54.8090	1.13779
3	0	12/12/2025 16:45:58.3090	1.1378
3	0	12/12/2025 16:46:01.8090	1.13778
3	0	12/12/2025 16:46:05.3089	1.13771
3	0	12/12/2025 16:46:08.8089	1.13771
3	0	12/12/2025 16:46:12.3089	1.1377
3	0	12/12/2025 16:46:15.8089	1.13769
3	0	12/12/2025 16:46:19.3089	1.13771
3	0	12/12/2025 16:46:22.8089	1.13769
3	0	12/12/2025 16:46:26.3089	1.1377
3	0	12/12/2025 16:46:29.8089	1.13771
3	0	12/12/2025 16:46:33.3089	1.13771
3	0	12/12/2025 16:46:36.8089	1.13768
3	0	12/12/2025 16:46:40.3089	1.13762
3	0	12/12/2025 16:46:43.8089	1.13764
3	0	12/12/2025 16:46:47.3089	1.13761
3	0	12/12/2025 16:46:50.8089	1.13765
3	0	12/12/2025 16:46:54.3089	1.13741
3	0	12/12/2025 16:46:57.8089	1.13739
3	0	12/12/2025 16:47:01.3089	1.1377
3	0	12/12/2025 16:47:04.8089	1.13742
3	0	12/12/2025 16:47:08.3089	1.13744
3	0	12/12/2025 16:47:11.8089	1.13736
3	0	12/12/2025 16:47:15.3089	1.13748
3	0	12/12/2025 16:47:18.8089	1.13749
3	0	12/12/2025 16:47:22.3089	1.13745
3	0	12/12/2025 16:47:25.8089	1.1372
3	0	12/12/2025 16:47:29.3089	1.13719
3	0	12/12/2025 16:47:32.8089	1.1372
3	0	12/12/2025 16:47:36.3089	1.13714
3	0	12/12/2025 16:47:39.8089	1.13728
3	0	12/12/2025 16:47:43.3089	1.13683
3	0	12/12/2025 16:47:46.8089	1.13672
3	0	12/12/2025 16:47:50.3089	1.13673
3	0	12/12/2025 16:47:53.8089	1.13686
3	0	12/12/2025 16:47:57.3089	1.13695
3	0	12/12/2025 16:48:00.8089	1.13692
3	0	12/12/2025 16:48:04.3089	1.13752
3	0	12/12/2025 16:48:07.8089	1.1373
3	0	12/12/2025 16:48:11.3089	1.13621
3	0	12/12/2025 16:48:14.8089	1.1366
3	0	12/12/2025 16:48:18.3089	1.13586
3	0	12/12/2025 16:48:21.8089	1.13642
3	0	12/12/2025 16:48:25.3089	1.13685
3	0	12/12/2025 16:48:28.8089	1.13719
3	0	12/12/2025 16:48:32.3089	1.13711
3	0	12/12/2025 16:48:35.8089	1.13667
3	0	12/12/2025 16:48:39.3089	1.13678
3	0	12/12/2025 16:48:42.8089	1.13709
3	0	12/12/2025 16:48:46.3089	1.13713
3	0	12/12/2025 16:48:49.8089	1.13728
3	0	12/12/2025 16:48:53.3089	1.13708
3	0	12/12/2025 16:48:56.8089	1.13712
3	0	12/12/2025 16:49:00.3089	1.13708
3	0	12/12/2025 16:49:03.8089	1.13701
3	0	12/12/2025 16:49:07.3089	1.13706
3	0	12/12/2025 16:49:10.8089	1.13675
3	0	12/12/2025 16:49:14.3089	1.13681
3	0	12/12/2025 16:49:17.8089	1.13689
3	0	12/12/2025 16:49:21.3089	1.13688
3	0	12/12/2025 16:49:24.8089	1.13692
3	0	12/12/2025 16:49:28.3089	1.13688
3	0	12/12/2025 16:49:31.8089	1.13693
3	0	12/12/2025 16:49:35.3089	1.13688
3	0	12/12/2025 16:49:38.8089	1.13691
3	0	12/12/2025 16:49:42.3089	1.13687
3	0	12/12/2025 16:49:45.8089	1.13696
3	0	12/12/2025 16:49:49.3089	1.1369
3	0	12/12/2025 16:49:52.8089	1.1371
3	0	12/12/2025 16:49:56.3089	1.13708
3	0	12/12/2025 16:49:59.8089	1.13695
3	0	12/12/2025 16:50:03.3089	1.13675
3	0	12/12/2025 16:50:06.8089	1.13684
3	0	12/12/2025 16:50:10.3089	1.13702
3	0	12/12/2025 16:50:13.8089	1.13697
3	0	12/12/2025 16:50:17.3089	1.13715
3	0	12/12/2025 16:50:20.8089	1.13718
3	0	12/12/2025 16:50:24.3089	1.13709
3	0	12/12/2025 16:50:27.8089	1.13705
3	0	12/12/2025 16:50:31.3089	1.13694
3	0	12/12/2025 16:50:34.8089	1.13672
3	0	12/12/2025 16:50:38.3089	1.13711
3	0	12/12/2025 16:50:41.8089	1.13655
3	0	12/12/2025 16:50:45.3089	1.13626
3	0	12/12/2025 16:50:48.8089	1.13565
3	0	12/12/2025 16:50:52.3089	1.13603
3	0	12/12/2025 16:50:55.8089	1.1363
3	0	12/12/2025 16:50:59.3089	1.13598
3	0	12/12/2025 16:51:02.8089	1.1358
3	0	12/12/2025 16:51:06.3089	1.13598
3	0	12/12/2025 16:51:09.8089	1.13617
3	0	12/12/2025 16:51:13.3089	1.13631
3	0	12/12/2025 16:51:16.8089	1.13662
3	0	12/12/2025 16:51:20.3089	1.13678
3	0	12/12/2025 16:51:23.8089	1.13703
3	0	12/12/2025 16:51:27.3089	1.1371
3	0	12/12/2025 16:51:30.8089	1.1372
3	0	12/12/2025 16:51:34.3089	1.13728
3	0	12/12/2025 16:51:37.8089	1.13726
3	0	12/12/2025 16:51:41.3089	1.13733
3	0	12/12/2025 16:51:44.8089	1.137
3	0	12/12/2025 16:51:48.3089	1.13731
3	0	12/12/2025 16:51:51.8089	1.13723
3	0	12/12/2025 16:51:55.3089	1.1372
3	0	12/12/2025 16:51:58.8089	1.13735
3	0	12/12/2025 16:52:02.3089	1.13737
3	0	12/12/2025 16:52:05.8089	1.13728
3	0	12/12/2025 16:52:09.3089	1.13725
3	0	12/12/2025 16:52:12.8089	1.13728
3	0	12/12/2025 16:52:16.3089	1.13724
3	0	12/12/2025 16:52:19.8089	1.13733
3	0	12/12/2025 16:52:23.3089	1.1371
3	0	12/12/2025 16:52:26.8089	1.13711
3	0	12/12/2025 16:52:30.3089	1.13715
3	0	12/12/2025 16:52:33.8089	1.13719
3	0	12/12/2025 16:52:37.3089	1.13699
3	0	12/12/2025 16:52:40.8089	1.13711
3	0	12/12/2025 16:52:44.3089	1.13699
3	0	12/12/2025 16:52:47.8089	1.13682
3	0	12/12/2025 16:52:51.3089	1.13695
3	0	12/12/2025 16:52:54.8089	1.13662
3	0	12/12/2025 16:52:58.3089	1.13665
3	0	12/12/2025 16:53:01.8089	1.13625
3	0	12/12/2025 16:53:05.3089	1.13604
3	0	12/12/2025 16:53:08.8089	1.13454
3	0	12/12/2025 16:53:12.3089	1.13513
3	0	12/12/2025 16:53:15.8089	1.13309
3	0	12/12/2025 16:53:19.3089	1.13327
3	0	12/12/2025 16:53:22.8089	1.13135
3	0	12/12/2025 16:53:26.3089	1.13351
3	0	12/12/2025 16:53:29.8089	1.13281
3	0	12/12/2025 16:53:33.3089	1.12831
3	0	12/12/2025 16:53:36.8089	1.13195
3	0	12/12/2025 16:53:40.3089	1.13083
3	0	12/12/2025 16:53:43.8089	1.13313
3	0	12/12/2025 16:53:47.3089	1.13188
3	0	12/12/2025 16:53:50.8089	1.13676
3	0	12/12/2025 16:53:54.3089	1.1369
3	0	12/12/2025 16:53:57.8089	1.13707
3	0	12/12/2025 16:54:01.3089	1.13626
3	0	12/12/2025 16:54:04.8089	1.13576
3	0	12/12/2025 16:54:08.3089	1.12821
3	0	12/12/2025 16:54:11.8089	1.12173
3	0	12/12/2025 16:54:15.3089	1.13496
3	0	12/12/2025 16:54:18.8089	1.13636
3	0	12/12/2025 16:54:22.3089	1.13694
3	0	12/12/2025 16:54:25.8089	1.13713
3	0	12/12/2025 16:54:29.3089	1.13723
3	0	12/12/2025 16:54:32.8089	1.13711
3	0	12/12/2025 16:54:36.3089	1.13692
3	0	12/12/2025 16:54:39.8089	1.12574
3	0	12/12/2025 16:54:43.3089	1.12771
3	0	12/12/2025 16:54:46.8089	1.12555
3	0	12/12/2025 16:54:50.3089	1.12788
3	0	12/12/2025 16:54:53.8089	1.12973
3	0	12/12/2025 16:54:57.3089	1.12922
3	0	12/12/2025 16:55:00.8089	1.12785
3	0	12/12/2025 16:55:04.3089	1.13169
3	0	12/12/2025 16:55:07.8089	1.13296
3	0	12/12/2025 16:55:11.3089	1.13343
3	0	12/12/2025 16:55:14.8089	1.13467
3	0	12/12/2025 16:55:18.3089	1.12968
3	0	12/12/2025 16:55:21.8089	1.13008
3	0	12/12/2025 16:55:25.3089	1.13116
3	0	12/12/2025 16:55:28.8089	1.13418
3	0	12/12/2025 16:55:32.3089	1.13291
3	0	12/12/2025 16:55:35.8089	1.1331
3	0	12/12/2025 16:55:39.3089	1.13315
3	0	12/12/2025 16:55:42.8089	1.13365
3	0	12/12/2025 16:55:46.3089	1.13323
3	0	12/12/2025 16:55:49.8089	1.13413
3	0	12/12/2025 16:55:53.3089	1.13422
3	0	12/12/2025 16:55:56.8089	1.13506
3	0	12/12/2025 16:56:00.3089	1.13567
3	0	12/12/2025 16:56:03.8089	1.13652
3	0	12/12/2025 16:56:07.3089	1.13662
3	0	12/12/2025 16:56:10.8089	1.13675
3	0	12/12/2025 16:56:14.3089	1.13691
3	0	12/12/2025 16:56:17.8089	1.13692
3	0	12/12/2025 16:56:21.3089	1.13681
3	0	12/12/2025 16:56:24.8089	1.13702
3	0	12/12/2025 16:56:28.3089	1.13705
3	0	12/12/2025 16:56:31.8089	1.13699
3	0	12/12/2025 16:56:35.3089	1.13712
3	0	12/12/2025 16:56:38.8089	1.13718
3	0	12/12/2025 16:56:42.3089	1.13719
3	0	12/12/2025 16:56:45.8089	1.13719
3	0	12/12/2025 16:56:49.3089	1.13723
3	0	12/12/2025 16:56:52.8089	1.13722
3	0	12/12/2025 16:56:56.3089	1.13722
3	0	12/12/2025 16:56:59.8089	1.13724
3	0	12/12/2025 16:57:03.3089	1.13725
3	0	12/12/2025 16:57:06.8089	1.13724
3	0	12/12/2025 16:57:10.3089	1.13725
3	0	12/12/2025 16:57:13.8089	1.13724
3	0	12/12/2025 16:57:17.3089	1.13727
3	0	12/12/2025 16:57:20.8089	1.13729
3	0	12/12/2025 16:57:24.3089	1.13726
3	0	12/12/2025 16:57:27.8089	1.13728
3	0	12/12/2025 16:57:31.3089	1.13729
3	0	12/12/2025 16:57:34.8089	1.13731
3	0	12/12/2025 16:57:38.3089	1.13728
3	0	12/12/2025 16:57:41.8089	1.13731
3	0	12/12/2025 16:57:45.3089	1.13734
3	0	12/12/2025 16:57:48.8089	1.13734
3	0	12/12/2025 16:57:52.3089	1.13732
3	0	12/12/2025 16:57:55.8089	1.13731
3	0	12/12/2025 16:57:59.3089	1.13717
3	0	12/12/2025 16:58:02.8089	1.13703
3	0	12/12/2025 16:58:06.3089	1.13702
3	0	12/12/2025 16:58:09.8089	1.13698
3	0	12/12/2025 16:58:13.3089	1.13696
3	0	12/12/2025 16:58:16.8089	1.13689
3	0	12/12/2025 16:58:20.3089	1.13673
3	0	12/12/2025 16:58:23.8089	1.13666
3	0	12/12/2025 16:58:27.3089	1.13667
3	0	12/12/2025 16:58:30.8089	1.13659
3	0	12/12/2025 16:58:34.3089	1.13658
3	0	12/12/2025 16:58:37.8089	1.13652
3	0	12/12/2025 16:58:41.3089	1.1364
3	0	12/12/2025 16:58:44.8089	1.13639
3	0	12/12/2025 16:58:48.3089	1.13639
3	0	12/12/2025 16:58:51.8089	1.13645
3	0	12/12/2025 16:58:55.3089	1.1365
3	0	12/12/2025 16:58:58.8089	1.13652
3	0	12/12/2025 16:59:02.3089	1.13652
3	0	12/12/2025 16:59:05.8089	1.13652
3	0	12/12/2025 16:59:09.3089	1.13656
3	0	12/12/2025 16:59:12.8089	1.13657
3	0	12/12/2025 16:59:16.3089	1.13655
3	0	12/12/2025 16:59:19.8089	1.13652
3	0	12/12/2025 16:59:23.3089	1.13654
3	0	12/12/2025 16:59:26.8089	1.13655
3	0	12/12/2025 16:59:30.3089	1.13651
3	0	12/12/2025 16:59:33.8089	1.13649
3	0	12/12/2025 16:59:37.3089	1.13657
3	0	12/12/2025 16:59:40.8089	1.13652
3	0	12/12/2025 16:59:44.3089	1.1364
3	0	12/12/2025 16:59:47.8089	1.13643
3	0	12/12/2025 16:59:51.3089	1.13548
3	0	12/12/2025 16:59:54.8089	1.13611
3	0	12/12/2025 16:59:58.3089	1.13586
3	0	12/12/2025 17:00:01.8089	1.13567
3	0	12/12/2025 17:00:05.3089	1.13185
3	0	12/12/2025 17:00:08.8089	1.1322
3	0	12/12/2025 17:00:12.3089	1.13508
3	0	12/12/2025 17:00:15.8089	1.13573
3	0	12/12/2025 17:00:19.3089	1.13594
3	0	12/12/2025 17:00:22.8089	1.13591
3	0	12/12/2025 17:00:26.3089	1.13573
3	0	12/12/2025 17:00:29.8089	1.13597
3	0	12/12/2025 17:00:33.3089	1.13617
3	0	12/12/2025 17:00:36.8089	1.13622
3	0	12/12/2025 17:00:40.3089	1.13616
3	0	12/12/2025 17:00:43.8089	1.1365
3	0	12/12/2025 17:00:47.3089	1.1366
3	0	12/12/2025 17:00:50.8089	1.1365
3	0	12/12/2025 17:00:54.3089	1.13658
3	0	12/12/2025 17:00:57.8089	1.13642
3	0	12/12/2025 17:01:01.3089	1.13632
3	0	12/12/2025 17:01:04.8089	1.13641
3	0	12/12/2025 17:01:08.3089	1.13626
3	0	12/12/2025 17:01:11.8089	1.13609
3	0	12/12/2025 17:01:15.3089	1.1362
3	0	12/12/2025 17:01:18.8089	1.13621
3	0	12/12/2025 17:01:22.3089	1.13617
3	0	12/12/2025 17:01:25.8089	1.13624
3	0	12/12/2025 17:01:29.3089	1.13611
3	0	12/12/2025 17:01:32.8089	1.13613
3	0	12/12/2025 17:01:36.3089	1.13637
3	0	12/12/2025 17:01:39.8089	1.13661
3	0	12/12/2025 17:01:43.3089	1.13638
3	0	12/12/2025 17:01:46.8089	1.1364
3	0	12/12/2025 17:01:50.3089	1.13661
3	0	12/12/2025 17:01:53.8089	1.13674
3	0	12/12/2025 17:01:57.3089	1.13681
3	0	12/12/2025 17:02:00.8089	1.13691
3	0	12/12/2025 17:02:04.3089	1.13699
3	0	12/12/2025 17:02:07.8089	1.13699
3	0	12/12/2025 17:02:11.3089	1.13705
3	0	12/12/2025 17:02:14.8089	1.13695
3	0	12/12/2025 17:02:18.3089	1.13696
3	0	12/12/2025 17:02:21.8089	1.13697
3	0	12/12/2025 17:02:25.3089	1.13699
3	0	12/12/2025 17:02:28.8089	1.13702
3	0	12/12/2025 17:02:32.3089	1.13703
3	0	12/12/2025 17:02:35.8089	1.13705
3	0	12/12/2025 17:02:39.3089	1.13703
3	0	12/12/2025 17:02:42.8089	1.13708
3	0	12/12/2025 17:02:46.3089	1.13707
3	0	12/12/2025 17:02:49.8089	1.13707
3	0	12/12/2025 17:02:53.3089	1.13709
3	0	12/12/2025 17:02:56.8089	1.1371
3	0	12/12/2025 17:03:00.3089	1.1371
3	0	12/12/2025 17:03:03.8089	1.1371
3	0	12/12/2025 17:03:07.3089	1.13714
3	0	12/12/2025 17:03:10.8089	1.13714
3	0	12/12/2025 17:03:14.3089	1.13714
3	0	12/12/2025 17:03:17.8089	1.13715
3	0	12/12/2025 17:03:21.3089	1.13714
3	0	12/12/2025 17:03:24.8089	1.13714
3	0	12/12/2025 17:03:28.3089	1.13711
3	0	12/12/2025 17:03:31.8089	1.13713
3	0	12/12/2025 17:03:35.3089	1.13714
3	0	12/12/2025 17:03:38.8089	1.13716
3	0	12/12/2025 17:03:42.3089	1.13714
3	0	12/12/2025 17:03:45.8089	1.13714
3	0	12/12/2025 17:03:49.3089	1.13716
3	0	12/12/2025 17:03:52.8089	1.13716
3	0	12/12/2025 17:03:56.3089	1.13713
3	0	12/12/2025 17:03:59.8089	1.13712
3	0	12/12/2025 17:04:03.3089	1.13713
3	0	12/12/2025 17:04:06.8089	1.13714
3	0	12/12/2025 17:04:10.3089	1.1371
3	0	12/12/2025 17:04:13.8089	1.13694
3	0	12/12/2025 17:04:17.3089	1.13707
3	0	12/12/2025 17:04:20.8089	1.13715
3	0	12/12/2025 17:04:24.3089	1.1371
3	0	12/12/2025 17:04:27.8089	1.13711
3	0	12/12/2025 17:04:31.3089	1.13714
3	0	12/12/2025 17:04:34.8089	1.13714
3	0	12/12/2025 17:04:38.3089	1.1371
3	0	12/12/2025 17:04:41.8089	1.13709
3	0	12/12/2025 17:04:45.3089	1.13713
3	0	12/12/2025 17:04:48.8089	1.13712
3	0	12/12/2025 17:04:52.3089	1.13709
3	0	12/12/2025 17:04:55.8089	1.13707
3	0	12/12/2025 17:04:59.3089	1.13706
3	0	12/12/2025 17:05:02.8089	1.13706
3	0	12/12/2025 17:05:06.3089	1.13702
3	0	12/12/2025 17:05:09.8089	1.13699
3	0	12/12/2025 17:05:13.3089	1.137
3	0	12/12/2025 17:05:16.8089	1.13688
3	0	12/12/2025 17:05:20.3089	1.13687
3	0	12/12/2025 17:05:23.8089	1.13675
3	0	12/12/2025 17:05:27.3089	1.13667
3	0	12/12/2025 17:05:30.8089	1.13666
3	0	12/12/2025 17:05:34.3089	1.13647
3	0	12/12/2025 17:05:37.8089	1.13664
3	0	12/12/2025 17:05:41.3089	1.13613
3	0	12/12/2025 17:05:44.8089	1.13519
3	0	12/12/2025 17:05:48.3089	1.13437
3	0	12/12/2025 17:05:51.8089	1.13378
3	0	12/12/2025 17:05:55.3089	1.13431
3	0	12/12/2025 17:05:58.8089	1.13343
3	0	12/12/2025 17:06:02.3089	1.13431
3	0	12/12/2025 17:06:05.8089	1.13465
3	0	12/12/2025 17:06:09.3089	1.13406
3	0	12/12/2025 17:06:12.8089	1.13423
3	0	12/12/2025 17:06:16.3089	1.13441
3	0	12/12/2025 17:06:19.8089	1.13523
3	0	12/12/2025 17:06:23.3089	1.13558
3	0	12/12/2025 17:06:26.8089	1.13422
3	0	12/12/2025 17:06:30.3089	1.13212
3	0	12/12/2025 17:06:33.8089	1.13298
3	0	12/12/2025 17:06:37.3089	1.1337
3	0	12/12/2025 17:06:40.8089	1.13409
3	0	12/12/2025 17:06:44.3089	1.13495
3	0	12/12/2025 17:06:47.8089	1.13455
3	0	12/12/2025 17:06:51.3089	1.13517
3	0	12/12/2025 17:06:54.8089	1.13506
3	0	12/12/2025 17:06:58.3089	1.13498
3	0	12/12/2025 17:07:01.8089	1.13489
3	0	12/12/2025 17:07:05.3089	1.13465
3	0	12/12/2025 17:07:08.8089	1.13298
3	0	12/12/2025 17:07:12.3089	1.13418
3	0	12/12/2025 17:07:15.8089	1.13224
3	0	12/12/2025 17:07:19.3089	1.13216
3	0	12/12/2025 17:07:22.8089	1.11343
3	0	12/12/2025 17:07:26.3089	1.12927
3	0	12/12/2025 17:07:29.8089	1.12726
3	0	12/12/2025 17:07:33.3089	1.12737
3	0	12/12/2025 17:07:36.8089	1.12708
3	0	12/12/2025 17:07:40.3089	1.12528
3	0	12/12/2025 17:07:43.8089	1.13188
3	0	12/12/2025 17:07:47.3089	1.1308
3	0	12/12/2025 17:07:50.8089	1.13049
3	0	12/12/2025 17:07:54.3089	1.13296
3	0	12/12/2025 17:07:57.8089	1.13122
3	0	12/12/2025 17:08:01.3089	1.12896
3	0	12/12/2025 17:08:04.8089	1.13198
3	0	12/12/2025 17:08:08.3089	1.12916
3	0	12/12/2025 17:08:11.8089	1.131
3	0	12/12/2025 17:08:15.3089	1.13335
3	0	12/12/2025 17:08:18.8089	1.13137
3	0	12/12/2025 17:08:22.3089	1.12144
3	0	12/12/2025 17:08:25.8089	1.11384
3	0	12/12/2025 17:08:29.3089	1.1184
3	0	12/12/2025 17:08:32.8089	1.1234
3	0	12/12/2025 17:08:36.3089	1.11376
3	0	12/12/2025 17:08:39.8089	1.10418
3	0	12/12/2025 17:08:43.3089	1.0805
3	0	12/12/2025 17:08:46.8089	1.13352
3	0	12/12/2025 17:08:50.3089	1.13661
3	0	12/12/2025 17:08:53.8089	1.13696
3	0	12/12/2025 17:08:57.3089	1.13678
3	0	12/12/2025 17:09:00.8089	1.13651
3	0	12/12/2025 17:09:04.3089	1.136
3	0	12/12/2025 17:09:07.8089	1.13618
3	0	12/12/2025 17:09:11.3089	1.13622
3	0	12/12/2025 17:09:14.8089	1.13603
3	0	12/12/2025 17:09:18.3089	1.13606
3	0	12/12/2025 17:09:21.8089	1.13621
3	0	12/12/2025 17:09:25.3089	1.13613
3	0	12/12/2025 17:09:28.8089	1.13615
3	0	12/12/2025 17:09:32.3089	1.13628
3	0	12/12/2025 17:09:35.8089	1.13645
3	0	12/12/2025 17:09:39.3089	1.13629
3	0	12/12/2025 17:09:42.8089	1.13636
3	0	12/12/2025 17:09:46.3089	1.13621
3	0	12/12/2025 17:09:49.8089	1.13621
3	0	12/12/2025 17:09:53.3089	1.13627
3	0	12/12/2025 17:09:56.8089	1.13622
3	0	12/12/2025 17:10:00.3089	1.13601
3	0	12/12/2025 17:10:03.8089	1.13585
3	0	12/12/2025 17:10:07.3089	1.13604
3	0	12/12/2025 17:10:10.8089	1.13607
3	0	12/12/2025 17:10:14.3089	1.13569
3	0	12/12/2025 17:10:17.8089	1.13498
3	0	12/12/2025 17:10:21.3089	1.13469
3	0	12/12/2025 17:10:24.8089	1.13461
3	0	12/12/2025 17:10:28.3089	1.13382
3	0	12/12/2025 17:10:31.8089	1.13329
3	0	12/12/2025 17:10:35.3089	1.13402
3	0	12/12/2025 17:10:38.8089	1.13363
3	0	12/12/2025 17:10:42.3089	1.13356
3	0	12/12/2025 17:10:45.8089	1.13432
3	0	12/12/2025 17:10:49.3089	1.13433
3	0	12/12/2025 17:10:52.8089	1.13435
3	0	12/12/2025 17:10:56.3089	1.13442
3	0	12/12/2025 17:10:59.8089	1.13437
3	0	12/12/2025 17:11:03.3089	1.13468
3	0	12/12/2025 17:11:06.8089	1.13299
3	0	12/12/2025 17:11:10.3089	1.13324
3	0	12/12/2025 17:11:13.8089	1.13247
3	0	12/12/2025 17:11:17.3089	1.13267
3	0	12/12/2025 17:11:20.8089	1.13217
3	0	12/12/2025 17:11:24.3089	1.13183
3	0	12/12/2025 17:11:27.8089	1.13113
3	0	12/12/2025 17:11:31.3089	1.13077
3	0	12/12/2025 17:11:34.8089	1.1304
3	0	12/12/2025 17:11:38.3089	1.13051
3	0	12/12/2025 17:11:41.8089	1.13058
3	0	12/12/2025 17:11:45.3089	1.1325
3	0	12/12/2025 17:11:48.8089	1.13473
3	0	12/12/2025 17:11:52.3089	1.13485
3	0	12/12/2025 17:11:55.8089	1.13553
3	0	12/12/2025 17:11:59.3089	1.13527
3	0	12/12/2025 17:12:02.8089	1.13585
3	0	12/12/2025 17:12:06.3089	1.13569
3	0	12/12/2025 17:12:09.8089	1.13548
3	0	12/12/2025 17:12:13.3089	1.13526
3	0	12/12/2025 17:12:16.8089	1.13483
3	0	12/12/2025 17:12:20.3089	1.1348
3	0	12/12/2025 17:12:23.8089	1.13456
3	0	12/12/2025 17:12:27.3089	1.13478
3	0	12/12/2025 17:12:30.8089	1.13501
3	0	12/12/2025 17:12:34.3089	1.13352
3	0	12/12/2025 17:12:37.8089	1.13351
3	0	12/12/2025 17:12:41.3089	1.13239
3	0	12/12/2025 17:12:44.8089	1.13215
3	0	12/12/2025 17:12:48.3089	1.12135
3	0	12/12/2025 17:12:51.8089	1.12321
3	0	12/12/2025 17:12:55.3089	1.12261
3	0	12/12/2025 17:12:58.8089	1.11152
3	0	12/12/2025 17:13:02.3089	1.08527
3	0	12/12/2025 17:13:05.8089	1.01332
3	0	12/12/2025 17:13:09.3089	1.04384
3	0	12/12/2025 17:13:12.8089	1.09648
3	0	12/12/2025 17:13:16.3089	1.08777
3	0	12/12/2025 17:13:19.8089	1.08565
3	0	12/12/2025 17:13:23.3089	1.09666
3	0	12/12/2025 17:13:26.8089	1.08786
3	0	12/12/2025 17:13:30.3089	1.09355
3	0	12/12/2025 17:13:33.8089	1.09762
3	0	12/12/2025 17:13:37.3089	1.10712
3	0	12/12/2025 17:13:40.8089	1.10921
3	0	12/12/2025 17:13:44.3089	1.13017
3	0	12/12/2025 17:13:47.8089	1.1257
3	0	12/12/2025 17:13:51.3089	1.12425
3	0	12/12/2025 17:13:54.8089	1.12717
3	0	12/12/2025 17:13:58.3089	1.12915
3	0	12/12/2025 17:14:01.8089	1.12937
3	0	12/12/2025 17:14:05.3089	1.13252
3	0	12/12/2025 17:14:08.8089	1.13302
3	0	12/12/2025 17:14:12.3089	1.13387
3	0	12/12/2025 17:14:15.8089	1.13445
3	0	12/12/2025 17:14:19.3089	1.13464
3	0	12/12/2025 17:14:22.8089	1.1347
3	0	12/12/2025 17:14:26.3089	1.13485
3	0	12/12/2025 17:14:29.8089	1.13532
3	0	12/12/2025 17:14:33.3089	1.13548
3	0	12/12/2025 17:14:36.8089	1.13618
3	0	12/12/2025 17:14:40.3089	1.13605
3	0	12/12/2025 17:14:43.8089	1.13596
3	0	12/12/2025 17:14:47.3089	1.13627
3	0	12/12/2025 17:14:50.8089	1.13612
3	0	12/12/2025 17:14:54.3089	1.13634
3	0	12/12/2025 17:14:57.8089	1.13647
3	0	12/12/2025 17:15:01.3089	1.13649
3	0	12/12/2025 17:15:04.8089	1.13654
3	0	12/12/2025 17:15:08.3089	1.13635
3	0	12/12/2025 17:15:11.8089	1.13644
3	0	12/12/2025 17:15:15.3089	1.13656
3	0	12/12/2025 17:15:18.8089	1.13661
3	0	12/12/2025 17:15:22.3089	1.13661
3	0	12/12/2025 17:15:25.8089	1.13668
3	0	12/12/2025 17:15:29.3089	1.13669
3	0	12/12/2025 17:15:32.8089	1.13668
3	0	12/12/2025 17:15:36.3089	1.13666
3	0	12/12/2025 17:15:39.8089	1.13668
3	0	12/12/2025 17:15:43.3089	1.1367
3	0	12/12/2025 17:15:46.8089	1.13668
3	0	12/12/2025 17:15:50.3089	1.13666
3	0	12/12/2025 17:15:53.8089	1.13667
3	0	12/12/2025 17:15:57.3089	1.13666
3	0	12/12/2025 17:16:00.8089	1.13665
3	0	12/12/2025 17:16:04.3089	1.13661
3	0	12/12/2025 17:16:07.8089	1.1366
3	0	12/12/2025 17:16:11.3089	1.13659
3	0	12/12/2025 17:16:14.8089	1.13629
3	0	12/12/2025 17:16:18.3089	1.13644
3	0	12/12/2025 17:16:21.8089	1.13646
3	0	12/12/2025 17:16:25.3089	1.13646
3	0	12/12/2025 17:16:28.8089	1.13641
3	0	12/12/2025 17:16:32.3089	1.13632
3	0	12/12/2025 17:16:35.8089	1.13623
3	0	12/12/2025 17:16:39.3089	1.13613
3	0	12/12/2025 17:16:42.8089	1.13608
3	0	12/12/2025 17:16:46.3089	1.13591
3	0	12/12/2025 17:16:49.8089	1.13578
3	0	12/12/2025 17:16:53.3089	1.13576
3	0	12/12/2025 17:16:56.8089	1.13571
3	0	12/12/2025 17:17:00.3089	1.1358
3	0	12/12/2025 17:17:03.8089	1.13566
3	0	12/12/2025 17:17:07.3089	1.13564
3	0	12/12/2025 17:17:10.8089	1.13542
3	0	12/12/2025 17:17:14.3089	1.13542
3	0	12/12/2025 17:17:17.8089	1.13539
3	0	12/12/2025 17:17:21.3089	1.13515
3	0	12/12/2025 17:17:24.8089	1.13519
3	0	12/12/2025 17:17:28.3089	1.13524
3	0	12/12/2025 17:17:31.8089	1.13535
3	0	12/12/2025 17:17:35.3089	1.13495
3	0	12/12/2025 17:17:38.8089	1.13618
3	0	12/12/2025 17:17:42.3089	1.13635
3	0	12/12/2025 17:17:45.8089	1.13654
3	0	12/12/2025 17:17:49.3089	1.13647
3	0	12/12/2025 17:17:52.8089	1.13647
3	0	12/12/2025 17:17:56.3089	1.13654
3	0	12/12/2025 17:17:59.8089	1.13655
3	0	12/12/2025 17:18:03.3089	1.13654
3	0	12/12/2025 17:18:06.8089	1.13655
3	0	12/12/2025 17:18:10.3089	1.13653
3	0	12/12/2025 17:18:13.8089	1.13654
3	0	12/12/2025 17:18:17.3089	1.13648
3	0	12/12/2025 17:18:20.8089	1.13646
3	0	12/12/2025 17:18:24.3089	1.13645
3	0	12/12/2025 17:18:27.8089	1.13638
3	0	12/12/2025 17:18:31.3089	1.13637
3	0	12/12/2025 17:18:34.8089	1.13638
3	0	12/12/2025 17:18:38.3089	1.13643
3	0	12/12/2025 17:18:41.8089	1.13634
3	0	12/12/2025 17:18:45.3089	1.13637
3	0	12/12/2025 17:18:48.8089	1.13635
3	0	12/12/2025 17:18:52.3089	1.13636
3	0	12/12/2025 17:18:55.8089	1.13637
3	0	12/12/2025 17:18:59.3089	1.13641
3	0	12/12/2025 17:19:02.8089	1.1365
3	0	12/12/2025 17:19:06.3089	1.13634
3	0	12/12/2025 17:19:09.8089	1.13634
3	0	12/12/2025 17:19:13.3089	1.13637
3	0	12/12/2025 17:19:16.8089	1.13639
3	0	12/12/2025 17:19:20.3089	1.13649
3	0	12/12/2025 17:19:23.8089	1.13641
3	0	12/12/2025 17:19:27.3089	1.13634
3	0	12/12/2025 17:19:30.8089	1.13637
3	0	12/12/2025 17:19:34.3089	1.13638
3	0	12/12/2025 17:19:37.8089	1.13642
3	0	12/12/2025 17:19:41.3089	1.1364
3	0	12/12/2025 17:19:44.8089	1.13644
3	0	12/12/2025 17:19:48.3089	1.13646
3	0	12/12/2025 17:19:51.8089	1.13649
3	0	12/12/2025 17:19:55.3089	1.13646
3	0	12/12/2025 17:19:58.8089	1.13647
3	0	12/12/2025 17:20:02.3089	1.13646
3	0	12/12/2025 17:20:05.8089	1.13643
3	0	12/12/2025 17:20:09.3089	1.13634
3	0	12/12/2025 17:20:12.8089	1.13631
3	0	12/12/2025 17:20:16.3089	1.13622
3	0	12/12/2025 17:20:19.8089	1.13623
3	0	12/12/2025 17:20:23.3089	1.13605
3	0	12/12/2025 17:20:26.8089	1.13606
3	0	12/12/2025 17:20:30.3089	1.13619
3	0	12/12/2025 17:20:33.8089	1.13622
3	0	12/12/2025 17:20:37.3089	1.13611
3	0	12/12/2025 17:20:40.8089	1.13614
3	0	12/12/2025 17:20:44.3089	1.13607
3	0	12/12/2025 17:20:47.8089	1.13607
3	0	12/12/2025 17:20:51.3089	1.13603
3	0	12/12/2025 17:20:54.8089	1.13602
3	0	12/12/2025 17:20:58.3089	1.13605
3	0	12/12/2025 17:21:01.8089	1.13606
3	0	12/12/2025 17:21:05.3089	1.13607
3	0	12/12/2025 17:21:08.8089	1.136
3	0	12/12/2025 17:21:12.3089	1.13592
3	0	12/12/2025 17:21:15.8089	1.13601
3	0	12/12/2025 17:21:19.3089	1.13612
3	0	12/12/2025 17:21:22.8089	1.13607
3	0	12/12/2025 17:21:26.3089	1.13598
3	0	12/12/2025 17:21:29.8089	1.13604
3	0	12/12/2025 17:21:33.3089	1.13599
3	0	12/12/2025 17:21:36.8089	1.13601
3	0	12/12/2025 17:21:40.3089	1.13609
3	0	12/12/2025 17:21:43.8089	1.13606
3	0	12/12/2025 17:21:47.3089	1.13613
3	0	12/12/2025 17:21:50.8089	1.13609
3	0	12/12/2025 17:21:54.3089	1.13614
3	0	12/12/2025 17:21:57.8089	1.13618
3	0	12/12/2025 17:22:01.3089	1.13615
3	0	12/12/2025 17:22:04.8089	1.13609
3	0	12/12/2025 17:22:08.3089	1.13611
3	0	12/12/2025 17:22:11.8089	1.1361
3	0	12/12/2025 17:22:15.3089	1.13612
3	0	12/12/2025 17:22:18.8089	1.13609
3	0	12/12/2025 17:22:22.3089	1.13608
3	0	12/12/2025 17:22:25.8089	1.13615
3	0	12/12/2025 17:22:29.3089	1.13612
3	0	12/12/2025 17:22:32.8089	1.13613
3	0	12/12/2025 17:22:36.3089	1.13613
3	0	12/12/2025 17:22:39.8089	1.13612
3	0	12/12/2025 17:22:43.3089	1.13613
3	0	12/12/2025 17:22:46.8089	1.13613
3	0	12/12/2025 17:22:50.3089	1.13612
3	0	12/12/2025 17:22:53.8089	1.13612
3	0	12/12/2025 17:22:57.3089	1.13614
3	0	12/12/2025 17:23:00.8089	1.13612
3	0	12/12/2025 17:23:04.3089	1.13612
3	0	12/12/2025 17:23:07.8089	1.1361
3	0	12/12/2025 17:23:11.3089	1.13609
3	0	12/12/2025 17:23:14.8089	1.13608
3	0	12/12/2025 17:23:18.3089	1.1361
3	0	12/12/2025 17:23:21.8089	1.13605
3	0	12/12/2025 17:23:25.3089	1.13607
3	0	12/12/2025 17:23:28.8089	1.13609
3	0	12/12/2025 17:23:32.3089	1.13609
3	0	12/12/2025 17:23:35.8089	1.13597
3	0	12/12/2025 17:23:39.3089	1.13584
3	0	12/12/2025 17:23:42.8089	1.13545
3	0	12/12/2025 17:23:46.3089	1.13146
3	0	12/12/2025 17:23:49.8089	1.13389
3	0	12/12/2025 17:23:53.3089	1.13478
3	0	12/12/2025 17:23:56.8089	1.1349
3	0	12/12/2025 17:24:00.3089	1.13536
3	0	12/12/2025 17:24:03.8089	1.13466
3	0	12/12/2025 17:24:07.3089	1.1348
3	0	12/12/2025 17:24:10.8089	1.13493
3	0	12/12/2025 17:24:14.3089	1.13514
3	0	12/12/2025 17:24:17.8089	1.13528
3	0	12/12/2025 17:24:21.3089	1.13516
3	0	12/12/2025 17:24:24.8089	1.13504
3	0	12/12/2025 17:24:28.3089	1.13537
3	0	12/12/2025 17:24:31.8089	1.13512
3	0	12/12/2025 17:24:35.3089	1.1348
3	0	12/12/2025 17:24:38.8089	1.13516
3	0	12/12/2025 17:24:42.3089	1.13503
3	0	12/12/2025 17:24:45.8089	1.13489
3	0	12/12/2025 17:24:49.3089	1.1344
3	0	12/12/2025 17:24:52.8089	1.13448
3	0	12/12/2025 17:24:56.3089	1.1347
3	0	12/12/2025 17:24:59.8089	1.13468
3	0	12/12/2025 17:25:03.3089	1.13464
3	0	12/12/2025 17:25:06.8089	1.13496
3	0	12/12/2025 17:25:10.3089	1.13519
3	0	12/12/2025 17:25:13.8089	1.13525
3	0	12/12/2025 17:25:17.3089	1.13544
3	0	12/12/2025 17:25:20.8089	1.13566
3	0	12/12/2025 17:25:24.3089	1.13565
3	0	12/12/2025 17:25:27.8089	1.1357
3	0	12/12/2025 17:25:31.3089	1.13565
3	0	12/12/2025 17:25:34.8089	1.13568
3	0	12/12/2025 17:25:38.3089	1.13578
3	0	12/12/2025 17:25:41.8089	1.13579
3	0	12/12/2025 17:25:45.3089	1.13577
3	0	12/12/2025 17:25:48.8089	1.13576
3	0	12/12/2025 17:25:52.3089	1.13575
3	0	12/12/2025 17:25:55.8089	1.13572
3	0	12/12/2025 17:25:59.3089	1.13562
3	0	12/12/2025 17:26:02.8089	1.13552
3	0	12/12/2025 17:26:06.3089	1.13554
3	0	12/12/2025 17:26:09.8089	1.1354
3	0	12/12/2025 17:26:13.3089	1.13544
3	0	12/12/2025 17:26:14.6071	1.13545