File: docs/examples/opeando_xrd/IS17_D/Data/IS17_D_fresh/17_D_fresh_f00008.xye
# /beamlines/bl04/projects/cycle2025-II/20250340211-lsimonelli/DATA/IS17_D_fresh/17_D_fresh_f00008.xye : mythproc.py merge -s 0.006 -l 0.5 -f /beamlines/bl04/inhouse/ff/FlatField/ff_20Nov2024rod8mm60s_17keV.raw -b True -c true -o xye /beamlines/bl04/projects/cycle2025-II/20250340211-lsimonelli/DATA/IS17_D_fresh/17_D_fresh_00008.dat
# IsMon = [6763472, 6761580, 6760198]  IsPos = [-1.4999, -2.4884, -3.4988]
# Wave = 0.4962  CalPath /beamlines/bl04/projects/cycle2025-II/20250340211-lsimonelli/DATA/Align/Si_Pos1_25keV_f00001.cal
# Date = 2025-09-24_23:10:47 Dt = 4.8000  Bin = 0.0060  <imon> = 6761750 +/- 1342 (Min/Max) 6760198 / 6763472
# icurr 249.9910  mocoIn 1.7050E-05  mocoOut 0.8002  i15 7.08037e+06  imon 6.76175e+06  i7 6.3333  iEMpd_timer 4.8000  iEMpd_1 3.6206E-08  iEMpd_2 7.8273E-08  iEMpd_3 1.6427E-08  iEMpd_4 4.6869E-08  iEMhp_timer 4.8000  iEMhp_1 4.8834E-06  iEMhp_2 -2.5229E-08  iEMhp_3 -2.5557E-08  iEMhp_4 -2.1092E-08
#      9776
 1.5856  38671.8  201.904
 1.6276  46422.9  217.419
 1.6696  52691  230.816
 1.7116  62286.9  251.445
 1.7536  71242.6  267.769
 1.7956  76343.2  277.882
 1.8376  72344.2  270.935
 1.8796  60543.4  246.035
 1.9216  48969.7  222.151
 1.9636  41234.7  203.017
 2.0056  37805.7  193.639
 2.0476  35022.2  188.417
 2.0896  33591.8  183.447
 2.1316  33087.1  181.189
 2.1736  31151.4  177.203
 2.2156  32096.8  178.429
 2.2576  30840  175.527
 2.2996  29883.4  173.418
 2.3416  30300.7  173.231
 2.3836  29714.9  171.654
 2.4256  28957.4  170.004
 2.4676  28734.4  169.108
 2.5096  28521.9  168.536
 2.5516  28338.2  171.901
 2.5936  28262.6  168.202
 2.6356  27608.6  166.945
 2.6776  27731.7  166.17
 2.7196  27317.7  165.467
 2.7616  27372.4  165.399
 2.8036  27089.9  164.721
 2.8456  26990.1  165.041
 2.8876  26571.4  163.643
 2.9296  26102.7  162.317
 2.9716  25794.6  160.83
 3.0136  25659.8  160.478
 3.0556  25647.9  160.857
 3.0976  25480.6  159.241
 3.1396  25342.2  159.547
 3.1816  24961.3  158.27
 3.2236  24864.1  157.963
 3.2656  25173.6  157.948
 3.3076  24602.4  157.628
 3.3496  24988.7  157.78
 3.3916  25273.9  158.494
 3.4336  25581  160.045
 3.4756  25694.5  160.314
 3.5176  26519.5  162.678
 3.5596  26357.4  164.635
 3.6016  26587.6  162.943
 3.6436  25819  161.691
 3.6856  25488.7  158.915
 3.7276  24291.5  156.242
 3.7696  24267.1  156.372
 3.8116  23877.1  154.99
 3.8536  23944  155.138
 3.8956  24017.5  155.196
 3.9376  23902.2  155.079
 3.9796  23606.7  153.623
 4.0216  23971  153.815
 4.0636  23864.9  154.986
 4.1056  23834.8  154.519
 4.1476  23918.3  155.102
 4.1896  24160.6  155.749
 4.2316  24361.5  156.215
 4.2736  24939.1  157.836
 4.3156  24946.1  158.098
 4.3576  25799.9  160.714
 4.3996  26237  162.328
 4.4416  26548.7  162.861
 4.4836  27135.5  164.803
 4.5256  27571.8  166.745
 4.5676  27412.3  166.53
 4.6096  27940.8  166.753
 4.6516  28417.1  167.881
 4.6936  28569.6  169.156
 4.7356  28849.8  169.809
 4.7776  28765.8  169.395
 4.8196  28328  168.742
 4.8616  28069.1  167.45
 4.9036  27696.7  166.078
 4.9456  27900.8  167.36
 4.9876  27170.1  165.053
 5.0296  27613.9  166.206
 5.0716  27477.9  166.597
 5.1136  27583.4  166.614
 5.1556  27969  167.227
 5.1976  28290.8  168.169
 5.2396  28470  168.402
 5.2816  28353.5  168.51
 5.3236  28530.2  168.748
 5.3656  27919.2  167.869
 5.4076  27748.2  167.513
 5.4496  27925.8  167.519
 5.4916  28136.9  167.896
 5.5336  28042  167.628
 5.5756  27748  166.769
 5.6176  28297.9  167.839
 5.6596  28272.9  168.757
 5.7016  28433.3  168.487
 5.7436  28678.1  169.488
 5.7856  28318.3  168.482
 5.8276  29122.3  170.576
 5.8696  29032.7  170.478
 5.9116  28963.1  170.903
 5.9536  29262.2  171.521
 5.9956  29733.8  172.245
 6.0376  29766  172.998
 6.0796  29948.8  173.356
 6.1216  30166.5  174.201
 6.1636  30322.4  173.682
 6.2056  30443.1  174.72
 6.2476  30370.5  174.371
 6.2896  30761.5  175.165
 6.3316  30585.6  174.831
 6.3736  30618  174.824
 6.4156  30889.5  175.481
 6.4576  30926.4  175.188
 6.4996  31409.8  177.056
 6.5416  31183  176.547
 6.5836  31437.8  177.509
 6.6256  31522.6  177.291
 6.6676  32171.8  178.664
 6.7096  31932.5  178.869
 6.7516  32222.8  179.327
 6.7936  32474.6  179.445
 6.8356  32637.1  179.968
 6.8776  33135.2  182.179
 6.9196  32980.2  182.157
 6.9616  33877.8  184.044
 7.0036  33815.5  183.508
 7.0456  34063.8  183.454
 7.0876  34066.4  185.209
 7.1296  34008.2  184.155
 7.1716  33884.3  183.34
 7.2136  33759.1  182.778
 7.2556  34234.8  184.235
 7.2976  34262.6  184.828
 7.3396  34141.2  184.718
 7.3816  33878.6  184.23
 7.4236  34322.8  184.698
 7.4656  34439.3  184.485
 7.5076  34858.8  185.737
 7.5496  34704.1  185.891
 7.5916  34864.3  186.342
 7.6336  35083.7  186.82
 7.6756  35304.6  187.258
 7.7176  35744.6  188.722
 7.7596  35585.5  189.621
 7.8016  35994.1  192.933
 7.8436  36512.8  190.906
 7.8856  36944.5  191.627
 7.9276  37704.3  194.005
 7.9696  37761.8  194.473
 8.0116  38641.9  195.204
 8.0536  38574.2  195.285
 8.0956  38723.7  196.9
 8.1376  39530.5  198.389
 8.1796  39915.3  199.91
 8.2216  40649  200.424
 8.2636  40528.3  200.388
 8.3056  40647.8  201.492
 8.3476  41507.5  202.9
 8.3896  41091.8  201.966
 8.4316  41451.4  203.023
 8.4736  41511.5  202.611
 8.5156  41202.9  202.148
 8.5576  40919.5  202.464
 8.5996  41037.1  201.578
 8.6416  40979.5  202.76
 8.6836  40668.7  201.819
 8.7256  41694.3  203.754
 8.7676  40436.2  203.656
 8.8096  40277.8  200.451
 8.8516  40015.6  199.399
 8.8936  39373.7  197.67
 8.9356  39421  198.14
 8.9776  39619.3  198.755
 9.0196  39289.8  197.581
 9.0616  39842.8  198.421
 9.1036  39556.8  198.957
 9.1456  39486.1  198.112
 9.1876  39368.9  197.759
 9.2296  39932.8  198.545
 9.2716  38635.8  195.36
 9.3136  38749.3  195.624
 9.3556  38873.6  195.922
 9.3976  37421.2  192.768
 9.4396  37909.1  193.92
 9.4816  37542.6  192.824
 9.5236  37554.8  192.771
 9.5656  37271.4  192.383
 9.6076  37406.7  193.293
 9.6496  37172.1  192.601
 9.6916  36913.5  191.912
 9.7336  37005.9  191.909
 9.7756  37481.9  194.476
 9.8176  36567.8  191.534
 9.8596  36447.3  189.592
 9.9016  36160.1  188.838
 9.9436  35818.7  187.846
 9.9856  35265.8  186.592
 10.0276  35746.7  189.078
 10.0696  35515.2  187.445
 10.1116  34345.5  184.597
 10.1536  34179.7  184.337
 10.1956  33468.7  181.984
 10.2376  33053.5  180.324
 10.2796  33402.9  181.418
 10.3216  32905.7  180.338
 10.3636  32591.6  179.515
 10.4056  32464.9  179.586
 10.4476  32001  177.91
 10.4896  32180.1  177.832
 10.5316  31754  177.366
 10.5736  31844.9  178.069
 10.6156  30805.4  174.89
 10.6576  31318.1  174.854
 10.6996  30927.2  174.443
 10.7416  30697.7  174.045
 10.7836  30643.1  174.637
 10.8256  30100.8  173.528
 10.8676  30454  174.059
 10.9096  29719.5  171.989
 10.9516  29582.2  170.464
 10.9936  29446.1  170.291
 11.0356  29281.6  170.474
 11.0776  29230.8  169.609
 11.1196  28645  168.666
 11.1616  28722.9  168.581
 11.2036  28640  168.183
 11.2456  28738.4  169.208
 11.2876  28425.2  167.996
 11.3296  28081.4  166.87
 11.3716  28418.7  167.561
 11.4136  28213.5  167.887
 11.4556  28212.8  167.546
 11.4976  28345.4  166.868
 11.5396  28715.6  168.131
 11.5816  29190.2  169.999
 11.6236  29695.8  171.696
 11.6656  29394.3  169.912
 11.7076  28651.9  168.657
 11.7496  28174.2  171.355
 11.7916  27975.5  165.878
 11.8336  27596.1  165.679
 11.8756  27396.1  164.576
 11.9176  27580  164.77
 11.9596  26995.2  163.205
 12.0016  27221.3  164.737
 12.0436  26753.3  162.697
 12.0856  26950.5  163.859
 12.1276  26733.3  163.096
 12.1696  26837.6  162.518
 12.2116  27017.1  163.067
 12.2536  26555.8  162.529
 12.2956  26583.4  161.925
 12.3376  26333  161.361
 12.3796  26623.9  162.728
 12.4216  26512  161.576
 12.4636  26233.4  161.681
 12.5056  26336.2  161.232
 12.5476  26603.8  161.568
 12.5896  26677.3  162.448
 12.6316  26238.8  161.256
 12.6736  26328.8  162.063
 12.7156  26102.9  161.214
 12.7576  26416.7  162.451
 12.7996  26469.7  161.182
 12.8416  26275.8  161.691
 12.8836  26847.8  163.263
 12.9256  26824.5  162.163
 12.9676  27173.7  163.66
 13.0096  26530.4  162.836
 13.0516  27022.4  163.352
 13.0936  26734.6  162.863
 13.1356  27477.5  164.073
 13.1776  27077.6  163.902
 13.2196  27214.8  163.962
 13.2616  27474.2  165.073
 13.3036  27373.5  164.733
 13.3456  27435  165.306
 13.3876  27222.8  163.91
 13.4296  27080.4  163.64
 13.4716  27342.6  164.019
 13.5136  27242.4  163.893
 13.5556  27160.6  164.28
 13.5976  27218.3  164.581
 13.6396  27491.6  164.767
 13.6816  27032.6  163.9
 13.7236  27433.5  164.751
 13.7656  26616.9  162.814
 13.8076  27012.6  162.755
 13.8496  26671.3  162.342
 13.8916  26712  163.533
 13.9336  26859.2  163.171
 13.9756  26592.6  161.667
 14.0176  26503.2  162.118
 14.0596  26423.9  161.842
 14.1016  26269.6  161.765
 14.1436  26006.8  160.041
 14.1856  25602  159.108
 14.2276  25346.4  158.813
 14.2696  25800  160.07
 14.3116  25530.1  159.129
 14.3536  24909.4  157.362
 14.3956  25068.4  157.583
 14.4376  25254.3  157.925
 14.4796  24885.3  156.761
 14.5216  24705.3  157.021
 14.5636  24703.2  156.563
 14.6056  24592.7  155.775
 14.6476  24657.6  155.17
 14.6896  24127.6  154.044
 14.7316  23782.6  154.016
 14.7736  23925.9  153.596
 14.8156  23491.4  152.239
 14.8576  23454.8  151.957
 14.8996  23095.3  152.054
 14.9416  22652.3  150.57
 14.9836  22778  150.962
 15.0256  22622.4  149.339
 15.0676  22621.5  149.666
 15.1096  22731  149.746
 15.1516  22345.5  149.067
 15.1936  22182.6  147.906
 15.2356  21626.5  146.344
 15.2776  21749.5  146.323
 15.3196  21275  145.767
 15.3616  21302.4  145.61
 15.4036  21168.2  145.003
 15.4456  21587.4  146.052
 15.4876  21283.7  144.685
 15.5296  20969.2  143.915
 15.5716  20553.6  142.063
 15.6136  20586.8  142.524
 15.6556  20713.7  142.153
 15.6976  20508  141.758
 15.7396  20265.2  141.331
 15.7816  20205  140.606
 15.8236  19838.8  140.057
 15.8656  20022.3  140.481
 15.9076  19740.6  139.302
 15.9496  19293.6  140.603
 15.9916  19406.6  141.505
 16.0336  19026.9  136.846
 16.0756  18978.2  137.002
 16.1176  18979.2  137.079
 16.1596  18325.8  135.919
 16.2016  18749.1  136.179
 16.2436  18367.2  135.178
 16.2856  18555.6  135.392
 16.3276  18098.1  134.145
 16.3696  18372  134.968
 16.4116  18176  134.727
 16.4536  18544.1  135.854
 16.4956  18086.7  133.887
 16.5376  17971  133.661
 16.5796  17899.5  132.72
 16.6216  17830.9  132.79
 16.6636  18040.3  133.741
 16.7056  17739.9  132.465
 16.7476  17936  132.711
 16.7896  17837.7  133.13
 16.8316  17832  133.07
 16.8736  17852.6  133.417
 16.9156  17708.9  133.232
 16.9576  17707.1  134.059
 16.9996  17836.6  135.068
 17.0416  17994.2  133.91
 17.0836  18053.4  133.87
 17.1256  17806.3  132.971
 17.1676  17810.9  132.991
 17.2096  17431.6  131.428
 17.2516  17520.6  131.534
 17.2936  17336.3  131.167
 17.3356  17033.6  130.035
 17.3776  17196.9  130.853
 17.4196  17332.8  131.044
 17.4616  17061.8  129.939
 17.5036  16734.8  129.073
 17.5456  16505.7  128.852
 17.5876  16562.8  128.074
 17.6296  16669  128.286
 17.6716  16365.5  127.717
 17.7136  16096.6  126.81
 17.7556  16279.3  127.825
 17.7976  16394.4  128.018
 17.8396  16235.9  126.871
 17.8816  16085.5  126.84
 17.9236  16174.8  126.998
 17.9656  16248  127.863
 18.0076  16040  126.591
 18.0496  16177.3  126.238
 18.0916  15910.2  125.751
 18.1336  15931.7  125.938
 18.1756  16137.2  126.236
 18.2176  15804.3  125.18
 18.2596  15872.8  125.179
 18.3016  15945.4  125.72
 18.3436  16101.7  126.349
 18.3856  15659.7  124.734
 18.4276  15864.1  125.208
 18.4696  15611.9  124.309
 18.5116  15848.1  125.553
 18.5536  15762.4  125.583
 18.5956  15431.7  123.795
 18.6376  15502.9  124.509
 18.6796  15599.7  124.189
 18.7216  15776.4  125.398
 18.7636  15280.2  123.395
 18.8056  15375.4  123.722
 18.8476  15376.8  124.389
 18.8896  15397.5  123.772
 18.9316  15577.9  124.482
 18.9736  15484.5  123.785
 19.0156  15423.8  123.961
 19.0576  15363.6  122.54
 19.0996  15474.5  123.729
 19.1416  15179.3  122.933
 19.1836  15329.4  123.139
 19.2256  15207.7  122.87
 19.2676  15403.4  123.76
 19.3096  15344.1  123.777
 19.3516  15193.8  123.113
 19.3936  15280.1  123.368
 19.4356  15317.3  123.377
 19.4776  15273.9  123.31
 19.5196  15322.3  123.335
 19.5616  15183.9  123.042
 19.6036  15157.1  122.427
 19.6456  15151.8  122.533
 19.6876  15358.3  122.998
 19.7296  15092.3  122.382
 19.7716  15216  123.049
 19.8136  15153.7  123.019
 19.8556  15586.7  124.223
 19.8976  15247.2  122.935
 19.9396  15491.3  123.465
 19.9816  15552.1  123.969
 20.0236  15613.1  124.44
 20.0656  15853.2  125.391
 20.1076  15738.6  125.411
 20.1496  16021.6  126.552
 20.1916  16289.9  127.075
 20.2336  16253.7  126.875
 20.2756  15904.6  125.96
 20.3176  15568.8  124.35
 20.3596  15577  124.359
 20.4016  15275.4  122.944
 20.4436  15292.6  123.596
 20.4856  14927  121.88
 20.5276  14985.1  122.606
 20.5696  14923.8  121.792
 20.6116  14850.7  121.795
 20.6536  14878.7  121.373
 20.6956  14804.9  121.219
 20.7376  14734  121.171
 20.7796  14572.2  120.176
 20.8216  14804.6  120.82
 20.8636  14512.5  119.994
 20.9056  14633.8  120.449
 20.9476  14409.3  119.354
 20.9896  14758  120.653
 21.0316  14733.4  120.444
 21.0736  14565.6  120.3
 21.1156  14494.6  120.174
 21.1576  14504.7  120.262
 21.1996  14529.5  120.348
 21.2416  14330.8  119.342
 21.2836  14471.8  119.883
 21.3256  14276.2  119.166
 21.3676  14436.8  119.369
 21.4096  14431  119.666
 21.4516  14362.6  119.261
 21.4936  14097.7  118.41
 21.5356  14331.3  119.33
 21.5776  14357.2  119.269
 21.6196  14180.2  118.559
 21.6616  14145.3  118.503
 21.7036  14173.2  118.402
 21.7456  14288.6  118.957
 21.7876  14143.2  118.073
 21.8296  14132.7  117.897
 21.8716  14060.6  117.839
 21.9136  14414.5  119.527
 21.9556  14070.8  117.747
 21.9976  14098.1  117.854
 22.0396  14107.7  118.179
 22.0816  14068.8  118.593
 22.1236  14121.5  118.236
 22.1656  14229.3  118.811
 22.2076  14057.4  117.56
 22.2496  14151.3  117.978
 22.2916  14047  117.425
 22.3336  14147.6  118.606
 22.3756  14082.7  118.04
 22.4176  13894.9  117.096
 22.4596  13806.3  117.34
 22.5016  14004.8  117.656
 22.5436  14128.1  118.044
 22.5856  14082.4  118.111
 22.6276  13891.6  117.447
 22.6696  14175.2  119.017
 22.7116  14155.4  118.414
 22.7536  13891.4  117.283
 22.7956  13970.4  116.909
 22.8376  13828.2  116.866
 22.8796  14043.1  117.557
 22.9216  14073  118.257
 22.9636  14031.6  117.187
 23.0056  14065.8  117.466
 23.0476  14029  117.926
 23.0896  14235.3  118.127
 23.1316  13976.7  117.509
 23.1736  13926.6  120.392
 23.2156  13930.5  117.647
 23.2576  13789.4  117.167
 23.2996  13835.5  117.16
 23.3416  13690.4  117.074
 23.3836  13793.3  116.72
 23.4256  13903.6  117.284
 23.4676  13726  116.239
 23.5096  13639.1  116.574
 23.5516  13846.9  116.707
 23.5936  13559  116.416
 23.6356  13789.8  117.056
 23.6776  13746.3  117.104
 23.7196  13460.5  115.432
 23.7616  13726.4  116.486
 23.8036  13671.8  116.292
 23.8456  13725.1  116.071
 23.8876  13317.7  114.691
 23.9296  13325.1  115.242
 23.9716  13318.5  114.374
 24.0136  13617.1  116.596
 24.0556  13207.7  114.547
 24.0976  13297.4  114.738
 24.1396  13359.9  117.8
 24.1816  13311.9  115.923
 24.2236  13354.2  115.691
 24.2656  13080.8  113.952
 24.3076  13166.1  114.569
 24.3496  13237  114.779
 24.3916  13031.8  113.933
 24.4336  13049.1  114.229
 24.4756  12982.7  113.796
 24.5176  12792.9  112.605
 24.5596  12790  112.724
 24.6016  12753.5  112.861
 24.6436  12626.6  111.757
 24.6856  12714.8  111.906
 24.7276  12753.2  112.408
 24.7696  12701.7  112.295
 24.8116  12615.4  112.109
 24.8536  12441.3  111.305
 24.8956  12644.2  111.959
 24.9376  12565.3  111.545
 24.9796  12372.5  111.05
 25.0216  12161.2  110.208
 25.0636  12463.8  111.21
 25.1056  12056.2  110.105
 25.1476  12417.2  113.471
 25.1896  12470.9  112.144
 25.2316  12492.6  111.471
 25.2736  12314.5  110.314
 25.3156  12187.4  109.823
 25.3576  12176.9  110.212
 25.3996  12154  110.091
 25.4416  12117.7  109.905
 25.4836  11995.3  109.899
 25.5256  12109.1  109.747
 25.5676  12241.2  110.068
 25.6096  11894.6  109.093
 25.6516  12158.4  109.773
 25.6936  11863.4  108.749
 25.7356  12007.5  109.55
 25.7776  11999.4  109.108
 25.8196  11809.1  108.47
 25.8616  11935.5  108.98
 25.9036  12030.7  108.857
 25.9456  12004.9  109.368
 25.9876  11916.3  109.029
 26.0296  12117.4  109.43
 26.0716  11840.5  108.596
 26.1136  11919.8  108.919
 26.1556  12023.1  108.736
 26.1976  11719.1  108.313
 26.2396  11944.7  108.477
 26.2816  11944.3  109.099
 26.3236  11793.3  108.582
 26.3656  11712  107.917
 26.4076  11863.8  108.837
 26.4496  13541.9  115.559
 26.4916  12049.2  109.16
 26.5336  11802.5  108.364
 26.5756  11835.9  108.395
 26.6176  11840  108.452
 26.6596  11655.5  107.925
 26.7016  11713.6  107.938
 26.7436  11647.6  107.764
 26.7856  11520.7  107.16
 26.8276  11598.4  107.474
 26.8696  11708  107.85
 26.9116  11510.1  106.877
 26.9536  11592.4  107.301
 26.9956  11491.9  106.875
 27.0376  11450.5  106.891
 27.0796  11538.6  107.033
 27.1216  11350.1  106.231
 27.1636  11294.5  106.142
 27.2056  11419.5  106.605
 27.2476  11279.7  105.955
 27.2896  11488.6  107.05
 27.3316  11365.1  106.16
 27.3736  11306.8  106.183
 27.4156  11334.8  106.134
 27.4576  11341.1  106.415
 27.4996  11137.4  105.022
 27.5416  11240.5  105.851
 27.5836  11223.3  105.576
 27.6256  11651.2  107.746
 27.6676  11285.3  106.069
 27.7096  11103.7  105.065
 27.7516  11112.6  105.271
 27.7936  11072.9  105.25
 27.8356  11071.2  104.854
 27.8776  10962.5  104.375
 27.9196  11044.6  104.612
 27.9616  11177.7  105.447
 28.0036  11044.2  104.79
 28.0456  11156.8  105.459
 28.0876  10838.1  104.031
 28.1296  10831.7  103.835
 28.1716  10839.1  103.87
 28.2136  11053.6  104.867
 28.2556  10793.1  103.735
 28.2976  10942.4  104.447
 28.3396  10828.7  103.661
 28.3816  10880  103.92
 28.4236  10865.2  104.013
 28.4656  10734.5  103.421
 28.5076  10934  103.978
 28.5496  10840.1  103.825
 28.5916  10838.3  103.616
 28.6336  10748.7  103.53
 28.6756  10872.3  103.299
 28.7176  10789.3  103.468
 28.7596  10662.2  102.761
 28.8016  10853  103.707
 28.8436  10595.6  102.716
 28.8856  10778.5  103.451
 28.9276  10684.8  103.257
 28.9696  10593.7  102.463
 29.0116  10705.8  103.193
 29.0536  10547.3  102.626
 29.0956  10578.8  102.498
 29.1376  10521.8  102.179
 29.1796  10530.8  102.267
 29.2216  10647.5  102.673
 29.2636  10680.5  102.902
 29.3056  10574.8  102.182
 29.3476  10669.4  103.185
 29.3896  10655.2  103.226
 29.4316  10834  103.385
 29.4736  10515.9  101.931
 29.5156  10710.1  102.785
 29.5576  10539.1  102.728
 29.5996  10498.3  101.757
 29.6416  10514.2  101.956
 29.6836  10581.3  102.211
 29.7256  10606.6  102.926
 29.7676  10406.8  101.6
 29.8096  10514.5  102.064
 29.8516  10264.8  101.193
 29.8936  10533.5  102.602
 29.9356  10621.9  102.775
 29.9776  10456.6  102.13
 30.0196  10454.4  101.48
 30.0616  10291.6  101.076
 30.1036  10609.3  102.438
 30.1456  10324.8  101.302
 30.1876  10406  101.675
 30.2296  10349.4  101.348
 30.2716  10486  101.628
 30.3136  10534.1  102.768
 30.3556  10320.5  101.716
 30.3976  10255.8  102.998
 30.4396  10358.4  100.72
 30.4816  10456.6  100.781
 30.5236  10269.7  99.8852
 30.5656  10247.4  100.462
 30.6076  10183.9  99.5558
 30.6496  10013.3  99.1169
 30.6916  10129.6  99.7924
 30.7336  10037.4  99.4845
 30.7756  10115  99.9682
 30.8176  10066.1  99.6352
 30.8596  10081.7  99.4693
 30.9016  10277.2  100.793
 30.9436  10163.6  99.9816
 30.9856  10131.7  99.9297
 31.0276  10054.5  99.1552
 31.0696  10049.7  99.7223
 31.1116  10208.7  100.482
 31.1536  10169.5  100.171
 31.1956  10123.9  100.034
 31.2376  10040.1  99.6322
 31.2796  10105.8  99.473
 31.3216  10126.1  99.5159
 31.3636  10137.7  100.287
 31.4056  10086.9  101.391
 31.4476  10220.1  99.8564
 31.4896  10138.9  99.984
 31.5316  10234  99.8198
 31.5736  10225.4  99.5978
 31.6156  10069.5  98.8489
 31.6576  10062.4  98.9219
 31.6996  10270.4  99.595
 31.7416  10006.3  99.4067
 31.7836  10129.2  98.9836
 31.8256  9885.67  98.0659
 31.8676  10196.9  99.5951
 31.9096  9967.37  98.8362
 31.9516  9833.13  98.3374
 31.9936  9988.31  98.9283
 32.0356  9960.43  98.8622
 32.0776  9997.3  98.9204
 32.1196  10053.4  99.2927
 32.1616  10067.8  98.7986
 32.2036  9879.54  98.3907
 32.2456  9943.05  99.1148
 32.2876  9856.57  98.1569
 32.3296  9854.02  98.1098
 32.3716  9650.84  97.194
 32.4136  9776.73  98.0701
 32.4556  10000.8  98.5242
 32.4976  9850.44  97.6872
 32.5396  9883.07  97.9254
 32.5816  9722.54  97.2459
 32.6236  9819.07  97.8105
 32.6656  9958.95  99.0631
 32.7076  9710.59  97.4621
 32.7496  9846.69  97.7839
 32.7916  9789.98  97.4632
 32.8336  9838.62  97.8169
 32.8756  9825.18  97.4529
 32.9176  9608.27  96.8527
 32.9596  9536.94  96.5895
 33.0016  9642.93  96.9079
 33.0436  9692.53  97.3419
 33.0856  9628.91  97.0956
 33.1276  9538  96.3504
 33.1696  9643.29  96.7305
 33.2116  9822.05  97.862
 33.2536  9652.8  96.9994
 33.2956  9554.58  96.6032
 33.3376  9555.02  96.3363
 33.3796  9684.17  97.2018
 33.4216  9542.33  96.0629
 33.4636  9624.46  96.6277
 33.5056  9574.97  96.6347
 33.5476  9485.28  96.1674
 33.5896  9718.88  97.1136
 33.6316  9425.4  95.9478
 33.6736  9490.52  96.5478
 33.7156  9413.07  96.1983
 33.7576  9641.7  96.9723
 33.7996  9622.54  96.6303
 33.8416  9381.43  95.6019
 33.8836  9486.77  95.9111
 33.9256  9446.55  95.7628
 33.9676  9603.07  96.4499
 34.0096  9278.23  95.1234
 34.0516  9353.53  95.1327
 34.0936  9284.14  95.064
 34.1356  9483.88  95.8074
 34.1776  9395.24  95.3671
 34.2196  9312.57  95.1237
 34.2616  9274.4  95.0731
 34.3036  9227.02  95.09
 34.3456  9317.89  95.3054
 34.3876  9229  94.8109
 34.4296  9278.64  94.7307
 34.4716  9282.87  94.9252
 34.5136  9121.25  94.2987
 34.5556  9220.98  95.0848
 34.5976  9349.22  95.5353
 34.6396  9171.55  94.3229
 34.6816  9257.86  94.8787
 34.7236  9199.02  94.359
 34.7656  9268.39  94.9136
 34.8076  9057.65  94.1514
 34.8496  9094.17  94.204
 34.8916  9274.2  95.0045
 34.9336  9197.61  94.5791
 34.9756  9098.41  93.9688
 35.0176  9196.44  95.0345
 35.0596  9100.13  94.3567
 35.1016  9171.47  94.4778
 35.1436  9220.55  94.4052
 35.1856  8958.31  93.1736
 35.2276  9123.88  94.2299
 35.2696  9051.81  94.0485
 35.3116  9123.3  94.5175
 35.3536  8939.46  93.2515
 35.3956  9046.6  93.5144
 35.4376  9021.07  93.9615
 35.4796  9157.39  94.7227
 35.5216  9075.99  94.2568
 35.5636  8869.81  93.9434
 35.6056  9073.77  94.0015
 35.6476  9027.24  93.6603
 35.6896  9053.7  93.8894
 35.7316  8882.91  92.9682
 35.7736  8996.09  93.757
 35.8156  9019.92  93.8856
 35.8576  8979.29  93.9393
 35.8996  9236.59  95.2146
 35.9416  9335.96  95.1681
 35.9836  8864.5  93.1522
 36.0256  8986.33  93.8067
 36.0676  8966.9  93.4542
 36.1096  8798.06  92.7137
 36.1516  8899.91  93.1311
 36.1936  8848.75  92.7125
 36.2356  8702.34  92.5915
 36.2776  8842.03  92.7945
 36.3196  8926.07  92.8875
 36.3616  8831.57  92.5438
 36.4036  8742.93  92.1364
 36.4456  8983.67  93.6076
 36.4876  8675.78  91.9264
 36.5296  8747.42  92.3368
 36.5716  8689  92.836
 36.6136  8790.48  92.1323
 36.6556  8687.98  91.7845
 36.6976  8608.56  91.8764
 36.7396  8698.79  92.0769
 36.7816  8687.5  92.4075
 36.8236  8541.43  91.5438
 36.8656  8498.57  91.3845
 36.9076  8633.2  91.9859
 36.9496  8457.32  91.036
 36.9916  8598.32  91.3884
 37.0336  8660.66  92.0644
 37.0756  8564.83  91.3429
 37.1176  8517.47  91.3606
 37.1596  8394.49  90.7127
 37.2016  8563.45  91.8479
 37.2436  8427.81  90.4075
 37.2856  8559.89  91.3787
 37.3276  8640.11  91.1484
 37.3696  8515.8  91.3928
 37.4116  8500.8  91.2278
 37.4536  8446.46  90.7986
 37.4956  8404.05  90.6221
 37.5376  8536.32  92.9477
 37.5796  8522.88  92.8002
 37.6216  8303.22  89.8362
 37.6636  8443.15  90.4676
 37.7056  8476.52  90.8583
 37.7476  8473.38  90.3663
 37.7896  8419.85  90.6055
 37.8316  8415.78  90.7345
 37.8736  8488.65  90.6548
 37.9156  8426.81  90.3043
 37.9576  8454.94  90.3703
 37.9996  8442.27  90.0084
 38.0416  8394.16  90.5756
 38.0836  8581.58  91.4834
 38.1256  8394.38  90.4476
 38.1676  8181.18  89.4184
 38.2096  8347.95  89.9291
 38.2516  8320.04  90.006
 38.2936  8376.15  90.0939
 38.3356  8270.17  89.4577
 38.3776  8343.78  90.1061
 38.4196  8299.13  89.7286
 38.4616  8206.13  89.4655
 38.5036  8416.77  90.4447
 38.5456  8310.19  90.7226
 38.5876  8334.5  90.8661
 38.6296  8344.01  89.8681
 38.6716  8348.99  89.6943
 38.7136  8265.08  89.1882
 38.7556  8313.49  89.9645
 38.7976  8241.17  89.5053
 38.8396  8230.15  89.9106
 38.8816  8250.67  89.7898
 38.9236  8262.82  89.6722
 38.9656  8433.29  90.4977
 39.0076  8300.38  89.1753
 39.0496  8298.66  89.7222
 39.0916  8456.59  90.2033
 39.1336  8248.68  89.511
 39.1756  8285.34  89.7792
 39.2176  8316.95  90.4987
 39.2596  8434.79  91.0555
 39.3016  8237.76  89.5606
 39.3436  8272.07  90.1693
 39.3856  8277.16  89.6361
 39.4276  8363.12  90.6085
 39.4696  8382.72  90.3307
 39.5116  8344.45  90.6422
 39.5536  8383.56  91.3011
 39.5956  8355.73  90.2336
 39.6376  8151.99  89.1284
 39.6796  8181.87  89.023
 39.7216  8169.42  89.0665
 39.7636  8255.84  90.1112
 39.8056  8302.35  90.1436
 39.8476  8247.71  90.1027
 39.8896  8185.02  89.3829
 39.9316  8171.23  89.5598
 39.9736  8301.85  89.8414
 40.0156  8170.24  88.9521
 40.0576  8091.28  88.8767
 40.0996  8268.86  89.0127
 40.1416  8246.31  89.7051
 40.1836  8234.67  89.5255
 40.2256  8225.13  89.514
 40.2676  8155.86  89.2443
 40.3096  8350.38  90.2288
 40.3516  8251.41  89.8047
 40.3936  8229.61  89.2382
 40.4356  8192.91  89.2432
 40.4776  8161.76  89.4813
 40.5196  8286.09  90.2949
 40.5616  8294.05  89.9652
 40.6036  8105.81  89.2048
 40.6456  8111.94  88.849
 40.6876  8321.37  89.9681
 40.7296  8255.25  89.7511
 40.7716  8192.96  89.5305
 40.8136  8118.43  89.0721
 40.8556  8220.82  89.7627
 40.8976  8166.58  89.394
 40.9396  8172.24  89.7731
 40.9816  8252.16  89.4807
 41.0236  8256.4  89.2925
 41.0656  8187.51  89.4625
 41.1076  8211.26  89.3611
 41.1496  8188.17  89.1403
 41.1916  8130.01  89.1469
 41.2336  8173.84  89.3783
 41.2756  8270.32  89.5039
 41.3176  8182.71  89.6457
 41.3596  8146.66  89.1831
 41.4016  8145.37  89.4391
 41.4436  8224.82  89.6544
 41.4856  8225.33  89.8296
 41.5276  8096.56  89.1359
 41.5696  8201.59  89.3343
 41.6116  8196.22  89.7067
 41.6536  8084.34  88.9512
 41.6956  8153.56  89.3827
 41.7376  8068.3  88.9465
 41.7796  8078.74  88.8893
 41.8216  8159.06  89.5668
 41.8636  8115.84  89.2724
 41.9056  8030.54  88.5845
 41.9476  8061.53  88.9869
 41.9896  8197.8  89.4006
 42.0316  8177.63  89.3774
 42.0736  8047.71  88.7713
 42.1156  7984.53  88.2614
 42.1576  8051.9  88.735
 42.1996  8129.79  89.3063
 42.2416  8132.09  88.8948
 42.2836  7889.32  87.6721
 42.3256  8014.13  88.4772
 42.3676  8033.88  88.3873
 42.4096  8063.49  88.515
 42.4516  8006.26  88.2846
 42.4936  7889.96  87.7128
 42.5356  8037.69  88.6679
 42.5776  8056.05  88.7035
 42.6196  8070.85  88.8425
 42.6616  8039.25  88.8375
 42.7036  8092.29  88.5043
 42.7456  8028.94  88.517
 42.7876  8031.7  88.6431
 42.8296  8037.17  88.4968
 42.8716  7930.67  88.0662
 42.9136  7932.24  87.8638
 42.9556  7951.41  88.1077
 42.9976  8135.85  89.0848
 43.0396  7945.46  87.7653
 43.0816  7916.04  87.9818
 43.1236  7955.14  88.2619
 43.1656  8018.39  88.4411
 43.2076  7918.73  87.9885
 43.2496  7945.8  87.9495
 43.2916  7885.49  87.9894
 43.3336  7947.68  88.1715
 43.3756  7965.82  88.0181
 43.4176  7826.18  87.3301
 43.4596  7801.05  87.0448
 43.5016  7882.39  87.9087
 43.5436  7914.42  87.9768
 43.5856  7924.54  88.0641
 43.6276  7843.78  87.5113
 43.6696  7848.3  87.8011
 43.7116  7978.62  88.0131
 43.7536  7917.52  88.1634
 43.7956  7789.23  88.6416
 43.8376  7829.36  87.4147
 43.8796  7893.98  87.8575
 43.9216  7943.21  88.0504
 43.9636  7920.52  88.0355
 44.0056  7833.9  87.7851
 44.0476  7925.81  87.9231
 44.0896  7893.58  88.0873
 44.1316  7904.4  87.6667
 44.1736  7809.88  87.2641
 44.2156  7994.31  88.1352
 44.2576  7950.91  88.2354
 44.2996  7890.57  87.8665
 44.3416  7927.85  87.8281
 44.3836  7785.9  87.3734
 44.4256  7750.62  86.818
 44.4676  7832.73  87.4348
 44.5096  7765.54  87.2061
 44.5516  7947.62  88.1895
 44.5936  7756.11  87.068
 44.6356  7877.91  87.4809
 44.6776  7878.08  87.8054
 44.7196  7786.8  87.6119
 44.7616  7829.17  89.1852
 44.8036  7747.8  87.1227
 44.8456  7795.77  87.589
 44.8876  7681.91  86.8101
 44.9296  7817.86  87.0221
 44.9716  7502.08  85.6779
 45.0136  7726.24  86.8733
 45.0556  7621.62  86.2531
 45.0976  7644.92  86.5677
 45.1396  7497.12  85.4927
 45.1816  7623.15  86.132
 45.2236  7688.82  86.3795
 45.2656  7611.1  86.4734
 45.3076  7611.85  86.263
 45.3496  7655.84  86.8029
 45.3916  7645.96  87.0122
 45.4336  7491.48  85.9744
 45.4756  7470.42  85.724
 45.5176  7574.84  85.9112
 45.5596  7752.99  87.0586
 45.6016  7610.76  86.6591
 45.6436  7662.79  86.1393
 45.6856  7565.12  86.256
 45.7276  7534.51  87.4226
 45.7696  7703.25  88.0333
 45.8116  7647.18  87.1523
 45.8536  7445.12  85.8827
 45.8956  7612.9  86.1823
 45.9376  7664.13  85.9322
 45.9796  7578.71  86.1348
 46.0216  7541.74  86.2849
 46.0636  7578.86  85.6317
 46.1056  7565.78  85.5211
 46.1476  7578.54  86.2048
 46.1896  7505.31  85.9437
 46.2316  7498.94  85.7785
 46.2736  7402.95  85.563
 46.3156  7555.24  86.0467
 46.3576  7458.25  85.6923
 46.3996  7422.1  85.6563
 46.4416  7504.85  85.7006
 46.4836  7461.06  85.8062
 46.5256  7595.38  86.5144
 46.5676  7434.06  85.7017
 46.6096  7521.2  86.1538
 46.6516  7545.11  85.3102
 46.6936  7533.86  85.7188
 46.7356  7483.8  85.5678
 46.7776  7588.44  87.0277
 46.8196  7508.64  86.1543
 46.8616  7455.59  85.8003
 46.9036  7465.87  85.5156
 46.9456  7603.19  85.9388
 46.9876  7569.87  85.8253
 47.0296  7549.16  86.4044
 47.0716  7375.11  85.2101
 47.1136  7490.1  85.567
 47.1556  7448.19  85.1923
 47.1976  7572.94  85.9783
 47.2396  7409.94  85.4332
 47.2816  7562.02  86.011
 47.3236  7623.74  86.7497
 47.3656  7585.11  86.4514
 47.4076  7543.19  86.0158
 47.4496  7489.52  85.8117
 47.4916  7423.34  85.6232
 47.5336  7575.7  86.3075
 47.5756  7604.5  86.5937
 47.6176  7280.66  84.631
 47.6596  7408.7  85.0748
 47.7016  7626.74  86.139
 47.7436  7592.57  86.2954
 47.7856  7450.98  85.5027
 47.8276  7442.59  85.5031
 47.8696  7461.85  85.7039
 47.9116  7533.4  85.8021
 47.9536  7532.52  85.7541
 47.9956  7335.51  85.3216
 48.0376  7500.18  86.0532
 48.0796  7541.38  86.427
 48.1216  7646.25  86.8395
 48.1636  7780.34  87.1509
 48.2056  7664.41  86.775
 48.2476  7420.27  85.6937
 48.2896  7586.42  86.5566
 48.3316  7446.07  85.6945
 48.3736  7360.93  85.2282
 48.4156  7453.64  85.6026
 48.4576  7455  85.8996
 48.4996  7514.67  85.7011
 48.5416  7411.87  85.4233
 48.5836  7426.81  85.2001
 48.6256  7384.4  85.1816
 48.6676  7514.99  86.4486
 48.7096  7520.25  85.7332
 48.7516  7515.91  85.8537
 48.7936  7452.13  85.5476
 48.8356  7547.34  86.1304
 48.8776  7454.72  86.2115
 48.9196  7478.71  85.7022
 48.9616  7482.5  86.1194
 49.0036  7329.55  85.5704
 49.0456  7368.82  85.7941
 49.0876  7461.17  85.8661
 49.1296  7235.24  84.712
 49.1716  7360.27  85.3069
 49.2136  7437.94  85.6964
 49.2556  7379.89  85.3723
 49.2976  7340.48  85.2087
 49.3396  7442.98  85.8673
 49.3816  7414.43  85.1256
 49.4236  7426.98  85.6309
 49.4656  7432.87  85.6807
 49.5076  7446.4  85.4809
 49.5496  7432.05  85.4741
 49.5916  7470.39  85.6128
 49.6336  7295.29  84.8191
 49.6756  7274.33  84.9245
 49.7176  7356.04  85.331
 49.7596  7267.75  84.5877
 49.8016  7360.16  85.0593
 49.8436  7450.11  85.8719
 49.8856  7253.92  84.7283
 49.9276  7434.86  85.8811
 49.9696  7337.56  85.3117
 50.0116  7370.46  85.6559
 50.0536  7328.88  85.3404
 50.0956  7367.59  85.631
 50.1376  7346.52  85.2109
 50.1796  7285.44  85.118
 50.2216  7308.81  85.2672
 50.2636  7355.65  85.1253
 50.3056  7317.43  85.0882
 50.3476  7425.64  85.7485
 50.3896  7380.7  85.4406
 50.4316  7359.32  85.1527
 50.4736  7250.52  84.7455
 50.5156  7362.89  85.404
 50.5576  7389.18  85.3079
 50.5996  7344.85  85.3209
 50.6416  7277.24  84.8687
 50.6836  7313.57  85.14
 50.7256  7423.96  85.7136
 50.7676  7249.65  85.0152
 50.8096  7342.46  85.0865
 50.8516  7259.06  85.0244
 50.8936  7234.08  84.6615
 50.9356  7369.57  85.5534
 50.9776  7361.79  85.6508
 51.0196  7300.66  85.4485
 51.0616  7495.58  85.8741
 51.1036  7485.27  86.191
 51.1456  7453.55  85.904
 51.1876  7493.86  85.453
 51.2296  7311.16  85.0641
 51.2716  7334.75  84.901
 51.3136  7277.92  85.0459
 51.3556  7366.03  85.1612
 51.3976  7438.35  85.7394
 51.4396  7229.6  84.8492
 51.4816  7328.18  85.2719
 51.5236  7433.48  85.9712
 51.5656  7357.72  85.1145
 51.6076  7399.14  85.4401
 51.6496  7280.56  84.9548
 51.6916  7282.82  85.3342
 51.7336  7294.24  85.5003
 51.7756  7325.5  85.3689
 51.8176  7399.44  85.8977
 51.8596  7364.14  85.7196
 51.9016  7343.02  85.1871
 51.9436  7229.16  85.9959
 51.9856  7136.08  85.9287
 52.0276  7262.47  85.1205
 52.0696  7023.76  83.7712
 52.1116  7143.88  84.6131
 52.1536  7061.26  83.9917
 52.1956  7279.62  84.7292
 52.2376  7254.82  84.7665
 52.2796  7065.15  83.4447
 52.3216  7040.24  84.0103
 52.3636  7097.51  83.9331
 52.4056  7174.79  84.2177
 52.4476  7242.25  85.0184
 52.4896  7131.2  84.4175
 52.5316  6961.57  83.436
 52.5736  7069.16  83.8164
 52.6156  6972.67  83.6095
 52.6576  7150.75  84.1158
 52.6996  6882.42  83.5046
 52.7416  7131.08  84.8456
 52.7836  7029.94  84.1165
 52.8256  7023.57  83.2652
 52.8676  6921.7  83.2717
 52.9096  7080.75  84.3119
 52.9516  7121.66  84.951
 52.9936  7097.42  85.2077
 53.0356  7035.91  83.7957
 53.0776  7113.44  84.5256
 53.1196  6955.99  83.7168
 53.1616  7065.97  84.4222
 53.2036  6962.15  83.7305
 53.2456  7061.93  84.4603
 53.2876  6936.49  83.4004
 53.3296  7010.62  84.1819
 53.3716  6917.91  83.3513
 53.4136  7007.99  84.0518
 53.4556  6958.99  83.7879
 53.4976  6978.53  83.7625
 53.5396  7047.34  84.5868
 53.5816  7069.82  84.3306
 53.6236  6852.3  83.3714
 53.6656  6899.74  83.2878
 53.7076  7037.11  84.071
 53.7496  6852.76  83.0769
 53.7916  7009.98  84.157
 53.8336  6917  83.4945
 53.8756  6838.71  83.5949
 53.9176  7088.3  84.4218
 53.9596  7078.01  85.1632
 54.0016  6916.98  83.4928
 54.0436  6866  83.4169
 54.0856  6995.54  83.592
 54.1276  6934.93  83.4333
 54.1696  6956.16  83.746
 54.2116  6930.27  83.3273
 54.2536  7001.78  83.5757
 54.2956  7052.18  83.9198
 54.3376  6967.53  83.9267
 54.3796  6963.67  83.7996
 54.4216  7083.47  84.5644
 54.4636  7028.69  84.1957
 54.5056  6977.48  83.6966
 54.5476  7016.91  84.2819
 54.5896  6961  83.7686
 54.6316  7098.05  84.445
 54.6736  7018.18  84.0399
 54.7156  6965.88  83.7505
 54.7576  6881.24  83.2381
 54.7996  6989.14  84.031
 54.8416  6957.88  83.8979
 54.8836  6814.65  83.1413
 54.9256  6957.52  83.7487
 54.9676  7007.85  83.9094
 55.0096  6946.43  83.6121
 55.0516  6967.84  83.9823
 55.0936  7018.57  83.8937
 55.1356  6928.58  83.4003
 55.1776  6904.83  83.5289
 55.2196  7034.03  84.0885
 55.2616  6869.8  83.3128
 55.3036  6920.53  83.7931
 55.3456  6971.58  84.2651
 55.3876  6877.12  83.4249
 55.4296  6933.99  83.7407
 55.4716  6932.1  83.7631
 55.5136  6995.39  83.8807
 55.5556  6875.38  83.2403
 55.5976  6930.5  83.6329
 55.6396  6843.3  83.0438
 55.6816  6795.88  82.6347
 55.7236  6972.12  83.7419
 55.7656  6916.99  83.1621
 55.8076  6994.19  83.6076
 55.8496  6830.05  82.9471
 55.8916  6826.65  83.1451
 55.9336  6890.11  83.3302
 55.9756  6804.37  82.7022
 56.0176  6819.57  82.9517
 56.0596  6837.88  83.0468
 56.1016  6833.29  83.0319
 56.1436  6891.64  83.6589
 56.1856  6973.17  83.8807
 56.2276  6818.75  82.9984
 56.2696  6890.28  83.4122
 56.3116  6756.69  83.0203
 56.3536  6841.97  83.1855
 56.3956  6842.87  83.1822
 56.4376  6847.13  83.2344
 56.4796  6850.31  83.0517
 56.5216  6908.17  83.797
 56.5636  6902.14  83.3325
 56.6056  6805.54  82.9754
 56.6476  6847.53  82.8479
 56.6896  6842.88  83.2896
 56.7316  6836.03  83.1533
 56.7736  6953.71  83.8633
 56.8156  6862.72  83.3069
 56.8576  6890.72  83.4215
 56.8996  6747.07  82.4803
 56.9416  6855.75  83.4605
 56.9836  6770.13  82.4274
 57.0256  6791.05  82.8938
 57.0676  6752.06  82.7843
 57.1096  6793.97  82.8193
 57.1516  6876.3  83.389
 57.1936  6941.98  83.5141
 57.2356  6850.75  83.3063
 57.2776  6783.94  82.8461
 57.3196  6765.27  83.1254
 57.3616  6835.95  83.0214
 57.4036  6908.43  83.5259
 57.4456  6803.21  82.8413
 57.4876  6856.53  83.0264
 57.5296  6761.36  82.8016
 57.5716  6772.53  82.8619
 57.6136  6855.99  83.1808
 57.6556  6921.74  83.7192
 57.6976  6896.39  83.3773
 57.7396  6747.93  82.8619
 57.7816  6703.89  82.9685
 57.8236  6779.83  83.2277
 57.8656  6792.45  82.9421
 57.9076  6820.3  83.1417
 57.9496  6797.61  83.3755
 57.9916  6815.83  82.9699
 58.0336  6726.77  82.7213
 58.0756  6846.99  83.0728
 58.1176  6880.5  83.264
 58.1596  6842.47  83.6309
 58.2016  6968.4  83.589
 58.2436  6995.88  84.192
 58.2856  6962.16  83.9039
 58.3276  6855.45  83.6495
 58.3696  6924.59  83.807
 58.4116  6797.87  82.895
 58.4536  6960.5  83.7565
 58.4956  6795.55  82.9529
 58.5376  7092.91  84.2829
 58.5796  6852.61  83.2957
 58.6216  6871.38  83.2132
 58.6636  6924.08  83.7546
 58.7056  6829.63  83.0342
 58.7476  6752.45  83.0303
 58.7896  6808  82.9933
 58.8316  6784.68  82.8463
 58.8736  6849.71  83.258
 58.9156  6906.05  83.6434
 58.9576  6738.39  82.9653
 58.9996  6923.64  83.2894
 59.0416  6859.07  83.2911
 59.0836  6951.06  83.7486
 59.1256  6797.56  83.5719
 59.1676  6893.84  84.4934
 59.2096  6892.7  83.7509
 59.2516  7040.51  84.1918
 59.2936  6886.04  83.6135
 59.3356  6984.7  84.0788
 59.3776  6900.47  83.7509
 59.4196  6877.35  83.5407
 59.4616  6794.09  82.8864
 59.5036  6785.46  82.8713
 59.5456  6898.29  83.2297
 59.5876  7039.05  84.2808
 59.6296  6654.47  82.0188
 59.6716  6771.1  82.7958
 59.7136  6860.12  83.3258
 59.7556  6834.26  83.3138
 59.7976  6840.82  83.0793
 59.8396  6926  83.4817
 59.8816  6865.21  83.6959
 59.9236  7066.67  84.5298
 59.9656  6861.49  83.5715
 60.0076  6866.49  82.9166
 60.0496  6975.57  84.1139
 60.0916  6918.33  83.1455
 60.1336  6825.47  83.7629
 60.1756  6777.83  84.7248
 60.1996  0.0000000E+00  0.0000000E+00