File: docs/examples/opeando_xrd/IS17_D/Data/IS17_D_fresh/17_D_fresh_f00010.xye
# /beamlines/bl04/projects/cycle2025-II/20250340211-lsimonelli/DATA/IS17_D_fresh/17_D_fresh_f00010.xye : mythproc.py merge -s 0.006 -l 0.5 -f /beamlines/bl04/inhouse/ff/FlatField/ff_20Nov2024rod8mm60s_17keV.raw -b True -c true -o xye /beamlines/bl04/projects/cycle2025-II/20250340211-lsimonelli/DATA/IS17_D_fresh/17_D_fresh_00010.dat
# IsMon = [6756081, 6757386, 6750137]  IsPos = [-1.4999, -2.4884, -3.4989]
# Wave = 0.4962  CalPath /beamlines/bl04/projects/cycle2025-II/20250340211-lsimonelli/DATA/Align/Si_Pos1_25keV_f00001.cal
# Date = 2025-09-25_07:32:42 Dt = 4.8000  Bin = 0.0060  <imon> = 6754535 +/- 3155 (Min/Max) 6750137 / 6757386
# icurr 249.6095  mocoIn 1.7022E-05  mocoOut 0.7986  i15 7.07207e+06  imon 6.75453e+06  i7 6.0000  iEMpd_timer 4.8000  iEMpd_1 3.5270E-08  iEMpd_2 7.9864E-08  iEMpd_3 1.8098E-08  iEMpd_4 4.8197E-08  iEMhp_timer 4.8000  iEMhp_1 4.8756E-06  iEMhp_2 -2.5130E-08  iEMhp_3 -2.3846E-08  iEMhp_4 -2.2132E-08
#      9776
 1.5856  38344.7  201.051
 1.6276  45916.6  216.233
 1.6696  52049.8  229.41
 1.7116  60836.1  248.503
 1.7536  69985.1  265.399
 1.7956  74550.2  274.603
 1.8376  70477.4  267.42
 1.8796  59287.2  243.465
 1.9216  47246.3  218.209
 1.9636  39977.7  199.901
 2.0056  35987.7  188.928
 2.0476  33320.2  183.784
 2.0896  32204.9  179.622
 2.1316  31183  175.9
 2.1736  29785.8  173.278
 2.2156  30410.8  173.681
 2.2576  29171  170.713
 2.2996  27976.2  167.795
 2.3416  28223.4  167.19
 2.3836  28301.5  167.524
 2.4256  27277.7  165.002
 2.4676  26721.5  163.079
 2.5096  26954.9  163.844
 2.5516  30367.7  177.964
 2.5936  90971.4  301.319
 2.6356  27895.1  167.781
 2.6776  25732.8  160.043
 2.7196  25537  159.966
 2.7616  25231.3  158.782
 2.8036  24826.4  157.677
 2.8456  24712.3  157.914
 2.8876  24207.9  156.174
 2.9296  24019.1  155.688
 2.9716  23945.9  154.942
 3.0136  23507.1  153.589
 3.0556  23573.8  154.2
 3.0976  23603.9  153.25
 3.1396  23660.7  154.147
 3.1816  23199.7  152.563
 3.2236  23216.2  152.619
 3.2656  23277.3  151.862
 3.3076  22809.3  151.761
 3.3496  23227.9  152.097
 3.3916  23661.2  153.338
 3.4336  24118.4  155.384
 3.4756  24350.4  156.05
 3.5176  25162.5  158.443
 3.5596  25140.3  160.789
 3.6016  25200.3  158.636
 3.6436  24504.4  157.512
 3.6856  24106.1  154.553
 3.7276  23303.5  153.025
 3.7696  23108.8  152.604
 3.8116  22762.3  151.325
 3.8536  22831.4  151.497
 3.8956  22827.4  151.302
 3.9376  23426  153.528
 3.9796  22729.3  150.741
 4.0216  22981.2  150.592
 4.0636  22822.1  151.557
 4.1056  22927.4  151.535
 4.1476  23119.2  152.493
 4.1896  23311.2  152.984
 4.2316  23339.5  152.914
 4.2736  23798.3  154.185
 4.3156  24155.8  155.583
 4.3576  24994.4  158.182
 4.3996  25178.3  159.01
 4.4416  25546.4  159.758
 4.4836  26791.1  163.749
 4.5256  26641.4  163.908
 4.5676  26599.4  164.043
 4.6096  27093.7  164.204
 4.6516  27619.5  165.507
 4.6936  27925.8  167.25
 4.7356  28484.8  168.732
 4.7776  28117.7  167.475
 4.8196  27505.9  166.28
 4.8616  27334.5  165.236
 4.9036  26953.2  163.832
 4.9456  27208  165.27
 4.9876  26237  162.194
 5.0296  26530.8  162.914
 5.0716  26296.3  162.985
 5.1136  26679.1  163.86
 5.1556  27166.3  164.811
 5.1976  31719  178.056
 5.2396  27547.9  165.65
 5.2816  27461.2  165.846
 5.3236  27624.9  166.05
 5.3656  27166.5  165.59
 5.4076  26886.9  164.889
 5.4496  27188.4  165.296
 5.4916  27152.2  164.939
 5.5336  27395.9  165.755
 5.5756  27038  164.623
 5.6176  27413.9  165.199
 5.6596  27530.5  166.528
 5.7016  27980.2  167.139
 5.7436  28021.5  167.16
 5.7856  27884.4  167.185
 5.8276  28397.9  168.444
 5.8696  28359.1  168.498
 5.9116  28299.8  168.936
 5.9536  28509.2  169.299
 5.9956  29119.7  170.462
 6.0376  28993.4  170.74
 6.0796  29200.5  171.179
 6.1216  29413.2  172.012
 6.1636  29486.5  171.271
 6.2056  29605.9  172.301
 6.2476  29710.1  172.46
 6.2896  30131.2  173.361
 6.3316  29654.4  172.152
 6.3736  30138.5  173.451
 6.4156  30014.2  172.977
 6.4576  30267.8  173.314
 6.4996  30744.9  175.173
 6.5416  30536.3  174.706
 6.5836  31071  176.305
 6.6256  30845.8  175.375
 6.6676  31233.3  176.035
 6.7096  30961.4  176.128
 6.7516  31601.6  177.599
 6.7936  32103.6  178.426
 6.8356  32974.3  180.899
 6.8776  32732.4  181.067
 6.9196  32481  180.774
 6.9616  33069  181.823
 7.0036  33318.9  182.155
 7.0456  33241  181.228
 7.0876  33121.9  182.627
 7.1296  33565.5  182.96
 7.1716  33231.3  181.577
 7.2136  33103.3  181
 7.2556  33459.8  182.135
 7.2976  33290.7  182.188
 7.3396  33305  182.427
 7.3816  33320  182.699
 7.4236  33812.9  183.321
 7.4656  34052.2  183.444
 7.5076  34322.9  184.304
 7.5496  34129.6  184.355
 7.5916  34101.1  184.291
 7.6336  35012.4  186.696
 7.6756  34948  186.31
 7.7176  35361  187.699
 7.7596  35232.5  188.679
 7.8016  38306.5  199.024
 7.8436  36399.8  190.783
 7.8856  36498.2  190.462
 7.9276  37119.1  192.505
 7.9696  37292.6  193.264
 8.0116  38498.8  194.838
 8.0536  38836.2  195.951
 8.0956  41330.6  203.398
 8.1376  39355.5  197.947
 8.1796  39582.4  199.062
 8.2216  40620.9  200.084
 8.2636  41585.1  202.982
 8.3056  40642.1  201.494
 8.3476  42814.6  206.071
 8.3896  41678.3  203.406
 8.4316  41383.7  202.857
 8.4736  41366.4  202.256
 8.5156  41198  202.134
 8.5576  41078.2  202.838
 8.5996  40998.6  201.482
 8.6416  40973.8  202.729
 8.6836  40677.7  201.856
 8.7256  41856.2  204.135
 8.7676  43096.8  210.254
 8.8096  42523.4  205.995
 8.8516  40551.9  200.757
 8.8936  42522.4  205.43
 8.9356  39965.1  199.522
 8.9776  40308.1  200.51
 9.0196  39727.7  198.696
 9.0616  40521.7  200.218
 9.1036  41542.2  203.906
 9.1456  39911.3  199.208
 9.1876  39241.5  197.461
 9.2296  39849  198.376
 9.2716  39056  196.438
 9.3136  38931.4  196.1
 9.3556  39614.6  197.798
 9.3976  37636.2  193.335
 9.4396  38385.6  195.146
 9.4816  37693.8  193.221
 9.5236  37854  193.563
 9.5656  37387.1  192.691
 9.6076  37449.6  193.438
 9.6496  37186.7  192.661
 9.6916  37419.5  193.251
 9.7336  37295.2  192.679
 9.7756  37763.8  195.214
 9.8176  36804.7  192.136
 9.8596  36556.7  189.853
 9.9016  36037.3  188.494
 9.9436  36014.5  188.344
 9.9856  36186.8  189.023
 10.0276  35194.4  187.573
 10.0696  35444.2  187.236
 10.1116  34681.4  185.474
 10.1536  34456.5  185.063
 10.1956  34117  183.72
 10.2376  33227.7  180.796
 10.2796  33823.8  182.543
 10.3216  33253.5  181.279
 10.3636  33128.2  180.966
 10.4056  35439.2  187.602
 10.4476  35165  186.479
 10.4896  37804.9  192.737
 10.5316  35978  188.801
 10.5736  32487  179.845
 10.6156  32122.8  178.588
 10.6576  35913.7  187.229
 10.6996  32361.3  178.428
 10.7416  31193.5  175.432
 10.7836  32704.9  180.408
 10.8256  31039.7  176.235
 10.8676  31072  175.798
 10.9096  30564.5  174.424
 10.9516  30376.8  172.742
 10.9936  31044.5  174.857
 11.0356  30610.7  174.298
 11.0776  31621.9  176.404
 11.1196  31318.6  176.365
 11.1616  29920.9  172.055
 11.2036  30603.6  173.86
 11.2456  32069.3  178.748
 11.2876  29469.8  171.055
 11.3296  29499.9  171.043
 11.3716  29726.3  171.384
 11.4136  29547.3  171.809
 11.4556  29839.5  172.319
 11.4976  30806.7  173.963
 11.5396  30537.4  173.367
 11.5816  28932.1  169.246
 11.6236  28579.5  168.427
 11.6656  28426.5  167.1
 11.7076  27809.9  166.16
 11.7496  28243.2  170.742
 11.7916  28336.5  166.948
 11.8336  27559.6  165.578
 11.8756  27896  166.079
 11.9176  27637.6  164.939
 11.9596  27071.3  163.442
 12.0016  26842.4  163.587
 12.0436  26847.2  162.982
 12.0856  26664.3  162.988
 12.1276  26880.7  163.462
 12.1696  26759  162.284
 12.2116  27495.6  164.504
 12.2536  28922.9  169.62
 12.2956  27101.1  163.351
 12.3376  26632.1  162.283
 12.3796  26799.9  163.275
 12.4216  26806.2  162.473
 12.4636  27471.2  165.441
 12.5056  26608.6  162.161
 12.5476  26698.1  161.85
 12.5896  26638.9  162.332
 12.6316  26223.4  161.223
 12.6736  26326.1  162.048
 12.7156  26425.4  162.209
 12.7576  26389.6  162.363
 12.7996  26660.8  161.764
 12.8416  26705.2  163.009
 12.8836  27731.7  165.934
 12.9256  27185.1  163.244
 12.9676  27279.4  163.977
 13.0096  26721  163.43
 13.0516  26914  163.021
 13.0936  26684.1  162.732
 13.1356  27390.2  163.811
 13.1776  27035.8  163.772
 13.2196  27033.1  163.417
 13.2616  26908.8  163.368
 13.3036  27049.3  163.752
 13.3456  27036  164.283
 13.3876  27026.1  163.316
 13.4296  26933.2  163.188
 13.4716  27409.8  164.217
 13.5136  27088.6  163.429
 13.5556  27412.8  164.733
 13.5976  27091.2  164.204
 13.6396  27662.4  165.279
 13.6816  27023.6  163.879
 13.7236  27167.2  163.952
 13.7656  26829.3  163.464
 13.8076  27543.7  164.341
 13.8496  26553.3  161.987
 13.8916  26937.5  164.222
 13.9336  26803.1  163.005
 13.9756  26505.5  161.413
 14.0176  26266.1  161.271
 14.0596  26901.9  163.3
 14.1016  25927.8  160.708
 14.1436  25762.8  159.296
 14.1856  25638.4  159.222
 14.2276  25578.9  159.506
 14.2696  25832.6  160.164
 14.3116  25496.1  159.032
 14.3536  24784.7  156.964
 14.3956  25055  157.533
 14.4376  24844.5  156.649
 14.4796  24805.4  156.512
 14.5216  24524.5  156.463
 14.5636  24850  157.012
 14.6056  24351.7  155.02
 14.6476  24399  154.358
 14.6896  23999.2  153.644
 14.7316  23476.4  153.036
 14.7736  23442.2  152.02
 14.8156  23164.4  151.173
 14.8576  23349.7  151.618
 14.8996  23065  151.948
 14.9416  22444  149.891
 14.9836  22476.9  149.972
 15.0256  22659  149.459
 15.0676  22496.7  149.142
 15.1096  22218.7  148.049
 15.1516  21809.1  147.253
 15.1936  22086.7  147.594
 15.2356  21633.9  146.367
 15.2776  21620.2  146.345
 15.3196  21498  146.531
 15.3616  21206.4  145.291
 15.4036  21029.6  144.521
 15.4456  21338.9  145.21
 15.4876  20922.5  143.45
 15.5296  20856.2  143.515
 15.5716  20185.9  140.787
 15.6136  20623.7  142.642
 15.6556  22433.9  148.361
 15.6976  20554.4  141.903
 15.7396  20514.6  142.21
 15.7816  20330.4  141.036
 15.8236  20013.1  140.611
 15.8656  19933.7  140.17
 15.9076  19751.2  139.337
 15.9496  19870.9  142.687
 15.9916  19296.4  141.101
 16.0336  18811.1  136.082
 16.0756  19116.3  137.513
 16.1176  18788.1  136.403
 16.1596  18407.3  136.239
 16.2016  18613.6  135.701
 16.2436  18305.2  134.95
 16.2856  18403.1  134.849
 16.3276  17981.9  133.725
 16.3696  18309.5  134.745
 16.4116  17995.9  134.073
 16.4536  18079.1  134.161
 16.4956  18763.8  136.371
 16.5376  18257.6  134.739
 16.5796  18032.4  133.233
 16.6216  18173.1  134.074
 16.6636  17982.5  133.541
 16.7056  17956.3  133.293
 16.7476  17879  132.514
 16.7896  17990.3  133.716
 16.8316  17766.4  132.846
 16.8736  17952.5  133.797
 16.9156  17989.7  134.298
 16.9576  17637.1  133.786
 16.9996  17798.5  134.924
 17.0416  17601.4  132.418
 17.0836  17522.1  131.866
 17.1256  17339.8  131.199
 17.1676  17842.9  133.096
 17.2096  17651.5  132.243
 17.2516  17341.3  130.832
 17.2936  17261  130.879
 17.3356  16713.6  128.793
 17.3776  16764.7  129.182
 17.4196  17069.1  130.025
 17.4616  17138.4  130.207
 17.5036  17272  131.101
 17.5456  16682.2  129.526
 17.5876  16582.7  128.139
 17.6296  16819.2  128.858
 17.6716  16850.4  129.577
 17.7136  16825.5  129.642
 17.7556  16658.4  129.296
 17.7976  16667.9  129.067
 17.8396  16482.8  127.816
 17.8816  16420.5  128.134
 17.9236  16150.4  126.896
 17.9656  16497.9  128.833
 18.0076  16764.8  129.433
 18.0496  17143  129.95
 18.0916  20355  142.139
 18.1336  19085.1  137.843
 18.1756  17502.4  131.48
 18.2176  17409.1  131.387
 18.2596  16332.9  126.973
 18.3016  16804.1  129.074
 18.3436  17178.7  130.504
 18.3856  16414.8  127.919
 18.4276  16260.6  126.758
 18.4696  16307.1  127.066
 18.5116  16552  128.312
 18.5536  16035.9  126.668
 18.5956  16140.8  126.604
 18.6376  16341.7  127.821
 18.6796  15948.4  125.571
 18.7216  16099.8  126.672
 18.7636  15746.9  125.261
 18.8056  15552.4  124.431
 18.8476  15424.2  124.582
 18.8896  15506.1  124.206
 18.9316  15915.4  125.831
 18.9736  15606.4  124.271
 19.0156  15878.2  125.767
 19.0576  15822.9  124.359
 19.0996  15804.2  125.042
 19.1416  15531.9  124.361
 19.1836  15503.9  123.827
 19.2256  15286.5  123.298
 19.2676  15448.8  123.942
 19.3096  15541.1  124.571
 19.3516  15511.7  124.398
 19.3936  15536.5  124.39
 19.4356  15396.1  123.689
 19.4776  15508  124.251
 19.5196  15364  123.513
 19.5616  15385.2  123.873
 19.6036  15433.2  123.544
 19.6456  15389.3  123.49
 19.6876  15996.9  125.529
 19.7296  15436.8  123.775
 19.7716  15399.3  123.793
 19.8136  15639.3  124.981
 19.8556  16134.2  126.389
 19.8976  16256.9  126.941
 19.9396  15977.1  125.393
 19.9816  15832.9  125.075
 20.0236  16011.2  126.014
 20.0656  15552.3  124.195
 20.1076  14984.2  122.376
 20.1496  15064.3  122.712
 20.1916  15167.1  122.615
 20.2336  15116.6  122.359
 20.2756  14897.8  121.905
 20.3176  14767.7  121.109
 20.3596  15064.6  122.303
 20.4016  14944.7  121.608
 20.4436  14840  121.65
 20.4856  14583.6  120.478
 20.5276  14696.1  121.423
 20.5696  14769.7  121.162
 20.6116  14822.9  121.676
 20.6536  14770.9  120.913
 20.6956  14674.7  120.681
 20.7376  14619.7  120.702
 20.7796  14535.7  120.028
 20.8216  14803.9  120.817
 20.8636  14635  120.504
 20.9056  15667.2  124.636
 20.9476  14619.9  120.222
 20.9896  15405.9  123.276
 21.0316  14738.9  120.467
 21.0736  14853.9  121.485
 21.1156  15127.6  122.77
 21.1576  14742.5  121.247
 21.1996  14566.1  120.506
 21.2416  14215.1  118.859
 21.2836  14622.4  120.507
 21.3256  14261  119.165
 21.3676  14551.5  119.843
 21.4096  14675.9  120.673
 21.4516  14301.6  119.005
 21.4936  14146  118.608
 21.5356  14419.4  119.69
 21.5776  14463.3  119.709
 21.6196  14371.4  119.345
 21.6616  14430.6  119.703
 21.7036  14194.7  118.498
 21.7456  14200.6  118.593
 21.7876  14047  117.685
 21.8296  13985.9  117.284
 21.8716  13969  117.444
 21.9136  14363.7  119.314
 21.9556  14374.8  119.013
 21.9976  14146.1  118.068
 22.0396  14091.7  118.106
 22.0816  14039.3  118.484
 22.1236  14441.3  119.566
 22.1656  14258.4  119.3
 22.2076  14288.7  118.507
 22.2496  14197.8  118.163
 22.2916  14258.4  118.306
 22.3336  14361.2  119.488
 22.3756  14106.3  118.138
 22.4176  14102.4  117.969
 22.4596  13795  117.304
 22.5016  14059.6  117.887
 22.5436  14249.6  118.67
 22.5856  14091.1  118.147
 22.6276  14025.8  118.005
 22.6696  14013.9  118.338
 22.7116  13879.8  117.246
 22.7536  14004.3  117.757
 22.7956  14196.4  117.842
 22.8376  13926.7  117.29
 22.8796  13849.4  116.742
 22.9216  13986.8  117.907
 22.9636  13970.1  116.93
 23.0056  13927.7  116.892
 23.0476  13942.6  117.558
 23.0896  14428  118.923
 23.1316  14207.5  118.472
 23.1736  13748.6  119.612
 23.2156  13794.4  117.094
 23.2576  13805.4  117.254
 23.2996  13729.3  116.729
 23.3416  13536.8  116.427
 23.3836  13720.9  116.423
 23.4256  13763.3  116.715
 23.4676  13778  116.471
 23.5096  13681.1  116.767
 23.5516  13505.7  115.274
 23.5936  13828.3  117.578
 23.6356  14038.1  118.117
 23.6776  13812.2  117.399
 23.7196  13476  115.519
 23.7616  13571.6  115.84
 23.8036  13589.9  115.947
 23.8456  13440.3  114.714
 23.8876  13274  114.51
 23.9296  13245.3  114.912
 23.9716  13254.2  114.104
 24.0136  13371.8  115.545
 24.0556  13325.6  115.075
 24.0976  13266.9  114.622
 24.1396  13321.9  117.634
 24.1816  13356.1  116.111
 24.2236  13305  115.466
 24.2656  13333.6  115.034
 24.3076  13266.5  114.993
 24.3496  13338  115.2
 24.3916  13184.9  114.586
 24.4336  13328.7  115.434
 24.4756  12981.2  113.781
 24.5176  12980.5  113.411
 24.5596  12761.2  112.586
 24.6016  12793.1  113.015
 24.6436  12813.4  112.569
 24.6856  12831.4  112.409
 24.7276  13013.6  113.537
 24.7696  12793.3  112.686
 24.8116  12909  113.39
 24.8536  12806.3  112.926
 24.8956  12699.4  112.185
 24.9376  12635.9  111.845
 24.9796  12613.4  112.116
 25.0216  12389.2  111.229
 25.0636  12585.3  111.736
 25.1056  12278  111.107
 25.1476  12354  113.196
 25.1896  12482.7  112.187
 25.2316  12555.2  111.759
 25.2736  12457.9  110.948
 25.3156  12256.5  110.14
 25.3576  12303.8  110.785
 25.3996  12328.3  110.878
 25.4416  12281.6  110.643
 25.4836  12161.7  110.66
 25.5256  12306.5  110.647
 25.5676  12402.8  110.787
 25.6096  12037.8  109.748
 25.6516  12297.8  110.393
 25.6936  12040.3  109.567
 25.7356  12064.8  109.817
 25.7776  12164.8  109.86
 25.8196  12037.2  109.518
 25.8616  12126.4  109.857
 25.9036  12341.6  110.259
 25.9456  12142.7  109.988
 25.9876  12063.3  109.699
 26.0296  12163.5  109.628
 26.0716  12013.8  109.396
 26.1136  12213.9  110.258
 26.1556  12249.5  109.767
 26.1976  11905.1  109.174
 26.2396  12049.5  108.957
 26.2816  11830.6  108.59
 26.3236  12053.5  109.765
 26.3656  11885.5  108.712
 26.4076  11918.3  109.088
 26.4496  13735.8  116.363
 26.4916  12113  109.442
 26.5336  11918.3  108.989
 26.5756  11805.4  108.25
 26.6176  12023.4  109.287
 26.6596  11726.1  108.245
 26.7016  11778.7  108.228
 26.7436  11615.7  107.609
 26.7856  11543.4  107.269
 26.8276  11638.5  107.661
 26.8696  11646.1  107.568
 26.9116  11727.8  107.896
 26.9536  11489.2  106.824
 26.9956  11562.2  107.194
 27.0376  11418.4  106.746
 27.0796  11622.7  107.42
 27.1216  11549.3  107.158
 27.1636  11463  106.937
 27.2056  11494.1  106.957
 27.2476  11487.8  106.927
 27.2896  11383.3  106.555
 27.3316  11453.9  106.577
 27.3736  11379.6  106.522
 27.4156  11189.3  105.458
 27.4576  11361.9  106.514
 27.4996  11291.4  105.751
 27.5416  11425  106.716
 27.5836  11356  106.206
 27.6256  11888.1  108.841
 27.6676  11508  107.102
 27.7096  11342.9  106.186
 27.7516  11664.7  107.748
 27.7936  11545.4  107.473
 27.8356  11383.2  106.322
 27.8776  11248.2  105.725
 27.9196  11294.2  105.794
 27.9616  11338.6  106.217
 28.0036  11283.2  105.92
 28.0456  11237  105.84
 28.0876  11124.3  105.396
 28.1296  11030.8  104.781
 28.1716  11036.3  104.818
 28.2136  10996.8  104.6
 28.2556  10901.7  104.252
 28.2976  11063.2  105.02
 28.3396  11065.7  104.791
 28.3816  11061.4  104.788
 28.4236  11240.7  105.796
 28.4656  10810.2  103.782
 28.5076  10921.8  103.94
 28.5496  10868.9  103.963
 28.5916  10980.2  104.291
 28.6336  10767.3  103.624
 28.6756  10959.5  103.71
 28.7176  10854.3  103.787
 28.7596  10772.5  103.29
 28.8016  10876.4  103.817
 28.8436  10670.9  103.082
 28.8856  10844.9  103.772
 28.9276  10743.6  103.541
 28.9696  10663.8  102.8
 29.0116  10765.1  103.487
 29.0536  10551.5  102.651
 29.0956  10647.9  102.833
 29.1376  10764.5  103.354
 29.1796  10562.6  102.417
 29.2216  10691.8  102.878
 29.2636  10681.3  102.909
 29.3056  10598.8  102.296
 29.3476  10618.4  102.94
 29.3896  10658.2  103.233
 29.4316  10717.1  102.829
 29.4736  10610.4  102.393
 29.5156  10831.6  103.367
 29.5576  10678.5  103.397
 29.5996  10679.1  102.629
 29.6416  10642.1  102.558
 29.6836  10711  102.834
 29.7256  10589.7  102.844
 29.7676  10552.6  102.316
 29.8096  10508.7  102.035
 29.8516  10463.9  102.177
 29.8936  10605.3  102.951
 29.9356  10623.5  102.78
 29.9776  10513.1  102.402
 30.0196  10593.5  102.138
 30.0616  10628.5  102.718
 30.1036  10528.6  102.041
 30.1456  10375.5  101.555
 30.1876  10493.3  102.09
 30.2296  10258.2  100.906
 30.2716  10486.9  101.631
 30.3136  10515.5  102.676
 30.3556  10469.1  102.452
 30.3976  10321.8  103.332
 30.4396  10426.5  101.053
 30.4816  10282.6  99.9501
 30.5236  10315.7  100.121
 30.5656  10272.8  100.598
 30.6076  10359.3  100.426
 30.6496  10372.6  100.892
 30.6916  10193.6  100.123
 30.7336  10100.4  99.8108
 30.7756  10142.5  100.111
 30.8176  10126.4  99.947
 30.8596  10274.8  100.43
 30.9016  10142.1  100.13
 30.9436  10302.1  100.667
 30.9856  10252  100.528
 31.0276  10243.2  100.09
 31.0696  10151.9  100.239
 31.1116  10057.4  99.7431
 31.1536  10212.8  100.396
 31.1956  10020.7  99.534
 31.2376  9837.45  98.6372
 31.2796  10078.4  99.3492
 31.3216  10078.5  99.2778
 31.3636  10199.4  100.59
 31.4056  10171.9  101.841
 31.4476  10216.2  99.8305
 31.4896  10024.1  99.4077
 31.5316  10318  100.215
 31.5736  10780.4  102.239
 31.6156  10474.1  100.8
 31.6576  10346.1  100.297
 31.6996  10418.5  100.301
 31.7416  10204.1  100.37
 31.7836  10313.5  99.8689
 31.8256  10064.2  98.9395
 31.8676  10277.3  99.9795
 31.9096  10121  99.5871
 31.9516  10116.7  99.7202
 31.9936  10075.1  99.3473
 32.0356  10176.4  99.9166
 32.0776  10212.8  99.9725
 32.1196  10062.4  99.3179
 32.1616  10097.1  98.9319
 32.2036  9940.9  98.6937
 32.2456  10038.5  99.5793
 32.2876  9991.78  98.8129
 32.3296  10026.8  98.9548
 32.3716  9889.16  98.3858
 32.4136  9892.48  98.6524
 32.4556  10010.5  98.5683
 32.4976  9978.14  98.3166
 32.5396  9749.4  97.2617
 32.5816  9678.5  97.0286
 32.6236  9990.77  98.6608
 32.6656  10000.9  99.266
 32.7076  9866.88  98.2434
 32.7496  9896.5  98.015
 32.7916  9848  97.7568
 32.8336  9870.28  97.9671
 32.8756  9776.81  97.218
 32.9176  9763.29  97.639
 32.9596  9738.45  97.6115
 33.0016  9839.77  97.8861
 33.0436  9920.03  98.1809
 33.0856  9700.05  97.4493
 33.1276  9685.94  97.0911
 33.1696  9816.95  97.6001
 33.2116  9766.02  97.5775
 33.2536  9746.39  97.4668
 33.2956  9813.46  97.9021
 33.3376  9631.03  96.7182
 33.3796  9640.5  96.9787
 33.4216  9717.77  96.949
 33.4636  9717.17  97.0922
 33.5056  9560.17  96.554
 33.5476  9588.28  96.6924
 33.5896  9745.57  97.2488
 33.6316  9510.38  96.3878
 33.6736  9400.13  96.0839
 33.7156  9411.27  95.9145
 33.7576  9586.03  96.6942
 33.7996  9591.92  96.4893
 33.8416  9363.62  95.516
 33.8836  9478.96  96.0049
 33.9256  9498.63  96.0278
 33.9676  9478.93  95.8243
 34.0096  9328.04  95.3722
 34.0516  9308.89  94.8939
 34.0936  9311.62  95.1147
 34.1356  9493.26  95.8543
 34.1776  9397.67  95.3744
 34.2196  9352.2  95.3319
 34.2616  9318.08  95.2956
 34.3036  9343.81  95.6893
 34.3456  9300.91  95.2154
 34.3876  9385.39  95.6125
 34.4296  9316.65  94.9338
 34.4716  9369.05  95.3291
 34.5136  9332.69  95.3873
 34.5556  9281.32  95.3906
 34.5976  9384.42  95.7155
 34.6396  9350.18  95.2231
 34.6816  9359.52  95.4005
 34.7236  9226.63  94.4998
 34.7656  9360.72  95.3841
 34.8076  9224.08  95.0164
 34.8496  9244.92  94.9854
 34.8916  9247.35  94.8674
 34.9336  9372.68  95.4731
 34.9756  9263.56  94.8344
 35.0176  9169.56  94.895
 35.0596  9174.35  94.7395
 35.1016  9142.78  94.3296
 35.1436  9298.86  94.7986
 35.1856  9114.65  93.9861
 35.2276  9058.89  93.8909
 35.2696  9130.98  94.4599
 35.3116  9163.16  94.709
 35.3536  9080.46  93.9868
 35.3956  9077.97  93.6735
 35.4376  9275.02  95.2741
 35.4796  9182.59  94.8515
 35.5216  9016.3  93.9488
 35.5636  8871.78  93.9492
 35.6056  9018.46  93.7129
 35.6476  9047.74  93.7668
 35.6896  9332.52  95.3234
 35.7316  8943.09  93.2863
 35.7736  8961.54  93.5809
 35.8156  9061.77  94.1055
 35.8576  9012.46  94.109
 35.8996  9048.12  94.2595
 35.9416  9001.02  93.5117
 35.9836  8891.46  93.2893
 36.0256  8922.93  93.476
 36.0676  9081.46  94.0407
 36.1096  8871.52  93.0981
 36.1516  8917.34  93.223
 36.1936  8957.52  93.2761
 36.2356  8885.35  93.5627
 36.2776  8805.63  92.6051
 36.3196  8966.45  93.0978
 36.3616  8917.88  92.9355
 36.4036  8830.33  92.5952
 36.4456  8968.01  93.5269
 36.4876  8742.86  92.2815
 36.5296  8853.86  92.9056
 36.5716  8887.95  93.6569
 36.6136  9145.71  93.9723
 36.6556  8848.52  92.6376
 36.6976  8736.1  92.5606
 36.7396  8751.27  92.3345
 36.7816  8738.41  92.6794
 36.8236  8781.71  92.8089
 36.8656  8645.09  92.1788
 36.9076  8662.87  92.1381
 36.9496  8519.95  91.3771
 36.9916  8633.03  91.5904
 37.0336  8748.56  92.5382
 37.0756  8675.14  91.9298
 37.1176  8615.83  91.8905
 37.1596  8705.74  92.3788
 37.2016  8574.41  91.9067
 37.2436  8782.04  92.2994
 37.2856  8618.94  91.6994
 37.3276  8673.59  91.5133
 37.3696  8733.74  92.5538
 37.4116  8478.46  91.1092
 37.4536  8605.36  91.6457
 37.4956  8357.18  90.5662
 37.5376  8604.95  93.3059
 37.5796  8503.27  92.6938
 37.6216  8439.83  90.5823
 37.6636  8513.17  90.8534
 37.7056  8516.14  91.0824
 37.7476  8625.94  91.1832
 37.7896  8404.74  90.5399
 37.8316  8385.08  90.5804
 37.8736  8428.59  90.3478
 37.9156  8378.77  90.0648
 37.9576  8447.54  90.3407
 37.9996  8439.87  90.0057
 38.0416  8442  90.8428
 38.0836  8624.17  91.7155
 38.1256  8384.32  90.4044
 38.1676  8386.74  90.5418
 38.2096  8604.33  91.3054
 38.2516  8376.49  90.3242
 38.2936  8596.21  91.2764
 38.3356  8445.64  90.4132
 38.3776  8351.3  90.1556
 38.4196  8467.53  90.6485
 38.4616  8534.59  91.2486
 38.5036  8604.17  91.4578
 38.5456  8295.45  90.6385
 38.5876  8455.04  91.5227
 38.6296  8478.68  90.5855
 38.6716  8387.4  89.8898
 38.7136  8372.34  89.7539
 38.7556  8413.93  90.4977
 38.7976  8366.41  90.1739
 38.8396  8490.47  91.3118
 38.8816  8318.68  90.1578
 38.9236  8316.73  89.954
 38.9656  8401.24  90.3138
 39.0076  8381.54  89.6043
 39.0496  8413.3  90.3354
 39.0916  8424.65  90.0165
 39.1336  8399.36  90.3197
 39.1756  8259.99  89.6336
 39.2176  8300.02  90.391
 39.2596  8373.01  90.7118
 39.3016  8290.05  89.8235
 39.3436  8255.6  90.07
 39.3856  8482.05  90.7216
 39.4276  8288.76  90.1959
 39.4696  8369.66  90.2507
 39.5116  8433.8  91.1259
 39.5536  8346.22  91.1023
 39.5956  8281.83  89.8229
 39.6376  8301.08  89.9467
 39.6796  8270.4  89.5081
 39.7216  8234.06  89.4236
 39.7636  8237.05  90.0169
 39.8056  8165.36  89.3993
 39.8476  8199.72  89.8421
 39.8896  8267.92  89.8325
 39.9316  8168.67  89.5536
 39.9736  8351.46  90.1045
 40.0156  8168.14  88.9366
 40.0576  8230.97  89.6378
 40.0996  8201.87  88.6584
 40.1416  8162.69  89.2488
 40.1836  8218.67  89.4424
 40.2256  8351.18  90.1933
 40.2676  8209.55  89.5442
 40.3096  8310.68  90.0182
 40.3516  8198.85  89.5184
 40.3936  8252.62  89.3625
 40.4356  8207.89  89.3172
 40.4776  8257.72  90.0108
 40.5196  8278.64  90.2534
 40.5616  8378.67  90.4249
 40.6036  8225.28  89.8598
 40.6456  8207.64  89.3711
 40.6876  8227.18  89.4589
 40.7296  8257.72  89.7672
 40.7716  8308.81  90.1597
 40.8136  8175.88  89.3804
 40.8556  8281.61  90.0941
 40.8976  8290.55  90.0668
 40.9396  8093  89.3378
 40.9816  8298.23  89.7314
 41.0236  8215.61  89.0765
 41.0656  8192.15  89.4877
 41.1076  8261.54  89.6316
 41.1496  8161.04  88.9903
 41.1916  8214.72  89.6062
 41.2336  8223.52  89.6466
 41.2756  8170.45  88.9623
 41.3176  8093.27  89.1532
 41.3596  8160.24  89.2535
 41.4016  8224.98  89.8787
 41.4436  8309.49  90.1163
 41.4856  8238.88  89.8935
 41.5276  8167.09  89.5245
 41.5696  8146.45  89.0282
 41.6116  8157.67  89.4947
 41.6536  8182.97  89.4903
 41.6956  8198.25  89.6283
 41.7376  8164.15  89.4694
 41.7796  8187.13  89.4893
 41.8216  8269.16  90.1685
 41.8636  8214.73  89.8131
 41.9056  8085.76  88.8855
 41.9476  8266.76  90.1155
 41.9896  8243.87  89.6458
 42.0316  8246.4  89.7547
 42.0736  8240.17  89.8231
 42.1156  8054.13  88.6456
 42.1576  8141.52  89.2262
 42.1996  8212.98  89.7643
 42.2416  8225.77  89.3071
 42.2836  8037.21  88.4868
 42.3256  8088.81  88.885
 42.3676  8103.72  88.7645
 42.4096  8181.26  89.1539
 42.4516  8095.61  88.8449
 42.4936  8054.52  88.6237
 42.5356  8031.91  88.6316
 42.5776  8098.14  88.934
 42.6196  8198.19  89.535
 42.6616  7995.11  88.5909
 42.7036  8081.8  88.4463
 42.7456  8099.5  88.9071
 42.7876  8061.12  88.8031
 42.8296  8061.19  88.6325
 42.8716  8021.29  88.5715
 42.9136  7991.78  88.1961
 42.9556  8113.76  89.0015
 42.9976  8187.63  89.362
 43.0396  8010.12  88.1225
 43.0816  8034.12  88.6331
 43.1236  7973.24  88.3582
 43.1656  8031  88.5105
 43.2076  7928.16  88.0452
 43.2496  8043.86  88.4872
 43.2916  8018.91  88.7295
 43.3336  7975.87  88.3283
 43.3756  7955.5  87.9528
 43.4176  7877.98  87.6201
 43.4596  7877.71  87.4648
 43.5016  7966.34  88.3759
 43.5436  8003.37  88.4795
 43.5856  7964.09  88.2853
 43.6276  7936.79  88.0309
 43.6696  8031.37  88.7638
 43.7116  8009.9  88.1847
 43.7536  7952.99  88.3592
 43.7956  7805.78  88.7238
 43.8376  7956.91  88.1165
 43.8796  7979.83  88.3333
 43.9216  8008.55  88.4098
 43.9636  7957.71  88.2451
 44.0056  8025.08  88.8496
 44.0476  7966.17  88.264
 44.0896  7907.05  88.166
 44.1316  7947.93  87.9066
 44.1736  8012.19  88.3905
 44.2156  7918.82  87.7187
 44.2576  8005.31  88.5368
 44.2996  7950.58  88.1986
 44.3416  8028.38  88.3951
 44.3836  7761.28  87.2397
 44.4256  7787.59  87.0309
 44.4676  7781.54  87.1475
 44.5096  7898.01  87.9433
 44.5516  7682.63  86.699
 44.5936  7833.23  87.4996
 44.6356  7809.01  87.098
 44.6776  7942.39  88.1541
 44.7196  7902.53  88.2684
 44.7616  7884.41  89.4917
 44.8036  7763.84  87.2067
 44.8456  7654.51  86.814
 44.8876  7673.96  86.8586
 44.9296  7893.54  87.4542
 44.9716  7651.45  86.5306
 45.0136  7732.41  86.9236
 45.0556  7735.09  86.8913
 45.0976  7621.9  86.4433
 45.1396  7616.83  86.1808
 45.1816  7713.41  86.6556
 45.2236  7793.22  86.9577
 45.2656  7631.64  86.5987
 45.3076  7720.42  86.8866
 45.3496  7703.73  87.0901
 45.3916  7628.82  86.9216
 45.4336  7589.92  86.537
 45.4756  7524.94  86.047
 45.5176  7572.4  85.9098
 45.5596  7688.14  86.6993
 45.6016  7518.38  86.1457
 45.6436  7728.38  86.5191
 45.6856  7724  87.1657
 45.7276  7731.66  88.5564
 45.7696  7714.45  88.0991
 45.8116  7687.01  87.3677
 45.8536  7497.89  86.1769
 45.8956  7591.8  86.0548
 45.9376  7668.72  85.9494
 45.9796  7661.77  86.5907
 46.0216  7569.7  86.4351
 46.0636  7691.13  86.2563
 46.1056  7679.11  86.1653
 46.1476  7519  85.8608
 46.1896  7709.77  87.1003
 46.2316  7503.02  85.7943
 46.2736  7407.41  85.6041
 46.3156  7479.88  85.6115
 46.3576  7621.13  86.6238
 46.3996  7556.48  86.4182
 46.4416  7554.84  85.9779
 46.4836  7512.84  86.0992
 46.5256  7545.34  86.222
 46.5676  7481.44  85.9665
 46.6096  7530.06  86.1956
 46.6516  7634.04  85.8004
 46.6936  7630.54  86.2495
 46.7356  7515.02  85.7415
 46.7776  7627.11  87.32
 46.8196  7590.19  86.6159
 46.8616  7596.8  86.6054
 46.9036  7569.44  86.1025
 46.9456  7622.35  86.0439
 46.9876  7635.03  86.1924
 47.0296  7709.79  87.2174
 47.0716  7492.01  85.8885
 47.1136  7507.56  85.663
 47.1556  7580.47  85.9473
 47.1976  7602.78  86.1505
 47.2396  7460.84  85.7182
 47.2816  7493.47  85.6186
 47.3236  7622.51  86.7484
 47.3656  7710.87  87.1628
 47.4076  7572.08  86.1854
 47.4496  7522.65  86.0008
 47.4916  7484.82  85.9827
 47.5336  7627.75  86.6024
 47.5756  7598.47  86.5636
 47.6176  7452.77  85.6167
 47.6596  7497.96  85.5795
 47.7016  7627.16  86.1411
 47.7436  7740.17  87.1211
 47.7856  7496.19  85.7656
 47.8276  7507.14  85.8768
 47.8696  7512.73  85.9995
 47.9116  7662.1  86.5418
 47.9536  7612.47  86.2144
 47.9956  7452.24  85.9839
 48.0376  7535.35  86.2534
 48.0796  7556.61  86.5175
 48.1216  7627.88  86.733
 48.1636  7863.22  87.6117
 48.2056  7686.71  86.9032
 48.2476  7445.91  85.8285
 48.2896  7580.35  86.5252
 48.3316  7505.88  86.047
 48.3736  7491.11  85.9749
 48.4156  7516.71  86.0655
 48.4576  7465.9  85.9701
 48.4996  7640.9  86.4138
 48.5416  7410.93  85.4162
 48.5836  7578.16  86.0674
 48.6256  7399.54  85.2675
 48.6676  7464.3  86.1587
 48.7096  7566.73  86.0035
 48.7516  7555.07  86.0767
 48.7936  7492.93  85.8761
 48.8356  7557.84  86.2023
 48.8776  7520.07  86.5828
 48.9196  7526.5  85.9717
 48.9616  7543.92  86.47
 49.0036  7372.43  85.8192
 49.0456  7401.68  85.9874
 49.0876  7623.43  86.7984
 49.1296  7452.47  85.9733
 49.1716  7377.26  85.627
 49.2136  7537.31  86.2749
 49.2556  7408.58  85.5387
 49.2976  7369.72  85.3673
 49.3396  7367.71  85.4289
 49.3816  7480.76  85.6687
 49.4236  7525.4  86.1972
 49.4656  7405.06  85.5145
 49.5076  7494.06  85.7559
 49.5496  7532.82  86.0514
 49.5916  7549.56  86.0708
 49.6336  7429.39  85.5978
 49.6756  7366.38  85.4575
 49.7176  7297.97  84.9946
 49.7596  7331.79  84.9644
 49.8016  7560.78  86.2137
 49.8436  7519.36  86.2694
 49.8856  7353.99  85.31
 49.9276  7437.8  85.8947
 49.9696  7455.83  85.9966
 50.0116  7452.02  86.1279
 50.0536  7361.12  85.5288
 50.0956  7409.5  85.8704
 50.1376  7368.84  85.3448
 50.1796  7362.56  85.5658
 50.2216  7418.78  85.9009
 50.2636  7430.15  85.5651
 50.3056  7386.12  85.4847
 50.3476  7362.86  85.3817
 50.3896  7347.36  85.2565
 50.4316  7382.78  85.297
 50.4736  7220.67  84.5664
 50.5156  7364.22  85.4224
 50.5576  7404.99  85.3977
 50.5996  7332.14  85.257
 50.6416  7318.03  85.1085
 50.6836  7377.62  85.5097
 50.7256  7361.06  85.3566
 50.7676  7391.34  85.8295
 50.8096  7323.43  84.977
 50.8516  7384  85.7569
 50.8936  7275.5  84.9079
 50.9356  7362.51  85.5139
 50.9776  7401.12  85.8886
 51.0196  7402.93  86.0468
 51.0616  7360.73  85.0905
 51.1036  7513.52  86.3522
 51.1456  7543.03  86.4229
 51.1876  7454.55  85.2311
 51.2296  7423.1  85.7148
 51.2716  7419.94  85.4
 51.3136  7414.47  85.8378
 51.3556  7345.38  85.0489
 51.3976  7383.52  85.4229
 51.4396  7275.17  85.1125
 51.4816  7414.58  85.7699
 51.5236  7486.24  86.2689
 51.5656  7373.33  85.2066
 51.6076  7444.47  85.6929
 51.6496  7445.13  85.9127
 51.6916  7333.72  85.6246
 51.7336  7336.31  85.7515
 51.7756  7274.7  85.0556
 51.8176  7346.68  85.6017
 51.8596  7361.59  85.7041
 51.9016  7352.99  85.2445
 51.9436  7190.91  85.7643
 51.9856  7132.08  85.8979
 52.0276  7215  84.8523
 52.0696  7147.04  84.5034
 52.1116  7085.26  84.271
 52.1536  7097.94  84.2199
 52.1956  7248.83  84.5713
 52.2376  7268.78  84.8523
 52.2796  7235.68  84.4557
 52.3216  6943.81  83.4544
 52.3636  7060.75  83.7199
 52.4056  7046.88  83.4762
 52.4476  7044.09  83.8532
 52.4896  7071.95  84.0725
 52.5316  7158.29  84.6143
 52.5736  7178.6  84.4756
 52.6156  7080.97  84.2694
 52.6576  7258.72  84.7574
 52.6996  6952.45  83.9492
 52.7416  7033.94  84.3527
 52.7836  7080.89  84.4154
 52.8256  7256.24  84.6583
 52.8676  7020.36  83.8754
 52.9096  7124.54  84.5766
 52.9516  7215.25  85.4968
 52.9936  7101.64  85.2268
 53.0356  7257.43  85.0942
 53.0776  7071.92  84.2655
 53.1196  7080.91  84.4577
 53.1616  6914.7  83.5076
 53.2036  6976.69  83.8325
 53.2456  6973.91  83.9164
 53.2876  7120.72  84.4869
 53.3296  7004.92  84.1475
 53.3716  6980.62  83.7327
 53.4136  7064.35  84.3865
 53.4556  7016.66  84.137
 53.4976  7026.22  84.039
 53.5396  7142.53  85.144
 53.5816  7063.88  84.2883
 53.6236  6960.14  84.0153
 53.6656  6944.79  83.5482
 53.7076  7001.05  83.8455
 53.7496  6967.37  83.7654
 53.7916  7127.97  84.8637
 53.8336  6934.76  83.5953
 53.8756  6913  84.0385
 53.9176  7086.95  84.401
 53.9596  7097.87  85.2871
 54.0016  7075.99  84.4446
 54.0436  6923.39  83.7733
 54.0856  7125.5  84.3732
 54.1276  7000.12  83.8187
 54.1696  7022.83  84.1496
 54.2116  7001.19  83.7601
 54.2536  7029.09  83.741
 54.2956  7123.68  84.3444
 54.3376  6948.67  83.8137
 54.3796  6908.52  83.4614
 54.4216  7032.78  84.0901
 54.4636  7032.69  84.221
 54.5056  6975.06  83.6857
 54.5476  6952.44  83.8999
 54.5896  7039.88  84.2521
 54.6316  7076.77  84.3183
 54.6736  7058.1  84.2769
 54.7156  7001.15  83.9527
 54.7576  6923.08  83.4898
 54.7996  7141.26  84.9353
 54.8416  6952.69  83.8714
 54.8836  6876.81  83.5243
 54.9256  6997.85  83.9869
 54.9676  7026.31  84.0225
 55.0096  6969.49  83.7477
 55.0516  6952.81  83.9002
 55.0936  6956.3  83.522
 55.1356  6939.36  83.4627
 55.1776  6835.27  83.1125
 55.2196  6955.82  83.6189
 55.2616  6899.53  83.4966
 55.3036  6926.16  83.8184
 55.3456  6898.84  83.8318
 55.3876  7006.31  84.201
 55.4296  6929.5  83.7186
 55.4716  6906.02  83.6082
 55.5136  7010.08  83.972
 55.5556  6857.29  83.1296
 55.5976  7014.32  84.1395
 55.6396  6882.95  83.2841
 55.6816  6934.77  83.4699
 55.7236  6973.26  83.7603
 55.7656  7011.38  83.7263
 55.8076  7043.64  83.9034
 55.8496  6922.91  83.5139
 55.8916  6905.28  83.6193
 55.9336  6867.44  83.1965
 55.9756  6834  82.8781
 56.0176  6859.6  83.1945
 56.0596  6845.36  83.0905
 56.1016  6923.59  83.5837
 56.1436  6866.46  83.51
 56.1856  7008.57  84.0968
 56.2276  6895.69  83.4735
 56.2696  7012.57  84.1463
 56.3116  6778.9  83.1507
 56.3536  6879.45  83.4143
 56.3956  6812.94  82.9982
 56.4376  7038.02  84.3892
 56.4796  6973.04  83.7935
 56.5216  6880.83  83.6211
 56.5636  6993.63  83.8834
 56.6056  6896.14  83.5288
 56.6476  6953.25  83.4822
 56.6896  6916.71  83.7354
 56.7316  6878.84  83.4274
 56.7736  6947.88  83.811
 56.8156  6883.8  83.4492
 56.8576  6913.27  83.5612
 56.8996  6894.16  83.3815
 56.9416  6897.08  83.7106
 56.9836  6835.14  82.8234
 57.0256  6856.81  83.29
 57.0676  6943.32  83.9451
 57.1096  6960.47  83.8252
 57.1516  6893.53  83.5015
 57.1936  6827.15  82.8229
 57.2356  6967.15  84.0135
 57.2776  6845.86  83.2233
 57.3196  7015.66  84.6487
 57.3616  6928.25  83.5755
 57.4036  6918.71  83.5829
 57.4456  6808.03  82.8731
 57.4876  6947.19  83.578
 57.5296  6741.65  82.6836
 57.5716  6873.84  83.4766
 57.6136  6923.81  83.5803
 57.6556  6850.08  83.2924
 57.6976  6947.99  83.6977
 57.7396  6787.45  83.1072
 57.7816  6733.77  83.1597
 57.8236  6851.08  83.715
 57.8656  6882.42  83.4915
 57.9076  6832.48  83.2261
 57.9496  6831.72  83.5837
 57.9916  6791.82  82.8203
 58.0336  6831.62  83.356
 58.0756  6850.6  83.0902
 58.1176  6876.87  83.2424
 58.1596  6824.67  83.5263
 58.2016  6967.99  83.5928
 58.2436  7027.86  84.3837
 58.2856  6921.3  83.6656
 58.3276  6911.77  83.9948
 58.3696  6899.09  83.6455
 58.4116  6905.41  83.5481
 58.4536  7041.25  84.2349
 58.4956  6827.56  83.1473
 58.5376  6870.87  82.9548
 58.5796  6916.57  83.6868
 58.6216  6860.66  83.151
 58.6636  6914.3  83.7027
 58.7056  6943.14  83.7174
 58.7476  6796.54  83.2976
 58.7896  6830.32  83.1329
 58.8316  6878.74  83.4131
 58.8736  7066.33  84.5629
 58.9156  6882.37  83.4899
 58.9576  6921.32  84.0868
 58.9996  7087.66  84.2659
 59.0416  6954.22  83.8675
 59.0836  6989.26  83.9812
 59.1256  6831.05  83.7771
 59.1676  6902.74  84.5494
 59.2096  6934.95  84.0249
 59.2516  7090.2  84.5062
 59.2936  6826.84  83.2708
 59.3356  6783.93  82.8791
 59.3776  6826.58  83.3189
 59.4196  6909.77  83.7562
 59.4616  7053.31  84.4706
 59.5036  6848.61  83.2737
 59.5456  7145.4  84.7251
 59.5876  6996.4  84.0428
 59.6296  6923.61  83.6786
 59.6716  6858.97  83.3489
 59.7136  7018.27  84.2986
 59.7556  6825.31  83.2768
 59.7976  6790.13  82.7884
 59.8396  6873.22  83.1806
 59.8816  6763.76  83.0932
 59.9236  6832.08  83.1324
 59.9656  6852.1  83.5317
 60.0076  6860.39  82.8972
 60.0496  6733.14  82.151
 60.0916  6969.33  83.469
 60.1336  6680.35  82.8851
 60.1756  6816.6  84.9847
 60.1996  6918.46  88.0118