File: docs/examples/opeando_xrd/IS17_D/Data/IS17_D_fresh/17_D_fresh_f00011.xye
# /beamlines/bl04/projects/cycle2025-II/20250340211-lsimonelli/DATA/IS17_D_fresh/17_D_fresh_f00011.xye : mythproc.py merge -s 0.006 -l 0.5 -f /beamlines/bl04/inhouse/ff/FlatField/ff_20Nov2024rod8mm60s_17keV.raw -b True -c true -o xye /beamlines/bl04/projects/cycle2025-II/20250340211-lsimonelli/DATA/IS17_D_fresh/17_D_fresh_00011.dat
# IsMon = [6774220, 6776208, 6777311]  IsPos = [-1.4999, -2.4884, -3.4988]
# Wave = 0.4962  CalPath /beamlines/bl04/projects/cycle2025-II/20250340211-lsimonelli/DATA/Align/Si_Pos1_25keV_f00001.cal
# Date = 2025-09-25_11:43:32 Dt = 4.8000  Bin = 0.0060  <imon> = 6775913 +/- 1279 (Min/Max) 6774220 / 6777311
# icurr 251.7395  mocoIn 1.7177E-05  mocoOut 0.8058  i15 7.09327e+06  imon 6.77591e+06  i7 5.0000  iEMpd_timer 4.8000  iEMpd_1 3.4657E-08  iEMpd_2 7.6989E-08  iEMpd_3 1.6192E-08  iEMpd_4 4.7283E-08  iEMhp_timer 4.8000  iEMhp_1 4.9177E-06  iEMhp_2 -2.5799E-08  iEMhp_3 -2.5072E-08  iEMhp_4 -2.0012E-08
#      9776
 1.5856  39461.6  204.007
 1.6276  46769.4  218.284
 1.6696  53296.2  232.196
 1.7116  62704.5  252.351
 1.7536  71439.5  268.207
 1.7956  76142.8  277.587
 1.8376  72253.6  270.833
 1.8796  60642.8  246.3
 1.9216  49087.7  222.474
 1.9636  41389.9  203.45
 2.0056  37420.5  192.698
 2.0476  34823.8  187.93
 2.0896  33524.9  183.311
 2.1316  32502.1  179.625
 2.1736  30644.3  175.799
 2.2156  31534.3  176.903
 2.2576  30298  174.023
 2.2996  29239.6  171.583
 2.3416  29491.8  170.947
 2.3836  28666  168.639
 2.4256  28254.6  167.971
 2.4676  27511  165.51
 2.5096  27568.3  165.737
 2.5516  26804.3  167.202
 2.5936  27110.1  164.753
 2.6356  26567.7  163.786
 2.6776  26393.7  162.126
 2.7196  26040.6  161.57
 2.7616  26065.2  161.421
 2.8036  25764.4  160.661
 2.8456  25724.2  161.144
 2.8876  25361.8  159.885
 2.9296  24905.5  158.569
 2.9716  24822.9  157.789
 3.0136  24521.3  156.896
 3.0556  24819.3  158.253
 3.0976  24301.2  155.534
 3.1396  24397.5  156.562
 3.1816  24162.9  155.735
 3.2236  23942.5  155.023
 3.2656  23978.1  154.166
 3.3076  23842.6  155.193
 3.3496  24164.4  155.162
 3.3916  24407.3  155.77
 3.4336  24995.3  158.218
 3.4756  25197.9  158.783
 3.5176  26085.4  161.352
 3.5596  25979.5  163.472
 3.6016  26203.1  161.761
 3.6436  25374.6  160.291
 3.6856  24983.9  157.329
 3.7276  24150.6  155.791
 3.7696  23908.3  155.205
 3.8116  23599.6  154.086
 3.8536  23690.3  154.314
 3.8956  23629.3  153.936
 3.9376  23676  154.341
 3.9796  23696.9  153.916
 4.0216  23748.3  153.097
 4.0636  23621.9  154.194
 4.1056  23823.6  154.481
 4.1476  23700.4  154.402
 4.1896  24095.8  155.542
 4.2316  24126.3  155.463
 4.2736  24666.5  156.977
 4.3156  24904.7  157.961
 4.3576  25716.1  160.449
 4.3996  26035.7  161.701
 4.4416  26583.7  162.962
 4.4836  27024.6  164.466
 4.5256  27245.2  165.762
 4.5676  27315.3  166.235
 4.6096  27851.2  166.493
 4.6516  28309.5  167.562
 4.6936  28573.4  169.162
 4.7356  28592.7  169.049
 4.7776  28650.3  169.045
 4.8196  28295.5  168.661
 4.8616  27881.9  166.894
 4.9036  27561.9  165.685
 4.9456  27782.9  167.006
 4.9876  27069.5  164.746
 5.0296  27313.5  165.301
 5.0716  27269.9  165.957
 5.1136  27555.7  166.529
 5.1556  28161.7  167.796
 5.1976  28138.9  167.729
 5.2396  28595.7  168.768
 5.2816  28374.9  168.594
 5.3236  28646.8  169.092
 5.3656  28079.9  168.353
 5.4076  27914.3  168.012
 5.4496  28307.1  168.653
 5.4916  28558.7  169.153
 5.5336  28281.7  168.335
 5.5756  28118.6  167.888
 5.6176  28408.9  168.17
 5.6596  28640  169.85
 5.7016  28872.4  169.785
 5.7436  29124.5  170.803
 5.7856  28985  170.452
 5.8276  29444.1  171.513
 5.8696  29586  172.104
 5.9116  29545.5  172.612
 5.9536  29593.5  172.498
 5.9956  30043  173.148
 6.0376  30218.7  174.307
 6.0796  30433.4  174.755
 6.1216  30286.8  174.536
 6.1636  30731.1  174.849
 6.2056  30677.2  175.382
 6.2476  30526.8  174.818
 6.2896  31138.2  176.232
 6.3316  30835.9  175.554
 6.3736  31247  176.612
 6.4156  31159.1  176.258
 6.4576  31449.3  176.662
 6.4996  31590.3  177.557
 6.5416  31596.3  177.717
 6.5836  31787.5  178.487
 6.6256  31524.1  177.295
 6.6676  32357.5  179.18
 6.7096  32242  179.747
 6.7516  32183  179.224
 6.7936  32647.4  179.919
 6.8356  32828.8  180.501
 6.8776  33219.6  182.402
 6.9196  33226.7  182.836
 6.9616  33778.6  183.774
 7.0036  34124.4  184.347
 7.0456  34182.3  183.774
 7.0876  33920.6  184.814
 7.1296  34085.6  184.372
 7.1716  34002.1  183.663
 7.2136  33961.7  183.33
 7.2556  34419.6  184.729
 7.2976  34255  184.808
 7.3396  34473.4  185.611
 7.3816  34219.2  185.151
 7.4236  34463.9  185.072
 7.4656  34679.5  185.124
 7.5076  35076  186.316
 7.5496  34932.1  186.492
 7.5916  34978.1  186.635
 7.6336  35479.3  187.87
 7.6756  35643.7  188.152
 7.7176  35916.4  189.179
 7.7596  35652.1  189.798
 7.8016  36129.7  193.332
 7.8436  37137.1  192.506
 7.8856  37436  192.868
 7.9276  37971.3  194.657
 7.9696  37872.2  194.73
 8.0116  39145.1  196.445
 8.0536  39270  197.022
 8.0956  39200.6  198.088
 8.1376  39549.6  198.411
 8.1796  40062.9  200.256
 8.2216  40898.2  201.009
 8.2636  40925.6  201.343
 8.3056  40539.3  201.192
 8.3476  41995.7  204.065
 8.3896  41495.3  202.93
 8.4316  41788.6  203.822
 8.4736  42363.2  204.656
 8.5156  41761.6  203.488
 8.5576  41190  203.114
 8.5996  41540.1  202.785
 8.6416  41302.2  203.53
 8.6836  40877.5  202.304
 8.7256  42208.3  204.983
 8.7676  40836.7  204.664
 8.8096  40523.6  201.082
 8.8516  40486.3  200.576
 8.8936  40145.4  199.605
 8.9356  40162.3  200.024
 8.9776  40462.7  200.874
 9.0196  40131.8  199.704
 9.0616  40173.4  199.258
 9.1036  39561.7  198.98
 9.1456  39925.6  199.201
 9.1876  40004.5  199.352
 9.2296  40277.2  199.398
 9.2716  39468  197.45
 9.3136  39531  197.58
 9.3556  39822.1  198.305
 9.3976  38265.2  194.944
 9.4396  38593.2  195.667
 9.4816  38177.8  194.47
 9.5236  38652.6  195.574
 9.5656  37983.4  194.21
 9.6076  37803.9  194.299
 9.6496  37499.9  193.45
 9.6916  37917.2  194.49
 9.7336  37433.8  193.018
 9.7756  38210.3  196.345
 9.8176  37119.1  192.99
 9.8596  37193.9  191.545
 9.9016  36820.1  190.576
 9.9436  36303.3  189.138
 9.9856  36142.9  188.935
 10.0276  35849  189.356
 10.0696  36096.3  188.99
 10.1116  35168.2  186.814
 10.1536  34965.3  186.462
 10.1956  34487.8  184.752
 10.2376  33848.1  182.508
 10.2796  34049.9  183.193
 10.3216  33968.6  183.253
 10.3636  33709.1  182.582
 10.4056  33468.7  182.344
 10.4476  33141.5  181.074
 10.4896  33370.3  181.113
 10.5316  32845.6  180.425
 10.5736  32813.4  180.778
 10.6156  32070.2  178.478
 10.6576  32384.3  177.823
 10.6996  31791.8  176.868
 10.7416  32010.8  177.756
 10.7836  31801.3  177.906
 10.8256  31135.6  176.486
 10.8676  31716.8  177.628
 10.9096  30841.4  175.208
 10.9516  30737.8  173.773
 10.9936  30675.3  173.809
 11.0356  30702.1  174.56
 11.0776  30283.9  172.642
 11.1196  30011.8  172.647
 11.1616  29837.5  171.822
 11.2036  29887.2  171.811
 11.2456  29859.1  172.472
 11.2876  29428.3  170.945
 11.3296  29242.7  170.298
 11.3716  29578.7  170.948
 11.4136  29638  172.066
 11.4556  29750.9  172.043
 11.4976  30085.5  171.917
 11.5396  30476.4  173.201
 11.5816  30169.8  172.829
 11.6236  29497.4  171.12
 11.6656  29039.1  168.898
 11.7076  28587.6  168.467
 11.7496  28136.4  171.266
 11.7916  28292.2  166.815
 11.8336  27985.5  166.835
 11.8756  27807.7  165.817
 11.9176  27999.5  166.012
 11.9596  27441.1  164.561
 12.0016  27448.2  165.42
 12.0436  27318.5  164.417
 12.0856  27219.4  164.673
 12.1276  27268.8  164.737
 12.1696  27265.6  163.809
 12.2116  27582.9  164.757
 12.2536  26934.4  163.687
 12.2956  27262.7  163.97
 12.3376  26818  162.857
 12.3796  27226.5  164.557
 12.4216  26911.3  162.789
 12.4636  26613.4  162.846
 12.5056  27043.3  163.385
 12.5476  27142.5  163.195
 12.5896  27106.5  163.748
 12.6316  26709.6  162.705
 12.6736  26818.7  163.562
 12.7156  26496  162.439
 12.7576  26660.9  163.194
 12.7996  26949.1  162.639
 12.8416  26703.2  163.005
 12.8836  27119.2  164.085
 12.9256  27393.5  163.873
 12.9676  27489.8  164.6
 13.0096  27143.5  164.721
 13.0516  27387.7  164.449
 13.0936  27491.3  165.182
 13.1356  27833.3  165.129
 13.1776  27145.9  164.106
 13.2196  27623.6  165.197
 13.2616  27609.4  165.477
 13.3036  27623.9  165.495
 13.3456  27502.3  165.502
 13.3876  27355.7  164.32
 13.4296  27492.1  164.876
 13.4716  27468.1  164.391
 13.5136  27361.9  164.248
 13.5556  27718.5  165.961
 13.5976  27486.9  165.409
 13.6396  27721.8  165.449
 13.6816  27325.5  164.791
 13.7236  27515.2  164.993
 13.7656  26966  163.894
 13.8076  27197.6  163.311
 13.8496  26934.9  163.147
 13.8916  26906.6  164.121
 13.9336  27177.7  164.127
 13.9756  26807.9  162.326
 14.0176  27036.6  163.731
 14.0596  26658.2  162.558
 14.1016  26338.9  161.979
 14.1436  26511.2  161.601
 14.1856  25960  160.218
 14.2276  25777.9  160.169
 14.2696  26079.6  160.921
 14.3116  25724.3  159.738
 14.3536  25418  158.963
 14.3956  25463.6  158.814
 14.4376  25454.4  158.556
 14.4796  25360.8  158.252
 14.5216  24886.5  157.602
 14.5636  24803.4  156.875
 14.6056  24780  156.369
 14.6476  24955.9  156.104
 14.6896  24489  155.208
 14.7316  24086  155.009
 14.7736  24059  154.022
 14.8156  23792.8  153.216
 14.8576  23582.5  152.366
 14.8996  23243.3  152.527
 14.9416  22892.2  151.375
 14.9836  22861.3  151.239
 15.0256  22980.1  150.496
 15.0676  22976.3  150.818
 15.1096  22812.2  149.997
 15.1516  22541.6  149.705
 15.1936  22396.1  148.605
 15.2356  22051.2  147.755
 15.2776  21917.5  146.868
 15.3196  21494.1  146.491
 15.3616  21446.3  146.077
 15.4036  21456.8  145.971
 15.4456  21782.6  146.695
 15.4876  21468.3  145.293
 15.5296  21285.3  144.979
 15.5716  20817.2  142.953
 15.6136  20910.8  143.627
 15.6556  20607.7  141.773
 15.6976  20726.5  142.498
 15.7396  20373.4  141.688
 15.7816  20520.3  141.677
 15.8236  20103.8  140.961
 15.8656  20012.5  140.43
 15.9076  19780.8  139.424
 15.9496  19585  141.671
 15.9916  19681.3  142.51
 16.0336  19310.6  137.877
 16.0756  19322.8  138.244
 16.1176  19123.9  137.6
 16.1596  18671.5  137.2
 16.2016  19088.8  137.396
 16.2436  18776.3  136.674
 16.2856  18746  136.087
 16.3276  18242.3  134.677
 16.3696  18403.1  135.083
 16.4116  18320.7  135.262
 16.4536  18590.8  136.023
 16.4956  18295.1  134.673
 16.5376  18403.9  135.264
 16.5796  18200.2  133.841
 16.6216  18309.9  134.567
 16.6636  18339.2  134.838
 16.7056  18406.1  134.944
 16.7476  18121.5  133.391
 16.7896  18306.9  134.874
 16.8316  18177.8  134.355
 16.8736  17999.4  133.968
 16.9156  18093.3  134.67
 16.9576  18010.9  135.208
 16.9996  18151  136.252
 17.0416  18363.9  135.29
 17.0836  17966.9  133.551
 17.1256  17916.6  133.392
 17.1676  17873.3  133.235
 17.2096  17877.4  133.115
 17.2516  17347.1  130.892
 17.2936  17429.2  131.532
 17.3356  17127.9  130.405
 17.3776  17234.9  131.015
 17.4196  17470.3  131.567
 17.4616  17217.7  130.544
 17.5036  17167.8  130.734
 17.5456  16954.4  130.606
 17.5876  16867.9  129.261
 17.6296  17092.5  129.935
 17.6716  16824  129.503
 17.7136  16508.2  128.44
 17.7556  16644.5  129.27
 17.7976  16800.6  129.608
 17.8396  16613.3  128.351
 17.8816  16687.2  129.202
 17.9236  16613.4  128.724
 17.9656  16655.7  129.453
 18.0076  16456.9  128.234
 18.0496  16561.5  127.73
 18.0916  16490.5  128.023
 18.1336  16544.6  128.336
 18.1756  16627.6  128.147
 18.2176  16293.5  127.106
 18.2596  16420.2  127.318
 18.3016  16527.3  128.004
 18.3436  16598.3  128.279
 18.3856  16122.9  126.576
 18.4276  16426.2  127.401
 18.4696  16223.1  126.72
 18.5116  16360.5  127.568
 18.5536  16430.3  128.21
 18.5956  16084.4  126.387
 18.6376  16090.6  126.841
 18.6796  16046.9  125.954
 18.7216  16127.2  126.781
 18.7636  15933.2  125.997
 18.8056  15928.1  125.927
 18.8476  15782.5  126.01
 18.8896  15793.6  125.355
 18.9316  16090.4  126.51
 18.9736  15850.9  125.24
 19.0156  15918.7  125.938
 19.0576  15761.1  124.121
 19.0996  16110.7  126.245
 19.1416  15585  124.579
 19.1836  15908.7  125.439
 19.2256  15734.2  124.977
 19.2676  15806.5  125.369
 19.3096  15901.3  126
 19.3516  15628.4  124.866
 19.3936  15724.6  125.146
 19.4356  15721.1  125.001
 19.4776  15747.5  125.209
 19.5196  15682.7  124.791
 19.5616  15626.2  124.826
 19.6036  15616.5  124.258
 19.6456  15715.2  124.787
 19.6876  15877.1  125.052
 19.7296  15528.1  124.149
 19.7716  15538  124.356
 19.8136  15674  125.128
 19.8556  15966.9  125.73
 19.8976  15860.4  125.376
 19.9396  15931.9  125.213
 19.9816  16138.9  126.279
 20.0236  16105.3  126.386
 20.0656  16375.9  127.437
 20.1076  15876.6  125.976
 20.1496  15751.3  125.476
 20.1916  15472.3  123.855
 20.2336  15506.1  123.922
 20.2756  15449.5  124.142
 20.3176  15121.1  122.549
 20.3596  15300.2  123.246
 20.4016  15229  122.759
 20.4436  15231.3  123.351
 20.4856  14963.8  122.045
 20.5276  15092.3  123.05
 20.5696  15009.5  122.152
 20.6116  14849.6  121.79
 20.6536  14973.2  121.765
 20.6956  14816.7  121.267
 20.7376  14815.3  121.499
 20.7796  14794.6  121.089
 20.8216  15032.5  121.747
 20.8636  14690.4  120.734
 20.9056  14861.4  121.386
 20.9476  14574.3  120.033
 20.9896  14808.3  120.86
 21.0316  14879.4  121.034
 21.0736  14717.9  120.928
 21.1156  14771.9  121.312
 21.1576  14765.5  121.332
 21.1996  14712.4  121.097
 21.2416  14508.8  120.085
 21.2836  14678.8  120.747
 21.3256  14468.3  119.976
 21.3676  14676.5  120.354
 21.4096  14541.5  120.126
 21.4516  14578.2  120.151
 21.4936  14358.3  119.502
 21.5356  14507.2  120.055
 21.5776  14599.1  120.263
 21.6196  14400.7  119.475
 21.6616  14341.3  119.327
 21.7036  14342.3  119.108
 21.7456  14478.3  119.749
 21.7876  14419.6  119.23
 21.8296  14250  118.384
 21.8716  14252.6  118.639
 21.9136  14449.5  119.671
 21.9556  14204.9  118.308
 21.9976  14285.4  118.651
 22.0396  14146.1  118.339
 22.0816  14287.9  119.512
 22.1236  14150.9  118.361
 22.1656  14252.7  118.907
 22.2076  14332.6  118.682
 22.2496  14306.8  118.612
 22.2916  14190.7  118.005
 22.3336  14423.6  119.744
 22.3756  14183.9  118.449
 22.4176  14250.9  118.566
 22.4596  14008.8  118.182
 22.5016  14033.6  117.758
 22.5436  14315  118.803
 22.5856  14362.3  119.264
 22.6276  14160.8  118.566
 22.6696  14196.4  119.094
 22.7116  14215  118.653
 22.7536  14090.9  118.104
 22.7956  14249.9  118.057
 22.8376  13963.3  117.416
 22.8796  14090.5  117.739
 22.9216  14248.5  118.978
 22.9636  14138.4  117.619
 23.0056  14302.8  118.437
 23.0476  14100.6  118.209
 23.0896  14462.3  119.05
 23.1316  14242.8  118.606
 23.1736  13957.1  120.526
 23.2156  14095.9  118.338
 23.2576  13972  117.96
 23.2996  13995.4  117.826
 23.3416  13990.2  118.353
 23.3836  13837  116.904
 23.4256  13961.9  117.554
 23.4676  13807  116.579
 23.5096  14015.9  118.176
 23.5516  13672  115.97
 23.5936  13996.1  118.273
 23.6356  14023.5  118.049
 23.6776  13815.3  117.392
 23.7196  13678.9  116.364
 23.7616  13925.4  117.324
 23.8036  13741.9  116.596
 23.8456  13768.6  116.26
 23.8876  13539.5  115.656
 23.9296  13363  115.411
 23.9716  13582.8  115.514
 24.0136  13645  116.712
 24.0556  13504.7  115.839
 24.0976  13447.2  115.384
 24.1396  13469.5  118.278
 24.1816  13461  116.572
 24.2236  13442  116.084
 24.2656  13291.2  114.878
 24.3076  13261.9  115.001
 24.3496  13378.2  115.397
 24.3916  13240.9  114.842
 24.4336  13213.9  114.96
 24.4756  13177.7  114.652
 24.5176  13032.1  113.664
 24.5596  13224.9  114.638
 24.6016  12896.7  113.502
 24.6436  12852.3  112.775
 24.6856  12941.9  112.914
 24.7276  13022.3  113.595
 24.7696  12714  112.368
 24.8116  12945  113.572
 24.8536  12732.6  112.632
 24.8956  12597.4  111.758
 24.9376  12622.8  111.812
 24.9796  12422.1  111.288
 25.0216  12407.1  111.337
 25.0636  12612.2  111.886
 25.1056  12470.9  111.999
 25.1476  12551.3  114.087
 25.1896  12607.3  112.748
 25.2316  12608.9  111.988
 25.2736  12561.2  111.409
 25.3156  12366.1  110.626
 25.3576  12373.6  111.096
 25.3996  12369.2  111.055
 25.4416  12341.9  110.915
 25.4836  12081.3  110.293
 25.5256  12316.1  110.69
 25.5676  12463.9  111.064
 25.6096  12203.5  110.497
 25.6516  12280.2  110.32
 25.6936  12140.9  110.024
 25.7356  12201.7  110.426
 25.7776  12135.3  109.72
 25.8196  12095.9  109.79
 25.8616  12177.8  110.081
 25.9036  12153.2  109.414
 25.9456  12184.4  110.181
 25.9876  12036.7  109.578
 26.0296  12373.3  110.584
 26.0716  12042.7  109.534
 26.1136  12108.2  109.777
 26.1556  12119.7  109.174
 26.1976  12121.4  110.158
 26.2396  12083.5  109.102
 26.2816  12125  109.929
 26.3236  12222.8  110.539
 26.3656  12006  109.27
 26.4076  12088.5  109.858
 26.4496  13748.9  116.502
 26.4916  12240  110.021
 26.5336  11893.9  108.782
 26.5756  11907.4  108.722
 26.6176  11925  108.835
 26.6596  11885.6  108.976
 26.7016  11871.1  108.657
 26.7436  11745.4  108.223
 26.7856  11647.1  107.744
 26.8276  11709.2  107.979
 26.8696  11772.2  108.146
 26.9116  11601.4  107.302
 26.9536  11686.5  107.736
 26.9956  11742.8  108.023
 27.0376  11552.8  107.38
 27.0796  11863.5  108.535
 27.1216  11624.1  107.51
 27.1636  11410.7  106.687
 27.2056  11538.1  107.159
 27.2476  11565  107.286
 27.2896  11560.7  107.381
 27.3316  11520.5  106.887
 27.3736  11456.1  106.872
 27.4156  11369.5  106.309
 27.4576  11350.6  106.461
 27.4996  11349.8  106.029
 27.5416  11496.9  107.052
 27.5836  11513.4  106.934
 27.6256  11744.2  108.183
 27.6676  11650.5  107.756
 27.7096  11345.7  106.204
 27.7516  11311.4  106.206
 27.7936  11201  105.864
 27.8356  11377.2  106.296
 27.8776  11263.2  105.802
 27.9196  11273.3  105.694
 27.9616  11317.1  106.097
 28.0036  11140.7  105.245
 28.0456  11257  105.926
 28.0876  11141.1  105.48
 28.1296  11089.9  105.061
 28.1716  11189.2  105.551
 28.2136  11295.6  106.013
 28.2556  11015  104.806
 28.2976  11078.6  105.091
 28.3396  11212.5  105.468
 28.3816  11169.4  105.298
 28.4236  11091  105.086
 28.4656  10890  104.168
 28.5076  11054.9  104.562
 28.5496  11055.6  104.85
 28.5916  11258.9  105.609
 28.6336  10851.6  104.038
 28.6756  11097.2  104.363
 28.7176  10996.8  104.466
 28.7596  10932  104.053
 28.8016  10963.8  104.23
 28.8436  10820.9  103.804
 28.8856  11030.5  104.654
 28.9276  10783.7  103.735
 28.9696  10859.4  103.742
 29.0116  10702  103.172
 29.0536  10931.5  104.48
 29.0956  10813.7  103.63
 29.1376  10807.1  103.557
 29.1796  10713.9  103.154
 29.2216  10783.8  103.329
 29.2636  10716.7  103.088
 29.3056  10827.9  103.398
 29.3476  10761  103.629
 29.3896  10802.1  103.928
 29.4316  10915.1  103.766
 29.4736  10790.1  103.233
 29.5156  10761.5  103.016
 29.5576  10917.7  104.542
 29.5996  10763.8  103.024
 29.6416  10718.4  102.935
 29.6836  10743.8  102.98
 29.7256  10666.3  103.202
 29.7676  10743.8  103.215
 29.8096  10694.8  102.92
 29.8516  10436.3  102.019
 29.8936  10683.4  103.316
 29.9356  10767.4  103.461
 29.9776  10603.9  102.834
 30.0196  10619.1  102.264
 30.0616  10686.4  102.985
 30.1036  10638.1  102.568
 30.1456  10703.1  103.12
 30.1876  10608  102.644
 30.2296  10525.9  102.192
 30.2716  10547.1  101.91
 30.3136  10727  103.69
 30.3556  10660.8  103.387
 30.3976  10453  103.996
 30.4396  10548.4  101.646
 30.4816  10570.6  101.33
 30.5236  10412.2  100.588
 30.5656  10409  101.249
 30.6076  10493.8  101.06
 30.6496  10541.7  101.7
 30.6916  10329.5  100.766
 30.7336  10325.1  100.905
 30.7756  10256.4  100.655
 30.8176  10289.8  100.742
 30.8596  10191.5  100.011
 30.9016  10462.7  101.694
 30.9436  10456.3  101.41
 30.9856  10307.8  100.804
 31.0276  10260  100.157
 31.0696  10081.2  99.8766
 31.1116  10193.5  100.409
 31.1536  10233.4  100.473
 31.1956  10052.6  99.6802
 31.2376  10098.2  99.916
 31.2796  10154.2  99.7122
 31.3216  10264.1  100.186
 31.3636  10373.6  101.452
 31.4056  10305.7  102.494
 31.4476  10296.7  100.238
 31.4896  10263  100.609
 31.5316  10370.7  100.497
 31.5736  10372.1  100.297
 31.6156  10273  99.8526
 31.6576  10362.1  100.394
 31.6996  10453.6  100.484
 31.7416  10207  100.399
 31.7836  10200.4  99.3424
 31.8256  10144.3  99.3568
 31.8676  10265.8  99.9428
 31.9096  10091.2  99.4638
 31.9516  9964.04  98.9969
 31.9936  10101.5  99.4936
 32.0356  10064.3  99.3873
 32.0776  10205.8  99.9585
 32.1196  10262.4  100.322
 32.1616  10205.5  99.4781
 32.2036  9992.5  98.9689
 32.2456  10010.4  99.4609
 32.2876  10167.4  99.6989
 32.3296  9885.56  98.2624
 32.3716  9892.63  98.408
 32.4136  9868.15  98.5218
 32.4556  10133  99.1777
 32.4976  9919.94  98.0243
 32.5396  10022.7  98.6155
 32.5816  9908.91  98.1802
 32.6236  9941.81  98.4169
 32.6656  9936.87  98.9528
 32.7076  9805.11  97.93
 32.7496  9881.87  97.9685
 32.7916  9843.88  97.7327
 32.8336  9983.53  98.5215
 32.8756  10005.3  98.3471
 32.9176  9767.12  97.6684
 32.9596  9668.12  97.2514
 33.0016  9894.05  98.1603
 33.0436  9892.43  98.3279
 33.0856  9785.4  97.8779
 33.1276  9801.01  97.6711
 33.1696  9837.43  97.7062
 33.2116  9957.21  98.5337
 33.2536  9817.78  97.8345
 33.2956  9776.66  97.7169
 33.3376  9683.99  96.9845
 33.3796  9714.54  97.3499
 33.4216  9784.77  97.2722
 33.4636  9735.74  97.1822
 33.5056  9699.91  97.264
 33.5476  9569.9  96.6008
 33.5896  9828.44  97.662
 33.6316  9622.02  96.9581
 33.6736  9508.74  96.6235
 33.7156  9569.82  96.9973
 33.7576  9656.3  97.0512
 33.7996  9659.89  96.8192
 33.8416  9371.62  95.5564
 33.8836  9659.6  96.7761
 33.9256  9651.71  96.8046
 33.9676  9654.79  96.7119
 34.0096  9534.37  96.4289
 34.0516  9585.17  96.3069
 34.0936  9486.04  96.0922
 34.1356  9562.37  96.2016
 34.1776  9525.32  96.0216
 34.2196  9401.87  95.5834
 34.2616  9455.78  96.0018
 34.3036  9417.63  96.072
 34.3456  9415.37  95.8028
 34.3876  9410.63  95.7447
 34.4296  9404.3  95.3741
 34.4716  9470.57  95.8812
 34.5136  9410.13  95.7827
 34.5556  9281.87  95.3955
 34.5976  9340.13  95.4902
 34.6396  9407.24  95.5218
 34.6816  9312.73  95.1632
 34.7236  9277.35  94.7536
 34.7656  9346.4  95.3111
 34.8076  9284.09  95.3213
 34.8496  9302.45  95.271
 34.8916  9217.12  94.7114
 34.9336  9304.34  95.1225
 34.9756  9171.84  94.3534
 35.0176  9243.85  95.2802
 35.0596  9232.23  95.045
 35.1016  9275.84  95.0159
 35.1436  9375.78  95.194
 35.1856  9126.32  94.033
 35.2276  9198.73  94.6089
 35.2696  9194.38  94.7832
 35.3116  9183.6  94.8221
 35.3536  9168.28  94.4415
 35.3956  9187.27  94.2395
 35.4376  9148.91  94.6328
 35.4796  9259.13  95.2452
 35.5216  9110.9  94.4409
 35.5636  8928.1  94.253
 35.6056  9142.24  94.3501
 35.6476  9131.16  94.1977
 35.6896  9305.6  95.1896
 35.7316  8988.34  93.5178
 35.7736  9045.74  94.02
 35.8156  9013.88  93.8598
 35.8576  9077.11  94.4499
 35.8996  9085.37  94.4483
 35.9416  9017.48  93.5982
 35.9836  8948.36  93.5903
 36.0256  9063.51  94.2084
 36.0676  9141.93  94.3633
 36.1096  8967.75  93.6025
 36.1516  8997.61  93.6433
 36.1936  9021.73  93.614
 36.2356  8998.29  94.1535
 36.2776  8866.61  92.9212
 36.3196  9044.77  93.5036
 36.3616  8986.69  93.3477
 36.4036  8880.13  92.8563
 36.4456  9050.69  93.962
 36.4876  8914.24  93.1737
 36.5296  8927.95  93.2974
 36.5716  8921.21  94.0611
 36.6136  8860.98  92.4895
 36.6556  8882.88  92.8031
 36.6976  8827.81  93.024
 36.7396  8860.05  92.9156
 36.7816  8809.88  93.0473
 36.8236  8871.83  93.2875
 36.8656  8748.33  92.6905
 36.9076  8677.37  92.2129
 36.9496  8659.23  92.1063
 36.9916  8727.26  92.0826
 37.0336  8735.58  92.4482
 37.0756  8736.5  92.2392
 37.1176  8651.03  92.0554
 37.1596  8631.05  91.9702
 37.2016  8676.77  92.4438
 37.2436  8658.9  91.6448
 37.2856  8702.26  92.1301
 37.3276  8725.9  91.5963
 37.3696  8682.14  92.2691
 37.4116  8638.98  91.9512
 37.4536  8601.78  91.6078
 37.4956  8539.66  91.3343
 37.5376  8692.88  93.7848
 37.5796  8616.8  93.3112
 37.6216  8552.33  91.1791
 37.6636  8677.4  91.7323
 37.7056  8519.53  91.0835
 37.7476  8596.28  91.0264
 37.7896  8483.42  90.941
 37.8316  8395.31  90.632
 37.8736  8584.27  91.1543
 37.9156  8580.1  91.1288
 37.9576  8633.76  91.3226
 37.9996  8353.01  89.533
 38.0416  8551.89  91.4203
 38.0836  8704.8  92.131
 38.1256  8474.02  90.8798
 38.1676  8268.91  89.899
 38.2096  8472.22  90.5912
 38.2516  8491.8  90.9198
 38.2936  8593.23  91.2608
 38.3356  8424.7  90.283
 38.3776  8405.95  90.4492
 38.4196  8588.72  91.2746
 38.4616  8436.46  90.7119
 38.5036  8653.92  91.7132
 38.5456  8435.64  91.4031
 38.5876  8549.45  92.0363
 38.6296  8588.14  91.196
 38.6716  8568.22  90.8764
 38.7136  8372.13  89.7695
 38.7556  8442.97  90.6733
 38.7976  8419.09  90.4802
 38.8396  8338.87  90.5125
 38.8816  8356.17  90.3786
 38.9236  8309.93  89.937
 38.9656  8369.05  90.1675
 39.0076  8567.23  90.6117
 39.0496  8436.37  90.4801
 39.0916  8516.8  90.5412
 39.1336  8494.21  90.8464
 39.1756  8516.36  91.0352
 39.2176  8415.89  91.0373
 39.2596  8479.7  91.308
 39.3016  8360.5  90.234
 39.3436  8256.36  90.0953
 39.3856  8291.67  89.7221
 39.4276  8538.94  91.5718
 39.4696  8495.47  90.9457
 39.5116  8454.81  91.2596
 39.5536  8386.88  91.3199
 39.5956  8411.87  90.5331
 39.6376  8324.76  90.0599
 39.6796  8276.07  89.5387
 39.7216  8237.36  89.432
 39.7636  8280.68  90.2553
 39.8056  8292.17  90.0897
 39.8476  8130.7  89.4638
 39.8896  8292.27  89.972
 39.9316  8168.58  89.5552
 39.9736  8330.49  89.9945
 40.0156  8380.47  90.0873
 40.0576  8256.69  89.7783
 40.0996  8424.41  89.8527
 40.1416  8367.34  90.3601
 40.1836  8277.17  89.7587
 40.2256  8335  90.1104
 40.2676  8267.96  89.8601
 40.3096  8400.05  90.502
 40.3516  8324.27  90.1984
 40.3936  8442.98  90.3872
 40.4356  8312.77  89.8901
 40.4776  8432.82  90.9534
 40.5196  8311.76  90.4339
 40.5616  8304.58  90.0315
 40.6036  8228.05  89.8748
 40.6456  8429.46  90.5613
 40.6876  8349.41  90.1229
 40.7296  8213.16  89.5183
 40.7716  8385.94  90.5818
 40.8136  8291.98  90.0205
 40.8556  8294.29  90.1711
 40.8976  8336.64  90.3157
 40.9396  8255.33  90.2358
 40.9816  8267.41  89.5723
 41.0236  8293.75  89.49
 41.0656  8319.95  90.1821
 41.1076  8341.78  90.0629
 41.1496  8375.82  90.1576
 41.1916  8279.59  89.9661
 41.2336  8306.17  90.1027
 41.2756  8239.56  89.3355
 41.3176  8279.4  90.1814
 41.3596  8274.75  89.8752
 41.4016  8249.63  90.0086
 41.4436  8303.53  90.0824
 41.4856  8237.09  89.8842
 41.5276  8282.22  90.1512
 41.5696  8335.11  90.061
 41.6116  8235.74  89.9266
 41.6536  8268.96  89.964
 41.6956  8245.49  89.8894
 41.7376  8191.85  89.6189
 41.7796  8160.26  89.336
 41.8216  8248.64  90.0574
 41.8636  8187.42  89.6604
 41.9056  8139.61  89.1866
 41.9476  8225.25  89.894
 41.9896  8242.34  89.6522
 42.0316  8345.54  90.2918
 42.0736  8016.36  88.6025
 42.1156  8097.65  88.8852
 42.1576  8140.52  89.2158
 42.1996  8255.61  89.9961
 42.2416  8198.51  89.2541
 42.2836  8081.28  88.7248
 42.3256  8047.49  88.6624
 42.3676  8265.14  89.6534
 42.4096  8214.82  89.3443
 42.4516  8192.48  89.3093
 42.4936  8180.5  89.314
 42.5356  8140.84  89.2291
 42.5776  8198.77  89.4874
 42.6196  8252  89.8261
 42.6616  7978.23  88.5002
 42.7036  8155.13  88.8482
 42.7456  8162.36  89.2531
 42.7876  8077.54  88.8847
 42.8296  8089.12  88.7805
 42.8716  7970.25  88.2859
 42.9136  8031.26  88.4114
 42.9556  8185.9  89.3994
 42.9976  8172.57  89.2868
 43.0396  8078.11  88.4947
 43.0816  8048.73  88.7188
 43.1236  8055.76  88.8162
 43.1656  8118.3  88.9881
 43.2076  8014.95  88.5274
 43.2496  8027.21  88.3911
 43.2916  8026.7  88.772
 43.3336  8115.11  89.0952
 43.3756  7959.36  87.9897
 43.4176  8066.65  88.6617
 43.4596  8047.55  88.4094
 43.5016  8074.93  88.9764
 43.5436  8022.77  88.5849
 43.5856  7980.99  88.3779
 43.6276  7887.86  87.757
 43.6696  8047.67  88.904
 43.7116  8079.87  88.5696
 43.7536  8027.49  88.7781
 43.7956  7873.28  89.1274
 43.8376  8045.18  88.6062
 43.8796  7941.38  88.1108
 43.9216  8053.15  88.6364
 43.9636  8058.28  88.7833
 44.0056  8038.82  88.9116
 44.0476  7957.74  88.0863
 44.0896  7903.95  88.1392
 44.1316  8036.49  88.3812
 44.1736  8048.22  88.5798
 44.2156  8063.75  88.5104
 44.2576  7969.85  88.3291
 44.2996  7931.06  88.0815
 44.3416  8061.64  88.5578
 44.3836  7854.34  87.7465
 44.4256  7937.71  87.8471
 44.4676  7930.77  87.9689
 44.5096  8029.5  88.6632
 44.5516  8003.34  88.484
 44.5936  7891.13  87.8127
 44.6356  7933.14  87.7769
 44.6776  8038.31  88.6868
 44.7196  7925.46  88.3756
 44.7616  7890.63  89.5302
 44.8036  7860.63  87.7465
 44.8456  7853.11  87.9185
 44.8876  7809.21  87.5223
 44.9296  7849.14  87.1993
 44.9716  7701.8  86.8204
 45.0136  7785.19  87.2079
 45.0556  7774.48  87.1181
 45.0976  7829.02  87.6055
 45.1396  7617.46  86.1771
 45.1816  7767.54  86.9388
 45.2236  7747.21  86.7143
 45.2656  7791.01  87.4843
 45.3076  7689.45  86.7025
 45.3496  7779.1  87.4988
 45.3916  7782.31  87.7878
 45.4336  7761.2  87.5067
 45.4756  7604.3  86.4917
 45.5176  7613.95  86.1499
 45.5596  7736.32  86.966
 45.6016  7740.6  87.397
 45.6436  7771.46  86.7489
 45.6856  7674.43  86.8792
 45.7276  7721.13  88.4926
 45.7696  7708.12  88.0615
 45.8116  7822.72  88.1503
 45.8536  7620.46  86.8955
 45.8956  7606.35  86.1519
 45.9376  7723.78  86.2681
 45.9796  7727.58  86.9889
 46.0216  7708.64  87.2414
 46.0636  7742.44  86.5623
 46.1056  7619.43  85.842
 46.1476  7623.13  86.4716
 46.1896  7666.88  86.8753
 46.2316  7657.49  86.6905
 46.2736  7524.53  86.2915
 46.3156  7628.61  86.4696
 46.3576  7544.46  86.2037
 46.3996  7568.27  86.502
 46.4416  7654.55  86.556
 46.4836  7463.19  85.8292
 46.5256  7769.58  87.5146
 46.5676  7511.16  86.1524
 46.6096  7639.95  86.8407
 46.6516  7592.08  85.5889
 46.6936  7666.33  86.4748
 46.7356  7631.18  86.4263
 46.7776  7690.9  87.6053
 46.8196  7662.85  87.0428
 46.8616  7561.4  86.404
 46.9036  7579.47  86.162
 46.9456  7659.32  86.2464
 46.9876  7649.45  86.2651
 47.0296  7685.98  87.1742
 47.0716  7620.17  86.6104
 47.1136  7586.28  86.1184
 47.1556  7553.9  85.7953
 47.1976  7625.52  86.2853
 47.2396  7606.55  86.571
 47.2816  7648  86.5049
 47.3236  7619.05  86.721
 47.3656  7673.94  86.9612
 47.4076  7646.69  86.6007
 47.4496  7513.32  85.945
 47.4916  7540.54  86.2929
 47.5336  7683.67  86.9206
 47.5756  7666.24  86.9479
 47.6176  7573.76  86.3136
 47.6596  7518.98  85.6977
 47.7016  7686.24  86.471
 47.7436  7725.75  87.0476
 47.7856  7604.66  86.3902
 47.8276  7611.63  86.4701
 47.8696  7436.75  85.5561
 47.9116  7686.51  86.6778
 47.9536  7599.23  86.1247
 47.9956  7509.03  86.3206
 48.0376  7516.57  86.1489
 48.0796  7559.8  86.5359
 48.1216  7694.69  87.1173
 48.1636  7992.16  88.3294
 48.2056  7669.55  86.8059
 48.2476  7647.23  86.9984
 48.2896  7578.09  86.5148
 48.3316  7587.1  86.5022
 48.3736  7519.63  86.1337
 48.4156  7542.02  86.1083
 48.4576  7469.86  85.9972
 48.4996  7652.65  86.4837
 48.5416  7424.92  85.498
 48.5836  7564.11  85.9913
 48.6256  7474.84  85.7075
 48.6676  7536  86.5699
 48.7096  7625.08  86.3217
 48.7516  7651.94  86.6164
 48.7936  7589.42  86.3289
 48.8356  7563.13  86.2218
 48.8776  7631.8  87.2294
 48.9196  7544.79  86.0839
 48.9616  7469.98  86.0471
 49.0036  7522.4  86.7005
 49.0456  7472.58  86.3976
 49.0876  7557.74  86.4146
 49.1296  7478.33  86.1199
 49.1716  7393.98  85.4943
 49.2136  7521.57  86.1833
 49.2556  7489.11  86.0034
 49.2976  7376.35  85.4236
 49.3396  7468.12  86.0117
 49.3816  7495.41  85.5928
 49.4236  7436.7  85.6896
 49.4656  7456.48  85.8143
 49.5076  7503.57  85.8206
 49.5496  7515.21  85.9559
 49.5916  7506.36  85.8222
 49.6336  7460.87  85.7776
 49.6756  7396.06  85.6312
 49.7176  7466.44  85.9775
 49.7596  7586.94  86.4197
 49.8016  7609.62  86.4911
 49.8436  7537.06  86.3715
 49.8856  7443.63  85.8289
 49.9276  7485.36  86.1662
 49.9696  7479.04  86.1268
 50.0116  7517.75  86.5061
 50.0536  7422.07  85.8821
 50.0956  7362.5  85.5911
 50.1376  7399.94  85.5219
 50.1796  7468.31  86.182
 50.2216  7440.05  86.0269
 50.2636  7367.01  85.1923
 50.3056  7423.69  85.7021
 50.3476  7487.4  86.1028
 50.3896  7361.2  85.3344
 50.4316  7430.86  85.5731
 50.4736  7409.73  85.6678
 50.5156  7415.92  85.708
 50.5576  7540.36  86.176
 50.5996  7387.34  85.5761
 50.6416  7373.26  85.427
 50.6836  7339.02  85.2931
 50.7256  7488.18  86.0892
 50.7676  7314.06  85.3996
 50.8096  7475.48  85.855
 50.8516  7353.02  85.5731
 50.8936  7334.76  85.2454
 50.9356  7411.46  85.7979
 50.9776  7486.8  86.3632
 51.0196  7301.96  85.4421
 51.0616  7575.59  86.3226
 51.1036  7653.75  87.144
 51.1456  7548.49  86.4516
 51.1876  7605.58  86.0817
 51.2296  7468.29  85.9675
 51.2716  7424.4  85.4049
 51.3136  7448.04  86.0185
 51.3556  7465.85  85.7283
 51.3976  7412.65  85.581
 51.4396  7190.59  84.6029
 51.4816  7454.22  85.9921
 51.5236  7477.44  86.2152
 51.5656  7296.4  84.7508
 51.6076  7460.66  85.7868
 51.6496  7369.7  85.459
 51.6916  7305.35  85.4541
 51.7336  7416.2  86.1975
 51.7756  7475.57  86.2221
 51.8176  7463.77  86.2664
 51.8596  7481.62  86.3889
 51.9016  7506.63  86.1195
 51.9436  7282.95  86.3085
 51.9856  7176.71  86.1766
 52.0276  7280.69  85.2307
 52.0696  7178.23  84.6925
 52.1116  7233.66  85.1365
 52.1536  7117.38  84.3306
 52.1956  7434.99  85.6307
 52.2376  7252.24  84.7411
 52.2796  7320.95  84.9423
 52.3216  7029.28  83.957
 52.3636  7166.11  84.3346
 52.4056  7223.81  84.5102
 52.4476  7126.69  84.3342
 52.4896  7135.99  84.4466
 52.5316  7088.97  84.2062
 52.5736  7226.64  84.7373
 52.6156  7129.9  84.5558
 52.6576  7192.19  84.3439
 52.6996  7029.04  84.3842
 52.7416  7224.67  85.4023
 52.7836  7223.62  85.2646
 52.8256  7164.05  84.1022
 52.8676  6999.19  83.7307
 52.9096  7141.28  84.6776
 52.9516  7244.97  85.6807
 52.9936  7137.67  85.4474
 53.0356  7140.89  84.4233
 53.0776  7137.34  84.6755
 53.1196  7113.1  84.6695
 53.1616  7083.44  84.5324
 53.2036  7108.14  84.6374
 53.2456  7059.83  84.4458
 53.2876  7189.42  84.9202
 53.3296  7096.07  84.7111
 53.3716  7183.93  84.9655
 53.4136  7113.36  84.7032
 53.4556  7048.4  84.3381
 53.4976  6999.67  83.8984
 53.5396  7153.96  85.2276
 53.5816  7027.36  84.0926
 53.6236  6920.72  83.8036
 53.6656  7042.86  84.1565
 53.7076  7050.03  84.1571
 53.7496  7049.66  84.2782
 53.7916  7048.32  84.4009
 53.8336  7051.26  84.3158
 53.8756  6935.89  84.1959
 53.9176  7033.68  84.0991
 53.9596  7142.96  85.557
 54.0016  7152.27  84.9015
 54.0436  6981.24  84.1121
 54.0856  7145.03  84.4831
 54.1276  7053.58  84.1446
 54.1696  7170.06  85.0296
 54.2116  7064.31  84.1428
 54.2536  7144  84.4216
 54.2956  7144.32  84.4712
 54.3376  7052.67  84.4382
 54.3796  6990.26  83.959
 54.4216  7203.48  85.2831
 54.4636  7058.75  84.379
 54.5056  7067.89  84.2404
 54.5476  6956.52  83.9194
 54.5896  7012.17  84.081
 54.6316  7058.67  84.2101
 54.6736  7149.67  84.827
 54.7156  7085.33  84.4526
 54.7576  7037.09  84.178
 54.7996  6935.49  83.708
 54.8416  7036.99  84.3697
 54.8836  6935.33  83.8774
 54.9256  7101.63  84.6067
 54.9676  7067.33  84.2523
 55.0096  6982.04  83.8246
 55.0516  7009.98  84.234
 55.0936  6958.6  83.5224
 55.1356  6960.08  83.5892
 55.1776  6970.01  83.9314
 55.2196  7079.44  84.3583
 55.2616  6870.4  83.3251
 55.3036  6939.09  83.9046
 55.3456  6976.65  84.2921
 55.3876  7059.43  84.524
 55.4296  7061.12  84.5039
 55.4716  6970.67  83.9941
 55.5136  7053.82  84.2402
 55.5556  6968.22  83.8045
 55.5976  7040.7  84.2881
 55.6396  6970.25  83.8205
 55.6816  6880.05  83.1413
 55.7236  7021.21  84.04
 55.7656  7110.28  84.3133
 55.8076  7074.47  84.082
 55.8496  6994.68  83.9429
 55.8916  6993.79  84.1579
 55.9336  6896.54  83.3794
 55.9756  7103.08  84.4901
 56.0176  6984.04  83.9447
 56.0596  6916.46  83.5224
 56.1016  6915.42  83.5284
 56.1436  6933.07  83.9115
 56.1856  7047.39  84.3244
 56.2276  6962.94  83.8796
 56.2696  6928.62  83.6416
 56.3116  6858.74  83.6461
 56.3536  6972.85  83.9745
 56.3956  6989.27  84.0662
 56.4376  6920.35  83.681
 56.4796  7039.73  84.1875
 56.5216  6913.62  83.8284
 56.5636  7092.71  84.4689
 56.6056  6954.33  83.8881
 56.6476  6976.22  83.6263
 56.6896  6938.8  83.8732
 56.7316  6959.58  83.9134
 56.7736  6935.31  83.7542
 56.8156  6958.32  83.8811
 56.8576  6867.7  83.2821
 56.8996  6959.14  83.7707
 56.9416  6927.01  83.896
 56.9836  6750.52  82.308
 57.0256  6854.17  83.2745
 57.0676  6941.52  83.9435
 57.1096  7025.18  84.2152
 57.1516  6980.63  84.0156
 57.1936  6961.91  83.6324
 57.2356  6979.58  84.0837
 57.2776  6995.19  84.1217
 57.3196  6965.95  84.3497
 57.3616  7034.31  84.2179
 57.4036  6970.47  83.8995
 57.4456  6920.88  83.5629
 57.4876  6907.88  83.3418
 57.5296  6859.97  83.4036
 57.5716  6880.22  83.513
 57.6136  6961.69  83.8091
 57.6556  6998.5  84.1899
 57.6976  6968.64  83.8149
 57.7396  6857.46  83.5389
 57.7816  6819.76  83.676
 57.8236  6846.06  83.6355
 57.8656  6876.58  83.4604
 57.9076  6866.01  83.4215
 57.9496  6855.07  83.7212
 57.9916  6909.25  83.5418
 58.0336  6862.65  83.5426
 58.0756  6906.27  83.4352
 58.1176  6949.02  83.6809
 58.1596  6918.17  84.0965
 58.2016  7053.23  84.0824
 58.2436  7044.07  84.4569
 58.2856  6914.76  83.6078
 58.3276  6909.35  83.9687
 58.3696  6970.61  84.0752
 58.4116  7036.92  84.3309
 58.4536  7070.44  84.402
 58.4956  6981.37  84.0679
 58.5376  7131.5  84.4995
 58.5796  6952.61  83.8896
 58.6216  6983.17  83.8782
 58.6636  7135.82  85.0198
 58.7056  6935.09  83.6582
 58.7476  6951.03  84.2352
 58.7896  6835.47  83.1499
 58.8316  6934.12  83.7474
 58.8736  6916.81  83.6523
 58.9156  6933.71  83.7985
 58.9576  6935.61  84.1541
 58.9996  6983.65  83.6435
 59.0416  7097.2  84.7133
 59.0836  6907.72  83.4765
 59.1256  6879.55  84.0623
 59.1676  6891.1  84.4649
 59.2096  6902.47  83.792
 59.2516  7106.97  84.5698
 59.2936  7042.61  84.5402
 59.3356  6829.5  83.1213
 59.3776  7176.86  85.3932
 59.4196  6804.16  83.079
 59.4616  6856.4  83.2475
 59.5036  6841.72  83.1961
 59.5456  7067.57  84.2263
 59.5876  7117.24  84.7292
 59.6296  6847.44  83.1814
 59.6716  7081.27  84.6525
 59.7136  7093.27  84.7115
 59.7556  7040.02  84.5402
 59.7976  7005.34  84.0541
 59.8396  7025.35  84.06
 59.8816  6886.69  83.8082
 59.9236  6982.49  84.0065
 59.9656  6896.28  83.7648
 60.0076  6919.43  83.2174
 60.0496  6953.75  83.963
 60.0916  6996.38  83.595
 60.1336  6799.14  83.583
 60.1756  6887.24  85.3873
 60.1996  0.0000000E+00  0.0000000E+00