File: docs/examples/opeando_xrd/IS17_D/Data/IS17_D_fresh/17_D_fresh_f00001.xye
# /beamlines/bl04/projects/cycle2025-II/20250340211-lsimonelli/DATA/IS17_D_fresh/17_D_fresh_f00001.xye : mythproc.py merge -s 0.006 -l 0.5 -f /beamlines/bl04/inhouse/ff/FlatField/ff_20Nov2024rod8mm60s_17keV.raw -b True -c true -o xye /beamlines/bl04/projects/cycle2025-II/20250340211-lsimonelli/DATA/IS17_D_fresh/17_D_fresh_00001.dat
# IsMon = [6743746, 6744278, 6741581]  IsPos = [-1.5000, -2.4886, -3.4988]
# Wave = 0.4962  CalPath /beamlines/bl04/projects/cycle2025-II/20250340211-lsimonelli/DATA/Align/Si_Pos1_25keV_f00001.cal
# Date = 2025-09-23_17:54:02 Dt = 4.8000  Bin = 0.0060  <imon> = 6743202 +/- 1166 (Min/Max) 6741581 / 6744278
# icurr 249.2779  mocoIn 1.7009E-05  mocoOut 0.7981  i15 7.03775e+06  imon 6.7432e+06  i7 6.3333  iEMpd_timer 4.8000  iEMpd_1 3.6455E-08  iEMpd_2 7.8435E-08  iEMpd_3 1.8115E-08  iEMpd_4 4.8079E-08  iEMhp_timer 4.8000  iEMhp_1 4.8729E-06  iEMhp_2 -2.4199E-08  iEMhp_3 -2.3698E-08  iEMhp_4 -2.0937E-08
#      9776
 1.5856  38657.6  201.885
 1.6276  46477.1  217.565
 1.6696  53290.5  232.145
 1.7116  61945.2  250.776
 1.7536  71579.8  268.426
 1.7956  76285.9  277.802
 1.8376  71952.9  270.224
 1.8796  60137.5  245.233
 1.9216  48643  221.427
 1.9636  41491.2  204.179
 2.0056  36995.9  191.57
 2.0476  34300.4  186.482
 2.0896  33072.8  182.04
 2.1316  31967.5  178.112
 2.1736  30920.8  176.562
 2.2156  31229.6  176.017
 2.2576  30003.9  173.146
 2.2996  29078  171.08
 2.3416  29191.3  170.045
 2.3836  28848  169.146
 2.4256  27783.5  166.537
 2.4676  27109.1  164.27
 2.5096  27482.9  165.453
 2.5516  26808.5  167.213
 2.5936  26895.4  164.083
 2.6356  26421  163.314
 2.6776  26291.5  161.806
 2.7196  26025.8  161.507
 2.7616  25721.6  160.334
 2.8036  25348.1  159.339
 2.8456  25562.4  160.623
 2.8876  25219.4  159.396
 2.9296  24656.8  157.758
 2.9716  24768  157.597
 3.0136  24221.3  155.918
 3.0556  24304.7  156.588
 3.0976  24264.3  155.394
 3.1396  23972.8  155.177
 3.1816  23757.5  154.403
 3.2236  23557.8  153.758
 3.2656  23795.2  153.555
 3.3076  23516.3  154.109
 3.3496  23883.6  154.495
 3.3916  24108.4  154.796
 3.4336  24779  157.516
 3.4756  24778.8  157.435
 3.5176  25853.9  160.619
 3.5596  25490.3  162.457
 3.6016  25946.7  160.966
 3.6436  25009.7  159.131
 3.6856  24715.7  156.485
 3.7276  23830.5  154.754
 3.7696  23608.4  154.03
 3.8116  22971.8  152.019
 3.8536  23140  152.515
 3.8956  23220.4  152.597
 3.9376  23132.9  152.558
 3.9796  23082.3  151.907
 4.0216  23203  151.321
 4.0636  23214.2  152.854
 4.1056  23254.2  152.62
 4.1476  23358.3  153.281
 4.1896  23415.6  153.328
 4.2316  23615.3  153.803
 4.2736  24225.1  155.557
 4.3156  24335.6  156.158
 4.3576  25234.9  158.941
 4.3996  25448.4  159.867
 4.4416  25968.5  161.073
 4.4836  26498.9  162.857
 4.5256  26894.9  164.689
 4.5676  26795.9  164.647
 4.6096  27413.5  165.544
 4.6516  27763.1  165.937
 4.6936  27888.1  167.13
 4.7356  28101.3  167.592
 4.7776  28112  167.455
 4.8196  27872.9  167.388
 4.8616  27401.4  165.58
 4.9036  27072.7  164.202
 4.9456  27172.2  165.162
 4.9876  26566.7  163.21
 5.0296  26593.4  163.096
 5.0716  26767.9  164.279
 5.1136  26870  164.446
 5.1556  27242.7  165.04
 5.1976  27353.5  165.364
 5.2396  27429.9  165.296
 5.2816  27577.5  166.198
 5.3236  27774.4  166.499
 5.3656  27306  166.016
 5.4076  27081.9  165.487
 5.4496  27156.1  165.192
 5.4916  27189.8  165.047
 5.5336  27262.7  165.373
 5.5756  27109.9  164.843
 5.6176  27261.8  164.738
 5.6596  27717.8  166.949
 5.7016  27623.7  166.071
 5.7436  28083.9  167.484
 5.7856  27735.3  166.743
 5.8276  28292.2  168.127
 5.8696  28333.8  168.305
 5.9116  28294  168.919
 5.9536  28401.9  168.985
 5.9956  28755.3  169.397
 6.0376  28891.2  170.436
 6.0796  29017.1  170.64
 6.1216  29265.9  171.578
 6.1636  29522  171.375
 6.2056  29390.2  171.67
 6.2476  29514.9  171.704
 6.2896  29792.8  172.385
 6.3316  29806.8  172.595
 6.3736  29965.6  172.951
 6.4156  30135.2  173.393
 6.4576  30350.5  173.551
 6.4996  30453.6  174.335
 6.5416  30587  174.855
 6.5836  30588.1  175.052
 6.6256  30670.7  174.878
 6.6676  31344.5  176.353
 6.7096  30980.8  176.188
 6.7516  31690.1  177.847
 6.7936  31811.9  177.74
 6.8356  31901.8  177.935
 6.8776  32488.5  180.389
 6.9196  32409.3  180.572
 6.9616  32732.6  180.878
 7.0036  33409.4  182.404
 7.0456  33289.2  181.356
 7.0876  33141.6  182.593
 7.1296  33165.7  181.863
 7.1716  33200.6  181.875
 7.2136  33079.1  180.931
 7.2556  33175.3  181.36
 7.2976  33457.1  182.642
 7.3396  33411  182.991
 7.3816  33072.7  182.024
 7.4236  33358.7  182.083
 7.4656  33777.1  182.698
 7.5076  34020.4  183.489
 7.5496  33857.9  183.612
 7.5916  33911.7  183.775
 7.6336  34505.1  185.273
 7.6756  34335.3  184.67
 7.7176  34896.3  186.467
 7.7596  34974.3  187.986
 7.8016  35213.9  190.856
 7.8436  35763.3  188.928
 7.8856  36358  190.087
 7.9276  36805.8  191.672
 7.9696  36996.8  192.481
 8.0116  37963.8  193.483
 8.0536  38151.3  194.202
 8.0956  38067.8  195.21
 8.1376  38702.1  196.291
 8.1796  38977.4  197.541
 8.2216  39841.2  198.413
 8.2636  39742.1  198.427
 8.3056  39641.9  198.978
 8.3476  40628.1  200.728
 8.3896  40353.3  200.131
 8.4316  40571.6  200.848
 8.4736  40460.1  200.023
 8.5156  40362.2  200.067
 8.5576  39994.3  200.151
 8.5996  40178.9  199.452
 8.6416  39943.7  200.168
 8.6836  39577.4  199.089
 8.7256  40559.7  200.754
 8.7676  39741.9  201.917
 8.8096  39438.7  198.366
 8.8516  38987.3  196.882
 8.8936  38675.5  195.939
 8.9356  38571.6  196.015
 8.9776  39242.6  197.822
 9.0196  38451.9  195.479
 9.0616  39047.2  196.442
 9.1036  38263.4  195.692
 9.1456  38584.4  195.846
 9.1876  38566.2  195.739
 9.2296  38701  195.478
 9.2716  37983.4  193.714
 9.3136  38172.8  194.181
 9.3556  38382.6  194.693
 9.3976  36789.1  191.147
 9.4396  37491.4  192.854
 9.4816  36694.4  190.648
 9.5236  36848.8  190.963
 9.5656  36415.7  190.168
 9.6076  36145.7  190.023
 9.6496  36141.3  189.919
 9.6916  36082.8  189.745
 9.7336  35927.1  189.097
 9.7756  36420.8  191.637
 9.8176  35783.5  189.471
 9.8596  35568.5  187.293
 9.9016  35186.7  186.278
 9.9436  35059.9  185.679
 9.9856  34437.4  184.43
 10.0276  33943.4  184.236
 10.0696  34641.2  185.12
 10.1116  33602.3  182.597
 10.1536  32818.6  180.118
 10.1956  33082.5  180.93
 10.2376  31997.5  177.437
 10.2796  32548  179.089
 10.3216  32722.2  179.7
 10.3636  32151  178.3
 10.4056  31540.9  177.004
 10.4476  31432  176.323
 10.4896  31624.4  176.294
 10.5316  30655  173.957
 10.5736  30882.8  175.36
 10.6156  30367.8  173.654
 10.6576  30616.9  172.888
 10.6996  30163.8  172.424
 10.7416  29928.8  171.854
 10.7836  30210  173.388
 10.8256  29328.3  171.291
 10.8676  29393  171.342
 10.9096  28921.2  169.666
 10.9516  28908.7  168.513
 10.9936  28746.7  168.263
 11.0356  28897.9  169.356
 11.0776  28531.8  167.572
 11.1196  27999.9  166.756
 11.1616  27966.9  166.343
 11.2036  28080.2  166.534
 11.2456  27829  167
 11.2876  27768.7  166.047
 11.3296  27462.3  165.022
 11.3716  27745.1  165.616
 11.4136  27696.1  166.339
 11.4556  27616.6  165.753
 11.4976  27805.4  165.275
 11.5396  28045.8  166.157
 11.5816  28356.6  167.54
 11.6236  29039.5  170.017
 11.6656  28515.3  167.36
 11.7076  27824.9  166.205
 11.7496  27313.3  168.743
 11.7916  27288.5  163.831
 11.8336  26855.6  163.464
 11.8756  26578.3  162.114
 11.9176  26854.3  162.591
 11.9596  26373.2  161.322
 12.0016  26384.6  162.186
 12.0436  26354.8  161.493
 12.0856  26024.2  161.019
 12.1276  25990.8  160.821
 12.1696  26080.6  160.215
 12.2116  26378.4  161.123
 12.2536  25709.4  159.883
 12.2956  26112.3  160.485
 12.3376  25659.9  159.293
 12.3796  25868.1  160.415
 12.4216  25890.4  159.679
 12.4636  25585.5  159.662
 12.5056  25956.6  159.951
 12.5476  25958.7  159.595
 12.5896  26100.2  160.683
 12.6316  25556  159.152
 12.6736  25846  160.566
 12.7156  25448.2  159.185
 12.7576  25633.7  160.024
 12.7996  26108.9  160.084
 12.8416  25718  159.968
 12.8836  26230.2  161.373
 12.9256  26224.8  160.344
 12.9676  26355.6  161.178
 13.0096  26157.1  161.7
 13.0516  26342.3  161.282
 13.0936  26658.8  162.364
 13.1356  26948.2  162.485
 13.1776  26510.2  162.001
 13.2196  26526.7  161.881
 13.2616  26714.1  162.777
 13.3036  26628.3  162.648
 13.3456  26352.3  161.805
 13.3876  26316.2  161.161
 13.4296  26484.7  161.83
 13.4716  26551.9  161.626
 13.5136  26543  161.773
 13.5556  26445.9  162.099
 13.5976  26680.1  162.963
 13.6396  26682.1  162.323
 13.6816  26188.2  161.188
 13.7236  27190.8  163.979
 13.7656  26030  161.014
 13.8076  26210.2  160.313
 13.8496  26113.2  160.828
 13.8916  26017.4  161.396
 13.9336  26116.7  160.896
 13.9756  26017.5  159.914
 14.0176  25748.4  159.845
 14.0596  25803.8  159.932
 14.1016  25562.1  159.579
 14.1436  25386.6  158.133
 14.1856  25249.1  158.005
 14.2276  24868.3  157.302
 14.2696  25027.5  157.652
 14.3116  24774.9  156.767
 14.3536  24419  155.809
 14.3956  24596.1  156.046
 14.4376  24622.4  155.95
 14.4796  24384.1  155.176
 14.5216  24080.7  155.029
 14.5636  23865.6  153.892
 14.6056  23996  153.74
 14.6476  24085.9  153.366
 14.6896  23444.4  151.859
 14.7316  23184.1  152.089
 14.7736  23043.1  150.771
 14.8156  22734.3  149.766
 14.8576  22785.4  149.774
 14.8996  22447.2  149.909
 14.9416  21888.8  148.032
 14.9836  22002.7  148.388
 15.0256  22002.5  147.273
 15.0676  21898.1  147.248
 15.1096  22032  147.417
 15.1516  21524.3  146.289
 15.1936  21474.7  145.526
 15.2356  21059.3  144.405
 15.2776  20929.8  143.534
 15.3196  20442  142.883
 15.3616  20661.7  143.399
 15.4036  20387.8  142.299
 15.4456  20968.5  143.938
 15.4876  20220.7  141.02
 15.5296  20399.7  141.939
 15.5716  19818.4  139.493
 15.6136  20080.1  140.752
 15.6556  19768.5  138.867
 15.6976  19935.7  139.536
 15.7396  19593.6  138.967
 15.7816  19562.7  138.345
 15.8236  19155.3  137.616
 15.8656  19191  137.528
 15.9076  19039.2  136.796
 15.9496  18745.3  138.589
 15.9916  18772.7  139.696
 16.0336  18375  134.492
 16.0756  18486.8  135.224
 16.1176  18570.3  135.446
 16.1596  17941.2  134.495
 16.2016  18137.6  133.941
 16.2436  17963  133.684
 16.2856  17875  132.892
 16.3276  17478.3  131.832
 16.3696  17982  133.53
 16.4116  17514.7  132.257
 16.4536  17796.3  133.092
 16.4956  17524.2  131.8
 16.5376  17479.3  131.824
 16.5796  17365.8  130.741
 16.6216  17480.4  131.488
 16.6636  17330.7  131.08
 16.7056  17371.1  131.097
 16.7476  17375.5  130.626
 16.7896  17374.2  131.391
 16.8316  17093.5  130.299
 16.8736  17237.2  131.103
 16.9156  17286  131.637
 16.9576  17179.8  132.046
 16.9996  17355.3  133.23
 17.0416  17301.6  131.507
 17.0836  17399.4  131.427
 17.1256  17233.9  130.817
 17.1676  17042.1  130.088
 17.2096  17186.4  130.502
 17.2516  16757  128.941
 17.2936  17028.1  130.005
 17.3356  16691.3  128.618
 17.3776  16648.3  128.75
 17.4196  16705.3  128.652
 17.4616  16425.3  127.484
 17.5036  16412.3  127.813
 17.5456  16220.1  127.73
 17.5876  16135.1  126.41
 17.6296  16110.6  126.109
 17.6716  16243.7  127.232
 17.7136  15711.7  125.285
 17.7556  15806.3  125.961
 17.7976  15790.6  125.499
 17.8396  15641.8  124.528
 17.8816  15718.6  125.378
 17.9236  15433.3  124.054
 17.9656  15655.1  125.677
 18.0076  15541.1  124.615
 18.0496  15444.2  123.345
 18.0916  15413.1  123.769
 18.1336  15369.5  123.696
 18.1756  15672.2  124.35
 18.2176  15276.8  123.068
 18.2596  15438.2  123.449
 18.3016  15485  123.901
 18.3436  15344.9  123.588
 18.3856  15133.2  122.619
 18.4276  15374.4  123.266
 18.4696  15107.5  122.283
 18.5116  15273.2  123.258
 18.5536  15291.5  123.671
 18.5956  14981.9  121.97
 18.6376  15140.7  123.04
 18.6796  14854.6  121.181
 18.7216  15255.3  123.384
 18.7636  14934.2  121.979
 18.8056  15007.3  122.231
 18.8476  14913.2  122.497
 18.8896  14851  121.557
 18.9316  15060  122.215
 18.9736  14915.3  121.483
 19.0156  14886.4  121.784
 19.0576  14851.3  120.482
 19.0996  15084.8  122.162
 19.1416  14714.1  121.045
 19.1836  14826.3  121.1
 19.2256  14880  121.542
 19.2676  14866.8  121.584
 19.3096  15014  122.435
 19.3516  14829.2  121.454
 19.3936  14801.3  121.42
 19.4356  14735.4  121.014
 19.4776  14743.6  121.147
 19.5196  14829.6  121.331
 19.5616  14617  120.729
 19.6036  14849.1  121.255
 19.6456  14715.7  120.755
 19.6876  14838.1  120.894
 19.7296  14795.9  121.184
 19.7716  14733.8  120.94
 19.8136  14901.2  121.998
 19.8556  15063.1  122.124
 19.8976  14816.6  121.184
 19.9396  14947.5  121.291
 19.9816  15081.7  122.078
 20.0236  15141.6  122.546
 20.0656  15395.5  123.566
 20.1076  15338.2  123.812
 20.1496  15616.2  124.939
 20.1916  15792.1  125.08
 20.2336  15482.6  123.83
 20.2756  15324  123.635
 20.3176  15120.8  122.552
 20.3596  15082.6  122.373
 20.4016  14844.4  121.198
 20.4436  14851.1  121.826
 20.4856  14537.6  120.293
 20.5276  14496.5  120.598
 20.5696  14481.6  120.092
 20.6116  14437.1  120.086
 20.6536  14318.7  119.133
 20.6956  14348.9  119.337
 20.7376  14361.8  119.629
 20.7796  14290.3  119.005
 20.8216  14486  119.513
 20.8636  14193.7  118.675
 20.9056  14251.1  118.868
 20.9476  14022  117.745
 20.9896  14218  118.43
 21.0316  14287.7  118.614
 21.0736  14173.3  118.671
 21.1156  14093  118.5
 21.1576  14149  118.775
 21.1996  14159.2  118.803
 21.2416  13895.7  117.519
 21.2836  14022.2  118.009
 21.3256  13887.5  117.538
 21.3676  14018.6  117.627
 21.4096  13997.3  117.917
 21.4516  13890.5  117.284
 21.4936  13678  116.413
 21.5356  13846.4  117.295
 21.5776  14014  117.834
 21.6196  13836.3  117.109
 21.6616  13717.3  116.706
 21.7036  13776.1  116.734
 21.7456  13896.7  117.316
 21.7876  13656.5  116.03
 21.8296  13716.7  116.149
 21.8716  13772.2  116.624
 21.9136  14046.4  117.983
 21.9556  13598.8  115.754
 21.9976  13605.7  115.783
 22.0396  13743.5  116.643
 22.0816  13639.7  116.778
 22.1236  13782.4  116.812
 22.1656  13729.9  116.777
 22.2076  13762.6  116.307
 22.2496  13804  116.512
 22.2916  13532.5  115.247
 22.3336  13692.1  116.658
 22.3756  13753.2  116.644
 22.4176  13633.4  115.987
 22.4596  13368.4  115.462
 22.5016  13601.8  115.948
 22.5436  13709.5  116.28
 22.5856  13746.9  116.691
 22.6276  13720  116.711
 22.6696  13543.8  116.333
 22.7116  13618.6  116.137
 22.7536  13673.8  116.355
 22.7956  13766.1  115.837
 22.8376  13429.8  115.168
 22.8796  13611.6  115.731
 22.9216  13609.1  116.293
 22.9636  13624.7  115.472
 23.0056  13537.8  115.241
 23.0476  13501.7  115.683
 23.0896  13880.1  116.639
 23.1316  13597.1  115.896
 23.1736  13385.9  118.025
 23.2156  13601.4  116.26
 23.2576  13498.2  115.938
 23.2996  13536  115.893
 23.3416  13467.1  116.123
 23.3836  13530  115.607
 23.4256  13539.7  115.76
 23.4676  13424.2  114.957
 23.5096  13420  115.639
 23.5516  13325.4  114.486
 23.5936  13418.5  115.819
 23.6356  13536  115.988
 23.6776  13405.3  115.643
 23.7196  13107.5  114.136
 23.7616  13362  114.931
 23.8036  13327.6  114.827
 23.8456  13347.7  114.476
 23.8876  13141.4  113.947
 23.9296  12980.1  113.749
 23.9716  13115.5  113.511
 24.0136  13188.4  114.757
 24.0556  13125.4  114.204
 24.0976  12833.5  112.723
 24.1396  12931.4  115.903
 24.1816  12980.8  114.816
 24.2236  13053.8  114.383
 24.2656  12832  112.855
 24.3076  12793.6  112.95
 24.3496  12965.9  113.564
 24.3916  12822.1  113.015
 24.4336  12677.9  112.594
 24.4756  12698.5  112.543
 24.5176  12484.7  111.24
 24.5596  12427.6  111.317
 24.6016  12341  111.02
 24.6436  12567.1  111.438
 24.6856  12335.5  110.23
 24.7276  12463.4  111.123
 24.7696  12356  110.758
 24.8116  12366  110.998
 24.8536  12243.2  110.432
 24.8956  12330.6  110.558
 24.9376  12048.9  109.476
 24.9796  12013.9  109.426
 25.0216  11865.7  108.865
 25.0636  12088.6  109.526
 25.1056  12047.7  109.785
 25.1476  12087.7  111.955
 25.1896  12075.9  110.343
 25.2316  12091.5  109.668
 25.2736  12023.9  109.005
 25.3156  11921.1  108.618
 25.3576  11800.8  108.5
 25.3996  11912.7  108.994
 25.4416  11804.2  108.469
 25.4836  11931  109.5
 25.5256  11864.8  108.642
 25.5676  11890.8  108.481
 25.6096  11641.5  107.921
 25.6516  11755.6  107.97
 25.6936  11615.1  107.604
 25.7356  11538.2  107.391
 25.7776  11794.5  108.251
 25.8196  11639.7  107.703
 25.8616  11687.7  107.782
 25.9036  11747  107.569
 25.9456  11631  107.648
 25.9876  11526.6  107.088
 26.0296  11661.6  107.444
 26.0716  11494.1  107.011
 26.1136  11548.7  107.207
 26.1556  11699.6  107.269
 26.1976  11524.5  107.414
 26.2396  11648.3  107.383
 26.2816  11637.2  107.694
 26.3236  11586.7  107.626
 26.3656  11455.7  106.732
 26.4076  11770.1  108.39
 26.4496  13053.6  113.525
 26.4916  11719.3  107.656
 26.5336  11536.4  107.137
 26.5756  11411.9  106.436
 26.6176  11538.1  107.049
 26.6596  11428.9  106.871
 26.7016  11356  106.274
 26.7436  11211.8  105.732
 26.7856  11174.4  105.54
 26.8276  11298.5  106.076
 26.8696  11362.6  106.252
 26.9116  11230.2  105.569
 26.9536  11126.6  105.121
 26.9956  11300.5  105.98
 27.0376  11066.7  105.1
 27.0796  11195.9  105.519
 27.1216  11123.4  105.165
 27.1636  11053.8  105
 27.2056  11124.5  105.216
 27.2476  11162.3  105.4
 27.2896  11133.7  105.382
 27.3316  11106  104.949
 27.3736  11003.7  104.748
 27.4156  10963.5  104.386
 27.4576  10943.3  104.533
 27.4996  10861.1  103.717
 27.5416  10857.2  104.025
 27.5836  10812.1  103.628
 27.6256  11304.6  106.138
 27.6676  10976.2  104.598
 27.7096  10807.8  103.661
 27.7516  10708.4  103.29
 27.7936  10741.6  103.666
 27.8356  10873.5  103.915
 27.8776  10756.3  103.391
 27.9196  10683.8  102.89
 27.9616  10784  103.463
 28.0036  10705.4  103.173
 28.0456  10832.9  103.916
 28.0876  10647.5  103.113
 28.1296  10632.3  102.874
 28.1716  10687.7  103.151
 28.2136  10680.2  103.085
 28.2556  10603  102.817
 28.2976  10609  102.839
 28.3396  10588.9  102.538
 28.3816  10532.4  102.249
 28.4236  10566.3  102.57
 28.4656  10413.2  101.861
 28.5076  10466.4  101.735
 28.5496  10629.8  102.811
 28.5916  10466.1  101.819
 28.6336  10502.3  102.341
 28.6756  10601.9  102.007
 28.7176  10527  102.209
 28.7596  10417.2  101.569
 28.8016  10506.2  102.037
 28.8436  10361.4  101.581
 28.8856  10414.7  101.693
 28.9276  10482.5  102.276
 28.9696  10394.5  101.494
 29.0116  10345.9  101.443
 29.0536  10247  101.155
 29.0956  10393.2  101.589
 29.1376  10283.3  101.019
 29.1796  10377.7  101.521
 29.2216  10316.6  101.063
 29.2636  10344.5  101.189
 29.3056  10450.2  101.577
 29.3476  10370.3  101.73
 29.3896  10335.9  101.667
 29.4316  10518.7  101.868
 29.4736  10320.5  100.974
 29.5156  10428.7  101.419
 29.5576  10293.7  101.521
 29.5996  10340.2  100.987
 29.6416  10258.7  100.706
 29.6836  10406.5  101.358
 29.7256  10300.6  101.423
 29.7676  10149.7  100.336
 29.8096  10272.5  100.873
 29.8516  10038.2  100.067
 29.8936  10290.7  101.409
 29.9356  10265.4  101.031
 29.9776  10058.2  100.154
 30.0196  10252.9  100.491
 30.0616  10001  99.6337
 30.1036  10415.5  101.489
 30.1456  10147.7  100.421
 30.1876  10072.8  100.216
 30.2296  10089.7  100.064
 30.2716  10252.5  100.485
 30.3136  10171.4  100.977
 30.3556  10172.5  100.989
 30.3976  9817.38  100.78
 30.4396  10189.4  99.8965
 30.4816  10045  98.7801
 30.5236  9939.69  98.2767
 30.5656  9966.6  99.0801
 30.6076  9918.66  98.611
 30.6496  10033.7  99.2241
 30.6916  9854.56  98.4316
 30.7336  9870.25  98.6611
 30.7756  9952.56  99.1613
 30.8176  9959.16  99.1135
 30.8596  9823.29  98.1889
 30.9016  9985.98  98.8748
 30.9436  10065  99.4939
 30.9856  9928.64  98.9238
 31.0276  9842.36  98.1069
 31.0696  9809.05  98.521
 31.1116  9943.27  99.1719
 31.1536  9980.46  99.2388
 31.1956  9739.22  98.118
 31.2376  9662.97  97.7504
 31.2796  9769.05  97.8056
 31.3216  9719.98  97.4932
 31.3636  9872.61  98.9671
 31.4056  9849.32  100.183
 31.4476  9949.69  98.5186
 31.4896  9904.17  98.8186
 31.5316  9913.67  98.2848
 31.5736  10008.6  98.5131
 31.6156  9873.38  97.8864
 31.6576  9993.28  98.5782
 31.6996  9975.52  98.1537
 31.7416  9676.25  97.6085
 31.7836  9959.98  98.1539
 31.8256  9816.44  97.8049
 31.8676  9901.01  98.1411
 31.9096  9861.58  98.1702
 31.9516  9670.84  97.5008
 31.9936  9640.88  97.3296
 32.0356  9782.09  97.9719
 32.0776  9757.3  97.7276
 32.1196  9815.49  98.0227
 32.1616  9753.17  97.241
 32.2036  9603.49  97.0097
 32.2456  9750.24  98.1485
 32.2876  9778.46  97.5932
 32.3296  9683.37  97.2548
 32.3716  9561.19  96.7444
 32.4136  9608.74  97.2218
 32.4556  9614.38  96.6667
 32.4976  9624.77  96.6049
 32.5396  9515.02  96.0831
 32.5816  9429.64  95.772
 32.6236  9538.7  96.4027
 32.6656  9592.61  97.222
 32.7076  9528.06  96.5433
 32.7496  9626.93  96.6952
 32.7916  9539.42  96.2132
 32.8336  9342.01  95.4318
 32.8756  9576.7  96.2176
 32.9176  9417.76  95.9074
 32.9596  9273.02  95.243
 33.0016  9423.59  95.8035
 33.0436  9480.37  96.2683
 33.0856  9329.61  95.5678
 33.1276  9350.07  95.3962
 33.1696  9393.09  95.4633
 33.2116  9455.93  95.8241
 33.2536  9479.54  96.1273
 33.2956  9400.91  95.8222
 33.3376  9273.85  94.9933
 33.3796  9380.91  95.6647
 33.4216  9368.5  95.2119
 33.4636  9461.17  95.8098
 33.5056  9278.55  95.1242
 33.5476  9236.5  94.8979
 33.5896  9461.16  95.7944
 33.6316  9289.68  95.2556
 33.6736  9193.14  95.0159
 33.7156  9246.29  95.3423
 33.7576  9292.9  95.2075
 33.7996  9398.92  95.5092
 33.8416  9034.5  93.8216
 33.8836  9240.5  94.6573
 33.9256  9222.68  94.6256
 33.9676  9350.02  95.1673
 34.0096  9219.63  94.8193
 34.0516  8988.66  93.2505
 34.0936  9189.99  94.5755
 34.1356  9150  94.1093
 34.1776  9062.75  93.6569
 34.2196  9096.76  94.0113
 34.2616  8966.51  93.5434
 34.3036  9064.09  94.2469
 34.3456  9086.26  94.1147
 34.3876  9065.22  94.0613
 34.4296  8989.29  93.2417
 34.4716  9110.13  94.1924
 34.5136  8997.23  93.6584
 34.5556  9081.65  94.353
 34.5976  9058.77  94.0675
 34.6396  8986.58  93.3567
 34.6816  9054.5  93.8298
 34.7236  9148.89  94.0991
 34.7656  9086.03  93.9747
 34.8076  8936.08  93.5178
 34.8496  8958.05  93.4926
 34.8916  8910.52  93.1226
 34.9336  9035.11  93.7354
 34.9756  9196.14  94.5007
 35.0176  8954.38  93.7732
 35.0596  8937.38  93.5092
 35.1016  8809.47  92.5945
 35.1436  9059.33  93.5673
 35.1856  8837.98  92.5469
 35.2276  8900.07  93.0611
 35.2696  8903.05  93.2732
 35.3116  8870.63  93.2246
 35.3536  8848.8  92.8146
 35.3956  8874.02  92.6142
 35.4376  8856.07  93.104
 35.4796  8911.19  93.4425
 35.5216  8819.35  92.8955
 35.5636  8587.14  92.4372
 35.6056  8855.12  92.8563
 35.6476  8813.55  92.5439
 35.6896  8964.78  93.5127
 35.7316  8611.71  91.5384
 35.7736  8674.5  92.065
 35.8156  8707.32  92.2458
 35.8576  8873.16  93.3829
 35.8996  8844.85  93.2314
 35.9416  8877.47  92.8483
 35.9836  8662.42  92.1882
 36.0256  8881.97  93.2571
 36.0676  8808.4  92.3995
 36.1096  8582.62  91.5661
 36.1516  8773.46  92.4647
 36.1936  8793.83  92.4241
 36.2356  8606.9  92.0847
 36.2776  8595.3  91.6361
 36.3196  8735.93  91.8966
 36.3616  8583.72  91.2318
 36.4036  8597.95  91.3663
 36.4456  8627.68  91.7112
 36.4876  8531.87  91.1473
 36.5296  8613.49  91.6302
 36.5716  8566.35  92.17
 36.6136  8687.38  91.5866
 36.6556  8426.64  90.3944
 36.6976  8423.88  90.8741
 36.7396  8504.6  91.0396
 36.7816  8454.93  91.1569
 36.8236  8489.22  91.2602
 36.8656  8449.63  91.1106
 36.9076  8436.06  91.0529
 36.9496  8328.18  90.3391
 36.9916  8388.44  90.284
 37.0336  8421.88  90.772
 37.0756  8456.71  90.7594
 37.1176  8173.86  89.4978
 37.1596  8339.79  90.4138
 37.2016  8437.59  91.108
 37.2436  8310.89  89.7853
 37.2856  8333.89  90.1631
 37.3276  8338.92  89.5494
 37.3696  8341.63  90.4514
 37.4116  8281.76  90.0413
 37.4536  8295.28  89.961
 37.4956  8173.6  89.3569
 37.5376  8459.55  92.5118
 37.5796  8251.61  91.3124
 37.6216  8202.56  89.2978
 37.6636  8202.45  89.1787
 37.7056  8322.95  90.0338
 37.7476  8335.88  89.6323
 37.7896  8188.9  89.3585
 37.8316  8093.35  88.988
 37.8736  8117.37  88.6519
 37.9156  8191.43  89.0251
 37.9576  8253.86  89.2932
 37.9996  8110.89  88.2265
 38.0416  8114.47  89.0558
 38.0836  8386.82  90.4347
 38.1256  8204.03  89.418
 38.1676  8131.87  89.1509
 38.2096  8243.84  89.3667
 38.2516  8133.94  88.992
 38.2936  8226.4  89.2881
 38.3356  8182.27  88.9844
 38.3776  8061.19  88.5652
 38.4196  8072.96  88.5005
 38.4616  8096.41  88.8668
 38.5036  8257.07  89.5862
 38.5456  8090.31  89.5146
 38.5876  8204.62  90.1637
 38.6296  8267.87  89.471
 38.6716  8237.27  89.0926
 38.7136  8122.5  88.4153
 38.7556  8150.11  89.0737
 38.7976  8169.75  89.1212
 38.8396  8158.45  89.5183
 38.8816  7974.03  88.2804
 38.9236  8151.86  89.0677
 38.9656  8174.49  89.0924
 39.0076  8241.98  88.8581
 39.0496  8161.29  88.9807
 39.0916  8289.47  89.3129
 39.1336  8082.52  88.6051
 39.1756  8245.25  89.561
 39.2176  8076.81  89.1796
 39.2596  8079.24  89.1156
 39.3016  8052.32  88.5441
 39.3436  8026.78  88.8233
 39.3856  8090.39  88.6125
 39.4276  8261.88  90.0622
 39.4696  8223.09  89.4551
 39.5116  8216.03  89.9456
 39.5536  8174.65  90.1517
 39.5956  8083.95  88.7474
 39.6376  7973.25  88.1476
 39.6796  7992.98  87.9952
 39.7216  7957.24  87.9006
 39.7636  8044.15  88.9448
 39.8056  8127.39  89.1853
 39.8476  7939.75  88.4042
 39.8896  8053.33  88.661
 39.9316  8015.42  88.702
 39.9736  8117.52  88.8356
 40.0156  7943.9  87.7104
 40.0576  8056.41  88.6816
 40.0996  8060.58  87.8887
 40.1416  7977.24  88.2289
 40.1836  8017.04  88.3353
 40.2256  8001.07  88.2822
 40.2676  7947.22  88.1667
 40.3096  8016.58  88.4057
 40.3516  8072.2  88.8196
 40.3936  8049.71  88.2533
 40.4356  7961.27  87.9666
 40.4776  8096.81  88.96
 40.5196  8123.04  89.401
 40.5616  8056.82  88.6712
 40.6036  7916.22  88.15
 40.6456  7965.4  88.0305
 40.6876  8186.66  89.2373
 40.7296  7992.79  88.3087
 40.7716  8085.6  88.9453
 40.8136  7950.69  88.1457
 40.8556  8069.09  88.9342
 40.8976  8058.25  88.799
 40.9396  7932.08  88.4423
 40.9816  8021.14  88.2248
 41.0236  8020.44  88.0086
 41.0656  8003.17  88.4502
 41.1076  8068.83  88.5827
 41.1496  8059.66  88.4384
 41.1916  8010.81  88.4866
 41.2336  7912.83  87.9419
 41.2756  7845.94  87.1784
 41.3176  8003.77  88.6609
 41.3596  8026.8  88.5189
 41.4016  7924.46  88.2217
 41.4436  8091.89  88.9288
 41.4856  7998.7  88.5745
 41.5276  7887.27  87.9754
 41.5696  7976.34  88.0876
 41.6116  7891.26  88.0212
 41.6536  7877.97  87.8084
 41.6956  7983.13  88.3749
 41.7376  7777.78  87.3289
 41.7796  7926.72  88.0897
 41.8216  8019.52  88.7969
 41.8636  7963.76  88.4264
 41.9056  7866.66  87.6731
 41.9476  7863.93  87.8931
 41.9896  7968.14  88.14
 42.0316  7884.24  87.7604
 42.0736  7883.77  87.8945
 42.1156  7950.21  88.0724
 42.1576  7876.85  87.768
 42.1996  7872.13  87.8795
 42.2416  7909.15  87.6668
 42.2836  7861.55  87.5095
 42.3256  7896.66  87.8261
 42.3676  7894.58  87.6163
 42.4096  7829.25  87.2111
 42.4516  7887.97  87.6287
 42.4936  7787.51  87.1422
 42.5356  7842.06  87.5766
 42.5776  7905.76  87.873
 42.6196  7858.31  87.6648
 42.6616  7752.1  87.2362
 42.7036  7944.77  87.696
 42.7456  7857.16  87.5682
 42.7876  7801.14  87.3571
 42.8296  7776.94  87.0543
 42.8716  7727.95  86.9325
 42.9136  7768.54  86.9131
 42.9556  7875.53  87.6885
 42.9976  7817.28  87.3471
 43.0396  7777.97  86.8332
 43.0816  7811.53  87.394
 43.1236  7737.66  87.0468
 43.1656  7839.19  87.4468
 43.2076  7746.42  87.0293
 43.2496  7658.98  86.3529
 43.2916  7707.2  86.9879
 43.3336  7777.02  87.2197
 43.3756  7740.94  86.7647
 43.4176  7690.63  86.5719
 43.4596  7671.58  86.3199
 43.5016  7767.86  87.2682
 43.5436  7676.71  86.6544
 43.5856  7742.04  87.0483
 43.6276  7715.78  86.7855
 43.6696  7705.93  86.884
 43.7116  7838.74  87.2338
 43.7536  7770.47  87.3391
 43.7956  7540.43  87.2186
 43.8376  7782.14  86.9638
 43.8796  7768.55  87.153
 43.9216  7737.32  86.8971
 43.9636  7853.4  87.6587
 44.0056  7839.45  87.8128
 44.0476  7806.73  87.2585
 44.0896  7618.88  86.5423
 44.1316  7741.85  86.8908
 44.1736  7703.58  86.6625
 44.2156  7736.18  86.6949
 44.2576  7749.29  87.1028
 44.2996  7589.41  86.3658
 44.3416  7727.9  86.7184
 44.3836  7508.31  85.796
 44.4256  7623.04  86.0992
 44.4676  7671.78  86.5277
 44.5096  7683.16  86.7385
 44.5516  7766.5  87.1727
 44.5936  7547.83  85.8843
 44.6356  7736.04  86.6839
 44.6776  7712.39  86.8723
 44.7196  7588.31  86.4826
 44.7616  7623.77  88.0031
 44.8036  7491.71  85.8806
 44.8456  7482.98  85.8223
 44.8876  7510.51  85.8349
 44.9296  7659.72  86.1434
 44.9716  7446.84  85.3678
 45.0136  7594.47  86.1404
 45.0556  7493.33  85.6262
 45.0976  7499.69  85.7448
 45.1396  7343.17  84.614
 45.1816  7531.38  85.6179
 45.2236  7462.39  85.107
 45.2656  7529.81  86.0108
 45.3076  7404.33  85.0831
 45.3496  7456.79  85.6785
 45.3916  7464.32  85.9768
 45.4336  7369.77  85.2746
 45.4756  7476.67  85.765
 45.5176  7397.13  84.9026
 45.5596  7494.26  85.5939
 45.6016  7293.53  84.8462
 45.6436  7508.95  85.2794
 45.6856  7385.16  85.2298
 45.7276  7439.89  86.8731
 45.7696  7454.9  86.6005
 45.8116  7489.85  86.2496
 45.8536  7335.69  85.2493
 45.8956  7427.48  85.1275
 45.9376  7607.53  85.6144
 45.9796  7334.23  84.7341
 46.0216  7322.58  85.0188
 46.0636  7461.54  84.9687
 46.1056  7314.87  84.0992
 46.1476  7341.65  84.8506
 46.1896  7459.11  85.6737
 46.2316  7388.04  85.1442
 46.2736  7310.59  84.8157
 46.3156  7452.58  85.4578
 46.3576  7377.78  85.2315
 46.3996  7133.3  83.9726
 46.4416  7463.24  85.4494
 46.4836  7356.7  85.205
 46.5256  7421.69  85.5175
 46.5676  7329.64  85.0993
 46.6096  7374.97  85.3115
 46.6516  7493.06  85.0202
 46.6936  7478.65  85.4155
 46.7356  7367.09  84.9036
 46.7776  7406.09  85.9723
 46.8196  7432.2  85.8677
 46.8616  7304.02  84.9242
 46.9036  7249.42  84.2611
 46.9456  7375.18  84.6376
 46.9876  7301.02  84.2864
 47.0296  7378.72  85.4167
 47.0716  7344.81  85.0331
 47.1136  7279.22  84.3533
 47.1556  7422.75  85.0488
 47.1976  7380.96  84.9095
 47.2396  7315.25  84.8938
 47.2816  7267.51  84.3143
 47.3236  7371.45  85.3069
 47.3656  7353.81  85.2189
 47.4076  7393.64  85.0956
 47.4496  7282.89  84.6148
 47.4916  7349.05  85.1944
 47.5336  7330.42  84.8997
 47.5756  7515.32  86.0861
 47.6176  7335.11  84.9408
 47.6596  7443.31  85.267
 47.7016  7488.78  85.3575
 47.7436  7396.9  85.1226
 47.7856  7352.14  84.9401
 47.8276  7313.71  84.7608
 47.8696  7253.17  84.5001
 47.9116  7418.08  85.1507
 47.9536  7349.01  84.7043
 47.9956  7225.92  84.6839
 48.0376  7302.23  84.9104
 48.0796  7311.49  85.1038
 48.1216  7449.13  85.8318
 48.1636  7493.68  85.5333
 48.2056  7396.79  85.244
 48.2476  7339.12  85.2271
 48.2896  7396.56  85.4711
 48.3316  7332.88  85.0467
 48.3736  7255.41  84.6116
 48.4156  7317.44  84.8189
 48.4576  7248.44  84.7125
 48.4996  7350.78  84.7526
 48.5416  7256.52  84.5292
 48.5836  7331.92  84.6548
 48.6256  7247.64  84.3931
 48.6676  7250.75  84.9151
 48.7096  7421.21  85.1827
 48.7516  7202.52  84.0438
 48.7936  7338.96  84.8982
 48.8356  7229.52  84.3083
 48.8776  7323.26  85.3697
 48.9196  7355.29  84.9936
 48.9616  7210.26  84.5358
 49.0036  7211.85  84.8849
 49.0456  7279.39  85.2745
 49.0876  7193.24  84.4112
 49.1296  7100.02  83.9178
 49.1716  7219.35  84.4804
 49.2136  7257.16  84.6493
 49.2556  7272.49  84.7502
 49.2976  7149.14  84.0899
 49.3396  7177.58  84.3232
 49.3816  7280.4  84.3511
 49.4236  7261.99  84.6785
 49.4656  7242.12  84.5707
 49.5076  7276.34  84.5062
 49.5496  7252.84  84.4372
 49.5916  7218.43  84.1624
 49.6336  7219.28  84.377
 49.6756  7201.12  84.4964
 49.7176  7167.66  84.2325
 49.7596  7283.71  84.676
 49.8016  7292.42  84.6674
 49.8436  7294.5  84.9739
 49.8856  7197.35  84.4014
 49.9276  7257.11  84.8521
 49.9696  7247.75  84.7883
 50.0116  7305.13  85.2722
 50.0536  7198.73  84.5755
 50.0956  7148.94  84.348
 50.1376  7171.18  84.1932
 50.1796  7099.94  84.0283
 50.2216  7128.12  84.2047
 50.2636  7141.26  83.878
 50.3056  7191.81  84.3545
 50.3476  7188.98  84.3696
 50.3896  7139.59  84.0415
 50.4316  7130.81  83.826
 50.4736  7123.22  84.001
 50.5156  7252.32  84.7652
 50.5576  7277.58  84.6629
 50.5996  7141.52  84.1373
 50.6416  7183.75  84.3233
 50.6836  7134.91  84.0976
 50.7256  7269.46  84.8222
 50.7676  7125.86  84.2463
 50.8096  7064.65  83.4584
 50.8516  7135.14  84.295
 50.8936  7132.82  84.0687
 50.9356  7175.62  84.4198
 50.9776  7216.04  84.8127
 51.0196  7189.58  84.7902
 51.0616  7228.32  84.3243
 51.1036  7297.52  85.0954
 51.1456  7325.42  85.1661
 51.1876  7303.19  84.3578
 51.2296  7190.34  84.3508
 51.2716  7111.54  83.5967
 51.3136  7211.87  84.6554
 51.3556  7236.06  84.4075
 51.3976  7197.26  84.3358
 51.4396  7082.34  83.9758
 51.4816  7265.44  84.9033
 51.5236  7247.35  84.8823
 51.5656  7224.51  84.338
 51.6076  7325.22  85.0077
 51.6496  7184.55  84.3904
 51.6916  7068.78  84.1399
 51.7336  7147.71  84.6344
 51.7756  7161.68  84.383
 51.8176  7191.19  84.688
 51.8596  7120.46  84.2844
 51.9016  7321.56  85.0588
 51.9436  6987.67  84.557
 51.9856  7030.17  85.2828
 52.0276  7072.19  84.0026
 52.0696  6971.8  83.4675
 52.1116  6906.34  83.1903
 52.1536  7016.06  83.6834
 52.1956  7087.69  83.6111
 52.2376  7123.67  84.0021
 52.2796  6993.33  83.0219
 52.3216  6962.44  83.5646
 52.3636  7044.94  83.6247
 52.4056  6882.37  82.4956
 52.4476  6896.32  82.9632
 52.4896  6960.86  83.405
 52.5316  6937.38  83.3055
 52.5736  6948.34  83.094
 52.6156  6963.79  83.5577
 52.6576  7112.68  83.8877
 52.6996  6745.95  82.6863
 52.7416  6973.7  83.9192
 52.7836  7024.64  84.0883
 52.8256  7059.84  83.4986
 52.8676  6725.94  82.0975
 52.9096  6912.1  83.3049
 52.9516  7032.81  84.4061
 52.9936  6915.69  84.108
 53.0356  6923.58  83.1152
 53.0776  6859.25  83.0218
 53.1196  6828.86  82.9495
 53.1616  6881.81  83.307
 53.2036  6915.56  83.4665
 53.2456  6897.39  83.46
 53.2876  6821.44  82.7093
 53.3296  6822.31  83.0496
 53.3716  6873.59  83.1752
 53.4136  6906.36  83.433
 53.4556  6790.83  82.7743
 53.4976  6802.25  82.6974
 53.5396  6891.34  83.6439
 53.5816  6860.09  83.0705
 53.6236  6743.85  82.7015
 53.6656  6945.8  83.5653
 53.7076  6904.48  83.2749
 53.7496  6799.3  82.7591
 53.7916  6824.13  83.0372
 53.8336  6862.12  83.1723
 53.8756  6799.09  83.3523
 53.9176  6972.89  83.7282
 53.9596  6877.01  83.9503
 54.0016  6852.76  83.1039
 54.0436  6881.44  83.514
 54.0856  6893.16  82.9814
 54.1276  6832.15  82.8234
 54.1696  6854.04  83.132
 54.2116  6878.48  83.0254
 54.2536  6838.97  82.6023
 54.2956  6939.81  83.2536
 54.3376  6785.77  82.825
 54.3796  6875.3  83.2628
 54.4216  6977.56  83.9358
 54.4636  6910.66  83.4877
 54.5056  6835.59  82.8426
 54.5476  6837.66  83.2035
 54.5896  6831.62  82.9775
 54.6316  6863.1  83.0323
 54.6736  6768.47  82.482
 54.7156  6782.54  82.6446
 54.7576  6764.61  82.5329
 54.7996  6794.21  82.8673
 54.8416  6916.87  83.6542
 54.8836  6690.23  82.3793
 54.9256  6794.64  82.7509
 54.9676  6898.26  83.2491
 55.0096  6722.58  82.2536
 55.0516  6859.37  83.2601
 55.0936  6833.07  82.7704
 55.1356  6779.87  82.4951
 55.1776  6747.78  82.5832
 55.2196  6798.67  82.6678
 55.2616  6722.82  82.4133
 55.3036  6774.99  82.9136
 55.3456  6799.44  83.2201
 55.3876  6792.16  82.9074
 55.4296  6826.23  83.0904
 55.4716  6905.27  83.6023
 55.5136  6851.74  83.0198
 55.5556  6709.74  82.2342
 55.5976  6666.93  82.0323
 55.6396  6763.15  82.4832
 55.6816  6818.13  82.7674
 55.7236  6838.76  82.9465
 55.7656  6729.33  82.0224
 55.8076  6906.85  83.0762
 55.8496  6744.37  82.5371
 55.8916  6664.5  82.1074
 55.9336  6722.18  82.3084
 55.9756  6731.32  82.2596
 56.0176  6637.55  81.8345
 56.0596  6717.82  82.321
 56.1016  6800.7  82.8704
 56.1436  6708.98  82.5446
 56.1856  6768.15  82.6399
 56.2276  6651.66  81.9844
 56.2696  6759.17  82.6089
 56.3116  6730.96  82.8609
 56.3536  6701.96  82.3271
 56.3956  6773.98  82.7606
 56.4376  6719.41  82.4563
 56.4796  6761.57  82.5117
 56.5216  6750.18  82.8337
 56.5636  6884.13  83.2205
 56.6056  6682.95  82.2323
 56.6476  6664.62  81.7362
 56.6896  6761.94  82.7977
 56.7316  6709.4  82.3866
 56.7736  6823.57  83.2964
 56.8156  6768.91  82.7499
 56.8576  6770.25  82.691
 56.8996  6770.31  82.6266
 56.9416  6688.57  82.4429
 56.9836  6721.31  82.1239
 57.0256  6702.93  82.3516
 57.0676  6682.86  82.3605
 57.1096  6900.78  83.4697
 57.1516  6759.09  82.6353
 57.1936  6698.82  82.0372
 57.2356  6745.42  82.6633
 57.2776  6747.26  82.6201
 57.3196  6705.8  82.7589
 57.3616  6657.51  81.9288
 57.4036  6742.7  82.5167
 57.4456  6745.87  82.4968
 57.4876  6721.43  82.2081
 57.5296  6649.17  82.0097
 57.5716  6665.2  82.2023
 57.6136  6717.65  82.335
 57.6556  6823.08  83.1301
 57.6976  6681.44  82.0681
 57.7396  6696.9  82.5479
 57.7816  6503  81.7224
 57.8236  6723.12  82.8843
 57.8656  6656.8  82.1103
 57.9076  6676.86  82.2713
 57.9496  6653.74  82.4831
 57.9916  6671.29  82.0865
 58.0336  6800.12  83.1649
 58.0756  6801.56  82.7538
 58.1176  6659.51  81.9198
 58.1596  6615.66  82.2433
 58.2016  6802.75  82.5867
 58.2436  6645.37  82.0463
 58.2856  6712.52  82.3836
 58.3276  6713.69  82.7769
 58.3696  6803.53  83.0624
 58.4116  6703.13  82.3131
 58.4536  6725.33  82.3247
 58.4956  6682.06  82.2518
 58.5376  6945.93  83.4003
 58.5796  6709.91  82.4178
 58.6216  6882.6  83.2792
 58.6636  6758.38  82.7502
 58.7056  6778.95  82.7218
 58.7476  6663.12  82.4769
 58.7896  6733.54  82.5381
 58.8316  6771.98  82.7644
 58.8736  6767.5  82.7524
 58.9156  6698.03  82.3665
 58.9576  6738.96  82.9662
 58.9996  6773.16  82.3895
 59.0416  6684.75  82.2222
 59.0836  6875.55  83.2895
 59.1256  6526.36  81.8843
 59.1676  6761.09  83.6704
 59.2096  6812.16  83.2606
 59.2516  6714.64  82.2207
 59.2936  6685.09  82.3848
 59.3356  6871.1  83.3927
 59.3776  6599.36  81.9037
 59.4196  6726.78  82.6235
 59.4616  6450.84  80.7659
 59.5036  6674.11  82.1851
 59.5456  6855.53  82.9717
 59.5876  6851.75  83.1524
 59.6296  6670.38  82.1172
 59.6716  6746.47  82.6455
 59.7136  6787.04  82.8812
 59.7556  6786.06  83.02
 59.7976  6598.95  81.5978
 59.8396  6737.17  82.3363
 59.8816  6618.87  82.181
 59.9236  6761  82.6818
 59.9656  6646.34  82.2506
 60.0076  6632.75  81.4935
 60.0496  6746.04  82.7193
 60.0916  6959.46  83.3927
 60.1336  6736  83.2125
 60.1756  6571.97  83.4287
 60.1996  0.0000000E+00  0.0000000E+00