File: docs/examples/opeando_xrd/IS17_D/Data/IS17_D_fresh/17_D_fresh_f00002.xye
# /beamlines/bl04/projects/cycle2025-II/20250340211-lsimonelli/DATA/IS17_D_fresh/17_D_fresh_f00002.xye : mythproc.py merge -s 0.006 -l 0.5 -f /beamlines/bl04/inhouse/ff/FlatField/ff_20Nov2024rod8mm60s_17keV.raw -b True -c true -o xye /beamlines/bl04/projects/cycle2025-II/20250340211-lsimonelli/DATA/IS17_D_fresh/17_D_fresh_00002.dat
# IsMon = [6772454, 6771461, 6774924]  IsPos = [-1.5000, -2.4885, -3.4986]
# Wave = 0.4962  CalPath /beamlines/bl04/projects/cycle2025-II/20250340211-lsimonelli/DATA/Align/Si_Pos1_25keV_f00001.cal
# Date = 2025-09-23_22:04:53 Dt = 4.8000  Bin = 0.0060  <imon> = 6772946 +/- 1456 (Min/Max) 6771461 / 6774924
# icurr 251.3723  mocoIn 1.7157E-05  mocoOut 0.8047  i15 7.08863e+06  imon 6.77295e+06  i7 8.6667  iEMpd_timer 4.8000  iEMpd_1 3.5657E-08  iEMpd_2 7.7942E-08  iEMpd_3 1.7574E-08  iEMpd_4 4.8207E-08  iEMhp_timer 4.8000  iEMhp_1 4.9123E-06  iEMhp_2 -2.4573E-08  iEMhp_3 -2.3443E-08  iEMhp_4 -2.0217E-08
#      9776
 1.5856  36343.6  195.764
 1.6276  42996.6  209.276
 1.6696  50449.8  225.89
 1.7116  59135.7  245.042
 1.7536  68668.1  262.93
 1.7956  73532  272.761
 1.8376  69553.7  265.701
 1.8796  57930.9  240.705
 1.9216  45878.5  215.06
 1.9636  38871.1  197.643
 2.0056  34729.3  185.623
 2.0476  31721.5  179.348
 2.0896  30386.3  174.503
 2.1316  29913.7  172.309
 2.1736  28388.3  169.19
 2.2156  28713.5  168.79
 2.2576  27775.2  166.606
 2.2996  26700.1  163.948
 2.3416  27209.9  164.185
 2.3836  26584.8  162.388
 2.4256  26175  161.656
 2.4676  25956  160.751
 2.5096  26473.1  162.397
 2.5516  35953.8  193.554
 2.5936  185766  431.219
 2.6356  31049.3  177.066
 2.6776  25669  159.895
 2.7196  24554.4  156.896
 2.7616  24252  155.704
 2.8036  23777.8  154.347
 2.8456  23776.8  154.922
 2.8876  23450.5  153.724
 2.9296  22815.6  151.769
 2.9716  22785.3  151.179
 3.0136  22555.4  150.483
 3.0556  22619.1  151.08
 3.0976  22335.6  149.107
 3.1396  22181.4  149.287
 3.1816  22100.9  148.946
 3.2236  21983.7  148.552
 3.2656  22206.1  148.363
 3.3076  21971.7  148.983
 3.3496  22207.7  148.997
 3.3916  22742.4  150.363
 3.4336  22946.2  151.593
 3.4756  23427.7  153.101
 3.5176  23934.9  154.565
 3.5596  23997.5  157.641
 3.6016  24364.6  155.983
 3.6436  23731.9  155.023
 3.6856  23343.1  152.077
 3.7276  22411.6  150.079
 3.7696  22054.8  148.864
 3.8116  21734.8  147.873
 3.8536  21860.8  148.228
 3.8956  22120.8  148.943
 3.9376  22808.8  151.519
 3.9796  21860.6  147.833
 4.0216  21852  146.863
 4.0636  21828.9  148.23
 4.1056  21925.9  148.205
 4.1476  21850.6  148.251
 4.1896  22129.6  149.062
 4.2316  22433.7  149.9
 4.2736  23008.1  151.594
 4.3156  23136  152.244
 4.3576  24064.8  155.216
 4.3996  24317.1  156.082
 4.4416  24805.9  157.425
 4.4836  26895.7  164.078
 4.5256  26065.2  162.133
 4.5676  25671.6  161.154
 4.6096  26321.7  162.209
 4.6516  26977.4  163.571
 4.6936  27019.9  164.494
 4.7356  28258  168.059
 4.7776  27369.2  165.227
 4.8196  26595.3  163.51
 4.8616  26275.5  162.139
 4.9036  25990.2  160.887
 4.9456  26594.9  163.395
 4.9876  25606  160.23
 5.0296  25650.4  160.179
 5.0716  25692.9  160.943
 5.1136  25751.7  160.981
 5.1556  26357.1  162.333
 5.1976  38047.7  195.025
 5.2396  27152.2  164.457
 5.2816  26468.4  162.824
 5.3236  26662.5  163.131
 5.3656  26265.2  162.812
 5.4076  26020.9  162.213
 5.4496  26174.9  162.183
 5.4916  26068.2  161.608
 5.5336  26303.7  162.344
 5.5756  25793.6  160.795
 5.6176  26192.4  161.478
 5.6596  26434.9  163.038
 5.7016  26395.1  162.33
 5.7436  26789.2  163.806
 5.7856  26581.7  163.228
 5.8276  26975  164.163
 5.8696  27081.1  164.543
 5.9116  26882.7  164.615
 5.9536  27262.1  165.561
 5.9956  27736.1  166.364
 6.0376  27713.8  166.929
 6.0796  28071.4  167.833
 6.1216  28109  168.147
 6.1636  28288.8  167.755
 6.2056  28516.9  169.094
 6.2476  28323.1  168.21
 6.2896  28845.6  169.621
 6.3316  28487.6  168.733
 6.3736  29098.8  170.433
 6.4156  28905.9  169.82
 6.4576  29350.1  170.666
 6.4996  29512.1  171.618
 6.5416  29367.7  171.335
 6.5836  30235.4  174.074
 6.6256  29513.4  171.55
 6.6676  30175  173.029
 6.7096  29866.5  172.988
 6.7516  30474.1  174.394
 6.7936  32075.1  178.079
 6.8356  32964  180.872
 6.8776  31935.7  178.844
 6.9196  31205.2  177.184
 6.9616  31612.5  177.756
 7.0036  32269  179.265
 7.0456  32204.3  178.377
 7.0876  32093.6  179.685
 7.1296  32253  179.341
 7.1716  31961.7  178.057
 7.2136  31873.7  177.605
 7.2556  32060.2  178.288
 7.2976  32334.4  179.553
 7.3396  32248.2  179.522
 7.3816  32125.9  179.396
 7.4236  32580.4  179.945
 7.4656  32963.1  180.485
 7.5076  33223.6  181.329
 7.5496  32926.6  181.056
 7.5916  33015.2  181.323
 7.6336  34096.3  184.17
 7.6756  33607.8  182.697
 7.7176  33840.1  183.629
 7.7596  33879.2  185.02
 7.8016  41321.3  206.774
 7.8436  35451.9  188.099
 7.8856  35479.8  187.773
 7.9276  36108.8  189.828
 7.9696  35985.3  189.829
 8.0116  37491.5  192.63
 8.0536  37945  193.678
 8.0956  40900.1  202.348
 8.1376  38265.1  195.172
 8.1796  38622.6  196.646
 8.2216  39751.7  198.183
 8.2636  41261  202.175
 8.3056  39759.7  199.252
 8.3476  42392  205.036
 8.3896  41114.7  202.461
 8.4316  40026.6  199.488
 8.4736  40045.8  198.985
 8.5156  39799.4  198.659
 8.5576  39830.2  199.745
 8.5996  39899.4  198.747
 8.6416  39460.6  198.96
 8.6836  39474.9  198.809
 8.7256  40838.7  201.649
 8.7676  43000.6  210.005
 8.8096  42757.6  206.517
 8.8516  39109.6  197.179
 8.8936  41687.5  203.394
 8.9356  38391.9  195.528
 8.9776  38997  197.183
 9.0196  38083  194.523
 9.0616  39261.3  196.96
 9.1036  41718.9  204.313
 9.1456  38823.3  196.419
 9.1876  38003.4  194.288
 9.2296  38087.3  193.877
 9.2716  37063.9  191.324
 9.3136  37269.6  191.832
 9.3556  37749.1  193.049
 9.3976  35725.2  188.341
 9.4396  36260.9  189.627
 9.4816  35944.4  188.676
 9.5236  36025.2  188.786
 9.5656  35740  188.36
 9.6076  35491.9  188.244
 9.6496  35011.6  186.906
 9.6916  35483.2  188.134
 9.7336  35539.1  188.057
 9.7756  35834.7  190.087
 9.8176  34986.4  187.368
 9.8596  34846.7  185.396
 9.9016  34525  184.541
 9.9436  34830.2  185.094
 9.9856  34420.8  184.368
 10.0276  33287.1  182.457
 10.0696  33988.6  183.379
 10.1116  33286.4  181.76
 10.1536  32189.8  178.403
 10.1956  32140.8  178.345
 10.2376  31553.9  176.197
 10.2796  32033  177.687
 10.3216  32047.5  177.848
 10.3636  31625  176.841
 10.4056  36741.2  191.065
 10.4476  37531.9  192.693
 10.4896  42122.8  203.484
 10.5316  36794.7  190.591
 10.5736  31541.9  177.24
 10.6156  31085  175.712
 10.6576  39282  195.86
 10.6996  31045.2  174.795
 10.7416  30166.2  172.546
 10.7836  32117.8  178.788
 10.8256  29234.3  171.012
 10.8676  29518.2  171.358
 10.9096  29199.8  170.472
 10.9516  28781.3  168.146
 10.9936  29890.1  171.56
 11.0356  29536.8  171.21
 11.0776  31605  176.351
 11.1196  31004  175.468
 11.1616  28882  169.054
 11.2036  30446.1  173.404
 11.2456  32676.2  180.43
 11.2876  27771.9  166.053
 11.3296  28199.2  167.229
 11.3716  28818.4  168.762
 11.4136  27744.8  166.484
 11.4556  28129.7  167.284
 11.4976  29818.9  171.152
 11.5396  30559.1  173.423
 11.5816  27743.5  165.716
 11.6236  27294.3  164.826
 11.6656  26971.6  162.768
 11.7076  26570.2  162.411
 11.7496  27233.4  168.457
 11.7916  27469.5  164.371
 11.8336  26291.7  161.739
 11.8756  27091.5  163.664
 11.9176  26579.8  162.008
 11.9596  25807.3  159.579
 12.0016  25795.3  160.356
 12.0436  25748.8  159.609
 12.0856  25215.1  158.491
 12.1276  25526.8  159.38
 12.1696  25723  159.108
 12.2116  26390.8  161.158
 12.2536  29337  170.769
 12.2956  26526.9  161.744
 12.3376  25955.5  160.208
 12.3796  25665.7  159.772
 12.4216  26053.8  160.173
 12.4636  27465.4  165.408
 12.5056  25431.5  158.429
 12.5476  25487.8  158.138
 12.5896  25525.5  158.894
 12.6316  24869  156.997
 12.6736  25365.6  158.906
 12.7156  25452.9  159.198
 12.7576  25343.7  159.111
 12.7996  25613.9  158.56
 12.8416  25769.6  160.126
 12.8836  27267.1  164.512
 12.9256  26270.3  160.468
 12.9676  26223.1  160.768
 13.0096  25587.3  159.922
 13.0516  25881.5  159.858
 13.0936  25879.6  159.971
 13.1356  26057.9  159.773
 13.1776  26198.7  161.21
 13.2196  25919.7  160.012
 13.2616  25674.2  159.562
 13.3036  25610.2  159.497
 13.3456  25750.4  159.93
 13.3876  25815.3  159.618
 13.4296  26045.9  160.475
 13.4716  26104  160.255
 13.5136  26084.6  160.369
 13.5556  26280.1  161.591
 13.5976  25948.5  160.704
 13.6396  26559.8  161.943
 13.6816  25600.9  159.368
 13.7236  27086.6  163.676
 13.7656  25819.1  160.362
 13.8076  27222.6  163.378
 13.8496  26087  160.751
 13.8916  25979.7  161.279
 13.9336  25671.6  159.518
 13.9756  25513.3  158.346
 14.0176  25718.1  159.684
 14.0596  26827.8  163.075
 14.1016  25176  158.358
 14.1436  24597.8  155.655
 14.1856  24896.6  156.904
 14.2276  24852.1  157.266
 14.2696  25319.4  158.553
 14.3116  24556.5  156.055
 14.3536  23908.4  154.165
 14.3956  24112.8  154.543
 14.4376  23962.2  153.829
 14.4796  23872.8  153.54
 14.5216  23448.4  152.973
 14.5636  24329.2  155.358
 14.6056  23468.2  152.17
 14.6476  23347.4  150.984
 14.6896  22867.8  149.965
 14.7316  22496.6  149.791
 14.7736  22458.8  148.811
 14.8156  22270.1  148.228
 14.8576  22230  147.926
 14.8996  22233.5  149.186
 14.9416  21577.5  146.963
 14.9836  21746.7  147.488
 15.0256  21949.9  147.09
 15.0676  21518.2  145.962
 15.1096  21234.1  144.724
 15.1516  20954.9  144.349
 15.1936  21121.7  144.32
 15.2356  21055.9  144.388
 15.2776  20941.7  143.567
 15.3196  20585.2  143.375
 15.3616  20227  141.867
 15.4036  20255.1  141.829
 15.4456  20678  142.685
 15.4876  20260.4  141.153
 15.5296  20037.1  140.674
 15.5716  19525  138.452
 15.6136  19814.7  139.818
 15.6556  22944.6  149.602
 15.6976  20426.2  141.236
 15.7396  19908.7  140.062
 15.7816  19773.9  139.087
 15.8236  19057.4  137.251
 15.8656  19212.7  137.602
 15.9076  19073.6  136.92
 15.9496  19441.2  141.142
 15.9916  18571.5  138.441
 16.0336  18120.7  133.546
 16.0756  18370.1  134.78
 16.1176  18239.5  134.209
 16.1596  17821  134.026
 16.2016  17795.3  132.64
 16.2436  17678.2  132.609
 16.2856  17853.1  132.797
 16.3276  17037.2  130.138
 16.3696  17436.7  131.473
 16.4116  17042.2  130.454
 16.4536  17463.6  131.827
 16.4956  18300.1  134.672
 16.5376  17853.8  133.212
 16.5796  17197.1  130.07
 16.6216  17255.4  130.624
 16.6636  17351  131.132
 16.7056  16995.7  129.65
 16.7476  17096.8  129.707
 16.7896  17273  131.001
 16.8316  16916  129.589
 16.8736  17418.9  131.784
 16.9156  17511.6  132.472
 16.9576  17016.9  131.425
 16.9996  17170  132.514
 17.0416  17070.9  130.438
 17.0836  16732.8  128.888
 17.1256  16733.9  128.919
 17.1676  17498.7  131.835
 17.2096  17167.2  130.436
 17.2516  16721.6  128.806
 17.2936  16270.1  127.078
 17.3356  15789.2  125.206
 17.3776  15932.4  125.967
 17.4196  16391.1  127.438
 17.4616  16388.3  127.356
 17.5036  17189.1  130.82
 17.5456  15977.4  126.79
 17.5876  15725.8  124.816
 17.6296  15910.7  125.335
 17.6716  16249.6  127.271
 17.7136  16903.4  129.968
 17.7556  16118  127.204
 17.7976  16179.2  127.051
 17.8396  15952.8  125.775
 17.8816  15645.2  125.105
 17.9236  15409.9  123.979
 17.9656  15850  126.457
 18.0076  16601.1  128.795
 18.0496  17735.1  132.178
 18.0916  24563.9  156.236
 18.1336  20496.4  142.84
 18.1756  17506.6  131.474
 18.2176  18354.3  134.884
 18.2596  15874  125.187
 18.3016  16784.3  128.994
 18.3436  17356.6  131.44
 18.3856  15962.7  125.93
 18.4276  15668.2  124.439
 18.4696  16041.5  126.001
 18.5116  16067.2  126.419
 18.5536  15591  124.897
 18.5956  15774.9  125.163
 18.6376  15972.1  126.373
 18.6796  15248.6  122.782
 18.7216  15743  125.343
 18.7636  15086.9  122.602
 18.8056  14962.3  122.046
 18.8476  14735  121.441
 18.8896  14763.5  121.192
 18.9316  15209.9  122.819
 18.9736  14902.6  121.431
 19.0156  15875.7  125.737
 19.0576  15286.1  122.234
 19.0996  15153.9  122.438
 19.1416  15127.2  122.733
 19.1836  14787  120.931
 19.2256  14670.1  120.677
 19.2676  14748.1  121.093
 19.3096  14818.3  121.63
 19.3516  14598.9  120.501
 19.3936  15120.6  122.782
 19.4356  14769.8  121.154
 19.4776  14811.5  121.425
 19.5196  14680.8  120.716
 19.5616  14810.8  121.523
 19.6036  14813.4  120.882
 19.6456  14744.7  120.867
 19.6876  15550.5  123.759
 19.7296  14659.9  120.622
 19.7716  14682.1  120.719
 19.8136  14873.8  121.882
 19.8556  15348  123.27
 19.8976  15497.6  123.938
 19.9396  15200.9  122.31
 19.9816  15597.8  124.142
 20.0236  15851.6  125.383
 20.0656  15110.2  122.409
 20.1076  14510.3  120.419
 20.1496  14383  119.904
 20.1916  14771.4  120.97
 20.2336  14589.5  120.204
 20.2756  14535.7  120.415
 20.3176  14267  119.037
 20.3596  14562.4  120.236
 20.4016  14462.4  119.622
 20.4436  14392.2  119.916
 20.4856  14036.1  118.191
 20.5276  14147.6  119.125
 20.5696  14182.3  118.84
 20.6116  14298.4  119.505
 20.6536  14075.3  118.116
 20.6956  14000.6  117.873
 20.7376  14070.9  118.412
 20.7796  14016.6  117.857
 20.8216  14247.2  118.52
 20.8636  14449.5  119.733
 20.9056  16320.2  127.202
 20.9476  14404.8  119.324
 20.9896  15933.4  125.354
 21.0316  14496.3  119.472
 21.0736  14641.9  120.613
 21.1156  15183.7  122.995
 21.1576  14297.6  119.4
 21.1996  13938.6  117.873
 21.2416  13812.2  117.163
 21.2836  14241.4  118.921
 21.3256  13872.4  117.471
 21.3676  14046.2  117.742
 21.4096  14440.4  119.766
 21.4516  13937.3  117.476
 21.4936  13769.7  117.019
 21.5356  13951.4  117.735
 21.5776  14047.3  117.975
 21.6196  14084.3  118.147
 21.6616  13893.5  117.445
 21.7036  13800.7  116.833
 21.7456  13724.7  116.581
 21.7876  13474.3  115.256
 21.8296  13313.7  114.425
 21.8716  13485.1  115.403
 21.9136  13888.1  117.323
 21.9556  14100.2  117.869
 21.9976  13683.5  116.119
 22.0396  13579.2  115.941
 22.0816  13670.7  116.898
 22.1236  14150.8  118.361
 22.1656  13829.5  117.186
 22.2076  13755.6  116.281
 22.2496  13869  116.793
 22.2916  13683.3  115.885
 22.3336  13926.9  117.649
 22.3756  13672.2  116.297
 22.4176  13597.9  115.83
 22.4596  13394  115.563
 22.5016  13704.2  116.381
 22.5436  13665.6  116.079
 22.5856  13641.4  116.238
 22.6276  13525.6  115.887
 22.6696  13227.3  114.955
 22.7116  13525.9  115.75
 22.7536  13425.6  115.29
 22.7956  13669  115.636
 22.8376  13476.9  115.355
 22.8796  13408.9  114.862
 22.9216  13376.3  115.279
 22.9636  13324.8  114.19
 23.0056  13428.4  114.767
 23.0476  13693.3  116.497
 23.0896  13760.6  116.131
 23.1316  13807.5  116.785
 23.1736  13314.1  117.717
 23.2156  13356.7  115.091
 23.2576  13353.6  115.315
 23.2996  13212.1  114.477
 23.3416  13097.4  114.508
 23.3836  13211.2  114.192
 23.4256  13253.8  114.509
 23.4676  13424.3  114.95
 23.5096  13444.3  115.733
 23.5516  13189.3  113.893
 23.5936  13323.3  115.383
 23.6356  13732.4  116.808
 23.6776  13092.3  114.612
 23.7196  12968.8  113.52
 23.7616  13290.1  114.61
 23.8036  13223.4  114.366
 23.8456  13184  113.747
 23.8876  12779.3  112.352
 23.9296  12782  112.865
 23.9716  13035.5  113.149
 24.0136  13259.8  115.034
 24.0556  12767.6  112.615
 24.0976  12855  112.811
 24.1396  12878.8  115.656
 24.1816  12914.6  114.522
 24.2236  12849.6  113.499
 24.2656  12980.8  113.525
 24.3076  12887.4  113.362
 24.3496  13186.3  114.574
 24.3916  12915.3  113.433
 24.4336  12736.8  112.862
 24.4756  12673.3  112.446
 24.5176  12406.7  110.904
 24.5596  12378.3  111.102
 24.6016  12406.9  111.326
 24.6436  12455  111.01
 24.6856  12638.5  111.591
 24.7276  12781.3  112.547
 24.7696  12487.9  111.35
 24.8116  12551.1  111.836
 24.8536  12478.7  111.497
 24.8956  12177.3  109.879
 24.9376  12182.2  110.085
 24.9796  12208.4  110.317
 25.0216  12161.4  110.223
 25.0636  12445.1  111.138
 25.1056  12125.2  110.144
 25.1476  12207.1  112.518
 25.1896  12225.1  111.034
 25.2316  12074.6  109.454
 25.2736  12191.9  109.761
 25.3156  11843.3  108.253
 25.3576  11939.9  109.136
 25.3996  11975.2  109.266
 25.4416  12010.7  109.42
 25.4836  11793.3  108.966
 25.5256  11844.6  108.545
 25.5676  12078.4  109.335
 25.6096  11750.5  108.43
 25.6516  11857.8  108.403
 25.6936  11680.1  107.906
 25.7356  11784.4  108.527
 25.7776  11912.3  108.787
 25.8196  11777.2  108.326
 25.8616  11753.7  108.148
 25.9036  12132  109.315
 25.9456  11758.3  108.236
 25.9876  11459.6  106.779
 26.0296  11772.8  107.949
 26.0716  11568.5  107.355
 26.1136  12054.9  109.537
 26.1556  11957.8  108.342
 26.1976  11509.1  107.34
 26.2396  11712.5  107.668
 26.2816  11559.4  107.336
 26.3236  11686.4  108.002
 26.3656  11648.6  107.626
 26.4076  11647.7  107.835
 26.4496  13028.7  113.415
 26.4916  11690.3  107.519
 26.5336  11500.7  106.967
 26.5756  11422  106.478
 26.6176  11863.4  108.554
 26.6596  11449.4  106.964
 26.7016  11370.9  106.391
 26.7436  11203.7  105.691
 26.7856  11038.5  104.891
 26.8276  11229.5  105.749
 26.8696  11203.4  105.498
 26.9116  11269.3  105.75
 26.9536  11198.9  105.467
 26.9956  11185.9  105.436
 27.0376  11126.4  105.373
 27.0796  11217.2  105.578
 27.1216  11264  105.829
 27.1636  11078.2  105.118
 27.2056  11210.5  105.622
 27.2476  11102.4  105.12
 27.2896  10995.7  104.655
 27.3316  10909  104.013
 27.3736  10988.4  104.666
 27.4156  10909.6  104.131
 27.4576  11116.1  105.355
 27.4996  11012.8  104.439
 27.5416  11249.7  105.892
 27.5836  10939.4  104.235
 27.6256  11390.2  106.539
 27.6676  11217.8  105.748
 27.7096  10951.9  104.344
 27.7516  11873.5  108.81
 27.7936  11531.4  107.411
 27.8356  11358.2  106.204
 27.8776  11199.3  105.497
 27.9196  10988.1  104.346
 27.9616  11402.3  106.501
 28.0036  10953.6  104.36
 28.0456  10917  104.311
 28.0876  10936.9  104.501
 28.1296  10880.4  104.068
 28.1716  10818.5  103.773
 28.2136  10694.2  103.146
 28.2556  10614.6  102.879
 28.2976  10704.9  103.308
 28.3396  10949.4  104.261
 28.3816  10798.5  103.527
 28.4236  11115.8  105.204
 28.4656  10664.1  103.071
 28.5076  10498.7  101.894
 28.5496  10438.7  101.883
 28.5916  10499.6  101.979
 28.6336  10430  101.987
 28.6756  10692.7  102.442
 28.7176  10554.9  102.339
 28.7596  10319.7  101.094
 28.8016  10445  101.825
 28.8436  10450.5  102.011
 28.8856  10534.6  102.274
 28.9276  10569  102.69
 28.9696  10410.7  101.576
 29.0116  10251.8  100.965
 29.0536  10248.7  101.165
 29.0956  10467.9  101.957
 29.1376  10576.2  102.444
 29.1796  10357.9  101.419
 29.2216  10343.2  101.193
 29.2636  10320.1  101.065
 29.3056  10260.8  100.652
 29.3476  10270.9  101.238
 29.3896  10534.1  102.621
 29.4316  10536.2  101.95
 29.4736  10323.1  100.974
 29.5156  10562.2  102.057
 29.5576  10505  102.561
 29.5996  10367.4  101.113
 29.6416  10298.4  100.902
 29.6836  10334.6  101.004
 29.7256  10165.1  100.753
 29.7676  10407.4  101.583
 29.8096  10297.3  100.995
 29.8516  10086.3  100.295
 29.8936  10448.9  102.182
 29.9356  10192.6  100.666
 29.9776  10226.5  100.984
 30.0196  10382.9  101.123
 30.0616  10406.3  101.63
 30.1036  10273.5  100.804
 30.1456  10100.1  100.203
 30.1876  10088.6  100.11
 30.2296  10058.3  99.8974
 30.2716  10201.6  100.235
 30.3136  10090.9  100.3
 30.3556  10212.4  101.187
 30.3976  10121.4  102.332
 30.4396  10205.6  99.9743
 30.4816  10033.7  98.7078
 30.5236  9956.6  98.3471
 30.5656  9967.91  99.0773
 30.6076  10077  99.3876
 30.6496  9929.73  98.6981
 30.6916  9869.75  98.4905
 30.7336  9868.94  98.6465
 30.7756  9922.4  99.2311
 30.8176  9975.41  99.1833
 30.8596  9776.68  97.9522
 30.9016  9665.69  97.2724
 30.9436  9950.94  98.9209
 30.9856  9979.82  99.176
 31.0276  9804.16  97.8998
 31.0696  9871.45  98.6903
 31.1116  9883.3  98.8627
 31.1536  9947.13  99.0581
 31.1956  9897.12  98.9022
 31.2376  9633.79  97.586
 31.2796  9663.2  97.2618
 31.3216  9680.84  97.2956
 31.3636  9901.02  99.1161
 31.4056  9851.81  100.226
 31.4476  9938.21  98.4758
 31.4896  9815.19  98.383
 31.5316  10161.2  99.5166
 31.5736  10851.5  102.592
 31.6156  10569.4  101.277
 31.6576  10159.7  99.4127
 31.6996  10115.6  98.8547
 31.7416  9881.45  98.6482
 31.7836  9937.23  98.0545
 31.8256  9931.71  98.3891
 31.8676  9998.57  98.6373
 31.9096  9812.28  97.9409
 31.9516  9698.43  97.6665
 31.9936  9760.67  97.8097
 32.0356  9798.2  98.0661
 32.0776  9843.69  98.1718
 32.1196  9771.48  97.8107
 32.1616  9711.91  97.0432
 32.2036  9688.96  97.4522
 32.2456  9742.67  98.124
 32.2876  9682.54  97.1269
 32.3296  9612.3  96.9107
 32.3716  9659.06  97.2484
 32.4136  9679.63  97.574
 32.4556  9704.98  97.1208
 32.4976  9580.79  96.3803
 32.5396  9498.65  96.0013
 32.5816  9431.88  95.678
 32.6236  9492.03  96.1675
 32.6656  9556.44  97.0391
 32.7076  9498.07  96.3889
 32.7496  9523.47  96.1737
 32.7916  9372.88  95.3712
 32.8336  9556.22  96.4029
 32.8756  9554.8  96.2004
 32.9176  9592.07  96.7933
 32.9596  9491.02  96.3457
 33.0016  9519.35  96.2911
 33.0436  9426.84  95.9863
 33.0856  9362.94  95.727
 33.1276  9462  95.9753
 33.1696  9503.78  96.032
 33.2116  9567.3  96.5864
 33.2536  9329.39  95.3687
 33.2956  9309.01  95.3549
 33.3376  9231.15  94.7494
 33.3796  9402.27  95.768
 33.4216  9316.36  94.9135
 33.4636  9308.8  95.0319
 33.5056  9271.21  94.9251
 33.5476  9225.27  94.8481
 33.5896  9276.61  94.8538
 33.6316  9218.85  94.9023
 33.6736  9172.04  94.902
 33.7156  9185.05  95.0275
 33.7576  9219.16  94.8185
 33.7996  9275.31  94.8768
 33.8416  9149.28  94.4061
 33.8836  9229.27  94.5979
 33.9256  9227.5  94.6481
 33.9676  9360.82  95.2229
 34.0096  8946.87  93.4122
 34.0516  9041.25  93.5286
 34.0936  9133.94  94.2853
 34.1356  9221.78  94.4741
 34.1776  8995.14  93.3144
 34.2196  9032.68  93.6878
 34.2616  8969.24  93.5644
 34.3036  8931.53  93.5587
 34.3456  9064.08  93.9998
 34.3876  9115.89  94.3249
 34.4296  9044.9  93.5355
 34.4716  9166.19  94.3292
 34.5136  9070.59  94.0429
 34.5556  9014.41  94.0083
 34.5976  9202.47  94.8157
 34.6396  8993.15  93.3917
 34.6816  8998.87  93.5465
 34.7236  8894.36  92.7826
 34.7656  8926.25  93.1498
 34.8076  8881.33  93.2393
 34.8496  8927.51  93.3372
 34.8916  8934.06  93.245
 34.9336  9076.49  93.9455
 34.9756  9438.14  95.7488
 35.0176  9049.48  94.2658
 35.0596  8877.72  93.197
 35.1016  8898.9  93.0669
 35.1436  9048.7  93.5144
 35.1856  8733.61  91.9933
 35.2276  8840.98  92.7538
 35.2696  8920.14  93.3618
 35.3116  8815.95  92.9081
 35.3536  8853.13  92.833
 35.3956  8791.68  92.1751
 35.4376  8834.97  92.9861
 35.4796  8818.78  92.9613
 35.5216  8812.07  92.8007
 35.5636  8603.32  92.5261
 35.6056  8826.59  92.7094
 35.6476  8820.41  92.5821
 35.6896  8810.4  92.6998
 35.7316  8886.13  92.9897
 35.7736  8739.8  92.4188
 35.8156  8654.53  91.9717
 35.8576  8681.68  92.3649
 35.8996  8943.76  93.7098
 35.9416  8822.65  92.5669
 35.9836  8741.09  92.6044
 36.0256  8861.62  93.1533
 36.0676  8831.79  92.5176
 36.1096  8598.96  91.6503
 36.1516  8799.77  92.6063
 36.1936  8741.71  92.144
 36.2356  8680.59  92.4731
 36.2776  8595.94  91.4836
 36.3196  8661.67  91.5028
 36.3616  8662.14  91.6476
 36.4036  8641.62  91.602
 36.4456  8706.26  92.1605
 36.4876  8536.92  91.1812
 36.5296  8617.47  91.6569
 36.5716  8691.78  92.8446
 36.6136  8917.69  92.7892
 36.6556  8753.65  92.1261
 36.6976  8595.5  91.7991
 36.7396  8406.09  90.6085
 36.7816  8520.09  91.4985
 36.8236  8570.62  91.7062
 36.8656  8399.91  90.8314
 36.9076  8487.72  91.3296
 36.9496  8307.07  90.3708
 36.9916  8460.7  90.667
 37.0336  8491.71  91.1504
 37.0756  8597.21  91.5052
 37.1176  8260.66  90.0573
 37.1596  8324.27  90.3258
 37.2016  8327.03  90.518
 37.2436  8391.02  90.2016
 37.2856  8448.88  90.7898
 37.3276  8498.79  90.4013
 37.3696  8394.08  90.7398
 37.4116  8273.19  89.9843
 37.4536  8312.79  90.0623
 37.4956  8183.74  89.4083
 37.5376  8368.47  92.0242
 37.5796  8227.45  91.1787
 37.6216  8302.39  89.8312
 37.6636  8193.03  89.1311
 37.7056  8323.45  90.0316
 37.7476  8404.67  90.0005
 37.7896  8139.12  89.0701
 37.8316  8075.13  88.8824
 37.8736  8243.73  89.3245
 37.9156  8223.53  89.2048
 37.9576  8181.42  89.0349
 37.9996  8149.09  88.4276
 38.0416  8092.3  88.9297
 38.0836  8327.99  90.1178
 38.1256  8181.43  89.2903
 38.1676  8064.7  88.7765
 38.2096  8367.75  90.0367
 38.2516  8399.12  90.3305
 38.2936  8300.47  89.6843
 38.3356  8247.95  89.3259
 38.3776  8122.9  88.9065
 38.4196  8165.05  88.9866
 38.4616  8152.57  89.1688
 38.5036  8307.05  89.8476
 38.5456  8173  89.9708
 38.5876  8223.58  90.2766
 38.6296  8323.33  89.7751
 38.6716  8159.68  88.6842
 38.7136  8144.59  88.5466
 38.7556  8227.08  89.5089
 38.7976  8195.12  89.2637
 38.8396  8061.19  88.9935
 38.8816  8110.13  89.0467
 38.9236  8111.64  88.8593
 38.9656  8098.3  88.6928
 39.0076  8115.18  88.1886
 39.0496  8237.63  89.4038
 39.0916  8200.35  88.8356
 39.1336  8131.36  88.8873
 39.1756  8022.83  88.359
 39.2176  8093.84  89.2902
 39.2596  7987.89  88.6216
 39.3016  8214.99  89.4356
 39.3436  8033.71  88.8745
 39.3856  8052.95  88.422
 39.4276  8160.19  89.5147
 39.4696  8482.08  90.8682
 39.5116  8178.75  89.7566
 39.5536  8162.98  90.0854
 39.5956  8033.84  88.4799
 39.6376  7927.23  87.7167
 39.6796  7947.9  87.7504
 39.7216  8037.72  88.3375
 39.7636  7998.18  88.6956
 39.8056  7965.13  88.2926
 39.8476  8007.29  88.7826
 39.8896  8004.61  88.3922
 39.9316  7914.58  88.15
 39.9736  8127.41  88.8948
 40.0156  7939.66  87.6864
 40.0576  8070.71  88.7648
 40.0996  8027.15  87.7066
 40.1416  7929.42  87.9623
 40.1836  8021.09  88.358
 40.2256  8043.49  88.5192
 40.2676  7922.49  88.0254
 40.3096  8028.51  88.477
 40.3516  8076.2  88.9257
 40.3936  8102.85  88.5495
 40.4356  7940.03  87.8542
 40.4776  8133.16  89.1606
 40.5196  8082.54  89.1793
 40.5616  8068.71  88.7418
 40.6036  7933.44  88.2502
 40.6456  8019.35  88.3334
 40.6876  8092.92  88.726
 40.7296  8011.09  88.4115
 40.7716  7973.82  88.3127
 40.8136  7926.82  88.0166
 40.8556  8077.77  88.9812
 40.8976  8018.87  88.576
 40.9396  8014.17  88.9018
 40.9816  8111.09  88.7203
 41.0236  7993.34  87.8529
 41.0656  8088.38  88.9202
 41.1076  7998.23  88.1924
 41.1496  8075.86  88.526
 41.1916  7962.83  88.2304
 41.2336  7972.99  88.2771
 41.2756  8020.25  88.1399
 41.3176  7964.16  88.4454
 41.3596  7922.44  87.9459
 41.4016  7940.27  88.3013
 41.4436  7974.91  88.2821
 41.4856  7970.04  88.4179
 41.5276  7849.62  87.7658
 41.5696  8009.5  88.2656
 41.6116  7943.07  88.3129
 41.6536  7966.93  88.3042
 41.6956  8029.43  88.6295
 41.7376  8005.04  88.5937
 41.7796  7875.6  87.7992
 41.8216  7879.62  88.0189
 41.8636  7960.89  88.4133
 41.9056  7845.85  87.5582
 41.9476  7891.82  88.0511
 41.9896  7935.49  87.9595
 42.0316  7971.74  88.2456
 42.0736  7888.67  87.9191
 42.1156  7897.54  87.7782
 42.1576  8030.34  88.6137
 42.1996  7841.91  87.7129
 42.2416  7944.59  87.8619
 42.2836  7896.96  87.7154
 42.3256  7820.84  87.4031
 42.3676  7922.05  87.7713
 42.4096  7906.04  87.6456
 42.4516  7869.59  87.5299
 42.4936  7922.63  87.8926
 42.5356  7852.77  87.6367
 42.5776  7939.82  88.0628
 42.6196  7976.66  88.2421
 42.6616  7776.78  87.3767
 42.7036  7827.12  87.039
 42.7456  7776.21  87.1155
 42.7876  7853.27  87.6508
 42.8296  7832.03  87.4224
 42.8716  7742.17  87.0169
 42.9136  7734.24  86.7212
 42.9556  7854.28  87.5631
 42.9976  7842.12  87.4646
 43.0396  7793.16  86.9192
 43.0816  7762.17  87.107
 43.1236  7733.91  87.0261
 43.1656  7859.5  87.56
 43.2076  7615.99  86.289
 43.2496  7710.07  86.6381
 43.2916  7778.39  87.389
 43.3336  7752.01  87.0779
 43.3756  7738.44  86.7548
 43.4176  7679.18  86.5049
 43.4596  7638.91  86.1306
 43.5016  7741.34  87.116
 43.5436  7655.4  86.5272
 43.5856  7719.73  86.9103
 43.6276  7612.34  86.2084
 43.6696  7665.18  86.6502
 43.7116  7769.98  86.8524
 43.7536  7745.46  87.1974
 43.7956  7512.5  87.0414
 43.8376  7855.06  87.5492
 43.8796  7759.26  87.0978
 43.9216  7844.48  87.4944
 43.9636  7833.7  87.5373
 44.0056  7694.24  86.9912
 44.0476  7652.63  86.3833
 44.0896  7645.33  86.6888
 44.1316  7747.71  86.9313
 44.1736  7765.45  87.0124
 44.2156  7863.5  87.4081
 44.2576  7764.69  87.1891
 44.2996  7805.51  87.3863
 44.3416  7704.08  86.5625
 44.3836  7614.89  86.4051
 44.4256  7557.85  85.7184
 44.4676  7621.11  86.2293
 44.5096  7645.34  86.5214
 44.5516  7633.08  86.4059
 44.5936  7581.47  86.0745
 44.6356  7713.3  86.5554
 44.6776  7678.82  86.6848
 44.7196  7603.52  86.5155
 44.7616  7643.14  88.1256
 44.8036  7461.56  85.6896
 44.8456  7499.02  85.9041
 44.8876  7445.2  85.4495
 44.9296  7510.47  85.2888
 44.9716  7416.55  85.1886
 45.0136  7524.29  85.7321
 45.0556  7550.58  85.9518
 45.0976  7416.29  85.2578
 45.1396  7457.86  85.2644
 45.1816  7567.54  85.6293
 45.2236  7578.85  85.7607
 45.2656  7427.1  85.4117
 45.3076  7456.12  85.3719
 45.3496  7473.12  85.75
 45.3916  7369.59  85.4246
 45.4336  7282.36  84.7591
 45.4756  7430.52  85.4908
 45.5176  7393.55  84.8774
 45.5596  7532.15  85.8015
 45.6016  7314.42  84.9462
 45.6436  7272.17  83.9117
 45.6856  7375.21  85.1635
 45.7276  7263.71  86.3514
 45.7696  7351.34  86.0006
 45.8116  7468.88  86.1374
 45.8536  7236.95  84.6836
 45.8956  7417.83  85.0743
 45.9376  7361.46  84.2249
 45.9796  7222.18  84.0789
 46.0216  7344.62  85.1609
 46.0636  7391.05  84.5776
 46.1056  7374.14  84.4551
 46.1476  7294.39  84.5805
 46.1896  7312.63  84.8461
 46.2316  7323.29  84.7818
 46.2736  7144.94  83.9278
 46.3156  7246.14  84.265
 46.3576  7272.59  84.6352
 46.3996  7186.92  84.3002
 46.4416  7364.61  84.8954
 46.4836  7224.38  84.4531
 46.5256  7346.97  85.0888
 46.5676  7301.92  84.9472
 46.6096  7333.17  85.0797
 46.6516  7330.17  84.1014
 46.6936  7247.86  84.0933
 46.7356  7341.69  84.7674
 46.7776  7353.65  85.6606
 46.8196  7410.74  85.7441
 46.8616  7324.58  85.0323
 46.9036  7341.25  84.7985
 46.9456  7427.82  84.9344
 46.9876  7330.01  84.4455
 47.0296  7399.31  85.5332
 47.0716  7312.76  84.8451
 47.1136  7080.86  83.1946
 47.1556  7406.87  84.9566
 47.1976  7328.29  84.6611
 47.2396  7265.94  84.606
 47.2816  7295.42  84.4794
 47.3236  7295.9  84.8636
 47.3656  7413.86  85.4734
 47.4076  7315.5  84.6302
 47.4496  7234.15  84.3257
 47.4916  7252.16  84.6303
 47.5336  7348.3  84.9992
 47.5756  7382.87  85.2833
 47.6176  7294.6  84.7049
 47.6596  7235.98  84.0754
 47.7016  7334.57  84.47
 47.7436  7390.31  85.1385
 47.7856  7228.69  84.2211
 47.8276  7235.19  84.3107
 47.8696  7230.4  84.3579
 47.9116  7347.81  84.7436
 47.9536  7412.79  85.0607
 47.9956  7210.71  84.5823
 48.0376  7229.97  84.4952
 48.0796  7328.82  85.2029
 48.1216  7289.74  84.7926
 48.1636  7509.58  85.6284
 48.2056  7329.57  84.8605
 48.2476  7298.35  84.9795
 48.2896  7395.52  85.4588
 48.3316  7287.23  84.7751
 48.3736  7264.43  84.6595
 48.4156  7317.65  84.8149
 48.4576  7227.31  84.5843
 48.4996  7310.51  84.5303
 48.5416  7137.89  83.829
 48.5836  7290.31  84.4116
 48.6256  7205.71  84.1488
 48.6676  7239.66  84.8447
 48.7096  7369.65  84.8681
 48.7516  7255.6  84.3579
 48.7936  7189.69  84.0243
 48.8356  7334.47  84.9105
 48.8776  7265.17  85.0265
 48.9196  7368.36  85.0636
 48.9616  7310.45  85.1236
 49.0036  7170.77  84.6398
 49.0456  7140.05  84.4482
 49.0876  7352.64  85.3378
 49.1296  7185.09  84.4166
 49.1716  7255.54  84.6869
 49.2136  7315.52  84.9891
 49.2556  7457.96  85.816
 49.2976  7182.43  84.2817
 49.3396  7211.27  84.521
 49.3816  7214.82  83.9723
 49.4236  7247.2  84.5929
 49.4656  7256.94  84.6555
 49.5076  7301.72  84.6534
 49.5496  7270.13  84.4131
 49.5916  7254.78  84.3752
 49.6336  7143.85  83.9355
 49.6756  7144.4  84.1606
 49.7176  7241.81  84.6645
 49.7596  7180.98  84.2483
 49.8016  7314.9  84.7996
 49.8436  7258.2  84.757
 49.8856  7257.8  84.7482
 49.9276  7162.78  84.2988
 49.9696  7210.25  84.5653
 50.0116  7137.82  84.2925
 50.0536  7144.86  84.26
 50.0956  7182.13  84.5305
 50.1376  7133.58  83.9632
 50.1796  7143.42  84.2757
 50.2216  7099.35  84.0354
 50.2636  7232.36  84.412
 50.3056  7234.8  84.6059
 50.3476  7219.27  84.5486
 50.3896  7128.55  83.9744
 50.4316  7156.63  83.9731
 50.4736  7123.8  83.9961
 50.5156  7200.44  84.4536
 50.5576  7135.75  83.8276
 50.5996  7123.24  84.0244
 50.6416  7143.53  84.0813
 50.6836  7110.66  83.9565
 50.7256  7209.73  84.4734
 50.7676  7016.03  83.6006
 50.8096  7096.81  83.6503
 50.8516  7108.94  84.1393
 50.8936  7134.77  84.0702
 50.9356  7200.59  84.5635
 50.9776  7164.65  84.4862
 51.0196  7175.57  84.705
 51.0616  7173.1  84.006
 51.1036  7278.38  84.9849
 51.1456  7310.97  85.0863
 51.1876  7364.25  84.7065
 51.2296  7300.99  84.9957
 51.2716  7241.78  84.3481
 51.3136  7100.68  83.997
 51.3556  7243.59  84.4427
 51.3976  7139.82  83.9967
 51.4396  7047.45  83.7644
 51.4816  7165.63  84.3146
 51.5236  7223.58  84.7424
 51.5656  7174.76  84.0421
 51.6076  7304.33  84.8879
 51.6496  7217.57  84.5744
 51.6916  7210.84  84.9032
 51.7336  7161.51  84.7075
 51.7756  7177.77  84.4851
 51.8176  7117.41  84.2332
 51.8596  7045.19  83.8359
 51.9016  7264.4  84.7227
 51.9436  6913.73  84.1207
 51.9856  6793.32  83.8375
 52.0276  6898.42  82.9423
 52.0696  6867.84  82.8336
 52.1116  6958.76  83.4917
 52.1536  6906.09  83.0036
 52.1956  7000.05  83.0866
 52.2376  7030.74  83.4315
 52.2796  7009.46  83.1266
 52.3216  6753.45  82.2834
 52.3636  6909.18  82.8061
 52.4056  6896.79  82.5524
 52.4476  6934.13  83.1771
 52.4896  6765.5  82.2151
 52.5316  6854.4  82.7869
 52.5736  6897.83  82.7789
 52.6156  6857.97  82.9219
 52.6576  7036.37  83.4274
 52.6996  6761.13  82.747
 52.7416  6933.15  83.6519
 52.7836  6881.39  83.2094
 52.8256  7015.67  83.2241
 52.8676  6870.45  82.9441
 52.9096  6896.54  83.2068
 52.9516  6894.65  83.5764
 52.9936  6901.97  84.0287
 53.0356  6825.77  82.5418
 53.0776  6796.88  82.6498
 53.1196  6710.85  82.2341
 53.1616  6882.17  83.3207
 53.2036  6862.1  83.1499
 53.2456  6683.57  82.1647
 53.2876  6747.51  82.2705
 53.3296  6832.51  83.1231
 53.3716  6877.32  83.1203
 53.4136  6804.02  82.8309
 53.4556  6787.37  82.7619
 53.4976  6739.62  82.3247
 53.5396  6931.38  83.8997
 53.5816  6764.91  82.4983
 53.6236  6715.1  82.5454
 53.6656  6833.56  82.8944
 53.7076  6952.63  83.5732
 53.7496  6768.67  82.5817
 53.7916  6848.51  83.1922
 53.8336  6758.54  82.5322
 53.8756  6602.98  82.1506
 53.9176  6870.78  83.1256
 53.9596  6958.48  84.4279
 54.0016  6798.11  82.7781
 54.0436  6799.3  83.0003
 54.0856  6911.98  83.0931
 54.1276  6817.53  82.7201
 54.1696  6831.52  82.9964
 54.2116  6798.83  82.539
 54.2536  6792.86  82.3201
 54.2956  6924.84  83.1673
 54.3376  6691.48  82.2464
 54.3796  6872.19  83.2493
 54.4216  6885.28  83.3767
 54.4636  6864.77  83.2057
 54.5056  6797.8  82.6133
 54.5476  6720.61  82.4738
 54.5896  6797.48  82.7732
 54.6316  6825.75  82.805
 54.6736  6743.55  82.3318
 54.7156  6722.37  82.2649
 54.7576  6738.81  82.375
 54.7996  6773.26  82.7288
 54.8416  6870.7  83.3627
 54.8836  6622.85  81.965
 54.9256  6710.09  82.2383
 54.9676  6826.63  82.8043
 55.0096  6751.23  82.4289
 55.0516  6813.12  82.9774
 55.0936  6744.22  82.239
 55.1356  6751.83  82.331
 55.1776  6666.22  82.0819
 55.2196  6712.8  82.1352
 55.2616  6739.79  82.5244
 55.3036  6675.44  82.2992
 55.3456  6694.26  82.5623
 55.3876  6650.99  82.0427
 55.4296  6748.2  82.6071
 55.4716  6784.04  82.8652
 55.5136  6795.36  82.6742
 55.5556  6715.53  82.2629
 55.5976  6714.42  82.3136
 55.6396  6718.7  82.1985
 55.6816  6749.71  82.3502
 55.7236  6754.52  82.532
 55.7656  6762.21  82.2248
 55.8076  6845.25  82.7039
 55.8496  6674.99  82.103
 55.8916  6710.03  82.3941
 55.9336  6692.22  82.1325
 55.9756  6622.87  81.5868
 56.0176  6700.43  82.2197
 56.0596  6660.08  81.9573
 56.1016  6785.74  82.7763
 56.1436  6694.06  82.4547
 56.1856  6738.4  82.4529
 56.2276  6625.4  81.8175
 56.2696  6662.47  82.0071
 56.3116  6619.29  82.1721
 56.3536  6647.6  81.9933
 56.3956  6624.02  81.8351
 56.4376  6751.08  82.6381
 56.4796  6772.09  82.574
 56.5216  6719.68  82.6428
 56.5636  6746.84  82.3881
 56.6056  6647.07  82.004
 56.6476  6686.02  81.8689
 56.6896  6644.56  82.0732
 56.7316  6667.1  82.1212
 56.7736  6644.73  81.9822
 56.8156  6643.77  81.9663
 56.8576  6680.77  82.1392
 56.8996  6660.59  81.9591
 56.9416  6698.36  82.3561
 56.9836  6580.84  81.2646
 57.0256  6581.73  81.6056
 57.0676  6609.7  81.9081
 57.1096  6760.3  82.6133
 57.1516  6746.99  82.5584
 57.1936  6678.77  81.9104
 57.2356  6702.6  82.3991
 57.2776  6644.6  81.9906
 57.3196  6709.16  82.7791
 57.3616  6553.88  81.2813
 57.4036  6602.79  81.6556
 57.4456  6636.81  81.8277
 57.4876  6673.17  81.9019
 57.5296  6594.74  81.6681
 57.5716  6583.55  81.6905
 57.6136  6768.37  82.6417
 57.6556  6634.86  81.9711
 57.6976  6692.91  82.1398
 57.7396  6633.18  82.1636
 57.7816  6519.1  81.8146
 57.8236  6697.55  82.7231
 57.8656  6671.24  82.1996
 57.9076  6627.19  81.9593
 57.9496  6678.85  82.6418
 57.9916  6606.91  81.6276
 58.0336  6722.96  82.6886
 58.0756  6722.79  82.2654
 58.1176  6617.27  81.6567
 58.1596  6621.03  82.2607
 58.2016  6690.48  81.9141
 58.2436  6780.07  82.8644
 58.2856  6744.48  82.5734
 58.3276  6694.47  82.6597
 58.3696  6710.99  82.5004
 58.4116  6670.05  82.1065
 58.4536  6825.67  82.9414
 58.4956  6643.65  82.0097
 58.5376  6790.3  82.4596
 58.5796  6617.18  81.8386
 58.6216  6745.5  82.4437
 58.6636  6707.03  82.4272
 58.7056  6777.5  82.7099
 58.7476  6690.89  82.6469
 58.7896  6702.34  82.3438
 58.8316  6715.19  82.4196
 58.8736  6847.4  83.2366
 58.9156  6664.03  82.1588
 58.9576  6641.14  82.2405
 58.9996  6865.53  82.9397
 59.0416  6769.25  82.7334
 59.0836  6800.71  82.8267
 59.1256  6729.65  82.8209
 59.1676  6660.12  83.0389
 59.2096  6701.43  82.5592
 59.2516  6898.78  83.3183
 59.2936  6681.53  82.341
 59.3356  6656.01  82.0553
 59.3776  6720.78  82.6318
 59.4196  6709.34  82.4939
 59.4616  6690.67  82.2317
 59.5036  6688.52  82.2559
 59.5456  6895.69  83.1923
 59.5876  6757.93  82.5592
 59.6296  6688.59  82.2074
 59.6716  6497.93  81.0874
 59.7136  6705.38  82.3592
 59.7556  6675.14  82.3167
 59.7976  6698.5  82.1891
 59.8396  6621.29  81.6034
 59.8816  6686.74  82.5797
 59.9236  6713.89  82.3713
 59.9656  6628.5  82.1191
 60.0076  6703.12  81.9029
 60.0496  6773.1  82.8629
 60.0916  6722.6  81.9395
 60.1336  6691.56  82.9155
 60.1756  6593.02  83.54
 60.1996  0.0000000E+00  0.0000000E+00