File: docs/examples/opeando_xrd/IS17_D/Data/IS17_D_fresh/17_D_fresh_f00009.xye
# /beamlines/bl04/projects/cycle2025-II/20250340211-lsimonelli/DATA/IS17_D_fresh/17_D_fresh_f00009.xye : mythproc.py merge -s 0.006 -l 0.5 -f /beamlines/bl04/inhouse/ff/FlatField/ff_20Nov2024rod8mm60s_17keV.raw -b True -c true -o xye /beamlines/bl04/projects/cycle2025-II/20250340211-lsimonelli/DATA/IS17_D_fresh/17_D_fresh_00009.dat
# IsMon = [6785564, 6790569, 6789166]  IsPos = [-1.4999, -2.4884, -3.4988]
# Wave = 0.4962  CalPath /beamlines/bl04/projects/cycle2025-II/20250340211-lsimonelli/DATA/Align/Si_Pos1_25keV_f00001.cal
# Date = 2025-09-25_03:21:54 Dt = 4.8000  Bin = 0.0060  <imon> = 6788433 +/- 2108 (Min/Max) 6785564 / 6790569
# icurr 252.1271  mocoIn 1.7202E-05  mocoOut 0.8066  i15 7.10599e+06  imon 6.78843e+06  i7 6.6667  iEMpd_timer 4.8000  iEMpd_1 3.5229E-08  iEMpd_2 7.9096E-08  iEMpd_3 1.7367E-08  iEMpd_4 4.8467E-08  iEMhp_timer 4.8000  iEMhp_1 4.9263E-06  iEMhp_2 -2.5139E-08  iEMhp_3 -2.5193E-08  iEMhp_4 -2.1774E-08
#      9776
 1.5856  39376.4  203.804
 1.6276  46880.6  218.562
 1.6696  53730.8  233.161
 1.7116  61996.1  250.943
 1.7536  71418.1  268.19
 1.7956  76282  277.865
 1.8376  72557.9  271.426
 1.8796  60685.4  246.401
 1.9216  48977.1  222.243
 1.9636  41501  203.74
 2.0056  37360.4  192.56
 2.0476  34492.4  187.05
 2.0896  33063.5  182.06
 2.1316  32743.6  180.307
 2.1736  30934.4  176.645
 2.2156  31956.2  178.098
 2.2576  30405.6  174.344
 2.2996  29352  171.927
 2.3416  29514.2  171.026
 2.3836  29081.4  169.872
 2.4256  28077.1  167.457
 2.4676  27989.1  166.957
 2.5096  27562  165.732
 2.5516  27427.6  169.136
 2.5936  27475.5  165.857
 2.6356  26583.9  163.831
 2.6776  26812.1  163.4
 2.7196  26359.3  162.549
 2.7616  26510.6  162.787
 2.8036  26109.4  161.728
 2.8456  26115  162.366
 2.8876  25540.3  160.437
 2.9296  25162.4  159.381
 2.9716  25109.7  158.695
 3.0136  24867  157.992
 3.0556  24908  158.531
 3.0976  24801.7  157.124
 3.1396  24686.6  157.481
 3.1816  24382.7  156.439
 3.2236  24147.8  155.686
 3.2656  24404  155.516
 3.3076  24153.4  156.198
 3.3496  24296.6  155.58
 3.3916  24555.9  156.24
 3.4336  25304.7  159.192
 3.4756  25403.7  159.426
 3.5176  26421.8  162.389
 3.5596  26124.2  163.927
 3.6016  26471.1  162.587
 3.6436  25583.6  160.946
 3.6856  25158.8  157.881
 3.7276  24433  156.695
 3.7696  24211.9  156.192
 3.8116  23864.9  154.948
 3.8536  23865.4  154.888
 3.8956  23839.4  154.621
 3.9376  23799.7  154.749
 3.9796  23669.6  153.828
 4.0216  23923.2  153.656
 4.0636  23801.2  154.782
 4.1056  23853.3  154.572
 4.1476  23802.4  154.741
 4.1896  24203.9  155.891
 4.2316  24256.7  155.887
 4.2736  24887.8  157.678
 4.3156  25106.8  158.603
 4.3576  25763.5  160.6
 4.3996  26224.6  162.285
 4.4416  26600  163.021
 4.4836  27223.2  165.066
 4.5256  27625.8  166.923
 4.5676  27730.1  167.493
 4.6096  27895.6  166.631
 4.6516  28545.3  168.257
 4.6936  28747  169.679
 4.7356  28805.7  169.678
 4.7776  28986.1  170.032
 4.8196  28536.2  169.383
 4.8616  28168.4  167.743
 4.9036  27783  166.35
 4.9456  27779.3  166.995
 4.9876  27107.7  164.862
 5.0296  27473  165.773
 5.0716  27532.6  166.757
 5.1136  27754.3  167.132
 5.1556  28080.5  167.549
 5.1976  28201.1  167.915
 5.2396  28671.5  168.996
 5.2816  28447  168.81
 5.3236  28937.4  169.949
 5.3656  28135.8  168.519
 5.4076  28002.2  168.274
 5.4496  28231  168.419
 5.4916  28352.1  168.541
 5.5336  28400.5  168.688
 5.5756  28186.6  168.095
 5.6176  28415.4  168.186
 5.6596  28404  169.164
 5.7016  29019  170.213
 5.7436  29263.2  171.209
 5.7856  28828.8  169.998
 5.8276  29555.3  171.831
 5.8696  29484.2  171.807
 5.9116  29598  172.767
 5.9536  29625.6  172.594
 5.9956  29872.1  172.649
 6.0376  30268  174.449
 6.0796  30272.2  174.292
 6.1216  30536  175.254
 6.1636  30525.4  174.262
 6.2056  30698.3  175.438
 6.2476  30802.9  175.603
 6.2896  31085.2  176.083
 6.3316  31051  176.169
 6.3736  31148.7  176.332
 6.4156  31162.5  176.27
 6.4576  31493.5  176.787
 6.4996  31781.1  178.088
 6.5416  31397.2  177.156
 6.5836  31738.3  178.346
 6.6256  31763.6  177.968
 6.6676  32533.6  179.667
 6.7096  32282  179.861
 6.7516  32640.5  180.486
 6.7936  32908.3  180.645
 6.8356  33294.5  181.775
 6.8776  33574.3  183.367
 6.9196  33473.4  183.512
 6.9616  34041.8  184.481
 7.0036  34451.3  185.222
 7.0456  34291.1  184.067
 7.0876  34641.8  186.769
 7.1296  34322.4  185.009
 7.1716  34178.6  184.144
 7.2136  34376.1  184.446
 7.2556  34519.8  185
 7.2976  34610.3  185.763
 7.3396  34562.2  185.842
 7.3816  34409.2  185.665
 7.4236  34897.8  186.238
 7.4656  35319  186.824
 7.5076  35328.1  186.983
 7.5496  35175  187.141
 7.5916  35405.3  187.781
 7.6336  35744.4  188.572
 7.6756  36098.2  189.35
 7.7176  36265.7  190.1
 7.7596  36330.5  191.595
 7.8016  36644.8  194.694
 7.8436  37448  193.302
 7.8856  37687.9  193.506
 7.9276  38338.5  195.597
 7.9696  38503.4  196.341
 8.0116  39868.7  198.242
 8.0536  39764.6  198.24
 8.0956  39777.4  199.527
 8.1376  40208.8  200.05
 8.1796  40598.2  201.579
 8.2216  41604.1  202.731
 8.2636  41543.1  202.846
 8.3056  41629.5  203.874
 8.3476  42309.7  204.818
 8.3896  41689.9  203.398
 8.4316  42007.7  204.344
 8.4736  42111.9  204.039
 8.5156  41741  203.427
 8.5576  41748.9  204.469
 8.5996  41998.4  203.892
 8.6416  41827.8  204.813
 8.6836  41642.5  204.186
 8.7256  42410.1  205.464
 8.7676  41329.5  205.898
 8.8096  41228.4  202.822
 8.8516  41066.2  202.02
 8.8936  40604.5  200.754
 8.9356  40241.7  200.227
 8.9776  41114.9  202.498
 9.0196  40325.1  200.205
 9.0616  40462.8  199.969
 9.1036  40215.4  200.61
 9.1456  40466.7  200.561
 9.1876  40207  199.869
 9.2296  40659.9  200.347
 9.2716  40006.5  198.809
 9.3136  39875.8  198.466
 9.3556  40109  199.024
 9.3976  38527.2  195.628
 9.4396  39343.2  197.563
 9.4816  38713.1  195.843
 9.5236  38558.4  195.351
 9.5656  38485.4  195.487
 9.6076  38450.4  195.974
 9.6496  37974.5  194.685
 9.6916  38148.1  195.094
 9.7336  38215.8  195.036
 9.7756  38594.6  197.331
 9.8176  37637.8  194.334
 9.8596  37774.6  193.026
 9.9016  37221.4  191.605
 9.9436  36926.5  190.745
 9.9856  36387.8  189.57
 10.0276  36210.8  190.314
 10.0696  36325.3  189.584
 10.1116  35361.2  187.333
 10.1536  35121.8  186.875
 10.1956  34817.4  185.633
 10.2376  34154.5  183.344
 10.2796  34343.2  183.972
 10.3216  34246  183.996
 10.3636  34048.9  183.498
 10.4056  33623.8  182.758
 10.4476  33044.1  180.794
 10.4896  33360.4  181.087
 10.5316  32720.6  180.086
 10.5736  32626.8  180.262
 10.6156  31889.7  177.981
 10.6576  32526.4  178.207
 10.6996  31977.1  177.395
 10.7416  31588.2  176.575
 10.7836  32076.4  178.668
 10.8256  31302.6  176.964
 10.8676  31793.2  177.835
 10.9096  30956.3  175.538
 10.9516  30788.9  173.913
 10.9936  30782.2  174.113
 11.0356  30649.2  174.407
 11.0776  30519.2  173.306
 11.1196  29878.8  172.261
 11.1616  29940.6  172.114
 11.2036  29950.9  171.993
 11.2456  29928.2  172.673
 11.2876  29722  171.806
 11.3296  29356.6  170.618
 11.3716  29700.2  171.3
 11.4136  29722.7  172.31
 11.4556  29914.3  172.518
 11.4976  30321.8  172.584
 11.5396  30899.3  174.395
 11.5816  30443.2  173.61
 11.6236  29878.8  172.221
 11.6656  29372.2  169.867
 11.7076  28957.7  169.549
 11.7496  28517.5  172.43
 11.7916  28457.6  167.304
 11.8336  28385.2  168.019
 11.8756  27956.4  166.261
 11.9176  28220.1  166.658
 11.9596  27568  164.952
 12.0016  27853.5  166.637
 12.0436  27576.5  165.192
 12.0856  27377.5  165.151
 12.1276  27526.5  165.509
 12.1696  27448.2  164.361
 12.2116  27733.9  165.2
 12.2536  27231.9  164.587
 12.2956  27309.1  164.108
 12.3376  26925.8  163.182
 12.3796  27433.6  165.189
 12.4216  27300.1  163.958
 12.4636  27028.1  164.097
 12.5056  27160.5  163.747
 12.5476  27311  163.7
 12.5896  27381.4  164.566
 12.6316  26839.3  163.116
 12.6736  26898.2  163.797
 12.7156  26891.8  163.647
 12.7576  27019.3  164.285
 12.7996  27312.4  163.729
 12.8416  26946.7  163.745
 12.8836  27571.4  165.443
 12.9256  27789.7  165.057
 12.9676  27931.9  165.92
 13.0096  27272  165.116
 13.0516  27788.9  165.646
 13.0936  27706.2  165.826
 13.1356  27992.9  165.603
 13.1776  27729.9  165.874
 13.2196  27852.3  165.871
 13.2616  27707.9  165.766
 13.3036  27934  166.41
 13.3456  27873.9  166.613
 13.3876  27612.8  165.092
 13.4296  27653.6  165.361
 13.4716  27717.7  165.135
 13.5136  27695.7  165.247
 13.5556  27872.5  166.415
 13.5976  27832.9  166.442
 13.6396  28073.9  166.497
 13.6816  27768.1  166.114
 13.7236  27931.4  166.243
 13.7656  27117.3  164.354
 13.8076  27543.3  164.336
 13.8496  27278.7  164.193
 13.8916  27329.2  165.412
 13.9336  27418.7  164.852
 13.9756  27055.4  163.072
 14.0176  27123.3  163.995
 14.0596  26764.9  162.882
 14.1016  26694.5  163.062
 14.1436  26391.1  161.234
 14.1856  26286.3  161.229
 14.2276  25870.6  160.466
 14.2696  26334.3  161.72
 14.3116  25951.9  160.436
 14.3536  25528.8  159.308
 14.3956  25575.1  159.161
 14.4376  25637.7  159.124
 14.4796  25525.2  158.764
 14.5216  25060.5  158.155
 14.5636  25127.5  157.904
 14.6056  25091.5  157.354
 14.6476  25147.2  156.706
 14.6896  24824  156.259
 14.7316  24226.2  155.454
 14.7736  24471.5  155.331
 14.8156  23908.9  153.586
 14.8576  23752  152.911
 14.8996  23343.9  152.865
 14.9416  23043.6  151.878
 14.9836  23114.5  152.067
 15.0256  23094.1  150.862
 15.0676  23112.7  151.257
 15.1096  22968.2  150.505
 15.1516  22663.5  150.099
 15.1936  22386.5  148.567
 15.2356  22242.1  148.387
 15.2776  22227.5  147.897
 15.3196  21823.4  147.613
 15.3616  21690.1  146.904
 15.4036  21678.2  146.715
 15.4456  21914.9  147.132
 15.4876  21305.6  144.735
 15.5296  21511.7  145.74
 15.5716  20868.9  143.125
 15.6136  21011.2  143.956
 15.6556  20948.2  142.933
 15.6976  20796.8  142.726
 15.7396  20652.5  142.654
 15.7816  20533.9  141.718
 15.8236  20215.7  141.355
 15.8656  20398.4  141.77
 15.9076  19858.4  139.69
 15.9496  19632.6  141.828
 15.9916  19714.5  142.623
 16.0336  19269.5  137.742
 16.0756  19425.5  138.62
 16.1176  19248.6  138.062
 16.1596  18916.9  138.104
 16.2016  19264.7  138.032
 16.2436  18898.5  137.123
 16.2856  18686.2  135.876
 16.3276  18365.8  135.136
 16.3696  18759  136.391
 16.4116  18639.4  136.445
 16.4536  18604.2  136.082
 16.4956  18479.6  135.36
 16.5376  18394.7  135.241
 16.5796  18350.9  134.402
 16.6216  18530.2  135.384
 16.6636  18168.4  134.21
 16.7056  18450.4  135.108
 16.7476  18224.9  133.777
 16.7896  18217.8  134.555
 16.8316  18463  135.417
 16.8736  18195.1  134.708
 16.9156  18161.6  134.933
 16.9576  18204.3  135.933
 16.9996  18333  136.934
 17.0416  18545.2  135.947
 17.0836  18453.8  135.366
 17.1256  17936.8  133.465
 17.1676  17952.1  133.527
 17.2096  17834.2  132.951
 17.2516  17726.9  132.318
 17.2936  17837.9  133.064
 17.3356  17398.6  131.421
 17.3776  17386.2  131.59
 17.4196  17594  132.037
 17.4616  17437.7  131.369
 17.5036  17251.4  131.04
 17.5456  16982.7  130.712
 17.5876  17102  130.149
 17.6296  17057.3  129.787
 17.6716  16944.5  129.958
 17.7136  16794  129.547
 17.7556  16783.6  129.804
 17.7976  16754.7  129.428
 17.8396  16407.6  127.547
 17.8816  16783.3  129.561
 17.9236  16484.2  128.221
 17.9656  16808.2  130.04
 18.0076  16542.3  128.567
 18.0496  16619.6  127.952
 18.0916  16545.1  128.234
 18.1336  16493.9  128.139
 18.1756  16714  128.493
 18.2176  16251.5  126.935
 18.2596  16390.7  127.197
 18.3016  16431.3  127.63
 18.3436  16586.5  128.228
 18.3856  16107.4  126.516
 18.4276  16297.5  126.902
 18.4696  16233.6  126.767
 18.5116  16341.9  127.494
 18.5536  16297  127.698
 18.5956  16052.1  126.259
 18.6376  16138.5  127.02
 18.6796  16113.8  126.218
 18.7216  16103.5  126.682
 18.7636  15888  125.83
 18.8056  15966.9  126.078
 18.8476  15914.7  126.534
 18.8896  15980.9  126.096
 18.9316  16087.9  126.498
 18.9736  15954.6  125.65
 19.0156  15815.4  125.524
 19.0576  15824.3  124.374
 19.0996  16083.2  126.139
 19.1416  15655.3  124.864
 19.1836  15913.6  125.458
 19.2256  15610.2  124.484
 19.2676  15835.4  125.479
 19.3096  15933.9  126.123
 19.3516  15624  124.852
 19.3936  15846  125.628
 19.4356  15757.6  125.148
 19.4776  15661  124.854
 19.5196  15888.6  125.601
 19.5616  15684.8  125.065
 19.6036  15797.5  124.985
 19.6456  15680.9  124.655
 19.6876  15837.2  124.894
 19.7296  15720.4  124.911
 19.7716  15638.4  124.751
 19.8136  15892  125.997
 19.8556  15997.5  125.853
 19.8976  15850.6  125.342
 19.9396  16080.1  125.787
 19.9816  16420.9  127.375
 20.0236  16474.9  127.828
 20.0656  16653.6  128.505
 20.1076  16293.4  127.616
 20.1496  16077.2  126.772
 20.1916  15893.8  125.532
 20.2336  15883.2  125.421
 20.2756  15472.1  124.235
 20.3176  15372.2  123.564
 20.3596  15453.9  123.864
 20.4016  15242.9  122.811
 20.4436  15350.4  123.828
 20.4856  15154  122.823
 20.5276  15184.3  123.425
 20.5696  15114.1  122.575
 20.6116  15073.2  122.702
 20.6536  15111.4  122.323
 20.6956  15040.5  122.172
 20.7376  15019.1  122.332
 20.7796  14907.6  121.541
 20.8216  14996.9  121.6
 20.8636  14756.5  121.01
 20.9056  14955.6  121.759
 20.9476  14678.6  120.474
 20.9896  15115.1  122.107
 21.0316  15189.3  122.29
 21.0736  14923.7  121.771
 21.1156  14877.8  121.749
 21.1576  14864.3  121.741
 21.1996  14763.5  121.316
 21.2416  14717.7  120.947
 21.2836  14792.3  121.213
 21.3256  14582.3  120.449
 21.3676  14733.4  120.589
 21.4096  14569.5  120.24
 21.4516  14517.1  119.9
 21.4936  14423.5  119.768
 21.5356  14595.1  120.426
 21.5776  14797.1  121.076
 21.6196  14516.8  119.955
 21.6616  14436.7  119.725
 21.7036  14348.6  119.136
 21.7456  14546.9  120.025
 21.7876  14485.3  119.497
 21.8296  14397.3  118.996
 21.8716  14349.3  119.045
 21.9136  14685.7  120.639
 21.9556  14328  118.819
 21.9976  14252.8  118.516
 22.0396  14271.1  118.872
 22.0816  14463.3  120.245
 22.1236  14493.1  119.785
 22.1656  14450  119.729
 22.2076  14406.5  118.992
 22.2496  14536.2  119.548
 22.2916  14354.8  118.678
 22.3336  14416.5  119.705
 22.3756  14386.1  119.28
 22.4176  14159  118.187
 22.4596  14110.2  118.609
 22.5016  14165.2  118.309
 22.5436  14477.7  119.473
 22.5856  14422.1  119.507
 22.6276  14326.1  119.249
 22.6696  14282  119.443
 22.7116  14232.8  118.719
 22.7536  14350.6  119.185
 22.7956  14224.1  117.941
 22.8376  14235.2  118.554
 22.8796  14308.9  118.644
 22.9216  14268  119.057
 22.9636  14259.2  118.117
 23.0056  13993  117.149
 23.0476  14466.1  119.728
 23.0896  14433.2  118.923
 23.1316  14486.8  119.614
 23.1736  14212.5  121.618
 23.2156  14173.2  118.659
 23.2576  13891.9  117.623
 23.2996  14162  118.534
 23.3416  13852  117.773
 23.3836  14006.3  117.624
 23.4256  13932.7  117.442
 23.4676  13982.8  117.33
 23.5096  13878.7  117.604
 23.5516  13958.1  117.184
 23.5936  13999  118.305
 23.6356  14074.2  118.269
 23.6776  14045.8  118.377
 23.7196  13591.9  116.004
 23.7616  14000.2  117.648
 23.8036  13977.5  117.6
 23.8456  13921.3  116.905
 23.8876  13550.9  115.713
 23.9296  13564.5  116.286
 23.9716  13811.9  116.482
 24.0136  13730  117.086
 24.0556  13644.4  116.444
 24.0976  13610.9  116.096
 24.1396  13495.2  118.404
 24.1816  13652.5  117.404
 24.2236  13513  116.387
 24.2656  13456.8  115.587
 24.3076  13264.8  114.999
 24.3496  13485.6  115.85
 24.3916  13297.4  115.098
 24.4336  13354.1  115.567
 24.4756  13471.5  115.923
 24.5176  13092.3  113.924
 24.5596  12950.4  113.439
 24.6016  12994.7  113.929
 24.6436  13015  113.483
 24.6856  13031  113.3
 24.7276  13015.7  113.563
 24.7696  13018.9  113.699
 24.8116  12934.6  113.525
 24.8536  12987.5  113.741
 24.8956  12706.4  112.243
 24.9376  12706.4  112.175
 24.9796  12619.4  112.156
 25.0216  12439.8  111.484
 25.0636  12661  112.099
 25.1056  12492.4  112.091
 25.1476  12594.9  114.3
 25.1896  12637.1  112.882
 25.2316  12644.1  112.142
 25.2736  12423.9  110.797
 25.3156  12385.2  110.714
 25.3576  12385  111.15
 25.3996  12539.7  111.831
 25.4416  12462.1  111.448
 25.4836  12276.9  111.181
 25.5256  12340.9  110.801
 25.5676  12417.5  110.852
 25.6096  12251.8  110.721
 25.6516  12335.8  110.567
 25.6936  12159.4  110.101
 25.7356  12207.5  110.464
 25.7776  12315.7  110.538
 25.8196  12186.8  110.193
 25.8616  12198.4  110.174
 25.9036  12370.9  110.391
 25.9456  12204.5  110.266
 25.9876  12097  109.847
 26.0296  12293.1  110.215
 26.0716  12136.6  109.962
 26.1136  12097  109.724
 26.1556  12279.9  109.891
 26.1976  12069.8  109.927
 26.2396  12132.2  109.32
 26.2816  12204.2  110.289
 26.3236  12169.3  110.293
 26.3656  12072.9  109.572
 26.4076  12202.4  110.381
 26.4496  13955.9  117.308
 26.4916  12177.4  109.734
 26.5336  12038.5  109.442
 26.5756  11868.6  108.545
 26.6176  12082.6  109.549
 26.6596  11856.9  108.851
 26.7016  11983.7  109.164
 26.7436  11754.8  108.265
 26.7856  11848.9  108.674
 26.8276  11862.2  108.692
 26.8696  11822.6  108.378
 26.9116  11800.3  108.207
 26.9536  11764.2  108.082
 26.9956  11815.5  108.36
 27.0376  11666.9  107.919
 27.0796  11787.4  108.175
 27.1216  11514.8  107.006
 27.1636  11523.7  107.215
 27.2056  11633  107.597
 27.2476  11648.2  107.674
 27.2896  11662.3  107.85
 27.3316  11713.1  107.771
 27.3736  11624.9  107.659
 27.4156  11447.4  106.675
 27.4576  11414.5  106.76
 27.4996  11533.6  106.889
 27.5416  11494.9  107.039
 27.5836  11446  106.616
 27.6256  11966.6  109.202
 27.6676  11662.5  107.807
 27.7096  11260.7  105.808
 27.7516  11411.1  106.668
 27.7936  11299.2  106.33
 27.8356  11338.9  106.116
 27.8776  11253.2  105.753
 27.9196  11422.9  106.391
 27.9616  11462.1  106.778
 28.0036  11313.7  106.062
 28.0456  11283.4  106.046
 28.0876  11220.9  105.849
 28.1296  11242.7  105.783
 28.1716  11065.4  104.964
 28.2136  11313.1  106.091
 28.2556  10986.2  104.666
 28.2976  11135.3  105.36
 28.3396  11118  105.026
 28.3816  11147.6  105.19
 28.4236  11189.7  105.545
 28.4656  10949.7  104.449
 28.5076  11088.4  104.719
 28.5496  11081.3  104.974
 28.5916  11157.3  105.13
 28.6336  10973.2  104.613
 28.6756  11026.6  104.029
 28.7176  11008.9  104.517
 28.7596  10875.3  103.78
 28.8016  11129.2  105.019
 28.8436  10908.8  104.232
 28.8856  11019  104.599
 28.9276  10937.5  104.473
 28.9696  10900.6  103.938
 29.0116  10902  104.134
 29.0536  10766.7  103.7
 29.0956  10842.8  103.771
 29.1376  10794.8  103.499
 29.1796  10827.9  103.701
 29.2216  10744.8  103.136
 29.2636  10948.7  104.194
 29.3056  10743  102.99
 29.3476  10830.9  103.962
 29.3896  10855.9  104.184
 29.4316  10995.4  104.139
 29.4736  10865  103.586
 29.5156  10920.3  103.771
 29.5576  10776.9  103.864
 29.5996  10989.4  104.094
 29.6416  10835.5  103.484
 29.6836  10749  102.997
 29.7256  10775  103.72
 29.7676  10834  103.648
 29.8096  10740.9  103.139
 29.8516  10636.4  102.989
 29.8936  10723.8  103.508
 29.9356  10786.5  103.549
 29.9776  10760.4  103.577
 30.0196  10767.9  102.972
 30.0616  10694.1  103.017
 30.1036  10812.2  103.394
 30.1456  10667.1  102.949
 30.1876  10756.9  103.354
 30.2296  10592.1  102.512
 30.2716  10781.4  103.035
 30.3136  10671.7  103.419
 30.3556  10657.6  103.371
 30.3976  10492.9  104.18
 30.4396  10713.8  102.446
 30.4816  10499.5  100.995
 30.5236  10456.2  100.807
 30.5656  10525.7  101.821
 30.6076  10482.6  101.017
 30.6496  10486.2  101.441
 30.6916  10449.8  101.358
 30.7336  10388.2  101.221
 30.7756  10393.7  101.339
 30.8176  10486.3  101.706
 30.8596  10525.6  101.654
 30.9016  10475  101.766
 30.9436  10495.4  101.6
 30.9856  10452.5  101.508
 31.0276  10332.7  100.522
 31.0696  10239.4  100.666
 31.1116  10168.8  100.29
 31.1536  10208.1  100.361
 31.1956  10162.8  100.23
 31.2376  10203.1  100.441
 31.2796  10361.2  100.728
 31.3216  10257.6  100.163
 31.3636  10382.6  101.497
 31.4056  10272.3  102.323
 31.4476  10418.1  100.823
 31.4896  10331.2  100.936
 31.5316  10497.3  101.095
 31.5736  10257.4  99.7428
 31.6156  10484.7  100.878
 31.6576  10483.3  100.977
 31.6996  10433.1  100.387
 31.7416  10106.7  99.9083
 31.7836  10254.7  99.6052
 31.8256  10185.9  99.5587
 31.8676  10432.2  100.749
 31.9096  10135.9  99.6813
 31.9516  10022  99.2734
 31.9936  10121  99.5872
 32.0356  10127.3  99.6938
 32.0776  10276.3  100.299
 32.1196  10300.5  100.509
 32.1616  10116.2  99.0375
 32.2036  10025.3  99.1338
 32.2456  10018.2  99.4935
 32.2876  10287.7  100.29
 32.3296  10180.9  99.7296
 32.3716  10005.9  98.964
 32.4136  10043.2  99.3921
 32.4556  10239.7  99.6895
 32.4976  10049.6  98.6726
 32.5396  10010.1  98.5533
 32.5816  9993.89  98.6017
 32.6236  9999.18  98.7021
 32.6656  10134.6  99.9286
 32.7076  10031.7  99.0635
 32.7496  9965.96  98.3753
 32.7916  9969.75  98.3639
 32.8336  10010.9  98.6539
 32.8756  10054.1  98.5857
 32.9176  9863.14  98.1411
 32.9596  9781.3  97.8182
 33.0016  9907.07  98.2325
 33.0436  9892.49  98.3354
 33.0856  9856.59  98.2241
 33.1276  9740.52  97.3768
 33.1696  9941.72  98.2169
 33.2116  9884.02  98.1668
 33.2536  9908.5  98.2923
 33.2956  9858.01  98.1234
 33.3376  9745.61  97.2957
 33.3796  9691.28  97.238
 33.4216  9810.97  97.3971
 33.4636  9790.03  97.4516
 33.5056  9693.29  97.2283
 33.5476  9677.63  97.1451
 33.5896  9849.96  97.7632
 33.6316  9643.56  97.0626
 33.6736  9603.8  97.1184
 33.7156  9647.92  97.3932
 33.7576  9700.58  97.2752
 33.7996  9830.1  97.6722
 33.8416  9527.08  96.3445
 33.8836  9668.1  96.8147
 33.9256  9684.38  96.9684
 33.9676  9720.28  97.0392
 34.0096  9585.57  96.6882
 34.0516  9560.4  96.1779
 34.0936  9473.61  96.0257
 34.1356  9677.68  96.7846
 34.1776  9486.98  95.8283
 34.2196  9529.25  96.2336
 34.2616  9427.91  95.856
 34.3036  9531.44  96.6518
 34.3456  9436.33  95.9113
 34.3876  9447.25  95.9306
 34.4296  9553.21  96.1242
 34.4716  9478.63  95.923
 34.5136  9482.15  96.1473
 34.5556  9408.58  96.0379
 34.5976  9587.05  96.7429
 34.6396  9332.19  95.1383
 34.6816  9460.33  95.9204
 34.7236  9464.7  95.7079
 34.7656  9416.17  95.6632
 34.8076  9359.43  95.7138
 34.8496  9316.73  95.3479
 34.8916  9416.28  95.7269
 34.9336  9452.81  95.8767
 34.9756  9462.14  95.8309
 35.0176  9385.16  96.0083
 35.0596  9434.95  96.0848
 35.1016  9431.25  95.8104
 35.1436  9430.67  95.4697
 35.1856  9273.93  94.804
 35.2276  9274.67  94.9978
 35.2696  9235.61  94.9981
 35.3116  9213.48  94.9765
 35.3536  9283.9  95.0383
 35.3956  9282.28  94.7255
 35.4376  9211.2  94.956
 35.4796  9282.29  95.3728
 35.5216  9181.16  94.7961
 35.5636  9053.72  94.918
 35.6056  9208.83  94.6949
 35.6476  9193.04  94.5158
 35.6896  9242.93  94.8661
 35.7316  9228.11  94.7599
 35.7736  9144.35  94.5335
 35.8156  9181.51  94.7326
 35.8576  9178.17  94.9754
 35.8996  9260.96  95.3615
 35.9416  9233.89  94.7061
 35.9836  9000.82  93.8631
 36.0256  9159.13  94.7034
 36.0676  9160.4  94.4534
 36.1096  8981.6  93.6733
 36.1516  9067.16  94.0052
 36.1936  8993.82  93.4673
 36.2356  8968.53  94
 36.2776  8879.51  92.9927
 36.3196  9026.9  93.4148
 36.3616  9054.42  93.7023
 36.4036  9088.98  93.9423
 36.4456  9099.84  94.2167
 36.4876  8937.67  93.2996
 36.5296  8998.09  93.6581
 36.5716  8878.57  93.8415
 36.6136  8879.58  92.5817
 36.6556  8893.04  92.8533
 36.6976  8883.9  93.3213
 36.7396  8938.27  93.3271
 36.7816  8779.6  92.8833
 36.8236  8917.35  93.5259
 36.8656  8946.62  93.7531
 36.9076  8688.9  92.2681
 36.9496  8636.25  91.983
 36.9916  8806.43  92.4893
 37.0336  8873.53  93.1762
 37.0756  8778.21  92.4604
 37.1176  8550.34  91.5262
 37.1596  8720.53  92.4393
 37.2016  8746.26  92.8077
 37.2436  8810.28  92.4412
 37.2856  8792.4  92.6068
 37.3276  8710.26  91.5109
 37.3696  8673.85  92.2278
 37.4116  8603.19  91.7602
 37.4536  8712.76  92.1861
 37.4956  8491.72  91.0741
 37.5376  8881.56  94.7859
 37.5796  8671.59  93.5969
 37.6216  8584.49  91.3568
 37.6636  8649.97  91.5871
 37.7056  8827.49  92.725
 37.7476  8702.86  91.5955
 37.7896  8496.27  91.0143
 37.8316  8507.58  91.2412
 37.8736  8508.5  90.7623
 37.9156  8483.48  90.6168
 37.9576  8522.78  90.7384
 37.9996  8489.88  90.2691
 38.0416  8615.21  91.7692
 38.0836  8669.8  91.9592
 38.1256  8543.05  91.2553
 38.1676  8444.75  90.8512
 38.2096  8573.35  91.1534
 38.2516  8572.6  91.3583
 38.2936  8711.24  91.8913
 38.3356  8502.32  90.7039
 38.3776  8389.72  90.3667
 38.4196  8563.59  91.1446
 38.4616  8505.38  91.0884
 38.5036  8576.01  91.3051
 38.5456  8407.85  91.2521
 38.5876  8533.38  91.9443
 38.6296  8502.34  90.7351
 38.6716  8499.66  90.5053
 38.7136  8448.32  90.1787
 38.7556  8409.34  90.4886
 38.7976  8542.85  91.129
 38.8396  8433.56  91.0208
 38.8816  8323.64  90.1988
 38.9236  8494.07  90.9252
 38.9656  8412.05  90.3942
 39.0076  8596.74  90.7586
 39.0496  8553.69  91.1069
 39.0916  8578.72  90.8619
 39.1336  8538.31  91.0801
 39.1756  8448.72  90.6655
 39.2176  8484.22  91.4063
 39.2596  8536.63  91.6118
 39.3016  8533.46  91.1575
 39.3436  8377.97  90.7499
 39.3856  8489.57  90.7841
 39.4276  8580.76  91.7973
 39.4696  8520.87  91.0769
 39.5116  8562.85  91.8376
 39.5536  8478.43  91.8204
 39.5956  8457.37  90.7767
 39.6376  8387.12  90.4022
 39.6796  8363.13  90.0048
 39.7216  8369.24  90.145
 39.7636  8409.38  90.9506
 39.8056  8336.79  90.3334
 39.8476  8355.57  90.6925
 39.8896  8454.8  90.8512
 39.9316  8479.46  91.2418
 39.9736  8412.78  90.4352
 40.0156  8331.15  89.8229
 40.0576  8350.15  90.2892
 40.0996  8484.42  90.172
 40.1416  8259.61  89.7771
 40.1836  8401.13  90.4313
 40.2256  8360.98  90.2516
 40.2676  8313.28  90.1034
 40.3096  8460.1  90.8169
 40.3516  8446.35  90.8571
 40.3936  8456.65  90.4585
 40.4356  8357.5  90.1238
 40.4776  8467.21  91.1491
 40.5196  8444  91.1509
 40.5616  8500.5  91.0857
 40.6036  8252.76  90.0044
 40.6456  8328.81  90.0145
 40.6876  8407.26  90.426
 40.7296  8373.24  90.3857
 40.7716  8365.6  90.4764
 40.8136  8340.36  90.2795
 40.8556  8363.09  90.537
 40.8976  8417.45  90.7557
 40.9396  8314.09  90.557
 40.9816  8411.33  90.3484
 41.0236  8335.98  89.7192
 41.0656  8467.69  90.9816
 41.1076  8379.42  90.2657
 41.1496  8440.86  90.5041
 41.1916  8387.7  90.5435
 41.2336  8342.18  90.3034
 41.2756  8291.44  89.6189
 41.3176  8268.17  90.119
 41.3596  8294.74  89.9855
 41.4016  8295.62  90.2539
 41.4436  8471.24  90.9897
 41.4856  8387.43  90.7019
 41.5276  8249.54  89.9756
 41.5696  8389.27  90.3469
 41.6116  8231.77  89.9079
 41.6536  8327.11  90.2774
 41.6956  8248.74  89.9118
 41.7376  8310.56  90.2732
 41.7796  8203.54  89.5685
 41.8216  8322.63  90.4607
 41.8636  8268.13  90.0965
 41.9056  8159.43  89.293
 41.9476  8327.86  90.4487
 41.9896  8375.07  90.3621
 42.0316  8537.62  91.3232
 42.0736  8216.54  89.7028
 42.1156  8241.24  89.6682
 42.1576  8220.85  89.6583
 42.1996  8358.43  90.5482
 42.2416  8314.31  89.8775
 42.2836  8282.39  89.8253
 42.3256  8156.78  89.2597
 42.3676  8173.81  89.1613
 42.4096  8407.9  90.3814
 42.4516  8265.76  89.7107
 42.4936  8155.24  89.1763
 42.5356  8190.86  89.5027
 42.5776  8320.36  90.1449
 42.6196  8257.88  89.86
 42.6616  8010.1  88.6775
 42.7036  8249.64  89.3627
 42.7456  8151.7  89.1998
 42.7876  8134.22  89.2038
 42.8296  8094.02  88.8146
 42.8716  8056.11  88.7622
 42.9136  8140.35  89.0121
 42.9556  8168.08  89.3008
 42.9976  8281.09  89.8733
 43.0396  8205.42  89.1911
 43.0816  8148.78  89.2562
 43.1236  8165.87  89.4218
 43.1656  8093.72  88.8536
 43.2076  7960.19  88.2211
 43.2496  8040.8  88.4672
 43.2916  8070.63  89.0158
 43.3336  8073.16  88.866
 43.3756  8129.05  88.9187
 43.4176  8026.53  88.4407
 43.4596  8037.65  88.3509
 43.5016  7950.57  88.2864
 43.5436  8087.54  88.9288
 43.5856  8041.87  88.7133
 43.6276  8069.52  88.7572
 43.6696  8045.99  88.8943
 43.7116  8025.88  88.2724
 43.7536  8089.9  89.1175
 43.7956  8051.29  90.1286
 43.8376  8065.29  88.7075
 43.8796  8101.64  88.9916
 43.9216  8198.71  89.4377
 43.9636  8115.47  89.0958
 44.0056  7991.35  88.648
 44.0476  8089.31  88.811
 44.0896  8063.03  89.0177
 44.1316  8167.66  89.0984
 44.1736  8074.16  88.7187
 44.2156  8171.8  89.0889
 44.2576  8076.97  88.9091
 44.2996  8103.21  89.0288
 44.3416  8087.67  88.6954
 44.3836  7960.17  88.3323
 44.4256  7935.15  87.8291
 44.4676  8002.61  88.3632
 44.5096  8110.42  89.1037
 44.5516  7993.92  88.4265
 44.5936  7976.04  88.278
 44.6356  8128.96  88.8491
 44.6776  8008.07  88.5131
 44.7196  8070.48  89.1774
 44.7616  7892.77  89.5348
 44.8036  7845.79  87.6655
 44.8456  8012.63  88.817
 44.8876  7824.7  87.6139
 44.9296  7944.55  87.7312
 44.9716  7740.98  87.0405
 45.0136  7835.65  87.499
 45.0556  7792.92  87.227
 45.0976  7864.59  87.8074
 45.1396  7597.54  86.0687
 45.1816  7917.46  87.7751
 45.2236  7949.84  87.8545
 45.2656  7850.9  87.8191
 45.3076  7842.89  87.5697
 45.3496  7852.96  87.9083
 45.3916  7736.2  87.5306
 45.4336  7763.49  87.5291
 45.4756  7763.43  87.397
 45.5176  7727.09  86.7963
 45.5596  7807.25  87.3637
 45.6016  7700.83  87.1871
 45.6436  7891.9  87.4294
 45.6856  7644.13  86.7134
 45.7276  7800.08  88.9509
 45.7696  7863.28  88.9425
 45.8116  7770.9  87.8547
 45.8536  7658.37  87.109
 45.8956  7778.66  87.1253
 45.9376  7747.25  86.3994
 45.9796  7666.07  86.6368
 46.0216  7598.26  86.614
 46.0636  7746.87  86.5855
 46.1056  7761.81  86.6269
 46.1476  7755.47  87.2103
 46.1896  7717.79  87.1611
 46.2316  7760.31  87.2709
 46.2736  7521.9  86.2783
 46.3156  7756.72  87.1906
 46.3576  7803.06  87.6608
 46.3996  7722.19  87.3779
 46.4416  7740.37  87.0411
 46.4836  7557.02  86.3658
 46.5256  7651.76  86.8472
 46.5676  7641.45  86.8996
 46.6096  7717.58  87.2784
 46.6516  7620.34  85.747
 46.6936  7770.36  87.0586
 46.7356  7667.74  86.6309
 46.7776  7754.92  87.9765
 46.8196  7678.01  87.1237
 46.8616  7744.72  87.4427
 46.9036  7729.19  86.9989
 46.9456  7710.39  86.5328
 46.9876  7701.35  86.5678
 47.0296  7704.06  87.2816
 47.0716  7657.79  86.8315
 47.1136  7687.67  86.6918
 47.1556  7668.69  86.4406
 47.1976  7661.75  86.4843
 47.2396  7627.66  86.6754
 47.2816  7580.27  86.1081
 47.3236  7747.26  87.4543
 47.3656  7731.27  87.2817
 47.4076  7643.23  86.5746
 47.4496  7599.02  86.4323
 47.4916  7660.63  86.9832
 47.5336  7631.61  86.6254
 47.5756  7802.76  87.7178
 47.6176  7627.83  86.6123
 47.6596  7728.03  86.8834
 47.7016  7787.62  87.0358
 47.7436  7828.11  87.6186
 47.7856  7600.9  86.3673
 47.8276  7654.49  86.7191
 47.8696  7626.1  86.6423
 47.9116  7640.95  86.4214
 47.9536  7742.05  86.9287
 47.9956  7614.96  86.9262
 48.0376  7580.24  86.5041
 48.0796  7750.84  87.6215
 48.1216  7752.72  87.4418
 48.1636  8016  88.4656
 48.2056  7769.54  87.3649
 48.2476  7622.22  86.8532
 48.2896  7650.26  86.9226
 48.3316  7704.52  87.1717
 48.3736  7592.07  86.5511
 48.4156  7684.71  86.9209
 48.4576  7583.28  86.6386
 48.4996  7675.32  86.6055
 48.5416  7554.61  86.2583
 48.5836  7574.08  86.0482
 48.6256  7573.23  86.271
 48.6676  7601.16  86.9332
 48.7096  7658.26  86.5121
 48.7516  7739.32  87.1156
 48.7936  7574.17  86.2375
 48.8356  7524.34  86.0109
 48.8776  7764.85  87.9851
 48.9196  7645.24  86.6545
 48.9616  7579.38  86.675
 49.0036  7438.84  86.2081
 49.0456  7567.14  86.9437
 49.0876  7614.21  86.7376
 49.1296  7392.16  85.625
 49.1716  7466.43  85.9114
 49.2136  7558.7  86.3936
 49.2556  7660.96  86.9863
 49.2976  7419.54  85.6723
 49.3396  7565.66  86.5703
 49.3816  7511.27  85.6859
 49.4236  7557.46  86.3833
 49.4656  7581.78  86.5275
 49.5076  7594.48  86.3329
 49.5496  7643.46  86.6813
 49.5916  7578.06  86.2323
 49.6336  7577.41  86.4459
 49.6756  7385.44  85.5786
 49.7176  7612.91  86.8154
 49.7596  7518.02  86.0352
 49.8016  7603.79  86.4578
 49.8436  7576.76  86.5951
 49.8856  7477.01  86.0316
 49.9276  7520.09  86.3647
 49.9696  7508.96  86.2986
 50.0116  7600.47  86.9799
 50.0536  7526.5  86.4791
 50.0956  7446.75  86.0859
 50.1376  7369.85  85.3511
 50.1796  7529.17  86.5353
 50.2216  7512.65  86.4482
 50.2636  7484.37  85.875
 50.3056  7543.17  86.3855
 50.3476  7478.05  86.0523
 50.3896  7502.51  86.1483
 50.4316  7568.79  86.3589
 50.4736  7467.48  86.0033
 50.5156  7566.46  86.5759
 50.5576  7503.51  85.9659
 50.5996  7467.66  86.0344
 50.6416  7453.32  85.8911
 50.6836  7512.77  86.2994
 50.7256  7638.87  86.9515
 50.7676  7375.82  85.7548
 50.8096  7479.04  85.8737
 50.8516  7406.26  85.8868
 50.8936  7490.22  86.142
 50.9356  7629.94  87.0535
 50.9776  7522.66  86.5813
 51.0196  7455.79  86.3327
 51.0616  7500.68  85.8881
 51.1036  7676.16  87.2684
 51.1456  7636.66  86.9491
 51.1876  7682.29  86.5032
 51.2296  7538.92  86.3673
 51.2716  7529.16  86.0048
 51.3136  7415.92  85.8335
 51.3556  7511.06  85.9866
 51.3976  7558.97  86.4195
 51.4396  7412.9  85.9004
 51.4816  7555.24  86.5654
 51.5236  7605.05  86.94
 51.5656  7438.04  85.557
 51.6076  7557.57  86.3348
 51.6496  7432.36  85.8182
 51.6916  7502.68  86.5965
 51.7336  7475.97  86.5441
 51.7756  7598.53  86.9236
 51.8176  7438.44  86.121
 51.8596  7509.93  86.5494
 51.9016  7722.35  87.3437
 51.9436  7350.26  86.718
 51.9856  7147.24  85.9963
 52.0276  7207.49  84.8053
 52.0696  7202.06  84.8403
 52.1116  7334.34  85.7295
 52.1536  7141.09  84.4775
 52.1956  7386.93  85.3628
 52.2376  7545.42  86.4478
 52.2796  7187.35  84.1794
 52.3216  7224.05  85.1026
 52.3636  7249.68  84.8313
 52.4056  7294.88  84.9464
 52.4476  7109.58  84.2382
 52.4896  7156.07  84.5684
 52.5316  7197.85  84.8652
 52.5736  7257.94  84.9238
 52.6156  7213.93  85.0588
 52.6576  7326.89  85.1335
 52.6996  6984.31  84.1323
 52.7416  7230.54  85.4411
 52.7836  7381.37  86.2101
 52.8256  7234.56  84.5349
 52.8676  7154.19  84.6427
 52.9096  7314.6  85.6986
 52.9516  7334.82  86.2101
 52.9936  7182.59  85.7192
 53.0356  7214.36  84.8588
 53.0776  7202.08  85.0514
 53.1196  7109.88  84.6461
 53.1616  7014.36  84.1247
 53.2036  7170.57  85.0019
 53.2456  7187.86  85.1932
 53.2876  7098.68  84.3764
 53.3296  7210.72  85.388
 53.3716  7230.4  85.2359
 53.4136  7150.83  84.9125
 53.4556  7100.94  84.6535
 53.4976  7197.4  85.0718
 53.5396  7195.38  85.4715
 53.5816  7260.2  85.465
 53.6236  6979.48  84.1551
 53.6656  7323  85.8117
 53.7076  7173.12  84.8865
 53.7496  7090.72  84.5219
 53.7916  7170.05  85.1236
 53.8336  7117.2  84.7069
 53.8756  7049.73  84.8819
 53.9176  7337.34  85.8854
 53.9596  7176.47  85.7499
 54.0016  7140.74  84.8273
 54.0436  7148.89  85.1141
 54.0856  7242.74  85.0569
 54.1276  7152.14  84.7279
 54.1696  7145.51  84.8831
 54.2116  7077.79  84.2248
 54.2536  7093.84  84.1246
 54.2956  7181.05  84.6856
 54.3376  7106.25  84.7576
 54.3796  7142.99  84.862
 54.4216  7157.4  85.0106
 54.4636  7179.34  85.0939
 54.5056  7119.51  84.5503
 54.5476  7049.44  84.4728
 54.5896  7117.52  84.7087
 54.6316  7145.9  84.7246
 54.6736  7119.28  84.6377
 54.7156  7148.32  84.8379
 54.7576  7009.42  84.0097
 54.7996  7158.91  85.0447
 54.8416  7125.47  84.9036
 54.8836  6988.79  84.207
 54.9256  7071.53  84.4328
 54.9676  7131.88  84.6373
 55.0096  7122.95  84.6672
 55.0516  6998.06  84.1653
 55.0936  7120.38  84.5022
 55.1356  7090.93  84.369
 55.1776  7089.21  84.6499
 55.2196  7018.55  83.9932
 55.2616  6966.56  83.9048
 55.3036  7000.77  84.2782
 55.3456  7027.84  84.602
 55.3876  7091.66  84.716
 55.4296  7107.27  84.7756
 55.4716  7044.4  84.4401
 55.5136  7087.3  84.4352
 55.5556  7031.55  84.1882
 55.5976  7034.28  84.2562
 55.6396  7022.58  84.1426
 55.6816  7095.04  84.4341
 55.7236  7133.34  84.7089
 55.7656  7069.68  84.0751
 55.8076  7202.02  84.8317
 55.8496  7005.25  84.0079
 55.8916  7075.58  84.6455
 55.9336  7033.75  84.1956
 55.9756  7025.06  84.0369
 56.0176  7043.59  84.2987
 56.0596  6978.55  83.9017
 56.1016  7092.47  84.5933
 56.1436  7011.9  84.3835
 56.1856  7072.03  84.4713
 56.2276  6980.61  83.9846
 56.2696  7119.81  84.7867
 56.3116  6900.36  83.9024
 56.3536  7051.55  84.4499
 56.3956  6898.97  83.5222
 56.4376  7023  84.3037
 56.4796  7077.31  84.41
 56.5216  7011.76  84.4225
 56.5636  7093.26  84.4722
 56.6056  6940.11  83.8021
 56.6476  6991.48  83.7068
 56.6896  7063.56  84.6313
 56.7316  7048.79  84.4431
 56.7736  7013.82  84.224
 56.8156  7122.94  84.8781
 56.8576  7047.41  84.3651
 56.8996  6992.85  83.9761
 56.9416  7059.81  84.6921
 56.9836  6959.37  83.5753
 57.0256  7116.49  84.8509
 57.0676  7025.21  84.4496
 57.1096  7123.3  84.8008
 57.1516  6985.31  84.0473
 57.1936  7115.92  84.5485
 57.2356  7063.57  84.5838
 57.2776  7028.36  84.3234
 57.3196  7066.29  84.9531
 57.3616  7035.82  84.2253
 57.4036  7025.01  84.2282
 57.4456  6961.66  83.8089
 57.4876  7112.13  84.5613
 57.5296  6924.8  83.7956
 57.5716  6957.48  83.9703
 57.6136  7084.4  84.5464
 57.6556  6936.06  83.8101
 57.6976  7075.05  84.4662
 57.7396  7012.69  84.4813
 57.7816  6859.21  83.9278
 57.8236  6979.32  84.445
 57.8656  6897.63  83.5822
 57.9076  6859.59  83.3848
 57.9496  6949.2  84.2973
 57.9916  6988.37  84.0164
 58.0336  6962.62  84.147
 58.0756  6993.7  83.9547
 58.1176  7000.18  83.9835
 58.1596  6895.98  83.9688
 58.2016  7104  84.3812
 58.2436  7072.95  84.6352
 58.2856  7063.67  84.4991
 58.3276  6942.09  84.1594
 58.3696  6973.15  84.0858
 58.4116  7044.2  84.3708
 58.4536  7181.5  85.063
 58.4956  7061  84.5425
 58.5376  7142.95  84.5658
 58.5796  7015.5  84.2641
 58.6216  7008.23  84.0268
 58.6636  7087.74  84.7315
 58.7056  6957.08  83.7912
 58.7476  7068.66  84.9409
 58.7896  6978.02  84.0113
 58.8316  7006.16  84.173
 58.8736  7105.4  84.7832
 58.9156  7018.6  84.3053
 58.9576  7016.44  84.6436
 58.9996  6980.18  83.615
 59.0416  7111.68  84.7979
 59.0836  7136.65  84.8523
 59.1256  6947.56  84.4747
 59.1676  7087.24  85.6591
 59.2096  7072.19  84.8201
 59.2516  7059.98  84.2939
 59.2936  6946.76  83.9671
 59.3356  6969.5  83.9731
 59.3776  7028.01  84.5071
 59.4196  6956.88  84.009
 59.4616  6894.65  83.4835
 59.5036  6888.83  83.486
 59.5456  6990.58  83.7704
 59.5876  7127.85  84.7965
 59.6296  6992.55  84.0623
 59.6716  6947.62  83.8539
 59.7136  7033.69  84.3591
 59.7556  6969.81  84.1218
 59.7976  7019.9  84.1455
 59.8396  7058.84  84.2643
 59.8816  7089.89  85.0407
 59.9236  6885.25  83.4236
 59.9656  7001.7  84.405
 60.0076  7049.96  84.0028
 60.0496  7015.13  84.3368
 60.0916  7207.25  84.8495
 60.1336  6865  83.9909
 60.1756  6966.29  85.8802
 60.1996  0.0000000E+00  0.0000000E+00