File: docs/examples/opeando_xrd/IS17_D/Data/IS17_D_fresh/17_D_fresh_f00006.xye
# /beamlines/bl04/projects/cycle2025-II/20250340211-lsimonelli/DATA/IS17_D_fresh/17_D_fresh_f00006.xye : mythproc.py merge -s 0.006 -l 0.5 -f /beamlines/bl04/inhouse/ff/FlatField/ff_20Nov2024rod8mm60s_17keV.raw -b True -c true -o xye /beamlines/bl04/projects/cycle2025-II/20250340211-lsimonelli/DATA/IS17_D_fresh/17_D_fresh_00006.dat
# IsMon = [6769041, 6774065, 6769917]  IsPos = [-1.4999, -2.4884, -3.4988]
# Wave = 0.4962  CalPath /beamlines/bl04/projects/cycle2025-II/20250340211-lsimonelli/DATA/Align/Si_Pos1_25keV_f00001.cal
# Date = 2025-09-24_14:47:44 Dt = 4.8000  Bin = 0.0060  <imon> = 6771008 +/- 2191 (Min/Max) 6769041 / 6774065
# icurr 250.7834  mocoIn 1.7104E-05  mocoOut 0.8022  i15 7.08672e+06  imon 6.77101e+06  i7 9.0000  iEMpd_timer 4.8000  iEMpd_1 3.4055E-08  iEMpd_2 7.7806E-08  iEMpd_3 1.5672E-08  iEMpd_4 4.7496E-08  iEMhp_timer 4.8000  iEMhp_1 4.8978E-06  iEMhp_2 -2.6433E-08  iEMhp_3 -2.4296E-08  iEMhp_4 -2.3100E-08
#      9776
 1.5856  37051.6  197.683
 1.6276  44394.6  212.674
 1.6696  50859.4  226.83
 1.7116  59734.7  246.307
 1.7536  69459.1  264.469
 1.7956  73643.6  272.997
 1.8376  70222.3  267.005
 1.8796  58017.7  240.901
 1.9216  47138.8  218.017
 1.9636  39418.3  198.549
 2.0056  35170.5  186.819
 2.0476  32353.9  181.147
 2.0896  31364.2  177.308
 2.1316  30713.4  174.616
 2.1736  29223.9  171.68
 2.2156  29717.8  171.736
 2.2576  28708.5  169.398
 2.2996  27567.4  166.608
 2.3416  28110.3  166.898
 2.3836  27593.1  165.457
 2.4256  26687.7  163.25
 2.4676  26288.2  161.794
 2.5096  26948.8  163.868
 2.5516  34803.4  190.529
 2.5936  192399  438.867
 2.6356  30023.9  174.092
 2.6776  26029.2  160.992
 2.7196  25046  158.439
 2.7616  24587.2  156.756
 2.8036  24245.3  155.837
 2.8456  24387.5  156.887
 2.8876  24004.3  155.526
 2.9296  23704.6  154.683
 2.9716  23461.6  153.389
 3.0136  22846.8  151.434
 3.0556  23186.6  152.947
 3.0976  23114.2  151.676
 3.1396  22911.9  151.708
 3.1816  22766.5  151.155
 3.2236  22647.6  150.757
 3.2656  22740.7  150.112
 3.3076  22549.1  150.91
 3.3496  22909.9  151.064
 3.3916  23153.4  151.701
 3.4336  23503.5  153.411
 3.4756  24061.1  155.156
 3.5176  24793.9  157.293
 3.5596  24675.6  159.313
 3.6016  24915.1  157.736
 3.6436  24128  156.299
 3.6856  23623.9  152.992
 3.7276  22945.2  151.848
 3.7696  22587.5  150.856
 3.8116  22275.8  149.7
 3.8536  22416.1  150.113
 3.8956  22646.3  150.702
 3.9376  23343  153.254
 3.9796  22329.4  149.409
 4.0216  22565.3  149.229
 4.0636  22408.4  150.183
 4.1056  22480.3  150.054
 4.1476  22674.9  151.024
 4.1896  22835.4  151.419
 4.2316  22938.5  151.594
 4.2736  23407.7  152.915
 4.3156  23693  154.073
 4.3576  24325.2  156.051
 4.3996  24815.7  157.857
 4.4416  25506.4  159.633
 4.4836  27393.9  165.584
 4.5256  26732.4  164.2
 4.5676  26398.3  163.42
 4.6096  26711.6  163.05
 4.6516  27528.8  165.235
 4.6936  27569.7  166.171
 4.7356  28955  170.116
 4.7776  27694.2  166.203
 4.8196  27232  165.464
 4.8616  26869.5  163.821
 4.9036  26559.5  162.644
 4.9456  27086.5  164.899
 4.9876  26425.1  162.775
 5.0296  26214.9  161.937
 5.0716  25940.8  161.867
 5.1136  26326  162.774
 5.1556  26915.6  164.039
 5.1976  38656.5  196.578
 5.2396  27493.6  165.486
 5.2816  27223.1  165.131
 5.3236  27018.5  164.216
 5.3656  26585.3  163.808
 5.4076  26544.2  163.837
 5.4496  26747.5  163.943
 5.4916  26908.3  164.191
 5.5336  27075.3  164.702
 5.5756  26579.1  163.229
 5.6176  27005.6  163.965
 5.6596  27120.4  165.295
 5.7016  27167.3  164.692
 5.7436  27492.4  165.948
 5.7856  27446.4  165.866
 5.8276  27751.4  166.508
 5.8696  27855.2  166.991
 5.9116  27768.4  167.338
 5.9536  27933.8  167.592
 5.9956  28523.6  168.708
 6.0376  28547.7  169.421
 6.0796  28857.9  170.17
 6.1216  28792.1  170.177
 6.1636  29072.8  170.061
 6.2056  29227.5  171.183
 6.2476  29237.4  171.09
 6.2896  29488.8  171.503
 6.3316  29224.3  170.905
 6.3736  29548.5  171.744
 6.4156  29560.4  171.677
 6.4576  30097.6  172.826
 6.4996  30220.3  173.661
 6.5416  30213.2  173.783
 6.5836  31038  176.373
 6.6256  30292.8  173.802
 6.6676  30949.5  175.239
 6.7096  30672.5  175.317
 6.7516  31358.4  176.908
 6.7936  32388  179.209
 6.8356  33395.1  182.051
 6.8776  32764.4  181.147
 6.9196  32001.7  179.431
 6.9616  32573.7  180.457
 7.0036  32769.8  180.653
 7.0456  32974.7  180.497
 7.0876  32749.5  181.596
 7.1296  32843.5  180.979
 7.1716  32947.5  180.801
 7.2136  32833.8  180.261
 7.2556  32938.4  180.712
 7.2976  32970.5  181.31
 7.3396  33008.3  181.615
 7.3816  33044.8  181.944
 7.4236  33405.2  182.212
 7.4656  33388.7  181.643
 7.5076  33860.9  183.058
 7.5496  33842.9  183.567
 7.5916  33909.3  183.769
 7.6336  34920.4  186.385
 7.6756  34383.1  184.798
 7.7176  34830.2  186.297
 7.7596  35039  188.162
 7.8016  43198.9  211.446
 7.8436  35938.1  189.374
 7.8856  36136.5  189.492
 7.9276  37116  192.465
 7.9696  36857.9  192.104
 8.0116  38335.2  194.402
 8.0536  39039.2  196.445
 8.0956  42359.6  205.893
 8.1376  39047.1  197.145
 8.1796  39236.2  198.172
 8.2216  40454  199.909
 8.2636  42020.1  204.012
 8.3056  40717.5  201.644
 8.3476  44064.4  209.031
 8.3896  41900.3  203.916
 8.4316  41050.4  202.012
 8.4736  40982.7  201.287
 8.5156  40808.2  201.148
 8.5576  40861.8  202.296
 8.5996  40340.3  199.832
 8.6416  40647.1  201.892
 8.6836  40513.4  201.414
 8.7256  41585.1  203.451
 8.7676  44969.2  214.77
 8.8096  44884.8  211.612
 8.8516  40253.3  200.02
 8.8936  43964.2  208.885
 8.9356  39696.6  198.865
 8.9776  39892.1  199.473
 9.0196  39326.9  197.711
 9.0616  40142.6  199.179
 9.1036  43733.4  209.206
 9.1456  40115.7  199.699
 9.1876  39248.8  197.48
 9.2296  39453.9  197.366
 9.2716  38633.1  195.376
 9.3136  38756.2  195.661
 9.3556  38855.5  195.903
 9.3976  37033.6  191.799
 9.4396  37545.1  193.002
 9.4816  37114.9  191.749
 9.5236  37339.3  192.243
 9.5656  37310.2  192.498
 9.6076  36587.7  191.181
 9.6496  36588.8  191.105
 9.6916  36628.7  191.183
 9.7336  36756.2  191.283
 9.7756  37135.3  193.572
 9.8176  36309.1  190.859
 9.8596  35882.4  188.119
 9.9016  35599.8  187.368
 9.9436  35644.7  187.397
 9.9856  35920.7  188.341
 10.0276  36096.6  190
 10.0696  34703.6  185.29
 10.1116  34543.7  185.133
 10.1536  33902.3  183.585
 10.1956  33438.8  181.888
 10.2376  32836.6  179.752
 10.2796  33270.1  181.07
 10.3216  32769.7  179.973
 10.3636  32938.7  180.467
 10.4056  37401.5  192.715
 10.4476  37867  193.53
 10.4896  41909.1  202.949
 10.5316  37260.4  192.155
 10.5736  32828.5  180.795
 10.6156  32099.6  178.548
 10.6576  40338.3  198.45
 10.6996  32444.9  178.661
 10.7416  31155.7  175.345
 10.7836  33130.3  181.576
 10.8256  30307.7  174.121
 10.8676  30710.3  174.774
 10.9096  30400  173.954
 10.9516  29961.4  171.561
 10.9936  31195.7  175.284
 11.0356  30480.7  173.928
 11.0776  32367.7  178.478
 11.1196  32102.6  178.54
 11.1616  29771.7  171.618
 11.2036  31001.9  174.988
 11.2456  33653.8  183.095
 11.2876  28730.6  168.901
 11.3296  29102  169.886
 11.3716  29648  171.158
 11.4136  28896.5  169.901
 11.4556  29236.5  170.558
 11.4976  30783  173.901
 11.5396  30755.6  173.981
 11.5816  28657.1  168.441
 11.6236  28241.3  167.425
 11.6656  28137.8  166.256
 11.7076  27475.2  165.155
 11.7496  28278  171.662
 11.7916  28434.6  167.237
 11.8336  27241.7  164.614
 11.8756  27873.3  166.019
 11.9176  27562.4  164.699
 11.9596  26924.8  163.01
 12.0016  26800.8  163.459
 12.0436  26537.2  162.048
 12.0856  26204.5  161.57
 12.1276  26548.6  162.535
 12.1696  26593.4  161.769
 12.2116  27171.6  163.523
 12.2536  30677.4  174.677
 12.2956  27373.2  164.3
 12.3376  26742.9  162.624
 12.3796  26558.9  162.541
 12.4216  26804.6  162.47
 12.4636  28555  168.662
 12.5056  26219.5  160.882
 12.5476  26270  160.545
 12.5896  26439  161.715
 12.6316  25845.3  160.053
 12.6736  26202.9  161.672
 12.7156  26671.8  162.969
 12.7576  26198.6  161.775
 12.7996  26746  162.021
 12.8416  26637.8  162.797
 12.8836  28327.8  167.698
 12.9256  26997.1  162.672
 12.9676  27146.5  163.574
 13.0096  26363.7  162.341
 13.0516  26710.9  162.409
 13.0936  26468.8  162.083
 13.1356  27018.2  162.695
 13.1776  27301.8  164.571
 13.2196  26517.6  161.85
 13.2616  26599.1  162.414
 13.3036  26637.7  162.508
 13.3456  26711.2  163.1
 13.3876  27139.1  163.667
 13.4296  26867  162.988
 13.4716  27025.2  163.065
 13.5136  26924.4  162.928
 13.5556  27135.1  164.187
 13.5976  26903.9  163.637
 13.6396  27423  164.553
 13.6816  26767.5  163.094
 13.7236  27105.5  163.764
 13.7656  26775.2  163.309
 13.8076  28951.5  168.484
 13.8496  26769.2  162.643
 13.8916  26779.8  163.739
 13.9336  26333.9  161.559
 13.9756  26262.6  160.662
 14.0176  26392.8  161.769
 14.0596  27888.7  166.267
 14.1016  25892.1  160.599
 14.1436  25437.5  158.298
 14.1856  25396.8  158.473
 14.2276  25559.4  159.487
 14.2696  26070.1  160.899
 14.3116  25328.3  158.488
 14.3536  24562.9  156.259
 14.3956  24769.4  156.631
 14.4376  24957.5  156.997
 14.4796  24762.2  156.373
 14.5216  24278.2  155.669
 14.5636  25238.6  158.254
 14.6056  24355.3  155.032
 14.6476  24019  153.149
 14.6896  23692.1  152.656
 14.7316  23058.2  151.661
 14.7736  23196.6  151.233
 14.8156  22865.7  150.199
 14.8576  23090.3  150.771
 14.8996  22939.7  151.537
 14.9416  22234  149.188
 14.9836  22496.9  150.033
 15.0256  22433  148.693
 15.0676  22230.2  148.345
 15.1096  22254.2  148.149
 15.1516  21696.7  146.859
 15.1936  21621  146.011
 15.2356  21577.4  146.158
 15.2776  21498.6  145.457
 15.3196  21373.3  146.087
 15.3616  21071.5  144.804
 15.4036  21044.5  144.557
 15.4456  21481.1  145.674
 15.4876  20822.3  143.089
 15.5296  20580.3  142.546
 15.5716  20037.8  140.25
 15.6136  20392.3  141.824
 15.6556  24044.6  153.138
 15.6976  21030.4  143.527
 15.7396  20325  141.524
 15.7816  20409.8  141.296
 15.8236  19759.8  139.763
 15.8656  19516.6  138.676
 15.9076  19663.4  139.014
 15.9496  20069.1  143.411
 15.9916  19072.4  140.284
 16.0336  18655.6  135.527
 16.0756  18897.7  136.725
 16.1176  18609.4  135.749
 16.1596  18386.3  136.156
 16.2016  18522.2  135.346
 16.2436  18360.3  135.164
 16.2856  18460.2  135.059
 16.3276  17460  131.772
 16.3696  18034.4  133.726
 16.4116  17728.3  133.073
 16.4536  18023.4  133.944
 16.4956  18965.7  137.115
 16.5376  18279  134.81
 16.5796  17776.7  132.283
 16.6216  17717.2  132.383
 16.6636  18058.6  133.809
 16.7056  17824.4  132.801
 16.7476  17633.8  131.598
 16.7896  17748.8  132.815
 16.8316  17414.1  131.506
 16.8736  17952.1  133.795
 16.9156  17796.5  133.571
 16.9576  17455.5  133.101
 16.9996  17952.7  135.497
 17.0416  17569.3  132.314
 17.0836  17341.9  131.201
 17.1256  17029.7  130.033
 17.1676  17977.2  133.611
 17.2096  17686.7  132.392
 17.2516  17433.1  131.202
 17.2936  16801.3  129.124
 17.3356  16488.1  127.936
 17.3776  16519.2  128.255
 17.4196  16915.9  129.455
 17.4616  16884.9  129.266
 17.5036  18012.5  133.892
 17.5456  16256.2  127.876
 17.5876  16294.2  127.037
 17.6296  16267.5  126.742
 17.6716  16696.5  128.996
 17.7136  17419.2  131.93
 17.7556  16438.4  128.457
 17.7976  16798.5  129.587
 17.8396  16538.1  128.03
 17.8816  16238  127.428
 17.9236  16122.1  126.796
 17.9656  16510.4  128.881
 18.0076  17233.9  131.226
 18.0496  17857.9  132.634
 18.0916  23474.7  152.74
 18.1336  20531.7  142.948
 18.1756  17694.4  132.194
 18.2176  19115.4  137.631
 18.2596  16344.8  127.013
 18.3016  17230  130.688
 18.3436  18373  134.942
 18.3856  16541.1  128.201
 18.4276  16091.7  126.095
 18.4696  16357.6  127.253
 18.5116  16633.1  128.626
 18.5536  16116.9  126.987
 18.5956  16378.1  127.532
 18.6376  16539.4  128.589
 18.6796  16027.4  125.874
 18.7216  16332.1  127.574
 18.7636  15697.5  125.059
 18.8056  15478.3  124.128
 18.8476  15467.4  124.75
 18.8896  15289.7  123.335
 18.9316  15694.5  124.943
 18.9736  15385.3  123.386
 19.0156  16005.9  126.275
 19.0576  15756  124.104
 19.0996  15711.2  124.67
 19.1416  15443.1  124.012
 19.1836  15259.6  122.851
 19.2256  14942.8  121.793
 19.2676  15258.5  123.178
 19.3096  15287.8  123.545
 19.3516  15285.7  123.49
 19.3936  15589.5  124.599
 19.4356  15314.4  123.375
 19.4776  15200.7  123.01
 19.5196  15053.4  122.257
 19.5616  15390.4  123.892
 19.6036  15150.7  122.394
 19.6456  15368.1  123.401
 19.6876  16208.9  126.349
 19.7296  15244.9  123.01
 19.7716  15125.2  122.687
 19.8136  15424.3  124.125
 19.8556  15868.2  125.341
 19.8976  16206.5  126.745
 19.9396  15766.5  124.561
 19.9816  15987.7  125.691
 20.0236  16476.1  127.832
 20.0656  15414  123.631
 20.1076  14838.8  121.783
 20.1496  14891.2  122.006
 20.1916  14905  121.562
 20.2336  15104.7  122.301
 20.2756  14692.8  121.06
 20.3176  14614.3  120.482
 20.3596  14885.1  121.557
 20.4016  14811.3  121.057
 20.4436  14735.2  121.325
 20.4856  14432.4  119.864
 20.5276  14603.3  121.039
 20.5696  14412  119.694
 20.6116  14587.8  120.709
 20.6536  14559.7  120.065
 20.6956  14381.8  119.461
 20.7376  14630.2  120.74
 20.7796  14482.7  119.802
 20.8216  14634  120.121
 20.8636  14912.6  121.629
 20.9056  16341  127.278
 20.9476  14635.7  120.295
 20.9896  15941.9  125.397
 21.0316  14727  120.417
 21.0736  14939.1  121.818
 21.1156  15574.3  124.565
 21.1576  14615.1  120.724
 21.1996  14376.5  119.715
 21.2416  14210.8  118.848
 21.2836  14757.5  121.067
 21.3256  14218.6  118.93
 21.3676  14450.8  119.427
 21.4096  14708.2  120.812
 21.4516  14259.1  118.83
 21.4936  14192.2  118.812
 21.5356  14295.1  119.187
 21.5776  14276.7  118.932
 21.6196  14456.4  119.706
 21.6616  14408.4  119.606
 21.7036  14197  118.507
 21.7456  13955.6  117.564
 21.7876  13965.1  117.327
 21.8296  13862.3  116.761
 21.8716  13928.3  117.281
 21.9136  14224.9  118.731
 21.9556  14349.8  118.909
 21.9976  14073.4  117.763
 22.0396  13876.6  117.209
 22.0816  14031.9  118.441
 22.1236  14637.1  120.372
 22.1656  14188.4  118.645
 22.2076  14272  118.434
 22.2496  14141.9  117.917
 22.2916  14184.9  117.97
 22.3336  14424.7  119.741
 22.3756  14065.6  117.953
 22.4176  14042  117.701
 22.4596  13595.3  116.432
 22.5016  14229.9  118.581
 22.5436  14035.1  117.644
 22.5856  14024.4  117.852
 22.6276  13919.1  117.541
 22.6696  13947.9  118.046
 22.7116  13774.8  116.792
 22.7536  13937.2  117.458
 22.7956  13951.7  116.808
 22.8376  13731.6  116.445
 22.8796  13806.2  116.544
 22.9216  13935.6  117.672
 22.9636  13795.4  116.171
 23.0056  13837.5  116.499
 23.0476  13982.8  117.713
 23.0896  14237.9  118.121
 23.1316  14145.3  118.199
 23.1736  13762  119.661
 23.2156  13682  116.595
 23.2576  13689.3  116.763
 23.2996  13602.2  116.176
 23.3416  13619.1  116.779
 23.3836  13505.5  115.51
 23.4256  13671  116.337
 23.4676  13718.9  116.224
 23.5096  13747.8  117.05
 23.5516  13396.5  114.799
 23.5936  13845.9  117.661
 23.6356  13932.8  117.677
 23.6776  13661.5  116.74
 23.7196  13449.5  115.395
 23.7616  13627.9  116.078
 23.8036  13346.8  114.918
 23.8456  13556.7  115.368
 23.8876  13188.9  114.154
 23.9296  13239.1  114.877
 23.9716  13319.9  114.396
 24.0136  13519.6  116.186
 24.0556  13322.9  115.067
 24.0976  13167.5  114.191
 24.1396  13172.3  116.964
 24.1816  13177.1  115.337
 24.2236  13203.6  115.039
 24.2656  13313.4  114.96
 24.3076  13103.4  114.302
 24.3496  13555.4  116.142
 24.3916  13319.9  115.186
 24.4336  13069.3  114.321
 24.4756  13170.1  114.61
 24.5176  12650.3  111.975
 24.5596  12852.2  113
 24.6016  12596.8  112.167
 24.6436  12903.7  112.991
 24.6856  12970.9  113.029
 24.7276  13129.4  114.048
 24.7696  12876.8  113.072
 24.8116  12917.8  113.439
 24.8536  12891.1  113.318
 24.8956  12616.2  111.831
 24.9376  12706.7  112.172
 24.9796  12456.1  111.426
 25.0216  12548.8  111.96
 25.0636  12657.1  112.075
 25.1056  12177.6  110.659
 25.1476  12364.2  113.26
 25.1896  12531.2  112.409
 25.2316  12482.6  111.427
 25.2736  12523.1  111.238
 25.3156  12165.9  109.729
 25.3576  12222  110.415
 25.3996  12145.2  110.054
 25.4416  12260.3  110.553
 25.4836  12092.9  110.345
 25.5256  12242.3  110.355
 25.5676  12357.2  110.583
 25.6096  12071.8  109.905
 25.6516  12290.6  110.362
 25.6936  12070.3  109.696
 25.7356  12003.1  109.527
 25.7776  12265.7  110.315
 25.8196  12083  109.73
 25.8616  12126.4  109.84
 25.9036  12471.7  110.83
 25.9456  12071.1  109.658
 25.9876  11828.1  108.623
 26.0296  12176.7  109.69
 26.0716  12019.7  109.428
 26.1136  12363.1  110.927
 26.1556  12372.4  110.3
 26.1976  11940  109.333
 26.2396  11973.5  108.609
 26.2816  11940.7  109.09
 26.3236  12102.5  109.99
 26.3656  12058.6  109.51
 26.4076  11968.8  109.307
 26.4496  13478.2  115.353
 26.4916  11972.8  108.812
 26.5336  11742.1  108.084
 26.5756  11813.4  108.284
 26.6176  12178  109.983
 26.6596  11782.1  108.506
 26.7016  11651.4  107.641
 26.7436  11479.1  106.985
 26.7856  11498.3  107.053
 26.8276  11469.4  106.88
 26.8696  11567.6  107.197
 26.9116  11680.6  107.668
 26.9536  11518.7  106.96
 26.9956  11558  107.172
 27.0376  11497.1  107.11
 27.0796  11648  107.535
 27.1216  11532  107.084
 27.1636  11283.3  106.092
 27.2056  11593.2  107.417
 27.2476  11442.4  106.719
 27.2896  11392.6  106.598
 27.3316  11272.8  105.737
 27.3736  11323.6  106.255
 27.4156  11316.9  106.064
 27.4576  11549.9  107.39
 27.4996  11426.7  106.388
 27.5416  11327.6  106.26
 27.5836  11446.5  106.622
 27.6256  11793.6  108.397
 27.6676  11488.1  107.011
 27.7096  11355.2  106.244
 27.7516  11916.8  109.005
 27.7936  11803.3  108.676
 27.8356  11488.6  106.814
 27.8776  11494.8  106.883
 27.9196  11381.2  106.196
 27.9616  11568  107.27
 28.0036  11261.6  105.819
 28.0456  11217.4  105.738
 28.0876  11025.9  104.929
 28.1296  11128  105.248
 28.1716  11144.8  105.342
 28.2136  11049.6  104.852
 28.2556  10904.6  104.275
 28.2976  11035  104.891
 28.3396  11211.9  105.475
 28.3816  11121.5  105.068
 28.4236  11435.6  106.701
 28.4656  10863.1  104.039
 28.5076  10788.8  103.294
 28.5496  10805.4  103.659
 28.5916  10770.3  103.281
 28.6336  10808.6  103.827
 28.6756  10818.7  103.04
 28.7176  10854.9  103.788
 28.7596  10592.3  102.424
 28.8016  10862.2  103.749
 28.8436  10642  102.947
 28.8856  10813.6  103.619
 28.9276  10923.3  104.405
 28.9696  10557.8  102.288
 29.0116  10761  103.458
 29.0536  10573.1  102.757
 29.0956  10729.2  103.225
 29.1376  10649.3  102.799
 29.1796  10615.8  102.681
 29.2216  10613.1  102.502
 29.2636  10687  102.934
 29.3056  10554.3  102.083
 29.3476  10643.8  103.061
 29.3896  10678.9  103.321
 29.4316  10784.1  103.14
 29.4736  10555.7  102.111
 29.5156  10837.8  103.382
 29.5576  10548.6  102.759
 29.5996  10692.1  102.681
 29.6416  10689.9  102.783
 29.6836  10713.4  102.833
 29.7256  10546.6  102.62
 29.7676  10595.5  102.506
 29.8096  10638.5  102.649
 29.8516  10297.9  101.338
 29.8936  10525.9  102.552
 29.9356  10635.6  102.827
 29.9776  10475.3  102.196
 30.0196  10662.5  102.466
 30.0616  10725  103.169
 30.1036  10546.3  102.116
 30.1456  10326.7  101.301
 30.1876  10418.9  101.721
 30.2296  10378.5  101.48
 30.2716  10400.2  101.201
 30.3136  10441.5  102.3
 30.3556  10418.8  102.204
 30.3976  10332.6  103.373
 30.4396  10436.8  101.118
 30.4816  10418.4  100.604
 30.5236  10353.2  100.304
 30.5656  10180.5  100.143
 30.6076  10143  99.3707
 30.6496  10246.8  100.28
 30.6916  10193.9  100.116
 30.7336  10336.2  100.972
 30.7756  10199.8  100.397
 30.8176  10243.3  100.525
 30.8596  10205.1  100.097
 30.9016  10132.2  100.094
 30.9436  10318.9  100.75
 30.9856  10250.8  100.534
 31.0276  10018.9  98.9784
 31.0696  10172.7  100.342
 31.1116  10037.8  99.6491
 31.1536  10210.8  100.376
 31.1956  10201.8  100.425
 31.2376  9857.53  98.7314
 31.2796  9908.76  98.5049
 31.3216  10022.1  99.0123
 31.3636  10130.3  100.254
 31.4056  10055.6  101.24
 31.4476  10200.9  99.759
 31.4896  10128.1  99.9322
 31.5316  10517.4  101.189
 31.5736  11183  104.148
 31.6156  10791.1  102.33
 31.6576  10394  100.538
 31.6996  10290.1  99.693
 31.7416  10285  100.757
 31.7836  10234  99.4879
 31.8256  10095.1  99.11
 31.8676  10344.1  100.317
 31.9096  9950.81  98.7535
 31.9516  9985.33  99.0904
 31.9936  10143.2  99.6888
 32.0356  10027.8  99.1975
 32.0776  10110.5  99.4823
 32.1196  10163.5  99.8403
 32.1616  10038.6  98.6527
 32.2036  9924.58  98.6293
 32.2456  9883.75  98.8172
 32.2876  10070.9  99.2214
 32.3296  10038  99.0159
 32.3716  9929.41  98.5834
 32.4136  9902.75  98.6992
 32.4556  10085.3  98.9294
 32.4976  9914.13  98.0052
 32.5396  9771.79  97.3733
 32.5816  9705.74  97.1685
 32.6236  9799.87  97.7125
 32.6656  9780.84  98.1625
 32.7076  9700.51  97.4082
 32.7496  9799.66  97.5539
 32.7916  9756.21  97.2996
 32.8336  9841.63  97.8216
 32.8756  9784.27  97.2598
 32.9176  9621.21  96.9338
 32.9596  9688.7  97.3564
 33.0016  9787.85  97.637
 33.0436  9709.57  97.4255
 33.0856  9599.43  96.9442
 33.1276  9702.81  97.1821
 33.1696  9646.45  96.746
 33.2116  9797.76  97.736
 33.2536  9748.87  97.4944
 33.2956  9641.77  97.0432
 33.3376  9413.62  95.6243
 33.3796  9669.57  97.1274
 33.4216  9577.43  96.2395
 33.4636  9522.43  96.1157
 33.5056  9542.58  96.4716
 33.5476  9519.93  96.3491
 33.5896  9673.94  96.8857
 33.6316  9396.88  95.8176
 33.6736  9401.94  96.09
 33.7156  9379.03  96.0242
 33.7576  9459.89  96.0571
 33.7996  9614.78  96.5994
 33.8416  9378.7  95.5901
 33.8836  9474.08  95.8434
 33.9256  9375.25  95.4073
 33.9676  9593.72  96.405
 34.0096  9327.37  95.3807
 34.0516  9326.97  95.0007
 34.0936  9391.14  95.6049
 34.1356  9419.14  95.4788
 34.1776  9296.21  94.864
 34.2196  9234.57  94.732
 34.2616  9357.28  95.4879
 34.3036  9297.61  95.4582
 34.3456  9304.03  95.2359
 34.3876  9263.65  94.9927
 34.4296  9314.46  94.9136
 34.4716  9431.6  95.6851
 34.5136  9346.55  95.458
 34.5556  9178.96  94.8606
 34.5976  9311.58  95.3435
 34.6396  9299.33  94.977
 34.6816  9254.88  94.8707
 34.7236  9152.8  94.1184
 34.7656  9203.54  94.5804
 34.8076  9224.9  95.0192
 34.8496  9227.03  94.8867
 34.8916  9178.75  94.512
 34.9336  9321.54  95.2067
 34.9756  9188.45  94.4425
 35.0176  9300.51  95.5734
 35.0596  9073.3  94.2221
 35.1016  9103.96  94.1325
 35.1436  9193.3  94.2636
 35.1856  9099.45  93.9098
 35.2276  9092.86  94.0627
 35.2696  8973.71  93.6428
 35.3116  9090.69  94.3449
 35.3536  9000.62  93.5796
 35.3956  9118.82  93.8844
 35.4376  8984.78  93.7786
 35.4796  9136.19  94.6197
 35.5216  8992.53  93.8266
 35.5636  8832.23  93.7352
 35.6056  8969.61  93.4591
 35.6476  9025.39  93.6521
 35.6896  9083.49  94.0389
 35.7316  8936.27  93.251
 35.7736  8907.26  93.2998
 35.8156  8926.56  93.4067
 35.8576  8979.95  93.9441
 35.8996  9144.4  94.7519
 35.9416  9763.17  97.1367
 35.9836  8941.13  93.5509
 36.0256  9011.17  93.9378
 36.0676  9038.3  93.8192
 36.1096  8815.44  92.8028
 36.1516  8916.81  93.2235
 36.1936  8917.94  93.0729
 36.2356  8903.43  93.6598
 36.2776  8798.36  92.5731
 36.3196  8950.22  93.016
 36.3616  8839.84  92.5839
 36.4036  8820.47  92.544
 36.4456  8922.55  93.294
 36.4876  8727.38  92.1971
 36.5296  8897.18  93.1319
 36.5716  8871.73  93.8056
 36.6136  9074.13  93.5943
 36.6556  8953.32  93.1775
 36.6976  8793.31  92.8436
 36.7396  8697.36  92.0535
 36.7816  8792.06  92.9515
 36.8236  8902.02  93.4461
 36.8656  8672.93  92.3114
 36.9076  8602.34  91.8062
 36.9496  8582.14  91.7008
 36.9916  8593  91.3739
 37.0336  8728.99  92.4156
 37.0756  8757.59  92.3457
 37.1176  8543.72  91.4924
 37.1596  8565.1  91.6163
 37.2016  8538.17  91.6946
 37.2436  8822.4  92.5014
 37.2856  8553.68  91.3341
 37.3276  8617.32  91.0246
 37.3696  8496.51  91.2803
 37.4116  8499.26  91.2071
 37.4536  8507.43  91.1065
 37.4956  8370.02  90.4239
 37.5376  8603.07  93.2943
 37.5796  8568.49  93.0487
 37.6216  8463.22  90.7089
 37.6636  8572.42  91.1829
 37.7056  8525.49  91.1222
 37.7476  8621.2  91.1633
 37.7896  8268.08  89.7926
 37.8316  8392  90.6218
 37.8736  8362.25  89.9806
 37.9156  8433.59  90.3444
 37.9576  8451.24  90.3614
 37.9996  8380.81  89.6906
 38.0416  8303.34  90.0974
 38.0836  8681.64  92.0254
 38.1256  8384.37  90.4057
 38.1676  8401.7  90.6253
 38.2096  8557.47  91.0663
 38.2516  8459.79  90.7644
 38.2936  8600.31  91.306
 38.3356  8447.72  90.4173
 38.3776  8536.18  91.1554
 38.4196  8514.02  90.8865
 38.4616  8565.76  91.4154
 38.5036  8377.88  90.2478
 38.5456  8379.95  91.0949
 38.5876  8315.86  90.7694
 38.6296  8563.44  91.0481
 38.6716  8354.07  89.7272
 38.7136  8279.32  89.2664
 38.7556  8354.91  90.1911
 38.7976  8367.27  90.1838
 38.8396  8326.52  90.4339
 38.8816  8303.54  90.0927
 38.9236  8410.56  90.4717
 38.9656  8449.09  90.5846
 39.0076  8526.16  90.3809
 39.0496  8439.27  90.4908
 39.0916  8403.12  89.9261
 39.1336  8360.83  90.1243
 39.1756  8256.39  89.6259
 39.2176  8285.53  90.3197
 39.2596  8230.27  89.9455
 39.3016  8268.85  89.7208
 39.3436  8346  90.5741
 39.3856  8393.19  90.2621
 39.4276  8405.49  90.8474
 39.4696  8318.72  89.9847
 39.5116  8501.98  91.5054
 39.5536  8306.11  90.886
 39.5956  8334.97  90.1162
 39.6376  8278.76  89.8177
 39.6796  8256.44  89.4308
 39.7216  8189.7  89.1755
 39.7636  8278.75  90.2367
 39.8056  8221.52  89.7074
 39.8476  8173.55  89.6992
 39.8896  8189.59  89.4122
 39.9316  8144.56  89.4228
 39.9736  8261.54  89.6156
 40.0156  8269.95  89.4925
 40.0576  8224.08  89.5989
 40.0996  8299.8  89.1775
 40.1416  8341.18  90.2191
 40.1836  8223.08  89.4702
 40.2256  8286.94  89.8411
 40.2676  8159.71  89.2709
 40.3096  8297.83  89.9444
 40.3516  8295.09  90.0333
 40.3936  8329.24  89.7696
 40.4356  8214.62  89.3494
 40.4776  8274.16  90.1012
 40.5196  8265.37  90.1814
 40.5616  8361.88  90.3413
 40.6036  8151.44  89.4545
 40.6456  8191.56  89.2768
 40.6876  8335.11  90.0433
 40.7296  8205.03  89.4757
 40.7716  8292.66  90.0805
 40.8136  8219.63  89.6181
 40.8556  8244.52  89.9004
 40.8976  8264.42  89.9276
 40.9396  8127.3  89.5228
 40.9816  8308  89.7894
 41.0236  8163.81  88.7898
 41.0656  8234.99  89.7224
 41.1076  8255.12  89.5944
 41.1496  8224.04  89.3363
 41.1916  8256.12  89.83
 41.2336  8133.77  89.1643
 41.2756  8268.95  89.4947
 41.3176  8251.59  90.028
 41.3596  8251.66  89.7523
 41.4016  8151.31  89.4701
 41.4436  8223.73  89.6507
 41.4856  8282.79  90.1296
 41.5276  8172.8  89.5542
 41.5696  8171.62  89.1719
 41.6116  8098.38  89.1724
 41.6536  8110.47  89.0954
 41.6956  8217.86  89.7438
 41.7376  8168.99  89.494
 41.7796  8101.97  89.0174
 41.8216  8048.51  88.9584
 41.8636  8160.72  89.5131
 41.9056  8140.43  89.1901
 41.9476  8269.94  90.1351
 41.9896  8253.67  89.7106
 42.0316  8315.24  90.121
 42.0736  8120.55  89.1782
 42.1156  8125.74  89.0371
 42.1576  8087.9  88.9289
 42.1996  8025.63  88.7338
 42.2416  8126.01  88.8595
 42.2836  7985.36  88.2014
 42.3256  8000.81  88.4006
 42.3676  8138.63  88.9646
 42.4096  8180.37  89.1493
 42.4516  8048.31  88.5193
 42.4936  7992.94  88.2841
 42.5356  8082.26  88.9043
 42.5776  8118.46  89.051
 42.6196  8229.55  89.7064
 42.6616  7986.88  88.547
 42.7036  8096.1  88.5279
 42.7456  8043.6  88.6037
 42.7876  8027.52  88.6146
 42.8296  8022.45  88.42
 42.8716  8032.38  88.633
 42.9136  8020.4  88.3523
 42.9556  8035.31  88.5695
 42.9976  8118.19  88.9733
 43.0396  7938.15  87.723
 43.0816  8056.07  88.741
 43.1236  7947.72  88.2197
 43.1656  7990.22  88.2832
 43.2076  7922.35  88.0142
 43.2496  8003.45  88.27
 43.2916  7956.99  88.3835
 43.3336  8011.83  88.5272
 43.3756  7942.79  87.8888
 43.4176  7788.97  87.1202
 43.4596  7905.82  87.6267
 43.5016  7841.09  87.6785
 43.5436  7837.9  87.5547
 43.5856  7960.15  88.2617
 43.6276  7902.51  87.8399
 43.6696  7907.11  88.1266
 43.7116  7908.9  87.6277
 43.7536  8049.91  88.8947
 43.7956  7815.35  88.7769
 43.8376  7956.73  88.1089
 43.8796  7967.5  88.2534
 43.9216  7930.08  87.9605
 43.9636  8045.31  88.7179
 44.0056  7997.4  88.6811
 44.0476  7852.25  87.506
 44.0896  7862.7  87.9076
 44.1316  8039.46  88.3997
 44.1736  7882.89  87.6652
 44.2156  7993.45  88.1214
 44.2576  7947.32  88.2026
 44.2996  7992.83  88.4178
 44.3416  7921.59  87.7849
 44.3836  7862.24  87.7852
 44.4256  7814.71  87.1679
 44.4676  7817.02  87.3357
 44.5096  7860.73  87.7233
 44.5516  7827.91  87.51
 44.5936  7740.15  86.9669
 44.6356  7822.49  87.1616
 44.6776  7868.93  87.7387
 44.7196  7855.69  87.9892
 44.7616  7815.4  89.0978
 44.8036  7767.63  87.2186
 44.8456  7702.45  87.0696
 44.8876  7770.68  87.3178
 44.9296  7826.44  87.0813
 44.9716  7515  85.7632
 45.0136  7698.09  86.729
 45.0556  7620.59  86.2621
 45.0976  7584.98  86.2379
 45.1396  7584.3  85.9984
 45.1816  7805.34  87.1631
 45.2236  7758.7  86.7644
 45.2656  7661.32  86.7633
 45.3076  7637.69  86.4196
 45.3496  7694.37  87.0263
 45.3916  7679.34  87.2098
 45.4336  7552.35  86.3254
 45.4756  7576.9  86.3426
 45.5176  7584.15  85.9861
 45.5596  7605.67  86.2255
 45.6016  7552.18  86.3355
 45.6436  7570.72  85.6282
 45.6856  7549.51  86.1792
 45.7276  7701.78  88.3828
 45.7696  7627.31  87.5945
 45.8116  7715.93  87.5383
 45.8536  7460.32  85.971
 45.8956  7646.33  86.3715
 45.9376  7593.62  85.5278
 45.9796  7538.23  85.9053
 46.0216  7493.24  86.0082
 46.0636  7613.11  85.829
 46.1056  7711.57  86.3486
 46.1476  7578.52  86.2124
 46.1896  7576.58  86.3536
 46.2316  7410.2  85.2734
 46.2736  7471.21  85.9737
 46.3156  7572.85  86.1506
 46.3576  7514.71  86.0233
 46.3996  7549.52  86.379
 46.4416  7488.49  85.6138
 46.4836  7546.49  86.2894
 46.5256  7626.97  86.6989
 46.5676  7523.93  86.2173
 46.6096  7592.86  86.5646
 46.6516  7518.69  85.1586
 46.6936  7616.46  86.1695
 46.7356  7551.44  85.9659
 46.7776  7630.65  87.2647
 46.8196  7486.62  86.0245
 46.8616  7549.53  86.3363
 46.9036  7535.43  85.8956
 46.9456  7565.57  85.7235
 46.9876  7546.59  85.6948
 47.0296  7655.28  87.0018
 47.0716  7456.42  85.6721
 47.1136  7409.25  85.1088
 47.1556  7539.31  85.7104
 47.1976  7525.3  85.7128
 47.2396  7476.39  85.8168
 47.2816  7517.51  85.7522
 47.3236  7494.69  86.0123
 47.3656  7616.88  86.6309
 47.4076  7611.13  86.3997
 47.4496  7531.95  86.0472
 47.4916  7464.34  85.8608
 47.5336  7516.77  85.97
 47.5756  7529.15  86.1639
 47.6176  7505.75  85.9235
 47.6596  7507.39  85.6269
 47.7016  7559.1  85.7532
 47.7436  7631.98  86.5136
 47.7856  7431.81  85.3952
 47.8276  7516.75  85.9381
 47.8696  7441.26  85.5904
 47.9116  7482.6  85.5165
 47.9536  7565.02  85.9327
 47.9956  7514.85  86.3682
 48.0376  7404.94  85.5067
 48.0796  7519.89  86.3091
 48.1216  7570.65  86.4078
 48.1636  7810.23  87.3267
 48.2056  7615.99  86.4972
 48.2476  7492.83  86.1167
 48.2896  7571.22  86.4769
 48.3316  7580.67  86.4689
 48.3736  7440.84  85.6852
 48.4156  7534.38  86.0701
 48.4576  7474.49  86.0221
 48.4996  7670.78  86.5834
 48.5416  7492.02  85.8874
 48.5836  7556.8  85.9396
 48.6256  7317.75  84.8031
 48.6676  7504.3  86.3868
 48.7096  7569.74  86.0146
 48.7516  7484.1  85.6666
 48.7936  7445.19  85.5042
 48.8356  7460.25  85.6353
 48.8776  7541.95  86.7124
 48.9196  7384.85  85.1681
 48.9616  7434.5  85.8434
 49.0036  7388.99  85.9213
 49.0456  7488.6  86.4849
 49.0876  7624.7  86.7977
 49.1296  7418.36  85.7742
 49.1716  7448.52  85.802
 49.2136  7565.19  86.4154
 49.2556  7453.74  85.8019
 49.2976  7363.34  85.3488
 49.3396  7386.86  85.5443
 49.3816  7441.28  85.2812
 49.4236  7527.33  86.2123
 49.4656  7446.4  85.7495
 49.5076  7462.37  85.5838
 49.5496  7454.76  85.5948
 49.5916  7492.82  85.7466
 49.6336  7326.62  85.0028
 49.6756  7260.68  84.8537
 49.7176  7407.59  85.631
 49.7596  7334.12  84.9734
 49.8016  7500.85  85.871
 49.8436  7447.03  85.8522
 49.8856  7394.59  85.5461
 49.9276  7299.21  85.0932
 49.9696  7386.81  85.5899
 50.0116  7490.01  86.3435
 50.0536  7320.05  85.2801
 50.0956  7400.65  85.8176
 50.1376  7281.55  84.8367
 50.1796  7389.12  85.715
 50.2216  7367.87  85.6064
 50.2636  7303.17  84.8119
 50.3056  7325.65  85.1247
 50.3476  7309.72  85.0762
 50.3896  7269.87  84.8036
 50.4316  7354.56  85.1304
 50.4736  7277.65  84.9051
 50.5156  7380  85.5087
 50.5576  7391.84  85.3239
 50.5996  7270.86  84.8964
 50.6416  7362.07  85.3601
 50.6836  7303.83  85.0857
 50.7256  7355.47  85.3215
 50.7676  7248.79  85.0081
 50.8096  7355.54  85.1606
 50.8516  7242.64  84.929
 50.8936  7398.77  85.6168
 50.9356  7357.27  85.4794
 50.9776  7408.53  85.9283
 51.0196  7387.64  85.9439
 51.0616  7328.59  84.8992
 51.1036  7465.26  86.0628
 51.1456  7421.25  85.7146
 51.1876  7416.18  85.0009
 51.2296  7291.41  84.9391
 51.2716  7377.92  85.1403
 51.3136  7355.06  85.4832
 51.3556  7418.92  85.4636
 51.3976  7301.2  84.9341
 51.4396  7190.46  84.6044
 51.4816  7340.74  85.3339
 51.5236  7379.26  85.6389
 51.5656  7347.58  85.0421
 51.6076  7330.5  85.0251
 51.6496  7314.68  85.1448
 51.6916  7336.44  85.6324
 51.7336  7350.52  85.8214
 51.7756  7223.57  84.7536
 51.8176  7346.74  85.5911
 51.8596  7296.85  85.3157
 51.9016  7420.41  85.6233
 51.9436  7186.62  85.7215
 51.9856  7077.19  85.572
 52.0276  7162.4  84.5408
 52.0696  7102.31  84.2512
 52.1116  7140.87  84.6013
 52.1536  7095.89  84.2197
 52.1956  7191.26  84.2277
 52.2376  7209.23  84.503
 52.2796  7249.31  84.5363
 52.3216  7100.29  84.3852
 52.3636  7107.36  84.0011
 52.4056  7138.64  84.0249
 52.4476  7056.1  83.9288
 52.4896  6972.77  83.4842
 52.5316  7082.8  84.1763
 52.5736  7149.66  84.2921
 52.6156  7055.58  84.1158
 52.6576  7143.89  84.0784
 52.6996  6943.98  83.8833
 52.7416  7107.35  84.7245
 52.7836  7146.35  84.8351
 52.8256  7181.21  84.2285
 52.8676  7037.52  83.9766
 52.9096  6962.64  83.6109
 52.9516  7207.66  85.4601
 52.9936  7121.51  85.349
 53.0356  7127.08  84.3344
 53.0776  7050.13  84.1381
 53.1196  6919.92  83.5016
 53.1616  7008.99  84.0862
 53.2036  6954.56  83.7015
 53.2456  6974.85  83.9353
 53.2876  7058.5  84.1356
 53.3296  7085.47  84.6394
 53.3716  7013.53  83.936
 53.4136  6977.38  83.8674
 53.4556  6988.03  83.9693
 53.4976  6963.61  83.6742
 53.5396  6966.87  84.0973
 53.5816  7054.48  84.2382
 53.6236  6990.85  84.2115
 53.6656  6991.17  83.8367
 53.7076  7051.26  84.1566
 53.7496  6989.22  83.9125
 53.7916  6985.86  84.0135
 53.8336  6959.61  83.7601
 53.8756  6856.85  83.706
 53.9176  7114.23  84.5687
 53.9596  6969.85  84.5085
 54.0016  6984.1  83.8965
 54.0436  6935.97  83.834
 54.0856  7057.53  83.9623
 54.1276  6929.48  83.4091
 54.1696  6915.4  83.5014
 54.2116  7065.15  84.1468
 54.2536  6947.76  83.2532
 54.2956  7043.8  83.8693
 54.3376  6914.45  83.606
 54.3796  7052.39  84.326
 54.4216  7039.72  84.3082
 54.4636  6979.68  83.9049
 54.5056  7004.41  83.8658
 54.5476  6969.95  84.0004
 54.5896  6967.3  83.801
 54.6316  6990  83.7899
 54.6736  7073.36  84.3722
 54.7156  6902.35  83.3649
 54.7576  6973.43  83.7945
 54.7996  6942.74  83.7506
 54.8416  7080.86  84.631
 54.8836  6862.18  83.4362
 54.9256  6956.16  83.7399
 54.9676  6965.62  83.6536
 55.0096  6900.71  83.3349
 55.0516  7006.61  84.2176
 55.0936  6859.08  82.9321
 55.1356  6928.5  83.3921
 55.1776  6817.68  83.0118
 55.2196  7001.89  83.8907
 55.2616  7018.02  84.2116
 55.3036  6839.37  83.2995
 55.3456  6889.64  83.7702
 55.3876  6906.83  83.6044
 55.4296  6999.82  84.1382
 55.4716  6959.18  83.9264
 55.5136  6959.01  83.6624
 55.5556  6905.31  83.4226
 55.5976  6912.48  83.5282
 55.6396  6918.76  83.5004
 55.6816  6859.01  83.0138
 55.7236  7006.59  83.9593
 55.7656  6955.18  83.3894
 55.8076  6986.19  83.5539
 55.8496  6886.82  83.2906
 55.8916  6882.18  83.4811
 55.9336  6805.94  82.8227
 55.9756  6799.97  82.6723
 56.0176  6810.49  82.9018
 56.0596  6912.43  83.4959
 56.1016  6907.81  83.4796
 56.1436  6892.55  83.6575
 56.1856  6901.19  83.4411
 56.2276  6864.11  83.2812
 56.2696  6889.26  83.3983
 56.3116  6834.86  83.5041
 56.3536  6871.24  83.3643
 56.3956  6867.36  83.3245
 56.4376  6864.23  83.3413
 56.4796  6931.24  83.5308
 56.5216  6863.3  83.5248
 56.5636  6967.56  83.7167
 56.6056  6762.54  82.7231
 56.6476  6903.41  83.1878
 56.6896  6876.72  83.498
 56.7316  6833.77  83.1291
 56.7736  6837.36  83.1618
 56.8156  6812.08  83.0016
 56.8576  6877.92  83.3415
 56.8996  6836.5  83.0336
 56.9416  6858.37  83.4749
 56.9836  6746.19  82.2771
 57.0256  6836.31  83.1625
 57.0676  6874.51  83.5332
 57.1096  6951.76  83.7763
 57.1516  6923.75  83.6761
 57.1936  6773.46  82.4917
 57.2356  6946.89  83.8846
 57.2776  6941.77  83.7907
 57.3196  6928.23  84.1211
 57.3616  6920.29  83.5265
 57.4036  6878.57  83.3452
 57.4456  6859.45  83.1969
 57.4876  6881.47  83.174
 57.5296  6729.97  82.6115
 57.5716  6839.55  83.2702
 57.6136  6894.99  83.4051
 57.6556  6801.18  82.9953
 57.6976  6834.45  83.0039
 57.7396  6764.94  82.9749
 57.7816  6694.51  82.9169
 57.8236  6722  82.8711
 57.8656  6972.48  84.0339
 57.9076  6821.55  83.1539
 57.9496  6871.2  83.8206
 57.9916  6826.79  83.037
 58.0336  6820.66  83.2841
 58.0756  6922.54  83.5294
 58.1176  6848.59  83.0716
 58.1596  6733.2  82.9698
 58.2016  7004.92  83.7995
 58.2436  6922.32  83.7374
 58.2856  6932.85  83.7208
 58.3276  6964.21  84.2994
 58.3696  6981.05  84.1339
 58.4116  6896.31  83.4833
 58.4536  6959.25  83.735
 58.4956  6773.93  82.8093
 58.5376  6981.7  83.6091
 58.5796  6858.39  83.3217
 58.6216  6875.81  83.2312
 58.6636  6975.07  84.0605
 58.7056  7029.74  84.2299
 58.7476  6842.93  83.5761
 58.7896  6847.79  83.2284
 58.8316  6977.45  84.0005
 58.8736  6943.18  83.8091
 58.9156  6878.04  83.4594
 58.9576  6810.94  83.4029
 58.9996  6980.58  83.6191
 59.0416  6889.83  83.471
 59.0836  6879.21  83.304
 59.1256  6874.53  84.032
 59.1676  6894.66  84.4883
 59.2096  6808.67  83.236
 59.2516  7019.16  84.0611
 59.2936  6898.38  83.6855
 59.3356  6715.37  82.439
 59.3776  6942.31  84.0016
 59.4196  6894.83  83.6459
 59.4616  6784.72  82.8264
 59.5036  6867.57  83.3677
 59.5456  6817.13  82.7358
 59.5876  7123.82  84.7839
 59.6296  7018.18  84.2276
 59.6716  6940.59  83.8228
 59.7136  6969.36  83.9838
 59.7556  6853.49  83.4281
 59.7976  6832.42  83.0254
 59.8396  6804.24  82.7418
 59.8816  6880.47  83.7865
 59.9236  6888.09  83.452
 59.9656  6834.03  83.4001
 60.0076  7020.88  83.8407
 60.0496  6971.01  84.0838
 60.0916  7136.11  84.4411
 60.1336  6893.12  84.1741
 60.1756  6805.7  84.8959
 60.1996  0.0000000E+00  0.0000000E+00