File: docs/examples/opeando_xrd/IS17_D/Data/IS17_D_fresh/17_D_fresh_f00007.xye
# /beamlines/bl04/projects/cycle2025-II/20250340211-lsimonelli/DATA/IS17_D_fresh/17_D_fresh_f00007.xye : mythproc.py merge -s 0.006 -l 0.5 -f /beamlines/bl04/inhouse/ff/FlatField/ff_20Nov2024rod8mm60s_17keV.raw -b True -c true -o xye /beamlines/bl04/projects/cycle2025-II/20250340211-lsimonelli/DATA/IS17_D_fresh/17_D_fresh_00007.dat
# IsMon = [6793284, 6792522, 6793006]  IsPos = [-1.4999, -2.4884, -3.4988]
# Wave = 0.4962  CalPath /beamlines/bl04/projects/cycle2025-II/20250340211-lsimonelli/DATA/Align/Si_Pos1_25keV_f00001.cal
# Date = 2025-09-24_18:59:02 Dt = 4.8000  Bin = 0.0060  <imon> = 6792937 +/- 315 (Min/Max) 6792522 / 6793284
# icurr 252.7584  mocoIn 1.7235E-05  mocoOut 0.8083  i15 7.10961e+06  imon 6.79294e+06  i7 8.0000  iEMpd_timer 4.8000  iEMpd_1 3.3683E-08  iEMpd_2 7.8017E-08  iEMpd_3 1.5672E-08  iEMpd_4 4.7157E-08  iEMhp_timer 4.8000  iEMhp_1 4.9357E-06  iEMhp_2 -2.6159E-08  iEMhp_3 -2.4284E-08  iEMhp_4 -2.1365E-08
#      9776
 1.5856  38818.1  202.306
 1.6276  46061.2  216.592
 1.6696  53047.8  231.619
 1.7116  61766.8  250.419
 1.7536  71218.4  267.751
 1.7956  76050.1  277.376
 1.8376  72289  270.859
 1.8796  60360  245.683
 1.9216  48107.8  220.209
 1.9636  40744.6  201.826
 2.0056  36414.4  190.061
 2.0476  34093.4  185.921
 2.0896  32942.1  181.683
 2.1316  32144.8  178.608
 2.1736  29928  173.706
 2.2156  30907  175.108
 2.2576  29872.5  172.771
 2.2996  28309  168.805
 2.3416  29270.8  170.28
 2.3836  28428.5  167.914
 2.4256  27409.7  165.415
 2.4676  27332.9  164.949
 2.5096  26842.2  163.515
 2.5516  26859.5  167.377
 2.5936  26853.6  163.966
 2.6356  26150.2  162.483
 2.6776  26305.9  161.846
 2.7196  25918.5  161.184
 2.7616  25929.8  160.989
 2.8036  25428  159.6
 2.8456  25456.2  160.292
 2.8876  25120.5  159.119
 2.9296  24757.7  158.089
 2.9716  24684.9  157.344
 3.0136  24340.1  156.308
 3.0556  24432.7  157.01
 3.0976  24228.1  155.289
 3.1396  24258  156.107
 3.1816  23792.6  154.528
 3.2236  23763.8  154.44
 3.2656  23757.5  153.454
 3.3076  23621.9  154.46
 3.3496  24095.1  154.939
 3.3916  24384.8  155.691
 3.4336  24905.5  157.927
 3.4756  25196.8  158.769
 3.5176  25800.1  160.457
 3.5596  25732.1  162.683
 3.6016  26043.5  161.268
 3.6436  25325.5  160.139
 3.6856  24746.2  156.59
 3.7276  24088.4  155.592
 3.7696  23943  155.32
 3.8116  23341.1  153.239
 3.8536  23464.2  153.576
 3.8956  23647.3  153.996
 3.9376  23438.8  153.568
 3.9796  23363.8  152.829
 4.0216  23659.6  152.814
 4.0636  23634  154.235
 4.1056  23517.4  153.487
 4.1476  23617.4  154.129
 4.1896  23984.4  155.175
 4.2316  24060.8  155.251
 4.2736  24473  156.354
 4.3156  24858.8  157.819
 4.3576  25711.5  160.438
 4.3996  25985.9  161.55
 4.4416  26331.3  162.195
 4.4836  26952.1  164.248
 4.5256  27182.3  165.569
 4.5676  27158.5  165.756
 4.6096  27780.1  166.276
 4.6516  28248.4  167.38
 4.6936  28525.7  169.025
 4.7356  28744.4  169.499
 4.7776  28724.2  169.271
 4.8196  28353.3  168.828
 4.8616  28088  167.508
 4.9036  27541.8  165.617
 4.9456  27793.9  167.04
 4.9876  27027.8  164.619
 5.0296  27446.8  165.694
 5.0716  27421.9  166.423
 5.1136  27503.9  166.374
 5.1556  28159.4  167.794
 5.1976  28081.7  167.549
 5.2396  28311.7  167.931
 5.2816  28387.2  168.623
 5.3236  28478.5  168.596
 5.3656  28118.4  168.464
 5.4076  28004  168.28
 5.4496  28226.2  168.421
 5.4916  28419  168.738
 5.5336  28263.8  168.29
 5.5756  28127.5  167.911
 5.6176  28404.2  168.156
 5.6596  28383.8  169.088
 5.7016  28846.1  169.7
 5.7436  29043.2  170.565
 5.7856  28694.6  169.595
 5.8276  29351.7  171.248
 5.8696  29554.7  172.011
 5.9116  29266.3  171.794
 5.9536  29493.8  172.201
 5.9956  29745  172.277
 6.0376  30135.4  174.068
 6.0796  30268.9  174.279
 6.1216  30336.1  174.684
 6.1636  30472.6  174.109
 6.2056  30607.9  175.189
 6.2476  30708.3  175.333
 6.2896  30870.1  175.471
 6.3316  30661.8  175.05
 6.3736  31017.1  175.96
 6.4156  31061.6  175.975
 6.4576  31144.9  175.802
 6.4996  31664.5  177.772
 6.5416  31292.4  176.86
 6.5836  31558.4  177.85
 6.6256  31484.1  177.181
 6.6676  31996.6  178.178
 6.7096  31752.3  178.371
 6.7516  32485.7  180.063
 6.7936  32512.5  179.547
 6.8356  32563  179.768
 6.8776  33029.2  181.882
 6.9196  33153.9  182.633
 6.9616  33715.6  183.602
 7.0036  34026.6  184.079
 7.0456  33912.6  183.045
 7.0876  33978.3  184.971
 7.1296  33874.7  183.798
 7.1716  33745.4  182.969
 7.2136  33663.6  182.524
 7.2556  33994.6  183.583
 7.2976  34071.6  184.312
 7.3396  34048.2  184.467
 7.3816  33962.6  184.458
 7.4236  34321.7  184.692
 7.4656  34490.5  184.619
 7.5076  34625.2  185.114
 7.5496  34611.7  185.637
 7.5916  34618.3  185.683
 7.6336  35063.1  186.768
 7.6756  35145  186.835
 7.7176  35540.8  188.194
 7.7596  35531.9  189.479
 7.8016  35853.4  192.573
 7.8436  36716.8  191.43
 7.8856  36776.7  191.17
 7.9276  37782.3  194.192
 7.9696  37652.8  194.18
 8.0116  38732.6  195.42
 8.0536  39152.8  196.742
 8.0956  38865.1  197.254
 8.1376  39457.9  198.197
 8.1796  39747.3  199.484
 8.2216  40787.5  200.756
 8.2636  40582.4  200.512
 8.3056  40661.2  201.513
 8.3476  41391.4  202.604
 8.3896  41039.7  201.828
 8.4316  41224  202.456
 8.4736  41284.4  202.048
 8.5156  41024.2  201.699
 8.5576  40908.6  202.433
 8.5996  40913  201.263
 8.6416  41209.2  203.321
 8.6836  40519.9  201.435
 8.7256  41415.9  203.07
 8.7676  40497.9  203.816
 8.8096  40046.1  199.865
 8.8516  39729.4  198.687
 8.8936  39690.9  198.481
 8.9356  39364.8  198.015
 8.9776  39660.1  198.856
 9.0196  39535.4  198.196
 9.0616  39863  198.47
 9.1036  39303.9  198.321
 9.1456  39239.8  197.484
 9.1876  39421.3  197.885
 9.2296  39718.7  198.005
 9.2716  38719.3  195.566
 9.3136  39174.5  196.683
 9.3556  39317  197.03
 9.3976  37452.5  192.853
 9.4396  38294.8  194.893
 9.4816  37497.2  192.708
 9.5236  37806.8  193.412
 9.5656  37325.3  192.518
 9.6076  37145.1  192.609
 9.6496  37197.2  192.663
 9.6916  37347.3  193.024
 9.7336  37221.3  192.465
 9.7756  37625.6  194.841
 9.8176  36513  191.398
 9.8596  36692.7  190.237
 9.9016  36119.5  188.741
 9.9436  36045.6  188.456
 9.9856  35635  187.589
 10.0276  36100.6  190.023
 10.0696  35419.3  187.199
 10.1116  34390.2  184.735
 10.1536  34323.9  184.739
 10.1956  33670.6  182.542
 10.2376  33329.2  181.092
 10.2796  33795  182.497
 10.3216  33467.7  181.876
 10.3636  33372.3  181.665
 10.4056  33007.1  181.084
 10.4476  32696.1  179.838
 10.4896  33050.4  180.239
 10.5316  32369.9  179.103
 10.5736  32166.9  178.977
 10.6156  31885.1  177.943
 10.6576  32248.7  177.435
 10.6996  31674.9  176.545
 10.7416  31279.8  175.692
 10.7836  31743  177.74
 10.8256  30797.8  175.528
 10.8676  31132.4  175.981
 10.9096  30622.2  174.58
 10.9516  30166.2  172.145
 10.9936  30174.1  172.379
 11.0356  30059.5  172.717
 11.0776  29764  171.151
 11.1196  29217.3  170.343
 11.1616  29279.7  170.207
 11.2036  29449.1  170.547
 11.2456  29381.2  171.093
 11.2876  29050  169.839
 11.3296  28774.5  168.912
 11.3716  29067.8  169.461
 11.4136  29077.5  170.432
 11.4556  29233.3  170.543
 11.4976  29445.8  170.074
 11.5396  29654.4  170.859
 11.5816  29422.9  170.676
 11.6236  29223.3  170.324
 11.6656  28523.7  167.38
 11.7076  28092.2  167
 11.7496  27878.7  170.43
 11.7916  27844.5  165.49
 11.8336  27690.4  165.95
 11.8756  27377.2  164.524
 11.9176  27670.5  165.021
 11.9596  26931.5  163.015
 12.0016  27204.1  164.682
 12.0436  26933.1  163.244
 12.0856  26686.3  163.053
 12.1276  26833.8  163.405
 12.1696  26673.2  162.024
 12.2116  27269.5  163.819
 12.2536  26619.9  162.726
 12.2956  26878.6  162.818
 12.3376  26390.4  161.541
 12.3796  26918  163.618
 12.4216  26619.8  161.909
 12.4636  26404.6  162.194
 12.5056  26670.3  162.237
 12.5476  26762.7  162.045
 12.5896  26723.7  162.587
 12.6316  26282.7  161.4
 12.6736  26366.4  162.173
 12.7156  26216.1  161.569
 12.7576  26579.2  162.949
 12.7996  26629.3  161.67
 12.8416  26293  161.746
 12.8836  26839.2  163.239
 12.9256  27113.8  163.023
 12.9676  27225.1  163.813
 13.0096  26804.4  163.683
 13.0516  27068.7  163.488
 13.0936  26991.3  163.658
 13.1356  27557.9  164.307
 13.1776  26940.9  163.487
 13.2196  27255  164.086
 13.2616  27165.5  164.141
 13.3036  27354.5  164.677
 13.3456  27299.4  164.896
 13.3876  26988.2  163.203
 13.4296  26970  163.299
 13.4716  27254.4  163.748
 13.5136  27167.4  163.666
 13.5556  27152.7  164.25
 13.5976  27297.1  164.825
 13.6396  27486.3  164.741
 13.6816  26897.7  163.487
 13.7236  27205.9  164.063
 13.7656  26628.1  162.852
 13.8076  27016.2  162.762
 13.8496  26633.3  162.227
 13.8916  26697.5  163.494
 13.9336  26814  163.034
 13.9756  26535  161.495
 14.0176  26753.4  162.874
 14.0596  26450.9  161.925
 14.1016  26299.9  161.851
 14.1436  25928.9  159.809
 14.1856  25594.6  159.086
 14.2276  25369.3  158.888
 14.2696  25885.3  160.325
 14.3116  25441.3  158.852
 14.3536  25044.3  157.787
 14.3956  25168.4  157.898
 14.4376  25220  157.823
 14.4796  25118  157.493
 14.5216  24636.6  156.814
 14.5636  24459  155.773
 14.6056  24558  155.667
 14.6476  24470.7  154.578
 14.6896  24039.2  153.771
 14.7316  23877.4  154.335
 14.7736  23903.9  153.524
 14.8156  23497.1  152.254
 14.8576  23543.9  152.243
 14.8996  23110.4  152.103
 14.9416  22592.2  150.396
 14.9836  22742.9  150.846
 15.0256  22594.4  149.239
 15.0676  22723.2  149.996
 15.1096  22465.6  148.866
 15.1516  22180.7  148.508
 15.1936  22171.4  147.87
 15.2356  21854.4  147.105
 15.2776  21849.9  146.653
 15.3196  21259.8  145.711
 15.3616  21331.5  145.699
 15.4036  21177  145.024
 15.4456  21419.6  145.478
 15.4876  21110.8  144.088
 15.5296  21096.8  144.343
 15.5716  20749.6  142.732
 15.6136  20743.5  143.056
 15.6556  20613.2  141.803
 15.6976  20709.8  142.45
 15.7396  20246.2  141.257
 15.7816  20312.6  140.972
 15.8236  19886.2  140.215
 15.8656  19862.1  139.912
 15.9076  19657.1  139.004
 15.9496  19223.7  140.353
 15.9916  19447.9  141.652
 16.0336  18984.8  136.701
 16.0756  19029.8  137.187
 16.1176  18949.2  136.967
 16.1596  18475.1  136.47
 16.2016  18813.3  136.397
 16.2436  18669.1  136.279
 16.2856  18439.8  134.967
 16.3276  18344.2  135.051
 16.3696  18525.7  135.522
 16.4116  18342  135.34
 16.4536  18371.9  135.221
 16.4956  18108.9  133.977
 16.5376  18060.2  133.99
 16.5796  17986.7  133.043
 16.6216  18053.2  133.617
 16.6636  17829.9  132.946
 16.7056  18001.9  133.447
 16.7476  18062.5  133.173
 16.7896  17883.5  133.302
 16.8316  17883.2  133.264
 16.8736  17758.4  133.064
 16.9156  17825  133.663
 16.9576  17825.2  134.507
 16.9996  17728.9  134.65
 17.0416  18000.5  133.948
 17.0836  17735.8  132.698
 17.1256  17517.8  131.894
 17.1676  17668.7  132.467
 17.2096  17431.3  131.437
 17.2516  17295.5  130.689
 17.2936  17499.7  131.79
 17.3356  16910  129.568
 17.3776  17011.2  130.15
 17.4196  17301.6  130.937
 17.4616  16859.1  129.168
 17.5036  16786  129.272
 17.5456  16724.8  129.712
 17.5876  16684  128.552
 17.6296  16662.6  128.272
 17.6716  16617.9  128.696
 17.7136  16233.6  127.355
 17.7556  16476.3  128.608
 17.7976  16432.4  128.173
 17.8396  16149.6  126.536
 17.8816  16441.2  128.247
 17.9236  16381.2  127.816
 17.9656  16478.5  128.77
 18.0076  16351.4  127.82
 18.0496  16440.6  127.261
 18.0916  16360.1  127.514
 18.1336  16297.1  127.37
 18.1756  16471.1  127.552
 18.2176  16370.5  127.396
 18.2596  16389.7  127.197
 18.3016  16581  128.213
 18.3436  16588.9  128.251
 18.3856  16163.4  126.728
 18.4276  16327.3  127.022
 18.4696  16128.9  126.35
 18.5116  16254.4  127.154
 18.5536  16257.5  127.538
 18.5956  15966.8  125.916
 18.6376  16030.6  126.602
 18.6796  15816.4  125.046
 18.7216  16136.5  126.82
 18.7636  15591.2  124.644
 18.8056  15771.7  125.306
 18.8476  15567.2  125.145
 18.8896  15752.4  125.189
 18.9316  15770.6  125.248
 18.9736  15608.1  124.275
 19.0156  15774  125.361
 19.0576  15635.2  123.622
 19.0996  15657.9  124.461
 19.1416  15436.6  123.974
 19.1836  15536.8  123.969
 19.2256  15512.2  124.093
 19.2676  15517.6  124.214
 19.3096  15613.2  124.856
 19.3516  15470.8  124.242
 19.3936  15507.2  124.28
 19.4356  15386.4  123.653
 19.4776  15578  124.527
 19.5196  15309.8  123.3
 19.5616  15467.1  124.195
 19.6036  15480  123.719
 19.6456  15420.9  123.617
 19.6876  15730  124.475
 19.7296  15428.4  123.744
 19.7716  15498.4  124.194
 19.8136  15556  124.651
 19.8556  15726.8  124.783
 19.8976  15790.7  125.101
 19.9396  15722.5  124.381
 19.9816  15946.5  125.523
 20.0236  15934.2  125.71
 20.0656  16187.4  126.693
 20.1076  15715.8  125.324
 20.1496  15743.7  125.449
 20.1916  15316.8  123.224
 20.2336  15328  123.212
 20.2756  15246.3  123.323
 20.3176  15073  122.357
 20.3596  15008  122.064
 20.4016  15020.9  121.917
 20.4436  15014.1  122.47
 20.4856  14628.6  120.665
 20.5276  14851.9  122.066
 20.5696  14836.1  121.437
 20.6116  14795.5  121.565
 20.6536  14907  121.494
 20.6956  14646.8  120.562
 20.7376  14771.3  121.321
 20.7796  14690.3  120.657
 20.8216  14765.5  120.657
 20.8636  14528.2  120.062
 20.9056  14572.8  120.2
 20.9476  14386.7  119.265
 20.9896  14707.9  120.447
 21.0316  14814.6  120.777
 21.0736  14705.5  120.876
 21.1156  14552.5  120.409
 21.1576  14527.1  120.365
 21.1996  14685.1  120.989
 21.2416  14261.7  119.053
 21.2836  14598.4  120.413
 21.3256  14387  119.627
 21.3676  14541.7  119.802
 21.4096  14293.9  119.098
 21.4516  14282.8  118.926
 21.4936  14169.7  118.713
 21.5356  14418.8  119.699
 21.5776  14482.3  119.786
 21.6196  14267.8  118.922
 21.6616  14084.9  118.26
 21.7036  14123.3  118.191
 21.7456  14281.3  118.926
 21.7876  14266.5  118.6
 21.8296  14106.2  117.787
 21.8716  14084.4  117.938
 21.9136  14341.4  119.221
 21.9556  14190  118.232
 21.9976  14036.7  117.615
 22.0396  14070.6  118.02
 22.0816  14068  118.589
 22.1236  14205.8  118.591
 22.1656  14066.8  118.137
 22.2076  14315.7  118.625
 22.2496  14212.1  118.228
 22.2916  14266.2  118.328
 22.3336  14064.6  118.254
 22.3756  14194.9  118.504
 22.4176  14051.7  117.751
 22.4596  13839.9  117.479
 22.5016  13990.4  117.587
 22.5436  14037.7  117.657
 22.5856  14124.9  118.283
 22.6276  14086.7  118.266
 22.6696  14051.7  118.496
 22.7116  14040.1  117.927
 22.7536  14017.7  117.808
 22.7956  14140.8  117.615
 22.8376  13838.7  116.9
 22.8796  14136.3  117.94
 22.9216  14123.1  118.461
 22.9636  14050.2  117.258
 23.0056  14095.8  117.591
 23.0476  14112.8  118.271
 23.0896  14427.3  118.915
 23.1316  14199.7  118.436
 23.1736  13992.2  120.676
 23.2156  13735.1  116.817
 23.2576  13730.7  116.928
 23.2996  13824.4  117.107
 23.3416  13767.1  117.393
 23.3836  13653.8  116.121
 23.4256  13814.7  116.929
 23.4676  13853.4  116.774
 23.5096  13689.4  116.788
 23.5516  13670.2  115.956
 23.5936  13760.9  117.273
 23.6356  13822.1  117.195
 23.6776  13803.3  117.347
 23.7196  13632.5  116.171
 23.7616  13799.7  116.79
 23.8036  13748.8  116.627
 23.8456  13783.5  116.317
 23.8876  13408.2  115.08
 23.9296  13473.1  115.883
 23.9716  13539.1  115.315
 24.0136  13476.7  115.976
 24.0556  13376.8  115.28
 24.0976  13383.3  115.099
 24.1396  13347.2  117.743
 24.1816  13431.2  116.444
 24.2236  13427.5  116.016
 24.2656  13231.2  114.612
 24.3076  13117.9  114.368
 24.3496  13273.1  114.94
 24.3916  13007.9  113.825
 24.4336  13153  114.691
 24.4756  12983.4  113.802
 24.5176  12878.6  112.987
 24.5596  12840.4  112.951
 24.6016  12629.4  112.312
 24.6436  12802.7  112.548
 24.6856  12903.9  112.746
 24.7276  12826  112.733
 24.7696  12725  112.407
 24.8116  12668.2  112.351
 24.8536  12659.6  112.29
 24.8956  12526.6  111.437
 24.9376  12519.8  111.35
 24.9796  12458.7  111.444
 25.0216  12223.7  110.497
 25.0636  12411  110.979
 25.1056  12178.7  110.668
 25.1476  12461.8  113.696
 25.1896  12600.8  112.725
 25.2316  12459.8  111.325
 25.2736  12366  110.542
 25.3156  12362.5  110.61
 25.3576  12244.6  110.517
 25.3996  12244.1  110.489
 25.4416  12201.5  110.28
 25.4836  12109.1  110.418
 25.5256  12221.5  110.26
 25.5676  12255.4  110.134
 25.6096  11887.8  109.063
 25.6516  12221.6  110.057
 25.6936  11968.1  109.225
 25.7356  12168.7  110.285
 25.7776  12053.1  109.35
 25.8196  11970.5  109.206
 25.8616  12028.5  109.402
 25.9036  12137.7  109.342
 25.9456  11963.6  109.18
 25.9876  11919.7  109.033
 26.0296  12251.7  110.03
 26.0716  11884  108.804
 26.1136  11985.8  109.224
 26.1556  12134  109.237
 26.1976  11885.6  109.085
 26.2396  12064.5  109.013
 26.2816  12039.1  109.538
 26.3236  11954.4  109.324
 26.3656  11828.6  108.455
 26.4076  11943.3  109.201
 26.4496  13398.1  115.013
 26.4916  12108.4  109.428
 26.5336  11786.4  108.29
 26.5756  11863.6  108.522
 26.6176  11847.3  108.481
 26.6596  11718.4  108.212
 26.7016  11934.3  108.948
 26.7436  11666.6  107.852
 26.7856  11537.1  107.233
 26.8276  11638  107.651
 26.8696  11664.8  107.655
 26.9116  11632.7  107.442
 26.9536  11621.5  107.438
 26.9956  11630.6  107.513
 27.0376  11561.8  107.414
 27.0796  11671.5  107.65
 27.1216  11412.4  106.524
 27.1636  11447.8  106.865
 27.2056  11372  106.384
 27.2476  11455.5  106.779
 27.2896  11516.4  107.179
 27.3316  11343.1  106.067
 27.3736  11442.3  106.811
 27.4156  11289.8  105.928
 27.4576  11335.9  106.392
 27.4996  11185.6  105.259
 27.5416  11248.6  105.889
 27.5836  11437.9  106.58
 27.6256  11757.1  108.238
 27.6676  11410.5  106.646
 27.7096  11207.5  105.551
 27.7516  11306.3  106.178
 27.7936  11161.3  105.672
 27.8356  11215.2  105.537
 27.8776  11108.5  105.067
 27.9196  11116  104.955
 27.9616  11213.1  105.611
 28.0036  11095.7  105.037
 28.0456  11241.5  105.858
 28.0876  11214  105.82
 28.1296  11051  104.88
 28.1716  11057.2  104.921
 28.2136  11041.2  104.807
 28.2556  10942.8  104.464
 28.2976  11093.5  105.17
 28.3396  10978.9  104.371
 28.3816  11009.1  104.536
 28.4236  10994.7  104.628
 28.4656  10902.4  104.222
 28.5076  10873.5  103.696
 28.5496  10935.1  104.278
 28.5916  10917.4  103.991
 28.6336  10782.7  103.7
 28.6756  10830.7  103.099
 28.7176  10788.1  103.467
 28.7596  10778.7  103.318
 28.8016  10945.6  104.15
 28.8436  10671.4  103.089
 28.8856  10817.8  103.641
 28.9276  10748.6  103.558
 28.9696  10652.3  102.746
 29.0116  10729.4  103.296
 29.0536  10611.6  102.943
 29.0956  10601  102.604
 29.1376  10624.6  102.678
 29.1796  10715  103.157
 29.2216  10721.2  103.025
 29.2636  10708.7  103.045
 29.3056  10643  102.509
 29.3476  10624.8  102.969
 29.3896  10736.2  103.606
 29.4316  10737.9  102.927
 29.4736  10654  102.582
 29.5156  10800.8  103.214
 29.5576  10704.2  103.526
 29.5996  10610.2  102.296
 29.6416  10673.4  102.724
 29.6836  10687  102.713
 29.7256  10661.7  103.187
 29.7676  10587.9  102.472
 29.8096  10589.2  102.421
 29.8516  10277.8  101.25
 29.8936  10646.2  103.145
 29.9356  10716.5  103.223
 29.9776  10373.9  101.715
 30.0196  10553.6  101.951
 30.0616  10389.8  101.551
 30.1036  10543.7  102.118
 30.1456  10555.8  102.419
 30.1876  10416.4  101.721
 30.2296  10424.8  101.709
 30.2716  10542.9  101.901
 30.3136  10574.9  102.961
 30.3556  10459.9  102.407
 30.3976  10350.9  103.46
 30.4396  10440.7  101.12
 30.4816  10420.4  100.601
 30.5236  10232.8  99.7074
 30.5656  10224.3  100.347
 30.6076  10317.6  100.21
 30.6496  10212.6  100.099
 30.6916  10196.8  100.12
 30.7336  10263.9  100.604
 30.7756  10158.4  100.179
 30.8176  10243.7  100.511
 30.8596  10210.8  100.108
 30.9016  10034.2  99.5954
 30.9436  10213.8  100.226
 30.9856  10335.7  100.931
 31.0276  10055.1  99.1476
 31.0696  10122.2  100.081
 31.1116  10033.2  99.6137
 31.1536  10153.6  100.089
 31.1956  10035  99.5921
 31.2376  10089.4  99.8704
 31.2796  10056.1  99.227
 31.3216  10179.5  99.7742
 31.3636  10255.9  100.874
 31.4056  10220.8  102.071
 31.4476  10128.8  99.4043
 31.4896  10149  100.034
 31.5316  10344  100.354
 31.5736  10350  100.178
 31.6156  10139  99.1975
 31.6576  10147.3  99.3446
 31.6996  10305.5  99.7718
 31.7416  10075.2  99.7405
 31.7836  10135.5  99.0224
 31.8256  10077.5  99.0208
 31.8676  10371.2  100.452
 31.9096  9974.65  98.8792
 31.9516  9898.4  98.6626
 31.9936  10015  99.0692
 32.0356  10060.1  99.362
 32.0776  10155.3  99.7068
 32.1196  10089.9  99.4659
 32.1616  10044.7  98.6905
 32.2036  9922.1  98.6112
 32.2456  10074.3  99.7719
 32.2876  9910.55  98.4328
 32.3296  9915.47  98.4202
 32.3716  9847.15  98.1745
 32.4136  9923.64  98.8005
 32.4556  10026.6  98.6533
 32.4976  9858.84  97.7263
 32.5396  9785.98  97.4425
 32.5816  9725.41  97.2613
 32.6236  9790.12  97.666
 32.6656  9971.78  99.1219
 32.7076  9721.76  97.5167
 32.7496  9817.16  97.6418
 32.7916  9783.51  97.4392
 32.8336  9779.14  97.5178
 32.8756  9843.88  97.5505
 32.9176  9558.51  96.6212
 32.9596  9671.56  97.2665
 33.0016  9684.23  97.1202
 33.0436  9810.35  97.9296
 33.0856  9558.81  96.7356
 33.1276  9578.39  96.5595
 33.1696  9690.06  96.967
 33.2116  9832.86  97.9168
 33.2536  9695.89  97.2216
 33.2956  9628.77  96.9789
 33.3376  9571.13  96.417
 33.3796  9680.39  97.1821
 33.4216  9605.83  96.3779
 33.4636  9835.26  97.6741
 33.5056  9547.27  96.49
 33.5476  9554.81  96.5238
 33.5896  9856.83  97.8049
 33.6316  9532.33  96.4925
 33.6736  9459.31  96.3837
 33.7156  9531.48  96.8038
 33.7576  9622.52  96.8824
 33.7996  9617.82  96.6119
 33.8416  9291.92  95.1429
 33.8836  9502.7  95.9883
 33.9256  9444.47  95.7558
 33.9676  9596.34  96.4184
 34.0096  9252.4  94.9954
 34.0516  9348.77  95.1104
 34.0936  9288.89  95.0876
 34.1356  9370.47  95.2325
 34.1776  9441.78  95.6032
 34.2196  9284.79  94.9898
 34.2616  9259.4  94.9949
 34.3036  9273.91  95.3327
 34.3456  9303.88  95.234
 34.3876  9335.78  95.3573
 34.4296  9276.68  94.7214
 34.4716  9388.25  95.4652
 34.5136  9409.02  95.7785
 34.5556  9288.86  95.4323
 34.5976  9394.59  95.7683
 34.6396  9274.41  94.8471
 34.6816  9108.65  94.1149
 34.7236  9210.48  94.412
 34.7656  9075.67  93.9197
 34.8076  9233.84  95.0685
 34.8496  9200.85  94.7509
 34.8916  9201.43  94.6291
 34.9336  9268.82  94.947
 34.9756  9125.87  94.1179
 35.0176  9233.05  95.2246
 35.0596  9063  94.1637
 35.1016  9119.88  94.2126
 35.1436  9243.35  94.5211
 35.1856  9062.65  93.7204
 35.2276  9210.94  94.6754
 35.2696  8999.59  93.7776
 35.3116  9033.37  94.0467
 35.3536  9040.39  93.77
 35.3956  9053.75  93.5511
 35.4376  9037.31  94.0495
 35.4796  9081  94.3339
 35.5216  8982.37  93.7683
 35.5636  8835.37  93.7565
 35.6056  9113.65  94.2058
 35.6476  9157.29  94.3336
 35.6896  9115.21  94.2092
 35.7316  8852.4  92.8103
 35.7736  8993.44  93.7444
 35.8156  8958.76  93.5664
 35.8576  8996.42  94.0327
 35.8996  9161.88  94.8199
 35.9416  9812.87  97.4217
 35.9836  8930.54  93.4959
 36.0256  9144.57  94.6299
 36.0676  8986.15  93.556
 36.1096  8820.12  92.8296
 36.1516  8914.86  93.2118
 36.1936  8911.29  93.0379
 36.2356  8885.51  93.5644
 36.2776  8823.04  92.6973
 36.3196  8764.78  92.0424
 36.3616  8882  92.807
 36.4036  8824.08  92.563
 36.4456  8946.14  93.4193
 36.4876  8765.4  92.3988
 36.5296  8801.12  92.632
 36.5716  8836.85  93.6199
 36.6136  8833.26  92.3517
 36.6556  8787.21  92.3104
 36.6976  8749.94  92.6243
 36.7396  8756.85  92.3745
 36.7816  8630.2  92.1017
 36.8236  8630.85  92.0265
 36.8656  8621.69  92.0411
 36.9076  8668.64  92.1654
 36.9496  8622.19  91.9106
 36.9916  8614.66  91.489
 37.0336  8780.99  92.6965
 37.0756  8686.59  91.9842
 37.1176  8473.3  91.124
 37.1596  8568.73  91.6457
 37.2016  8566.92  91.859
 37.2436  8631.96  91.4947
 37.2856  8596.57  91.5792
 37.3276  8681.8  91.3723
 37.3696  8602.56  91.8578
 37.4116  8595.7  91.7277
 37.4536  8393.32  90.5035
 37.4956  8469.42  90.9621
 37.5376  8711.04  93.8905
 37.5796  8582.68  93.1261
 37.6216  8479.76  90.7883
 37.6636  8346.89  89.9624
 37.7056  8463.8  90.7868
 37.7476  8462.16  90.309
 37.7896  8435.22  90.6856
 37.8316  8415.98  90.7435
 37.8736  8524.04  90.8403
 37.9156  8458.69  90.4799
 37.9576  8456.33  90.3769
 37.9996  8285.92  89.1702
 38.0416  8339.45  90.2808
 38.0836  8599.41  91.5771
 38.1256  8454.85  90.7711
 38.1676  8348.95  90.327
 38.2096  8367.82  90.0418
 38.2516  8377.36  90.312
 38.2936  8562.54  91.0935
 38.3356  8402.28  90.1661
 38.3776  8471.76  90.79
 38.4196  8338.09  89.9281
 38.4616  8383.85  90.4283
 38.5036  8404.44  90.3794
 38.5456  8344.61  90.9069
 38.5876  8386.32  91.1659
 38.6296  8283.57  89.5572
 38.6716  8377.19  89.8527
 38.7136  8389.91  89.8645
 38.7556  8288.49  89.8365
 38.7976  8436.98  90.5579
 38.8396  8328.11  90.4443
 38.8816  8272.16  89.9171
 38.9236  8212.68  89.404
 38.9656  8233.06  89.4215
 39.0076  8449.12  89.9702
 39.0496  8420.78  90.389
 39.0916  8429.36  90.0686
 39.1336  8246.56  89.5067
 39.1756  8312.07  89.9226
 39.2176  8340.23  90.6303
 39.2596  8333.29  90.5121
 39.3016  8325.64  90.0318
 39.3436  8243.95  90.0226
 39.3856  8378.24  90.1808
 39.4276  8348.61  90.5367
 39.4696  8245.06  89.5912
 39.5116  8319.55  90.5182
 39.5536  8306.95  90.8849
 39.5956  8393.1  90.4318
 39.6376  8242.81  89.6231
 39.6796  8165.35  88.941
 39.7216  8176.45  89.102
 39.7636  8240.76  90.0309
 39.8056  8257.57  89.8959
 39.8476  8268.02  90.2136
 39.8896  8175.85  89.3333
 39.9316  8129.85  89.3374
 39.9736  8337.59  90.0335
 40.0156  8177.82  88.993
 40.0576  8206.16  89.5072
 40.0996  8266.81  89.0087
 40.1416  8120.46  89.0165
 40.1836  8213.26  89.4124
 40.2256  8264.1  89.7222
 40.2676  8143.86  89.1797
 40.3096  8377.65  90.3773
 40.3516  8185.26  89.4413
 40.3936  8193.05  89.0378
 40.4356  8147.3  88.9957
 40.4776  8194.35  89.6644
 40.5196  8285.78  90.2934
 40.5616  8202.93  89.4718
 40.6036  8182.6  89.6232
 40.6456  8228.02  89.4718
 40.6876  8249.52  89.5799
 40.7296  8196.31  89.4279
 40.7716  8255.15  89.8681
 40.8136  8172.42  89.3685
 40.8556  8317.48  90.2917
 40.8976  8268.26  89.9477
 40.9396  8165.2  89.7315
 40.9816  8209.56  89.2568
 41.0236  8197.54  88.9691
 41.0656  8250.03  89.8009
 41.1076  8210.62  89.3578
 41.1496  8272.28  89.5964
 41.1916  8213.88  89.6075
 41.2336  8146.52  89.2313
 41.2756  8185.16  89.041
 41.3176  8102.25  89.2074
 41.3596  8236.59  89.6659
 41.4016  8118.39  89.2907
 41.4436  8201.37  89.5219
 41.4856  8205.93  89.7168
 41.5276  8057.38  88.9189
 41.5696  8126.11  88.9229
 41.6116  8136.61  89.3803
 41.6536  8206.5  89.622
 41.6956  8061.59  88.8773
 41.7376  8206.8  89.7092
 41.7796  8044.62  88.6965
 41.8216  8186.55  89.7145
 41.8636  8114.55  89.2621
 41.9056  8155.54  89.2624
 41.9476  8234.79  89.937
 41.9896  8245.29  89.6645
 42.0316  8174.72  89.3603
 42.0736  8110.59  89.1204
 42.1156  8026.82  88.4915
 42.1576  8137.03  89.1992
 42.1996  8071.15  88.9859
 42.2416  8127.56  88.8684
 42.2836  7987.23  88.2119
 42.3256  8054.67  88.6977
 42.3676  8130.51  88.9159
 42.4096  8081.73  88.6132
 42.4516  8062.79  88.5965
 42.4936  8024.02  88.456
 42.5356  8066.7  88.8248
 42.5776  8046.12  88.642
 42.6196  8102.51  89.0122
 42.6616  7943.45  88.3089
 42.7036  8068.16  88.3722
 42.7456  8064.78  88.713
 42.7876  8008.89  88.5155
 42.8296  8017.84  88.3909
 42.8716  7976.79  88.3261
 42.9136  8003.27  88.2602
 42.9556  8100.36  88.9285
 42.9976  8187.74  89.3663
 43.0396  8108.01  88.6574
 43.0816  7948.85  88.1607
 43.1236  7984.09  88.4226
 43.1656  7994.73  88.3099
 43.2076  7880.41  87.7761
 43.2496  7915.63  87.7872
 43.2916  7894.26  88.0365
 43.3336  8053.88  88.7587
 43.3756  8008.16  88.2491
 43.4176  7800.93  87.1893
 43.4596  7973.92  88.0003
 43.5016  7920.44  88.1211
 43.5436  8013.26  88.5302
 43.5856  7843.47  87.6052
 43.6276  7916.88  87.9168
 43.6696  7834.21  87.7196
 43.7116  7916.68  87.6665
 43.7536  7942.93  88.3024
 43.7956  7753.06  88.4025
 43.8376  8055.55  88.6667
 43.8796  7938.28  88.0984
 43.9216  8058.7  88.6836
 43.9636  7989.81  88.4143
 44.0056  7979.68  88.5941
 44.0476  7959.14  88.1013
 44.0896  7876.74  87.9937
 44.1316  8006.88  88.2269
 44.1736  7936.23  87.9645
 44.2156  7875.31  87.4827
 44.2576  8065.95  88.8673
 44.2996  7912.37  87.9836
 44.3416  7997.58  88.2125
 44.3836  7807.58  87.487
 44.4256  7813.19  87.1616
 44.4676  7835.72  87.4434
 44.5096  7845.9  87.6512
 44.5516  7761.77  87.138
 44.5936  7828.6  87.4674
 44.6356  7867.47  87.4194
 44.6776  7905.35  87.9556
 44.7196  7901.25  88.2474
 44.7616  7787.89  88.9425
 44.8036  7764.07  87.1999
 44.8456  7812.04  87.6778
 44.8876  7751.24  87.189
 44.9296  7750.16  86.6455
 44.9716  7581.06  86.1293
 45.0136  7802.89  87.3056
 45.0556  7550.06  85.8407
 45.0976  7536.28  85.9477
 45.1396  7588.19  86.0087
 45.1816  7601.51  86.0039
 45.2236  7612.72  85.9379
 45.2656  7714.86  87.0545
 45.3076  7673.36  86.6107
 45.3496  7600.05  86.482
 45.3916  7620.34  86.8628
 45.4336  7524.12  86.1609
 45.4756  7474.33  85.7459
 45.5176  7537.96  85.7085
 45.5596  7743.06  87.001
 45.6016  7509.41  86.089
 45.6436  7628.39  85.9471
 45.6856  7598.99  86.4489
 45.7276  7542.71  87.4698
 45.7696  7644.01  87.6941
 45.8116  7607.52  86.9287
 45.8536  7574.56  86.6307
 45.8956  7604.04  86.1391
 45.9376  7618.27  85.6739
 45.9796  7547.21  85.9628
 46.0216  7598.61  86.6145
 46.0636  7604.29  85.7824
 46.1056  7545.32  85.4197
 46.1476  7521.65  85.8924
 46.1896  7500.09  85.9195
 46.2316  7562.26  86.1392
 46.2736  7386.83  85.4959
 46.3156  7595.32  86.2863
 46.3576  7549.74  86.2273
 46.3996  7582.24  86.5786
 46.4416  7524.63  85.8236
 46.4836  7431.6  85.6431
 46.5256  7517.43  86.0722
 46.5676  7519.28  86.1988
 46.6096  7428.29  85.6241
 46.6516  7471.4  84.8981
 46.6936  7393.24  84.921
 46.7356  7479.54  85.5535
 46.7776  7496.33  86.4985
 46.8196  7564.68  86.4809
 46.8616  7508.01  86.0956
 46.9036  7599.51  86.272
 46.9456  7608.91  85.9654
 46.9876  7522.5  85.5548
 47.0296  7567.23  86.5036
 47.0716  7460.66  85.7068
 47.1136  7393.07  85.0098
 47.1556  7424.71  85.0592
 47.1976  7503.41  85.5887
 47.2396  7432.78  85.567
 47.2816  7538.2  85.8761
 47.3236  7550.71  86.3383
 47.3656  7615.92  86.6284
 47.4076  7611.18  86.3976
 47.4496  7485.11  85.7798
 47.4916  7472.34  85.9058
 47.5336  7569.7  86.2718
 47.5756  7572.01  86.4084
 47.6176  7527.86  86.0445
 47.6596  7459.75  85.3674
 47.7016  7580.49  85.8721
 47.7436  7623.64  86.4713
 47.7856  7403.96  85.2359
 47.8276  7544.25  86.0915
 47.8696  7433.79  85.5456
 47.9116  7440.08  85.2809
 47.9536  7515.13  85.6496
 47.9956  7410.6  85.7406
 48.0376  7470.54  85.8872
 48.0796  7454.12  85.9271
 48.1216  7616.88  86.6743
 48.1636  7802.32  87.2728
 48.2056  7566.02  86.2112
 48.2476  7450.59  85.8632
 48.2896  7538.95  86.2796
 48.3316  7514.85  86.0916
 48.3736  7473.71  85.8682
 48.4156  7528.36  86.0283
 48.4576  7332.33  85.1853
 48.4996  7662.06  86.5324
 48.5416  7491.19  85.883
 48.5836  7559.38  85.9593
 48.6256  7354.35  85.0131
 48.6676  7522.56  86.4942
 48.7096  7611.07  86.2503
 48.7516  7439.08  85.4083
 48.7936  7467.48  85.6339
 48.8356  7518.08  85.9681
 48.8776  7504.57  86.5019
 48.9196  7497.5  85.8056
 48.9616  7449.03  85.9288
 49.0036  7393.56  85.9469
 49.0456  7405.46  86.0001
 49.0876  7447.62  85.7843
 49.1296  7343.39  85.3385
 49.1716  7364.78  85.3287
 49.2136  7377.91  85.3525
 49.2556  7461.48  85.847
 49.2976  7333.85  85.1732
 49.3396  7317.67  85.1435
 49.3816  7403.66  85.06
 49.4236  7416.94  85.5729
 49.4656  7479.69  85.9458
 49.5076  7479.23  85.6768
 49.5496  7445.9  85.556
 49.5916  7426.6  85.3671
 49.6336  7336.5  85.0591
 49.6756  7281.43  84.9544
 49.7176  7363.61  85.369
 49.7596  7342.41  85.0229
 49.8016  7477.48  85.7366
 49.8436  7556.89  86.4834
 49.8856  7406.37  85.6135
 49.9276  7384.46  85.593
 49.9696  7359.51  85.4394
 50.0116  7415.21  85.9131
 50.0536  7458.55  86.0875
 50.0956  7311.95  85.2991
 50.1376  7365.42  85.3206
 50.1796  7287.7  85.1323
 50.2216  7380.12  85.6652
 50.2636  7409.6  85.4382
 50.3056  7315.39  85.0805
 50.3476  7305.52  85.0522
 50.3896  7287.14  84.9056
 50.4316  7266.58  84.6204
 50.4736  7367.5  85.4293
 50.5156  7363.07  85.4059
 50.5576  7381.53  85.2644
 50.5996  7316.21  85.151
 50.6416  7353.99  85.3162
 50.6836  7241.6  84.7231
 50.7256  7434.07  85.7782
 50.7676  7258.57  85.0687
 50.8096  7297.88  84.8268
 50.8516  7300.9  85.2697
 50.8936  7338.41  85.2654
 50.9356  7339.71  85.3733
 50.9776  7373.68  85.7193
 51.0196  7365.21  85.8246
 51.0616  7422.38  85.451
 51.1036  7524.15  86.4103
 51.1456  7502.79  86.1961
 51.1876  7546.66  85.7543
 51.2296  7445.26  85.8387
 51.2716  7384  85.1801
 51.3136  7398.27  85.7385
 51.3556  7347.94  85.0565
 51.3976  7307.46  84.9785
 51.4396  7174.07  84.5122
 51.4816  7154.38  84.2518
 51.5236  7340.93  85.4293
 51.5656  7335.09  84.9816
 51.6076  7336.92  85.0774
 51.6496  7440.76  85.8776
 51.6916  7323.34  85.5677
 51.7336  7321.56  85.6537
 51.7756  7445  86.0534
 51.8176  7320.37  85.4415
 51.8596  7198.67  84.7465
 51.9016  7468.69  85.9084
 51.9436  7199.87  85.8254
 51.9856  7050.67  85.4072
 52.0276  7153.07  84.4751
 52.0696  7095.71  84.2034
 52.1116  7134.44  84.5511
 52.1536  7005.47  83.6641
 52.1956  7286.87  84.7645
 52.2376  7216.7  84.5453
 52.2796  7086.25  83.5601
 52.3216  6865.16  82.9653
 52.3636  7075.63  83.7975
 52.4056  7068.15  83.5964
 52.4476  7069.68  83.9929
 52.4896  7042.7  83.8875
 52.5316  7088.03  84.1976
 52.5736  7147.94  84.2785
 52.6156  7124.66  84.5177
 52.6576  7145.11  84.0747
 52.6996  6887.19  83.5389
 52.7416  7099.08  84.6532
 52.7836  7086.55  84.4452
 52.8256  7104  83.756
 52.8676  7016.15  83.833
 52.9096  7163.68  84.8089
 52.9516  7163.71  85.2003
 52.9936  7048.17  84.9126
 53.0356  6975.78  83.4398
 53.0776  7015.19  83.9433
 53.1196  6960.42  83.7529
 53.1616  6901.11  83.44
 53.2036  6942.29  83.6396
 53.2456  6899.6  83.4872
 53.2876  7112.3  84.4558
 53.3296  7056.86  84.4723
 53.3716  7028.61  84.0319
 53.4136  6953.21  83.7327
 53.4556  6907.15  83.4883
 53.4976  7016.21  83.9902
 53.5396  7046.46  84.5856
 53.5816  7003.08  83.9371
 53.6236  6894.51  83.6226
 53.6656  7098.64  84.4848
 53.7076  6993.08  83.8125
 53.7496  6951.19  83.6764
 53.7916  7078.53  84.58
 53.8336  6932.04  83.5905
 53.8756  6824.3  83.5114
 53.9176  7051.94  84.1978
 53.9596  7004.27  84.7187
 54.0016  6990.31  83.9303
 54.0436  6958.69  83.9745
 54.0856  7014.43  83.706
 54.1276  6970.11  83.6405
 54.1696  6940.01  83.6529
 54.2116  6895.17  83.126
 54.2536  7017.77  83.6746
 54.2956  7070.03  84.0297
 54.3376  6916.87  83.6204
 54.3796  6955.89  83.7505
 54.4216  6987.68  83.9961
 54.4636  7015.99  84.1209
 54.5056  7003.81  83.8538
 54.5476  6865.7  83.3731
 54.5896  6915.28  83.497
 54.6316  6974.25  83.7025
 54.6736  6964.37  83.7173
 54.7156  6951.35  83.6593
 54.7576  6979.04  83.8347
 54.7996  7018.16  84.206
 54.8416  6995.55  84.1171
 54.8836  6816.55  83.1565
 54.9256  7019.91  84.1202
 54.9676  6996  83.8312
 55.0096  7009.71  83.9919
 55.0516  6886.1  83.4881
 55.0936  6844.84  82.8413
 55.1356  6937.88  83.4603
 55.1776  6856.7  83.2425
 55.2196  7007  83.9259
 55.2616  6871.68  83.3276
 55.3036  6884.57  83.5773
 55.3456  6898.03  83.8191
 55.3876  6893.05  83.521
 55.4296  6883.96  83.4396
 55.4716  6919.05  83.6887
 55.5136  6857.93  83.0568
 55.5556  6887.23  83.3133
 55.5976  6864.52  83.2279
 55.6396  6791.94  82.7385
 55.6816  6818.52  82.7659
 55.7236  6981.02  83.8016
 55.7656  6961.92  83.4303
 55.8076  7034.37  83.8413
 55.8496  6880.43  83.2552
 55.8916  6840.45  83.2279
 55.9336  6841.25  83.034
 55.9756  6885.59  83.1944
 56.0176  6922.09  83.5721
 56.0596  6839.7  83.052
 56.1016  6912.25  83.4967
 56.1436  6883.21  83.6086
 56.1856  6938.61  83.6759
 56.2276  6743.72  82.539
 56.2696  6890.52  83.4087
 56.3116  6831.69  83.4811
 56.3536  6856.16  83.2701
 56.3956  6860.7  83.2874
 56.4376  6809.94  83.0122
 56.4796  6963.07  83.7301
 56.5216  6817.64  83.2496
 56.5636  6927.29  83.4794
 56.6056  6809.33  83.001
 56.6476  6893.51  83.1215
 56.6896  6968.79  84.0482
 56.7316  6913.07  83.6211
 56.7736  6840.27  83.1746
 56.8156  6878.25  83.4027
 56.8576  6899.62  83.4682
 56.8996  6915.98  83.5055
 56.9416  6841.37  83.3746
 56.9836  6681.91  81.8861
 57.0256  6794.23  82.9122
 57.0676  6757.56  82.8198
 57.1096  6967.77  83.8734
 57.1516  6868.66  83.3436
 57.1936  6816.33  82.7518
 57.2356  6854.45  83.3278
 57.2776  6883.3  83.4511
 57.3196  6754.71  83.0569
 57.3616  6788.99  82.735
 57.4036  6895.94  83.4502
 57.4456  6860.87  83.1974
 57.4876  6822.85  82.8196
 57.5296  6762.75  82.8039
 57.5716  6781.55  82.9039
 57.6136  6860.92  83.2042
 57.6556  6900.31  83.5922
 57.6976  6883.42  83.2997
 57.7396  6789.27  83.121
 57.7816  6702.03  82.9575
 57.8236  6819.61  83.4748
 57.8656  6870.7  83.4178
 57.9076  6745.13  82.6785
 57.9496  6829.62  83.5709
 57.9916  6803.53  82.8873
 58.0336  6771.42  82.9875
 58.0756  6749.08  82.4768
 58.1176  6808.56  82.8296
 58.1596  6737.51  82.9788
 58.2016  6916.77  83.2717
 58.2436  6957.05  83.9563
 58.2856  6960.26  83.8881
 58.3276  6889.06  83.8499
 58.3696  6832.43  83.2474
 58.4116  6916.26  83.6109
 58.4536  6961.28  83.7606
 58.4956  6918.77  83.697
 58.5376  6944.77  83.3905
 58.5796  6896.91  83.559
 58.6216  6921.2  83.5115
 58.6636  6903.84  83.6328
 58.7056  6888.03  83.379
 58.7476  6769.6  83.1345
 58.7896  6892.59  83.5065
 58.8316  6922.97  83.6839
 58.8736  7030.51  84.3451
 58.9156  6904.12  83.6273
 58.9576  6904.99  83.9792
 58.9996  6956.59  83.4872
 59.0416  6992.3  84.0892
 59.0836  7000.72  84.045
 59.1256  6845.05  83.8584
 59.1676  6790.95  83.8528
 59.2096  6943.14  84.0468
 59.2516  7118.3  84.6455
 59.2936  6990.79  84.2369
 59.3356  6948.44  83.8502
 59.3776  6910.62  83.8025
 59.4196  6819.88  83.1827
 59.4616  6853.78  83.2398
 59.5036  6721.5  82.4699
 59.5456  6943.46  83.4917
 59.5876  6909.5  83.4917
 59.6296  6819.1  83.0172
 59.6716  6850.49  83.2698
 59.7136  6982  84.0527
 59.7556  6764.67  82.8786
 59.7976  6916.5  83.5276
 59.8396  6814.01  82.7941
 59.8816  6932.01  84.0882
 59.9236  6950.22  83.8204
 59.9656  6766.95  82.9839
 60.0076  6938.77  83.3418
 60.0496  6843.57  83.3041
 60.0916  6862.62  82.8001
 60.1336  6770.31  83.4138
 60.1756  6780.92  84.734
 60.1996  0.0000000E+00  0.0000000E+00