File: docs/examples/XRD/IS17_D/Data/IS17_D/17_Da_f00046.xye
# /beamlines/bl04/projects/cycle2025-II/20250340211-lsimonelli/DATA/IS17_D/17_Da_f00046.xye : mythproc.py merge -s 0.006 -l 0.5 -f /beamlines/bl04/inhouse/ff/FlatField/ff_20Nov2024rod8mm60s_17keV.raw -b True -c true -o xye /beamlines/bl04/projects/cycle2025-II/20250340211-lsimonelli/DATA/IS17_D/17_Da_00046.dat
# IsMon = [6786087, 6782672, 6782745]  IsPos = [-1.4999, -2.4884, -3.4988]
# Wave = 0.4962  CalPath /beamlines/bl04/projects/cycle2025-II/20250340211-lsimonelli/DATA/Align/Si_Pos1_25keV_f00001.cal
# Date = 2025-09-24_06:20:51 Dt = 4.8000  Bin = 0.0060  <imon> = 6783835 +/- 1593 (Min/Max) 6782672 / 6786087
# icurr 252.3046  mocoIn 1.7216E-05  mocoOut 0.8074  i15 7.09914e+06  imon 6.78383e+06  i7 4.3333  iEMpd_timer 4.8000  iEMpd_1 3.4564E-08  iEMpd_2 7.7583E-08  iEMpd_3 1.6722E-08  iEMpd_4 4.8084E-08  iEMhp_timer 4.8000  iEMhp_1 4.9292E-06  iEMhp_2 -2.4787E-08  iEMhp_3 -2.3253E-08  iEMhp_4 -2.1275E-08
#      9776
 1.5856  41555.7  209.289
 1.6276  49050.7  223.479
 1.6696  55840.1  237.604
 1.7116  64480.7  255.825
 1.7536  73437.7  271.853
 1.7956  78471.5  281.717
 1.8376  74902.5  275.673
 1.8796  63301.6  251.571
 1.9216  50902.7  226.484
 1.9636  43447.3  208.384
 2.0056  39547.1  198.04
 2.0476  36238.1  191.652
 2.0896  35315.1  188.086
 2.1316  34370.8  184.663
 2.1736  32878.1  182.041
 2.2156  33408.2  182.03
 2.2576  32291.7  179.602
 2.2996  31100.6  176.907
 2.3416  31408.8  176.363
 2.3836  30990.6  175.293
 2.4256  29731.2  172.254
 2.4676  29665.1  171.818
 2.5096  29136.8  170.337
 2.5516  28526.5  172.47
 2.5936  28803  169.804
 2.6356  28201.1  168.73
 2.6776  27979.3  166.905
 2.7196  27652.4  166.477
 2.7616  27536.3  165.899
 2.8036  27346.2  165.5
 2.8456  27198.3  165.69
 2.8876  26788.7  164.316
 2.9296  26187.8  162.585
 2.9716  26177.7  162.028
 3.0136  25914.2  161.278
 3.0556  25677.8  160.949
 3.0976  25410.8  159.012
 3.1396  25305.6  159.428
 3.1816  25003.3  158.398
 3.2236  25014  158.438
 3.2656  24916.7  157.151
 3.3076  24783.7  158.212
 3.3496  24889.6  157.471
 3.3916  25368.1  158.791
 3.4336  25812.4  160.77
 3.4756  26138.2  161.698
 3.5176  26853.4  163.699
 3.5596  26651.6  165.554
 3.6016  27093  164.486
 3.6436  25873.5  161.865
 3.6856  25619.8  159.334
 3.7276  24642.8  157.377
 3.7696  24336.7  156.598
 3.8116  23920.1  155.125
 3.8536  23859.3  154.858
 3.8956  24010.4  155.175
 3.9376  23788.2  154.711
 3.9796  23573.1  153.514
 4.0216  23834.5  153.384
 4.0636  23754.4  154.625
 4.1056  23812  154.448
 4.1476  24039.2  155.493
 4.1896  24126.8  155.642
 4.2316  24221.8  155.765
 4.2736  24620.4  156.827
 4.3156  25079.7  158.526
 4.3576  25582.2  160.027
 4.3996  25880.1  161.221
 4.4416  26397  162.397
 4.4836  27029.7  164.486
 4.5256  27331.3  166.015
 4.5676  27205.8  165.901
 4.6096  27622.2  165.794
 4.6516  27972.3  166.559
 4.6936  28493.6  168.938
 4.7356  28457.9  168.653
 4.7776  28495.3  168.6
 4.8196  28088.2  168.029
 4.8616  27652.3  166.211
 4.9036  27430.8  165.276
 4.9456  27390.5  165.821
 4.9876  26647  163.455
 5.0296  27002.7  164.349
 5.0716  26816  164.574
 5.1136  27135  165.25
 5.1556  27317.4  165.267
 5.1976  27634.6  166.207
 5.2396  27841.3  166.531
 5.2816  27799.4  166.861
 5.3236  27920.9  166.937
 5.3656  27377.1  166.233
 5.4076  27062.3  165.43
 5.4496  27196.8  165.327
 5.4916  27278  165.32
 5.5336  27363.5  165.593
 5.5756  27144.2  164.943
 5.6176  27368.9  165.055
 5.6596  27375.8  166.055
 5.7016  27627.9  166.085
 5.7436  27775  166.803
 5.7856  27626.3  166.412
 5.8276  28016.3  167.313
 5.8696  28072.8  167.647
 5.9116  28129.6  168.426
 5.9536  28459.6  169.149
 5.9956  28780.5  169.461
 6.0376  28578.2  169.515
 6.0796  29024.9  170.663
 6.1216  29058.4  170.974
 6.1636  29227.8  170.517
 6.2056  29225.4  171.185
 6.2476  29503.7  171.868
 6.2896  29972.3  172.901
 6.3316  29437.2  171.515
 6.3736  29866.3  172.665
 6.4156  29750  172.212
 6.4576  30093.9  172.813
 6.4996  30233.4  173.709
 6.5416  30431.2  174.406
 6.5836  30440.6  174.679
 6.6256  30230.9  173.627
 6.6676  31011.7  175.414
 6.7096  30768.5  175.58
 6.7516  31348.8  176.885
 6.7936  31424.2  176.513
 6.8356  31748.5  177.504
 6.8776  31971.4  178.949
 6.9196  32041  179.547
 6.9616  32360.2  179.876
 7.0036  32718.6  180.514
 7.0456  32721.4  179.806
 7.0876  32773.6  181.666
 7.1296  32950.6  181.278
 7.1716  32768.1  180.3
 7.2136  32549.5  179.48
 7.2556  32676.6  179.994
 7.2976  32744  180.686
 7.3396  32833.5  181.153
 7.3816  32780.4  181.222
 7.4236  33044.3  181.226
 7.4656  33258.3  181.283
 7.5076  33159.2  181.154
 7.5496  33417.5  182.412
 7.5916  33307.7  182.135
 7.6336  33698.5  183.097
 7.6756  33882  183.443
 7.7176  34178.4  184.552
 7.7596  34134.4  185.71
 7.8016  34314.4  188.394
 7.8436  35054.3  187.061
 7.8856  35261.1  187.211
 7.9276  35774.6  188.976
 7.9696  35909.2  189.649
 8.0116  36978.5  190.957
 8.0536  37212.3  191.821
 8.0956  37048.4  192.597
 8.1376  37528.6  193.304
 8.1796  37691.1  194.274
 8.2216  38555.5  195.198
 8.2636  38416.5  195.095
 8.3056  38369.4  195.767
 8.3476  39092.8  196.915
 8.3896  39023.1  196.823
 8.4316  38877.4  196.623
 8.4736  39188.5  196.859
 8.5156  38882.3  196.374
 8.5576  38398.1  196.139
 8.5996  38378.7  194.941
 8.6416  38496.4  196.526
 8.6836  38463.1  196.268
 8.7256  38993.7  197.056
 8.7676  37940  197.297
 8.8096  37875.6  194.377
 8.8516  37983.4  194.269
 8.8936  37440.3  192.772
 8.9356  37484.4  193.223
 8.9776  37763.6  194.048
 9.0196  37282.7  192.47
 9.0616  37528.6  192.56
 9.1036  36870.2  192.077
 9.1456  37187  192.254
 9.1876  36981.9  191.666
 9.2296  37328.1  191.966
 9.2716  36502.8  189.883
 9.3136  36465.9  189.766
 9.3556  37015.2  191.175
 9.3976  35285.4  187.181
 9.4396  35794.8  188.427
 9.4816  35275.2  186.908
 9.5236  35489.3  187.392
 9.5656  35360.3  187.374
 9.6076  34820  186.49
 9.6496  34670.3  186
 9.6916  34578.7  185.736
 9.7336  34604.5  185.567
 9.7756  34920.5  187.71
 9.8176  34325  185.576
 9.8596  33954.1  182.998
 9.9016  33373.5  181.42
 9.9436  33385.5  181.365
 9.9856  33035.8  180.628
 10.0276  32462.2  180.184
 10.0696  32831.1  180.23
 10.1116  31797  177.632
 10.1536  31646.3  177.38
 10.1956  31279.5  175.945
 10.2376  30821.5  174.143
 10.2796  30940.3  174.615
 10.3216  30763.2  174.384
 10.3636  30535.7  173.772
 10.4056  30065.7  172.84
 10.4476  29873.1  171.899
 10.4896  30359.7  172.741
 10.5316  29340.3  170.523
 10.5736  29124.4  170.307
 10.6156  28807.5  169.139
 10.6576  29212.2  168.883
 10.6996  28700.2  168.068
 10.7416  28382.4  167.378
 10.7836  28482.9  168.376
 10.8256  28074.3  167.591
 10.8676  28295.2  167.785
 10.9096  27779.8  166.281
 10.9516  27491.7  164.345
 10.9936  27670.5  165.079
 11.0356  27546  165.348
 11.0776  27320  163.977
 11.1196  26811.3  163.195
 11.1616  26735.5  162.651
 11.2036  26772.1  162.617
 11.2456  26778.9  163.345
 11.2876  26404.3  161.923
 11.3296  26127.8  160.976
 11.3716  26525.8  161.888
 11.4136  26243.7  161.923
 11.4556  26181.3  161.403
 11.4976  26373.2  160.963
 11.5396  26504.5  161.536
 11.5816  26821.4  162.957
 11.6236  27520.6  165.292
 11.6656  27865.1  165.442
 11.7076  27223.9  164.397
 11.7496  26712  166.874
 11.7916  26479.8  161.385
 11.8336  25882.4  160.454
 11.8756  25568.9  159.005
 11.9176  25789.2  159.352
 11.9596  25322.7  158.075
 12.0016  25425.9  159.212
 12.0436  25217.9  157.964
 12.0856  24946.6  157.655
 12.1276  24873.6  157.332
 12.1696  25206.8  157.511
 12.2116  25322.8  157.872
 12.2536  24690.8  156.725
 12.2956  25088.6  157.308
 12.3376  24646.7  156.116
 12.3796  25010.9  157.741
 12.4216  24825  156.362
 12.4636  24691.6  156.861
 12.5056  24795.1  156.454
 12.5476  24966  156.517
 12.5896  24890  156.929
 12.6316  24488.4  155.802
 12.6736  24540.5  156.469
 12.7156  24368  155.769
 12.7576  24742.5  157.212
 12.7996  24739.8  155.832
 12.8416  24589.5  156.421
 12.8836  25052.9  157.723
 12.9256  25240  157.298
 12.9676  25277.5  157.853
 13.0096  24958.4  157.957
 13.0516  25386.3  158.33
 13.0936  25360.7  158.65
 13.1356  25613.1  158.409
 13.1776  25459.7  158.945
 13.2196  25683.6  159.289
 13.2616  25561.3  159.233
 13.3036  25689.1  159.59
 13.3456  25730.2  160.089
 13.3876  25614.8  158.997
 13.4296  25503.5  158.81
 13.4716  25623.7  158.782
 13.5136  25581.8  158.812
 13.5556  25474.6  159.104
 13.5976  25528  159.418
 13.6396  25643.5  159.137
 13.6816  25176.5  158.178
 13.7236  26127  160.767
 13.7656  25225.7  158.508
 13.8076  25487.8  158.099
 13.8496  25127.5  157.579
 13.8916  25203.2  158.835
 13.9336  25197.2  158.035
 13.9756  24871.4  156.355
 14.0176  24876.1  157.068
 14.0596  24898.5  157.097
 14.1016  24544  156.377
 14.1436  24362.7  154.912
 14.1856  24154.5  154.548
 14.2276  23815.2  153.938
 14.2696  24160.5  154.908
 14.3116  23829.6  153.746
 14.3536  23446.3  152.678
 14.3956  23275.5  151.85
 14.4376  23743.5  153.139
 14.4796  23422.4  152.092
 14.5216  22981.6  151.463
 14.5636  22844.6  150.569
 14.6056  23079.3  150.91
 14.6476  23125.4  150.275
 14.6896  22627.7  149.2
 14.7316  22341.3  149.283
 14.7736  22307.4  148.32
 14.8156  22042  147.469
 14.8576  21829.9  146.606
 14.8996  21659  147.252
 14.9416  21067.9  145.24
 14.9836  21249.4  145.823
 15.0256  21078.4  144.154
 15.0676  20993.1  144.183
 15.1096  20899.3  143.594
 15.1516  20671.7  143.374
 15.1936  20642.1  142.687
 15.2356  20071.5  140.987
 15.2776  20173  140.92
 15.3196  19876.2  140.901
 15.3616  19904.8  140.752
 15.4036  19652.2  139.712
 15.4456  19811.2  139.921
 15.4876  19476.2  138.408
 15.5296  19418.3  138.489
 15.5716  19281.6  137.595
 15.6136  19158  137.488
 15.6556  19126.6  136.602
 15.6976  18884.8  136.031
 15.7396  18756.1  135.968
 15.7816  18886  135.93
 15.8236  18345.5  134.685
 15.8656  18376.6  134.579
 15.9076  17908.7  132.684
 15.9496  18114.7  136.248
 15.9916  18139.5  136.8
 16.0336  17941  132.881
 16.0756  17949.1  133.232
 16.1176  17900.5  133.127
 16.1596  17380.6  132.365
 16.2016  17693.8  132.284
 16.2436  17261.4  131.04
 16.2856  17198.7  130.34
 16.3276  17147.8  130.572
 16.3696  17382.3  131.276
 16.4116  17113.3  130.725
 16.4536  17286.7  131.165
 16.4956  17096.6  130.163
 16.5376  16956.5  129.832
 16.5796  16836.9  128.723
 16.6216  16820.6  128.971
 16.6636  16770.3  128.935
 16.7056  16822  128.994
 16.7476  16781.5  128.365
 16.7896  16762.4  129.053
 16.8316  16457.1  127.833
 16.8736  16524  128.35
 16.9156  16588.3  128.941
 16.9576  16615  129.861
 16.9996  16665  130.553
 17.0416  16902.5  129.797
 17.0836  16849.6  129.343
 17.1256  16658.8  128.625
 17.1676  16700.1  128.777
 17.2096  16343.1  127.265
 17.2516  16560.2  127.886
 17.2936  16424.8  127.698
 17.3356  16257.6  127.037
 17.3776  16214  127.07
 17.4196  16184.9  126.65
 17.4616  16007.3  125.863
 17.5036  15809.2  125.458
 17.5456  15410.9  124.507
 17.5876  15425.5  123.605
 17.6296  15461.4  123.565
 17.6716  15437.6  124.053
 17.7136  15223.1  123.323
 17.7556  15141.7  123.29
 17.7976  15261.2  123.517
 17.8396  15019.7  122.031
 17.8816  14994.2  122.479
 17.9236  14829.5  121.611
 17.9656  14948.3  122.647
 18.0076  15040.4  122.592
 18.0496  14969.3  121.435
 18.0916  14805.1  121.306
 18.1336  14771  121.261
 18.1756  15005.1  121.751
 18.2176  14738.6  120.883
 18.2596  14610.6  120.104
 18.3016  14922.3  121.633
 18.3436  14845  121.326
 18.3856  14635  120.589
 18.4276  14621.6  120.214
 18.4696  14589.9  120.18
 18.5116  14596.3  120.495
 18.5536  14700.8  121.287
 18.5956  14502.7  120.013
 18.6376  14494.2  120.388
 18.6796  14529.4  119.85
 18.7216  14575  120.534
 18.7636  14291.4  119.338
 18.8056  14383.7  119.668
 18.8476  14281.6  119.875
 18.8896  14294  119.256
 18.9316  14526.1  120.208
 18.9736  14354.6  119.188
 19.0156  14423  119.881
 19.0576  14334.5  118.363
 19.0996  14447.8  119.555
 19.1416  14192.2  118.878
 19.1836  14281.6  118.858
 19.2256  14201.8  118.739
 19.2676  14289.1  119.194
 19.3096  14331.9  119.629
 19.3516  14193.4  119.004
 19.3936  14076.1  118.411
 19.4356  14218.5  118.872
 19.4776  14180.5  118.811
 19.5196  14240.3  118.914
 19.5616  14011.5  118.215
 19.6036  14113  118.136
 19.6456  14102.8  118.216
 19.6876  14228.8  118.39
 19.7296  14101.8  118.302
 19.7716  14030.4  118.178
 19.8136  14226.8  119.201
 19.8556  14259.1  118.821
 19.8976  14126.4  118.332
 19.9396  14272.2  118.517
 19.9816  14321.6  118.967
 20.0236  14410.3  119.549
 20.0656  14641.2  120.504
 20.1076  14437.2  120.115
 20.1496  14819.8  121.711
 20.1916  15195.6  122.734
 20.2336  15322.1  123.181
 20.2756  15226.1  123.243
 20.3176  14827.7  121.358
 20.3596  14770.9  121.107
 20.4016  14539.5  119.948
 20.4436  14516.9  120.429
 20.4856  14206.7  118.918
 20.5276  14094.5  118.924
 20.5696  13959.6  117.791
 20.6116  13951.5  118.041
 20.6536  13936.8  117.487
 20.6956  13873.6  117.342
 20.7376  13725.9  116.955
 20.7796  13729.2  116.647
 20.8216  13844.2  116.838
 20.8636  13642.6  116.347
 20.9056  13738  116.708
 20.9476  13531.3  115.661
 20.9896  13818.9  116.756
 21.0316  13670.5  116.024
 21.0736  13574.2  116.136
 21.1156  13505.9  116.014
 21.1576  13653  116.682
 21.1996  13618  116.517
 21.2416  13370.9  115.28
 21.2836  13466  115.653
 21.3256  13338.7  115.187
 21.3676  13338.1  114.737
 21.4096  13388.8  115.268
 21.4516  13271.1  114.636
 21.4936  13057.8  113.966
 21.5356  13284.7  114.895
 21.5776  13363  115.063
 21.6196  13200.1  114.396
 21.6616  13207.2  114.519
 21.7036  13212.9  114.319
 21.7456  13278  114.679
 21.7876  13127.2  113.772
 21.8296  12982.8  113
 21.8716  13236.3  114.331
 21.9136  13267.6  114.673
 21.9556  13099.2  113.611
 21.9976  13038.2  113.358
 22.0396  13073.3  113.768
 22.0816  13125.7  114.553
 22.1236  13214.9  114.384
 22.1656  13150.6  114.221
 22.2076  13218.8  113.999
 22.2496  13007.9  113.116
 22.2916  13142.3  113.58
 22.3336  13075.5  114.024
 22.3756  13129.1  113.977
 22.4176  12961.4  113.096
 22.4596  12932.2  113.569
 22.5016  13002.7  113.356
 22.5436  13209.9  114.144
 22.5856  13096.4  113.902
 22.6276  12974.8  113.511
 22.6696  13104.8  114.435
 22.7116  12971.2  113.357
 22.7536  13162.7  114.167
 22.7956  13068.4  113.071
 22.8376  12826.7  112.553
 22.8796  13008.6  113.146
 22.9216  13018  113.742
 22.9636  12818.5  112.011
 23.0056  13020.6  113.025
 23.0476  12946.7  113.283
 23.0896  13318.8  114.263
 23.1316  13123.9  113.867
 23.1736  12975.4  116.207
 23.2156  13123.1  114.183
 23.2576  13014.8  113.832
 23.2996  13127.3  114.121
 23.3416  12946.3  113.843
 23.3836  12984  113.24
 23.4256  13115.2  113.923
 23.4676  13001.4  113.127
 23.5096  13095.1  114.222
 23.5516  12914.8  112.707
 23.5936  13081.7  114.348
 23.6356  13227.9  114.651
 23.6776  13053.9  114.115
 23.7196  12653  111.914
 23.7616  13023.8  113.461
 23.8036  12951.8  113.182
 23.8456  12815.1  112.166
 23.8876  12755.9  112.242
 23.9296  12602.5  112.065
 23.9716  12757.8  111.935
 24.0136  12768.4  112.904
 24.0556  12561  111.711
 24.0976  12499.4  111.241
 24.1396  12571.6  114.242
 24.1816  12577.3  112.679
 24.2236  12333  111.181
 24.2656  12334.8  110.659
 24.3076  12436.2  111.365
 24.3496  12408.4  111.137
 24.3916  12347.1  110.909
 24.4336  12360.5  111.178
 24.4756  12133.2  110.027
 24.5176  12123.3  109.62
 24.5596  11921.3  108.828
 24.6016  12021.9  109.579
 24.6436  12000.6  108.962
 24.6856  12058  108.986
 24.7276  12078  109.406
 24.7696  11895.5  108.681
 24.8116  11940.1  109.068
 24.8536  11740.5  108.146
 24.8956  11824.9  108.269
 24.9376  11736.2  107.801
 24.9796  11663.5  107.827
 25.0216  11447  106.927
 25.0636  11559.2  107.106
 25.1056  11346.2  106.821
 25.1476  11657.5  109.966
 25.1896  11657.4  108.426
 25.2316  11633.6  107.575
 25.2736  11553.9  106.857
 25.3156  11469.1  106.538
 25.3576  11411.8  106.693
 25.3996  11479.5  106.994
 25.4416  11486.4  107.006
 25.4836  11366.1  106.98
 25.5256  11428.4  106.623
 25.5676  11475.6  106.573
 25.6096  11306.1  106.363
 25.6516  11485.7  106.694
 25.6936  11223.5  105.78
 25.7356  11355.3  106.539
 25.7776  11376.1  106.235
 25.8196  11105.7  105.208
 25.8616  11239.3  105.754
 25.9036  11345.9  105.716
 25.9456  11069.7  105.02
 25.9876  11089.5  105.181
 26.0296  11262.9  105.502
 26.0716  11123.3  105.27
 26.1136  11248.7  105.809
 26.1556  11218.4  105.039
 26.1976  11003.8  104.963
 26.2396  11185.6  104.967
 26.2816  11045.5  104.921
 26.3236  11117.5  105.427
 26.3656  11081.2  104.967
 26.4076  11209.4  105.792
 26.4496  11653.6  107.332
 26.4916  11344.4  105.912
 26.5336  11264.2  105.869
 26.5756  11274.4  105.781
 26.6176  11110.1  105.058
 26.6596  10971.4  104.707
 26.7016  11136.3  105.243
 26.7436  10970.3  104.585
 26.7856  10857.4  104.033
 26.8276  10859  103.989
 26.8696  11034.5  104.703
 26.9116  11096.4  104.926
 26.9536  10913.9  104.117
 26.9956  10837  103.788
 27.0376  10723.7  103.452
 27.0796  10855.3  103.821
 27.1216  10624.6  102.777
 27.1636  10599.5  102.827
 27.2056  10657  102.987
 27.2476  10713.4  103.263
 27.2896  10767.7  103.638
 27.3316  10623.4  102.64
 27.3736  10689.4  103.24
 27.4156  10571.8  102.505
 27.4576  10590.6  102.831
 27.4996  10586.3  102.398
 27.5416  10581  102.7
 27.5836  10653.8  102.864
 27.6256  10881.6  104.132
 27.6676  10739.8  103.468
 27.7096  10621.5  102.762
 27.7516  10440.7  102.04
 27.7936  10429.3  102.148
 27.8356  10476.5  101.999
 27.8776  10410.5  101.717
 27.9196  10436.2  101.696
 27.9616  10485.9  102.138
 28.0036  10369.4  101.537
 28.0456  10421.2  101.924
 28.0876  10246.6  101.157
 28.1296  10304.2  101.277
 28.1716  10286.2  101.195
 28.2136  10286.5  101.163
 28.2556  10125.5  100.478
 28.2976  10140.3  100.547
 28.3396  10302.1  101.115
 28.3816  10320.9  101.22
 28.4236  10249.5  101.029
 28.4656  10145  100.543
 28.5076  10108.7  99.9962
 28.5496  10129.8  100.367
 28.5916  10213.9  100.588
 28.6336  10162  100.669
 28.6756  10157.9  99.8495
 28.7176  10127.1  100.254
 28.7596  10036.4  99.7006
 28.8016  10111.5  100.108
 28.8436  9960.7  99.6002
 28.8856  10123.6  100.257
 28.9276  10129.2  100.538
 28.9696  9994.44  99.517
 29.0116  10062  100.048
 29.0536  9921.9  99.5429
 29.0956  9923.76  99.2715
 29.1376  10013.4  99.6826
 29.1796  9960.91  99.4629
 29.2216  10031.6  99.6583
 29.2636  9930.55  99.2299
 29.3056  9884.58  98.7892
 29.3476  9912.46  99.4585
 29.3896  10027.2  100.13
 29.4316  10125  99.954
 29.4736  9934.6  99.0726
 29.5156  9980.28  99.2202
 29.5576  9963.81  99.8908
 29.5996  9895.76  98.7982
 29.6416  9877.7  98.8272
 29.6836  9957.91  99.1552
 29.7256  9918.19  99.5313
 29.7676  9938.1  99.2858
 29.8096  9868.98  98.8832
 29.8516  9648.47  98.1039
 29.8936  9850.01  99.2207
 29.9356  9821.95  98.8308
 29.9776  9700.43  98.3727
 30.0196  9793.55  98.2184
 30.0616  9725.23  98.2583
 30.1036  9788.75  98.4005
 30.1456  9843.34  98.9109
 30.1876  9872.43  99.0335
 30.2296  9701.44  98.1233
 30.2716  9829.89  98.4007
 30.3136  9806.7  99.1575
 30.3556  9899.73  99.628
 30.3976  9637.56  99.8338
 30.4396  9840.36  98.1646
 30.4816  9850.4  97.8104
 30.5236  9811.49  97.6274
 30.5656  9590.78  97.186
 30.6076  9773.72  97.5326
 30.6496  9686.85  97.4828
 30.6916  9698.88  97.6456
 30.7336  9676.66  97.6816
 30.7756  9604.97  97.4124
 30.8176  9708.08  97.8482
 30.8596  9703.17  97.5922
 30.9016  9717.57  98.0087
 30.9436  9767.73  98.0092
 30.9856  9739.42  97.9714
 31.0276  9596.46  96.8454
 31.0696  9506.43  96.9851
 31.1116  9701.51  97.9508
 31.1536  9602.11  97.3333
 31.1956  9532.98  97.0662
 31.2376  9485.74  96.8401
 31.2796  9451.28  96.194
 31.3216  9618.87  96.9797
 31.3636  9654.24  97.8701
 31.4056  9641.14  99.1462
 31.4476  9541.62  96.4885
 31.4896  9459.2  96.5789
 31.5316  9687.71  97.1285
 31.5736  9603.28  96.5173
 31.6156  9514.07  96.0879
 31.6576  9435.75  95.7935
 31.6996  9608.59  96.3328
 31.7416  9394.98  96.3216
 31.7836  9618.96  96.4618
 31.8256  9413.32  95.695
 31.8676  9556.96  96.416
 31.9096  9312.47  95.5381
 31.9516  9266.31  95.4629
 31.9936  9286.49  95.3964
 32.0356  9251.48  95.2757
 32.0776  9343.99  95.6374
 32.1196  9497.41  96.5129
 32.1616  9321.56  95.0678
 32.2036  9236.78  95.1437
 32.2456  9184.88  95.2629
 32.2876  9290.23  95.2989
 32.3296  9293.74  95.2782
 32.3716  9179.33  94.8056
 32.4136  9433.58  96.3328
 32.4556  9383.17  95.4367
 32.4976  9398.89  95.4218
 32.5396  9284.21  94.9123
 32.5816  9093.67  94.0501
 32.6236  9275.49  95.0588
 32.6656  9393.87  96.2118
 32.7076  9185.39  94.7918
 32.7496  9265.07  94.8669
 32.7916  9308.43  95.0482
 32.8336  9399.25  95.6076
 32.8756  9343.32  95.0363
 32.9176  9102.79  94.2947
 32.9596  9132.32  94.5186
 33.0016  9317.27  95.2651
 33.0436  9289.86  95.3017
 33.0856  9087.97  94.3289
 33.1276  8959.37  93.3946
 33.1696  9090.43  93.9163
 33.2116  9279.85  95.1184
 33.2536  9164.69  94.5234
 33.2956  9283.74  95.2259
 33.3376  9077.86  93.8986
 33.3796  9297.68  95.2355
 33.4216  9213.14  94.4007
 33.4636  9145.48  94.195
 33.5056  9091.54  94.159
 33.5476  8986.57  93.6048
 33.5896  9317.69  95.0931
 33.6316  8981.75  93.6651
 33.6736  9053.26  94.2956
 33.7156  9212.62  95.1684
 33.7576  9114.28  94.2809
 33.7996  9229.73  94.6381
 33.8416  8981.01  93.5402
 33.8836  9104.46  93.9578
 33.9256  9042.24  93.6868
 33.9676  9006.4  93.3999
 34.0096  8941.58  93.382
 34.0516  8878.03  92.6899
 34.0936  8914.87  93.1533
 34.1356  9085.59  93.7739
 34.1776  8928.24  92.9698
 34.2196  8874.04  92.8679
 34.2616  8907.83  93.1832
 34.3036  8841.51  93.0809
 34.3456  8795.27  92.596
 34.3876  8937.97  93.2977
 34.4296  8936.05  92.9791
 34.4716  8925.09  93.0733
 34.5136  8945.06  93.3832
 34.5556  8832.05  93.0539
 34.5976  8994.03  93.7001
 34.6396  8783.93  92.3088
 34.6816  8777.77  92.3863
 34.7236  8928.26  92.959
 34.7656  8835.24  92.6696
 34.8076  8689.61  92.2263
 34.8496  8910.28  93.2492
 34.8916  8912.18  93.1236
 34.9336  8825.86  92.6457
 34.9756  8937.93  93.1349
 35.0176  8792.61  92.9114
 35.0596  8736.56  92.4419
 35.1016  8778.92  92.4365
 35.1436  8801.21  92.2335
 35.1856  8833.96  92.5385
 35.2276  8857.92  92.8431
 35.2696  8744.2  92.437
 35.3116  8810.28  92.8852
 35.3536  8689.75  91.9502
 35.3956  8773.98  92.0947
 35.4376  8795.05  92.7599
 35.4796  8784.72  92.7783
 35.5216  8764.87  92.6252
 35.5636  8550.46  92.2424
 35.6056  8757.35  92.3553
 35.6476  8731.19  92.1073
 35.6896  8719.86  92.1351
 35.7316  8567.45  91.3008
 35.7736  8620.39  91.7857
 35.8156  8671.68  92.0549
 35.8576  8728.89  92.6158
 35.8996  8822.25  93.0721
 35.9416  8905.86  92.9782
 35.9836  8629.02  91.9051
 36.0256  8738.23  92.5025
 36.0676  8644.3  91.7636
 36.1096  8558.64  91.4428
 36.1516  8626.88  91.6923
 36.1936  8649.25  91.6579
 36.2356  8525.69  91.643
 36.2776  8615.21  91.6042
 36.3196  8652.3  91.46
 36.3616  8547.5  91.0407
 36.4036  8587.41  91.3084
 36.4456  8630.2  91.7447
 36.4876  8435.78  90.6484
 36.5296  8456.1  90.7904
 36.5716  8513.34  91.8969
 36.6136  8659.6  91.4403
 36.6556  8648.86  91.5918
 36.6976  8524.95  91.4372
 36.7396  8600.44  91.5685
 36.7816  8516.71  91.501
 36.8236  8527.94  91.4815
 36.8656  8450.32  91.141
 36.9076  8428.8  90.8976
 36.9496  8455.67  91.0302
 36.9916  8486.11  90.8189
 37.0336  8593.48  91.7064
 37.0756  8445.32  90.7064
 37.1176  8438.79  90.946
 37.1596  8455.82  91.0361
 37.2016  8569.87  91.8873
 37.2436  8547.95  91.0727
 37.2856  8373.44  90.3918
 37.3276  8574  90.808
 37.3696  8424.47  90.9103
 37.4116  8403.54  90.701
 37.4536  8394.79  90.5192
 37.4956  8335.88  90.2426
 37.5376  8426.28  92.3205
 37.5796  8431.91  92.2913
 37.6216  8211.75  89.3328
 37.6636  8215.42  89.2476
 37.7056  8207.87  89.4033
 37.7476  8370.31  89.8085
 37.7896  8186.88  89.3197
 37.8316  8135.74  89.2137
 37.8736  8243.18  89.3312
 37.9156  8334.38  89.8214
 37.9576  8374.79  89.9206
 37.9996  8249.09  88.963
 38.0416  8322.72  90.1848
 38.0836  8240.26  89.6418
 38.1256  8120.12  88.9447
 38.1676  8113.99  89.0485
 38.2096  8163.87  88.9376
 38.2516  8348.41  90.1473
 38.2936  8383.46  90.129
 38.3356  8393.82  90.1114
 38.3776  8159.87  89.1119
 38.4196  8360.58  90.0616
 38.4616  8168.35  89.2532
 38.5036  8315.51  89.8949
 38.5456  8240.96  90.3433
 38.5876  8246.02  90.4035
 38.6296  8120.94  88.6747
 38.6716  8155.89  88.6549
 38.7136  8071.86  88.139
 38.7556  8032.85  88.4347
 38.7976  8173.1  89.1352
 38.8396  8085.05  89.1164
 38.8816  7986.05  88.3392
 38.9236  8034.57  88.4243
 38.9656  8063.88  88.4995
 39.0076  8016.72  87.6456
 39.0496  8063.35  88.4393
 39.0916  8182.5  88.7357
 39.1336  8015.77  88.2439
 39.1756  8152  89.0594
 39.2176  8080.96  89.2118
 39.2596  8065.91  89.044
 39.3016  8117.23  88.8903
 39.3436  8087.69  89.1618
 39.3856  8167.12  89.0393
 39.4276  8150.95  89.4496
 39.4696  8159.07  89.1175
 39.5116  8040.76  88.9766
 39.5536  8201.93  90.3121
 39.5956  8177.84  89.2682
 39.6376  8123.54  88.9716
 39.6796  8159.88  88.9121
 39.7216  8131.82  88.8587
 39.7636  8185.77  89.7309
 39.8056  8125.03  89.1672
 39.8476  8039.42  88.9604
 39.8896  8066.32  88.7246
 39.9316  8053.76  88.9117
 39.9736  8220.52  89.3983
 40.0156  8160.33  88.8894
 40.0576  8184.59  89.3892
 40.0996  8306.94  89.2243
 40.1416  8139.57  89.1191
 40.1836  8195.73  89.3097
 40.2256  8171.83  89.2314
 40.2676  8045.61  88.6416
 40.3096  8190.57  89.3634
 40.3516  8294.45  90.0385
 40.3936  8265.6  89.4342
 40.4356  8170.78  89.1191
 40.4776  8283.53  90.1533
 40.5196  8162.57  89.6193
 40.5616  8263.74  89.8038
 40.6036  8045.13  88.8636
 40.6456  8180.49  89.221
 40.6876  8281.61  89.746
 40.7296  8231.83  89.6231
 40.7716  8287.64  90.0531
 40.8136  8122.99  89.0974
 40.8556  8219.78  89.7575
 40.8976  8304.2  90.1418
 40.9396  8155.09  89.6799
 40.9816  8282.6  89.6459
 41.0236  8178.95  88.8676
 41.0656  8373.11  90.4715
 41.1076  8313.76  89.9197
 41.1496  8286.76  89.6749
 41.1916  8255.2  89.837
 41.2336  8145.3  89.215
 41.2756  8179.43  89.0111
 41.3176  8198.57  89.7342
 41.3596  8163.81  89.2751
 41.4016  8137.21  89.3949
 41.4436  8310.12  90.1195
 41.4856  8188.35  89.6265
 41.5276  8168.11  89.5256
 41.5696  8229.2  89.4879
 41.6116  8138.98  89.3923
 41.6536  8180.16  89.4786
 41.6956  8230.68  89.8039
 41.7376  8145.33  89.373
 41.7796  8187.85  89.4834
 41.8216  8118.12  89.3422
 41.8636  8250.72  90.0107
 41.9056  8055.53  88.7242
 41.9476  8131.51  89.3787
 41.9896  8206.29  89.4424
 42.0316  8237.67  89.6987
 42.0736  8092.15  89.0159
 42.1156  8089.92  88.8431
 42.1576  8095.27  88.9722
 42.1996  8127.81  89.2947
 42.2416  8046.22  88.4239
 42.2836  8038.55  88.4949
 42.3256  8063.29  88.748
 42.3676  8123.9  88.8768
 42.4096  8098.1  88.7015
 42.4516  8077.13  88.6745
 42.4936  8041.51  88.5509
 42.5356  8000.19  88.4597
 42.5776  8037.99  88.6071
 42.6196  8085.86  88.9255
 42.6616  8086.51  89.0989
 42.7036  8138.03  88.7569
 42.7456  8051.03  88.6385
 42.7876  7941.78  88.1384
 42.8296  8062.91  88.6361
 42.8716  8025.61  88.597
 42.9136  8056.31  88.5536
 42.9556  7991.76  88.3326
 42.9976  8099.3  88.8886
 43.0396  8016.68  88.1576
 43.0816  7997.42  88.4363
 43.1236  7903.23  87.9708
 43.1656  7986.74  88.2642
 43.2076  7929.05  88.0459
 43.2496  7939.4  87.9208
 43.2916  7875.95  87.9362
 43.3336  7897.89  87.8894
 43.3756  7992.34  88.168
 43.4176  7829.38  87.3494
 43.4596  7849.45  87.3152
 43.5016  7946.62  88.2643
 43.5436  7918.63  88.0032
 43.5856  7961.39  88.2705
 43.6276  7882.15  87.7263
 43.6696  7847.1  87.7936
 43.7116  7956.17  87.8884
 43.7536  7920.37  88.1817
 43.7956  7860.43  89.055
 43.8376  7871.73  87.6499
 43.8796  7919.66  88.003
 43.9216  7863.78  87.6101
 43.9636  7822.69  87.4831
 44.0056  7810.97  87.6507
 44.0476  7788.33  87.1577
 44.0896  7791.44  87.5212
 44.1316  7915.95  87.7313
 44.1736  7860.44  87.5486
 44.2156  7800.08  87.0615
 44.2576  7840.66  87.6202
 44.2996  7796.1  87.3444
 44.3416  7760.51  86.9012
 44.3836  7599.04  86.3277
 44.4256  7628.21  86.1312
 44.4676  7632.11  86.3074
 44.5096  7851.41  87.681
 44.5516  7730.69  86.9751
 44.5936  7672.08  86.595
 44.6356  7653.51  86.2283
 44.6776  7791.85  87.3286
 44.7196  7680.41  87.0134
 44.7616  7721.88  88.5838
 44.8036  7611.53  86.36
 44.8456  7711.98  87.1296
 44.8876  7697.12  86.8909
 44.9296  7772.14  86.7608
 44.9716  7715.85  86.8672
 45.0136  7690.66  86.6668
 45.0556  7692.85  86.6545
 45.0976  7658.68  86.6349
 45.1396  7545.74  85.7574
 45.1816  7666.23  86.3697
 45.2236  7698.61  86.4486
 45.2656  7521.69  85.9568
 45.3076  7430.76  85.2175
 45.3496  7421.07  85.4648
 45.3916  7656.86  87.081
 45.4336  7677.03  87.0315
 45.4756  7509.79  85.9325
 45.5176  7558.46  85.8256
 45.5596  7617.08  86.2856
 45.6016  7533.58  86.2227
 45.6436  7505.06  85.2478
 45.6856  7475.18  85.7347
 45.7276  7482.99  87.1169
 45.7696  7472.79  86.7174
 45.8116  7523.23  86.4452
 45.8536  7489.19  86.1382
 45.8956  7604.94  86.1454
 45.9376  7637.99  85.7891
 45.9796  7496.22  85.6739
 46.0216  7580.1  86.5032
 46.0636  7647.19  86.0187
 46.1056  7624.42  85.8738
 46.1476  7564.86  86.1346
 46.1896  7470.3  85.7484
 46.2316  7455.6  85.5286
 46.2736  7430.11  85.7508
 46.3156  7469.13  85.5609
 46.3576  7459.68  85.7139
 46.3996  7561.53  86.459
 46.4416  7456.61  85.4287
 46.4836  7567.75  86.4226
 46.5256  7453.61  85.7078
 46.5676  7444.96  85.7743
 46.6096  7448.8  85.7283
 46.6516  7493.82  85.0248
 46.6936  7485.47  85.468
 46.7356  7550.26  85.9382
 46.7776  7414.49  86.0254
 46.8196  7464.02  85.8997
 46.8616  7253.47  84.6285
 46.9036  7192.45  83.9279
 46.9456  7325.68  84.3472
 46.9876  7349.33  84.5684
 47.0296  7294.81  84.9447
 47.0716  7289.59  84.7304
 47.1136  7362.2  84.818
 47.1556  7322.01  84.4632
 47.1976  7383.45  84.8941
 47.2396  7262.29  84.5986
 47.2816  7267.26  84.3258
 47.3236  7404.9  85.4928
 47.3656  7293.68  84.7824
 47.4076  7284.04  84.5262
 47.4496  7285.65  84.634
 47.4916  7278.7  84.7739
 47.5336  7379.59  85.1811
 47.5756  7379  85.2993
 47.6176  7213.79  84.2374
 47.6596  7189.28  83.8059
 47.7016  7401.42  84.8502
 47.7436  7334.66  84.7936
 47.7856  7375.55  85.0562
 47.8276  7283.58  84.5739
 47.8696  7260.23  84.5356
 47.9116  7324.97  84.6227
 47.9536  7213.72  83.9178
 47.9956  7102.58  83.974
 48.0376  7105.5  83.7698
 48.0796  7377.51  85.4801
 48.1216  7307.26  84.8974
 48.1636  7400.82  85.0011
 48.2056  7297.7  84.6768
 48.2476  7317.17  85.0892
 48.2896  7144.97  84.0012
 48.3316  7227.37  84.4253
 48.3736  7164.2  84.083
 48.4156  7112.26  83.6292
 48.4576  7083.7  83.7527
 48.4996  7287.88  84.4046
 48.5416  7181.67  84.1055
 48.5836  7118.07  83.4145
 48.6256  7230.13  84.2777
 48.6676  7150.71  84.3251
 48.7096  7146.86  83.5788
 48.7516  7147.87  83.7248
 48.7936  7086.01  83.4309
 48.8356  7198.87  84.139
 48.8776  7142.23  84.381
 48.9196  7239.32  84.3113
 48.9616  7124.52  84.026
 49.0036  7165.51  84.6103
 49.0456  7126.28  84.366
 49.0876  7102.52  83.7662
 49.1296  6979.33  83.1958
 49.1716  6983.92  83.0953
 49.2136  7157.96  84.0543
 49.2556  7195.44  84.3013
 49.2976  7100.18  83.8039
 49.3396  6993.91  83.2315
 49.3816  7136.93  83.5017
 49.4236  7121.34  83.8478
 49.4656  6992.74  83.0987
 49.5076  7107.94  83.5312
 49.5496  7006.55  82.9989
 49.5916  7065.08  83.2607
 49.6336  7095.62  83.6435
 49.6756  7103.87  83.9265
 49.7176  7104.05  83.8683
 49.7596  7014.74  83.1038
 49.8016  7129.73  83.7001
 49.8436  7019.01  83.3485
 49.8856  7061.38  83.604
 49.9276  6895.52  82.7163
 49.9696  7061.71  83.6871
 50.0116  7031.9  83.629
 50.0536  7079.87  83.8735
 50.0956  6960.63  83.2399
 50.1376  7034.24  83.3717
 50.1796  6868.77  82.6551
 50.2216  6911.69  82.9049
 50.2636  6923.8  82.6007
 50.3056  6904  82.6569
 50.3476  6984.88  83.1618
 50.3896  6937.61  82.8506
 50.4316  6883.8  82.3643
 50.4736  6922.18  82.81
 50.5156  6975.85  83.1281
 50.5576  7003.87  83.0461
 50.5996  6912.52  82.7838
 50.6416  6922  82.7735
 50.6836  6893.17  82.661
 50.7256  6902.57  82.6384
 50.7676  6928.78  83.1055
 50.8096  6900.02  82.4774
 50.8516  6844.53  82.5629
 50.8936  6799.5  82.0601
 50.9356  6950.12  83.0851
 50.9776  6910.94  82.9999
 51.0196  6783.26  82.3691
 51.0616  6784.03  81.696
 51.1036  6830.47  82.3362
 51.1456  6831.2  82.2525
 51.1876  6882.79  81.8988
 51.2296  6784.26  81.9487
 51.2716  6742.24  81.4003
 51.3136  6866.59  82.6091
 51.3556  6718.21  81.3346
 51.3976  6770.96  81.806
 51.4396  6670.07  81.501
 51.4816  6796.98  82.1213
 51.5236  6837.86  82.4532
 51.5656  6770.25  81.6493
 51.6076  6785.94  81.8266
 51.6496  6843.47  82.3644
 51.6916  6783.38  82.3592
 51.7336  6695.47  81.9114
 51.7756  6783.37  82.1502
 51.8176  6634.86  81.3414
 51.8596  6793.55  82.3321
 51.9016  6865.11  82.3683
 51.9436  6761.13  83.2059
 51.9856  6571.61  82.4552
 52.0276  6675.17  81.6069
 52.0696  6719.33  81.9304
 52.1116  6697.37  81.9268
 52.1536  6713.25  81.8989
 52.1956  6858.99  82.2572
 52.2376  6886.05  82.5875
 52.2796  6716.09  81.3779
 52.3216  6559.57  81.1071
 52.3636  6634.01  81.143
 52.4056  6626.66  80.9487
 52.4476  6628.16  81.3313
 52.4896  6565.61  80.9967
 52.5316  6622.29  81.3873
 52.5736  6641.52  81.2371
 52.6156  6678.01  81.8376
 52.6576  6784.41  81.9306
 52.6996  6602.21  81.7943
 52.7416  6752.84  82.5735
 52.7836  6657.02  81.8622
 52.8256  6655.23  81.0779
 52.8676  6437.67  80.3143
 52.9096  6659.42  81.7671
 52.9516  6619.22  81.8923
 52.9936  6538.51  81.7838
 53.0356  6540.13  80.7928
 53.0776  6497.77  80.7926
 53.1196  6436.77  80.5372
 53.1616  6619.79  81.7216
 53.2036  6482.5  80.8267
 53.2456  6384.73  80.3145
 53.2876  6590.29  81.2985
 53.3296  6375.21  80.286
 53.3716  6483.14  80.7063
 53.4136  6511.19  81.0334
 53.4556  6492.23  80.9448
 53.4976  6480.9  80.721
 53.5396  6508.39  81.2924
 53.5816  6464.72  80.6492
 53.6236  6322.37  80.0955
 53.6656  6453.62  80.551
 53.7076  6506.06  80.8367
 53.7496  6458.15  80.6549
 53.7916  6442.47  80.6881
 53.8336  6403.68  80.3384
 53.8756  6321.16  80.3708
 53.9176  6438.46  80.4585
 53.9596  6432.96  81.1952
 54.0016  6456.59  80.6747
 54.0436  6389.59  80.4698
 54.0856  6494.42  80.5463
 54.1276  6391.57  80.1082
 54.1696  6534.01  81.1703
 54.2116  6489.2  80.6415
 54.2536  6368.1  79.7059
 54.2956  6538.75  80.8145
 54.3376  6420.64  80.5626
 54.3796  6427.09  80.5078
 54.4216  6445.79  80.668
 54.4636  6439.91  80.5921
 54.5056  6494.56  80.7519
 54.5476  6380.09  80.3702
 54.5896  6408.82  80.3853
 54.6316  6472.11  80.6361
 54.6736  6475.5  80.7303
 54.7156  6507.65  80.9588
 54.7576  6371.94  80.1051
 54.7996  6497.6  81.0241
 54.8416  6413.07  80.5499
 54.8836  6379.31  80.4442
 54.9256  6402.67  80.3444
 54.9676  6530.69  80.9969
 55.0096  6409.88  80.3181
 55.0516  6480.39  80.9936
 55.0936  6447.08  80.4055
 55.1356  6443.68  80.4363
 55.1776  6417.74  80.5337
 55.2196  6495.03  80.8021
 55.2616  6402.4  80.432
 55.3036  6333.85  80.1659
 55.3456  6432.95  80.9456
 55.3876  6360.4  80.2292
 55.4296  6435.68  80.6818
 55.4716  6443.58  80.7607
 55.5136  6487.16  80.7914
 55.5556  6410.94  80.3781
 55.5976  6418.54  80.4845
 55.6396  6445.98  80.6048
 55.6816  6317.36  79.6777
 55.7236  6420.54  80.3718
 55.7656  6409.65  80.0541
 55.8076  6446.59  80.272
 55.8496  6319.67  79.7951
 55.8916  6350.77  80.2005
 55.9336  6373.67  80.1433
 55.9756  6351.71  79.904
 56.0176  6289.75  79.6685
 56.0596  6318.97  79.8412
 56.1016  6329.57  79.9198
 56.1436  6276.62  79.84
 56.1856  6339.95  79.9889
 56.2276  6333.41  79.9902
 56.2696  6280.78  79.6336
 56.3116  6288.65  80.088
 56.3536  6327.45  79.9969
 56.3956  6257.46  79.5443
 56.4376  6313.53  79.9327
 56.4796  6388.48  80.2085
 56.5216  6320.95  80.1459
 56.5636  6360.01  79.9944
 56.6056  6384.31  80.3715
 56.6476  6352.59  79.797
 56.6896  6351.77  80.2441
 56.7316  6313.94  79.913
 56.7736  6313.16  79.9078
 56.8156  6354.72  80.1795
 56.8576  6308.31  79.824
 56.8996  6390.68  80.2728
 56.9416  6377.93  80.504
 56.9836  6253.09  79.2223
 57.0256  6320.59  79.9705
 57.0676  6247.3  79.6237
 57.1096  6326.67  79.9218
 57.1516  6382.68  80.3406
 57.1936  6322.14  79.7006
 57.2356  6323.33  80.0329
 57.2776  6331.76  80.0423
 57.3196  6244.97  79.8629
 57.3616  6323.7  79.8512
 57.4036  6303.43  79.7845
 57.4456  6272.25  79.5455
 57.4876  6292.77  79.5461
 57.5296  6153.11  78.9903
 57.5716  6155.86  78.9953
 57.6136  6316.1  79.839
 57.6556  6288.7  79.7953
 57.6976  6355.05  80.0453
 57.7396  6188.82  79.3661
 57.7816  6172.48  79.6229
 57.8236  6157.17  79.3176
 57.8656  6351.79  80.2138
 57.9076  6272.55  79.738
 57.9496  6238.32  79.874
 57.9916  6218.39  79.2515
 58.0336  6230.87  79.6162
 58.0756  6273.56  79.5201
 58.1176  6331.25  79.8809
 58.1596  6217.47  79.7282
 58.2016  6438.35  80.3458
 58.2436  6236.74  79.4958
 58.2856  6319.46  79.9394
 58.3276  6220.67  79.6842
 58.3696  6295.86  79.9099
 58.4116  6361.3  80.188
 58.4536  6263.94  79.4582
 58.4956  6229.62  79.4225
 58.5376  6292.08  79.3796
 58.5796  6224.82  79.3865
 58.6216  6326.34  79.8432
 58.6636  6274.58  79.7365
 58.7056  6263.57  79.5199
 58.7476  6272.3  80.0287
 58.7896  6146.08  78.861
 58.8316  6282.79  79.728
 58.8736  6365.53  80.2598
 58.9156  6235.48  79.48
 58.9576  6373.31  80.6796
 58.9996  6365.67  79.8557
 59.0416  6474.78  80.9162
 59.0836  6378.2  80.2315
 59.1256  6189.84  79.7493
 59.1676  6191.05  80.0673
 59.2096  6403.64  80.7223
 59.2516  6386.2  80.1815
 59.2936  6294.36  79.9378
 59.3356  6568.09  81.53
 59.3776  6378.38  80.5176
 59.4196  6239.69  79.572
 59.4616  6300.94  79.8188
 59.5036  6262.62  79.6117
 59.5456  6386.76  80.0816
 59.5876  6362.47  80.1253
 59.6296  6425.42  80.5921
 59.6716  6267.68  79.6557
 59.7136  6375.32  80.3248
 59.7556  6291.06  79.9315
 59.7976  6153.24  78.7908
 59.8396  6327.02  79.7875
 59.8816  6218.62  79.654
 59.9236  6410.22  80.5052
 59.9656  6329.83  80.265
 60.0076  6382.44  79.9378
 60.0496  6338.11  80.1759
 60.0916  6415.29  80.0628
 60.1336  6216.75  79.9378
 60.1756  6138.82  80.6293
 60.1996  0.0000000E+00  0.0000000E+00