File: docs/examples/XRD/IS17_D/Data/IS17_D/17_Db_f00021.xye
# /beamlines/bl04/projects/cycle2025-II/20250340211-lsimonelli/DATA/IS17_D/17_Db_f00021.xye : mythproc.py merge -s 0.006 -l 0.5 -f /beamlines/bl04/inhouse/ff/FlatField/ff_20Nov2024rod8mm60s_17keV.raw -b True -c true -o xye /beamlines/bl04/projects/cycle2025-II/20250340211-lsimonelli/DATA/IS17_D/17_Db_00021.dat
# IsMon = [6744136, 6741282, 6746161]  IsPos = [-1.5000, -2.4885, -3.4986]
# Wave = 0.4962  CalPath /beamlines/bl04/projects/cycle2025-II/20250340211-lsimonelli/DATA/Align/Si_Pos1_25keV_f00001.cal
# Date = 2025-09-23_23:33:21 Dt = 4.8000  Bin = 0.0060  <imon> = 6743860 +/- 2001 (Min/Max) 6741282 / 6746161
# icurr 249.3490  mocoIn 1.7017E-05  mocoOut 0.7981  i15 7.06173e+06  imon 6.74386e+06  i7 7.3333  iEMpd_timer 4.8000  iEMpd_1 3.6639E-08  iEMpd_2 7.7929E-08  iEMpd_3 1.7705E-08  iEMpd_4 4.8313E-08  iEMhp_timer 4.8000  iEMhp_1 4.8726E-06  iEMhp_2 -2.4041E-08  iEMhp_3 -2.3039E-08  iEMhp_4 -1.9754E-08
#      9776
 1.5856  42354.9  211.323
 1.6276  49834.6  225.291
 1.6696  54936.8  235.708
 1.7116  62524.8  251.952
 1.7536  70184  265.801
 1.7956  74756.1  275.008
 1.8376  70514.3  267.515
 1.8796  60739.2  246.454
 1.9216  50205.3  224.96
 1.9636  43572.6  209.242
 2.0056  39553.6  198.085
 2.0476  36626.3  192.704
 2.0896  34869.3  186.923
 2.1316  34069.5  183.878
 2.1736  32362.1  180.633
 2.2156  32734.6  180.212
 2.2576  31722.5  178.041
 2.2996  30559.3  175.387
 2.3416  31017.5  175.287
 2.3836  30523.8  173.993
 2.4256  29366.2  171.218
 2.4676  28920.3  169.672
 2.5096  29250.7  170.695
 2.5516  31989.1  182.603
 2.5936  88722.6  298.052
 2.6356  29866.5  173.643
 2.6776  27418.3  165.282
 2.7196  26436.6  162.78
 2.7616  26426.8  162.538
 2.8036  25802.4  160.766
 2.8456  25866.6  161.598
 2.8876  25582.6  160.547
 2.9296  24881.4  158.487
 2.9716  24746.7  157.554
 3.0136  24192.1  155.844
 3.0556  24448.4  157.061
 3.0976  24477.6  156.069
 3.1396  23995.3  155.239
 3.1816  23838.2  154.668
 3.2236  23555.7  153.722
 3.2656  23439.9  152.437
 3.3076  23391  153.71
 3.3496  23637.9  153.7
 3.3916  23977.6  154.383
 3.4336  24227.8  155.76
 3.4756  24800.3  157.531
 3.5176  25452.1  159.359
 3.5596  24975.9  160.812
 3.6016  25328.6  159.029
 3.6436  24364  157.072
 3.6856  23859  153.765
 3.7276  23237.8  152.817
 3.7696  23102.3  152.346
 3.8116  22513.2  150.496
 3.8536  22602.5  150.716
 3.8956  22505.4  150.223
 3.9376  22868.7  151.722
 3.9796  22576.3  150.217
 4.0216  22620.2  149.42
 4.0636  22438.7  150.252
 4.1056  22527.6  150.221
 4.1476  22895.7  151.733
 4.1896  22804.8  151.302
 4.2316  22989.3  151.736
 4.2736  23244.5  152.386
 4.3156  23555  153.623
 4.3576  24456.5  156.44
 4.3996  24435.3  156.455
 4.4416  25310.2  159.017
 4.4836  26031.2  161.433
 4.5256  26233.2  162.646
 4.5676  26041.2  162.304
 4.6096  26343  162.282
 4.6516  27002.7  163.635
 4.6936  26893.6  164.117
 4.7356  27623.4  166.154
 4.7776  27057.2  164.276
 4.8196  26934.9  164.545
 4.8616  26378.9  162.469
 4.9036  26444.6  162.268
 4.9456  26224  162.247
 4.9876  25596.1  160.193
 5.0296  25651.9  160.21
 5.0716  25564.6  160.54
 5.1136  25622.4  160.582
 5.1556  26063.8  161.426
 5.1976  30681.7  175.134
 5.2396  26547.5  162.605
 5.2816  26556.1  163.094
 5.3236  26483.9  162.576
 5.3656  25911.1  161.724
 5.4076  25690.3  161.169
 5.4496  25700.5  160.708
 5.4916  26022.9  161.46
 5.5336  25719  160.535
 5.5756  25812.5  160.842
 5.6176  25898.7  160.557
 5.6596  26084.3  161.942
 5.7016  26075.6  161.346
 5.7436  26305.9  162.333
 5.7856  26090.4  161.732
 5.8276  26323.2  162.173
 5.8696  26743.5  163.517
 5.9116  26372.6  163.047
 5.9536  26904.2  164.461
 5.9956  26901.8  163.858
 6.0376  27004.8  164.776
 6.0796  27368.1  165.713
 6.1216  27182  165.348
 6.1636  27471.3  165.294
 6.2056  27241.5  165.268
 6.2476  27784  166.592
 6.2896  27838.5  166.626
 6.3316  27934.5  167.078
 6.3736  27924.5  166.949
 6.4156  27905.5  166.838
 6.4576  27994.4  166.673
 6.4996  28199.8  167.751
 6.5416  28181.4  167.816
 6.5836  28308.3  168.439
 6.6256  28446.2  168.417
 6.6676  28669.1  168.644
 6.7096  28628.4  169.369
 6.7516  29105.4  170.43
 6.7936  30109.5  172.506
 6.8356  30240  173.221
 6.8776  29653  172.33
 6.9196  29634.3  172.661
 6.9616  29759.9  172.458
 7.0036  30315.2  173.747
 7.0456  30417.7  173.358
 7.0876  30843.9  176.136
 7.1296  30189.8  173.508
 7.1716  30377.4  173.583
 7.2136  29976.9  172.228
 7.2556  30391.1  173.56
 7.2976  30369.8  173.995
 7.3396  30117.6  173.493
 7.3816  30009.5  173.386
 7.4236  30426.5  173.896
 7.4656  30590.9  173.84
 7.5076  30953.3  175.003
 7.5496  30642.6  174.648
 7.5916  30638.7  174.69
 7.6336  31339.8  176.563
 7.6756  31310.7  176.336
 7.7176  31784.8  177.991
 7.7596  31575.9  178.599
 7.8016  34825.3  189.851
 7.8436  31737.8  177.968
 7.8856  32122.7  178.671
 7.9276  32467.9  180.005
 7.9696  32921.3  181.571
 8.0116  33632.4  182.45
 8.0536  34030.2  183.417
 8.0956  35204.9  187.743
 8.1376  34416.9  185.103
 8.1796  34407.6  185.613
 8.2216  35486.9  187.256
 8.2636  35954.7  188.733
 8.3056  35154.3  187.358
 8.3476  36627.1  190.59
 8.3896  35973.8  189.38
 8.4316  35652.6  188.277
 8.4736  35539.6  187.459
 8.5156  35596.5  187.882
 8.5576  35058.6  187.409
 8.5996  35118.7  186.468
 8.6416  35011  187.415
 8.6836  34594.4  186.114
 8.7256  35270.8  187.408
 8.7676  36704.9  194.074
 8.8096  37218.3  192.701
 8.8516  36076.1  189.344
 8.8936  36450.9  190.23
 8.9356  35479  188.008
 8.9776  35489.9  188.107
 9.0196  35334.9  187.379
 9.0616  35160.2  186.423
 9.1036  35977.2  189.737
 9.1456  34210.3  184.368
 9.1876  34509.3  185.111
 9.2296  34034.4  183.291
 9.2716  33657.4  182.314
 9.3136  33939.9  183.065
 9.3556  34241.7  183.857
 9.3976  33072  181.195
 9.4396  33179.5  181.394
 9.4816  32991.1  180.749
 9.5236  32591.1  179.543
 9.5656  32691  180.169
 9.6076  31617.1  177.692
 9.6496  31723.9  177.876
 9.6916  31519.4  177.265
 9.7336  31865.5  178.031
 9.7756  31760.5  178.943
 9.8176  31517.8  177.83
 9.8596  31547.9  176.388
 9.9016  30933.4  174.648
 9.9436  30825.3  174.115
 9.9856  30854  174.62
 10.0276  30149  173.662
 10.0696  30598.2  173.997
 10.1116  29888.6  172.227
 10.1536  29857.9  171.802
 10.1956  28912.1  169.172
 10.2376  29127.3  169.312
 10.2796  28810.5  168.494
 10.3216  28569.8  167.935
 10.3636  28494.8  167.884
 10.4056  29963.9  172.571
 10.4476  30524.3  173.766
 10.4896  32741  179.393
 10.5316  31172.3  175.414
 10.5736  28285.8  167.86
 10.6156  28016.7  166.811
 10.6576  31542  175.501
 10.6996  27949.9  165.903
 10.7416  26948.9  163.11
 10.7836  27402  165.134
 10.8256  26123.1  161.645
 10.8676  26196.3  161.43
 10.9096  26122  161.226
 10.9516  25613  158.614
 10.9936  26355.2  161.105
 11.0356  25979.6  160.564
 11.0776  26486  161.454
 11.1196  25998  160.72
 11.1616  25094.5  157.584
 11.2036  25714.5  159.361
 11.2456  26702.9  163.117
 11.2876  25056.1  157.727
 11.3296  24746.5  156.672
 11.3716  25062.5  157.397
 11.4136  24724.6  157.163
 11.4556  25077.1  157.935
 11.4976  26051.4  159.979
 11.5396  26516.3  161.578
 11.5816  25452.1  158.711
 11.6236  24581.6  156.427
 11.6656  24713.2  155.802
 11.7076  23927.9  154.107
 11.7496  24103.6  158.596
 11.7916  24223.5  154.336
 11.8336  23221.6  151.999
 11.8756  23630.6  152.869
 11.9176  23274  151.627
 11.9596  23308.5  151.661
 12.0016  23287.5  152.342
 12.0436  23277.9  151.782
 12.0856  22908.7  151.058
 12.1276  22860.8  150.857
 12.1696  23119.5  150.841
 12.2116  23096.7  150.767
 12.2536  24510  156.111
 12.2956  22970.5  150.512
 12.3376  23202.5  151.468
 12.3796  22857.3  150.81
 12.4216  22933  150.27
 12.4636  23303  152.407
 12.5056  22707.7  149.731
 12.5476  22855.8  149.737
 12.5896  22505  149.218
 12.6316  22654.7  149.847
 12.6736  22656.3  150.196
 12.7156  22858.4  150.843
 12.7576  22579.9  150.179
 12.7996  22953.2  150.082
 12.8416  23053.9  151.45
 12.8836  23459.7  152.595
 12.9256  23288.7  151.099
 12.9676  23145.5  151.024
 13.0096  23330.9  152.726
 13.0516  23243.1  151.473
 13.0936  23029  150.919
 13.1356  23403.9  151.387
 13.1776  23311.7  152.101
 13.2196  23118.3  151.111
 13.2616  22734.9  150.164
 13.3036  23391.7  152.442
 13.3456  22815.3  150.526
 13.3876  23412.4  151.982
 13.4296  23120.5  151.187
 13.4716  23413.8  151.788
 13.5136  23265  151.427
 13.5556  23126.2  151.597
 13.5976  23309.7  152.357
 13.6396  23306.9  151.72
 13.6816  23505.5  152.696
 13.7236  23919.9  153.753
 13.7656  25466.7  159.098
 13.8076  26670.2  161.455
 13.8496  24824.3  156.603
 13.8916  23823.1  154.348
 13.9336  22938.2  150.763
 13.9756  22818.6  149.765
 14.0176  22558.4  149.564
 14.0596  23334.2  152.046
 14.1016  22530.4  149.822
 14.1436  22498.1  148.862
 14.1856  22053.9  147.663
 14.2276  22283.9  148.913
 14.2696  22236.3  148.609
 14.3116  21537.2  146.168
 14.3536  21342.4  145.665
 14.3956  21169  144.811
 14.4376  21434.5  145.497
 14.4796  21349.2  145.21
 14.5216  20923.3  144.518
 14.5636  21355.3  145.58
 14.6056  21177.7  144.533
 14.6476  20942.2  142.99
 14.6896  20659  142.559
 14.7316  20216.1  142.035
 14.7736  20212.5  141.186
 14.8156  19996.4  140.446
 14.8576  19882.5  139.906
 14.8996  19950.8  141.317
 14.9416  19243.6  138.809
 14.9836  19431.9  139.464
 15.0256  18797.9  136.124
 15.0676  18649.3  135.886
 15.1096  18392.6  134.695
 15.1516  18247.5  134.709
 15.1936  18174.4  133.877
 15.2356  18148  134.051
 15.2776  18022.6  133.191
 15.3196  17750.6  133.14
 15.3616  17498.4  131.953
 15.4036  17588  132.169
 15.4456  17843  132.547
 15.4876  17513.9  131.24
 15.5296  17388.2  131.054
 15.5716  17056.1  129.407
 15.6136  17003.6  129.526
 15.6556  18257  133.451
 15.6976  17409.9  130.388
 15.7396  17000.9  129.432
 15.7816  16853.7  128.406
 15.8236  16580.1  128.016
 15.8656  16673  128.188
 15.9076  16594  127.715
 15.9496  17504.4  133.947
 15.9916  16854.5  131.835
 16.0336  16968.1  129.187
 16.0756  16764.3  128.739
 16.1176  16392.3  127.208
 16.1596  16277.2  128.079
 16.2016  16234.8  126.7
 16.2436  16149.8  126.726
 16.2856  16043.7  125.851
 16.3276  15823.9  125.402
 16.3696  15979.8  125.855
 16.4116  16024  126.468
 16.4536  15913  125.837
 16.4956  16445  127.665
 16.5376  15965.3  125.972
 16.5796  15844.5  124.874
 16.6216  15648.3  124.348
 16.6636  15642.4  124.516
 16.7056  15837.6  125.152
 16.7476  15463.6  123.346
 16.7896  15851.5  125.486
 16.8316  15750.1  125.055
 16.8736  16039.8  126.456
 16.9156  15863.5  126.065
 16.9576  15384.9  124.943
 16.9996  15597.5  126.265
 17.0416  15459.7  124.153
 17.0836  15443.7  123.852
 17.1256  15429.7  123.802
 17.1676  15611.8  124.502
 17.2096  15390.4  123.503
 17.2516  15419.7  123.702
 17.2936  15081  122.391
 17.3356  14890.8  121.591
 17.3776  14762.7  121.26
 17.4196  14736.9  120.864
 17.4616  15124  122.353
 17.5036  14992.4  122.18
 17.5456  14490.2  120.723
 17.5876  14493.2  119.807
 17.6296  14793.6  120.858
 17.6716  14651.4  120.869
 17.7136  14935.9  122.151
 17.7556  14336.4  119.977
 17.7976  14297.7  119.425
 17.8396  14245.7  118.849
 17.8816  14084.6  118.731
 17.9236  14142.8  118.76
 17.9656  14091.4  119.198
 18.0076  14398  119.931
 18.0496  14633.3  120.048
 18.0916  17769  132.886
 18.1336  16060.9  126.447
 18.1756  14746.2  120.712
 18.2176  15539.2  124.131
 18.2596  14053.9  117.792
 18.3016  14528.4  120.016
 18.3436  14747.9  121.154
 18.3856  14262.3  119.042
 18.4276  13922.6  117.316
 18.4696  14020.8  117.804
 18.5116  14214.6  118.879
 18.5536  13925.8  118.022
 18.5956  13930.3  117.622
 18.6376  13915.1  117.959
 18.6796  13804.9  116.821
 18.7216  13850.4  117.555
 18.7636  13726  116.961
 18.8056  13510.9  115.966
 18.8476  13151  114.728
 18.8896  13347.1  115.227
 18.9316  13488.5  115.665
 18.9736  13482.8  115.499
 19.0156  13572.8  116.279
 19.0576  13866.4  116.396
 19.0996  13504.3  115.568
 19.1416  13496.5  115.928
 19.1836  13291.1  114.655
 19.2256  13082.9  113.97
 19.2676  13341.8  115.182
 19.3096  13250.2  115.02
 19.3516  13292.6  114.971
 19.3936  13217.6  114.804
 19.4356  13432.6  115.547
 19.4776  13342.9  115.25
 19.5196  13230.6  114.621
 19.5616  13107.2  114.334
 19.6036  13177.4  114.019
 19.6456  13416.3  115.289
 19.6876  13436.7  115.022
 19.7296  13378.1  115.23
 19.7716  13179  114.397
 19.8136  13592.7  116.516
 19.8556  13708  116.494
 19.8976  13732.4  116.655
 19.9396  13811.2  116.586
 19.9816  13890.2  117.168
 20.0236  14324.3  119.178
 20.0656  13744.4  116.741
 20.1076  13580.2  116.506
 20.1496  13232.6  114.997
 20.1916  13364.8  115.054
 20.2336  13164.8  114.16
 20.2756  12954.6  113.671
 20.3176  12786.3  112.682
 20.3596  12712.4  112.348
 20.4016  13015  113.474
 20.4436  12738.1  112.817
 20.4856  12842.6  113.066
 20.5276  12699.4  112.888
 20.5696  12696.3  112.443
 20.6116  12754.1  112.866
 20.6536  12468.8  111.178
 20.6956  12407  110.973
 20.7376  12525.7  111.708
 20.7796  12506.5  111.327
 20.8216  12700.8  111.903
 20.8636  12667.8  112.128
 20.9056  13298.4  114.824
 20.9476  12814.1  112.554
 20.9896  13426.7  115.083
 21.0316  12596.7  111.372
 21.0736  12785.8  112.714
 21.1156  12749.9  112.717
 21.1576  12526.8  111.765
 21.1996  12596.6  112.055
 21.2416  12494.4  111.429
 21.2836  12568  111.735
 21.3256  12520.2  111.595
 21.3676  12513.5  111.106
 21.4096  12523.8  111.529
 21.4516  12249  110.113
 21.4936  12180.2  110.07
 21.5356  12362.8  110.836
 21.5776  12458.9  111.102
 21.6196  12380.7  110.795
 21.6616  12159.5  109.886
 21.7036  12241.1  110.011
 21.7456  12277.1  110.266
 21.7876  12071.1  109.103
 21.8296  12062.6  108.92
 21.8716  12158.2  109.566
 21.9136  12266.8  110.249
 21.9556  12325.5  110.194
 21.9976  11940.8  108.492
 22.0396  12068.2  109.315
 22.0816  12015.3  109.586
 22.1236  12281.9  110.263
 22.1656  12043.4  109.384
 22.2076  11864.9  107.996
 22.2496  11933.8  108.342
 22.2916  11876.3  107.966
 22.3336  11845.7  108.504
 22.3756  11722.6  107.688
 22.4176  11672.2  107.319
 22.4596  11582  107.462
 22.5016  11767.6  107.846
 22.5436  11840.8  108.053
 22.5856  12249.9  110.152
 22.6276  12289.5  110.469
 22.6696  11792.6  108.549
 22.7116  11779.3  108.023
 22.7536  11742.1  107.823
 22.7956  11749.3  107.216
 22.8376  11580.9  106.935
 22.8796  11733  107.447
 22.9216  11710.6  107.862
 22.9636  11623.1  106.654
 23.0056  11788.4  107.536
 23.0476  11959.8  108.876
 23.0896  12116.4  108.974
 23.1316  11987.2  108.81
 23.1736  11954.5  111.535
 23.2156  12267.9  110.324
 23.2576  12195.7  110.199
 23.2996  12017.2  109.172
 23.3416  12224.5  110.631
 23.3836  11948.9  108.603
 23.4256  12259.6  110.152
 23.4676  12087.7  109.072
 23.5096  12134.4  109.925
 23.5516  12031.2  108.772
 23.5936  12305  110.908
 23.6356  12264  110.39
 23.6776  11875.7  109.15
 23.7196  11995.8  109.179
 23.7616  11929.6  108.586
 23.8036  12115.4  109.485
 23.8456  12008.1  108.554
 23.8876  11969.8  108.729
 23.9296  11664.7  107.818
 23.9716  11971.7  108.442
 24.0136  11928.3  109.13
 24.0556  11763.9  108.103
 24.0976  11677.9  107.524
 24.1396  11525  109.374
 24.1816  11766.6  109.288
 24.2236  11572.8  107.708
 24.2656  11804.8  108.259
 24.3076  11659.9  107.858
 24.3496  11704.4  107.944
 24.3916  11817.6  108.51
 24.4336  11586.6  107.639
 24.4756  11667.7  107.911
 24.5176  11415.2  106.364
 24.5596  11377  106.505
 24.6016  11229.7  105.911
 24.6436  11524.4  106.802
 24.6856  11398.2  105.969
 24.7276  11302  105.843
 24.7696  11303.8  105.947
 24.8116  11313.8  106.179
 24.8536  11239.8  105.833
 24.8956  10975.7  104.319
 24.9376  11107.4  105.117
 24.9796  10952.7  104.497
 25.0216  11105.2  105.327
 25.0636  11255.5  105.701
 25.1056  10856.5  104.235
 25.1476  10724.4  105.438
 25.1896  10762.5  104.176
 25.2316  10823.8  103.652
 25.2736  10869.4  103.643
 25.3156  10741.3  103.08
 25.3576  10654  103.095
 25.3996  10765.1  103.615
 25.4416  10661.1  103.094
 25.4836  10587.1  103.239
 25.5256  10702.2  103.178
 25.5676  10656.5  102.694
 25.6096  10518.1  102.585
 25.6516  10507.7  102.057
 25.6936  10697.9  103.277
 25.7356  10558.9  102.733
 25.7776  10614.3  102.686
 25.8196  10416.6  101.888
 25.8616  10453.3  101.995
 25.9036  10735.1  102.82
 25.9456  10425.6  101.92
 25.9876  10535.1  102.368
 26.0296  10572.2  102.301
 26.0716  10608.1  102.811
 26.1136  10574.2  102.575
 26.1556  10609.9  102.049
 26.1976  10381.9  101.953
 26.2396  10456.3  101.731
 26.2816  10456.1  102.084
 26.3236  10439.1  102.07
 26.3656  10608.2  102.702
 26.4076  10291.7  101.358
 26.4496  10646.4  102.688
 26.4916  10899.4  103.798
 26.5336  10950.6  104.383
 26.5756  11143.4  105.174
 26.6176  10634.6  102.765
 26.6596  10556.7  102.684
 26.7016  10253.3  101.016
 26.7436  10358.5  101.618
 26.7856  10177.8  100.718
 26.8276  10220.2  100.895
 26.8696  10189.7  100.612
 26.9116  10146  100.324
 26.9536  10025.6  99.7852
 26.9956  10041.8  99.9011
 27.0376  10049.4  100.155
 27.0796  10061.8  99.9886
 27.1216  10158.2  100.476
 27.1636  10074  100.223
 27.2056  9915.99  99.3299
 27.2476  9928.13  99.3755
 27.2896  9948.58  99.537
 27.3316  9919.49  99.1763
 27.3736  9719.25  98.4413
 27.4156  10026.1  99.8161
 27.4576  9956.29  99.6789
 27.4996  10029.7  99.6671
 27.5416  9881.5  99.2243
 27.5836  9883.43  99.0819
 27.6256  9919.8  99.435
 27.6676  9821.78  98.9437
 27.7096  9954.9  99.4907
 27.7516  10173.2  100.722
 27.7936  10370.1  101.833
 27.8356  10062.9  99.937
 27.8776  10247.3  100.909
 27.9196  9902.67  99.058
 27.9616  9964.36  99.5624
 28.0036  9807.56  98.7309
 28.0456  9629.66  97.978
 28.0876  9649.22  98.1552
 28.1296  9669.19  98.0978
 28.1716  9712.39  98.3336
 28.2136  9798.6  98.7362
 28.2556  9791.54  98.8131
 28.2976  9610.42  97.8868
 28.3396  9587.55  97.5718
 28.3816  9685.93  98.0279
 28.4236  9595.33  97.7305
 28.4656  9471.14  97.1385
 28.5076  9343.28  96.1312
 28.5496  9487.67  97.1167
 28.5916  9531.13  97.1631
 28.6336  9419.45  96.9184
 28.6756  9610.82  97.1085
 28.7176  9517.01  97.1859
 28.7596  9299.49  95.9626
 28.8016  9336.1  96.2656
 28.8436  9345.85  96.47
 28.8856  9435.36  96.7908
 28.9276  9503.15  97.3796
 28.9696  9296.7  95.9768
 29.0116  9248.75  95.8971
 29.0536  9233.89  96.0384
 29.0956  9382.64  96.5108
 29.1376  9283.54  95.9741
 29.1796  9267.37  95.9385
 29.2216  9215.42  95.5174
 29.2636  9383.16  96.3726
 29.3056  9230.19  95.4568
 29.3476  9167.94  95.6408
 29.3896  9351.9  96.7086
 29.4316  9209.46  95.3181
 29.4736  9117.66  94.9009
 29.5156  9057.2  94.5165
 29.5576  9035.56  95.1219
 29.5996  9010.18  94.2674
 29.6416  9019.32  94.4361
 29.6836  9032.81  94.4314
 29.7256  9120.79  95.44
 29.7676  9084.36  94.9144
 29.8096  9033.78  94.5999
 29.8516  8895.55  94.1899
 29.8936  8850.76  94.0465
 29.9356  9057.47  94.9
 29.9776  8948.24  94.4685
 30.0196  9054.02  94.4413
 30.0616  8963.69  94.3252
 30.1036  9000.96  94.3513
 30.1456  8831.71  93.7065
 30.1876  8800.36  93.5017
 30.2296  8803.3  93.4599
 30.2716  9007.43  94.1874
 30.3136  8963.32  94.531
 30.3556  9154.12  95.7958
 30.3976  8971.12  96.2801
 30.4396  9246.74  95.1459
 30.4816  9091.2  93.9547
 30.5236  9179.56  94.4131
 30.5656  9169.48  95.0005
 30.6076  9012.88  93.9552
 30.6496  9051.88  94.2246
 30.6916  8976.44  93.9091
 30.7336  9068.73  94.5459
 30.7756  8823.24  93.5457
 30.8176  9158.17  95.0102
 30.8596  9162.68  94.7882
 30.9016  9130.91  94.5061
 30.9436  9191.27  95.0358
 30.9856  9237.32  95.3874
 31.0276  9037.81  94
 31.0696  9012.18  94.2835
 31.1116  8974.63  94.1821
 31.1536  8934.73  93.8558
 31.1956  8893.14  93.7371
 31.2376  8853.25  93.5414
 31.2796  8932.95  93.4954
 31.3216  8835.84  92.9221
 31.3636  8958.19  94.2673
 31.4056  8979.92  95.6518
 31.4476  9076.02  94.1125
 31.4896  8991.35  94.1664
 31.5316  9063.84  94.0033
 31.5736  9435.01  95.6952
 31.6156  9395.79  95.4988
 31.6576  9072.81  93.9072
 31.6996  9129.53  93.8814
 31.7416  9097.77  94.6583
 31.7836  8941.26  93.0045
 31.8256  8896.91  93.1062
 31.8676  9044.97  93.7914
 31.9096  8803.6  92.7543
 31.9516  8842.83  93.2708
 31.9936  8706.19  92.3757
 32.0356  8932.83  93.6115
 32.0776  8876.97  93.2168
 32.1196  8963.53  93.6848
 32.1616  9013.95  93.4975
 32.2036  8903.51  93.4215
 32.2456  8831.16  93.4169
 32.2876  8662.44  91.867
 32.3296  8779.52  92.6094
 32.3716  8604.71  91.7989
 32.4136  8562.02  91.7633
 32.4556  8823  92.5865
 32.4976  8675.45  91.7162
 32.5396  8681.85  91.7724
 32.5816  8657.37  91.6654
 32.6236  8687.09  91.9881
 32.6656  8714.33  92.6698
 32.7076  8619.61  91.8215
 32.7496  8503.37  90.885
 32.7916  8645.74  91.6023
 32.8336  8596.87  91.4423
 32.8756  8628.9  91.4096
 32.9176  8453.67  90.8721
 32.9596  8587.29  91.6536
 33.0016  8554.33  91.2604
 33.0436  8546.04  91.3814
 33.0856  8567.93  91.5948
 33.1276  8439.45  90.6463
 33.1696  8622.33  91.4419
 33.2116  8567.13  91.3931
 33.2536  8622.36  91.6681
 33.2956  8583.05  91.5476
 33.3376  8487.09  90.8446
 33.3796  8480.43  90.9574
 33.4216  8476.04  90.5201
 33.4636  8546.94  91.0571
 33.5056  8335.98  90.0173
 33.5476  8469.54  90.87
 33.5896  8589.19  91.2825
 33.6316  8551.69  91.4081
 33.6736  8297.64  90.2855
 33.7156  8302.11  90.3385
 33.7576  8440.47  90.7365
 33.7996  8353.35  90.0368
 33.8416  8263.69  89.7323
 33.8836  8248.28  89.433
 33.9256  8608.6  91.419
 33.9676  8323.97  89.791
 34.0096  8300.21  89.9671
 34.0516  8341.29  89.841
 34.0936  8270.03  89.72
 34.1356  8457.64  90.4746
 34.1776  8211.75  89.1513
 34.2196  8170.91  89.1066
 34.2616  8142.62  89.1475
 34.3036  8416.43  90.8146
 34.3456  8255.76  89.6992
 34.3876  8261.37  89.7876
 34.4296  8166.25  88.8869
 34.4716  8326.67  89.8995
 34.5136  8301.9  89.9339
 34.5556  8055.06  88.8584
 34.5976  8386.27  90.5043
 34.6396  8152.14  88.929
 34.6816  8387.61  90.3053
 34.7236  8229.73  89.2197
 34.7656  8238.68  89.4904
 34.8076  8158.87  89.3774
 34.8496  8188.18  89.3915
 34.8916  8183.26  89.2221
 34.9336  8220.22  89.4122
 34.9756  8359.03  90.1066
 35.0176  8173.3  89.5957
 35.0596  8234  89.7509
 35.1016  8248.75  89.5946
 35.1436  8283.41  89.4712
 35.1856  8136.49  88.792
 35.2276  8143.77  89.0098
 35.2696  8180.35  89.3967
 35.3116  8123.88  89.1875
 35.3536  8160.31  89.1234
 35.3956  8150.73  88.763
 35.4376  8188.91  89.5276
 35.4796  8196.78  89.6057
 35.5216  8172.17  89.3658
 35.5636  7870.1  88.4797
 35.6056  8042.79  88.4992
 35.6476  8195.32  89.2324
 35.6896  8207.96  89.4758
 35.7316  8053.17  88.522
 35.7736  7972.66  88.2596
 35.8156  8103.19  88.9715
 35.8576  8151.81  89.4893
 35.8996  8233.41  89.9061
 35.9416  8090.64  88.6356
 35.9836  8025.59  88.7209
 36.0256  8277.87  89.9992
 36.0676  8244.06  89.3533
 36.1096  8101.45  88.9564
 36.1516  8234.31  89.5583
 36.1936  8167.54  89.0391
 36.2356  8145.62  89.5778
 36.2776  8100.17  88.7805
 36.3196  8067  88.3002
 36.3616  8061.69  88.3953
 36.4036  7993.75  88.0989
 36.4456  8016.19  88.4334
 36.4876  7864.1  87.5163
 36.5296  8027.26  88.4632
 36.5716  8009.99  89.1276
 36.6136  7980.42  87.7799
 36.6556  7819.66  87.0777
 36.6976  7831.92  87.6337
 36.7396  7813.24  87.3576
 36.7816  7766.62  87.3723
 36.8236  7743.74  87.1697
 36.8656  7587.1  86.3426
 36.9076  7692.58  86.9529
 36.9496  7681.69  86.9064
 36.9916  7749.4  86.778
 37.0336  7777.95  87.2372
 37.0756  7781.64  87.0648
 37.1176  7662.68  86.7416
 37.1596  7614.41  86.3844
 37.2016  7637.3  86.6925
 37.2436  7686.73  86.3578
 37.2856  7591.88  86.0657
 37.3276  7808.33  86.6534
 37.3696  7594.37  86.3151
 37.4116  7649.81  86.5273
 37.4536  7646.43  86.3813
 37.4956  7585.04  86.0778
 37.5376  7857.79  89.1734
 37.5796  7751.33  88.4982
 37.6216  7775.55  86.9306
 37.6636  7923.92  87.6505
 37.7056  7837.54  87.3525
 37.7476  7933.69  87.4315
 37.7896  7727.08  86.7832
 37.8316  7693.72  86.7437
 37.8736  7764.89  86.6889
 37.9156  7637.8  85.9742
 37.9576  7691.81  86.3253
 37.9996  7662.87  85.7436
 38.0416  7675.29  86.5916
 38.0836  7704.5  86.6754
 38.1256  7760.68  86.9613
 38.1676  7590.16  86.116
 38.2096  7851.44  87.1976
 38.2516  7808.76  87.092
 38.2936  7908.92  87.5433
 38.3356  7736.74  86.5145
 38.3776  7638.3  86.2114
 38.4196  7672.82  86.2657
 38.4616  7769.69  87.0451
 38.5036  7887.79  87.5461
 38.5456  7635.7  86.9573
 38.5876  7694.55  87.3186
 38.6296  7624.64  85.9059
 38.6716  7625.73  85.7296
 38.7136  7652.57  85.821
 38.7556  7672.58  86.4333
 38.7976  7584.44  85.8689
 38.8396  7596.6  86.3719
 38.8816  7554.76  85.9474
 38.9236  7607.93  86.0541
 38.9656  7642.45  86.1522
 39.0076  7735.07  86.0842
 39.0496  7694.78  86.4054
 39.0916  7697.72  86.0802
 39.1336  7684.87  86.4126
 39.1756  7538.4  85.6372
 39.2176  7600.18  86.5142
 39.2596  7585.17  86.3416
 39.3016  7648.26  86.3078
 39.3436  7563.14  86.2219
 39.3856  7724.27  86.5918
 39.4276  7785.02  87.4333
 39.4696  7761.51  86.9297
 39.5116  7792.02  87.6071
 39.5536  7714.61  87.5782
 39.5956  7652.74  86.3502
 39.6376  7572.57  85.7371
 39.6796  7591.74  85.7567
 39.7216  7543.31  85.5781
 39.7636  7692.1  86.9692
 39.8056  7583.73  86.1445
 39.8476  7594.11  86.4461
 39.8896  7610.8  86.1886
 39.9316  7532.48  85.9856
 39.9736  7649.73  86.2419
 40.0156  7578.94  85.6729
 40.0576  7545.13  85.8286
 40.0996  7639.4  85.5599
 40.1416  7620.82  86.2341
 40.1836  7654.15  86.3104
 40.2256  7574.37  85.8897
 40.2676  7498.32  85.6304
 40.3096  7589.03  86.0053
 40.3516  7555.65  86.0083
 40.3936  7667.23  86.1161
 40.4356  7567.17  85.7707
 40.4776  7626.39  86.3246
 40.5196  7663.08  86.8247
 40.5616  7774.09  87.098
 40.6036  7566.11  86.184
 40.6456  7583.64  85.889
 40.6876  7836.51  87.3046
 40.7296  7562.85  85.8993
 40.7716  7579.13  86.1128
 40.8136  7641.21  86.4039
 40.8556  7634.51  86.4964
 40.8976  7655.2  86.5458
 40.9396  7682.46  87.0396
 40.9816  7646.44  86.1387
 41.0236  7639.05  85.8796
 41.0656  7674.68  86.6069
 41.1076  7551.3  85.693
 41.1496  7559.93  85.6452
 41.1916  7549.75  85.9048
 41.2336  7710.1  86.8045
 41.2756  7645.05  86.0545
 41.3176  7654.09  86.6998
 41.3596  7602.04  86.1466
 41.4016  7496.16  85.7974
 41.4436  7592.15  86.134
 41.4856  7607.27  86.3855
 41.5276  7576.45  86.2259
 41.5696  7627.77  86.1364
 41.6116  7606.23  86.4028
 41.6536  7620.19  86.3446
 41.6956  7715  86.8678
 41.7376  7585.89  86.2392
 41.7796  7541.24  85.9206
 41.8216  7671.36  86.839
 41.8636  7589.84  86.3256
 41.9056  7498.19  85.5982
 41.9476  7587.93  86.3398
 41.9896  7724.29  86.7797
 42.0316  7623  86.2955
 42.0736  7714.08  86.9358
 42.1156  7529.36  85.6953
 42.1576  7661.88  86.5596
 42.1996  7692.91  86.8641
 42.2416  7580.57  85.8215
 42.2836  7639.1  86.2701
 42.3256  7516.79  85.6839
 42.3676  7743.85  86.7689
 42.4096  7650.11  86.2096
 42.4516  7747.55  86.8283
 42.4936  7500.37  85.5088
 42.5356  7535.71  85.8521
 42.5776  7616.33  86.2432
 42.6196  7533.51  85.7511
 42.6616  7416.24  85.3206
 42.7036  7673.28  86.1823
 42.7456  7682.09  86.5791
 42.7876  7516.4  85.7306
 42.8296  7606.8  86.1468
 42.8716  7351.92  84.7925
 42.9136  7452.61  85.1311
 42.9556  7525.2  85.7045
 42.9976  7558.16  85.8626
 43.0396  7500.25  85.2697
 43.0816  7484.42  85.5567
 43.1236  7525.18  85.8343
 43.1656  7415.64  85.0418
 43.2076  7459.34  85.3901
 43.2496  7400.52  84.8857
 43.2916  7545.95  86.0686
 43.3336  7518.06  85.7353
 43.3756  7510.94  85.4665
 43.4176  7467.32  85.3028
 43.4596  7418.95  84.881
 43.5016  7403.26  85.1803
 43.5436  7470.92  85.4849
 43.5856  7313.37  84.6013
 43.6276  7419.41  85.1026
 43.6696  7400.71  85.1446
 43.7116  7461.67  85.1035
 43.7536  7500.79  85.8203
 43.7956  7273.78  85.6936
 43.8376  7251.65  84.1292
 43.8796  7271.09  84.3164
 43.9216  7258.23  84.1623
 43.9636  7294.17  84.4719
 44.0056  7122.73  83.702
 44.0476  7266.74  84.1778
 44.0896  7197.59  84.1147
 44.1316  7223.66  83.9481
 44.1736  7286.85  84.2743
 44.2156  7230.21  83.8268
 44.2576  7372.01  84.9573
 44.2996  7215.26  84.0264
 44.3416  7318.47  84.3754
 44.3836  7125.82  83.5841
 44.4256  7113.75  83.165
 44.4676  7129.18  83.4066
 44.5096  7238.31  84.1888
 44.5516  7195.1  83.9014
 44.5936  7066.2  83.1002
 44.6356  7122.52  83.1769
 44.6776  7122.69  83.4895
 44.7196  7197.36  84.1826
 44.7616  7311.54  86.2003
 44.8036  7239.01  84.4119
 44.8456  7379.02  85.2272
 44.8876  7327.95  84.775
 44.9296  7439.15  84.8709
 44.9716  7334.26  84.6881
 45.0136  7381.29  84.8972
 45.0556  7250.62  84.2362
 45.0976  7392.76  85.1125
 45.1396  7235.03  83.9573
 45.1816  7312.91  84.1688
 45.2236  7341.9  84.418
 45.2656  7188.6  84.0139
 45.3076  7151.4  83.5738
 45.3496  7179.33  84.0506
 45.3916  7221.66  84.5656
 45.4336  7319  84.9733
 45.4756  7218.44  84.2393
 45.5176  7244.93  84.0261
 45.5596  7376.66  84.9
 45.6016  7280  84.764
 45.6436  7216.26  83.5767
 45.6856  7234.87  84.3229
 45.7276  7272.38  86.3614
 45.7696  7139.04  84.7617
 45.8116  7164.48  84.3564
 45.8536  7119.1  83.975
 45.8956  7194.26  83.7946
 45.9376  7279.3  83.76
 45.9796  7316.31  84.6596
 46.0216  7254.85  84.6334
 46.0636  7284.68  83.9436
 46.1056  7219.92  83.5753
 46.1476  7342.99  84.8719
 46.1896  7257.01  84.5191
 46.2316  7165.95  83.8623
 46.2736  7280.99  84.7355
 46.3156  7271.92  84.4358
 46.3576  7212.14  84.2851
 46.3996  7206.5  84.3958
 46.4416  7190.09  83.8699
 46.4836  7026.72  83.2818
 46.5256  7258.02  84.577
 46.5676  7295.07  84.9144
 46.6096  7314.71  84.9594
 46.6516  7320.07  84.0427
 46.6936  7327.97  84.5808
 46.7356  7287.04  84.4239
 46.7776  7153.97  84.4975
 46.8196  7169.89  84.3409
 46.8616  7035.66  83.3456
 46.9036  7072.12  83.2253
 46.9456  7096.68  83.014
 46.9876  7134.21  83.3169
 47.0296  7128.62  83.9616
 47.0716  7021.56  83.1592
 47.1136  7153.89  83.6206
 47.1556  7131.8  83.3566
 47.1976  7138.78  83.5531
 47.2396  7060.85  83.4188
 47.2816  7114.96  83.4416
 47.3236  7116.51  83.8167
 47.3656  7104.18  83.6782
 47.4076  7143.17  83.6289
 47.4496  7107.33  83.5876
 47.4916  7126.58  83.8845
 47.5336  7141.74  83.7979
 47.5756  7219.72  84.3309
 47.6176  7143.08  83.8181
 47.6596  6994.41  82.6629
 47.7016  7313.06  84.34
 47.7436  7143.74  83.7059
 47.7856  7213.6  84.1203
 47.8276  7139.54  83.744
 47.8696  7093.58  83.5529
 47.9116  7216.44  83.9904
 47.9536  7088.89  83.1862
 47.9956  7070.13  83.7826
 48.0376  7118.08  83.8449
 48.0796  7115.5  83.9506
 48.1216  7103.65  83.7085
 48.1636  7313.71  84.4898
 48.2056  7189.03  84.0409
 48.2476  7147.1  84.1027
 48.2896  7191.52  84.2711
 48.3316  7228.49  84.4277
 48.3736  7117.79  83.8
 48.4156  7088.95  83.4901
 48.4576  7142.17  84.0944
 48.4996  7172.86  83.7304
 48.5416  7173.98  84.0628
 48.5836  7120.06  83.424
 48.6256  7200.73  84.1055
 48.6676  7036.32  83.6439
 48.7096  7139.73  83.5219
 48.7516  7077.14  83.3086
 48.7936  7004.23  82.9455
 48.8356  7042.65  83.2193
 48.8776  7258.91  84.9834
 48.9196  7188.39  84.0176
 48.9616  7076.61  83.7369
 49.0036  7116.19  84.3237
 49.0456  7083.91  84.0957
 49.0876  7046.64  83.5336
 49.1296  7090.94  83.8487
 49.1716  6914.31  82.6752
 49.2136  7074.01  83.546
 49.2556  7052.73  83.4565
 49.2976  7086.8  83.7145
 49.3396  7039.65  83.5021
 49.3816  7163.21  83.6685
 49.4236  6992.81  83.0712
 49.4656  6924.24  82.6938
 49.5076  7014.87  82.9813
 49.5496  6993.3  82.7926
 49.5916  7121.14  83.5866
 49.6336  7029  83.2482
 49.6756  7048  83.5945
 49.7176  6992.38  83.2057
 49.7596  7114.8  83.8739
 49.8016  7154.32  83.8511
 49.8436  7077.59  83.6999
 49.8856  7042.52  83.4897
 49.9276  6991.85  83.2922
 49.9696  7011.73  83.3817
 50.0116  7062  83.8235
 50.0536  6997.98  83.3775
 50.0956  6911.21  82.9384
 50.1376  7026.92  83.3241
 50.1796  7025.84  83.5938
 50.2216  6928.95  83.0008
 50.2636  6916.42  82.5522
 50.3056  6980.79  83.1138
 50.3476  6956.89  82.9908
 50.3896  6851.78  82.3357
 50.4316  7048.68  83.3449
 50.4736  6906.01  82.7143
 50.5156  6921.67  82.7863
 50.5576  7036.01  83.2394
 50.5996  7024.1  83.4451
 50.6416  6934.65  82.8412
 50.6836  6992.4  83.2484
 50.7256  7036.56  83.4374
 50.7676  7133.63  84.2956
 50.8096  6928.26  82.6363
 50.8516  6878.76  82.7649
 50.8936  6880.72  82.5565
 50.9356  7012.2  83.4483
 50.9776  6919.81  83.0548
 51.0196  6708.06  81.8998
 51.0616  6819.47  81.9119
 51.1036  6799.76  82.1448
 51.1456  6910.24  82.7262
 51.1876  6789.15  81.33
 51.2296  6804.33  82.0546
 51.2716  6717.19  81.2376
 51.3136  6786.44  82.1196
 51.3556  6751.27  81.5238
 51.3976  6792.19  81.9284
 51.4396  6596.55  81.0448
 51.4816  6786.26  82.0564
 51.5236  6799.88  82.2246
 51.5656  6822.12  81.956
 51.6076  6764.99  81.6991
 51.6496  6803.94  82.1154
 51.6916  6718.98  81.9665
 51.7336  6691.31  81.8797
 51.7756  6777.49  82.104
 51.8176  6674.41  81.5719
 51.8596  6629.47  81.3244
 51.9016  6910.53  82.6351
 51.9436  6699.21  82.8278
 51.9856  6765.45  83.6569
 52.0276  6679.48  81.6171
 52.0696  6919.06  83.1422
 52.1116  6756.47  82.2744
 52.1536  6822.01  82.5144
 52.1956  6814.32  81.9792
 52.2376  6877.5  82.5287
 52.2796  6833.69  82.0816
 52.3216  6718.5  82.076
 52.3636  6784.83  82.037
 52.4056  6779.65  81.8829
 52.4476  6763.93  82.1497
 52.4896  6681.19  81.6888
 52.5316  6744.48  82.1298
 52.5736  6762.58  81.9553
 52.6156  6769.95  82.4014
 52.6576  6655.68  81.1362
 52.6996  6629.74  81.964
 52.7416  6678.4  82.1117
 52.7836  6737.85  82.3722
 52.8256  6847.03  82.2418
 52.8676  6520.43  80.8222
 52.9096  6684.34  81.909
 52.9516  6665.85  82.1851
 52.9936  6676.16  82.6217
 53.0356  6711.71  81.8421
 53.0776  6844.69  82.9517
 53.1196  6728.01  82.3348
 53.1616  6741.56  82.4748
 53.2036  6699.9  82.1832
 53.2456  6624.92  81.8246
 53.2876  6666.17  81.7607
 53.3296  6697.28  82.2845
 53.3716  6882.43  83.1615
 53.4136  6744.99  82.4798
 53.4556  6681.61  82.1204
 53.4976  6644.06  81.7286
 53.5396  6644.59  82.1328
 53.5816  6641.68  81.751
 53.6236  6648.14  82.1443
 53.6656  6727.6  82.23
 53.7076  6586.85  81.3284
 53.7496  6735.59  82.3688
 53.7916  6547.72  81.3491
 53.8336  6675.65  82.0244
 53.8756  6485.82  81.4106
 53.9176  6534.46  81.0566
 53.9596  6373.32  80.7811
 54.0016  6446.61  80.5937
 54.0436  6351.47  80.2119
 54.0856  6473.29  80.4071
 54.1276  6495.73  80.7275
 54.1696  6455.04  80.6522
 54.2116  6508.29  80.742
 54.2536  6452.66  80.2059
 54.2956  6442.44  80.1923
 54.3376  6369.43  80.2167
 54.3796  6328.58  79.8599
 54.4216  6349.78  80.0463
 54.4636  6368.58  80.1304
 54.5056  6425.77  80.2987
 54.5476  6331.12  80.034
 54.5896  6334.13  79.8934
 54.6316  6424.65  80.2947
 54.6736  6299.48  79.5651
 54.7156  6349.73  79.9539
 54.7576  6287.84  79.5421
 54.7996  6400.1  80.4069
 54.8416  6431.81  80.658
 54.8836  6341.31  80.1516
 54.9256  6331.52  79.8781
 54.9676  6187.08  78.8257
 55.0096  6328.94  79.7529
 55.0516  6218.2  79.2249
 55.0936  6301.02  79.4816
 55.1356  6227.32  79.0571
 55.1776  6487.74  80.9341
 55.2196  6314.68  79.6175
 55.2616  6425.24  80.5533
 55.3036  6175.68  79.1214
 55.3456  6182.16  79.3152
 55.3876  6246.55  79.4709
 55.4296  6113.93  78.6152
 55.4716  6238.12  79.4251
 55.5136  6270.65  79.4168
 55.5556  6350.52  79.9539
 55.5976  6139.41  78.6989
 55.6396  6231.41  79.1561
 55.6816  6321.91  79.6697
 55.7236  6179.32  78.9253
 55.7656  6242.79  78.9746
 55.8076  6135.07  78.2718
 55.8496  6401.22  80.3898
 55.8916  6177.3  79.0189
 55.9336  6257.34  79.3905
 55.9756  6192.48  78.8752
 56.0176  6111.05  78.493
 56.0596  6098.96  78.4163
 56.1016  6050.8  78.1611
 56.1436  6103.96  78.713
 56.1856  6030.5  77.9883
 56.2276  6247.86  79.42
 56.2696  6128.16  78.6434
 56.3116  6265.18  79.8983
 56.3536  6153.51  78.8494
 56.3956  6078.43  78.3683
 56.4376  6102  78.5483
 56.4796  6000.33  77.7099
 56.5216  6040.59  78.3464
 56.5636  6019.94  77.7877
 56.6056  6202.13  79.1847
 56.6476  5970.62  77.2991
 56.6896  6224.03  79.4016
 56.7316  6074.2  78.3561
 56.7736  6178.49  79.0223
 56.8156  6062.11  78.2944
 56.8576  5930.1  77.3844
 56.8996  5978.6  77.6084
 56.9416  5965.12  77.6892
 56.9836  6148.84  78.5432
 57.0256  6047.68  78.1931
 57.0676  6137.23  78.869
 57.1096  6017.31  77.8821
 57.1516  5940.25  77.4215
 57.1936  6068.69  78.0507
 57.2356  5954.95  77.6337
 57.2776  5982.66  77.7833
 57.3196  6063.93  78.6476
 57.3616  6044.65  78.024
 57.4036  6024.72  77.9416
 57.4456  6167.71  78.8509
 57.4876  6005.15  77.6886
 57.5296  5945.38  77.521
 57.5716  5874.03  77.1535
 57.6136  5824.99  76.6721
 57.6556  5911.16  77.3555
 57.6976  5975.18  77.6017
 57.7396  5920.66  77.5975
 57.7816  5920.43  77.957
 57.8236  5897.5  77.5904
 57.8656  5925.04  77.4557
 57.9076  5941.11  77.5821
 57.9496  5989.75  78.2412
 57.9916  5961.38  77.5416
 58.0336  5870.5  77.2545
 58.0756  5982.74  77.6019
 58.1176  5904.2  77.1212
 58.1596  5843.37  77.2945
 58.2016  5764.14  76.0327
 58.2436  5741.32  76.2634
 58.2856  5694.7  75.875
 58.3276  5704.01  76.3024
 58.3696  5749.18  76.362
 58.4116  5816  76.6704
 58.4536  5764.07  76.2202
 58.4956  5679.16  75.829
 58.5376  5676.24  75.3931
 58.5796  5642.78  75.5746
 58.6216  5649.35  75.4491
 58.6636  5663.9  75.7429
 58.7056  5686.53  75.7624
 58.7476  5620.72  75.7509
 58.7896  5524.74  74.7627
 58.8316  5709.09  75.9984
 58.8736  5717.74  76.0643
 58.9156  5725.87  76.1633
 58.9576  5736.2  76.4342
 58.9996  5759.77  75.971
 59.0416  5709.47  75.981
 59.0836  5678.97  75.6917
 59.1256  5709.59  76.2831
 59.1676  5699.82  76.8256
 59.2096  5627.15  75.6511
 59.2516  5868.54  76.8438
 59.2936  5658.93  75.7765
 59.3356  5609.47  75.3268
 59.3776  5650.22  75.7633
 59.4196  5676.57  75.8783
 59.4616  5678.78  75.7567
 59.5036  5562.98  75.0144
 59.5456  5654.69  75.3334
 59.5876  5665.68  75.5917
 59.6296  5548.82  74.8744
 59.6716  5699.61  75.9412
 59.7136  5628.21  75.4527
 59.7556  5675.56  75.9017
 59.7976  5642.76  75.4329
 59.8396  5659.07  75.4395
 59.8816  5692.45  76.1903
 59.9236  5595.13  75.194
 59.9656  5495.1  74.7675
 60.0076  5648.24  75.1807
 60.0496  5647.05  75.6591
 60.0916  5852.71  76.4527
 60.1336  5705.88  76.5637
 60.1756  5584.39  76.8828
 60.1996  0.0000000E+00  0.0000000E+00