File: docs/examples/XRD/IS17_D/Data/IS17_D/17_Db_f00025.xye
# /beamlines/bl04/projects/cycle2025-II/20250340211-lsimonelli/DATA/IS17_D/17_Db_f00025.xye : mythproc.py merge -s 0.006 -l 0.5 -f /beamlines/bl04/inhouse/ff/FlatField/ff_20Nov2024rod8mm60s_17keV.raw -b True -c true -o xye /beamlines/bl04/projects/cycle2025-II/20250340211-lsimonelli/DATA/IS17_D/17_Db_00025.dat
# IsMon = [6779412, 6780653, 6783226]  IsPos = [-1.5000, -2.4885, -3.4986]
# Wave = 0.4962  CalPath /beamlines/bl04/projects/cycle2025-II/20250340211-lsimonelli/DATA/Align/Si_Pos1_25keV_f00001.cal
# Date = 2025-09-24_00:39:38 Dt = 4.8000  Bin = 0.0060  <imon> = 6781097 +/- 1588 (Min/Max) 6779412 / 6783226
# icurr 252.6313  mocoIn 1.7237E-05  mocoOut 0.8084  i15 7.09981e+06  imon 6.7811e+06  i7 4.6667  iEMpd_timer 4.8000  iEMpd_1 3.5586E-08  iEMpd_2 7.7858E-08  iEMpd_3 1.7431E-08  iEMpd_4 4.7706E-08  iEMhp_timer 4.8000  iEMhp_1 4.9360E-06  iEMhp_2 -2.4226E-08  iEMhp_3 -2.3730E-08  iEMhp_4 -2.0595E-08
#      9776
 1.5856  43978.9  215.367
 1.6276  50503.1  226.829
 1.6696  55989.2  237.99
 1.7116  64100.4  255.144
 1.7536  71670.9  268.641
 1.7956  76059  277.433
 1.8376  72889.2  272.022
 1.8796  62341.9  249.724
 1.9216  51461.2  227.789
 1.9636  44259.1  210.915
 2.0056  40188.1  199.697
 2.0476  37130.2  194.053
 2.0896  35687  189.129
 2.1316  34794.9  185.853
 2.1736  33082.7  182.66
 2.2156  33577.8  182.545
 2.2576  32460.7  180.127
 2.2996  31290.5  177.498
 2.3416  31539.4  176.777
 2.3836  31089.3  175.623
 2.4256  30501.9  174.523
 2.4676  29545.6  171.521
 2.5096  29322.4  170.928
 2.5516  28869.9  173.484
 2.5936  31884  178.674
 2.6356  27714.8  167.277
 2.6776  27726.2  166.211
 2.7196  26921.3  164.26
 2.7616  27218.3  164.951
 2.8036  26514.9  162.974
 2.8456  26505.9  163.584
 2.8876  26006.2  161.865
 2.9296  25625.7  160.834
 2.9716  25378.7  159.551
 3.0136  25062  158.622
 3.0556  25165.6  159.338
 3.0976  25165.1  158.241
 3.1396  24868.5  158.046
 3.1816  24506.6  156.821
 3.2236  24311.7  156.186
 3.2656  24099.8  154.556
 3.3076  24244.4  156.487
 3.3496  24248.8  155.67
 3.3916  24635.9  156.487
 3.4336  25370.4  159.392
 3.4756  25300.5  159.118
 3.5176  25888.3  160.721
 3.5596  25573.5  162.73
 3.6016  25771.1  160.415
 3.6436  25011.8  159.137
 3.6856  24582.1  156.081
 3.7276  23784.9  154.603
 3.7696  23638.2  154.104
 3.8116  23087.4  152.401
 3.8536  23183.5  152.639
 3.8956  23216.7  152.579
 3.9376  22927.7  151.913
 3.9796  23117.8  152.014
 4.0216  22958.1  150.531
 4.0636  22850.3  151.617
 4.1056  22936.9  151.573
 4.1476  23499.9  153.733
 4.1896  23445.4  153.418
 4.2316  23568.1  153.633
 4.2736  24000.9  154.848
 4.3156  23957.1  154.925
 4.3576  25190.1  158.785
 4.3996  25070  158.465
 4.4416  25760.8  160.41
 4.4836  26116.2  161.69
 4.5256  26741.8  164.228
 4.5676  26643.5  164.172
 4.6096  26949.8  164.139
 4.6516  27429.6  164.921
 4.6936  27668.7  166.467
 4.7356  27839.8  166.808
 4.7776  27647.3  166.054
 4.8196  27555.7  166.439
 4.8616  26881.5  164.008
 4.9036  26902.8  163.674
 4.9456  26742.2  163.84
 4.9876  25954.5  161.309
 5.0296  26295.4  162.203
 5.0716  26153.2  162.372
 5.1136  26233.4  162.488
 5.1556  26559.7  162.95
 5.1976  27522.5  165.876
 5.2396  27183.7  164.539
 5.2816  27133  164.863
 5.3236  27032.5  164.251
 5.3656  26839.2  164.594
 5.4076  26376.3  163.307
 5.4496  26451.2  163.037
 5.4916  26577.7  163.178
 5.5336  26466.7  162.845
 5.5756  26537.4  163.081
 5.6176  26714.8  163.066
 5.6596  26984.6  164.716
 5.7016  27066.4  164.384
 5.7436  27191.1  165.038
 5.7856  26925.4  164.301
 5.8276  26976.6  164.167
 5.8696  27423.9  165.591
 5.9116  27139.6  165.402
 5.9536  27783.3  167.131
 5.9956  27867.8  166.773
 6.0376  27945.6  167.625
 6.0796  28038.9  167.723
 6.1216  27763.7  167.102
 6.1636  28225.4  167.539
 6.2056  28041.5  167.674
 6.2476  28733.7  169.42
 6.2896  28760.7  169.363
 6.3316  28589.7  169.03
 6.3736  28644.9  169.084
 6.4156  28679  169.118
 6.4576  28821.5  169.117
 6.4996  28838.4  169.638
 6.5416  28997.9  170.238
 6.5836  28911.5  170.214
 6.6256  29119.7  170.394
 6.6676  29611.6  171.39
 6.7096  29508.2  171.953
 6.7516  29792.4  172.436
 6.7936  30445.2  173.468
 6.8356  29991.7  172.516
 6.8776  30075.9  173.549
 6.9196  30297.3  174.589
 6.9616  30757.7  175.321
 7.0036  30987.1  175.662
 7.0456  31213  175.606
 7.0876  31255.1  177.317
 7.1296  31139.4  176.213
 7.1716  30983  175.308
 7.2136  30699.6  174.291
 7.2556  30894  174.996
 7.2976  31186.8  176.312
 7.3396  30680.5  175.099
 7.3816  30673.3  175.286
 7.4236  31136.1  175.91
 7.4656  31362.2  176.003
 7.5076  31527.1  176.628
 7.5496  31205.3  176.243
 7.5916  31451.7  176.993
 7.6336  31808.1  177.88
 7.6756  31815.6  177.751
 7.7176  32401.5  179.706
 7.7596  32014.3  179.835
 7.8016  33033.7  184.901
 7.8436  32335.7  179.633
 7.8856  32333.3  179.237
 7.9276  33087.8  181.708
 7.9696  33491  183.121
 8.0116  34062.9  183.606
 8.0536  34225.4  183.931
 8.0956  34329.1  185.376
 8.1376  34663.7  185.752
 8.1796  34780.4  186.593
 8.2216  35616.3  187.583
 8.2636  35857.3  188.464
 8.3056  35617.7  188.58
 8.3476  36049  189.065
 8.3896  36016.3  189.484
 8.4316  36263  189.869
 8.4736  36170.5  189.103
 8.5156  36197.7  189.448
 8.5576  35574.5  188.764
 8.5996  35618.3  187.776
 8.6416  35330.3  188.249
 8.6836  34894.4  186.91
 8.7256  35649.7  188.396
 8.7676  35575.8  191.058
 8.8096  36152.4  189.937
 8.8516  35869.2  188.818
 8.8936  35236.9  187.051
 8.9356  35768.1  188.786
 8.9776  35514.7  188.187
 9.0196  35596.6  188.092
 9.0616  35428.7  187.149
 9.1036  35042.2  187.275
 9.1456  34347  184.746
 9.1876  34953.8  186.328
 9.2296  34572.8  184.749
 9.2716  34202.4  183.798
 9.3136  34196.3  183.778
 9.3556  34481.6  184.514
 9.3976  33542.7  182.496
 9.4396  33511.1  182.311
 9.4816  33632.8  182.514
 9.5236  33324.5  181.574
 9.5656  32932  180.851
 9.6076  32112.9  179.09
 9.6496  32737.1  180.712
 9.6916  32178.4  179.113
 9.7336  32589.5  180.039
 9.7756  32263.6  180.344
 9.8176  32023.1  179.237
 9.8596  32020.2  177.699
 9.9016  31783.8  177.03
 9.9436  31337  175.543
 9.9856  31522.4  176.501
 10.0276  31003.6  176.102
 10.0696  31010.3  175.154
 10.1116  29943.3  172.383
 10.1536  30132.6  172.597
 10.1956  29810.1  171.765
 10.2376  29624.7  170.758
 10.2796  29518.2  170.557
 10.3216  29152.6  169.628
 10.3636  29177.5  169.88
 10.4056  28759.4  169.056
 10.4476  29177.1  169.889
 10.4896  29336  169.799
 10.5316  28998.4  169.214
 10.5736  28336.8  168.009
 10.6156  28478.9  168.189
 10.6576  28394.8  166.517
 10.6996  27872.1  165.672
 10.7416  27333.9  164.273
 10.7836  27171.7  164.429
 10.8256  26576.3  163.035
 10.8676  26533  162.461
 10.9096  26507.1  162.414
 10.9516  26113  160.16
 10.9936  26339.3  161.058
 11.0356  26139  161.058
 11.0776  25868.4  159.553
 11.1196  25487.4  159.134
 11.1616  25145.9  157.732
 11.2036  25599.1  159.007
 11.2456  25158.5  158.324
 11.2876  25580.4  159.376
 11.3296  24946  157.301
 11.3716  25255.7  158.003
 11.4136  25492.7  159.582
 11.4556  25473.1  159.178
 11.4976  26021.2  159.885
 11.5396  26219.2  160.665
 11.5816  26029.4  160.506
 11.6236  25241.4  158.507
 11.6656  25274  157.561
 11.7076  24456.2  155.805
 11.7496  24177.6  158.831
 11.7916  24219.5  154.32
 11.8336  23727.1  153.636
 11.8756  23763.5  153.294
 11.9176  23712.8  153.045
 11.9596  23806.5  153.278
 12.0016  23632.6  153.478
 12.0436  23575.6  152.744
 12.0856  23396.9  152.651
 12.1276  23281  152.233
 12.1696  23381.2  151.693
 12.2116  23269.4  151.324
 12.2536  23438.6  152.664
 12.2956  23152.5  151.105
 12.3376  23272.3  151.698
 12.3796  23247  152.093
 12.4216  23316.2  151.524
 12.4636  22900.4  151.087
 12.5056  23142.3  151.155
 12.5476  23348.1  151.347
 12.5896  22815.2  150.241
 12.6316  23077.4  151.255
 12.6736  22927.9  151.089
 12.7156  23039.5  151.444
 12.7576  22889.9  151.204
 12.7996  23223.8  150.958
 12.8416  23001.6  151.273
 12.8836  23361  152.268
 12.9256  23608.8  152.129
 12.9676  23401.6  151.851
 13.0096  23528.2  153.378
 13.0516  23599.2  152.649
 13.0936  23557.6  152.634
 13.1356  24050.9  153.469
 13.1776  23498.8  152.708
 13.2196  23507.5  152.378
 13.2616  23294.8  152.002
 13.3036  23711.8  153.489
 13.3456  23381.7  152.381
 13.3876  23788.1  153.199
 13.4296  23512.9  152.464
 13.4716  23627.4  152.476
 13.5136  23612.3  152.552
 13.5556  23493.2  152.789
 13.5976  23628.5  153.397
 13.6396  23499.5  152.34
 13.6816  23949.8  154.139
 13.7236  24123.6  154.399
 13.7656  25834.5  160.217
 13.8076  26521.6  160.982
 13.8496  25029.5  157.242
 13.8916  23959.9  154.791
 13.9336  23282.2  151.884
 13.9756  23320.4  151.393
 14.0176  22867.9  150.587
 14.0596  23144.5  151.426
 14.1016  22950.4  151.2
 14.1436  23051.2  150.687
 14.1856  22516.5  149.218
 14.2276  22272.1  148.881
 14.2696  22319  148.886
 14.3116  21853.4  147.234
 14.3536  21701.4  146.884
 14.3956  21694.4  146.584
 14.4376  21833.1  146.845
 14.4796  21799.8  146.731
 14.5216  21307.4  145.837
 14.5636  21346.8  145.549
 14.6056  21480.7  145.571
 14.6476  21247  144.031
 14.6896  21065.4  143.95
 14.7316  20745.7  143.879
 14.7736  20515.1  142.239
 14.8156  20466.8  142.086
 14.8576  20244.3  141.174
 14.8996  19989.6  141.463
 14.9416  19559.8  139.94
 14.9836  19591.3  140.036
 15.0256  19094.9  137.186
 15.0676  18987  137.098
 15.1096  18826.1  136.266
 15.1516  18636.4  136.123
 15.1936  18869.4  136.406
 15.2356  18468  135.218
 15.2776  18484.5  134.877
 15.3196  17703.3  132.957
 15.3616  17824.2  133.171
 15.4036  17637.7  132.343
 15.4456  17902.6  132.763
 15.4876  17700.4  131.927
 15.5296  17703  132.222
 15.5716  17535.9  131.203
 15.6136  17371.2  130.908
 15.6556  17431.8  130.391
 15.6976  17304.2  129.991
 15.7396  17099.6  129.801
 15.7816  17118.5  129.402
 15.8236  16767.4  128.733
 15.8656  16915.8  129.107
 15.9076  16729.1  128.221
 15.9496  17495.8  133.925
 15.9916  17050.6  132.608
 16.0336  17257.5  130.3
 16.0756  17173.4  130.293
 16.1176  16752.6  128.601
 16.1596  16349.7  128.358
 16.2016  16393.5  127.321
 16.2436  16410.7  127.769
 16.2856  16371  127.133
 16.3276  16073.4  126.388
 16.3696  16311.7  127.164
 16.4116  16240.6  127.333
 16.4536  16162.5  126.835
 16.4956  16544.5  128.061
 16.5376  16184.4  126.84
 16.5796  16123  125.976
 16.6216  15898.9  125.338
 16.6636  15850.5  125.349
 16.7056  16125.2  126.294
 16.7476  15892.5  125.058
 16.7896  15931.1  125.797
 16.8316  15920.5  125.744
 16.8736  16098.5  126.698
 16.9156  16024.9  126.735
 16.9576  15649.6  126.023
 16.9996  15643  126.446
 17.0416  15761.9  125.352
 17.0836  15792.2  125.24
 17.1256  15586.9  124.432
 17.1676  15700  124.832
 17.2096  15438.1  123.697
 17.2516  15583.7  124.365
 17.2936  15469.5  123.956
 17.3356  15196.8  122.846
 17.3776  15054.6  122.444
 17.4196  15072.9  122.229
 17.4616  15085.1  122.193
 17.5036  14860.1  121.635
 17.5456  14775.9  121.91
 17.5876  14717  120.732
 17.6296  15124.4  122.206
 17.6716  14695.3  121.048
 17.7136  14842.4  121.781
 17.7556  14644  121.256
 17.7976  14386.7  119.781
 17.8396  14312.3  119.12
 17.8816  14315.7  119.693
 17.9236  14434  119.983
 17.9656  14292.7  120.046
 18.0076  14415.2  120.013
 18.0496  14398.4  119.082
 18.0916  14679.3  120.786
 18.1336  14503.1  120.157
 18.1756  14594.4  120.086
 18.2176  14416.7  119.565
 18.2596  14162.6  118.242
 18.3016  14537.2  120.054
 18.3436  14612.6  120.606
 18.3856  14390.1  119.574
 18.4276  14327.8  119.01
 18.4696  13860.9  117.126
 18.5116  14403.3  119.672
 18.5536  14061.7  118.605
 18.5956  13940.5  117.664
 18.6376  13892  117.857
 18.6796  13966.9  117.507
 18.7216  13934  117.913
 18.7636  13895.5  117.687
 18.8056  13730.8  116.904
 18.8476  13542.8  116.421
 18.8896  13710.8  116.786
 18.9316  13577  116.039
 18.9736  13639.7  116.172
 19.0156  13549.2  116.173
 19.0576  13767.6  115.989
 19.0996  13685.9  116.346
 19.1416  13641.5  116.547
 19.1836  13542.9  115.737
 19.2256  13388.7  115.295
 19.2676  13441  115.606
 19.3096  13549.2  116.306
 19.3516  13630.3  116.436
 19.3936  13366.3  115.443
 19.4356  13671.2  116.569
 19.4776  13378.6  115.407
 19.5196  13400  115.358
 19.5616  13356.5  115.418
 19.6036  13364.9  114.83
 19.6456  13500.3  115.659
 19.6876  13457  115.111
 19.7296  13646  116.377
 19.7716  13456.3  115.594
 19.8136  13867  117.682
 19.8556  13811.4  116.937
 19.8976  13822.2  117.032
 19.9396  13889.8  116.919
 19.9816  13976.1  117.529
 20.0236  14131.1  118.374
 20.0656  14018.9  117.896
 20.1076  13975.8  118.193
 20.1496  13550.4  116.368
 20.1916  13499.1  115.636
 20.2336  13383.8  115.105
 20.2756  13274.7  115.06
 20.3176  13057.3  113.873
 20.3596  13001.7  113.618
 20.4016  13099.6  113.84
 20.4436  12871.5  113.406
 20.4856  13119.5  114.28
 20.5276  12718.7  112.974
 20.5696  12900.8  113.339
 20.6116  12880.1  113.421
 20.6536  12590.7  111.711
 20.6956  12751.3  112.501
 20.7376  12677.9  112.384
 20.7796  12650.6  111.959
 20.8216  12872.2  112.651
 20.8636  12901.1  113.156
 20.9056  12821.6  112.733
 20.9476  12889.5  112.893
 20.9896  12780.5  112.273
 21.0316  12664.1  111.667
 21.0736  12671.7  112.212
 21.1156  12626.7  112.169
 21.1576  12751.5  112.765
 21.1996  12679.8  112.424
 21.2416  12755.1  112.596
 21.2836  12583.6  111.799
 21.3256  12660  112.226
 21.3676  12553.4  111.295
 21.4096  12456.1  111.221
 21.4516  12435.8  110.938
 21.4936  12267.8  110.457
 21.5356  12511.2  111.498
 21.5776  12487.7  111.234
 21.6196  12360.4  110.7
 21.6616  12344.9  110.717
 21.7036  12352.9  110.521
 21.7456  12396.8  110.782
 21.7876  12393.7  110.549
 21.8296  12331.3  110.119
 21.8716  12348.5  110.421
 21.9136  12426.9  110.968
 21.9556  12117.8  109.267
 21.9976  12210.8  109.713
 22.0396  12143.5  109.658
 22.0816  12184.4  110.356
 22.1236  12399.5  110.788
 22.1656  12111.8  109.691
 22.2076  12063.4  108.889
 22.2496  11855.4  107.972
 22.2916  11933.6  108.218
 22.3336  12047.5  109.419
 22.3756  11842.8  108.234
 22.4176  11992.3  108.773
 22.4596  11691.4  107.963
 22.5016  11986.1  108.836
 22.5436  12008.7  108.81
 22.5856  12370.7  110.685
 22.6276  12350.3  110.717
 22.6696  11974  109.378
 22.7116  12121.8  109.57
 22.7536  11960.4  108.812
 22.7956  11997.5  108.329
 22.8376  11833.2  108.088
 22.8796  11878  108.102
 22.9216  11886.7  108.667
 22.9636  11981  108.275
 23.0056  11852.4  107.82
 23.0476  12040.7  109.236
 23.0896  12180.1  109.254
 23.1316  12038.4  109.044
 23.1736  12168.1  112.526
 23.2156  12505.3  111.396
 23.2576  12573.5  111.903
 23.2996  12182.9  109.927
 23.3416  12464.7  111.727
 23.3836  12283.6  110.114
 23.4256  12619.3  111.761
 23.4676  12315.8  110.102
 23.5096  12093.2  109.747
 23.5516  12310.9  110.042
 23.5936  12164.6  110.281
 23.6356  12462  111.283
 23.6776  12148.1  110.402
 23.7196  12224.6  110.23
 23.7616  12310.2  110.311
 23.8036  12401.9  110.782
 23.8456  12083.2  108.899
 23.8876  12209.5  109.834
 23.9296  11986  109.301
 23.9716  12174.6  109.364
 24.0136  12128.3  110.05
 24.0556  11940.9  108.914
 24.0976  11949.9  108.778
 24.1396  11757.1  110.472
 24.1816  11994.8  110.342
 24.2236  11781.1  108.653
 24.2656  11861.3  108.513
 24.3076  11755.7  108.299
 24.3496  11756.7  108.18
 24.3916  11708.4  108.012
 24.4336  11753.1  108.41
 24.4756  11792.4  108.484
 24.5176  11725.9  107.81
 24.5596  11740.2  108.204
 24.6016  11414.9  106.782
 24.6436  11546.5  106.909
 24.6856  11468.7  106.295
 24.7276  11288.8  105.777
 24.7696  11387  106.345
 24.8116  11222.7  105.752
 24.8536  11131.9  105.322
 24.8956  11323  105.962
 24.9376  11190.7  105.51
 24.9796  11079  105.095
 25.0216  11024.1  104.951
 25.0636  11152.1  105.216
 25.1056  10987.5  104.852
 25.1476  10977  106.66
 25.1896  10914.7  104.905
 25.2316  10921.1  104.107
 25.2736  10949.7  104.014
 25.3156  10955.1  104.11
 25.3576  10838.2  103.98
 25.3996  10862.6  104.088
 25.4416  10805.6  103.786
 25.4836  10630.4  103.452
 25.5256  10719.8  103.26
 25.5676  10711.9  102.956
 25.6096  10619.3  103.079
 25.6516  10731.8  103.134
 25.6936  10854  104.032
 25.7356  10635.1  103.106
 25.7776  10752  103.346
 25.8196  10455.1  102.074
 25.8616  10559.8  102.515
 25.9036  10700.7  102.652
 25.9456  10551.1  102.532
 25.9876  10624.9  102.809
 26.0296  10713.1  102.985
 26.0716  10608.7  102.816
 26.1136  10692.6  103.144
 26.1556  10581.2  101.921
 26.1976  10425.7  102.169
 26.2396  10527.2  102.071
 26.2816  10506.2  102.326
 26.3236  10470.1  102.219
 26.3656  10704.7  103.17
 26.4076  10412.1  101.945
 26.4496  10678.5  102.844
 26.4916  10800.5  103.32
 26.5336  11123.4  105.202
 26.5756  11097.5  104.958
 26.6176  10688.9  103.024
 26.6596  10527.6  102.55
 26.7016  10314.6  101.314
 26.7436  10565.9  102.629
 26.7856  10252.1  101.08
 26.8276  10237  100.974
 26.8696  10376.7  101.531
 26.9116  10154.8  100.379
 26.9536  10307.4  101.179
 26.9956  10145.7  100.413
 27.0376  10186.2  100.839
 27.0796  10218.4  100.76
 27.1216  10333.4  101.344
 27.1636  9982.36  99.7779
 27.2056  10157.2  100.528
 27.2476  9945.28  99.4787
 27.2896  9967.62  99.6327
 27.3316  10001.5  99.5948
 27.3736  10059.9  100.144
 27.4156  10117.6  100.264
 27.4576  10083.8  100.313
 27.4996  10086.8  99.9485
 27.5416  9956.74  99.6139
 27.5836  10031.4  99.8202
 27.6256  9961.06  99.6513
 27.6676  9935.34  99.5044
 27.7096  10060  100.013
 27.7516  9930.51  99.5111
 27.7936  10205.2  101.018
 27.8356  10195  100.555
 27.8776  10194.1  100.641
 27.9196  9922.28  99.1582
 27.9616  9897.8  99.2311
 28.0036  9904.02  99.2182
 28.0456  9769.23  98.6786
 28.0876  9693.54  98.3784
 28.1296  9670.53  98.104
 28.1716  9922.16  99.3914
 28.2136  9791.73  98.7025
 28.2556  9815.86  98.9291
 28.2976  9746.22  98.5761
 28.3396  9717.53  98.2308
 28.3816  9801.37  98.6197
 28.4236  9714.06  98.3322
 28.4656  9535.22  97.4708
 28.5076  9594.65  97.4179
 28.5496  9736.8  98.3868
 28.5916  9645.64  97.7302
 28.6336  9564.72  97.6677
 28.6756  9640.38  97.2632
 28.7176  9602.27  97.6183
 28.7596  9480.27  96.8834
 28.8016  9411.36  96.6503
 28.8436  9487.17  97.2006
 28.8856  9436.49  96.7985
 28.9276  9530.36  97.5154
 28.9696  9456.31  96.7994
 29.0116  9354.38  96.4455
 29.0536  9288.48  96.3203
 29.0956  9483.52  97.0313
 29.1376  9424.35  96.7037
 29.1796  9377.86  96.5158
 29.2216  9459.22  96.7712
 29.2636  9499.61  96.9754
 29.3056  9406.1  96.3594
 29.3476  9366.61  96.6707
 29.3896  9337.82  96.6351
 29.4316  9190.31  95.2132
 29.4736  9165.32  95.1434
 29.5156  9341.79  95.9792
 29.5576  9237.08  96.1679
 29.5996  9083.89  94.6453
 29.6416  9144.59  95.0801
 29.6836  9095.05  94.7484
 29.7256  9171.99  95.7007
 29.7676  9087.31  94.9233
 29.8096  9099.92  94.9386
 29.8516  8986.64  94.6655
 29.8936  9199.69  95.8755
 29.9356  9130.32  95.2738
 29.9776  9074.65  95.1315
 30.0196  9115.02  94.7461
 30.0616  8964.38  94.3227
 30.1036  9148.08  95.1158
 30.1456  9014.72  94.6624
 30.1876  9129.82  95.2271
 30.2296  8924.66  94.0952
 30.2716  9076.39  94.5411
 30.3136  9015.34  94.801
 30.3556  9314.31  96.6257
 30.3976  9185.86  97.4109
 30.4396  9542.03  96.6628
 30.4816  9460.29  95.8495
 30.5236  9322.43  95.1497
 30.5656  9205.13  95.1981
 30.6076  9138.02  94.6083
 30.6496  9150.15  94.7426
 30.6916  9005.61  94.0653
 30.7336  9225.57  95.3589
 30.7756  9049.63  94.7422
 30.8176  9213.11  95.3085
 30.8596  9179.13  94.8618
 30.9016  9268.8  95.2388
 30.9436  9180.71  94.9867
 30.9856  9239.52  95.4217
 31.0276  9079.45  94.222
 31.0696  9136.21  94.9377
 31.1116  8981.08  94.2294
 31.1536  8998.4  94.1981
 31.1956  9205.19  95.3663
 31.2376  8767.6  93.0887
 31.2796  9121.99  94.4907
 31.3216  9095.89  94.2897
 31.3636  9107.53  95.0482
 31.4056  9078.01  96.1872
 31.4476  9181.42  94.6608
 31.4896  9112.97  94.8001
 31.5316  9071.34  94.0341
 31.5736  9253.38  94.7689
 31.6156  9094.26  93.9531
 31.6576  9241.27  94.7784
 31.6996  9079.59  93.6334
 31.7416  9069.3  94.5168
 31.7836  9029.23  93.4642
 31.8256  9066.67  93.9841
 31.8676  9113.9  94.1552
 31.9096  8909.74  93.3097
 31.9516  8915.88  93.6547
 31.9936  9030.35  94.0759
 32.0356  9120.53  94.5831
 32.0776  9030.72  94.0164
 32.1196  9197.69  94.9078
 32.1616  8982.93  93.3344
 32.2036  9058.51  94.23
 32.2456  8912.05  93.8413
 32.2876  8760.48  92.3782
 32.3296  8868.58  93.0764
 32.3716  8683.18  92.2126
 32.4136  8680.32  92.3852
 32.4556  8842.13  92.6974
 32.4976  8854.92  92.6651
 32.5396  8694.21  91.8351
 32.5816  8757.48  92.199
 32.6236  8758.18  92.3583
 32.6656  8790.88  93.0758
 32.7076  8780.04  92.6774
 32.7496  8633.61  91.5802
 32.7916  8758.79  92.1972
 32.8336  8652.14  91.7284
 32.8756  8912.88  92.9075
 32.9176  8549.04  91.3763
 32.9596  8625.72  91.8584
 33.0016  8617.52  91.601
 33.0436  8672.61  92.061
 33.0856  8716.89  92.39
 33.1276  8574.98  91.3698
 33.1696  8584.73  91.2393
 33.2116  8664.3  91.9063
 33.2536  8750.12  92.3539
 33.2956  8712.34  92.2358
 33.3376  8627.87  91.5969
 33.3796  8620.32  91.7091
 33.4216  8503.9  90.6749
 33.4636  8690.29  91.826
 33.5056  8396.36  90.3394
 33.5476  8541.56  91.2552
 33.5896  8567.4  91.1693
 33.6316  8482.03  91.0335
 33.6736  8431.02  91.0091
 33.7156  8396.54  90.8493
 33.7576  8573.66  91.4498
 33.7996  8524.7  90.9533
 33.8416  8287.78  89.8633
 33.8836  8359.66  90.0317
 33.9256  8555.95  91.1383
 33.9676  8642.22  91.4909
 34.0096  8466.44  90.8667
 34.0516  8466.24  90.5088
 34.0936  8338.87  90.0905
 34.1356  8554.12  90.9902
 34.1776  8369.56  90.0029
 34.2196  8340.21  90.0272
 34.2616  8258.76  89.7704
 34.3036  8355.15  90.4796
 34.3456  8263.98  89.737
 34.3876  8465.38  90.8917
 34.4296  8347.49  89.8654
 34.4716  8395.34  90.2693
 34.5136  8357.08  90.2586
 34.5556  8203.38  89.6699
 34.5976  8441.54  90.8065
 34.6396  8377.96  90.1516
 34.6816  8357.89  90.1504
 34.7236  8330.78  89.7846
 34.7656  8364.74  90.1696
 34.8076  8262.38  89.9443
 34.8496  8204.46  89.4754
 34.8916  8269.26  89.6911
 34.9336  8310.29  89.8996
 34.9756  8428.54  90.4873
 35.0176  8355.8  90.5903
 35.0596  8394.79  90.6289
 35.1016  8289.69  89.8181
 35.1436  8532.23  90.8108
 35.1856  8258.28  89.4553
 35.2276  8259.06  89.6321
 35.2696  8269.05  89.876
 35.3116  8209.88  89.6529
 35.3536  8298.3  89.8767
 35.3956  8237.06  89.228
 35.4376  8248.94  89.858
 35.4796  8205.65  89.6548
 35.5216  8244.8  89.7703
 35.5636  7928.68  88.8049
 35.6056  8088.88  88.7435
 35.6476  8266.48  89.6121
 35.6896  8260.61  89.7591
 35.7316  8062.32  88.5715
 35.7736  8195.7  89.4872
 35.8156  8226.41  89.6521
 35.8576  8196.96  89.7388
 35.8996  8249.78  89.9956
 35.9416  8137.73  88.8911
 35.9836  8052.46  88.8728
 36.0256  8354.95  90.4261
 36.0676  8428.07  90.3482
 36.1096  8249.69  89.7622
 36.1516  8339.88  90.1408
 36.1936  8219.42  89.328
 36.2356  8219.62  89.9745
 36.2776  8189.16  89.2834
 36.3196  8159.32  88.8056
 36.3616  8187.56  89.0915
 36.4036  8095.77  88.6572
 36.4456  8147.33  89.1473
 36.4876  8031.18  88.4471
 36.5296  7958.94  88.0799
 36.5716  8113.33  89.708
 36.6136  7980.09  87.7692
 36.6556  7888.22  87.4547
 36.6976  7988.71  88.5016
 36.7396  7845.83  87.5358
 36.7816  7896.39  88.0911
 36.8236  7876.17  87.9091
 36.8656  7777.65  87.422
 36.9076  7768.86  87.3786
 36.9496  7710.86  87.0637
 36.9916  7786.32  86.9794
 37.0336  8078.54  88.8982
 37.0756  7855.9  87.4729
 37.1176  7759.24  87.283
 37.1596  7747.6  87.135
 37.2016  7774.51  87.4602
 37.2436  7800.3  86.9875
 37.2856  7739.43  86.8886
 37.3276  7721.53  86.1631
 37.3696  7704.61  86.9303
 37.4116  7739.02  87.0242
 37.4536  7576.99  85.9834
 37.4956  7621.67  86.2803
 37.5376  7919.81  89.5259
 37.5796  7845.92  89.0365
 37.6216  7677.99  86.3901
 37.6636  7951.78  87.8105
 37.7056  7919.05  87.8171
 37.7476  8050.9  88.0886
 37.7896  7768.29  87.0228
 37.8316  7814.03  87.4398
 37.8736  7825.47  87.0133
 37.9156  7906.3  87.4667
 37.9576  7736.78  86.5843
 37.9996  7698.53  85.95
 38.0416  7777.87  87.1774
 38.0836  7947.9  88.0384
 38.1256  7785.2  87.1055
 38.1676  7705.8  86.7809
 38.2096  7893.01  87.4389
 38.2516  7871.5  87.4495
 38.2936  8016.78  88.1446
 38.3356  7746.56  86.5726
 38.3776  7768.17  86.9332
 38.4196  7767.07  86.7945
 38.4616  7867.51  87.5926
 38.5036  7983.48  88.085
 38.5456  7727.06  87.4737
 38.5876  7677.87  87.2265
 38.6296  7753.37  86.6403
 38.6716  7808.04  86.7501
 38.7136  7731.78  86.2666
 38.7556  7794.16  87.1219
 38.7976  7882.49  87.5308
 38.8396  7801.62  87.5482
 38.8816  7820.41  87.4457
 38.9236  7654.77  86.3158
 38.9656  7698.58  86.4645
 39.0076  7780.96  86.3408
 39.0496  7858.93  87.3292
 39.0916  7880.1  87.0931
 39.1336  7693.43  86.4394
 39.1756  7760.93  86.8882
 39.2176  7634.6  86.7075
 39.2596  7722.05  87.1273
 39.3016  7810.22  87.2173
 39.3436  7690.94  86.9424
 39.3856  7768.71  86.8476
 39.4276  7955.1  88.3867
 39.4696  7788.63  87.0822
 39.5116  7864.72  88.0199
 39.5536  7689.76  87.4354
 39.5956  7708.75  86.6684
 39.6376  7682.98  86.3582
 39.6796  7693.35  86.3315
 39.7216  7725.99  86.6092
 39.7636  7806.66  87.6164
 39.8056  7748.1  87.0749
 39.8476  7628.89  86.6568
 39.8896  7747.41  86.9617
 39.9316  7596.1  86.3537
 39.9736  7730.52  86.6906
 40.0156  7674.06  86.2087
 40.0576  7697.88  86.686
 40.0996  7730.43  86.0656
 40.1416  7726.57  86.829
 40.1836  7679.19  86.4511
 40.2256  7722.89  86.7279
 40.2676  7624.41  86.3276
 40.3096  7694.67  86.6084
 40.3516  7719.71  86.9341
 40.3936  7714.93  86.3953
 40.4356  7672.01  86.3604
 40.4776  7871.41  87.7027
 40.5196  7754.07  87.3437
 40.5616  7832.72  87.4183
 40.6036  7679.26  86.8136
 40.6456  7689.94  86.4851
 40.6876  7825.53  87.2438
 40.7296  7696.15  86.6481
 40.7716  7764.26  87.1439
 40.8136  7675.52  86.6029
 40.8556  7843.19  87.6789
 40.8976  7637.77  86.4413
 40.9396  7717.21  87.237
 40.9816  7788.84  86.9302
 41.0236  7739.22  86.4386
 41.0656  7845.96  87.5703
 41.1076  7761.68  86.868
 41.1496  7805.94  87.0253
 41.1916  7632.58  86.3747
 41.2336  7678.18  86.6262
 41.2756  7669.44  86.1915
 41.3176  7740.97  87.1858
 41.3596  7759.45  87.038
 41.4016  7645.5  86.643
 41.4436  7720.79  86.8562
 41.4856  7715.45  86.9963
 41.5276  7661.99  86.7057
 41.5696  7775.6  86.9686
 41.6116  7738.44  87.1602
 41.6536  7736.35  86.9932
 41.6956  7880.18  87.794
 41.7376  7578.81  86.204
 41.7796  7594.07  86.2223
 41.8216  7764.18  87.354
 41.8636  7774.99  87.3694
 41.9056  7637.96  86.3927
 41.9476  7728.57  87.1266
 41.9896  7735.76  86.8415
 42.0316  7629.69  86.3314
 42.0736  7842.92  87.6594
 42.1156  7694.26  86.6266
 42.1576  7710.28  86.8298
 42.1996  7747.12  87.1674
 42.2416  7674.43  86.3444
 42.2836  7670.77  86.4451
 42.3256  7724.57  86.8573
 42.3676  7829.96  87.2473
 42.4096  7642.59  86.1678
 42.4516  7748.22  86.8364
 42.4936  7541.21  85.743
 42.5356  7610.88  86.2769
 42.5776  7691.78  86.6735
 42.6196  7631.38  86.3002
 42.6616  7544.55  86.065
 42.7036  7554.67  85.5047
 42.7456  7658.54  86.4494
 42.7876  7605.11  86.2345
 42.8296  7767.77  87.0497
 42.8716  7549.98  85.9291
 42.9136  7620.55  86.0829
 42.9556  7558.57  85.901
 42.9976  7660.41  86.4438
 43.0396  7656.43  86.1506
 43.0816  7557.36  85.9718
 43.1236  7563.32  86.0455
 43.1656  7582.25  85.9887
 43.2076  7612.69  86.2727
 43.2496  7533.83  85.6478
 43.2916  7586.53  86.3022
 43.3336  7675.1  86.6417
 43.3756  7629.3  86.1403
 43.4176  7537.41  85.6998
 43.4596  7473.6  85.1933
 43.5016  7493.7  85.7023
 43.5436  7539.87  85.8706
 43.5856  7504.69  85.7004
 43.6276  7535.71  85.769
 43.6696  7575.63  86.1345
 43.7116  7637.02  86.1047
 43.7536  7579.35  86.2725
 43.7956  7388.51  86.354
 43.8376  7416.5  85.0629
 43.8796  7292.03  84.4316
 43.9216  7358.04  84.7293
 43.9636  7430.32  85.2511
 44.0056  7264.57  84.5235
 44.0476  7291.87  84.3154
 44.0896  7208.44  84.1687
 44.1316  7254.85  84.1151
 44.1736  7223.23  83.9177
 44.2156  7379.19  84.6632
 44.2576  7445.56  85.3733
 44.2996  7349.51  84.7956
 44.3416  7435.43  85.0483
 44.3836  7332.8  84.7757
 44.4256  7266.57  84.0499
 44.4676  7195.99  83.7929
 44.5096  7269.26  84.3599
 44.5516  7220.08  84.0394
 44.5936  7237.45  84.0965
 44.6356  7287.95  84.1315
 44.6776  7246.74  84.2039
 44.7196  7191.98  84.1439
 44.7616  7413.9  86.795
 44.8036  7412.02  85.4237
 44.8456  7451.84  85.6536
 44.8876  7402.95  85.2106
 44.9296  7580.74  85.6826
 44.9716  7470.18  85.4795
 45.0136  7341.86  84.6739
 45.0556  7545.09  85.9366
 45.0976  7564.6  86.0692
 45.1396  7309.84  84.3921
 45.1816  7442.68  84.9255
 45.2236  7564.69  85.6951
 45.2656  7330.53  84.8494
 45.3076  7440.29  85.2468
 45.3496  7304.38  84.7877
 45.3916  7394.98  85.5788
 45.4336  7480.43  85.9174
 45.4756  7457.99  85.6331
 45.5176  7447.66  85.2015
 45.5596  7452.83  85.3537
 45.6016  7222.52  84.4359
 45.6436  7333.06  84.267
 45.6856  7294.14  84.6881
 45.7276  7346.95  86.7888
 45.7696  7231.36  85.3048
 45.8116  7306.35  85.185
 45.8536  7317.06  85.1473
 45.8956  7378.26  84.8559
 45.9376  7427.64  84.6085
 45.9796  7377.59  85.0172
 46.0216  7338.34  85.0994
 46.0636  7419.46  84.7196
 46.1056  7425.96  84.7564
 46.1476  7371.48  85.0356
 46.1896  7398.72  85.3407
 46.2316  7287.86  84.5672
 46.2736  7248.9  84.5534
 46.3156  7326.48  84.7508
 46.3576  7327.72  84.9542
 46.3996  7229.24  84.5297
 46.4416  7308.24  84.5527
 46.4836  7237.57  84.5178
 46.5256  7381.63  85.3007
 46.5676  7293.42  84.9069
 46.6096  7371.58  85.2596
 46.6516  7400.08  84.4947
 46.6936  7399.55  84.9898
 46.7356  7379.75  84.9729
 46.7776  7210.27  84.8214
 46.8196  7185.4  84.426
 46.8616  7146.12  83.9996
 46.9036  7110.31  83.4485
 46.9456  7276.71  84.0492
 46.9876  7227.99  83.8591
 47.0296  7263.66  84.7558
 47.0716  7149.67  83.9152
 47.1136  7102.77  83.3202
 47.1556  7247.8  84.0275
 47.1976  7234.98  84.1012
 47.2396  7191.55  84.1859
 47.2816  7144.05  83.6101
 47.3236  7200.46  84.3026
 47.3656  7202.25  84.2299
 47.4076  7339.64  84.7641
 47.4496  7194.77  84.1056
 47.4916  7201.04  84.3181
 47.5336  7194.2  84.0967
 47.5756  7177.59  84.0838
 47.6176  7203.69  84.1749
 47.6596  7206.62  83.9091
 47.7016  7396.53  84.816
 47.7436  7258.44  84.3634
 47.7856  7374.03  85.0396
 47.8276  7218.9  84.2052
 47.8696  7165.62  83.9784
 47.9116  7315.07  84.5655
 47.9536  7298.17  84.4055
 47.9956  7131.04  84.1391
 48.0376  7145.61  83.9963
 48.0796  7265.43  84.815
 48.1216  7162.6  84.0499
 48.1636  7299.5  84.4204
 48.2056  7293.95  84.6542
 48.2476  7271.93  84.8294
 48.2896  7287.42  84.8286
 48.3316  7205.33  84.2963
 48.3736  7226.45  84.44
 48.4156  7176.82  84.0047
 48.4576  7139.25  84.0782
 48.4996  7301.32  84.4809
 48.5416  7296.23  84.7781
 48.5836  7173.79  83.7371
 48.6256  7265.4  84.4843
 48.6676  7097.3  84.0028
 48.7096  7133.21  83.4756
 48.7516  7206.48  84.0663
 48.7936  7062.45  83.2853
 48.8356  7226.85  84.3013
 48.8776  7254.46  84.9474
 48.9196  7331.88  84.8553
 48.9616  7189.45  84.4107
 49.0036  7198.24  84.8108
 49.0456  7095.89  84.1854
 49.0876  7215.44  84.5171
 49.1296  6935.37  82.9285
 49.1716  7035.59  83.3917
 49.2136  7145.39  83.9551
 49.2556  7109.02  83.7897
 49.2976  7169.68  84.2134
 49.3396  7072.51  83.6957
 49.3816  7253.31  84.1741
 49.4236  7128.7  83.8843
 49.4656  7073.41  83.5732
 49.5076  7096.1  83.4607
 49.5496  7137.52  83.6424
 49.5916  7090.4  83.397
 49.6336  7082.87  83.5699
 49.6756  7189.06  84.4264
 49.7176  7144.01  84.1001
 49.7596  7196.71  84.3535
 49.8016  7144.7  83.7888
 49.8436  7077.35  83.6958
 49.8856  7087.85  83.7501
 49.9276  6994.29  83.3034
 49.9696  7054.48  83.6451
 50.0116  6996.16  83.4387
 50.0536  7142.59  84.2458
 50.0956  7123.27  84.2055
 50.1376  7062.91  83.5403
 50.1796  7111.87  84.1064
 50.2216  7109.04  84.0858
 50.2636  6942.56  82.7095
 50.3056  6999.91  83.2222
 50.3476  7020.35  83.3678
 50.3896  6946  82.9017
 50.4316  7066.98  83.4495
 50.4736  6997.76  83.2596
 50.5156  7046.36  83.5335
 50.5576  7151.75  83.9091
 50.5996  7059.17  83.6588
 50.6416  7035.09  83.4405
 50.6836  7091.12  83.837
 50.7256  7047.82  83.4909
 50.7676  7230.08  84.8636
 50.8096  7079.33  83.5392
 50.8516  7002.11  83.5023
 50.8936  7015.58  83.3636
 50.9356  7075.95  83.8267
 50.9776  7065.79  83.9272
 51.0196  6826.57  82.6134
 51.0616  6910.62  82.4496
 51.1036  6884.12  82.6465
 51.1456  7021.81  83.3739
 51.1876  6927.92  82.1563
 51.2296  6892.75  82.5786
 51.2716  6842.86  81.991
 51.3136  6866.4  82.5956
 51.3556  6909.13  82.4689
 51.3976  6873.78  82.4124
 51.4396  6689.07  81.6054
 51.4816  6750.66  81.8342
 51.5236  6894.7  82.7871
 51.5656  6787.77  81.7323
 51.6076  6783.42  81.8016
 51.6496  6788.75  82.0198
 51.6916  6868.21  82.86
 51.7336  6788.35  82.4687
 51.7756  6754.46  81.9503
 51.8176  6696.41  81.7016
 51.8596  6789.09  82.2941
 51.9016  6929.36  82.7417
 51.9436  6868.81  83.8843
 51.9856  6892.84  84.4376
 52.0276  6916.55  83.0701
 52.0696  6950.77  83.3455
 52.1116  6802.53  82.5622
 52.1536  6937.65  83.2159
 52.1956  6791.41  81.8469
 52.2376  7000.28  83.2698
 52.2796  7007.91  83.1335
 52.3216  6765.25  82.3654
 52.3636  6805.97  82.1628
 52.4056  6763.61  81.7817
 52.4476  6669.84  81.5739
 52.4896  6627.69  81.363
 52.5316  6973.19  83.5256
 52.5736  6745.06  81.8569
 52.6156  7039.11  84.0309
 52.6576  6817.29  82.1269
 52.6996  6642.6  82.0497
 52.7416  6743.85  82.5129
 52.7836  6879.76  83.2405
 52.8256  6790.6  81.9097
 52.8676  6695.07  81.9077
 52.9096  6843.52  82.8681
 52.9516  6763.18  82.783
 52.9936  6756.94  83.1072
 53.0356  6807.07  82.4245
 53.0776  6936.09  83.51
 53.1196  6791.15  82.7248
 53.1616  6804.26  82.8617
 53.2036  6792.47  82.7488
 53.2456  6751.72  82.6015
 53.2876  6739.35  82.2151
 53.3296  6706.19  82.3389
 53.3716  6894.9  83.2415
 53.4136  6776.8  82.6787
 53.4556  6690.94  82.1805
 53.4976  6739.25  82.3181
 53.5396  6756.47  82.8112
 53.5816  6785.78  82.632
 53.6236  6673.68  82.2982
 53.6656  6754.36  82.38
 53.7076  6883.01  83.1385
 53.7496  6928.12  83.5381
 53.7916  6899.29  83.5072
 53.8336  6740.66  82.4308
 53.8756  6583.75  82.002
 53.9176  6668.69  81.8785
 53.9596  6498.8  81.5877
 54.0016  6555.52  81.2735
 54.0436  6442.96  80.778
 54.0856  6569.95  80.9979
 54.1276  6505.57  80.8044
 54.1696  6560.7  81.2922
 54.2116  6611.41  81.3812
 54.2536  6482.37  80.3879
 54.2956  6540.75  80.7958
 54.3376  6480.09  80.9117
 54.3796  6490.18  80.8619
 54.4216  6503.53  81.0198
 54.4636  6384.57  80.2347
 54.5056  6520.6  80.8779
 54.5476  6501.9  81.0885
 54.5896  6428.68  80.4844
 54.6316  6474.51  80.6279
 54.6736  6395.07  80.1623
 54.7156  6413.47  80.3567
 54.7576  6359.7  79.987
 54.7996  6601.27  81.6768
 54.8416  6370.78  80.2667
 54.8836  6512.19  81.2586
 54.9256  6393.03  80.2563
 54.9676  6297.94  79.5216
 55.0096  6397.46  80.1937
 55.0516  6242.93  79.4024
 55.0936  6390.3  80.0468
 55.1356  6286.69  79.4287
 55.1776  6451.44  80.6924
 55.2196  6418.01  80.2799
 55.2616  6494.14  80.9812
 55.3036  6262.45  79.6902
 55.3456  6217.66  79.5516
 55.3876  6366.21  80.2285
 55.4296  6273.19  79.6347
 55.4716  6344.63  80.1187
 55.5136  6316.35  79.6979
 55.5556  6492.54  80.8439
 55.5976  6364.84  80.1372
 55.6396  6385.44  80.1211
 55.6816  6246  79.1906
 55.7236  6283.29  79.5971
 55.7656  6308.63  79.362
 55.8076  6228.75  78.8739
 55.8496  6351.35  80.068
 55.8916  6223.62  79.3194
 55.9336  6347.08  79.9643
 55.9756  6171.71  78.7311
 56.0176  6149.73  78.7384
 56.0596  6285.87  79.5929
 56.1016  6117.12  78.5789
 56.1436  6195.24  79.2805
 56.1856  6127.64  78.6125
 56.2276  6286.58  79.6633
 56.2696  6134.98  78.695
 56.3116  6257.95  79.8378
 56.3536  6234.01  79.3618
 56.3956  6229.91  79.31
 56.4376  6249.99  79.4983
 56.4796  6085.3  78.2668
 56.5216  6145.97  79.0196
 56.5636  6089.45  78.2226
 56.6056  6280.61  79.6869
 56.6476  6138.35  78.3673
 56.6896  6285.38  79.8005
 56.7316  6092  78.4718
 56.7736  6175.15  79.0125
 56.8156  6175  79.0216
 56.8576  6016.98  77.9387
 56.8996  6096.87  78.3621
 56.9416  5956.61  77.617
 56.9836  6241.43  79.1233
 57.0256  6037.98  78.1177
 57.0676  6277  79.7818
 57.1096  6178.52  78.9438
 57.1516  6011.12  77.8783
 57.1936  6071.46  78.0809
 57.2356  5945.5  77.572
 57.2776  6086.31  78.4626
 57.3196  6144.39  79.1526
 57.3616  6103.66  78.4006
 57.4036  6090.8  78.3916
 57.4456  6257.04  79.418
 57.4876  6116.73  78.4062
 57.5296  5993.41  77.8196
 57.5716  6079.52  78.4992
 57.6136  5901.18  77.169
 57.6556  6071.91  78.398
 57.6976  6052.74  78.1194
 57.7396  5956.88  77.8309
 57.7816  5928.6  78.013
 57.8236  6021.77  78.4155
 57.8656  6081.35  78.4765
 57.9076  5996.84  77.9276
 57.9496  5996.2  78.2905
 57.9916  6050.69  78.1194
 58.0336  5935.11  77.6847
 58.0756  6073.76  78.1848
 58.1176  6052.01  78.0857
 58.1596  5883.27  77.5637
 58.2016  5806.06  76.3057
 58.2436  5853.86  76.9965
 58.2856  5715.17  76.009
 58.3276  5760.8  76.6746
 58.3696  5769.02  76.4887
 58.4116  5787.02  76.4756
 58.4536  5805  76.4844
 58.4956  5808.17  76.6795
 58.5376  5836.23  76.4442
 58.5796  5724.48  76.1193
 58.6216  5810.25  76.5111
 58.6636  5752.99  76.3317
 58.7056  5788.18  76.4303
 58.7476  5743.64  76.5705
 58.7896  5727.77  76.1187
 58.8316  5827.52  76.7754
 58.8736  5821.58  76.7455
 58.9156  5729.99  76.1828
 58.9576  5772.2  76.6683
 58.9996  5872.68  76.7036
 59.0416  5826.27  76.753
 59.0836  5783.49  76.3869
 59.1256  5705.69  76.2583
 59.1676  5635.06  76.3815
 59.2096  5814  76.8979
 59.2516  5873.67  76.8784
 59.2936  5808.79  76.7743
 59.3356  5660.01  75.6664
 59.3776  5765.46  76.5331
 59.4196  5698.33  76.0242
 59.4616  5673.99  75.7258
 59.5036  5583.31  75.152
 59.5456  5731.52  75.8445
 59.5876  5811.49  76.5593
 59.6296  5668.66  75.6796
 59.6716  5650.38  75.6136
 59.7136  5738.03  76.1863
 59.7556  5929.72  77.5836
 59.7976  5657.78  75.5342
 59.8396  5650.28  75.3819
 59.8816  5746.57  76.5509
 59.9236  5828.66  76.7483
 59.9656  5751.66  76.4935
 60.0076  5731.28  75.7324
 60.0496  5700.77  76.0202
 60.0916  5749.8  75.7786
 60.1336  5627.24  76.0353
 60.1756  5697.83  77.6609
 60.1996  0.0000000E+00  0.0000000E+00