File: docs/examples/XRD/IS17_D/Data/IS17_D/17_Db_f00097.xye
# /beamlines/bl04/projects/cycle2025-II/20250340211-lsimonelli/DATA/IS17_D/17_Db_f00097.xye : mythproc.py merge -s 0.006 -l 0.5 -f /beamlines/bl04/inhouse/ff/FlatField/ff_20Nov2024rod8mm60s_17keV.raw -b True -c true -o xye /beamlines/bl04/projects/cycle2025-II/20250340211-lsimonelli/DATA/IS17_D/17_Db_00097.dat
# IsMon = [6773202, 6769765, 6771990]  IsPos = [-1.4999, -2.4884, -3.4988]
# Wave = 0.4962  CalPath /beamlines/bl04/projects/cycle2025-II/20250340211-lsimonelli/DATA/Align/Si_Pos1_25keV_f00001.cal
# Date = 2025-09-24_20:44:02 Dt = 4.8000  Bin = 0.0060  <imon> = 6771652 +/- 1423 (Min/Max) 6769765 / 6773202
# icurr 251.5292  mocoIn 1.7161E-05  mocoOut 0.8051  i15 7.09512e+06  imon 6.77165e+06  i7 4.0000  iEMpd_timer 4.8000  iEMpd_1 3.4248E-08  iEMpd_2 7.8294E-08  iEMpd_3 1.7243E-08  iEMpd_4 4.7783E-08  iEMhp_timer 4.8000  iEMhp_1 4.9142E-06  iEMhp_2 -2.5583E-08  iEMhp_3 -2.3993E-08  iEMhp_4 -2.1178E-08
#      9776
 1.5856  44937.4  217.65
 1.6276  51423.3  228.832
 1.6696  56855.2  239.766
 1.7116  64465.7  255.809
 1.7536  72094.6  269.369
 1.7956  76286.8  277.783
 1.8376  73012  272.186
 1.8796  62589.9  250.149
 1.9216  52085.2  229.111
 1.9636  44661.3  211.287
 2.0056  41153.5  202.033
 2.0476  38215.8  196.823
 2.0896  36899.1  192.268
 2.1316  35825  188.538
 2.1736  33988.1  185.098
 2.2156  35069.3  186.51
 2.2576  33456.3  182.824
 2.2996  32312.5  180.331
 2.3416  32658.9  179.846
 2.3836  32210.5  178.719
 2.4256  31144.3  176.309
 2.4676  30451.5  174.089
 2.5096  30135.4  173.24
 2.5516  28886  173.498
 2.5936  29165.6  170.866
 2.6356  28356.2  169.193
 2.6776  28123.1  167.38
 2.7196  27894.5  167.196
 2.7616  27873.4  166.915
 2.8036  27373  165.58
 2.8456  27576.2  166.846
 2.8876  26764.6  164.234
 2.9296  26746.8  164.302
 2.9716  26095.4  161.781
 3.0136  25881.4  161.184
 3.0556  25976.5  161.877
 3.0976  26132  161.238
 3.1396  25781.8  160.908
 3.1816  25475.8  159.882
 3.2236  25203.1  159.006
 3.2656  25030.5  157.514
 3.3076  24711.9  157.976
 3.3496  24908.9  157.526
 3.3916  25388.6  158.844
 3.4336  25612  160.15
 3.4756  26220.4  161.964
 3.5176  26686.4  163.165
 3.5596  26454.3  164.917
 3.6016  26545.7  162.803
 3.6436  25748.7  161.474
 3.6856  25426.4  158.739
 3.7276  24475.5  156.833
 3.7696  24101.7  155.819
 3.8116  24034  155.49
 3.8536  24035.3  155.422
 3.8956  23847.6  154.632
 3.9376  23660.6  154.299
 3.9796  23707.1  153.932
 4.0216  23649.6  152.782
 4.0636  23702.1  154.429
 4.1056  23629.3  153.85
 4.1476  24033.8  155.466
 4.1896  23882  154.834
 4.2316  24152.2  155.529
 4.2736  24522.5  156.515
 4.3156  24693.6  157.296
 4.3576  25548.7  159.895
 4.3996  25736.8  160.766
 4.4416  26318.1  162.153
 4.4836  26788.4  163.761
 4.5256  27372.3  166.141
 4.5676  27037.3  165.385
 4.6096  27672.9  165.95
 4.6516  28058.2  166.802
 4.6936  28156.5  167.932
 4.7356  28293.9  168.165
 4.7776  27940.6  166.946
 4.8196  28212.3  168.397
 4.8616  27509.1  165.785
 4.9036  27536.8  165.586
 4.9456  27074.7  164.856
 4.9876  26454.3  162.855
 5.0296  26838.9  163.871
 5.0716  26468.7  163.493
 5.1136  26855.2  164.402
 5.1556  26764.5  163.585
 5.1976  27523.8  165.869
 5.2396  27482.4  165.448
 5.2816  27664.8  166.463
 5.3236  27410.7  165.397
 5.3656  26867.8  164.683
 5.4076  26842.7  164.747
 5.4496  26901.7  164.426
 5.4916  27143.3  164.903
 5.5336  26978.3  164.416
 5.5756  27135.6  164.898
 5.6176  27170.8  164.449
 5.6596  27392.7  166.105
 5.7016  27372.8  165.314
 5.7436  27489.2  165.943
 5.7856  27320.2  165.5
 5.8276  27706.2  166.38
 5.8696  27767.8  166.733
 5.9116  27771.6  167.347
 5.9536  28089.9  168.04
 5.9956  28273.2  167.98
 6.0376  28465.6  169.173
 6.0796  28490.2  169.074
 6.1216  28266.6  168.616
 6.1636  28678.7  168.893
 6.2056  28510.8  169.082
 6.2476  28679.2  169.439
 6.2896  29087.7  170.318
 6.3316  29172  170.736
 6.3736  29125.5  170.5
 6.4156  29389.5  171.143
 6.4576  29329.3  170.603
 6.4996  29317.6  171.051
 6.5416  29605.7  172.011
 6.5836  29302.4  171.372
 6.6256  29329.4  171.001
 6.6676  29983.8  172.469
 6.7096  30071.3  173.574
 6.7516  30355.3  174.056
 6.7936  30494  173.85
 6.8356  30316.5  173.447
 6.8776  30656.5  175.224
 6.9196  30717  175.795
 6.9616  31047.8  176.185
 7.0036  31668.7  177.589
 7.0456  31730.6  177.055
 7.0876  31331.3  177.615
 7.1296  31389.7  176.92
 7.1716  31533.5  176.859
 7.2136  31246.4  175.837
 7.2556  31517  176.753
 7.2976  31506.7  177.219
 7.3396  31504.2  177.439
 7.3816  31374  177.282
 7.4236  31792.7  177.752
 7.4656  31952.8  177.658
 7.5076  32102.8  178.23
 7.5496  31755.1  177.797
 7.5916  32063.1  178.706
 7.6336  32419.5  179.58
 7.6756  32410.3  179.399
 7.7176  33109  181.65
 7.7596  32693.5  181.723
 7.8016  33425.9  185.985
 7.8436  32964.2  181.387
 7.8856  33164.8  181.548
 7.9276  33449.8  182.722
 7.9696  33620.3  183.496
 8.0116  34647  184.837
 8.0536  34709.5  185.251
 8.0956  34958.9  187.089
 8.1376  35296.5  187.461
 8.1796  35524.1  188.6
 8.2216  36389.8  189.625
 8.2636  36342.2  189.756
 8.3056  36276.2  190.341
 8.3476  36952.5  191.443
 8.3896  36654.1  190.75
 8.4316  36727.5  191.104
 8.4736  36769.6  190.688
 8.5156  36127.8  189.289
 8.5576  36299.3  190.699
 8.5996  35981.4  188.753
 8.6416  36140.7  190.419
 8.6836  35626  188.883
 8.7256  36292.6  190.11
 8.7676  36256.6  192.889
 8.8096  36494.3  190.821
 8.8516  36455.5  190.288
 8.8936  36010.6  189.082
 8.9356  36463  190.591
 8.9776  35900.8  189.202
 9.0196  36066.1  189.304
 9.0616  35736.3  187.949
 9.1036  35565.3  188.659
 9.1456  35346.5  187.414
 9.1876  35684.1  188.25
 9.2296  35469.6  187.128
 9.2716  35239.8  186.559
 9.3136  34879.2  185.595
 9.3556  35165  186.324
 9.3976  34124.1  184.058
 9.4396  34462.9  184.881
 9.4816  34540.3  184.935
 9.5236  33857.9  183.009
 9.5656  33559.5  182.552
 9.6076  32937.9  181.379
 9.6496  33274.1  182.178
 9.6916  32922.7  181.175
 9.7336  33210.6  181.732
 9.7756  32776.1  181.822
 9.8176  32460.1  180.455
 9.8596  32906.4  180.134
 9.9016  32325.8  178.541
 9.9436  32138.2  177.93
 9.9856  31668.8  176.898
 10.0276  31265.9  176.833
 10.0696  31534.8  176.637
 10.1116  30666.9  174.447
 10.1536  30608.2  174.433
 10.1956  30365  173.353
 10.2376  30244.5  172.515
 10.2796  29812.3  171.391
 10.3216  29630.1  171.154
 10.3636  29532.5  170.9
 10.4056  28839.7  169.292
 10.4476  29175.1  169.87
 10.4896  29314.3  169.728
 10.5316  28575.3  168.297
 10.5736  28526.1  168.559
 10.6156  28374.5  167.856
 10.6576  28117.3  165.681
 10.6996  28218.6  166.687
 10.7416  27549.4  164.913
 10.7836  27165.2  164.421
 10.8256  26911.1  164.064
 10.8676  27119  164.253
 10.9096  26680.7  162.941
 10.9516  26631.3  161.741
 10.9936  26629.1  161.944
 11.0356  26385.3  161.804
 11.0776  26271.9  160.8
 11.1196  25797  160.096
 11.1616  25563.5  159.05
 11.2036  25801.3  159.633
 11.2456  25558  159.583
 11.2876  25847  160.192
 11.3296  25417.7  158.783
 11.3716  25854.4  159.824
 11.4136  25530.7  159.697
 11.4556  25635.4  159.695
 11.4976  26131.9  160.224
 11.5396  26310.3  160.95
 11.5816  26826.6  162.961
 11.6236  26192.5  161.258
 11.6656  26253.5  160.577
 11.7076  25297.1  158.462
 11.7496  24907.3  161.227
 11.7916  24981.7  156.727
 11.8336  24483.2  156.036
 11.8756  24189.1  154.655
 11.9176  24552.6  155.498
 11.9596  24319.2  154.921
 12.0016  24096.8  154.98
 12.0436  24274.7  154.989
 12.0856  23917  154.353
 12.1276  23753  153.77
 12.1696  23742.4  152.859
 12.2116  23794.6  153.03
 12.2536  23726.4  153.618
 12.2956  23406.8  151.935
 12.3376  23937.8  153.85
 12.3796  23647.5  153.398
 12.4216  23474.1  152.03
 12.4636  23176.8  151.996
 12.5056  23493.1  152.3
 12.5476  23549.2  151.995
 12.5896  23478.7  152.409
 12.6316  23581.7  152.884
 12.6736  23228.3  152.231
 12.7156  23513  152.988
 12.7576  23283.5  152.506
 12.7996  23608.4  152.203
 12.8416  23267.8  152.139
 12.8836  23485.4  152.701
 12.9256  23820.8  152.816
 12.9676  23629.2  152.601
 13.0096  24077.9  155.146
 13.0516  23939.2  153.744
 13.0936  24291.5  155.274
 13.1356  24451.1  154.75
 13.1776  23926.6  154.093
 13.2196  24126.4  154.379
 13.2616  23945.3  154.114
 13.3036  24199.3  154.886
 13.3456  23978.8  154.531
 13.3876  24225.2  154.585
 13.4296  24059.2  154.235
 13.4716  24002.4  153.679
 13.5136  24218.2  154.504
 13.5556  24012  154.471
 13.5976  24272.6  155.472
 13.6396  24260.4  154.798
 13.6816  24039.6  154.557
 13.7236  24635.6  156.055
 13.7656  26195  161.357
 13.8076  26754.3  161.724
 13.8496  26442  161.441
 13.8916  24428.9  156.324
 13.9336  23823.8  153.647
 13.9756  23937  153.387
 14.0176  23543.2  152.802
 14.0596  23703.6  153.232
 14.1016  23490.5  152.98
 14.1436  23558.8  152.331
 14.1856  23009.7  150.844
 14.2276  22788.3  150.586
 14.2696  22899.6  150.813
 14.3116  22305.8  148.758
 14.3536  21886.4  147.505
 14.3956  22081.3  147.9
 14.4376  22314.5  148.454
 14.4796  22211.7  148.111
 14.5216  21958.7  148.053
 14.5636  21716.2  146.807
 14.6056  22004.3  147.329
 14.6476  21731.9  145.667
 14.6896  21405.2  145.11
 14.7316  21046.7  144.923
 14.7736  20938.7  143.698
 14.8156  20919.5  143.648
 14.8576  20751.3  142.935
 14.8996  20383.8  142.843
 14.9416  20042.1  141.659
 14.9836  20189.1  142.16
 15.0256  19604  139.018
 15.0676  19425.4  138.692
 15.1096  19404.3  138.359
 15.1516  18999.9  137.46
 15.1936  19178  137.534
 15.2356  18732.3  136.199
 15.2776  18779.6  135.966
 15.3196  18451.2  135.75
 15.3616  18207.1  134.609
 15.4036  18260.2  134.674
 15.4456  18477.3  135.119
 15.4876  18266.8  134.037
 15.5296  18023.1  133.426
 15.5716  17833.5  132.325
 15.6136  17784.4  132.469
 15.6556  17901.8  132.153
 15.6976  17577.8  131.246
 15.7396  17568.5  131.586
 15.7816  17328.9  130.209
 15.8236  17109.5  130.06
 15.8656  17304.3  130.598
 15.9076  17030.2  129.386
 15.9496  17870.6  135.34
 15.9916  17393.2  133.929
 16.0336  17565.9  131.445
 16.0756  17352.2  130.971
 16.1176  17180.8  130.41
 16.1596  16766.3  129.987
 16.2016  16623.8  128.216
 16.2436  16797.3  129.245
 16.2856  16826.4  128.874
 16.3276  16317.3  127.347
 16.3696  16875.5  129.338
 16.4116  16404  127.945
 16.4536  16667.2  128.793
 16.4956  16659.6  128.494
 16.5376  16369.3  127.559
 16.5796  16324.8  126.749
 16.6216  16415.2  127.368
 16.6636  16113.9  126.383
 16.7056  16365.4  127.219
 16.7476  16246  126.294
 16.7896  16232.7  126.978
 16.8316  16327  127.333
 16.8736  16426.6  127.972
 16.9156  16317.6  127.875
 16.9576  15981.9  127.353
 16.9996  16079.2  128.205
 17.0416  16316.4  127.538
 17.0836  16243.5  127.007
 17.1256  16126.5  126.551
 17.1676  16159.2  126.621
 17.2096  15901.9  125.525
 17.2516  15933.2  125.444
 17.2936  15649.4  124.667
 17.3356  15661.4  124.689
 17.3776  15587.1  124.578
 17.4196  15464.4  123.806
 17.4616  15451.4  123.651
 17.5036  15062.5  122.451
 17.5456  15067.8  123.105
 17.5876  15029.2  121.996
 17.6296  15120.7  122.203
 17.6716  15036.9  122.44
 17.7136  15030.2  122.534
 17.7556  14874.7  122.201
 17.7976  14786.5  121.556
 17.8396  14667.6  120.592
 17.8816  14708.8  121.325
 17.9236  14612.5  120.711
 17.9656  14479  120.68
 18.0076  14546.3  120.549
 18.0496  14460.3  119.338
 18.0916  14438.9  119.783
 18.1336  14403  119.742
 18.1756  14534.6  119.837
 18.2176  14213  118.717
 18.2596  14308.6  118.854
 18.3016  14408.5  119.521
 18.3436  14444.9  119.68
 18.3856  14246.6  118.976
 18.4276  14084.9  117.996
 18.4696  14155.8  118.361
 18.5116  14235.8  118.976
 18.5536  14250.4  119.405
 18.5956  14081  118.254
 18.6376  14049.5  118.522
 18.6796  14153.3  118.273
 18.7216  14106.9  118.574
 18.7636  14027  118.232
 18.8056  13928.2  117.75
 18.8476  13676.4  117.298
 18.8896  13827.3  117.284
 18.9316  14042.1  118.177
 18.9736  13908.9  117.316
 19.0156  13745.4  117.037
 19.0576  14047.5  117.15
 19.0996  14033.9  117.81
 19.1416  13811.9  117.272
 19.1836  13886.3  117.197
 19.2256  13678  116.535
 19.2676  13723  116.803
 19.3096  13704.7  116.979
 19.3516  13657.8  116.731
 19.3936  13657.3  116.633
 19.4356  13937.9  117.695
 19.4776  13781.3  117.131
 19.5196  13818.6  117.139
 19.5616  13648  116.675
 19.6036  13560.7  115.804
 19.6456  13637.2  116.241
 19.6876  13655.3  115.962
 19.7296  13819.7  117.111
 19.7716  13677.1  116.687
 19.8136  13959  118.065
 19.8556  14021.8  117.823
 19.8976  13864.5  117.221
 19.9396  14073.3  117.688
 19.9816  14111.2  118.101
 20.0236  14392.6  119.451
 20.0656  14548.5  120.106
 20.1076  14686.9  121.155
 20.1496  14455.7  120.197
 20.1916  14404.4  119.493
 20.2336  14107  118.174
 20.2756  13743.4  117.081
 20.3176  13554.2  116.024
 20.3596  13495.2  115.76
 20.4016  13516.1  115.639
 20.4436  13348.3  115.482
 20.4856  13327.3  115.178
 20.5276  13219.3  115.176
 20.5696  13182.8  114.456
 20.6116  13219.2  114.903
 20.6536  13184  114.266
 20.6956  13095.6  114.01
 20.7376  12925.2  113.479
 20.7796  12934.9  113.206
 20.8216  13209.4  114.12
 20.8636  13045  113.777
 20.9056  12870.8  112.957
 20.9476  12999.3  113.364
 20.9896  13062.7  113.509
 21.0316  12896.2  112.69
 21.0736  12837.3  112.944
 21.1156  12872.1  113.26
 21.1576  12875.9  113.316
 21.1996  12883.5  113.325
 21.2416  12934.8  113.374
 21.2836  12780.7  112.676
 21.3256  12867.2  113.134
 21.3676  12794.4  112.351
 21.4096  12711.4  112.303
 21.4516  12722.3  112.226
 21.4936  12433.6  111.212
 21.5356  12560.3  111.724
 21.5776  12796.1  112.596
 21.6196  12578.9  111.674
 21.6616  12554.6  111.649
 21.7036  12670.1  111.928
 21.7456  12619.5  111.792
 21.7876  12438.6  110.752
 21.8296  12521.6  110.967
 21.8716  12539.6  111.263
 21.9136  12777.3  112.527
 21.9556  12424.3  110.639
 21.9976  12581.6  111.368
 22.0396  12499.5  111.254
 22.0816  12339.2  111.066
 22.1236  12575.1  111.577
 22.1656  12465.6  111.234
 22.2076  12219.4  109.604
 22.2496  12172.8  109.424
 22.2916  12202.3  109.434
 22.3336  12201.1  110.146
 22.3756  12239  110.042
 22.4176  12106.2  109.299
 22.4596  11955.3  109.189
 22.5016  12094.6  109.335
 22.5436  12180.9  109.602
 22.5856  12425.4  110.945
 22.6276  12547.7  111.62
 22.6696  12385.8  111.251
 22.7116  12182.1  109.851
 22.7536  12224.4  110.02
 22.7956  12283.7  109.62
 22.8376  11983.7  108.787
 22.8796  12138.6  109.294
 22.9216  12245.9  110.313
 22.9636  12204.2  109.291
 23.0056  12140.9  109.129
 23.0476  12124.3  109.627
 23.0896  12446.8  110.457
 23.1316  12313.8  110.296
 23.1736  12352.4  113.383
 23.2156  12581.5  111.806
 23.2576  12791.8  112.86
 23.2996  12513.7  111.407
 23.3416  12700.2  112.761
 23.3836  12489.1  111.053
 23.4256  12765.6  112.398
 23.4676  12516.5  110.989
 23.5096  12634.9  112.18
 23.5516  12457.6  110.686
 23.5936  12450.9  111.561
 23.6356  12649.6  112.116
 23.6776  12563.7  111.949
 23.7196  12178  109.795
 23.7616  12329.6  110.401
 23.8036  12586.3  111.592
 23.8456  12171.5  109.3
 23.8876  12277  110.119
 23.9296  12222.1  110.367
 23.9716  12272.5  109.797
 24.0136  12192  110.332
 24.0556  12144.2  109.83
 24.0976  12136.4  109.614
 24.1396  11922.3  111.256
 24.1816  12165.5  110.793
 24.2236  12185.8  110.509
 24.2656  11949.2  108.912
 24.3076  12073.3  109.745
 24.3496  11740.3  108.104
 24.3916  12054.9  109.589
 24.4336  11953.2  109.329
 24.4756  11898.4  108.963
 24.5176  11791.4  108.099
 24.5596  11812.9  108.321
 24.6016  11742  108.292
 24.6436  11796  108.045
 24.6856  11636.7  107.062
 24.7276  11500.9  106.761
 24.7696  11580.8  107.236
 24.8116  11349.1  106.338
 24.8536  11554.7  107.297
 24.8956  11383.1  106.23
 24.9376  11265  105.612
 24.9796  11300.2  106.133
 25.0216  11309.4  106.285
 25.0636  11364.5  106.206
 25.1056  11172  105.996
 25.1476  11146.5  107.5
 25.1896  11075  105.674
 25.2316  11000.7  104.6
 25.2736  11040.1  104.446
 25.3156  11048.2  104.552
 25.3576  11088.4  105.173
 25.3996  11011.2  104.794
 25.4416  10913.1  104.301
 25.4836  10772.9  104.143
 25.5256  10977.8  104.502
 25.5676  10971.5  104.202
 25.6096  10786.8  103.888
 25.6516  10895.3  103.913
 25.6936  10887.4  104.188
 25.7356  10872.5  104.253
 25.7776  10942.1  104.18
 25.8196  10735.5  103.423
 25.8616  10727.9  103.326
 25.9036  10947.8  103.834
 25.9456  10822.3  103.836
 25.9876  10681  103.218
 26.0296  10866.5  103.635
 26.0716  10741.7  103.451
 26.1136  10756.6  103.457
 26.1556  10831  103.205
 26.1976  10690.3  103.454
 26.2396  10691.7  102.615
 26.2816  10661.6  103.083
 26.3236  10761.6  103.716
 26.3656  10858.6  103.904
 26.4076  10682.7  103.261
 26.4496  10833  103.577
 26.4916  11005.2  104.285
 26.5336  11204.1  105.582
 26.5756  11649.5  107.529
 26.6176  10812.5  103.628
 26.6596  10686.3  103.321
 26.7016  10650  102.915
 26.7436  10683.5  103.2
 26.7856  10389.8  101.762
 26.8276  10519.5  102.359
 26.8696  10495.5  102.111
 26.9116  10413.3  101.646
 26.9536  10396.7  101.618
 26.9956  10307.7  101.221
 27.0376  10346.1  101.623
 27.0796  10363.7  101.437
 27.1216  10362.6  101.493
 27.1636  10240.7  101.057
 27.2056  10294.6  101.217
 27.2476  10223.5  100.841
 27.2896  10203.7  100.873
 27.3316  10191.8  100.532
 27.3736  10145  100.574
 27.4156  10347.9  101.402
 27.4576  10226.3  101.03
 27.4996  10247.2  100.732
 27.5416  10147.7  100.549
 27.5836  10166.7  100.491
 27.6256  10131.9  100.5
 27.6676  10045.9  100.062
 27.7096  10165.6  100.536
 27.7516  9963.84  99.6827
 27.7936  10319.2  101.582
 27.8356  10331  101.245
 27.8776  10373.6  101.52
 27.9196  9913.12  99.1094
 27.9616  10074.8  100.111
 28.0036  9897.73  99.1834
 28.0456  9864.86  99.1645
 28.0876  9859.94  99.2174
 28.1296  9933.86  99.4235
 28.1716  10004.2  99.7998
 28.2136  9867.28  99.0793
 28.2556  9755.93  98.6297
 28.2976  9773.45  98.7162
 28.3396  9764.65  98.4338
 28.3816  9930.06  99.2686
 28.4236  9706.02  98.3031
 28.4656  9786.24  98.7365
 28.5076  9781.55  98.3638
 28.5496  9719.07  98.3011
 28.5916  9828.65  98.6615
 28.6336  9774.21  98.7313
 28.6756  9798.73  98.0545
 28.7176  9728.24  98.2525
 28.7596  9568.1  97.3388
 28.8016  9755.6  98.3259
 28.8436  9676.87  98.1669
 28.8856  9733.9  98.3068
 28.9276  9708.39  98.4251
 28.9696  9661.98  97.84
 29.0116  9545.99  97.4398
 29.0536  9537.93  97.6078
 29.0956  9595.94  97.5996
 29.1376  9586.18  97.5318
 29.1796  9608.68  97.6915
 29.2216  9589.81  97.437
 29.2636  9697.61  98.0562
 29.3056  9593  97.3122
 29.3476  9470.78  97.208
 29.3896  9564.44  97.8035
 29.4316  9426.23  96.4376
 29.4736  9358.05  96.1504
 29.5156  9355.99  96.0654
 29.5576  9384.77  96.9436
 29.5996  9325.88  95.9092
 29.6416  9183.71  95.2925
 29.6836  9346.27  96.0603
 29.7256  9322.13  96.4905
 29.7676  9179.56  95.4177
 29.8096  9197  95.4551
 29.8516  9173.18  95.657
 29.8936  9076.83  95.2445
 29.9356  9396.61  96.6627
 29.9776  9205.68  95.8262
 30.0196  9307.72  95.7551
 30.0616  9264.25  95.8981
 30.1036  9198.98  95.3896
 30.1456  9134.65  95.2795
 30.1876  9170.78  95.4531
 30.2296  9078.23  94.9141
 30.2716  9263.38  95.5214
 30.3136  9184.62  95.9588
 30.3556  9426.49  97.2002
 30.3976  9312.84  98.1127
 30.4396  9573.23  96.8132
 30.4816  9391.09  95.4959
 30.5236  9572.81  96.4077
 30.5656  9329.88  95.8433
 30.6076  9423.08  95.7354
 30.6496  9532.9  96.6958
 30.6916  9237.87  95.2851
 30.7336  9369.17  96.0976
 30.7756  9350.31  96.0804
 30.8176  9356.71  96.0423
 30.8596  9457.99  96.3137
 30.9016  9295.05  95.8258
 30.9436  9314.88  95.6551
 30.9856  9560.37  97.0524
 31.0276  9382.54  95.7794
 31.0696  9188.06  95.3305
 31.1116  9154.9  95.1315
 31.1536  9209.9  95.2972
 31.1956  9190.03  95.2824
 31.2376  9034.21  94.4913
 31.2796  9078.69  94.2634
 31.3216  9267.49  95.1628
 31.3636  9223.66  95.6466
 31.4056  9115.76  96.3977
 31.4476  9304.85  95.2843
 31.4896  9278.75  95.6572
 31.5316  9110.15  94.1939
 31.5736  9299.47  94.9984
 31.6156  9198.31  94.4814
 31.6576  9393.97  95.5626
 31.6996  9292.15  94.7098
 31.7416  9096.34  94.788
 31.7836  9324.2  94.9721
 31.8256  9171.78  94.4372
 31.8676  9316.62  95.1911
 31.9096  9089.41  94.3774
 31.9516  9003.21  94.1016
 31.9936  8951.38  93.6606
 32.0356  9143.77  94.6912
 32.0776  9106.53  94.4068
 32.1196  9157.15  94.7777
 32.1616  9303.99  94.9795
 32.2036  9107.98  94.48
 32.2456  9000.3  94.2953
 32.2876  9136.84  94.5142
 32.3296  9000.88  93.7632
 32.3716  8902.46  93.3723
 32.4136  8961.94  93.874
 32.4556  9008.46  93.5122
 32.4976  8851.53  92.6029
 32.5396  8845.26  92.623
 32.5816  8904.05  93.0628
 32.6236  8855.05  92.8618
 32.6656  9054.17  94.4603
 32.7076  8865.12  93.1264
 32.7496  8873.34  92.8439
 32.7916  8840.02  92.6241
 32.8336  8858.22  92.8159
 32.8756  8905.86  92.7764
 32.9176  8759.92  92.5022
 32.9596  8715.43  92.3357
 33.0016  8800.59  92.5642
 33.0436  8874.71  93.1303
 33.0856  8828.27  92.9707
 33.1276  8708.52  92.075
 33.1696  8753.04  92.1292
 33.2116  8742.41  92.3202
 33.2536  8923.32  93.248
 33.2956  8821.35  92.8078
 33.3376  8742.86  92.1364
 33.3796  8754.56  92.4138
 33.4216  8770.62  92.0963
 33.4636  8811.57  92.4647
 33.5056  8647.87  91.8485
 33.5476  8758.52  92.4027
 33.5896  8829.91  92.5819
 33.6316  8675.72  92.067
 33.6736  8574.99  91.7793
 33.7156  8463.72  91.2166
 33.7576  8663.78  91.927
 33.7996  8710.64  91.9387
 33.8416  8521.69  91.1202
 33.8836  8572.76  91.1724
 33.9256  8699.92  91.896
 33.9676  8659.77  91.5844
 34.0096  8476.42  90.9172
 34.0516  8511.05  90.7396
 34.0936  8494.74  90.9293
 34.1356  8613.71  91.3052
 34.1776  8535.37  90.8852
 34.2196  8516.61  90.9637
 34.2616  8492.5  90.9803
 34.3036  8477.4  91.1343
 34.3456  8589.15  91.4938
 34.3876  8508.49  91.0344
 34.4296  8433.39  90.3291
 34.4716  8508.74  90.8755
 34.5136  8543.33  91.2529
 34.5556  8383.5  90.6535
 34.5976  8538.26  91.2905
 34.6396  8464.36  90.6147
 34.6816  8502.09  90.9029
 34.7236  8498.6  90.6742
 34.7656  8425.01  90.4891
 34.8076  8420.1  90.7964
 34.8496  8360.94  90.3283
 34.8916  8436.94  90.6025
 34.9336  8517.56  91.0192
 34.9756  8533.06  91.0183
 35.0176  8542.52  91.5964
 35.0596  8534.54  91.3717
 35.1016  8550.82  91.2148
 35.1436  8646.97  91.4191
 35.1856  8516.56  90.8474
 35.2276  8350.45  90.1358
 35.2696  8416.07  90.6788
 35.3116  8323.16  90.2745
 35.3536  8377.75  90.2797
 35.3956  8369.74  89.9481
 35.4376  8435.79  90.8635
 35.4796  8480.62  91.1466
 35.5216  8408.67  90.7232
 35.5636  8149.2  90.0426
 35.6056  8322.07  90.0125
 35.6476  8298.86  89.8024
 35.6896  8383.06  90.3485
 35.7316  8378.07  90.2846
 35.7736  8345.21  90.2921
 35.8156  8398.92  90.587
 35.8576  8359.75  90.6213
 35.8996  8367.93  90.6317
 35.9416  8296.01  89.743
 35.9836  8330.92  90.2855
 36.0256  8407.21  90.7069
 36.0676  8428.16  90.5895
 36.1096  8385.96  90.4843
 36.1516  8338.57  90.1432
 36.1936  8284.48  89.6748
 36.2356  8215.54  89.9585
 36.2776  8244.42  89.6029
 36.3196  8209.58  89.0796
 36.3616  8239.33  89.3724
 36.4036  8235.63  89.4225
 36.4456  8363.02  90.3131
 36.4876  8121.04  88.9387
 36.5296  8185.26  89.3297
 36.5716  8207.09  90.2088
 36.6136  8142.56  88.659
 36.6556  8078.4  88.5147
 36.6976  8018.97  88.6736
 36.7396  8049.58  88.5847
 36.7816  8005.35  88.7083
 36.8236  7933.55  88.232
 36.8656  7875.56  87.975
 36.9076  7951.04  88.281
 36.9496  7927.65  88.1393
 36.9916  7889.4  87.5648
 37.0336  8038.22  88.6971
 37.0756  8017.72  88.3786
 37.1176  7782.14  87.3327
 37.1596  7813.36  87.5169
 37.2016  7784.91  87.5761
 37.2436  7973.48  87.952
 37.2856  7877.32  87.6732
 37.3276  7942.59  87.3997
 37.3696  7927.39  88.1843
 37.4116  7887.07  87.8667
 37.4536  7754.24  86.9956
 37.4956  7843.33  87.5399
 37.5376  8039.37  90.1867
 37.5796  7972.14  89.7477
 37.6216  7919.65  87.7321
 37.6636  7943.91  87.746
 37.7056  8077.38  88.6766
 37.7476  8169.72  88.7264
 37.7896  7971.24  88.1484
 37.8316  8007.81  88.5073
 37.8736  7855.43  87.1923
 37.9156  7958.05  87.7539
 37.9576  8025.75  88.0411
 37.9996  7829.26  86.6708
 38.0416  7803.18  87.3189
 38.0836  8054  88.6217
 38.1256  7958.01  88.0621
 38.1676  7868.23  87.6833
 38.2096  7978.93  87.9125
 38.2516  7976  88.1113
 38.2936  8019.88  88.1513
 38.3356  7960.14  87.7554
 38.3776  7828.33  87.2656
 38.4196  7929.1  87.6973
 38.4616  7816.68  87.307
 38.5036  8023.09  88.2996
 38.5456  7871.86  88.2892
 38.5876  7842.67  88.1541
 38.6296  7836.75  87.0878
 38.6716  7846.6  86.9547
 38.7136  7755.51  86.3949
 38.7556  7793.29  87.1061
 38.7976  7812.16  87.1429
 38.8396  7820.14  87.6384
 38.8816  7869.54  87.7139
 38.9236  7929.13  87.8425
 38.9656  7893.03  87.5487
 39.0076  7796.51  86.4242
 39.0496  7860.32  87.3271
 39.0916  8076.1  88.1622
 39.1336  7836.15  87.2484
 39.1756  7984.84  88.1437
 39.2176  7769  87.4599
 39.2596  7869.63  87.956
 39.3016  7862.88  87.5055
 39.3436  7692.74  86.9516
 39.3856  7902.87  87.5805
 39.4276  7936.07  88.2683
 39.4696  7971.5  88.0836
 39.5116  7903.84  88.2232
 39.5536  7940.46  88.8385
 39.5956  7884.36  87.649
 39.6376  7806.32  87.2096
 39.6796  7820.27  87.034
 39.7216  7790.75  86.9715
 39.7636  7963.07  88.491
 39.8056  7862.92  87.7217
 39.8476  7876.87  88.0551
 39.8896  7831.33  87.4281
 39.9316  7712.68  87.0065
 39.9736  7921.83  87.7616
 40.0156  7818.62  87.0171
 40.0576  7767.13  87.0802
 40.0996  7835.11  86.6442
 40.1416  7933.04  87.9841
 40.1836  7769.84  86.9586
 40.2256  7799.84  87.1737
 40.2676  7809.8  87.3191
 40.3096  7765.19  86.9988
 40.3516  7938.36  88.081
 40.3936  7944.18  87.6761
 40.4356  7785.71  86.9982
 40.4776  7899.26  88.0213
 40.5196  7835.69  87.8034
 40.5616  7966.61  88.1605
 40.6036  7767.54  87.3213
 40.6456  7832.11  87.2844
 40.6876  7896.72  87.6408
 40.7296  7772.48  87.0881
 40.7716  7914.95  87.9993
 40.8136  7788.23  87.2365
 40.8556  7920.16  88.0932
 40.8976  7891.85  87.869
 40.9396  7882.03  88.1549
 40.9816  7894.71  87.5251
 41.0236  7845.66  87.0371
 41.0656  7953.61  88.1648
 41.1076  7804.85  87.1161
 41.1496  8011.87  88.1672
 41.1916  7760.71  87.0925
 41.2336  7853.95  87.6069
 41.2756  7818.36  87.0156
 41.3176  7987.19  88.5625
 41.3596  7796.54  87.2452
 41.4016  7781.85  87.4184
 41.4436  7842.64  87.5419
 41.4856  7798.4  87.4632
 41.5276  7871.04  87.8844
 41.5696  7817.85  87.2255
 41.6116  7851.38  87.7916
 41.6536  7871.43  87.7517
 41.6956  7878.45  87.8589
 41.7376  7797.72  87.4332
 41.7796  7760.13  87.1124
 41.8216  7858.54  87.8948
 41.8636  7811.01  87.5729
 41.9056  7779.88  87.1892
 41.9476  7797.49  87.522
 41.9896  7869.88  87.5843
 42.0316  7903.09  87.8656
 42.0736  7888.8  87.8766
 42.1156  7831.54  87.4044
 42.1576  7753.06  87.0748
 42.1996  7899.67  88.0254
 42.2416  7900.52  87.6167
 42.2836  7784.47  87.0849
 42.3256  7707.08  86.7586
 42.3676  7893.86  87.6032
 42.4096  7850.43  87.3376
 42.4516  8002.66  88.248
 42.4936  7731.62  86.8068
 42.5356  7707.86  86.8304
 42.5776  7772.6  87.1258
 42.6196  7850.42  87.6171
 42.6616  7658.93  86.7101
 42.7036  7713.72  86.4062
 42.7456  7767.1  87.0524
 42.7876  7771.95  87.1636
 42.8296  7819.62  87.2817
 42.8716  7700.96  86.7814
 42.9136  7644.86  86.2571
 42.9556  7777.97  87.1357
 42.9976  7773.26  87.0762
 43.0396  7825.99  87.0936
 43.0816  7707.64  86.8235
 43.1236  7533.6  85.8875
 43.1656  7752.76  86.9466
 43.2076  7761.8  87.1052
 43.2496  7779.52  87.033
 43.2916  7696.43  86.9238
 43.3336  7774.6  87.1975
 43.3756  7721.44  86.654
 43.4176  7559.4  85.823
 43.4596  7608.51  85.9517
 43.5016  7635.54  86.5161
 43.5436  7705.76  86.8151
 43.5856  7543.59  85.9239
 43.6276  7728.06  86.8646
 43.6696  7649.17  86.6647
 43.7116  7801.08  87.0248
 43.7536  7737.25  87.1641
 43.7956  7602.73  87.6054
 43.8376  7569.58  85.954
 43.8796  7481.07  85.5277
 43.9216  7513.23  85.6261
 43.9636  7504.31  85.6852
 44.0056  7523.53  86.0287
 44.0476  7470.07  85.3484
 44.0896  7423.02  85.4255
 44.1316  7574.53  85.8165
 44.1736  7524.02  85.6558
 44.2156  7567.19  85.7551
 44.2576  7385.27  85.0333
 44.2996  7495.44  85.6446
 44.3416  7505.71  85.4616
 44.3836  7436  85.3905
 44.4256  7348.25  84.5309
 44.4676  7307.77  84.4541
 44.5096  7384.55  85.0388
 44.5516  7351.61  84.8133
 44.5936  7331.28  84.65
 44.6356  7430.39  84.9594
 44.6776  7377.8  84.9721
 44.7196  7406.8  85.4417
 44.7616  7463.63  87.088
 44.8036  7370.84  84.9744
 44.8456  7554.21  86.235
 44.8876  7589.22  86.2807
 44.9296  7610.2  85.8507
 44.9716  7632.6  86.3856
 45.0136  7610.64  86.2108
 45.0556  7614.12  86.2077
 45.0976  7466.13  85.5222
 45.1396  7511.83  85.5501
 45.1816  7416.04  84.9407
 45.2236  7475.97  85.1868
 45.2656  7487.35  85.751
 45.3076  7572.82  86.0294
 45.3496  7540.42  86.1409
 45.3916  7468.28  85.9998
 45.4336  7570.45  86.4239
 45.4756  7444.94  85.5671
 45.5176  7524.38  85.6306
 45.5596  7473.61  85.4601
 45.6016  7504.71  86.0665
 45.6436  7456.77  84.952
 45.6856  7487.33  85.79
 45.7276  7314.13  86.1045
 45.7696  7449.69  86.5852
 45.8116  7455.19  86.045
 45.8536  7391.49  85.5709
 45.8956  7462.74  85.3363
 45.9376  7486.85  84.9373
 45.9796  7448.64  85.4051
 46.0216  7625.53  86.7576
 46.0636  7619.76  85.8368
 46.1056  7527.23  85.3255
 46.1476  7417.04  85.2881
 46.1896  7546.49  86.1822
 46.2316  7497.42  85.7623
 46.2736  7182.9  84.3197
 46.3156  7534.6  85.9408
 46.3576  7446.11  85.635
 46.3996  7407.7  85.5651
 46.4416  7499.1  85.6639
 46.4836  7351.44  85.1775
 46.5256  7353.26  85.1343
 46.5676  7379.08  85.3912
 46.6096  7351.11  85.1482
 46.6516  7419.83  84.61
 46.6936  7479.65  85.4456
 46.7356  7470.07  85.4721
 46.7776  7396.13  85.9127
 46.8196  7343.47  85.1967
 46.8616  7240.13  84.5421
 46.9036  7205.6  84.0148
 46.9456  7241.4  83.8596
 46.9876  7340.18  84.5105
 47.0296  7330.8  85.1524
 47.0716  7176.17  84.0702
 47.1136  7353.39  84.7759
 47.1556  7342.94  84.5788
 47.1976  7339.96  84.6418
 47.2396  7327.78  84.9789
 47.2816  7304.5  84.5466
 47.3236  7216.77  84.401
 47.3656  7362.7  85.1849
 47.4076  7348.75  84.8987
 47.4496  7307.64  84.761
 47.4916  7342.26  85.1418
 47.5336  7339.47  84.9365
 47.5756  7397.21  85.3935
 47.6176  7256.65  84.4857
 47.6596  7288.54  84.384
 47.7016  7301.06  84.2723
 47.7436  7469.66  85.5805
 47.7856  7399.65  85.2036
 47.8276  7303.67  84.6879
 47.8696  7331.45  84.9469
 47.9116  7394.2  85.0215
 47.9536  7350.75  84.7109
 47.9956  7296.46  85.1126
 48.0376  7211.7  84.3887
 48.0796  7315.99  85.1205
 48.1216  7299.38  84.8529
 48.1636  7378.3  84.8703
 48.2056  7358.18  85.0252
 48.2476  7395.52  85.5484
 48.2896  7272.04  84.7468
 48.3316  7369.48  85.2498
 48.3736  7228.46  84.4538
 48.4156  7277.03  84.5855
 48.4576  7329.12  85.189
 48.4996  7394.25  85.0123
 48.5416  7506.17  85.9831
 48.5836  7262.3  84.2475
 48.6256  7451.17  85.5437
 48.6676  7365.37  85.5756
 48.7096  7404.8  85.0557
 48.7516  7385.4  85.1
 48.7936  7228.17  84.2617
 48.8356  7196.59  84.1231
 48.8776  7308.92  85.3588
 48.9196  7445.73  85.4958
 48.9616  7200.18  84.4715
 49.0036  7165.4  84.6063
 49.0456  7223.49  84.9329
 49.0876  7262.44  84.6833
 49.1296  7129.83  84.0841
 49.1716  7145.03  84.0485
 49.2136  7333.14  85.0688
 49.2556  7357.82  85.2446
 49.2976  7273.66  84.8207
 49.3396  7223.44  84.5909
 49.3816  7388.3  84.9622
 49.4236  7248.86  84.5893
 49.4656  7157.44  84.0768
 49.5076  7144.72  83.745
 49.5496  7250.82  84.4367
 49.5916  7215.12  84.1405
 49.6336  7219.59  84.3685
 49.6756  7285.14  84.9857
 49.7176  7279.94  84.8949
 49.7596  7244.08  84.4496
 49.8016  7241.16  84.3607
 49.8436  7118.28  83.9397
 49.8856  7233.93  84.6232
 49.9276  7145.02  84.1977
 49.9696  7212.9  84.5774
 50.0116  7237.05  84.8548
 50.0536  7230.45  84.7573
 50.0956  7137.9  84.2929
 50.1376  7255.04  84.6578
 50.1796  7164.04  84.4073
 50.2216  7164.47  84.3951
 50.2636  7126.86  83.8015
 50.3056  7110.43  83.8827
 50.3476  7165.92  84.2275
 50.3896  7155.48  84.1397
 50.4316  7168.52  84.0462
 50.4736  7129.92  84.0369
 50.5156  7209.98  84.4921
 50.5576  7236.62  84.4086
 50.5996  7139.82  84.1294
 50.6416  7213.79  84.4913
 50.6836  7172.28  84.305
 50.7256  7327.87  85.1352
 50.7676  7259.7  85.068
 50.8096  7077.79  83.5338
 50.8516  7177.52  84.5433
 50.8936  7032.93  83.4674
 50.9356  7173.29  84.4043
 50.9776  7117.2  84.236
 51.0196  6938.8  83.3072
 51.0616  6993.72  82.9522
 51.1036  7058.71  83.6987
 51.1456  7113.55  83.9357
 51.1876  7012.66  82.6678
 51.2296  6911.54  82.7025
 51.2716  6868.93  82.1558
 51.3136  7022.01  83.5362
 51.3556  6923.73  82.5655
 51.3976  6915.72  82.6692
 51.4396  6734.98  81.8946
 51.4816  7013.97  83.424
 51.5236  6955.96  83.1673
 51.5656  6888.41  82.3484
 51.6076  6938.86  82.7433
 51.6496  6845.89  82.3752
 51.6916  6959.41  83.4143
 51.7336  6886.51  83.0704
 51.7756  6877.67  82.7093
 51.8176  6927.84  83.1264
 51.8596  6909.19  83.0272
 51.9016  7115.07  83.8517
 51.9436  7064.27  85.0657
 51.9856  6984.15  84.9919
 52.0276  7048.05  83.8513
 52.0696  7100.12  84.2209
 52.1116  6957.91  83.4963
 52.1536  7062.46  84.0028
 52.1956  6987.39  83.0209
 52.2376  7190.81  84.3784
 52.2796  7091.1  83.6191
 52.3216  6910.8  83.2326
 52.3636  6985.03  83.24
 52.4056  6878.04  82.4667
 52.4476  6857.14  82.7124
 52.4896  6830.69  82.6071
 52.5316  7089.49  84.1951
 52.5736  6824.92  82.3371
 52.6156  7120.4  84.5015
 52.6576  6843.23  82.2832
 52.6996  6680.31  82.27
 52.7416  6785.26  82.773
 52.7836  6833.55  82.9564
 52.8256  6891.38  82.5034
 52.8676  6733.41  82.1309
 52.9096  6894.88  83.1851
 52.9516  6928.33  83.7814
 52.9936  6900.67  84.0066
 53.0356  6960.71  83.3466
 53.0776  6975.98  83.7172
 53.1196  6754.34  82.491
 53.1616  6863.39  83.1932
 53.2036  6797.96  82.7767
 53.2456  6917.3  83.6069
 53.2876  6948.46  83.4788
 53.3296  6839.22  83.1471
 53.3716  6920.6  83.3787
 53.4136  6878.33  83.2844
 53.4556  6846.31  83.1256
 53.4976  6747.37  82.3514
 53.5396  6780.65  82.9682
 53.5816  6923.44  83.4618
 53.6236  6755.95  82.7876
 53.6656  6905.96  83.2973
 53.7076  6915.44  83.3124
 53.7496  6943.55  83.6193
 53.7916  6886.39  83.401
 53.8336  6818.53  82.8946
 53.8756  6695.02  82.6768
 53.9176  6784.44  82.5782
 53.9596  6580.57  82.0981
 54.0016  6587.34  81.4714
 54.0436  6481.62  81.013
 54.0856  6651.38  81.5061
 54.1276  6578.17  81.2502
 54.1696  6549.2  81.2494
 54.2116  6782.82  82.4195
 54.2536  6509.06  80.5637
 54.2956  6628.59  81.3409
 54.3376  6580.69  81.5334
 54.3796  6558.49  81.2838
 54.4216  6557.39  81.3505
 54.4636  6569.68  81.3822
 54.5056  6597.58  81.3419
 54.5476  6593.81  81.6851
 54.5896  6618.41  81.6718
 54.6316  6515.12  80.8783
 54.6736  6585.33  81.3831
 54.7156  6532.34  81.0898
 54.7576  6428.54  80.4287
 54.7996  6556.92  81.3699
 54.8416  6549.1  81.3749
 54.8836  6521.6  81.2953
 54.9256  6525.39  81.0896
 54.9676  6450.81  80.4875
 55.0096  6494.67  80.8045
 55.0516  6347.11  80.0973
 55.0936  6459.36  80.4742
 55.1356  6340.31  79.7703
 55.1776  6586.53  81.527
 55.2196  6533.51  81.0048
 55.2616  6579.68  81.5189
 55.3036  6422  80.7147
 55.3456  6286.61  79.9938
 55.3876  6482.57  80.9353
 55.4296  6257.32  79.5329
 55.4716  6373.52  80.2718
 55.5136  6443.97  80.4989
 55.5556  6608.28  81.5665
 55.5976  6398.8  80.3491
 55.6396  6510.55  80.9936
 55.6816  6366.51  79.951
 55.7236  6261.86  79.3517
 55.7656  6435.79  80.1793
 55.8076  6306.3  79.3679
 55.8496  6335.8  79.86
 55.8916  6269.2  79.6512
 55.9336  6504.6  80.9489
 55.9756  6362.13  79.9531
 56.0176  6386.15  80.2322
 56.0596  6323.39  79.8483
 56.1016  6268.83  79.5261
 56.1436  6306.49  80.0051
 56.1856  6285.28  79.612
 56.2276  6467.16  80.818
 56.2696  6264.47  79.5125
 56.3116  6446.43  81.0327
 56.3536  6360.26  80.1466
 56.3956  6363.11  80.1732
 56.4376  6271.63  79.637
 56.4796  6225.69  79.1664
 56.5216  6230.17  79.565
 56.5636  6182.86  78.8266
 56.6056  6425.38  80.6008
 56.6476  6338.85  79.6629
 56.6896  6431.38  80.7126
 56.7316  6253.13  79.5023
 56.7736  6299.61  79.8004
 56.8156  6323.51  79.9696
 56.8576  6052.46  78.1702
 56.8996  6169.18  78.8173
 56.9416  6184.81  79.2552
 56.9836  6271.97  79.323
 57.0256  6159.89  78.9281
 57.0676  6330.97  80.1164
 57.1096  6262.07  79.4677
 57.1516  6171.52  78.9559
 57.1936  6224.35  79.0586
 57.2356  6093.68  78.5435
 57.2776  6188.77  79.1178
 57.3196  6201.97  79.5285
 57.3616  6179.21  78.9038
 57.4036  6350.71  80.0523
 57.4456  6248.64  79.3802
 57.4876  6173.36  78.755
 57.5296  6107.25  78.659
 57.5716  6094.6  78.5881
 57.6136  6024.83  77.98
 57.6556  6175.67  79.0734
 57.6976  6147.51  78.7239
 57.7396  6088.94  78.6818
 57.7816  6004.62  78.5203
 57.8236  6173.94  79.4082
 57.8656  6131.54  78.7934
 57.9076  6151.79  78.9326
 57.9496  6087.69  78.8822
 57.9916  6182.93  79.0137
 58.0336  6132.78  78.9622
 58.0756  6142.24  78.6686
 58.1176  6130.77  78.5948
 58.1596  5954.01  78.0272
 58.2016  5938.86  77.1615
 58.2436  5903.29  77.3393
 58.2856  5802.65  76.5976
 58.3276  5854.03  77.3005
 58.3696  5933.23  77.5805
 58.4116  5743.88  76.1991
 58.4536  5929.87  77.3099
 58.4956  5883.3  77.1839
 58.5376  5955.54  77.2317
 58.5796  5839.42  76.8864
 58.6216  5849.87  76.7804
 58.6636  5919.81  77.438
 58.7056  5869.06  76.9731
 58.7476  5823.11  77.1055
 58.7896  5933.18  77.4812
 58.8316  5844.1  76.8936
 58.8736  5976.61  77.7701
 58.9156  5850.83  76.9904
 58.9576  5893.14  77.5815
 58.9996  6027.1  77.7144
 59.0416  5808.15  76.6423
 59.0836  5874.48  76.999
 59.1256  5849.77  77.5265
 59.1676  5751.14  77.1707
 59.2096  5836.17  77.0546
 59.2516  5984.5  77.6106
 59.2936  5812.29  76.8076
 59.3356  5891.76  77.2101
 59.3776  5866.37  77.2101
 59.4196  5826.59  76.8856
 59.4616  5778.35  76.4292
 59.5036  5684.62  75.8412
 59.5456  6059.72  77.9961
 59.5876  5835.82  76.7295
 59.6296  5810.65  76.6317
 59.6716  5811.92  76.6969
 59.7136  5998.45  77.9063
 59.7556  5960.82  77.7971
 59.7976  5707.84  75.8777
 59.8396  5752.16  76.0685
 59.8816  5823.53  77.073
 59.9236  5861.85  76.9767
 59.9656  5713.37  76.2489
 60.0076  5901.61  76.8597
 60.0496  5822.25  76.8359
 60.0916  6135.68  78.2904
 60.1336  5764.95  76.9702
 60.1756  5802.28  78.3798
 60.1996  0.0000000E+00  0.0000000E+00