File: docs/examples/XRD/IS17_D/Data/IS17_D/17_Db_f00123.xye
# /beamlines/bl04/projects/cycle2025-II/20250340211-lsimonelli/DATA/IS17_D/17_Db_f00123.xye : mythproc.py merge -s 0.006 -l 0.5 -f /beamlines/bl04/inhouse/ff/FlatField/ff_20Nov2024rod8mm60s_17keV.raw -b True -c true -o xye /beamlines/bl04/projects/cycle2025-II/20250340211-lsimonelli/DATA/IS17_D/17_Db_00123.dat
# IsMon = [6780248, 6778019, 6781585]  IsPos = [-1.5000, -2.4884, -3.4988]
# Wave = 0.4962  CalPath /beamlines/bl04/projects/cycle2025-II/20250340211-lsimonelli/DATA/Align/Si_Pos1_25keV_f00001.cal
# Date = 2025-09-25_04:00:23 Dt = 4.8000  Bin = 0.0060  <imon> = 6779951 +/- 1471 (Min/Max) 6778019 / 6781585
# icurr 252.4611  mocoIn 1.7213E-05  mocoOut 0.8079  i15 7.10165e+06  imon 6.77995e+06  i7 4.3333  iEMpd_timer 4.8000  iEMpd_1 3.4589E-08  iEMpd_2 7.7544E-08  iEMpd_3 1.7642E-08  iEMpd_4 4.8730E-08  iEMhp_timer 4.8000  iEMhp_1 4.9307E-06  iEMhp_2 -2.4355E-08  iEMhp_3 -2.5077E-08  iEMhp_4 -2.1468E-08
#      9776
 1.5856  44667.9  217.016
 1.6276  51663.5  229.387
 1.6696  57370.9  240.873
 1.7116  64710  256.317
 1.7536  72520.1  270.188
 1.7956  76540.2  278.27
 1.8376  72623.5  271.486
 1.8796  63061  251.12
 1.9216  51542.3  227.935
 1.9636  45673.2  214.226
 2.0056  41461.5  202.806
 2.0476  38658.8  197.979
 2.0896  36823.1  192.088
 2.1316  36520.8  190.378
 2.1736  34066.8  185.329
 2.2156  35138.3  186.711
 2.2576  33589.6  183.201
 2.2996  32459.5  180.757
 2.3416  32664.7  179.879
 2.3836  32317.2  179.031
 2.4256  31060.9  176.089
 2.4676  30285.3  173.63
 2.5096  30221.3  173.503
 2.5516  28873.5  173.487
 2.5936  28919  170.152
 2.6356  28524.8  169.706
 2.6776  28445.2  168.343
 2.7196  27946  167.362
 2.7616  27841.8  166.832
 2.8036  27470.1  165.882
 2.8456  27361.6  166.202
 2.8876  26961.5  164.847
 2.9296  26423.8  163.322
 2.9716  26164.3  162.005
 3.0136  25907.3  161.272
 3.0556  26119.6  162.339
 3.0976  25877.8  160.45
 3.1396  25700.3  160.645
 3.1816  25536.5  160.086
 3.2236  25225.3  159.094
 3.2656  25008.4  157.448
 3.3076  24915.2  158.634
 3.3496  25073.2  158.051
 3.3916  25489  159.178
 3.4336  25902.3  161.054
 3.4756  26290.6  162.192
 3.5176  26921.3  163.897
 3.5596  26567.7  165.868
 3.6016  26973.9  164.117
 3.6436  25976.9  162.186
 3.6856  25494.7  158.95
 3.7276  24572.9  157.147
 3.7696  24459.5  156.757
 3.8116  24014.1  155.425
 3.8536  24194.2  155.938
 3.8956  24082.8  155.399
 3.9376  23867.7  154.973
 3.9796  23905  154.573
 4.0216  23881.4  153.529
 4.0636  23739.9  154.549
 4.1056  23949.4  154.891
 4.1476  24193.3  155.986
 4.1896  24320.2  156.246
 4.2316  24395  156.306
 4.2736  24869.5  157.623
 4.3156  24962.8  158.149
 4.3576  25652.1  160.219
 4.3996  25807  160.989
 4.4416  26371.8  162.318
 4.4836  26806.8  163.818
 4.5256  27441.8  166.355
 4.5676  27563.3  166.983
 4.6096  27749.5  166.558
 4.6516  28184.5  167.181
 4.6936  28201.4  168.062
 4.7356  28408.1  168.5
 4.7776  28327.2  168.092
 4.8196  28302.1  168.672
 4.8616  27651.8  166.215
 4.9036  27443.8  165.306
 4.9456  27215.7  165.281
 4.9876  26664.3  163.49
 5.0296  26973.3  164.282
 5.0716  26852.3  164.67
 5.1136  26975.3  164.771
 5.1556  27098.1  164.597
 5.1976  27719.6  166.466
 5.2396  27809.6  166.425
 5.2816  27945.7  167.305
 5.3236  27859.7  166.744
 5.3656  27270.9  165.912
 5.4076  27096.7  165.517
 5.4496  27191.1  165.303
 5.4916  27121.1  164.838
 5.5336  27260.3  165.27
 5.5756  27411  165.736
 5.6176  27296.4  164.829
 5.6596  27740.9  167.012
 5.7016  27502.3  165.699
 5.7436  27724.8  166.655
 5.7856  27474.1  165.966
 5.8276  27945.6  167.097
 5.8696  28175.1  167.838
 5.9116  28253.7  168.797
 5.9536  28372.4  168.89
 5.9956  28553.1  168.812
 6.0376  28571.5  169.491
 6.0796  29029.3  170.668
 6.1216  28580.5  169.544
 6.1636  28938.5  169.65
 6.2056  28746.2  169.775
 6.2476  29436.8  171.478
 6.2896  29580.6  171.753
 6.3316  29378.1  171.343
 6.3736  29412.3  171.333
 6.4156  29384.9  171.192
 6.4576  29574.2  171.309
 6.4996  29495.6  171.565
 6.5416  29724  172.356
 6.5836  29723.2  172.599
 6.6256  29811.5  172.396
 6.6676  30539  174.059
 6.7096  30357.6  174.407
 6.7516  30735.4  175.146
 6.7936  30922.8  175.06
 6.8356  30991.6  175.361
 6.8776  31212.3  176.805
 6.9196  31093.5  176.868
 6.9616  31811.5  178.335
 7.0036  32248.2  179.203
 7.0456  32065.1  177.98
 7.0876  32340.4  180.361
 7.1296  32030.4  178.715
 7.1716  32058.8  178.328
 7.2136  32033.8  178.042
 7.2556  32122.7  178.443
 7.2976  32078.8  178.823
 7.3396  32127.3  179.184
 7.3816  31931.8  178.846
 7.4236  32468.4  179.634
 7.4656  32539.2  179.274
 7.5076  32732.8  179.97
 7.5496  32435.9  179.691
 7.5916  32611.8  180.225
 7.6336  33218  181.779
 7.6756  33208.6  181.599
 7.7176  33706.9  183.29
 7.7596  33454.4  183.836
 7.8016  34153.8  187.998
 7.8436  33852  183.803
 7.8856  34038.2  183.914
 7.9276  34463.5  185.458
 7.9696  34691.7  186.381
 8.0116  35654.4  187.497
 8.0536  35879.6  188.326
 8.0956  36021.4  189.908
 8.1376  36218.3  189.886
 8.1796  36444.2  191.017
 8.2216  37087.2  191.426
 8.2636  37317.7  192.277
 8.3056  37398.6  193.248
 8.3476  37838.7  193.714
 8.3896  37801.6  193.7
 8.4316  37860.5  194.021
 8.4736  37810.9  193.36
 8.5156  37633.1  193.182
 8.5576  37322.6  193.361
 8.5996  37162.6  191.817
 8.6416  37244.1  193.298
 8.6836  36558.9  191.33
 8.7256  37583.9  193.453
 8.7676  37483.7  196.119
 8.8096  37944.7  194.576
 8.8516  38068.8  194.502
 8.8936  37094.6  191.907
 8.9356  37495.2  193.272
 8.9776  37458.9  193.263
 9.0196  37366.4  192.697
 9.0616  36858.6  190.877
 9.1036  36551.4  191.25
 9.1456  36384  190.143
 9.1876  36522.2  190.451
 9.2296  36533.1  189.908
 9.2716  36346.3  189.469
 9.3136  36483.7  189.812
 9.3556  36531.7  189.916
 9.3976  35633.6  188.083
 9.4396  35303.1  187.12
 9.4816  35452  187.369
 9.5236  35018.5  186.11
 9.5656  34813.9  185.93
 9.6076  34283.3  185.037
 9.6496  34494.4  185.473
 9.6916  34107.4  184.395
 9.7336  34342.3  184.822
 9.7756  34280.2  185.804
 9.8176  34110.7  184.994
 9.8596  33870.4  182.759
 9.9016  33773.6  182.494
 9.9436  32977.7  180.084
 9.9856  32799.6  180.037
 10.0276  32466.8  180.213
 10.0696  32929.9  180.496
 10.1116  31864.1  177.822
 10.1536  31789.7  177.274
 10.1956  31313.7  176.057
 10.2376  31304.1  175.524
 10.2796  30952.8  174.644
 10.3216  30967.1  174.83
 10.3636  30790.3  174.513
 10.4056  29822  172.154
 10.4476  30231.3  172.937
 10.4896  30488.4  173.116
 10.5316  29972.3  172.019
 10.5736  29615.7  171.761
 10.6156  29506.6  171.186
 10.6576  29279.9  169.076
 10.6996  29073.5  169.202
 10.7416  28821.5  168.685
 10.7836  28353.8  167.978
 10.8256  28130.5  167.747
 10.8676  28071.8  167.102
 10.9096  27878.9  166.557
 10.9516  27501.9  164.368
 10.9936  27673.8  165.09
 11.0356  27477.5  165.12
 11.0776  27267.1  163.813
 11.1196  26956.2  163.652
 11.1616  26527.4  162.022
 11.2036  26848  162.842
 11.2456  26595  162.787
 11.2876  26833.3  163.231
 11.3296  26491.3  162.103
 11.3716  26818.4  162.819
 11.4136  26916.3  163.981
 11.4556  26958.8  163.759
 11.4976  27631.1  164.761
 11.5396  27866.1  165.637
 11.5816  27726.5  165.653
 11.6236  26820  163.18
 11.6656  26852.8  162.408
 11.7076  26037.8  160.772
 11.7496  25811.7  164.123
 11.7916  25477.4  158.28
 11.8336  25097.2  157.982
 11.8756  25044.6  157.371
 11.9176  25026  156.988
 11.9596  25104.5  157.403
 12.0016  24995.7  157.829
 12.0436  25026.2  157.379
 12.0856  24572.2  156.448
 12.1276  24727.4  156.894
 12.1696  24805.3  156.24
 12.2116  24407.8  154.986
 12.2536  24554.9  156.256
 12.2956  24249  154.645
 12.3376  24669.6  156.186
 12.3796  24396.2  155.808
 12.4216  24240.7  154.498
 12.4636  24061.2  154.869
 12.5056  24079.6  154.184
 12.5476  24462.4  154.916
 12.5896  24198.7  154.73
 12.6316  24283.3  155.148
 12.6736  24026.6  154.821
 12.7156  24237.6  155.332
 12.7576  24139.8  155.283
 12.7996  24351  154.586
 12.8416  24102.4  154.857
 12.8836  24364.6  155.526
 12.9256  24587.8  155.254
 12.9676  24644.3  155.837
 13.0096  24956.4  157.958
 13.0516  24962.2  156.99
 13.0936  24884  156.872
 13.1356  25231.5  157.197
 13.1776  24638.3  156.368
 13.2196  24838.7  156.645
 13.2616  24497.6  155.878
 13.3036  24985.8  157.555
 13.3456  24559.1  156.386
 13.3876  25166  157.574
 13.4296  24704.3  156.288
 13.4716  24828.6  156.306
 13.5136  24689  155.993
 13.5556  24684.9  156.622
 13.5976  24942.9  157.606
 13.6396  24919  156.883
 13.6816  25087.1  157.759
 13.7236  25269.5  158.051
 13.7656  26813.8  163.274
 13.8076  27502.3  163.987
 13.8496  26154  160.781
 13.8916  25199.3  158.756
 13.9336  24449.5  155.653
 13.9756  24411  154.9
 14.0176  24091.2  154.563
 14.0596  24372  155.392
 14.1016  24166.4  155.159
 14.1436  24091.5  154.042
 14.1856  23544  152.575
 14.2276  23545.1  153.073
 14.2696  23557.6  152.962
 14.3116  22986  151.006
 14.3536  22625.5  149.98
 14.3956  22811.2  150.324
 14.4376  22991.2  150.687
 14.4796  22928  150.482
 14.5216  22486.8  149.821
 14.5636  22347.7  148.924
 14.6056  22553  149.15
 14.6476  22455.4  148.075
 14.6896  22085.6  147.401
 14.7316  21611.2  146.85
 14.7736  21466.7  145.505
 14.8156  21378.9  145.214
 14.8576  21162.2  144.339
 14.8996  20951.9  144.826
 14.9416  20684.2  143.913
 14.9836  20521.3  143.322
 15.0256  19943.7  140.212
 15.0676  19902.5  140.375
 15.1096  19909.9  140.143
 15.1516  19548.7  139.424
 15.1936  19606.5  139.053
 15.2356  19181.5  137.815
 15.2776  19187.8  137.429
 15.3196  18960.2  137.604
 15.3616  18796.3  136.762
 15.4036  18690  136.243
 15.4456  19002.7  137.024
 15.4876  18675.5  135.523
 15.5296  18542.7  135.333
 15.5716  18248.4  133.853
 15.6136  18211.4  134.042
 15.6556  18208.5  133.275
 15.6976  18070.5  133.065
 15.7396  17977.1  133.098
 15.7816  17926.4  132.432
 15.8236  17511.5  131.569
 15.8656  17848.8  132.631
 15.9076  17383  130.714
 15.9496  18216.3  136.646
 15.9916  18026.6  136.34
 16.0336  17983.8  132.994
 16.0756  17749.2  132.463
 16.1176  17407.8  131.099
 16.1596  17112.8  131.317
 16.2016  17029.2  129.763
 16.2436  17258.3  131.02
 16.2856  17148.3  130.103
 16.3276  16973.4  129.897
 16.3696  16962.6  129.673
 16.4116  17178.1  130.954
 16.4536  17171.7  130.726
 16.4956  17164.1  130.423
 16.5376  16770.7  129.109
 16.5796  16881.3  128.895
 16.6216  16888.4  129.194
 16.6636  16506.5  127.914
 16.7056  16780.7  128.831
 16.7476  16847.3  128.613
 16.7896  16644.7  128.57
 16.8316  16567.2  128.262
 16.8736  16888.5  129.757
 16.9156  16959.7  130.373
 16.9576  16502.9  129.411
 16.9996  16518.2  129.938
 17.0416  16711.2  129.078
 17.0836  16615.3  128.46
 17.1256  16492.9  127.992
 17.1676  16503.1  128.001
 17.2096  16409.9  127.524
 17.2516  16387  127.519
 17.2936  16083.1  126.387
 17.3356  16122.3  126.525
 17.3776  15864.3  125.703
 17.4196  15833.7  125.282
 17.4616  15784.6  124.994
 17.5036  15374.2  123.723
 17.5456  15647.5  125.444
 17.5876  15434.4  123.646
 17.6296  15750.2  124.703
 17.6716  15373  123.807
 17.7136  15402.1  124.055
 17.7556  15220  123.616
 17.7976  15483.8  124.402
 17.8396  15159.5  122.598
 17.8816  15044.1  122.705
 17.9236  15030.1  122.428
 17.9656  14944.7  122.61
 18.0076  14979.2  122.332
 18.0496  15024.9  121.651
 18.0916  15015.1  122.155
 18.1336  14850.1  121.585
 18.1756  15159.6  122.392
 18.2176  14691.7  120.698
 18.2596  14661.2  120.302
 18.3016  14820.2  121.213
 18.3436  14785.2  121.084
 18.3856  14793  121.24
 18.4276  14723.1  120.639
 18.4696  14483.4  119.732
 18.5116  14809.5  121.358
 18.5536  14644.2  121.032
 18.5956  14502.2  120.008
 18.6376  14495.1  120.386
 18.6796  14554.3  119.951
 18.7216  14594.8  120.604
 18.7636  14487.2  120.162
 18.8056  14241.9  119.062
 18.8476  14160.4  119.353
 18.8896  14331.1  119.402
 18.9316  14225.5  118.938
 18.9736  14428.8  119.487
 19.0156  14164.8  118.809
 19.0576  14403  118.632
 19.0996  14388.6  119.302
 19.1416  14260.1  119.163
 19.1836  14232.5  118.643
 19.2256  14113.4  118.375
 19.2676  14166.9  118.679
 19.3096  14155.5  118.889
 19.3516  14360.7  119.514
 19.3936  14148  118.706
 19.4356  14302.1  119.224
 19.4776  14189.6  118.851
 19.5196  14147.5  118.531
 19.5616  14068.4  118.458
 19.6036  14048.7  117.868
 19.6456  14089.5  118.16
 19.6876  14065.9  117.693
 19.7296  14291.5  119.094
 19.7716  14142.2  118.653
 19.8136  14460.2  120.169
 19.8556  14620.8  120.316
 19.8976  14284.9  118.983
 19.9396  14694  120.257
 19.9816  14838.4  121.102
 20.0236  15088.6  122.311
 20.0656  14978.7  121.87
 20.1076  14930.9  122.158
 20.1496  14383.2  119.893
 20.1916  14487.5  119.8
 20.2336  14154.1  118.373
 20.2756  13994.4  118.144
 20.3176  13718.9  116.72
 20.3596  13670.1  116.504
 20.4016  13657.5  116.244
 20.4436  13641.1  116.738
 20.4856  13682.4  116.708
 20.5276  13728.2  117.37
 20.5696  13526.5  116.063
 20.6116  13410.7  115.734
 20.6536  13479.1  115.537
 20.6956  13496.5  115.738
 20.7376  13354.6  115.346
 20.7796  13337.8  114.964
 20.8216  13503.8  115.388
 20.8636  13519.3  115.833
 20.9056  13242.2  114.578
 20.9476  13296.6  114.657
 20.9896  13432.7  115.107
 21.0316  13237.4  114.168
 21.0736  13334.3  115.111
 21.1156  13111.8  114.304
 21.1576  13116.6  114.356
 21.1996  13191.8  114.678
 21.2416  13133.8  114.241
 21.2836  13168.3  114.377
 21.3256  13223.7  114.69
 21.3676  13118.3  113.766
 21.4096  12979.5  113.538
 21.4516  12971.2  113.323
 21.4936  12813.4  112.9
 21.5356  13165.5  114.378
 21.5776  13157.6  114.173
 21.6196  12909.2  113.14
 21.6616  12820.1  112.826
 21.7036  13002.9  113.386
 21.7456  12979.7  113.372
 21.7876  12822.4  112.445
 21.8296  12933  112.765
 21.8716  12911.3  112.911
 21.9136  12936.1  113.225
 21.9556  12851.4  112.53
 21.9976  12699.7  111.887
 22.0396  12793  112.553
 22.0816  12714.5  112.731
 22.1236  12870  112.88
 22.1656  12888.3  113.101
 22.2076  12686.1  111.674
 22.2496  12565.9  111.17
 22.2916  12626.6  111.323
 22.3336  12533.7  111.636
 22.3756  12535.6  111.362
 22.4176  12618.7  111.584
 22.4596  12168.2  110.151
 22.5016  12443.6  110.899
 22.5436  12618.5  111.546
 22.5856  12682.4  112.079
 22.6276  12791.1  112.697
 22.6696  12440.8  111.497
 22.7116  12523.5  111.382
 22.7536  12709.8  112.178
 22.7956  12391.1  110.099
 22.8376  12354.7  110.45
 22.8796  12563.6  111.186
 22.9216  12671.4  112.206
 22.9636  12372.7  110.037
 23.0056  12423  110.392
 23.0476  12604.4  111.771
 23.0896  12952.4  112.672
 23.1316  12625.9  111.68
 23.1736  12746.5  115.171
 23.2156  12934.3  113.354
 23.2576  13036.3  113.937
 23.2996  12888.6  113.067
 23.3416  12817.8  113.284
 23.3836  12883.8  112.785
 23.4256  12898.4  112.986
 23.4676  12678  111.708
 23.5096  12762  112.74
 23.5516  12804.7  112.223
 23.5936  12919.1  113.643
 23.6356  12920.3  113.31
 23.6776  12732.7  112.694
 23.7196  12778.2  112.687
 23.7616  12740.6  112.219
 23.8036  12897.6  112.964
 23.8456  12500.6  110.763
 23.8876  12668.9  111.867
 23.9296  12514.7  111.675
 23.9716  12507.7  110.841
 24.0136  12570.6  112.034
 24.0556  12347.5  110.746
 24.0976  12512.5  111.303
 24.1396  12290.7  112.96
 24.1816  12373.1  111.716
 24.2236  12427.5  111.604
 24.2656  12326.3  110.62
 24.3076  12486.6  111.613
 24.3496  12203.6  110.222
 24.3916  12344.1  110.896
 24.4336  12303.5  110.919
 24.4756  12219.3  110.43
 24.5176  12080.6  109.426
 24.5596  12073.3  109.712
 24.6016  12028.1  109.611
 24.6436  12135.3  109.593
 24.6856  12000.1  108.73
 24.7276  11734.8  107.844
 24.7696  11834.2  108.404
 24.8116  11578  107.394
 24.8536  11758.9  108.246
 24.8956  11631.2  107.389
 24.9376  11632.9  107.576
 24.9796  11482  106.994
 25.0216  11530.1  107.325
 25.0636  11598.7  107.299
 25.1056  11361.1  106.889
 25.1476  11403.4  108.731
 25.1896  11486  107.616
 25.2316  11350.3  106.248
 25.2736  11391.7  106.099
 25.3156  11334  105.893
 25.3576  11243.5  105.909
 25.3996  11211.8  105.746
 25.4416  11252.6  105.916
 25.4836  11127.7  105.844
 25.5256  11111  105.126
 25.5676  11159.7  105.09
 25.6096  11091.1  105.345
 25.6516  11153.2  105.143
 25.6936  11228.2  105.805
 25.7356  11127.3  105.468
 25.7776  11088.9  104.952
 25.8196  10996.6  104.679
 25.8616  10961.8  104.447
 25.9036  11200  105.027
 25.9456  11009.2  104.735
 25.9876  11086.8  105.02
 26.0296  11117  104.822
 26.0716  11078.1  105.065
 26.1136  11114.8  105.168
 26.1556  11204.2  104.965
 26.1976  11022.5  105.051
 26.2396  11032.9  104.249
 26.2816  11013.4  104.769
 26.3236  11009  104.905
 26.3656  11125.7  105.18
 26.4076  11215.6  105.812
 26.4496  11222.7  105.434
 26.4916  11248.6  105.446
 26.5336  11355  106.285
 26.5756  11729.5  107.907
 26.6176  11162.2  105.281
 26.6596  11071.7  105.165
 26.7016  10792.3  103.599
 26.7436  10957  104.508
 26.7856  10841.6  103.945
 26.8276  10805.3  103.743
 26.8696  10875  103.942
 26.9116  10750  103.278
 26.9536  10716.6  103.169
 26.9956  10559.9  102.449
 27.0376  10660.9  103.158
 27.0796  10709.1  103.121
 27.1216  10676.3  103.009
 27.1636  10492.3  102.301
 27.2056  10558.1  102.503
 27.2476  10558.7  102.501
 27.2896  10476.4  102.213
 27.3316  10579.2  102.428
 27.3736  10378.8  101.73
 27.4156  10522.6  102.257
 27.4576  10556.1  102.648
 27.4996  10540.7  102.176
 27.5416  10457  102.076
 27.5836  10385.4  101.562
 27.6256  10435.8  101.994
 27.6676  10305.8  101.351
 27.7096  10413  101.753
 27.7516  10329.6  101.491
 27.7936  10633.3  103.117
 27.8356  10607.3  102.582
 27.8776  10560.2  102.441
 27.9196  10164  100.361
 27.9616  10415.7  101.792
 28.0036  10212.6  100.754
 28.0456  10285.5  101.256
 28.0876  10121.1  100.521
 28.1296  10220.3  100.855
 28.1716  10201.8  100.779
 28.2136  10200.9  100.742
 28.2556  10305.2  101.374
 28.2976  10084.8  100.277
 28.3396  10062.8  99.9273
 28.3816  10225.6  100.739
 28.4236  10035.4  99.9531
 28.4656  9932.17  99.4786
 28.5076  9934.66  99.134
 28.5496  9956.06  99.4927
 28.5916  10056.9  99.8061
 28.6336  9994  99.8367
 28.6756  10014.5  99.1241
 28.7176  9960.14  99.4181
 28.7596  9912.06  99.0799
 28.8016  10040.2  99.7534
 28.8436  9904  99.3137
 28.8856  9915.59  99.2158
 28.9276  9898.51  99.382
 28.9696  9778.53  98.4347
 29.0116  9809.67  98.7786
 29.0536  9689.87  98.3812
 29.0956  9783.53  98.5536
 29.1376  9850.81  98.8668
 29.1796  9813.99  98.73
 29.2216  9725.81  98.1249
 29.2636  9871.11  98.932
 29.3056  9761.45  98.156
 29.3476  9806.52  98.9188
 29.3896  9809.13  99.041
 29.4316  9700.16  97.8218
 29.4736  9556.75  97.1602
 29.5156  9670.3  97.6578
 29.5576  9604.66  98.0718
 29.5996  9489.3  96.7411
 29.6416  9576.55  97.3071
 29.6836  9687.65  97.7944
 29.7256  9541.21  97.6152
 29.7676  9382.7  96.4596
 29.8096  9452.32  96.7646
 29.8516  9341.18  96.5173
 29.8936  9552.14  97.7005
 29.9356  9581.28  97.6054
 29.9776  9456.53  97.116
 30.0196  9465.88  96.5589
 30.0616  9400.44  96.5958
 30.1036  9575.77  97.3193
 30.1456  9443.68  96.8711
 30.1876  9419.04  96.7326
 30.2296  9338.12  96.258
 30.2716  9491.36  96.6856
 30.3136  9511.93  97.6489
 30.3556  9709.59  98.6586
 30.3976  9524.22  99.2155
 30.4396  9895.14  98.4262
 30.4816  9764.21  97.3667
 30.5236  9773.81  97.42
 30.5656  9716.8  97.8034
 30.6076  9583.37  96.8818
 30.6496  9658.78  97.3321
 30.6916  9384.05  96.0288
 30.7336  9552.66  97.0284
 30.7756  9586.01  97.2793
 30.8176  9621.08  97.3794
 30.8596  9595.57  97.0171
 30.9016  9682  97.3246
 30.9436  9719.24  97.7401
 30.9856  9658.76  97.5453
 31.0276  9526.28  96.5003
 31.0696  9273.67  95.7721
 31.1116  9391  96.3505
 31.1536  9353.31  96.0304
 31.1956  9437.75  96.5522
 31.2376  9324.14  95.9883
 31.2796  9394.43  95.8915
 31.3216  9302.57  95.3376
 31.3636  9496.23  97.0462
 31.4056  9438.72  98.062
 31.4476  9476.37  96.1653
 31.4896  9552.29  97.0588
 31.5316  9467.91  96.0287
 31.5736  9580.99  96.4295
 31.6156  9486.68  95.9616
 31.6576  9524.83  96.2186
 31.6996  9528.06  95.9035
 31.7416  9474.29  96.5879
 31.7836  9451.97  95.6156
 31.8256  9413.09  95.6848
 31.8676  9567.26  96.4507
 31.9096  9308.29  95.3746
 31.9516  9233.61  95.3056
 31.9936  9229.65  95.1037
 32.0356  9367.3  95.8426
 32.0776  9345.45  95.6468
 32.1196  9488.46  96.3877
 32.1616  9434.34  95.6464
 32.2036  9264.14  95.2937
 32.2456  9234.48  95.5193
 32.2876  9369.34  95.7093
 32.3296  9353.45  95.586
 32.3716  9091.36  94.3546
 32.4136  9139.59  94.8044
 32.4556  9304.43  95.0332
 32.4976  9141.16  94.1401
 32.5396  9030.45  93.5971
 32.5816  9064.96  93.8988
 32.6236  9122.4  94.2576
 32.6656  9245.73  95.4486
 32.7076  9025.1  93.9582
 32.7496  9069.61  93.8646
 32.7916  9192.12  94.4531
 32.8336  9066.59  93.894
 32.8756  9153.65  94.0656
 32.9176  8923.48  93.3616
 32.9596  9088.28  94.2898
 33.0016  9162.45  94.4523
 33.0436  9026.51  93.9157
 33.0856  8980.46  93.7667
 33.1276  8873.24  92.9447
 33.1696  9140.1  94.1598
 33.2116  9052.04  93.9447
 33.2536  9211.22  94.7439
 33.2956  9174.2  94.6539
 33.3376  8857.6  92.8246
 33.3796  9021.45  93.8135
 33.4216  9029.22  93.4388
 33.4636  9050.78  93.709
 33.5056  8923.17  93.2989
 33.5476  8998.58  93.6637
 33.5896  8981.98  93.3739
 33.6316  8986.33  93.7071
 33.6736  8774.31  92.8367
 33.7156  8726.88  92.6181
 33.7576  8902.77  93.191
 33.7996  9023.33  93.573
 33.8416  8744.23  92.3047
 33.8836  8825.67  92.5087
 33.9256  8898.67  92.9442
 33.9676  8924.54  92.9739
 34.0096  8889.68  93.1118
 34.0516  8710.34  91.8049
 34.0936  8797.92  92.5408
 34.1356  8898.05  92.8036
 34.1776  8672.75  91.6182
 34.2196  8756.3  92.2418
 34.2616  8681.2  91.9886
 34.3036  8732.12  92.4987
 34.3456  8659.21  91.8571
 34.3876  8739.12  92.3514
 34.4296  8731.08  91.9065
 34.4716  8764.51  92.2363
 34.5136  8886.91  93.0746
 34.5556  8553.05  91.5515
 34.5976  8834.66  92.894
 34.6396  8669.41  91.7074
 34.6816  8802.22  92.5134
 34.7236  8724.14  91.8702
 34.7656  8799.75  92.4822
 34.8076  8670.66  92.1361
 34.8496  8499.38  91.0727
 34.8916  8616.79  91.5534
 34.9336  8697.8  91.9758
 34.9756  8799.03  92.4531
 35.0176  8758.73  92.7504
 35.0596  8809.96  92.8351
 35.1016  8672.31  91.8571
 35.1436  8799.76  92.2231
 35.1856  8604.51  91.3201
 35.2276  8554.71  91.2309
 35.2696  8722.62  92.3057
 35.3116  8549.32  91.4939
 35.3536  8568.81  91.3186
 35.3956  8572.1  91.0336
 35.4376  8621.4  91.8582
 35.4796  8664.61  92.121
 35.5216  8561.3  91.5388
 35.5636  8345.06  91.1213
 35.6056  8521.03  91.0935
 35.6476  8570.22  91.2535
 35.6896  8588.44  91.4443
 35.7316  8499.63  90.9452
 35.7736  8488.55  91.0678
 35.8156  8603.97  91.6837
 35.8576  8514  91.4616
 35.8996  8580.96  91.7846
 35.9416  8587.86  91.3307
 35.9836  8432.88  90.9527
 36.0256  8659.92  92.0729
 36.0676  8802.22  92.5669
 36.1096  8500.4  91.1271
 36.1516  8786.72  92.5337
 36.1936  8677.46  91.7695
 36.2356  8461.09  91.2914
 36.2776  8588.05  91.4286
 36.3196  8482.87  90.5462
 36.3616  8427.25  90.387
 36.4036  8383.36  90.22
 36.4456  8498.3  91.0491
 36.4876  8292.63  89.8794
 36.5296  8559.14  91.3504
 36.5716  8505.58  91.8476
 36.6136  8336.89  89.718
 36.6556  8317.25  89.797
 36.6976  8247.15  89.9238
 36.7396  8208.73  89.455
 36.7816  8233.96  89.9628
 36.8236  8202.14  89.7184
 36.8656  8131.62  89.3943
 36.9076  8118.17  89.2013
 36.9496  8054.57  88.8356
 36.9916  8087.21  88.6499
 37.0336  8367.88  90.4919
 37.0756  8247.05  89.6303
 37.1176  8058.99  88.8684
 37.1596  8050.26  88.8285
 37.2016  8221.07  89.9871
 37.2436  8200.07  89.1928
 37.2856  8115.24  88.9777
 37.3276  8145.79  88.5062
 37.3696  8128.93  89.3
 37.4116  8106.16  89.0743
 37.4536  8091.71  88.8563
 37.4956  7968.57  88.2302
 37.5376  8232.17  91.2747
 37.5796  8294.3  91.5388
 37.6216  8156.68  89.0378
 37.6636  8181.21  89.0618
 37.7056  8017.93  88.3478
 37.7476  8356.47  89.7389
 37.7896  8180.3  89.2967
 37.8316  8128.18  89.1664
 37.8736  8145.29  88.7888
 37.9156  8228.49  89.2293
 37.9576  8251.76  89.2706
 37.9996  8133.81  88.339
 38.0416  8226.79  89.6605
 38.0836  8208.99  89.4669
 38.1256  8329.53  90.0943
 38.1676  7948.8  88.119
 38.2096  8233.37  89.3051
 38.2516  8133  88.9794
 38.2936  8294.37  89.6524
 38.3356  8188.02  89.0033
 38.3776  7975.84  88.0823
 38.4196  8049.67  88.3541
 38.4616  8220.9  89.5401
 38.5036  8222.42  89.3787
 38.5456  8155.77  89.8601
 38.5876  8060.96  89.3659
 38.6296  8164.62  88.9013
 38.6716  8132.68  88.5301
 38.7136  8014  87.8314
 38.7556  7990.5  88.2055
 38.7976  8187.59  89.2094
 38.8396  7987.04  88.5795
 38.8816  7996.2  88.4155
 38.9236  8085.93  88.7139
 38.9656  8092.01  88.6501
 39.0076  8143.19  88.3357
 39.0496  8204.37  89.2212
 39.0916  8148.8  88.564
 39.1336  8123  88.8342
 39.1756  8104.35  88.7981
 39.2176  8059.91  89.0815
 39.2596  8119.21  89.3469
 39.3016  8221.91  89.4842
 39.3436  8031.93  88.8481
 39.3856  8205.08  89.2487
 39.4276  8184.72  89.647
 39.4696  8006.66  88.2894
 39.5116  8084.01  89.231
 39.5536  8116.74  89.825
 39.5956  8033.2  88.4728
 39.6376  8050.72  88.5669
 39.6796  8012.24  88.1002
 39.7216  8025.06  88.2683
 39.7636  8043.97  88.9327
 39.8056  8105.69  89.0619
 39.8476  7933.24  88.3667
 39.8896  8089.54  88.8577
 39.9316  7936.1  88.2614
 39.9736  8151.66  89.0244
 40.0156  7917.4  87.5638
 40.0576  7982.04  88.2708
 40.0996  8096.16  88.074
 40.1416  8041.28  88.5784
 40.1836  8148.87  89.0578
 40.2256  8008.54  88.3232
 40.2676  7887.89  87.827
 40.3096  8147.05  89.1179
 40.3516  8128.94  89.1286
 40.3936  8237.45  89.265
 40.4356  7943.01  87.8733
 40.4776  8141.08  89.1828
 40.5196  8107.62  89.3118
 40.5616  8156.21  89.2088
 40.6036  8028.13  88.7729
 40.6456  7967.62  88.0303
 40.6876  8137.59  88.9575
 40.7296  8015.04  88.4296
 40.7716  8003.25  88.4834
 40.8136  7967.89  88.2412
 40.8556  8177.97  89.5257
 40.8976  8056.45  88.7863
 40.9396  8051.41  89.0977
 40.9816  8153.03  88.9478
 41.0236  8071.9  88.2831
 41.0656  8092.86  88.9403
 41.1076  8061.68  88.5401
 41.1496  8095.93  88.6295
 41.1916  7933.33  88.0442
 41.2336  8092.4  88.9299
 41.2756  8084.78  88.4918
 41.3176  8082.54  89.0918
 41.3596  8092.35  88.8826
 41.4016  7976.2  88.5034
 41.4436  8133.93  89.1574
 41.4856  8014.6  88.6679
 41.5276  8075.84  89.0109
 41.5696  8035.61  88.4297
 41.6116  8053.3  88.9093
 41.6536  8075.1  88.8912
 41.6956  8122.7  89.1215
 41.7376  8033.62  88.7466
 41.7796  7880.35  87.7805
 41.8216  7999.09  88.672
 41.8636  7994.26  88.5963
 41.9056  8006.89  88.4506
 41.9476  8037.8  88.8596
 41.9896  8114.34  88.9394
 42.0316  8108.82  88.9981
 42.0736  8124.3  89.2128
 42.1156  8053.45  88.6328
 42.1576  8048.45  88.7163
 42.1996  7997.92  88.5582
 42.2416  8109.85  88.766
 42.2836  7940.56  87.9562
 42.3256  7950.16  88.1173
 42.3676  8100.99  88.7431
 42.4096  8126.29  88.8565
 42.4516  8098.69  88.7819
 42.4936  7931.83  87.9321
 42.5356  7885.66  87.8226
 42.5776  8005.79  88.4258
 42.6196  7980.78  88.3479
 42.6616  7811.71  87.5743
 42.7036  7999.63  87.9961
 42.7456  8028.73  88.5134
 42.7876  8005.38  88.4716
 42.8296  8007.17  88.3255
 42.8716  7924.17  88.0291
 42.9136  7786.55  87.0098
 42.9556  7986.63  88.2992
 42.9976  7983.61  88.2422
 43.0396  7910.85  87.5698
 43.0816  7918.04  88.0005
 43.1236  7916.99  88.0384
 43.1656  7899.22  87.7694
 43.2076  7869.7  87.7132
 43.2496  7861.01  87.488
 43.2916  7824.53  87.6453
 43.3336  7931.94  88.0706
 43.3756  7889.51  87.6012
 43.4176  7785.05  87.0945
 43.4596  7762.26  86.8216
 43.5016  7822.68  87.5592
 43.5436  7880.81  87.7882
 43.5856  7800.69  87.3777
 43.6276  7813.21  87.3376
 43.6696  7734.64  87.1524
 43.7116  7802.67  87.028
 43.7536  7839.69  87.7357
 43.7956  7667.27  87.985
 43.8376  7655.67  86.4372
 43.8796  7649.26  86.4808
 43.9216  7793.18  87.2086
 43.9636  7728.28  86.9493
 44.0056  7729.21  87.1909
 44.0476  7624.32  86.2245
 44.0896  7648.84  86.7111
 44.1316  7754.95  86.8293
 44.1736  7602.85  86.0987
 44.2156  7832.39  87.2444
 44.2576  7612.26  86.328
 44.2996  7649.08  86.5151
 44.3416  7654.88  86.2937
 44.3836  7579.11  86.2067
 44.4256  7583.44  85.8622
 44.4676  7629.79  86.2892
 44.5096  7567.06  86.0789
 44.5516  7489.95  85.6061
 44.5936  7581.16  86.0772
 44.6356  7700.73  86.4876
 44.6776  7616.31  86.3339
 44.7196  7627.34  86.6949
 44.7616  7645  88.1372
 44.8036  7730.34  87.2346
 44.8456  7720.16  87.1736
 44.8876  7708.08  86.9478
 44.9296  7910.62  87.5259
 44.9716  7832.34  87.5074
 45.0136  7704.57  86.7485
 45.0556  7711.98  86.8751
 45.0976  7803.37  87.4311
 45.1396  7668.16  86.4289
 45.1816  7640.95  86.2111
 45.2236  7772.56  86.8556
 45.2656  7578.14  86.2688
 45.3076  7643.38  86.4129
 45.3496  7610.11  86.5333
 45.3916  7582.82  86.6539
 45.4336  7702.86  87.1796
 45.4756  7787.98  87.5168
 45.5176  7702.49  86.6432
 45.5596  7801.55  87.3063
 45.6016  7641.05  86.8446
 45.6436  7698.35  86.3298
 45.6856  7696.23  86.9748
 45.7276  7538.14  87.4307
 45.7696  7533.66  87.0715
 45.8116  7637.02  87.0973
 45.8536  7478.73  86.0819
 45.8956  7686.29  86.6112
 45.9376  7698.2  86.1351
 45.9796  7707.89  86.8796
 46.0216  7752.82  87.4839
 46.0636  7674.69  86.1704
 46.1056  7583.93  85.6534
 46.1476  7709.55  86.9644
 46.1896  7761.11  87.4042
 46.2316  7592.63  86.3205
 46.2736  7591.49  86.5211
 46.3156  7771.81  87.2825
 46.3576  7591.33  86.468
 46.3996  7665.29  87.0546
 46.4416  7644.55  86.4761
 46.4836  7574.62  86.4633
 46.5256  7633.43  86.7425
 46.5676  7584.54  86.58
 46.6096  7579.16  86.4916
 46.6516  7620.56  85.7429
 46.6936  7589.03  86.0708
 46.7356  7726.2  86.9467
 46.7776  7518.8  86.6247
 46.8196  7554.23  86.5644
 46.8616  7492.77  86.0113
 46.9036  7459.57  85.4772
 46.9456  7505.89  85.3741
 46.9876  7570.68  85.8226
 47.0296  7570.79  86.5239
 47.0716  7494.42  85.9134
 47.1136  7567.93  86.0023
 47.1556  7621.06  86.1718
 47.1976  7596.78  86.1971
 47.2396  7456.93  85.725
 47.2816  7433.71  85.2905
 47.3236  7544.35  86.2931
 47.3656  7478.69  85.853
 47.4076  7557.23  86.019
 47.4496  7597.72  86.4303
 47.4916  7498.11  86.0431
 47.5336  7516.53  85.97
 47.5756  7567.66  86.3828
 47.6176  7436.08  85.5131
 47.6596  7467.82  85.4173
 47.7016  7620.64  86.0975
 47.7436  7538.21  85.9769
 47.7856  7620.34  86.4641
 47.8276  7554.81  86.139
 47.8696  7458.04  85.6738
 47.9116  7603.81  86.2183
 47.9536  7514.94  85.6511
 47.9956  7384.71  85.6255
 48.0376  7409.24  85.5418
 48.0796  7497.12  86.1738
 48.1216  7542.07  86.2522
 48.1636  7615.08  86.2239
 48.2056  7480.72  85.7326
 48.2476  7600.75  86.7229
 48.2896  7594.26  86.6066
 48.3316  7580.53  86.4551
 48.3736  7492.28  85.9846
 48.4156  7446.09  85.5639
 48.4576  7521.44  86.3008
 48.4996  7612.46  86.2616
 48.5416  7656.29  86.8423
 48.5836  7492.29  85.5729
 48.6256  7580.97  86.2903
 48.6676  7537.67  86.5772
 48.7096  7489.92  85.5499
 48.7516  7466.35  85.5698
 48.7936  7404.2  85.2797
 48.8356  7493.08  85.8402
 48.8776  7499.49  86.4604
 48.9196  7604.69  86.4136
 48.9616  7392.74  85.5894
 49.0036  7514.08  86.6367
 49.0456  7392.58  85.9166
 49.0876  7445.83  85.764
 49.1296  7347.66  85.3592
 49.1716  7391.15  85.4748
 49.2136  7481.49  85.918
 49.2556  7413.18  85.5687
 49.2976  7476.25  85.9956
 49.3396  7444.86  85.868
 49.3816  7567.83  85.9779
 49.4236  7431.56  85.6475
 49.4656  7333.19  85.099
 49.5076  7433.85  85.4257
 49.5496  7412.66  85.3695
 49.5916  7458.79  85.5471
 49.6336  7372.56  85.2473
 49.6756  7451.11  85.9523
 49.7176  7418.77  85.7042
 49.7596  7387.41  85.2842
 49.8016  7470.14  85.6801
 49.8436  7398.58  85.5754
 49.8856  7415.05  85.6654
 49.9276  7276.04  84.9707
 49.9696  7394.97  85.6436
 50.0116  7386.53  85.71
 50.0536  7441.39  85.9873
 50.0956  7369.38  85.6462
 50.1376  7374.1  85.3524
 50.1796  7343.66  85.4633
 50.2216  7318.84  85.3108
 50.2636  7377.08  85.2553
 50.3056  7211.96  84.4828
 50.3476  7396.33  85.5747
 50.3896  7381.93  85.462
 50.4316  7437.2  85.6062
 50.4736  7238.63  84.675
 50.5156  7351.46  85.3239
 50.5576  7451.24  85.6522
 50.5996  7270.47  84.9025
 50.6416  7340.41  85.232
 50.6836  7393.89  85.6035
 50.7256  7348.83  85.2616
 50.7676  7508.9  86.5217
 50.8096  7334.27  85.0371
 50.8516  7376.97  85.7054
 50.8936  7244.96  84.7107
 50.9356  7459.87  86.0681
 50.9776  7308.78  85.3568
 51.0196  7040.41  83.9079
 51.0616  7185.86  84.0821
 51.1036  7252.63  84.8368
 51.1456  7201.12  84.4454
 51.1876  7307.14  84.3706
 51.2296  7132.38  84.0007
 51.2716  7157.24  83.8593
 51.3136  7081.28  83.8843
 51.3556  7070.93  83.4288
 51.3976  7184.72  84.2589
 51.4396  6932.53  83.0832
 51.4816  7089.73  83.8708
 51.5236  7132.25  84.2126
 51.5656  7234.19  84.3834
 51.6076  7130.26  83.8718
 51.6496  7116.01  83.9775
 51.6916  7008.2  83.7097
 51.7336  7047.67  84.0322
 51.7756  7074.72  83.8702
 51.8176  7169.23  84.5585
 51.8596  7039.59  83.805
 51.9016  7306.71  84.9696
 51.9436  7180.82  85.7518
 51.9856  7246.76  86.5866
 52.0276  7174.31  84.588
 52.0696  7365.93  85.7888
 52.1116  7077.88  84.2176
 52.1536  7194.78  84.7399
 52.1956  7093.45  83.6462
 52.2376  7305.25  85.0591
 52.2796  7254.84  84.5805
 52.3216  7008.23  83.8277
 52.3636  7255.8  84.8506
 52.4056  7088.45  83.7216
 52.4476  7015.3  83.6632
 52.4896  7050.23  83.9201
 52.5316  7170.6  84.6841
 52.5736  6954.19  83.1047
 52.6156  7184.31  84.8868
 52.6576  6960.1  82.9686
 52.6996  7028.71  84.3906
 52.7416  6968.88  83.8829
 52.7836  7117.1  84.6575
 52.8256  7164.59  84.1295
 52.8676  6873.67  82.9873
 52.9096  7150.2  84.7094
 52.9516  6998.91  84.2173
 52.9936  7031.01  84.7856
 53.0356  7112.65  84.2437
 53.0776  7086.23  84.3819
 53.1196  7068.09  84.3896
 53.1616  7088.75  84.572
 53.2036  7053.24  84.3183
 53.2456  6947.29  83.7924
 53.2876  7061.84  84.1546
 53.3296  7114.34  84.8072
 53.3716  7127.82  84.6238
 53.4136  7077.82  84.488
 53.4556  6964.3  83.835
 53.4976  7037.84  84.1208
 53.5396  6976.86  84.1628
 53.5816  7089.71  84.459
 53.6236  6963.11  84.058
 53.6656  7030.12  84.043
 53.7076  7049.37  84.1386
 53.7496  7047.43  84.2529
 53.7916  7046.86  84.3868
 53.8336  6966.02  83.7814
 53.8756  6915.92  84.056
 53.9176  6945.61  83.5584
 53.9596  6740.8  83.0914
 54.0016  6800.52  82.7747
 54.0436  6616.27  81.864
 54.0856  6821.62  82.542
 54.1276  6734.87  82.21
 54.1696  6741.05  82.4237
 54.2116  6862.89  82.8945
 54.2536  6734.89  81.9419
 54.2956  6773.6  82.222
 54.3376  6691.71  82.2014
 54.3796  6636.14  81.778
 54.4216  6788.97  82.7855
 54.4636  6657.65  81.9281
 54.5056  6781.85  82.4776
 54.5476  6766.7  82.7441
 54.5896  6686.33  82.0899
 54.6316  6702.91  82.036
 54.6736  6786.84  82.6348
 54.7156  6659.32  81.8767
 54.7576  6586.49  81.4023
 54.7996  6708.33  82.3278
 54.8416  6680.72  82.1951
 54.8836  6650.75  82.0881
 54.9256  6594.26  81.504
 54.9676  6586.99  81.3297
 55.0096  6633.81  81.6411
 55.0516  6540.56  81.2976
 55.0936  6587.05  81.2619
 55.1356  6530.07  80.9568
 55.1776  6696.55  82.217
 55.2196  6679.2  81.912
 55.2616  6784.67  82.7611
 55.3036  6562.13  81.5831
 55.3456  6482.2  81.2226
 55.3876  6613.15  81.7415
 55.4296  6433.45  80.6563
 55.4716  6625  81.8649
 55.5136  6531.1  81.0479
 55.5556  6754.56  82.4707
 55.5976  6610.13  81.6652
 55.6396  6577.54  81.3192
 55.6816  6565.14  81.1938
 55.7236  6430.7  80.411
 55.7656  6547.65  80.8897
 55.8076  6479.86  80.4574
 55.8496  6630.88  81.8085
 55.8916  6493.97  81.079
 55.9336  6628.97  81.7175
 55.9756  6504.78  80.8376
 56.0176  6453.13  80.6516
 56.0596  6487.9  80.8775
 56.1016  6452.96  80.683
 56.1436  6465.42  81.0142
 56.1856  6391.47  80.292
 56.2276  6683.27  82.1434
 56.2696  6545.91  81.2925
 56.3116  6601.38  82.0098
 56.3536  6491.89  80.9834
 56.3956  6485.94  80.939
 56.4376  6479.33  80.9628
 56.4796  6312.8  79.7186
 56.5216  6446.7  80.9241
 56.5636  6398.13  80.2065
 56.6056  6524.7  81.2173
 56.6476  6408.44  80.0988
 56.6896  6575.48  81.6195
 56.7316  6391.94  80.3913
 56.7736  6409  80.4918
 56.8156  6439.17  80.6951
 56.8576  6276.43  79.6131
 56.8996  6452.36  80.6121
 56.9416  6353.46  80.3284
 56.9836  6474.2  80.5859
 57.0256  6463.29  80.8475
 57.0676  6470.84  80.9979
 57.1096  6454.52  80.6985
 57.1516  6264.12  79.5619
 57.1936  6422.08  80.2874
 57.2356  6225.79  79.3972
 57.2776  6362.9  80.2337
 57.3196  6355.9  80.5249
 57.3616  6345.59  79.9493
 57.4036  6396.14  80.3286
 57.4456  6490.89  80.892
 57.4876  6318.53  79.6842
 57.5296  6383.12  80.4202
 57.5716  6235.4  79.4934
 57.6136  6181.53  78.9843
 57.6556  6331.59  80.063
 57.6976  6382.64  80.2126
 57.7396  6304.23  80.083
 57.7816  6180.16  79.6663
 57.8236  6279.7  80.0806
 57.8656  6397.38  80.4805
 57.9076  6356.29  80.2319
 57.9496  6269.25  80.0656
 57.9916  6297.84  79.7443
 58.0336  6274.34  79.8911
 58.0756  6255.8  79.3769
 58.1176  6328.48  79.8441
 58.1596  6152.45  79.3184
 58.2016  6091.36  78.1427
 58.2436  6098.75  78.6006
 58.2856  6098.6  78.5221
 58.3276  6050.55  78.5854
 58.3696  6017.34  78.1216
 58.4116  6161.9  78.9193
 58.4536  6103.8  78.4317
 58.4956  6130.51  78.7844
 58.5376  6163.36  78.5562
 58.5796  5946.06  77.5832
 58.6216  6077.12  78.2531
 58.6636  6094.87  78.5777
 58.7056  6056.71  78.1905
 58.7476  6026.23  78.4363
 58.7896  6023.31  78.0621
 58.8316  6061.51  78.3088
 58.8736  5979.67  77.7868
 58.9156  6002.87  77.9817
 58.9576  6033.2  78.4915
 58.9996  6106.98  78.226
 59.0416  6125.31  78.7021
 59.0836  6166.87  78.8792
 59.1256  6003.52  78.535
 59.1676  6035.95  79.0593
 59.2096  6110.2  78.8353
 59.2516  6165.12  78.7655
 59.2936  6019.99  78.1604
 59.3356  5839.25  76.858
 59.3776  6038.39  78.3265
 59.4196  5910.81  77.4313
 59.4616  5985.91  77.7823
 59.5036  5951.43  77.591
 59.5456  6141.21  78.5113
 59.5876  5995.24  77.763
 59.6296  5912.41  77.2924
 59.6716  5944.15  77.5571
 59.7136  6020.03  78.0389
 59.7556  5910.46  77.4604
 59.7976  6011.02  77.8593
 59.8396  5995.54  77.6537
 59.8816  5950.58  77.9032
 59.9236  6045.67  78.1668
 59.9656  5909.2  77.5374
 60.0076  6025.32  77.6537
 60.0496  6080.34  78.5129
 60.0916  6100.48  78.0581
 60.1336  5918.52  77.9812
 60.1756  5994.73  79.6614
 60.1996  0.0000000E+00  0.0000000E+00