File: docs/examples/XRD/IS17_D/Data/IS17_D/17_Db_f00019.xye
# /beamlines/bl04/projects/cycle2025-II/20250340211-lsimonelli/DATA/IS17_D/17_Db_f00019.xye : mythproc.py merge -s 0.006 -l 0.5 -f /beamlines/bl04/inhouse/ff/FlatField/ff_20Nov2024rod8mm60s_17keV.raw -b True -c true -o xye /beamlines/bl04/projects/cycle2025-II/20250340211-lsimonelli/DATA/IS17_D/17_Db_00019.dat
# IsMon = [6776673, 6778008, 6775945]  IsPos = [-1.5000, -2.4885, -3.4986]
# Wave = 0.4962  CalPath /beamlines/bl04/projects/cycle2025-II/20250340211-lsimonelli/DATA/Align/Si_Pos1_25keV_f00001.cal
# Date = 2025-09-23_23:00:17 Dt = 4.8000  Bin = 0.0060  <imon> = 6776875 +/- 854 (Min/Max) 6775945 / 6778008
# icurr 252.5057  mocoIn 1.7223E-05  mocoOut 0.8082  i15 7.09333e+06  imon 6.77688e+06  i7 5.0000  iEMpd_timer 4.8000  iEMpd_1 3.5093E-08  iEMpd_2 7.8610E-08  iEMpd_3 1.6909E-08  iEMpd_4 4.7384E-08  iEMhp_timer 4.8000  iEMhp_1 4.9323E-06  iEMhp_2 -2.4980E-08  iEMhp_3 -2.3706E-08  iEMhp_4 -2.1073E-08
#      9776
 1.5856  42744.9  212.301
 1.6276  49635.9  224.849
 1.6696  55502.4  236.927
 1.7116  62767.6  252.45
 1.7536  70812.9  266.999
 1.7956  75136.8  275.716
 1.8376  72015  270.356
 1.8796  61689.3  248.386
 1.9216  50873.5  226.46
 1.9636  43649.4  209.434
 2.0056  39103.7  196.963
 2.0476  36620.1  192.695
 2.0896  35597.3  188.871
 2.1316  34226.1  184.307
 2.1736  32421.9  180.806
 2.2156  32969.8  180.864
 2.2576  31955.6  178.696
 2.2996  30872.4  176.289
 2.3416  31089.7  175.497
 2.3836  30615.7  174.261
 2.4256  29426.4  171.399
 2.4676  29354.3  170.947
 2.5096  29704.5  172.02
 2.5516  34833.3  190.528
 2.5936  121506  348.747
 2.6356  31322.4  177.807
 2.6776  27768.7  166.315
 2.7196  26899.8  164.175
 2.7616  26536.3  162.856
 2.8036  25972  161.274
 2.8456  25947.1  161.835
 2.8876  25405.9  159.977
 2.9296  24995  158.829
 2.9716  24877.6  157.95
 3.0136  24516.6  156.866
 3.0556  24515.8  157.252
 3.0976  24547.3  156.266
 3.1396  24282.8  156.157
 3.1816  23964.3  155.069
 3.2236  23825.8  154.608
 3.2656  23468  152.502
 3.3076  23461.1  153.932
 3.3496  23717.8  153.947
 3.3916  24345.6  155.541
 3.4336  24435.6  156.413
 3.4756  24747.2  157.352
 3.5176  25580.9  159.741
 3.5596  24951.5  160.741
 3.6016  25464.1  159.454
 3.6436  24701.7  158.146
 3.6856  24175.7  154.784
 3.7276  23116.5  152.409
 3.7696  23115.7  152.392
 3.8116  22689.7  151.081
 3.8536  22813.6  151.427
 3.8956  22597.8  150.532
 3.9376  23255.8  153.01
 3.9796  22588.9  150.26
 4.0216  22635.7  149.466
 4.0636  22576.8  150.723
 4.1056  22376  149.707
 4.1476  22871.5  151.653
 4.1896  22898.8  151.615
 4.2316  23123.6  152.188
 4.2736  23638.5  153.671
 4.3156  23402.1  153.132
 4.3576  24384.2  156.189
 4.3996  24567.8  156.871
 4.4416  25480.5  159.546
 4.4836  26304.8  162.268
 4.5256  26711.6  164.124
 4.5676  26106.2  162.508
 4.6096  26492.4  162.741
 4.6516  27184.5  164.19
 4.6936  27197.8  165.054
 4.7356  28098.5  167.576
 4.7776  27422.2  165.385
 4.8196  26997.8  164.733
 4.8616  26417.2  162.582
 4.9036  26409  162.161
 4.9456  26351.4  162.631
 4.9876  25496.4  159.876
 5.0296  25689.5  160.326
 5.0716  25522.5  160.4
 5.1136  25774.9  161.061
 5.1556  26083.3  161.484
 5.1976  33582.5  183.207
 5.2396  26911.6  163.718
 5.2816  26654  163.397
 5.3236  26394.1  162.297
 5.3656  25980.1  161.939
 5.4076  25810.8  161.54
 5.4496  25726  160.79
 5.4916  25942  161.211
 5.5336  25737.8  160.592
 5.5756  25849.9  160.947
 5.6176  25709.2  159.969
 5.6596  26157.2  162.171
 5.7016  26105.3  161.441
 5.7436  26355.6  162.486
 5.7856  26186.9  162.028
 5.8276  26300.5  162.1
 5.8696  26551.1  162.93
 5.9116  26402.5  163.15
 5.9536  26826.3  164.22
 5.9956  27027.3  164.24
 6.0376  26780.1  164.092
 6.0796  27209.1  165.232
 6.1216  27280.7  165.645
 6.1636  27440.3  165.198
 6.2056  27382.4  165.698
 6.2476  27774.2  166.559
 6.2896  27837.4  166.619
 6.3316  27989.1  167.244
 6.3736  27900.8  166.881
 6.4156  27980.2  167.054
 6.4576  28182.2  167.231
 6.4996  28200.3  167.752
 6.5416  28415.7  168.52
 6.5836  28482.5  168.955
 6.6256  28384  168.228
 6.6676  29056.9  169.773
 6.7096  28634.7  169.388
 6.7516  29236  170.82
 6.7936  30424.7  173.413
 6.8356  30582.2  174.206
 6.8776  30200.8  173.913
 6.9196  29722.8  172.921
 6.9616  30149.9  173.576
 7.0036  30512.1  174.317
 7.0456  30684.4  174.116
 7.0876  30719.1  175.785
 7.1296  30394.1  174.092
 7.1716  30603.7  174.239
 7.2136  30098.7  172.572
 7.2556  30434.7  173.695
 7.2976  30317.2  173.836
 7.3396  30097  173.421
 7.3816  30454.6  174.664
 7.4236  30687.2  174.637
 7.4656  31030.9  175.065
 7.5076  31040.8  175.256
 7.5496  30613.8  174.578
 7.5916  30803.2  175.156
 7.6336  31854  178.005
 7.6756  31321.6  176.365
 7.7176  31863.1  178.198
 7.7596  31870.3  179.416
 7.8016  36938.2  195.527
 7.8436  31915.7  178.471
 7.8856  32060.4  178.49
 7.9276  32837.1  181.04
 7.9696  32712.7  180.985
 8.0116  33974.1  183.386
 8.0536  34558.6  184.836
 8.0956  36324.3  190.683
 8.1376  34760  186.02
 8.1796  34896.2  186.904
 8.2216  35591.8  187.529
 8.2636  36513.4  190.19
 8.3056  35750.2  188.951
 8.3476  37863.5  193.775
 8.3896  36439.8  190.621
 8.4316  35901  188.93
 8.4736  36116.8  188.975
 8.5156  35771.8  188.341
 8.5576  35412.8  188.329
 8.5996  35183  186.635
 8.6416  35226.9  187.975
 8.6836  35146.6  187.604
 8.7256  36046.9  189.439
 8.7676  37969.3  197.402
 8.8096  38624.5  196.332
 8.8516  36705.1  191.013
 8.8936  37390.3  192.689
 8.9356  35947  189.26
 8.9776  35685.8  188.652
 9.0196  35937.9  188.989
 9.0616  35587.8  187.579
 9.1036  37063  192.609
 9.1456  34769.1  185.888
 9.1876  34786.4  185.883
 9.2296  34294.1  184.021
 9.2716  34179  183.739
 9.3136  33926.7  183.06
 9.3556  34390.1  184.279
 9.3976  33296.8  181.824
 9.4396  33399  182.024
 9.4816  33151.1  181.2
 9.5236  32808.2  180.162
 9.5656  32582.2  179.894
 9.6076  31798.2  178.229
 9.6496  32018.9  178.737
 9.6916  32133.2  179.012
 9.7336  32364.4  179.443
 9.7756  31875.4  179.254
 9.8176  31767.8  178.51
 9.8596  31785.4  177.032
 9.9016  31396.7  175.934
 9.9436  30737.8  173.829
 9.9856  31520.9  176.476
 10.0276  30281.8  174.016
 10.0696  30721.4  174.324
 10.1116  29934.2  172.346
 10.1536  29916.6  171.958
 10.1956  29474.2  170.788
 10.2376  29163.5  169.403
 10.2796  29256.8  169.787
 10.3216  28753.4  168.45
 10.3636  28889.2  169.019
 10.4056  31316.3  176.392
 10.4476  31998.6  177.897
 10.4896  35782.4  187.517
 10.5316  33122  180.819
 10.5736  28674.7  168.989
 10.6156  28391.8  167.911
 10.6576  33615.5  181.158
 10.6996  28361.1  167.1
 10.7416  27163.2  163.74
 10.7836  27955.6  166.788
 10.8256  26290.4  162.165
 10.8676  26259.7  161.612
 10.9096  26369.9  162
 10.9516  25917.5  159.564
 10.9936  26825.7  162.548
 11.0356  26195.3  161.218
 11.0776  27368.6  164.124
 11.1196  27044.6  163.921
 11.1616  25449.7  158.686
 11.2036  26622.1  162.147
 11.2456  27999  167.008
 11.2876  25447.1  158.96
 11.3296  25473.6  158.958
 11.3716  25611.8  159.125
 11.4136  25118.4  158.404
 11.4556  25281.3  158.591
 11.4976  26644.9  161.785
 11.5396  27141.2  163.457
 11.5816  25675.4  159.408
 11.6236  24830  157.216
 11.6656  25005.9  156.721
 11.7076  24146  154.819
 11.7496  24428.7  159.661
 11.7916  24666.9  155.735
 11.8336  23646.6  153.38
 11.8756  24028  154.145
 11.9176  23467.1  152.252
 11.9596  23494.1  152.271
 12.0016  23368.6  152.613
 12.0436  23209.3  151.56
 12.0856  22961  151.235
 12.1276  23040  151.448
 12.1696  22966.1  150.337
 12.2116  23319.5  151.493
 12.2536  25598.2  159.535
 12.2956  23397.6  151.902
 12.3376  23381.9  152.054
 12.3796  23093.3  151.588
 12.4216  23336.6  151.585
 12.4636  24151.3  155.157
 12.5056  22858.8  150.228
 12.5476  23039.5  150.338
 12.5896  22633.4  149.642
 12.6316  22836.8  150.455
 12.6736  22768.9  150.576
 12.7156  22953.6  151.165
 12.7576  22711.1  150.619
 12.7996  23088.7  150.515
 12.8416  23226.4  152.012
 12.8836  23883.7  153.948
 12.9256  23415.1  151.514
 12.9676  23242.7  151.336
 13.0096  23362.6  152.826
 13.0516  23386.6  151.944
 13.0936  23326.1  151.881
 13.1356  23580.5  151.972
 13.1776  23701.7  153.367
 13.2196  23479.5  152.292
 13.2616  22919.3  150.776
 13.3036  23628.5  153.221
 13.3456  22922.6  150.895
 13.3876  23749.8  153.084
 13.4296  23305.2  151.795
 13.4716  23526.9  152.151
 13.5136  23434.1  151.981
 13.5556  23534.6  152.918
 13.5976  23537  153.098
 13.6396  23684.5  152.941
 13.6816  23729.2  153.427
 13.7236  24071.8  154.248
 13.7656  25806.2  160.124
 13.8076  27302.2  163.402
 13.8496  25334.5  158.216
 13.8916  23838.5  154.4
 13.9336  22979.7  150.894
 13.9756  23162.2  150.887
 14.0176  22807.8  150.39
 14.0596  23838.3  153.688
 14.1016  22732.3  150.487
 14.1436  22816.7  149.909
 14.1856  22301.9  148.5
 14.2276  22635.3  150.088
 14.2696  22500.9  149.493
 14.3116  21813  147.096
 14.3536  21510.8  146.239
 14.3956  21475.2  145.844
 14.4376  21598.2  146.053
 14.4796  21611  146.095
 14.5216  21278.2  145.742
 14.5636  21737.2  146.877
 14.6056  21367  145.186
 14.6476  20950.7  143.024
 14.6896  20699.6  142.701
 14.7316  20338.5  142.46
 14.7736  20121.5  140.851
 14.8156  20145.4  140.968
 14.8576  20077.5  140.59
 14.8996  19959.9  141.348
 14.9416  19473.8  139.636
 14.9836  19466.5  139.595
 15.0256  18884.9  136.436
 15.0676  18762.1  136.292
 15.1096  18576.3  135.364
 15.1516  18402.3  135.263
 15.1936  18419.7  134.779
 15.2356  18308.9  134.64
 15.2776  18402.8  134.584
 15.3196  17988.1  134.028
 15.3616  17791.7  133.064
 15.4036  17815.8  133.014
 15.4456  17952.8  132.963
 15.4876  17670  131.822
 15.5296  17512.7  131.506
 15.5716  17177.3  129.863
 15.6136  17179  130.184
 15.6556  18734.7  135.184
 15.6976  17545.7  130.902
 15.7396  17379.2  130.872
 15.7816  17287.4  130.046
 15.8236  16704.8  128.51
 15.8656  16762.3  128.528
 15.9076  16763.9  128.362
 15.9496  17937.9  135.598
 15.9916  16871.4  131.894
 16.0336  17016.9  129.402
 16.0756  16832.9  129.011
 16.1176  16538.1  127.795
 16.1596  16381.6  128.502
 16.2016  16292.4  126.937
 16.2436  16376.5  127.633
 16.2856  16543  127.813
 16.3276  15948.7  125.916
 16.3696  16225  126.828
 16.4116  16103.6  126.799
 16.4536  16084.1  126.525
 16.4956  16925.9  129.533
 16.5376  16322.4  127.392
 16.5796  15971.7  125.389
 16.6216  15969.2  125.643
 16.6636  15806.4  125.193
 16.7056  15780.7  124.938
 16.7476  15689  124.266
 16.7896  15941.8  125.854
 16.8316  15880.3  125.593
 16.8736  16237.9  127.246
 16.9156  16125  127.137
 16.9576  15527.7  125.517
 16.9996  15706.1  126.722
 17.0416  15611.7  124.74
 17.0836  15650.8  124.661
 17.1256  15427.4  123.771
 17.1676  15963.3  125.871
 17.2096  15647.9  124.523
 17.2516  15728.2  124.921
 17.2936  15195.8  122.842
 17.3356  14987.1  121.979
 17.3776  14781.7  121.324
 17.4196  14954.6  121.738
 17.4616  15007.1  121.845
 17.5036  15330.9  123.525
 17.5456  14677.6  121.49
 17.5876  14794.1  121.043
 17.6296  14867.6  121.154
 17.6716  14752.2  121.268
 17.7136  15465.9  124.297
 17.7556  14696.2  121.45
 17.7976  14556.7  120.477
 17.8396  14690.5  120.668
 17.8816  14147.9  118.977
 17.9236  14270.5  119.27
 17.9656  14296.6  120.066
 18.0076  14720.8  121.279
 18.0496  15105.3  121.971
 18.0916  19506.9  139.24
 18.1336  17430.2  131.723
 18.1756  15382.2  123.287
 18.2176  16062.8  126.206
 18.2596  14288.5  118.754
 18.3016  14916.7  121.605
 18.3436  15444.2  123.983
 18.3856  14703.8  120.87
 18.4276  14081.6  117.98
 18.4696  14213.3  118.615
 18.5116  14337.6  119.402
 18.5536  13982.7  118.283
 18.5956  14142.9  118.517
 18.6376  14280.8  119.493
 18.6796  13946.9  117.425
 18.7216  14288.6  119.408
 18.7636  13987.1  118.073
 18.8056  13531.3  116.061
 18.8476  13486.7  116.181
 18.8896  13367.9  115.321
 18.9316  13568.9  116.012
 18.9736  13535.7  115.728
 19.0156  13955.9  117.911
 19.0576  14009  116.995
 19.0996  13649.1  116.197
 19.1416  13660.6  116.624
 19.1836  13429.4  115.252
 19.2256  13292.6  114.883
 19.2676  13457.5  115.667
 19.3096  13267.4  115.096
 19.3516  13396.4  115.424
 19.3936  13443.8  115.777
 19.4356  13525.6  115.952
 19.4776  13447.1  115.699
 19.5196  13292.4  114.887
 19.5616  13382.2  115.528
 19.6036  13307.6  114.581
 19.6456  13545.1  115.85
 19.6876  13801.9  116.578
 19.7296  13623.9  116.277
 19.7716  13278.7  114.829
 19.8136  13637.8  116.709
 19.8556  13841.3  117.066
 19.8976  13930.1  117.488
 19.9396  13793  116.512
 19.9816  13950.5  117.423
 20.0236  14532.1  120.025
 20.0656  13840.4  117.141
 20.1076  13648.8  116.794
 20.1496  13322.7  115.391
 20.1916  13480.7  115.556
 20.2336  13343.8  114.937
 20.2756  13072.1  114.177
 20.3176  12945.2  113.387
 20.3596  12992.9  113.583
 20.4016  13006.6  113.44
 20.4436  12954.1  113.776
 20.4856  12863.6  113.163
 20.5276  12772  113.213
 20.5696  12727.9  112.583
 20.6116  12819.4  113.151
 20.6536  12604.7  111.777
 20.6956  12617.5  111.908
 20.7376  12642  112.227
 20.7796  12626.5  111.85
 20.8216  12795.8  112.325
 20.8636  12978  113.493
 20.9056  13895.8  117.376
 20.9476  12975.6  113.261
 20.9896  13874.4  116.987
 21.0316  12665.1  111.664
 21.0736  12943.7  113.405
 21.1156  13209.3  114.726
 21.1576  12810.9  113.016
 21.1996  12612.1  112.127
 21.2416  12609.7  111.941
 21.2836  12703.7  112.339
 21.3256  12682.3  112.31
 21.3676  12560.3  111.323
 21.4096  12799  112.749
 21.4516  12392.5  110.762
 21.4936  12282.7  110.529
 21.5356  12438.9  111.177
 21.5776  12542.5  111.48
 21.6196  12486.6  111.264
 21.6616  12572.1  111.728
 21.7036  12440.4  110.916
 21.7456  12283.6  110.287
 21.7876  12187.1  109.624
 21.8296  12096  109.068
 21.8716  12248.5  109.97
 21.9136  12477  111.189
 21.9556  12459.6  110.792
 21.9976  12319.4  110.201
 22.0396  12303.8  110.379
 22.0816  12193.7  110.406
 22.1236  12597  111.676
 22.1656  12182  110.01
 22.2076  12005  108.625
 22.2496  11933.5  108.329
 22.2916  11957.6  108.329
 22.3336  12122.8  109.766
 22.3756  12011.9  109.01
 22.4176  11810.5  107.946
 22.4596  11572.2  107.425
 22.5016  11947.4  108.667
 22.5436  12042.9  108.978
 22.5856  12392.5  110.79
 22.6276  12447.2  111.158
 22.6696  11934.2  109.202
 22.7116  11799.4  108.101
 22.7536  11939.5  108.723
 22.7956  12004.8  108.364
 22.8376  11659.8  107.303
 22.8796  11932.6  108.356
 22.9216  11869.7  108.601
 22.9636  11829.1  107.592
 23.0056  11809.2  107.63
 23.0476  11991  109.014
 23.0896  12227.9  109.474
 23.1316  12193.5  109.749
 23.1736  12184.2  112.597
 23.2156  12157.7  109.843
 23.2576  12394.6  111.107
 23.2996  12026.4  109.235
 23.3416  12351.6  111.218
 23.3836  12139.1  109.485
 23.4256  12386.4  110.729
 23.4676  12294.3  110.016
 23.5096  12221.4  110.333
 23.5516  12048.9  108.863
 23.5936  12365.5  111.194
 23.6356  12470.2  111.33
 23.6776  11970  109.595
 23.7196  12255.9  110.371
 23.7616  12169.5  109.687
 23.8036  12129.7  109.558
 23.8456  12008.3  108.574
 23.8876  11876.2  108.317
 23.9296  11916.1  108.988
 23.9716  12044.8  108.787
 24.0136  12032.4  109.622
 24.0556  11782.1  108.2
 24.0976  11866.9  108.402
 24.1396  11637.7  109.904
 24.1816  11859.4  109.72
 24.2236  11765.3  108.562
 24.2656  11884.6  108.607
 24.3076  11722  108.132
 24.3496  12061  109.559
 24.3916  11937.3  109.052
 24.4336  11710  108.201
 24.4756  11704.2  108.066
 24.5176  11593.6  107.191
 24.5596  11494  107.049
 24.6016  11470.7  107.027
 24.6436  11597.5  107.133
 24.6856  11504.2  106.431
 24.7276  11440.9  106.474
 24.7696  11405.8  106.418
 24.8116  11449.4  106.792
 24.8536  11226.9  105.757
 24.8956  11375.3  106.184
 24.9376  11380.7  106.389
 24.9796  11271.4  105.985
 25.0216  11148.9  105.53
 25.0636  11443.2  106.562
 25.1056  11117.1  105.463
 25.1476  10943.8  106.516
 25.1896  10941.2  105.027
 25.2316  10950.6  104.252
 25.2736  11000.6  104.252
 25.3156  10784.3  103.3
 25.3576  10760.3  103.606
 25.3996  10809.2  103.834
 25.4416  10734.5  103.446
 25.4836  10779.9  104.175
 25.5256  10903.3  104.141
 25.5676  10844.6  103.584
 25.6096  10514.4  102.57
 25.6516  10831.4  103.606
 25.6936  10794.8  103.745
 25.7356  10473.1  102.32
 25.7776  10689.5  103.056
 25.8196  10568.5  102.628
 25.8616  10677.6  103.086
 25.9036  10987.5  104.03
 25.9456  10706.9  103.28
 25.9876  10759.1  103.451
 26.0296  10686.8  102.857
 26.0716  10676.7  103.143
 26.1136  10862.2  103.962
 26.1556  10912.1  103.497
 26.1976  10442.5  102.248
 26.2396  10607.6  102.456
 26.2816  10592.2  102.744
 26.3236  10559.7  102.66
 26.3656  10681.1  103.048
 26.4076  10403  101.898
 26.4496  10776.5  103.301
 26.4916  10886.7  103.74
 26.5336  11116.2  105.163
 26.5756  11289.2  105.863
 26.6176  10865.3  103.869
 26.6596  10599.1  102.904
 26.7016  10370.2  101.588
 26.7436  10388  101.77
 26.7856  10278.3  101.204
 26.8276  10357.2  101.565
 26.8696  10218.4  100.747
 26.9116  10455  101.857
 26.9536  10196.3  100.634
 26.9956  10094.2  100.16
 27.0376  10175.2  100.781
 27.0796  10218.1  100.763
 27.1216  10457.5  101.961
 27.1636  10032.7  100.034
 27.2056  10115.8  100.334
 27.2476  10098.8  100.229
 27.2896  9982.14  99.6893
 27.3316  10112.3  100.14
 27.3736  9857.49  99.1379
 27.4156  9990.36  99.632
 27.4576  10061.1  100.202
 27.4996  10214  100.573
 27.5416  10119.9  100.42
 27.5836  10013  99.7271
 27.6256  10057.5  100.129
 27.6676  9938.71  99.5181
 27.7096  10098  100.204
 27.7516  10534.7  102.494
 27.7936  10684.5  103.363
 27.8356  10345.1  101.328
 27.8776  10276.5  101.059
 27.9196  10010.2  99.5996
 27.9616  10172  100.595
 28.0036  9956.85  99.4902
 28.0456  9789.64  98.7862
 28.0876  9783.73  98.8371
 28.1296  9871.34  99.1136
 28.1716  9905.35  99.304
 28.2136  9787.83  98.6839
 28.2556  9899.01  99.35
 28.2976  9742.45  98.5587
 28.3396  9761.35  98.4505
 28.3816  9746.38  98.3461
 28.4236  9838.09  98.9653
 28.4656  9619.88  97.9009
 28.5076  9551.7  97.1938
 28.5496  9564.17  97.5127
 28.5916  9767.56  98.3629
 28.6336  9663.31  98.1707
 28.6756  9695.04  97.5358
 28.7176  9585.05  97.531
 28.7596  9523.27  97.1119
 28.8016  9472.81  96.971
 28.8436  9461.91  97.0672
 28.8856  9488.77  97.0609
 28.9276  9526.68  97.4929
 28.9696  9483.54  96.9339
 29.0116  9400.47  96.6731
 29.0536  9253.96  96.1435
 29.0956  9508.06  97.1593
 29.1376  9575.45  97.4709
 29.1796  9410.26  96.6702
 29.2216  9319.08  96.046
 29.2636  9535.77  97.1591
 29.3056  9330.51  95.9649
 29.3476  9346.53  96.5677
 29.3896  9400.24  96.9642
 29.4316  9279.82  95.6828
 29.4736  9182.96  95.2457
 29.5156  9218.57  95.3446
 29.5576  9174.22  95.839
 29.5996  9144.69  94.9669
 29.6416  9051.72  94.5942
 29.6836  9162.08  95.1029
 29.7256  9161.3  95.6485
 29.7676  9236.04  95.7099
 29.8096  9134.03  95.121
 29.8516  8943.58  94.4512
 29.8936  9063.43  95.1666
 29.9356  9182.74  95.5506
 29.9776  9012.45  94.8093
 30.0196  9117.85  94.7636
 30.0616  9122.03  95.1519
 30.1036  9074.64  94.7337
 30.1456  8868.51  93.9001
 30.1876  8937.38  94.2176
 30.2296  8884.84  93.8973
 30.2716  9009.03  94.195
 30.3136  8908.24  94.2462
 30.3556  9236.44  96.2222
 30.3976  9167.15  97.3106
 30.4396  9526.9  96.5879
 30.4816  9315.71  95.1255
 30.5236  9391.81  95.5099
 30.5656  9197.09  95.1603
 30.6076  9121.11  94.5352
 30.6496  9261.55  95.3126
 30.6916  9024.77  94.1882
 30.7336  9186.46  95.1623
 30.7756  9129.81  95.1744
 30.8176  9070.08  94.5632
 30.8596  9257  95.2938
 30.9016  9279.19  95.2871
 30.9436  9090.9  94.5296
 30.9856  9237.19  95.4048
 31.0276  9120.72  94.44
 31.0696  9112.08  94.8128
 31.1116  9192.79  95.3448
 31.1536  9161.35  95.0375
 31.1956  9187.33  95.2804
 31.2376  8817.34  93.3621
 31.2796  8981.03  93.7637
 31.3216  9070.43  94.1597
 31.3636  8997.18  94.4584
 31.4056  8911.69  95.2772
 31.4476  9071.62  94.0822
 31.4896  9132.87  94.8966
 31.5316  9256.12  94.98
 31.5736  9806.49  97.5423
 31.6156  9623.65  96.6395
 31.6576  9430.72  95.745
 31.6996  9254.26  94.5232
 31.7416  9313.13  95.7673
 31.7836  9127.14  93.9503
 31.8256  9101  94.1607
 31.8676  9181.5  94.4888
 31.9096  9001.37  93.7713
 31.9516  9059.4  94.3943
 31.9936  8790.24  92.8012
 32.0356  9058.65  94.2479
 32.0776  9072.05  94.2269
 32.1196  8976.49  93.7476
 32.1616  9051.59  93.6752
 32.2036  9000.13  93.9202
 32.2456  8969.28  94.1341
 32.2876  8830.41  92.7391
 32.3296  8815.1  92.7925
 32.3716  8806.02  92.8549
 32.4136  8632.51  92.1343
 32.4556  8897.32  92.9895
 32.4976  8790.17  92.3279
 32.5396  8730.35  92.0333
 32.5816  8743.59  92.1309
 32.6236  8840.43  92.7952
 32.6656  8844.73  93.357
 32.7076  8726.45  92.3932
 32.7496  8611.98  91.4628
 32.7916  8618.42  91.4588
 32.8336  8675.25  91.8499
 32.8756  8753.47  92.0742
 32.9176  8659.45  91.9716
 32.9596  8719.87  92.3642
 33.0016  8673.1  91.8973
 33.0436  8651.73  91.9514
 33.0856  8546.77  91.4808
 33.1276  8600.64  91.503
 33.1696  8681.98  91.7717
 33.2116  8564.82  91.3752
 33.2536  8807.26  92.6454
 33.2956  8660.65  91.9613
 33.3376  8568.03  91.2713
 33.3796  8674.77  91.9976
 33.4216  8531.59  90.8343
 33.4636  8626.82  91.4832
 33.5056  8471.38  90.7457
 33.5476  8551.01  91.2983
 33.5896  8609.42  91.3921
 33.6316  8564.89  91.4766
 33.6736  8379.14  90.7257
 33.7156  8439.11  91.0783
 33.7576  8642.82  91.8203
 33.7996  8542.52  91.0487
 33.8416  8344.76  90.1704
 33.8836  8451.38  90.5221
 33.9256  8578.05  91.2573
 33.9676  8602.22  91.2815
 34.0096  8452.75  90.7936
 34.0516  8417.44  90.244
 34.0936  8347.14  90.1355
 34.1356  8513.55  90.7744
 34.1776  8296.89  89.6112
 34.2196  8306.13  89.8371
 34.2616  8260.47  89.7912
 34.3036  8507.52  91.2933
 34.3456  8290.04  89.8768
 34.3876  8434.26  90.7289
 34.4296  8403.54  90.1617
 34.4716  8441.49  90.518
 34.5136  8404.84  90.514
 34.5556  8241.83  89.8837
 34.5976  8532.44  91.2892
 34.6396  8362.75  90.0642
 34.6816  8420.93  90.4743
 34.7236  8456.18  90.4508
 34.7656  8464.6  90.7044
 34.8076  8141.82  89.2853
 34.8496  8254.27  89.7507
 34.8916  8315.22  89.9417
 34.9336  8352.9  90.1312
 34.9756  8424.52  90.4623
 35.0176  8391.18  90.7831
 35.0596  8480.6  91.0858
 35.1016  8367.51  90.2271
 35.1436  8383.83  90.0075
 35.1856  8328.31  89.8345
 35.2276  8250.09  89.5896
 35.2696  8218.86  89.6011
 35.3116  8249.97  89.8755
 35.3536  8349.02  90.1507
 35.3956  8193.21  88.9941
 35.4376  8386.03  90.599
 35.4796  8225.77  89.7574
 35.5216  8318.45  90.1616
 35.5636  7998.67  89.2003
 35.6056  8137.35  89.0196
 35.6476  8282.41  89.7037
 35.6896  8288.04  89.9017
 35.7316  8206.93  89.3609
 35.7736  8119.06  89.0513
 35.8156  8129.63  89.1209
 35.8576  8133.74  89.3928
 35.8996  8239.8  89.9385
 35.9416  8162.69  89.0318
 35.9836  8184.11  89.5996
 36.0256  8384.54  90.5936
 36.0676  8307.11  89.7043
 36.1096  8224.85  89.632
 36.1516  8267.77  89.7546
 36.1936  8296.21  89.7551
 36.2356  8105  89.3579
 36.2776  8146.03  89.0525
 36.3196  8059.57  88.2609
 36.3616  8088.41  88.5413
 36.4036  8137.05  88.8787
 36.4456  8136.87  89.0848
 36.4876  8060.14  88.6059
 36.5296  8078.41  88.7449
 36.5716  8193.65  90.1451
 36.6136  8106.36  88.4685
 36.6556  8018.27  88.1807
 36.6976  7992.34  88.5218
 36.7396  7937.47  88.0451
 36.7816  7880.65  88.0101
 36.8236  7841.1  87.708
 36.8656  7838.06  87.762
 36.9076  7882.28  88.0185
 36.9496  7711.18  87.0716
 36.9916  7762.66  86.8474
 37.0336  8007.58  88.5263
 37.0756  8002.6  88.2906
 37.1176  7745.34  87.2129
 37.1596  7761.82  87.2217
 37.2016  7830.53  87.776
 37.2436  7883.56  87.4454
 37.2856  7761.43  87.0193
 37.3276  7865.32  86.9655
 37.3696  7707.35  86.9448
 37.4116  7778.91  87.263
 37.4536  7699.19  86.679
 37.4956  7621.21  86.2913
 37.5376  7852.48  89.1479
 37.5796  7895.35  89.3196
 37.6216  7865.11  87.4417
 37.6636  7901.74  87.5266
 37.7056  7890.93  87.6627
 37.7476  7934.88  87.4495
 37.7896  7781.12  87.1002
 37.8316  7831.16  87.5354
 37.8736  7859.1  87.2242
 37.9156  7871.96  87.2931
 37.9576  7737.59  86.5967
 37.9996  7752.49  86.2554
 38.0416  7825.11  87.4562
 38.0836  7933.94  87.9657
 38.1256  7911.21  87.8111
 38.1676  7730.42  86.917
 38.2096  7947.44  87.7316
 38.2516  8036.47  88.368
 38.2936  8017.73  88.1504
 38.3356  7803.49  86.8978
 38.3776  7755.8  86.8629
 38.4196  7788.39  86.9193
 38.4616  7787.06  87.1537
 38.5036  7920.17  87.7391
 38.5456  7773.74  87.74
 38.5876  7714.23  87.4203
 38.6296  7913.41  87.5114
 38.6716  7774.55  86.5525
 38.7136  7845.56  86.8927
 38.7556  7716.61  86.6714
 38.7976  7775.53  86.9156
 38.8396  7678.03  86.8346
 38.8816  7644.65  86.4463
 38.9236  7748  86.8313
 38.9656  7885.03  87.5085
 39.0076  7805.25  86.47
 39.0496  7844.32  87.2368
 39.0916  7820.67  86.7545
 39.1336  7763.53  86.8374
 39.1756  7824.93  87.2407
 39.2176  7615.58  86.589
 39.2596  7725.87  87.1281
 39.3016  7750.61  86.8733
 39.3436  7723.51  87.1243
 39.3856  7790.45  86.9495
 39.4276  7897.5  88.0563
 39.4696  7805.93  87.1654
 39.5116  7843.99  87.8866
 39.5536  7718.35  87.5935
 39.5956  7717.69  86.7158
 39.6376  7640.95  86.1213
 39.6796  7630.74  85.9696
 39.7216  7700.1  86.4666
 39.7636  7698.22  87.0042
 39.8056  7685.12  86.7213
 39.8476  7638.31  86.7058
 39.8896  7760.4  87.034
 39.9316  7626.49  86.524
 39.9736  7671.52  86.3614
 40.0156  7655.9  86.1004
 40.0576  7635.68  86.3362
 40.0996  7719.21  86.0043
 40.1416  7643.52  86.3638
 40.1836  7818.36  87.2341
 40.2256  7645.56  86.2946
 40.2676  7583.74  86.1248
 40.3096  7824.29  87.3312
 40.3516  7721.71  86.9489
 40.3936  7826.13  87.0205
 40.4356  7691.01  86.4644
 40.4776  7805.99  87.3403
 40.5196  7731.22  87.2115
 40.5616  7936.45  88.002
 40.6036  7618.36  86.4785
 40.6456  7702.88  86.5674
 40.6876  7865.27  87.4609
 40.7296  7666.88  86.4869
 40.7716  7743.21  87.0362
 40.8136  7630.71  86.3485
 40.8556  7802.72  87.4393
 40.8976  7767.83  87.178
 40.9396  7697.62  87.1185
 40.9816  7850.31  87.277
 41.0236  7757.58  86.544
 41.0656  7744.77  87.0066
 41.1076  7691.84  86.484
 41.1496  7776.03  86.8537
 41.1916  7731.42  86.9302
 41.2336  7721.88  86.8698
 41.2756  7691.26  86.31
 41.3176  7753.9  87.2603
 41.3596  7708.8  86.7493
 41.4016  7610.93  86.4551
 41.4436  7808.48  87.3552
 41.4856  7757.09  87.2233
 41.5276  7627.11  86.5134
 41.5696  7720.22  86.6588
 41.6116  7763.81  87.3022
 41.6536  7741.83  87.0383
 41.6956  7817.77  87.4451
 41.7376  7658.41  86.6508
 41.7796  7646.31  86.5196
 41.8216  7700.19  87.0042
 41.8636  7691.5  86.902
 41.9056  7656.37  86.4926
 41.9476  7660.28  86.7488
 41.9896  7781.08  87.0984
 42.0316  7775.48  87.1511
 42.0736  7805.94  87.4554
 42.1156  7666.74  86.4741
 42.1576  7724.26  86.9097
 42.1996  7767.48  87.28
 42.2416  7699.73  86.4949
 42.2836  7784.54  87.0795
 42.3256  7683.88  86.6241
 42.3676  7816.23  87.1583
 42.4096  7773.02  86.8984
 42.4516  7873.09  87.5413
 42.4936  7584.24  85.9897
 42.5356  7605.93  86.2516
 42.5776  7708.5  86.7687
 42.6196  7636.24  86.3332
 42.6616  7473.3  85.6561
 42.7036  7642.47  86.0071
 42.7456  7762.98  87.0381
 42.7876  7628.46  86.3569
 42.8296  7739.22  86.8989
 42.8716  7639.68  86.4375
 42.9136  7514.35  85.4795
 42.9556  7593.95  86.0888
 42.9976  7687.24  86.587
 43.0396  7568.55  85.6591
 43.0816  7537.75  85.8598
 43.1236  7599.67  86.262
 43.1656  7595.81  86.0585
 43.2076  7551.84  85.9237
 43.2496  7538.75  85.6754
 43.2916  7545.71  86.0645
 43.3336  7574.29  86.0647
 43.3756  7614.55  86.0538
 43.4176  7463.99  85.2797
 43.4596  7516.55  85.437
 43.5016  7599.96  86.3009
 43.5436  7625.96  86.3632
 43.5856  7410.1  85.1635
 43.6276  7454.19  85.2999
 43.6696  7476.71  85.575
 43.7116  7617.66  85.9906
 43.7536  7623.76  86.5181
 43.7956  7394.46  86.4055
 43.8376  7396.54  84.9571
 43.8796  7323.07  84.6155
 43.9216  7388.15  84.9104
 43.9636  7347.75  84.7872
 44.0056  7373.54  85.1592
 44.0476  7340.97  84.6108
 44.0896  7269.12  84.5297
 44.1316  7277.98  84.2482
 44.1736  7304.45  84.3936
 44.2156  7445.71  85.0529
 44.2576  7345.38  84.8004
 44.2996  7371.23  84.911
 44.3416  7416.13  84.9493
 44.3836  7202.99  84.0387
 44.4256  7201.43  83.6814
 44.4676  7348.54  84.683
 44.5096  7194.49  83.9313
 44.5516  7378.15  84.9527
 44.5936  7243.94  84.1375
 44.6356  7371.4  84.6169
 44.6776  7308.82  84.5668
 44.7196  7262.81  84.5672
 44.7616  7334.07  86.325
 44.8036  7436.26  85.5677
 44.8456  7402.16  85.3722
 44.8876  7392.9  85.1651
 44.9296  7499.52  85.2223
 44.9716  7375.99  84.9539
 45.0136  7503.56  85.6167
 45.0556  7450.87  85.4032
 45.0976  7460.24  85.4954
 45.1396  7354.44  84.6493
 45.1816  7449.78  84.9698
 45.2236  7412.75  84.8354
 45.2656  7359.34  85.0177
 45.3076  7330.37  84.6356
 45.3496  7296.74  84.7437
 45.3916  7412.57  85.686
 45.4336  7504.67  86.0592
 45.4756  7391.62  85.245
 45.5176  7406.86  84.9726
 45.5596  7506.38  85.6634
 45.6016  7390.48  85.4184
 45.6436  7363.54  84.443
 45.6856  7335.56  84.9319
 45.7276  7276.98  86.3843
 45.7696  7258.85  85.4704
 45.8116  7359.84  85.4818
 45.8536  7229.68  84.6272
 45.8956  7309.43  84.4474
 45.9376  7318.06  83.9719
 45.9796  7450.21  85.4248
 46.0216  7411.22  85.5246
 46.0636  7465.19  84.9748
 46.1056  7322.39  84.1511
 46.1476  7430.52  85.365
 46.1896  7401.01  85.3366
 46.2316  7342.23  84.8504
 46.2736  7306.88  84.8739
 46.3156  7284.14  84.4944
 46.3576  7371.88  85.2033
 46.3996  7210.95  84.4105
 46.4416  7285.99  84.4162
 46.4836  7333.84  85.0776
 46.5256  7530.24  86.1444
 46.5676  7241.02  84.5864
 46.6096  7235.28  84.4827
 46.6516  7474.46  84.9118
 46.6936  7377.04  84.8523
 46.7356  7530.78  85.8371
 46.7776  7196.99  84.7515
 46.8196  7241.58  84.7522
 46.8616  7099.31  83.7236
 46.9036  7232.63  84.1542
 46.9456  7144.76  83.3008
 46.9876  7206.78  83.7386
 47.0296  7243.98  84.644
 47.0716  7193.09  84.1692
 47.1136  7223.12  84.0198
 47.1556  7247.35  84.0358
 47.1976  7216.28  83.9995
 47.2396  7189.35  84.1646
 47.2816  7059.65  83.1081
 47.3236  7236.51  84.5159
 47.3656  7237.68  84.4539
 47.4076  7292.46  84.5088
 47.4496  7150.34  83.8442
 47.4916  7191  84.2682
 47.5336  7229.27  84.3069
 47.5756  7226.86  84.3755
 47.6176  7099.85  83.5712
 47.6596  7186.93  83.7851
 47.7016  7257.35  84.0147
 47.7436  7197.94  83.9959
 47.7856  7347.43  84.9027
 47.8276  7253.45  84.4059
 47.8696  7148.24  83.8787
 47.9116  7231.42  84.078
 47.9536  7175.62  83.6941
 47.9956  7075.74  83.8144
 48.0376  7019.54  83.2528
 48.0796  7209.54  84.5011
 48.1216  7115.85  83.7746
 48.1636  7324.36  84.5622
 48.2056  7215.89  84.1987
 48.2476  7321.75  85.125
 48.2896  7265.27  84.7054
 48.3316  7291.69  84.803
 48.3736  7135.11  83.9056
 48.4156  7163.3  83.9268
 48.4576  7117.63  83.9514
 48.4996  7264.97  84.2656
 48.5416  7290.93  84.7467
 48.5836  7105.18  83.3321
 48.6256  7270.69  84.515
 48.6676  7189.11  84.5527
 48.7096  7222.83  84.0092
 48.7516  7241.37  84.2631
 48.7936  7076.04  83.3696
 48.8356  7162.17  83.9239
 48.8776  7231.66  84.8261
 48.9196  7270.04  84.4929
 48.9616  7214.14  84.5526
 49.0036  7269.72  85.2277
 49.0456  7158.78  84.551
 49.0876  7164.87  84.2243
 49.1296  7125.7  84.0525
 49.1716  6976.2  83.046
 49.2136  7244.16  84.5424
 49.2556  7269.49  84.7353
 49.2976  7187.26  84.3015
 49.3396  7198.85  84.4385
 49.3816  7234.85  84.0751
 49.4236  7188.1  84.2103
 49.4656  7108.59  83.7856
 49.5076  7128.68  83.6507
 49.5496  7121.65  83.5522
 49.5916  7095.79  83.4351
 49.6336  7172.93  84.0913
 49.6756  7224.3  84.6293
 49.7176  7182.37  84.3272
 49.7596  7136.61  84.0066
 49.8016  7170.87  83.9406
 49.8436  7056.65  83.5721
 49.8856  7016.13  83.3344
 49.9276  7077.77  83.7967
 49.9696  7113.49  83.9964
 50.0116  7077.15  83.9056
 50.0536  7136.01  84.1993
 50.0956  7038.31  83.6978
 50.1376  7147.5  84.0349
 50.1796  7092.41  83.9876
 50.2216  7047.12  83.7179
 50.2636  7077.04  83.4997
 50.3056  7089.49  83.7542
 50.3476  7050.28  83.5426
 50.3896  7073.32  83.6578
 50.4316  7059.71  83.4054
 50.4736  7049.69  83.5723
 50.5156  6967.33  83.065
 50.5576  7179.28  84.0676
 50.5996  7007.87  83.3538
 50.6416  6932.05  82.8219
 50.6836  7085.36  83.7946
 50.7256  6991.28  83.1573
 50.7676  7200.02  84.6772
 50.8096  7037.44  83.2934
 50.8516  6927.89  83.0603
 50.8936  6923.81  82.811
 50.9356  7074.48  83.8231
 50.9776  7076.98  83.9992
 51.0196  6874.07  82.9102
 51.0616  6959.19  82.737
 51.1036  6984.29  83.251
 51.1456  6964.13  83.0385
 51.1876  6887.37  81.9225
 51.2296  6885.67  82.5489
 51.2716  6877.72  82.2063
 51.3136  6771.75  82.0292
 51.3556  6841.81  82.0734
 51.3976  6831.37  82.1567
 51.4396  6672.97  81.5116
 51.4816  6862.56  82.515
 51.5236  6838.68  82.4501
 51.5656  6856.96  82.1604
 51.6076  6954.16  82.8213
 51.6496  6808.15  82.144
 51.6916  6753.22  82.1624
 51.7336  6855.86  82.8855
 51.7756  6962.19  83.208
 51.8176  6753.23  82.0571
 51.8596  6864.55  82.7544
 51.9016  6956.35  82.9081
 51.9436  6820.29  83.5831
 51.9856  6822.86  84.0107
 52.0276  6978.94  83.4331
 52.0696  6926.77  83.1911
 52.1116  6841.57  82.8123
 52.1536  6968.24  83.4013
 52.1956  6890.22  82.444
 52.2376  7076.7  83.7268
 52.2796  6920.71  82.6188
 52.3216  6656.76  81.7114
 52.3636  6982.56  83.234
 52.4056  6767.38  81.8175
 52.4476  6761.9  82.1463
 52.4896  6683.14  81.7202
 52.5316  6940.95  83.3251
 52.5736  6765.42  81.9746
 52.6156  6979.66  83.6753
 52.6576  6779.22  81.9002
 52.6996  6511.87  81.2376
 52.7416  6627.66  81.8146
 52.7836  6774.81  82.6078
 52.8256  6854.34  82.2978
 52.8676  6668.43  81.7462
 52.9096  6771.08  82.4351
 52.9516  6762.56  82.776
 52.9936  6781.49  83.265
 53.0356  6978.33  83.4461
 53.0776  6772.42  82.5085
 53.1196  6853.72  83.0991
 53.1616  6828.3  82.9958
 53.2036  6840.08  83.0289
 53.2456  6711.18  82.3484
 53.2876  6817.53  82.671
 53.3296  6718.7  82.4115
 53.3716  6885.48  83.1682
 53.4136  6701.76  82.2037
 53.4556  6692.67  82.1794
 53.4976  6780.54  82.5451
 53.5396  6744.57  82.7348
 53.5816  6723.01  82.2427
 53.6236  6631.78  82.032
 53.6656  6710.89  82.1111
 53.7076  6876.01  83.0729
 53.7496  6817.11  82.8581
 53.7916  6746.11  82.5684
 53.8336  6802.99  82.8019
 53.8756  6612.53  82.175
 53.9176  6598.41  81.44
 53.9596  6533.53  81.7951
 54.0016  6458.23  80.6626
 54.0436  6431.33  80.7225
 54.0856  6585.3  81.1018
 54.1276  6566.58  81.1833
 54.1696  6550.87  81.2415
 54.2116  6558.98  81.0532
 54.2536  6497.53  80.462
 54.2956  6558.24  80.9
 54.3376  6410.18  80.4699
 54.3796  6482.46  80.812
 54.4216  6566.68  81.4065
 54.4636  6428.1  80.5025
 54.5056  6459.57  80.4919
 54.5476  6427.47  80.6435
 54.5896  6344.32  79.9647
 54.6316  6450.77  80.4677
 54.6736  6387.9  80.1159
 54.7156  6393.11  80.2107
 54.7576  6316.3  79.7309
 54.7996  6552.68  81.3611
 54.8416  6559.19  81.4457
 54.8836  6502.06  81.1816
 54.9256  6385  80.2091
 54.9676  6309.69  79.6036
 55.0096  6371.36  80.0177
 55.0516  6305.71  79.783
 55.0936  6334.01  79.6875
 55.1356  6347.72  79.8089
 55.1776  6529.24  81.185
 55.2196  6402.97  80.1852
 55.2616  6463.3  80.803
 55.3036  6271.3  79.7519
 55.3456  6206.27  79.4702
 55.3876  6338  80.0289
 55.4296  6235.1  79.3963
 55.4716  6317.02  79.9344
 55.5136  6339.2  79.8352
 55.5556  6488.64  80.8202
 55.5976  6335.52  79.9552
 55.6396  6324.96  79.7367
 55.6816  6344.6  79.8212
 55.7236  6205.33  79.0947
 55.7656  6278.94  79.1732
 55.8076  6197.71  78.6883
 55.8496  6415.68  80.4754
 55.8916  6311.09  79.859
 55.9336  6431.02  80.5061
 55.9756  6225.74  79.082
 56.0176  6311.88  79.7783
 56.0596  6227.37  79.2242
 56.1016  6108.58  78.5273
 56.1436  6146.97  78.9823
 56.1856  6171.75  78.9007
 56.2276  6321.58  79.8913
 56.2696  6159.87  78.8409
 56.3116  6236.82  79.7189
 56.3536  6243.81  79.4253
 56.3956  6233.67  79.3579
 56.4376  6240.95  79.4379
 56.4796  6107.44  78.3983
 56.5216  6197.85  79.363
 56.5636  6132.92  78.5118
 56.6056  6295.81  79.774
 56.6476  6114.87  78.2358
 56.6896  6320.71  80.0027
 56.7316  6219.79  79.3024
 56.7736  6157.13  78.8695
 56.8156  6215.05  79.2812
 56.8576  6012.56  77.909
 56.8996  6199.43  79.0146
 56.9416  6022.91  78.0654
 56.9836  6239.97  79.1184
 57.0256  6173.07  79.0058
 57.0676  6255.39  79.6319
 57.1096  6159.72  78.8293
 57.1516  5935.69  77.3927
 57.1936  6176.71  78.7467
 57.2356  6006.63  77.9676
 57.2776  6106.31  78.5729
 57.3196  6132.55  79.0903
 57.3616  6180.26  78.9008
 57.4036  6183.28  78.9716
 57.4456  6145.24  78.7226
 57.4876  6069.36  78.0912
 57.5296  6070.87  78.3214
 57.5716  5934.4  77.544
 57.6136  6054.41  78.1671
 57.6556  6052.69  78.2637
 57.6976  6099.23  78.4091
 57.7396  5975.43  77.9539
 57.7816  6078.06  78.9876
 57.8236  5953.3  77.958
 57.8656  6000.46  77.9504
 57.9076  5945.01  77.6092
 57.9496  6005.76  78.3673
 57.9916  6035.99  78.0145
 58.0336  6061.18  78.5234
 58.0756  6073.54  78.1835
 58.1176  6062.3  78.1381
 58.1596  5964.92  78.1001
 58.2016  5809.15  76.3301
 58.2436  5837.25  76.8901
 58.2856  5804.6  76.6084
 58.3276  5806.66  76.9787
 58.3696  5825.36  76.8635
 58.4116  5867.4  77.0076
 58.4536  5739.13  76.0491
 58.4956  5790.06  76.5639
 58.5376  5772.71  76.0264
 58.5796  5712.75  76.0495
 58.6216  5783.19  76.3357
 58.6636  5707.89  76.0462
 58.7056  5732.83  76.0684
 58.7476  5751.37  76.6234
 58.7896  5661.66  75.6824
 58.8316  5872.83  77.0688
 58.8736  5848.59  76.9281
 58.9156  5693.16  75.9369
 58.9576  5748.28  76.5133
 58.9996  5724.38  75.7286
 59.0416  5880.77  77.1184
 59.0836  5736.28  76.0809
 59.1256  5778.83  76.7472
 59.1676  5730.77  77.0336
 59.2096  5783.2  76.7112
 59.2516  5835.58  76.646
 59.2936  5831.12  76.9391
 59.3356  5685.3  75.8524
 59.3776  5641.11  75.7204
 59.4196  5698.89  76.0447
 59.4616  5697.32  75.8985
 59.5036  5623.01  75.4355
 59.5456  5815.79  76.4173
 59.5876  5770.5  76.306
 59.6296  5630.64  75.4424
 59.6716  5762.61  76.378
 59.7136  5792.01  76.5611
 59.7556  5630.99  75.6212
 59.7976  5594.89  75.1302
 59.8396  5768.15  76.1813
 59.8816  5737.17  76.5082
 59.9236  5759.07  76.306
 59.9656  5754.78  76.5299
 60.0076  5647.94  75.1968
 60.0496  5824.35  76.857
 60.0916  5852.51  76.4696
 60.1336  5665.79  76.3125
 60.1756  5618.23  77.1339
 60.1996  0.0000000E+00  0.0000000E+00