File: docs/examples/XRD/IS17_D/Data/IS17_D/17_Da_f00116.xye
# /beamlines/bl04/projects/cycle2025-II/20250340211-lsimonelli/DATA/IS17_D/17_Da_f00116.xye : mythproc.py merge -s 0.006 -l 0.5 -f /beamlines/bl04/inhouse/ff/FlatField/ff_20Nov2024rod8mm60s_17keV.raw -b True -c true -o xye /beamlines/bl04/projects/cycle2025-II/20250340211-lsimonelli/DATA/IS17_D/17_Da_00116.dat
# IsMon = [6746665, 6753098, 6756291]  IsPos = [-1.4999, -2.4884, -3.4988]
# Wave = 0.4962  CalPath /beamlines/bl04/projects/cycle2025-II/20250340211-lsimonelli/DATA/Align/Si_Pos1_25keV_f00001.cal
# Date = 2025-09-25_01:53:38 Dt = 4.8000  Bin = 0.0060  <imon> = 6752018 +/- 4003 (Min/Max) 6746665 / 6756291
# icurr 249.4056  mocoIn 1.7015E-05  mocoOut 0.7983  i15 7.07158e+06  imon 6.75202e+06  i7 2.6667  iEMpd_timer 4.8000  iEMpd_1 3.5857E-08  iEMpd_2 8.1354E-08  iEMpd_3 1.7244E-08  iEMpd_4 4.7790E-08  iEMhp_timer 4.8000  iEMhp_1 4.8734E-06  iEMhp_2 -2.4498E-08  iEMhp_3 -2.4424E-08  iEMhp_4 -2.0427E-08
#      9776
 1.5856  40959.9  207.9
 1.6276  47623.1  220.327
 1.6696  54484.9  234.835
 1.7116  62812.5  252.636
 1.7536  72017.2  269.362
 1.7956  76689.7  278.657
 1.8376  73160.6  272.602
 1.8796  61918.1  248.946
 1.9216  49537.3  223.551
 1.9636  41921.5  204.808
 2.0056  38183.3  194.705
 2.0476  34871.3  188.109
 2.0896  34061.5  184.822
 2.1316  33319.5  181.919
 2.1736  31889.8  179.385
 2.2156  32165.8  178.714
 2.2576  30812.2  175.542
 2.2996  29696  172.964
 2.3416  30374.2  173.532
 2.3836  29908.5  172.302
 2.4256  28879.5  169.864
 2.4676  28682.1  169.042
 2.5096  28370.9  168.178
 2.5516  27827.1  170.385
 2.5936  27753.6  166.716
 2.6356  27130.8  165.53
 2.6776  27180.7  164.553
 2.7196  26868.3  164.134
 2.7616  26795.1  163.681
 2.8036  26550.9  163.111
 2.8456  26354.4  163.131
 2.8876  25970.4  161.799
 2.9296  25640.6  160.91
 2.9716  25452.9  159.804
 3.0136  25083.7  158.708
 3.0556  25181.7  159.423
 3.0976  25107.3  158.115
 3.1396  24677.4  157.463
 3.1816  24621.4  157.222
 3.2236  24508  156.863
 3.2656  24287.1  155.163
 3.3076  24129.7  156.142
 3.3496  24292.6  155.582
 3.3916  24559.1  156.27
 3.4336  25046.6  158.397
 3.4756  25436.3  159.561
 3.5176  26178.2  161.648
 3.5596  25990.6  163.521
 3.6016  26213.7  161.795
 3.6436  25288.5  160.02
 3.6856  24888.6  157.042
 3.7276  23986  155.255
 3.7696  23645.8  154.333
 3.8116  23397.7  153.425
 3.8536  23342  153.175
 3.8956  23338  152.987
 3.9376  23331.9  153.221
 3.9796  23195.2  152.277
 4.0216  23273.4  151.561
 4.0636  23201.7  152.815
 4.1056  23163.7  152.322
 4.1476  23223.3  152.852
 4.1896  23470.1  153.507
 4.2316  23629.7  153.859
 4.2736  24259.5  155.681
 4.3156  24433.7  156.456
 4.3576  25198.2  158.82
 4.3996  25252.6  159.248
 4.4416  25819.9  160.612
 4.4836  26422.1  162.623
 4.5256  26667.6  164.012
 4.5676  26692.6  164.33
 4.6096  27253.9  164.711
 4.6516  27812.6  166.084
 4.6936  27909.1  167.179
 4.7356  27828.3  166.776
 4.7776  27928.9  166.897
 4.8196  27660.3  166.774
 4.8616  27125.3  164.615
 4.9036  26747.1  163.223
 4.9456  26870.8  164.238
 4.9876  26233.7  162.182
 5.0296  26562.1  163.005
 5.0716  26331.4  163.067
 5.1136  26638.4  163.735
 5.1556  26982.9  164.235
 5.1976  27240.8  165.044
 5.2396  27334.3  165.006
 5.2816  27367  165.586
 5.3236  27370.3  165.282
 5.3656  26947.5  164.927
 5.4076  26732  164.415
 5.4496  26727.4  163.875
 5.4916  27159.2  164.959
 5.5336  26866.6  164.064
 5.5756  26626.8  163.386
 5.6176  27097.7  164.237
 5.6596  27019  164.995
 5.7016  27381.2  165.342
 5.7436  27548.7  166.123
 5.7856  27393.8  165.717
 5.8276  27654.8  166.208
 5.8696  27821.3  166.893
 5.9116  27880.7  167.682
 5.9536  28017.6  167.856
 5.9956  28169  167.662
 6.0376  28339.7  168.804
 6.0796  28487.2  169.074
 6.1216  28698.5  169.892
 6.1636  28942  169.677
 6.2056  28739.1  169.739
 6.2476  29002.5  170.402
 6.2896  29343.3  171.075
 6.3316  29232.1  170.943
 6.3736  29463.1  171.493
 6.4156  29368.7  171.125
 6.4576  29418.4  170.866
 6.4996  29861.2  172.617
 6.5416  29591.4  171.984
 6.5836  29818.5  172.866
 6.6256  29840.3  172.498
 6.6676  30558.8  174.127
 6.7096  30374.3  174.473
 6.7516  30803.2  175.339
 6.7936  30892.4  175.016
 6.8356  31119.2  175.731
 6.8776  31473.2  177.531
 6.9196  31477.7  177.961
 6.9616  32120.7  179.204
 7.0036  32373.4  179.558
 7.0456  32417.9  178.969
 7.0876  32330.6  180.435
 7.1296  32275.4  179.41
 7.1716  32229.7  178.819
 7.2136  31877.9  177.613
 7.2556  32263.3  178.852
 7.2976  32102.6  178.908
 7.3396  32079.8  179.053
 7.3816  32121.9  179.391
 7.4236  32277.7  179.113
 7.4656  32425.2  179.002
 7.5076  32833.8  180.263
 7.5496  32713.9  180.463
 7.5916  32735.9  180.563
 7.6336  33161  181.635
 7.6756  33164.9  181.491
 7.7176  33565.2  182.905
 7.7596  33566.3  184.159
 7.8016  33849.4  187.156
 7.8436  34503.5  185.533
 7.8856  34486.1  185.094
 7.9276  35365.3  187.832
 7.9696  35398.8  188.242
 8.0116  36535.9  189.757
 8.0536  36372.8  189.595
 8.0956  36361.1  190.75
 8.1376  36858.9  191.517
 8.1796  37253.4  193.092
 8.2216  38041.8  193.842
 8.2636  38208.6  194.517
 8.3056  38050.2  194.887
 8.3476  38533.5  195.448
 8.3896  38553.9  195.583
 8.4316  38709.9  196.144
 8.4736  38786.7  195.792
 8.5156  38533.7  195.436
 8.5576  38102.1  195.336
 8.5996  38314.2  194.725
 8.6416  38154.8  195.605
 8.6836  37855.6  194.651
 8.7256  38536.8  195.846
 8.7676  37794.8  196.888
 8.8096  37872  194.391
 8.8516  37659  193.453
 8.8936  37066.8  191.818
 8.9356  36958.8  191.907
 8.9776  37477.8  193.33
 9.0196  36883.5  191.48
 9.0616  37219.2  191.788
 9.1036  36686  191.615
 9.1456  36718.2  191.027
 9.1876  36873.4  191.4
 9.2296  36751  190.454
 9.2716  36245.2  189.228
 9.3136  36495  189.863
 9.3556  36494.5  189.843
 9.3976  35253.5  187.143
 9.4396  35533.9  187.757
 9.4816  35036.5  186.319
 9.5236  35312.7  186.94
 9.5656  34747.8  185.751
 9.6076  34634.6  185.982
 9.6496  34859.9  186.523
 9.6916  34440.1  185.349
 9.7336  34363.4  184.936
 9.7756  34727.2  187.168
 9.8176  33800.3  184.189
 9.8596  33796.3  182.606
 9.9016  33154.8  180.861
 9.9436  33095.8  180.613
 9.9856  32718.5  179.808
 10.0276  32387  180.011
 10.0696  32726.5  179.979
 10.1116  31605.8  177.133
 10.1536  31769.8  177.76
 10.1956  31075.2  175.4
 10.2376  30689.8  173.822
 10.2796  30928.7  174.619
 10.3216  30566.1  173.867
 10.3636  30164.9  172.75
 10.4056  29723.6  171.868
 10.4476  29720.2  171.492
 10.4896  29950.7  171.608
 10.5316  29382.5  170.681
 10.5736  28966.4  169.876
 10.6156  28437.1  168.098
 10.6576  28889.6  167.983
 10.6996  28451.9  167.366
 10.7416  28387.4  167.423
 10.7836  28480.9  168.362
 10.8256  27886.1  167.027
 10.8676  28312.8  167.83
 10.9096  27561.2  165.632
 10.9516  27480.1  164.302
 10.9936  27693.6  165.152
 11.0356  27519.9  165.27
 11.0776  27440.2  164.336
 11.1196  26666.8  162.746
 11.1616  26489.6  161.897
 11.2036  26609.4  162.118
 11.2456  26678.4  163.034
 11.2876  26631  162.632
 11.3296  26280.4  161.446
 11.3716  26583.8  162.068
 11.4136  26729.4  163.417
 11.4556  26835.5  163.389
 11.4976  27091.3  163.138
 11.5396  27428.9  164.321
 11.5816  28031.6  166.592
 11.6236  27673.9  165.747
 11.6656  27060.9  163.063
 11.7076  26249.4  161.431
 11.7496  26037.5  164.75
 11.7916  25813.5  159.34
 11.8336  25626.4  159.646
 11.8756  25300.6  158.175
 11.9176  25436  158.242
 11.9596  25233.1  157.822
 12.0016  25168.7  158.404
 12.0436  24989.9  157.273
 12.0856  24881.1  157.447
 12.1276  24860.3  157.297
 12.1696  24622.2  155.674
 12.2116  25028.1  156.934
 12.2536  24623.5  156.51
 12.2956  24702.2  156.076
 12.3376  24442.9  155.486
 12.3796  24529.8  156.209
 12.4216  24517.6  155.391
 12.4636  24287.2  155.572
 12.5056  24646.5  155.977
 12.5476  24665.1  155.572
 12.5896  24580.8  155.927
 12.6316  24290.8  155.195
 12.6736  24189.9  155.341
 12.7156  24088  154.895
 12.7576  24514.4  156.492
 12.7996  24378.6  154.69
 12.8416  24353.2  155.669
 12.8836  24634.3  156.38
 12.9256  24918.9  156.299
 12.9676  25039.3  157.091
 13.0096  24647.2  156.987
 13.0516  25233.5  157.848
 13.0936  25026.2  157.62
 13.1356  25382.1  157.693
 13.1776  24929.4  157.282
 13.2196  25316.6  158.143
 13.2616  25115  157.819
 13.3036  25249.7  158.225
 13.3456  25135.6  158.213
 13.3876  25039.3  157.22
 13.4296  25240.9  157.988
 13.4716  25147.2  157.305
 13.5136  25201.7  157.62
 13.5556  24930.9  157.39
 13.5976  25179.9  158.316
 13.6396  25311.1  158.083
 13.6816  25132.5  158.043
 13.7236  25553  158.989
 13.7656  24649.6  156.708
 13.8076  25175  157.126
 13.8496  24739.4  156.378
 13.8916  24803.7  157.581
 13.9336  24711.1  156.496
 13.9756  24559.8  155.375
 14.0176  24509.5  155.883
 14.0596  24430.9  155.614
 14.1016  24137.8  155.076
 14.1436  24137.7  154.214
 14.1856  23734.7  153.199
 14.2276  23615  153.318
 14.2696  23825.9  153.821
 14.3116  23431.8  152.439
 14.3536  23094.9  151.524
 14.3956  23135.6  151.387
 14.4376  23330.3  151.802
 14.4796  23171.1  151.271
 14.5216  22705.8  150.549
 14.5636  22717.3  150.144
 14.6056  22891.3  150.296
 14.6476  22598.3  148.551
 14.6896  22357.4  148.306
 14.7316  21957.5  148.01
 14.7736  21944.2  147.099
 14.8156  21680.7  146.255
 14.8576  21578.9  145.758
 14.8996  21148.9  145.508
 14.9416  20839.1  144.443
 14.9836  21035.7  145.072
 15.0256  20813.1  143.198
 15.0676  20682.5  143.071
 15.1096  20755.6  143.057
 15.1516  20293.4  142.022
 15.1936  20311.8  141.505
 15.2356  19839.2  140.13
 15.2776  19863.2  139.796
 15.3196  19495.1  139.504
 15.3616  19476  139.184
 15.4036  19271.1  138.313
 15.4456  19626.1  139.227
 15.4876  19238.7  137.521
 15.5296  19124.1  137.403
 15.5716  18934.7  136.315
 15.6136  19033.4  137.009
 15.6556  18578.7  134.589
 15.6976  18565.3  134.85
 15.7396  18753.2  135.91
 15.7816  18494.7  134.48
 15.8236  18198.5  134.098
 15.8656  18199.4  133.899
 15.9076  18100.9  133.36
 15.9496  17802.9  135.092
 15.9916  17833.7  135.643
 16.0336  17642.9  131.804
 16.0756  17691.5  132.283
 16.1176  17674.8  132.291
 16.1596  17135.7  131.441
 16.2016  17484.8  131.495
 16.2436  17113.1  130.486
 16.2856  17107.8  130.007
 16.3276  17029.2  130.126
 16.3696  16891.8  129.422
 16.4116  16799.3  129.531
 16.4536  16933.5  129.835
 16.4956  16920.8  129.53
 16.5376  16784.4  129.178
 16.5796  16756.6  128.43
 16.6216  16882.7  129.22
 16.6636  16799.9  129.039
 16.7056  16647.7  128.339
 16.7476  16739.8  128.213
 16.7896  16537.9  128.194
 16.8316  16682.2  128.713
 16.8736  16633.7  128.806
 16.9156  16684.7  129.327
 16.9576  16515.7  129.481
 16.9996  16603.5  130.314
 17.0416  16755.3  129.238
 17.0836  16645.8  128.585
 17.1256  16355.5  127.468
 17.1676  16480.7  127.946
 17.2096  16245.6  126.91
 17.2516  16193.9  126.485
 17.2936  16189.2  126.801
 17.3356  15696.6  124.865
 17.3776  15894.3  125.836
 17.4196  16015.9  125.997
 17.4616  15524.2  123.972
 17.5036  15492  124.202
 17.5456  15320.5  124.166
 17.5876  15380.6  123.45
 17.6296  15322.3  123.031
 17.6716  15238.5  123.271
 17.7136  15044.2  122.635
 17.7556  15164.6  123.406
 17.7976  15119.2  122.966
 17.8396  14845.6  121.346
 17.8816  14925.4  122.208
 17.9236  14912.5  121.975
 17.9656  15018.3  122.927
 18.0076  14978.2  122.344
 18.0496  15092.4  121.933
 18.0916  14798.9  121.285
 18.1336  14643.7  120.743
 18.1756  14949.3  121.525
 18.2176  14564.5  120.168
 18.2596  14698.2  120.455
 18.3016  14774.4  121.027
 18.3436  14817.4  121.203
 18.3856  14433.3  119.77
 18.4276  14661.8  120.374
 18.4696  14545.1  119.997
 18.5116  14598.5  120.504
 18.5536  14753.7  121.496
 18.5956  14424.4  119.691
 18.6376  14437.6  120.15
 18.6796  14508.8  119.767
 18.7216  14577.3  120.538
 18.7636  14332.5  119.526
 18.8056  14319.5  119.4
 18.8476  14159.6  119.348
 18.8896  14317.2  119.35
 18.9316  14517.9  120.163
 18.9736  14278.7  118.869
 19.0156  14221.2  119.039
 19.0576  14218.6  117.898
 19.0996  14416  119.421
 19.1416  14109.1  118.548
 19.1836  14206.4  118.545
 19.2256  14216.5  118.797
 19.2676  14102.1  118.409
 19.3096  14389.8  119.854
 19.3516  14139.7  118.778
 19.3936  14152.1  118.727
 19.4356  14236.2  118.961
 19.4776  14218.3  118.972
 19.5196  14225.6  118.852
 19.5616  14119.9  118.668
 19.6036  14285.4  118.848
 19.6456  14114.7  118.265
 19.6876  14163.6  118.105
 19.7296  14188.5  118.686
 19.7716  14030.4  118.163
 19.8136  14290.3  119.486
 19.8556  14588.8  120.184
 19.8976  14443.8  119.652
 19.9396  14402.4  119.057
 19.9816  14570.2  119.984
 20.0236  14830.5  121.281
 20.0656  15090.7  122.326
 20.1076  15133.8  123
 20.1496  15183.6  123.198
 20.1916  14949.7  121.754
 20.2336  14652.5  120.463
 20.2756  14402.2  119.862
 20.3176  14136.7  118.499
 20.3596  13997.8  117.882
 20.4016  14050.6  117.911
 20.4436  13923.2  117.928
 20.4856  13787  117.164
 20.5276  13843  117.851
 20.5696  13731.7  116.843
 20.6116  13643.1  116.728
 20.6536  13528.9  115.752
 20.6956  13599.3  116.171
 20.7376  13591.5  116.366
 20.7796  13497.5  115.658
 20.8216  13651  116.014
 20.8636  13354.6  115.128
 20.9056  13337.3  114.993
 20.9476  13317.9  114.762
 20.9896  13486.7  115.342
 21.0316  13533.6  115.433
 21.0736  13380.2  115.307
 21.1156  13420.7  115.626
 21.1576  13503.1  116.044
 21.1996  13210.9  114.764
 21.2416  13130.5  114.255
 21.2836  13286.9  114.89
 21.3256  13146.8  114.373
 21.3676  13295.5  114.552
 21.4096  13176  114.345
 21.4516  13094.4  113.871
 21.4936  13009  113.753
 21.5356  13222.7  114.63
 21.5776  13239.8  114.533
 21.6196  13136.1  114.114
 21.6616  13013.9  113.677
 21.7036  13064  113.676
 21.7456  13125.2  114.017
 21.7876  12934.9  112.932
 21.8296  13009.9  113.119
 21.8716  12925.5  112.99
 21.9136  13198.6  114.374
 21.9556  12947.9  112.953
 21.9976  12942.5  112.946
 22.0396  12906.4  113.048
 22.0816  12994.7  113.965
 22.1236  13012.3  113.499
 22.1656  13095.6  113.964
 22.2076  13200.5  113.891
 22.2496  12856.4  112.427
 22.2916  12979.2  112.837
 22.3336  12958.8  113.488
 22.3756  12859.6  112.766
 22.4176  12783.9  112.29
 22.4596  12608.9  112.104
 22.5016  12987.7  113.266
 22.5436  12908.7  112.799
 22.5856  12985.8  113.388
 22.6276  12794.8  112.694
 22.6696  12831.5  113.199
 22.7116  12802.4  112.59
 22.7536  13019.2  113.511
 22.7956  12845.1  112.081
 22.8376  12757  112.212
 22.8796  12965  112.924
 22.9216  12747.9  112.521
 22.9636  12805.1  111.922
 23.0056  12748.1  111.808
 23.0476  12782.5  112.529
 23.0896  13284.7  114.084
 23.1316  13027.1  113.416
 23.1736  12971.6  116.189
 23.2156  13028  113.758
 23.2576  12916.2  113.435
 23.2996  12961.7  113.39
 23.3416  12827  113.338
 23.3836  12851.8  112.674
 23.4256  13003.6  113.462
 23.4676  12853.6  112.492
 23.5096  12763.2  112.774
 23.5516  12726.3  111.893
 23.5936  12711  112.725
 23.6356  12985  113.601
 23.6776  12900.5  113.432
 23.7196  12617.7  111.77
 23.7616  12913.9  112.975
 23.8036  12733.1  112.244
 23.8456  12790.4  112.041
 23.8876  12607.6  111.62
 23.9296  12556.1  111.872
 23.9716  12626.9  111.373
 24.0136  12828.8  113.176
 24.0556  12340.6  110.735
 24.0976  12389.6  110.762
 24.1396  12453.8  113.727
 24.1816  12467.4  112.194
 24.2236  12311.4  111.107
 24.2656  12291.7  110.483
 24.3076  12156.8  110.132
 24.3496  12163.1  110.041
 24.3916  12081.3  109.727
 24.4336  12010.8  109.615
 24.4756  12049.4  109.659
 24.5176  11948.6  108.849
 24.5596  11967.5  109.064
 24.6016  11741.5  108.315
 24.6436  11945.9  108.741
 24.6856  11900.3  108.292
 24.7276  11811.2  108.191
 24.7696  11611.4  107.391
 24.8116  11589.8  107.468
 24.8536  11654.2  107.772
 24.8956  11637.4  107.432
 24.9376  11628.8  107.331
 24.9796  11527.1  107.216
 25.0216  11322  106.376
 25.0636  11549.5  107.08
 25.1056  11351  106.865
 25.1476  11504.3  109.243
 25.1896  11530.7  107.832
 25.2316  11432.4  106.632
 25.2736  11411.3  106.19
 25.3156  11310.7  105.798
 25.3576  11421.5  106.747
 25.3996  11298.8  106.147
 25.4416  11335.6  106.304
 25.4836  11245.5  106.41
 25.5256  11214.5  105.62
 25.5676  11311.4  105.805
 25.6096  11224.1  105.977
 25.6516  11252.8  105.604
 25.6936  11190.7  105.639
 25.7356  11390.2  106.704
 25.7776  11223.4  105.521
 25.8196  11166.9  105.491
 25.8616  11168  105.417
 25.9036  11153.7  104.818
 25.9456  11115.5  105.235
 25.9876  11033.5  104.911
 26.0296  11239  105.393
 26.0716  10935.6  104.387
 26.1136  11109.6  105.153
 26.1556  11190.6  104.9
 26.1976  10904.4  104.484
 26.2396  11060.8  104.372
 26.2816  11104.2  105.201
 26.3236  11025.5  104.985
 26.3656  10989.5  104.546
 26.4076  11104.7  105.293
 26.4496  11640  107.296
 26.4916  11223.8  105.344
 26.5336  11045.5  104.836
 26.5756  11505  106.812
 26.6176  10907.4  104.084
 26.6596  10832.9  104.038
 26.7016  10938.8  104.304
 26.7436  10822.4  103.889
 26.7856  10712.5  103.336
 26.8276  10837.7  103.893
 26.8696  10835.3  103.749
 26.9116  10840.8  103.715
 26.9536  10671.9  102.957
 26.9956  10692.3  103.078
 27.0376  10697.8  103.338
 27.0796  10781.2  103.464
 27.1216  10563.1  102.495
 27.1636  10542.2  102.553
 27.2056  10511.8  102.285
 27.2476  10511  102.282
 27.2896  10569.9  102.671
 27.3316  10578  102.426
 27.3736  10534.9  102.484
 27.4156  10450.5  101.923
 27.4576  10462.6  102.208
 27.4996  10473.3  101.863
 27.5416  10266.5  101.162
 27.5836  10514  102.183
 27.6256  10783.5  103.653
 27.6676  10643.7  102.992
 27.7096  10395.6  101.665
 27.7516  10335.1  101.512
 27.7936  10331.3  101.677
 27.8356  10436.5  101.799
 27.8776  10341  101.39
 27.9196  10296.1  101.007
 27.9616  10348.3  101.46
 28.0036  10299.8  101.195
 28.0456  10375  101.69
 28.0876  10200.1  100.927
 28.1296  10219.4  100.86
 28.1716  10163.2  100.604
 28.2136  10208.6  100.782
 28.2556  9973.2  99.7351
 28.2976  10072.8  100.211
 28.3396  10171.5  100.456
 28.3816  10152.5  100.39
 28.4236  10205.6  100.8
 28.4656  9974.09  99.6916
 28.5076  10089.4  99.8947
 28.5496  10080.3  100.12
 28.5916  10103.7  100.044
 28.6336  9920.18  99.4812
 28.6756  10124.4  99.6827
 28.7176  10121.6  100.22
 28.7596  9961.09  99.3227
 28.8016  9991.26  99.5077
 28.8436  9993.01  99.7603
 28.8856  10009  99.6892
 28.9276  9981.94  99.7998
 28.9696  9899.03  99.0403
 29.0116  10025.8  99.8577
 29.0536  9875.54  99.3094
 29.0956  9891.84  99.1125
 29.1376  9902.22  99.1286
 29.1796  9794.41  98.6351
 29.2216  9905.7  99.0297
 29.2636  9832.2  98.7472
 29.3056  9841.94  98.5777
 29.3476  9935.55  99.5739
 29.3896  9951.47  99.7385
 29.4316  9937.74  98.9967
 29.4736  9979.53  99.2652
 29.5156  9887.3  98.7259
 29.5576  10010  100.096
 29.5996  9872.47  98.6548
 29.6416  9889.67  98.8613
 29.6836  9877.57  98.7249
 29.7256  9783.92  98.8283
 29.7676  9859.9  98.8647
 29.8096  9701.78  98.0093
 29.8516  9579.78  97.7227
 29.8936  9645.08  98.155
 29.9356  9804.5  98.7151
 29.9776  9676.94  98.2259
 30.0196  9680.59  97.6231
 30.0616  9747.45  98.3429
 30.1036  9772.98  98.2956
 30.1456  9728.17  98.3
 30.1876  9639.88  97.8402
 30.2296  9566.84  97.4032
 30.2716  9909.98  98.7741
 30.3136  9766.31  98.9226
 30.3556  9717.08  98.7051
 30.3976  9559.08  99.4352
 30.4396  9670.38  97.3356
 30.4816  9760.41  97.3676
 30.5236  9471.36  95.9453
 30.5656  9603.59  97.2577
 30.6076  9588.97  96.6146
 30.6496  9645.77  97.2865
 30.6916  9510.16  96.6807
 30.7336  9418.84  96.3796
 30.7756  9679.28  97.7933
 30.8176  9634.22  97.4829
 30.8596  9690.77  97.5343
 30.9016  9579.62  97.3165
 30.9436  9822.41  98.293
 30.9856  9659.78  97.5943
 31.0276  9502.59  96.3928
 31.0696  9433.84  96.6195
 31.1116  9540.34  97.1417
 31.1536  9442.95  96.5169
 31.1956  9420.32  96.4993
 31.2376  9372.75  96.2564
 31.2796  9484.47  96.3712
 31.3216  9393.19  95.8487
 31.3636  9533.53  97.2628
 31.4056  9427.07  98.0451
 31.4476  9368.25  95.6237
 31.4896  9336.7  95.9698
 31.5316  9445.04  95.9146
 31.5736  9547.05  96.2473
 31.6156  9345.5  95.251
 31.6576  9450.17  95.8787
 31.6996  9487.58  95.7336
 31.7416  9199.95  95.3318
 31.7836  9317.82  94.9583
 31.8256  9193.06  94.591
 31.8676  9336.48  95.3218
 31.9096  9251.93  95.2482
 31.9516  9080.7  94.5204
 31.9936  9210.07  95.0025
 32.0356  9260.95  95.3443
 32.0776  9279.17  95.3235
 32.1196  9325.03  95.6453
 32.1616  9190.54  94.4158
 32.2036  9305.53  95.5269
 32.2456  9095.43  94.8164
 32.2876  9257.48  95.151
 32.3296  9206.26  94.8487
 32.3716  9160.68  94.7058
 32.4136  9250.17  95.381
 32.4556  9263.77  94.8208
 32.4976  9264.22  94.7271
 32.5396  9234.22  94.6555
 32.5816  9150.97  94.3555
 32.6236  9268.8  95.0264
 32.6656  9184.68  95.1326
 32.7076  9201.9  94.8776
 32.7496  9107.67  94.0514
 32.7916  9132.21  94.1465
 32.8336  9120.58  94.1773
 32.8756  9255.95  94.599
 32.9176  9002.65  93.7665
 32.9596  9005.59  93.8629
 33.0016  9082.29  94.0551
 33.0436  9250.34  95.0918
 33.0856  9002.26  93.8808
 33.1276  8961.34  93.3987
 33.1696  9075.99  93.8378
 33.2116  9091.51  94.1467
 33.2536  9115.36  94.2811
 33.2956  9058.6  94.064
 33.3376  9006.48  93.5314
 33.3796  9172.73  94.5962
 33.4216  9060.01  93.6068
 33.4636  9035.65  93.6305
 33.5056  8974.06  93.5521
 33.5476  8957.67  93.4687
 33.5896  9077.48  93.8549
 33.6316  8954.5  93.5478
 33.6736  8936.58  93.6858
 33.7156  8895.27  93.5162
 33.7576  9058.21  93.9854
 33.7996  9060.92  93.761
 33.8416  8842.6  92.8164
 33.8836  8978.81  93.2902
 33.9256  8790.19  92.3852
 33.9676  8917.62  92.9451
 34.0096  8836.98  92.8467
 34.0516  8892.58  92.7632
 34.0936  8830.91  92.7082
 34.1356  8889.72  92.7558
 34.1776  8767.04  92.1144
 34.2196  8827.1  92.6213
 34.2616  8720.99  92.1945
 34.3036  8728.43  92.4949
 34.3456  8780.52  92.5185
 34.3876  8741.32  92.2826
 34.4296  8762.12  92.0684
 34.4716  8931.99  93.1141
 34.5136  8861.48  92.9458
 34.5556  8776.74  92.7456
 34.5976  8831.84  92.8449
 34.6396  8709.73  91.9171
 34.6816  8713.32  92.0568
 34.7236  8794.81  92.2622
 34.7656  8739.99  92.1753
 34.8076  8751.66  92.5527
 34.8496  8658.57  91.9141
 34.8916  8671.01  91.8613
 34.9336  8743.74  92.1997
 34.9756  8799.02  92.4121
 35.0176  8908.14  93.5325
 35.0596  8681.14  92.1611
 35.1016  8617.05  91.5802
 35.1436  8804.78  92.2548
 35.1856  8663.65  91.64
 35.2276  8720.58  92.1071
 35.2696  8690.96  92.1545
 35.3116  8687.85  92.2262
 35.3536  8652.73  91.7545
 35.3956  8624.96  91.3097
 35.4376  8557.75  91.5135
 35.4796  8642.45  92.0253
 35.5216  8561.1  91.5478
 35.5636  8432.85  91.6056
 35.6056  8597.25  91.4962
 35.6476  8706.25  91.9725
 35.6896  8589.11  91.4427
 35.7316  8498.49  90.9318
 35.7736  8513.84  91.2172
 35.8156  8550.3  91.4185
 35.8576  8621.9  92.0454
 35.8996  8573.15  91.7527
 35.9416  8539.07  91.0721
 35.9836  8455.76  90.9764
 36.0256  8566.95  91.591
 36.0676  8608.96  91.5666
 36.1096  8449.01  90.8549
 36.1516  8517.52  91.1093
 36.1936  8443.38  90.5618
 36.2356  8434.58  91.1483
 36.2776  8480.07  90.8731
 36.3196  8516.9  90.7408
 36.3616  8493.05  90.7503
 36.4036  8416.19  90.3873
 36.4456  8499.11  91.0561
 36.4876  8436.88  90.6557
 36.5296  8497.81  91.0205
 36.5716  8446.65  91.5344
 36.6136  8620.45  91.209
 36.6556  8534.65  90.9557
 36.6976  8498.03  91.2672
 36.7396  8428.82  90.6281
 36.7816  8390.69  90.7916
 36.8236  8463.14  91.1098
 36.8656  8379.31  90.7206
 36.9076  8401.85  90.7291
 36.9496  8407.06  90.7337
 36.9916  8449.27  90.5949
 37.0336  8562.71  91.5196
 37.0756  8313.33  89.9707
 37.1176  8259.12  89.9468
 37.1596  8398.95  90.7011
 37.2016  8291.76  90.3578
 37.2436  8377.8  90.133
 37.2856  8426.27  90.6495
 37.3276  8471.33  90.2357
 37.3696  8206.24  89.707
 37.4116  8323.95  90.2381
 37.4536  8281.54  89.8845
 37.4956  8240.65  89.7044
 37.5376  8275.81  91.4826
 37.5796  8285.41  91.4778
 37.6216  8030.27  88.3488
 37.6636  8017.05  88.1828
 37.7056  8209.14  89.4179
 37.7476  8171.8  88.7577
 37.7896  8259.9  89.7193
 37.8316  8064.89  88.848
 37.8736  8325.83  89.7696
 37.9156  8098.38  88.5481
 37.9576  8257.26  89.3003
 37.9996  7941.11  87.2895
 38.0416  8107.08  89.0156
 38.0836  8281.89  89.8735
 38.1256  8235.2  89.5671
 38.1676  8014.91  88.5103
 38.2096  8083.81  88.5226
 38.2516  8450.25  90.6898
 38.2936  8181.86  89.0596
 38.3356  8175.9  88.9315
 38.3776  7900.01  87.6881
 38.4196  8209.92  89.2367
 38.4616  8242  89.651
 38.5036  8232.73  89.4443
 38.5456  8094.23  89.5358
 38.5876  8149  89.8641
 38.6296  7930.99  87.6502
 38.6716  8019.72  87.931
 38.7136  8093.88  88.2775
 38.7556  8038.83  88.4826
 38.7976  8114.76  88.8337
 38.8396  8067.34  89.0366
 38.8816  8062.66  88.7807
 38.9236  7962.96  88.0448
 38.9656  7919.8  87.7233
 39.0076  8118.64  88.2174
 39.0496  8120.17  88.7781
 39.0916  8100.51  88.3058
 39.1336  8037.31  88.3812
 39.1756  7970.3  88.0764
 39.2176  7963.12  88.5659
 39.2596  7992.08  88.6522
 39.3016  8000.42  88.2693
 39.3436  7914.33  88.218
 39.3856  8028.61  88.2941
 39.4276  7957.2  88.3982
 39.4696  8094.95  88.7845
 39.5116  7894.91  88.1993
 39.5536  8077.99  89.6296
 39.5956  8223.84  89.5171
 39.6376  8037.8  88.4919
 39.6796  7959.19  87.8095
 39.7216  8082.13  88.5739
 39.7636  8054.26  88.9994
 39.8056  8087.48  88.9717
 39.8476  7913.81  88.2559
 39.8896  7977.52  88.2507
 39.9316  7905.23  88.0973
 39.9736  8134.28  88.9255
 40.0156  8109.8  88.6171
 40.0576  8003.5  88.3936
 40.0996  8071.41  87.9484
 40.1416  8064.41  88.7038
 40.1836  8111.34  88.851
 40.2256  8100.7  88.8369
 40.2676  8007.56  88.4371
 40.3096  8143.96  89.107
 40.3516  8131.79  89.1481
 40.3936  8152.33  88.819
 40.4356  8053.16  88.4743
 40.4776  8089.67  89.0892
 40.5196  8152.62  89.5596
 40.5616  8105.22  88.9491
 40.6036  8006.06  88.6523
 40.6456  8081.6  88.6686
 40.6876  8173.88  89.1606
 40.7296  8180.1  89.3322
 40.7716  8238.93  89.7862
 40.8136  8128  89.1245
 40.8556  8081.02  89.0091
 40.8976  8228.81  89.7314
 40.9396  8025.06  88.9733
 40.9816  8101.2  88.6674
 41.0236  8123.26  88.5571
 41.0656  8204.23  89.5506
 41.1076  8136.87  88.945
 41.1496  8047.11  88.3688
 41.1916  8131.02  89.1556
 41.2336  8005.36  88.4642
 41.2756  7976.28  87.8992
 41.3176  7954  88.3968
 41.3596  8025.94  88.5161
 41.4016  8076.91  89.0542
 41.4436  8119.54  89.079
 41.4856  8180.22  89.5726
 41.5276  8055.19  88.9074
 41.5696  8041.4  88.4599
 41.6116  8032.96  88.8204
 41.6536  8066.46  88.8533
 41.6956  8020.57  88.6649
 41.7376  7902.93  88.0304
 41.7796  8017.9  88.5489
 41.8216  8052.75  88.9818
 41.8636  8121.3  89.2891
 41.9056  7915.35  87.945
 41.9476  8036.64  88.8541
 41.9896  8077.59  88.7483
 42.0316  8040.67  88.6264
 42.0736  8006.24  88.5544
 42.1156  7976.13  88.2161
 42.1576  7978.35  88.3196
 42.1996  8064.91  88.9475
 42.2416  8122.27  88.8349
 42.2836  7792.21  87.1275
 42.3256  7937.39  88.0531
 42.3676  8054.03  88.5057
 42.4096  8037.8  88.3707
 42.4516  7974.83  88.123
 42.4936  7916.73  87.8625
 42.5356  7970.14  88.2869
 42.5776  7921.64  87.9544
 42.6196  8040.61  88.6713
 42.6616  7875.4  87.9292
 42.7036  7951.4  87.7333
 42.7456  7951.05  88.0993
 42.7876  7897.91  87.9016
 42.8296  7915.56  87.8251
 42.8716  7844.86  87.5954
 42.9136  7882.44  87.5916
 42.9556  7993.85  88.3434
 42.9976  7932.71  87.9652
 43.0396  7975.36  87.9308
 43.0816  7938.97  88.1131
 43.1236  7810.17  87.4542
 43.1656  7884.98  87.7005
 43.2076  7881.65  87.7862
 43.2496  8005.11  88.2775
 43.2916  7809.12  87.5596
 43.3336  7911.97  87.9713
 43.3756  7852.75  87.4005
 43.4176  7872.79  87.5906
 43.4596  7791.82  86.9938
 43.5016  7839.39  87.6672
 43.5436  7968.81  88.2851
 43.5856  7723.94  86.9392
 43.6276  7797.75  87.2563
 43.6696  7682.35  86.8582
 43.7116  7837.16  87.2291
 43.7536  7885.46  87.9967
 43.7956  7729.34  88.314
 43.8376  7773.73  87.0852
 43.8796  7818.03  87.4119
 43.9216  7757.28  86.9767
 43.9636  7727.66  86.9296
 44.0056  7676.25  86.8753
 44.0476  7703.85  86.6554
 44.0896  7697.57  86.9677
 44.1316  7666.31  86.3131
 44.1736  7712.06  86.6928
 44.2156  7703.07  86.4974
 44.2576  7600.01  86.2444
 44.2996  7671.38  86.6226
 44.3416  7674.71  86.3889
 44.3836  7600.94  86.3089
 44.4256  7547.78  85.6484
 44.4676  7562.62  85.8921
 44.5096  7602.16  86.2601
 44.5516  7622.18  86.3407
 44.5936  7513.33  85.6705
 44.6356  7573.27  85.7503
 44.6776  7646.48  86.4889
 44.7196  7539.07  86.1772
 44.7616  7630.78  88.0535
 44.8036  7548.8  85.9878
 44.8456  7632.67  86.6845
 44.8876  7599.99  86.3534
 44.9296  7667.81  86.1822
 44.9716  7599.31  86.2347
 45.0136  7630.24  86.3316
 45.0556  7637.22  86.3614
 45.0976  7582.45  86.2031
 45.1396  7498.67  85.4783
 45.1816  7445.23  85.1031
 45.2236  7686.89  86.3894
 45.2656  7510.85  85.8864
 45.3076  7520.81  85.7374
 45.3496  7418.43  85.4478
 45.3916  7453.92  85.9269
 45.4336  7486.49  85.9691
 45.4756  7444.16  85.5765
 45.5176  7574.01  85.9375
 45.5596  7593.84  86.1629
 45.6016  7309.15  84.9474
 45.6436  7407.05  84.6919
 45.6856  7439  85.5366
 45.7276  7357.27  86.3746
 45.7696  7433.98  86.4868
 45.8116  7355.59  85.4841
 45.8536  7329.54  85.2322
 45.8956  7487.13  85.491
 45.9376  7509.62  85.0808
 45.9796  7419.78  85.251
 46.0216  7556.29  86.381
 46.0636  7368.09  84.4509
 46.1056  7539.07  85.4082
 46.1476  7494.02  85.749
 46.1896  7531.14  86.1126
 46.2316  7396.42  85.2069
 46.2736  7414.07  85.6775
 46.3156  7355.87  84.9287
 46.3576  7355.96  85.1321
 46.3996  7384.06  85.4529
 46.4416  7429.74  85.2943
 46.4836  7502.55  86.0708
 46.5256  7498.78  85.9858
 46.5676  7322.05  85.0806
 46.6096  7338.01  85.1083
 46.6516  7447.93  84.7757
 46.6936  7438.57  85.2208
 46.7356  7492.35  85.6428
 46.7776  7300.06  85.3563
 46.8196  7309.43  85.01
 46.8616  7198.06  84.298
 46.9036  7223.85  84.1114
 46.9456  7239.38  83.8403
 46.9876  7326.23  84.4347
 47.0296  7186.56  84.3027
 47.0716  7212.24  84.2815
 47.1136  7182.64  83.7972
 47.1556  7342.48  84.5772
 47.1976  7385.93  84.9149
 47.2396  7280.08  84.6985
 47.2816  7248.15  84.2118
 47.3236  7172.79  84.1443
 47.3656  7219.61  84.347
 47.4076  7159.63  83.7953
 47.4496  7126.79  83.7031
 47.4916  7137.01  83.9467
 47.5336  7291.91  84.6718
 47.5756  7292.03  84.7927
 47.6176  7162.07  83.9338
 47.6596  7114.51  83.3656
 47.7016  7274.8  84.1179
 47.7436  7197.94  83.9993
 47.7856  7300.31  84.6381
 47.8276  7159.59  83.8616
 47.8696  7097.45  83.5858
 47.9116  7225.71  84.048
 47.9536  7102.36  83.2598
 47.9956  7064.47  83.7473
 48.0376  7064.99  83.5191
 48.0796  7159.38  84.2086
 48.1216  7291.12  84.7964
 48.1636  7257.69  84.1832
 48.2056  7117.1  83.6215
 48.2476  7243.09  84.6628
 48.2896  7222.71  84.4538
 48.3316  7104.6  83.7062
 48.3736  7068.56  83.5198
 48.4156  7019.34  83.0727
 48.4576  7146.32  84.1206
 48.4996  7149.81  83.5988
 48.5416  7154.81  83.9615
 48.5836  7193.98  83.8546
 48.6256  7161.54  83.8884
 48.6676  7048.69  83.7148
 48.7096  7203.35  83.898
 48.7516  6966.6  82.6573
 48.7936  7043.23  83.1688
 48.8356  7134.81  83.7641
 48.8776  7051.3  83.8382
 48.9196  7223.85  84.2317
 48.9616  7035.85  83.4981
 49.0036  7016.39  83.7355
 49.0456  6874.6  82.8606
 49.0876  7050.91  83.4497
 49.1296  6911.8  82.7923
 49.1716  6842.56  82.2445
 49.2136  7006.8  83.1404
 49.2556  6998.44  83.132
 49.2976  7014.81  83.3062
 49.3396  6898.61  82.6699
 49.3816  7144.49  83.5634
 49.4236  6950.02  82.8371
 49.4656  6922.32  82.6763
 49.5076  6946.54  82.5766
 49.5496  7011.89  83.0262
 49.5916  6908.91  82.3349
 49.6336  6976.02  82.9277
 49.6756  7019.16  83.4366
 49.7176  6955.29  82.9839
 49.7596  6961.33  82.7894
 49.8016  6990.35  82.8837
 49.8436  6939.09  82.866
 49.8856  6846.52  82.3259
 49.9276  6898.61  82.7338
 49.9696  6967.42  83.1296
 50.0116  7009.05  83.5093
 50.0536  7048.59  83.6955
 50.0956  6818.7  82.3744
 50.1376  6965.91  82.9688
 50.1796  6840.77  82.4887
 50.2216  6875.11  82.6903
 50.2636  6941.18  82.7036
 50.3056  6859.97  82.3874
 50.3476  6776.59  81.906
 50.3896  6873.62  82.4649
 50.4316  6871.57  82.2925
 50.4736  6829.04  82.255
 50.5156  6872.93  82.504
 50.5576  6905.02  82.461
 50.5996  6822.42  82.2451
 50.6416  6856.91  82.3838
 50.6836  6878.79  82.5679
 50.7256  6754.52  81.7513
 50.7676  6912.24  83.025
 50.8096  6832.07  82.0751
 50.8516  6762.86  82.0669
 50.8936  6710.59  81.526
 50.9356  6884.65  82.6923
 50.9776  6810.64  82.3936
 51.0196  6605.36  81.2603
 51.0616  6687.51  81.0954
 51.1036  6767.95  81.9314
 51.1456  6702.34  81.4542
 51.1876  6743.74  81.0481
 51.2296  6758.09  81.7691
 51.2716  6760.78  81.4807
 51.3136  6593.75  80.9273
 51.3556  6718.18  81.3058
 51.3976  6703.09  81.3707
 51.4396  6569.75  80.8623
 51.4816  6609.42  80.9548
 51.5236  6683.81  81.4961
 51.5656  6774.03  81.6483
 51.6076  6742.18  81.5405
 51.6496  6714.06  81.5543
 51.6916  6578.44  81.0872
 51.7336  6659.79  81.672
 51.7756  6668.09  81.4236
 51.8176  6601.99  81.1247
 51.8596  6603.98  81.1533
 51.9016  6757.54  81.6977
 51.9436  6585.72  82.1266
 51.9856  6509.43  82.0739
 52.0276  6625.06  81.3048
 52.0696  6654.61  81.5606
 52.1116  6627.5  81.4877
 52.1536  6651.6  81.5469
 52.1956  6645.64  80.9576
 52.2376  6734.7  81.681
 52.2796  6565.98  80.4668
 52.3216  6542.75  81.0096
 52.3636  6612.64  81.0187
 52.4056  6540.55  80.4299
 52.4476  6610.88  81.2302
 52.4896  6483.46  80.4924
 52.5316  6486.69  80.5704
 52.5736  6604.05  81.0053
 52.6156  6504.8  80.7818
 52.6576  6696.88  81.3826
 52.6996  6366.01  80.3237
 52.7416  6562.05  81.3927
 52.7836  6713.81  82.1952
 52.8256  6460.01  79.8766
 52.8676  6347.84  79.7472
 52.9096  6613.5  81.4883
 52.9516  6589.68  81.6959
 52.9936  6446.66  81.212
 53.0356  6401.36  79.946
 53.0776  6445.44  80.4797
 53.1196  6375.61  80.1684
 53.1616  6371.07  80.1876
 53.2036  6353.81  80.028
 53.2456  6279.53  79.6682
 53.2876  6397.34  80.116
 53.3296  6498.69  81.0743
 53.3716  6467  80.6277
 53.4136  6418.63  80.4665
 53.4556  6376.92  80.2387
 53.4976  6421.06  80.3648
 53.5396  6356.32  80.3431
 53.5816  6454.75  80.6024
 53.6236  6351.44  80.2965
 53.6656  6479.03  80.7255
 53.7076  6424.26  80.3442
 53.7496  6476.95  80.7952
 53.7916  6448.66  80.7315
 53.8336  6328.43  79.8904
 53.8756  6267.55  80.044
 53.9176  6268.82  79.3992
 53.9596  6412.95  81.0646
 54.0016  6371.57  80.1379
 54.0436  6251.32  79.5829
 54.0856  6430.04  80.1487
 54.1276  6343.02  79.8039
 54.1696  6323.73  79.8527
 54.2116  6345.74  79.7545
 54.2536  6374.73  79.747
 54.2956  6356.07  79.6734
 54.3376  6337.19  80.0416
 54.3796  6381.98  80.2194
 54.4216  6432.29  80.5872
 54.4636  6366.06  80.1286
 54.5056  6413.5  80.2475
 54.5476  6352.6  80.1979
 54.5896  6416.84  80.4337
 54.6316  6449.6  80.4943
 54.6736  6375.13  80.1062
 54.7156  6358.57  80.0229
 54.7576  6278.73  79.5117
 54.7996  6423.61  80.5571
 54.8416  6468.1  80.8918
 54.8836  6244.82  79.6014
 54.9256  6402.02  80.3396
 54.9676  6401.53  80.1874
 55.0096  6301.09  79.6305
 55.0516  6358.99  80.2198
 55.0936  6343.91  79.7658
 55.1356  6325.26  79.6869
 55.1776  6287.77  79.7247
 55.2196  6275.15  79.42
 55.2616  6316.23  79.903
 55.3036  6252.54  79.6535
 55.3456  6276.07  79.9403
 55.3876  6260.94  79.6004
 55.4296  6394.01  80.41
 55.4716  6308.31  79.9021
 55.5136  6342.93  79.8821
 55.5556  6186.84  78.9727
 55.5976  6325.76  79.9067
 55.6396  6214.79  79.1566
 55.6816  6327.81  79.7395
 55.7236  6300.49  79.6098
 55.7656  6342.63  79.6334
 55.8076  6382.15  79.8585
 55.8496  6287.9  79.5904
 55.8916  6172.15  79.0609
 55.9336  6200.27  79.0582
 55.9756  6287.52  79.5018
 56.0176  6269.2  79.5402
 56.0596  6141.01  78.7046
 56.1016  6277.1  79.574
 56.1436  6268.06  79.7891
 56.1856  6256.04  79.4425
 56.2276  6222.38  79.3025
 56.2696  6226.68  79.2929
 56.3116  6211.1  79.6044
 56.3536  6267.26  79.6129
 56.3956  6188.62  79.1051
 56.4376  6238.58  79.456
 56.4796  6319.99  79.7684
 56.5216  6342.56  80.2989
 56.5636  6359.64  79.983
 56.6056  6246.16  79.5082
 56.6476  6210.11  78.8999
 56.6896  6206.72  79.3281
 56.7316  6162.48  78.9538
 56.7736  6287.31  79.7464
 56.8156  6310.97  79.8941
 56.8576  6235.35  79.3526
 56.8996  6221.21  79.2077
 56.9416  6178.11  79.2312
 56.9836  6178.59  78.7565
 57.0256  6187.53  79.1217
 57.0676  6173.87  79.1678
 57.1096  6251.14  79.444
 57.1516  6256.52  79.5332
 57.1936  6234.35  79.1438
 57.2356  6247.38  79.5423
 57.2776  6217.96  79.3137
 57.3196  6242.81  79.8461
 57.3616  6242.02  79.3325
 57.4036  6249.33  79.4419
 57.4456  6247.21  79.3989
 57.4876  6294.23  79.5528
 57.5296  6160.09  79.0367
 57.5716  6122.3  78.7814
 57.6136  6168.76  78.8975
 57.6556  6257.74  79.6093
 57.6976  6246.23  79.3546
 57.7396  6108.73  78.8491
 57.7816  6074.56  78.9835
 57.8236  6175.36  79.4332
 57.8656  6237  79.4838
 57.9076  6215.07  79.3744
 57.9496  6173.66  79.4576
 57.9916  6127.69  78.6782
 58.0336  6194.08  79.3812
 58.0756  6175.65  78.8968
 58.1176  6202.34  79.0597
 58.1596  6184.75  79.5196
 58.2016  6286.97  79.3721
 58.2436  6244.7  79.5253
 58.2856  6189.51  79.0881
 58.3276  6220.22  79.6638
 58.3696  6154.16  78.9854
 58.4116  6169.8  78.9487
 58.4536  6307.53  79.7155
 58.4956  6243.74  79.4867
 58.5376  6291.83  79.3616
 58.5796  6121.08  78.7005
 58.6216  6206.94  79.0534
 58.6636  6301.51  79.879
 58.7056  6177.69  78.9477
 58.7476  6056.04  78.614
 58.7896  6208.51  79.2368
 58.8316  6134.88  78.7644
 58.8736  6233.79  79.4057
 58.9156  6199.11  79.2256
 58.9576  6261.88  79.9484
 58.9996  6425.11  80.213
 59.0416  6365.69  80.2038
 59.0836  6261.84  79.4727
 59.1256  6127.49  79.3253
 59.1676  6112.59  79.5439
 59.2096  6278.73  79.8994
 59.2516  6344.4  79.8869
 59.2936  6416.38  80.6769
 59.3356  6135.24  78.7664
 59.3776  6218.93  79.4733
 59.4196  6126.44  78.8158
 59.4616  6089.34  78.436
 59.5036  6205.75  79.2183
 59.5456  6380.7  80.0118
 59.5876  6215.77  79.1648
 59.6296  6285.84  79.6804
 59.6716  6313.06  79.9119
 59.7136  6201.38  79.19
 59.7556  6059.71  78.4169
 59.7976  6116.65  78.5251
 59.8396  6212.73  79.0322
 59.8816  6133.93  79.0791
 59.9236  6243  79.4167
 59.9656  6176.05  79.2518
 60.0076  6221.63  78.8931
 60.0496  6233.96  79.4815
 60.0916  6404.2  79.9619
 60.1336  6169.03  79.5989
 60.1756  6185.87  80.9056
 60.1996  0.0000000E+00  0.0000000E+00