File: docs/examples/XRD/IS17_D/Data/IS17_D/17_Db_f00051.xye
# /beamlines/bl04/projects/cycle2025-II/20250340211-lsimonelli/DATA/IS17_D/17_Db_f00051.xye : mythproc.py merge -s 0.006 -l 0.5 -f /beamlines/bl04/inhouse/ff/FlatField/ff_20Nov2024rod8mm60s_17keV.raw -b True -c true -o xye /beamlines/bl04/projects/cycle2025-II/20250340211-lsimonelli/DATA/IS17_D/17_Db_00051.dat
# IsMon = [6749259, 6748174, 6749726]  IsPos = [-1.4999, -2.4885, -3.4988]
# Wave = 0.4962  CalPath /beamlines/bl04/projects/cycle2025-II/20250340211-lsimonelli/DATA/Align/Si_Pos1_25keV_f00001.cal
# Date = 2025-09-24_07:54:11 Dt = 4.8000  Bin = 0.0060  <imon> = 6749053 +/- 650 (Min/Max) 6748174 / 6749726
# icurr 249.2259  mocoIn 1.7009E-05  mocoOut 0.7981  i15 7.06922e+06  imon 6.74905e+06  i7 3.3333  iEMpd_timer 4.8000  iEMpd_1 3.5093E-08  iEMpd_2 7.8526E-08  iEMpd_3 1.6997E-08  iEMpd_4 4.6928E-08  iEMhp_timer 4.8000  iEMhp_1 4.8710E-06  iEMhp_2 -2.5414E-08  iEMhp_3 -2.3558E-08  iEMhp_4 -2.1866E-08
#      9776
 1.5856  44844.9  217.447
 1.6276  51172.3  228.295
 1.6696  56732  239.53
 1.7116  63961.4  254.831
 1.7536  72296.6  269.773
 1.7956  75913.1  277.129
 1.8376  72574.2  271.395
 1.8796  62485.1  249.983
 1.9216  52484.4  230.01
 1.9636  44992.8  212.09
 2.0056  40916.8  201.471
 2.0476  38139.6  196.646
 2.0896  36927.4  192.361
 2.1316  35916.7  188.798
 2.1736  34270.6  185.884
 2.2156  34852.5  185.951
 2.2576  34147.3  184.721
 2.2996  32885.1  181.939
 2.3416  32608.8  179.729
 2.3836  32227.9  178.785
 2.4256  31255.7  176.641
 2.4676  30694.6  174.8
 2.5096  30428.5  174.098
 2.5516  29445.5  175.197
 2.5936  29367.3  171.461
 2.6356  28819.7  170.57
 2.6776  28593.6  168.777
 2.7196  28232.8  168.21
 2.7616  28475.9  168.711
 2.8036  27632.2  166.361
 2.8456  27704.4  167.235
 2.8876  27159.2  165.416
 2.9296  26661.2  164.05
 2.9716  26289.9  162.379
 3.0136  26251  162.334
 3.0556  26158.3  162.439
 3.0976  26082.6  161.078
 3.1396  25784.6  160.915
 3.1816  25421.6  159.722
 3.2236  25158.8  158.88
 3.2656  25286.9  158.314
 3.3076  25124.8  159.297
 3.3496  25345  159.148
 3.3916  25522.3  159.275
 3.4336  25667.5  160.317
 3.4756  26277.3  162.148
 3.5176  27024.1  164.184
 3.5596  26621  165.442
 3.6016  26770.3  163.5
 3.6436  25796.5  161.621
 3.6856  25537.8  159.084
 3.7276  24686  157.502
 3.7696  24363.8  156.665
 3.8116  23957.1  155.245
 3.8536  24014.8  155.357
 3.8956  23992.8  155.103
 3.9376  23829.4  154.848
 3.9796  23809.7  154.267
 4.0216  23814.6  153.311
 4.0636  23772.6  154.662
 4.1056  23722.4  154.149
 4.1476  24127.1  155.77
 4.1896  24189.7  155.832
 4.2316  24226.6  155.769
 4.2736  24711.5  157.121
 4.3156  24775.3  157.558
 4.3576  25757.2  160.554
 4.3996  25789.2  160.925
 4.4416  26461.4  162.591
 4.4836  26654.7  163.35
 4.5256  27119.2  165.375
 4.5676  27040.6  165.393
 4.6096  27768.5  166.242
 4.6516  28131.4  167.024
 4.6936  27978.1  167.398
 4.7356  28095.2  167.574
 4.7776  27985.4  167.072
 4.8196  28094  168.051
 4.8616  27445.7  165.723
 4.9036  27338.7  164.991
 4.9456  27078.2  164.863
 4.9876  26508.2  163.022
 5.0296  26646  163.281
 5.0716  26576  163.687
 5.1136  26619.2  163.68
 5.1556  26849.6  163.843
 5.1976  27463.3  165.689
 5.2396  27440.7  165.322
 5.2816  27475.1  165.895
 5.3236  27324.1  165.134
 5.3656  26928.5  164.87
 5.4076  26781  164.556
 5.4496  26751.1  163.96
 5.4916  26879.8  164.105
 5.5336  26624.8  163.335
 5.5756  26895.3  164.176
 5.6176  26981.2  163.879
 5.6596  27183.3  165.474
 5.7016  27054  164.346
 5.7436  27352.7  165.532
 5.7856  27177.1  165.065
 5.8276  27315.4  165.199
 5.8696  27791.9  166.807
 5.9116  27533.3  166.631
 5.9536  27904.3  167.485
 5.9956  28071.5  167.372
 6.0376  28059.8  167.964
 6.0796  28356.3  168.683
 6.1216  28338  168.832
 6.1636  28811.6  169.281
 6.2056  28459.5  168.924
 6.2476  28872.5  170.014
 6.2896  29001.3  170.066
 6.3316  29098.8  170.528
 6.3736  29092.8  170.402
 6.4156  29181.3  170.548
 6.4576  29182.7  170.171
 6.4996  29311.9  171.027
 6.5416  29552  171.85
 6.5836  29473.3  171.869
 6.6256  29602.2  171.802
 6.6676  30408.4  173.677
 6.7096  30174.6  173.881
 6.7516  30388.4  174.151
 6.7936  30623.1  174.223
 6.8356  30700.8  174.535
 6.8776  30838.2  175.739
 6.9196  31057.6  176.765
 6.9616  31343.2  176.985
 7.0036  31940.9  178.347
 7.0456  31702.3  176.976
 7.0876  31823.6  179.004
 7.1296  31717.2  177.838
 7.1716  31772.4  177.534
 7.2136  31688.7  177.075
 7.2556  31849.9  177.689
 7.2976  31879  178.264
 7.3396  31708.4  178.007
 7.3816  31368.8  177.27
 7.4236  31898.3  178.05
 7.4656  32236.4  178.464
 7.5076  32500.9  179.328
 7.5496  32216.8  179.086
 7.5916  32504.9  179.93
 7.6336  32703.1  180.366
 7.6756  32850.6  180.624
 7.7176  33392.7  182.428
 7.7596  33046.4  182.71
 7.8016  33699.5  186.747
 7.8436  33318.1  182.351
 7.8856  33278.5  181.85
 7.9276  34216.1  184.794
 7.9696  34399.1  185.603
 8.0116  35236.1  186.393
 8.0536  35601.9  187.61
 8.0956  35526.5  188.59
 8.1376  36049.6  189.442
 8.1796  36260.4  190.536
 8.2216  36699.5  190.426
 8.2636  36725.8  190.745
 8.3056  36629.3  191.255
 8.3476  37374.8  192.526
 8.3896  37289.7  192.381
 8.4316  37285.3  192.54
 8.4736  37571.3  192.747
 8.5156  37192.6  192.048
 8.5576  36809.6  192.022
 8.5996  36656.6  190.505
 8.6416  36880.5  192.347
 8.6836  36089.9  190.102
 8.7256  36979  191.886
 8.7676  36888  194.558
 8.8096  37227.7  192.738
 8.8516  37062.2  191.874
 8.8936  36627.4  190.701
 8.9356  36950.8  191.872
 8.9776  36844.5  191.68
 9.0196  36843.7  191.346
 9.0616  36728.6  190.547
 9.1036  36106.4  190.095
 9.1456  35762.7  188.519
 9.1876  36383.4  190.093
 9.2296  35988  188.496
 9.2716  35629.3  187.591
 9.3136  35861.3  188.193
 9.3556  35963.5  188.448
 9.3976  34880.5  186.09
 9.4396  34872.2  185.972
 9.4816  34528.8  184.921
 9.5236  34470  184.66
 9.5656  34202  184.301
 9.6076  33595.5  183.186
 9.6496  33765.7  183.524
 9.6916  33478.7  182.702
 9.7336  33995.8  183.896
 9.7756  33452.3  183.781
 9.8176  33324.5  182.85
 9.8596  33334.2  181.315
 9.9016  32787.5  179.807
 9.9436  32492.9  178.918
 9.9856  32420.3  178.987
 10.0276  32055.1  179.045
 10.0696  32134.1  178.31
 10.1116  31258.8  176.125
 10.1536  31034.4  175.646
 10.1956  30814.2  174.638
 10.2376  30623.7  173.602
 10.2796  30254  172.665
 10.3216  30051.1  172.371
 10.3636  29576.6  171.024
 10.4056  29092  170.028
 10.4476  29528.8  170.899
 10.4896  29447.7  170.113
 10.5316  28696  168.656
 10.5736  28755.4  169.243
 10.6156  28773.5  169.048
 10.6576  28593.9  167.088
 10.6996  28445.9  167.36
 10.7416  27667.9  165.257
 10.7836  27464.7  165.321
 10.8256  27197.5  164.941
 10.8676  27207.1  164.518
 10.9096  26968.4  163.818
 10.9516  26608.6  161.68
 10.9936  26731.5  162.261
 11.0356  26744.6  162.903
 11.0776  26493.7  161.476
 11.1196  25960.6  160.604
 11.1616  25652.3  159.322
 11.2036  25992.2  160.219
 11.2456  25736.3  160.138
 11.2876  26062.7  160.872
 11.3296  25306.2  158.431
 11.3716  25788.4  159.624
 11.4136  25722.6  160.307
 11.4556  25568.3  159.483
 11.4976  26268.2  160.645
 11.5396  26425.7  161.302
 11.5816  27023.2  163.562
 11.6236  27290.2  164.822
 11.6656  26795.6  162.235
 11.7076  25877.6  160.273
 11.7496  25314.9  162.531
 11.7916  25196.5  157.404
 11.8336  24702.9  156.77
 11.8756  24659.7  156.16
 11.9176  24594.9  155.63
 11.9596  24867.1  156.657
 12.0016  24488.6  156.228
 12.0436  24647.2  156.179
 12.0856  24143.8  155.087
 12.1276  24019.4  154.632
 12.1696  24139.7  154.134
 12.2116  24118.1  154.064
 12.2536  24077.1  154.748
 12.2956  23913.8  153.576
 12.3376  24133.3  154.483
 12.3796  24040.2  154.666
 12.4216  23943.7  153.552
 12.4636  23653.5  153.548
 12.5056  23833.5  153.398
 12.5476  23848.6  152.959
 12.5896  23737  153.245
 12.6316  23871.3  153.824
 12.6736  23732.7  153.873
 12.7156  23812.9  153.973
 12.7576  23672.9  153.78
 12.7996  23870.4  153.057
 12.8416  23623.1  153.307
 12.8836  23934.9  154.15
 12.9256  24223.1  154.104
 12.9676  24266.4  154.645
 13.0096  24370.4  156.092
 13.0516  24219.8  154.634
 13.0936  24760.6  156.774
 13.1356  24898.8  156.153
 13.1776  24552.9  156.097
 13.2196  24828  156.608
 13.2616  24486.1  155.844
 13.3036  24692  156.465
 13.3456  24305.4  155.373
 13.3876  24691.8  156.087
 13.4296  24477.5  155.573
 13.4716  24585.7  155.534
 13.5136  24562.3  155.591
 13.5556  24367.8  155.612
 13.5976  24628.8  156.607
 13.6396  24569.5  155.777
 13.6816  24646.2  156.497
 13.7236  25135.2  157.623
 13.7656  26515.7  162.322
 13.8076  27200.8  163.082
 13.8496  26614.6  161.966
 13.8916  24909  157.85
 13.9336  24109.3  154.561
 13.9756  23980.7  153.528
 14.0176  23789.3  153.596
 14.0596  24008.7  154.226
 14.1016  23704.4  153.677
 14.1436  23715.9  152.841
 14.1856  23173.1  151.377
 14.2276  23226.9  152.034
 14.2696  23332.2  152.229
 14.3116  22517  149.457
 14.3536  22643.1  150.038
 14.3956  22193.7  148.275
 14.4376  22771.1  149.969
 14.4796  22539.3  149.204
 14.5216  22264.1  149.084
 14.5636  21981.4  147.7
 14.6056  22302.2  148.331
 14.6476  22056.3  146.756
 14.6896  21788  146.405
 14.7316  21387.8  146.087
 14.7736  21312.6  144.976
 14.8156  21146.3  144.417
 14.8576  21116.5  144.181
 14.8996  20726.1  144.038
 14.9416  20129.1  141.966
 14.9836  20273.7  142.456
 15.0256  19772.8  139.609
 15.0676  19780.2  139.945
 15.1096  19757.9  139.604
 15.1516  19443  139.046
 15.1936  19311.5  138.002
 15.2356  18918.2  136.865
 15.2776  18816  136.09
 15.3196  18556  136.128
 15.3616  18541.7  135.836
 15.4036  18441  135.323
 15.4456  18598  135.558
 15.4876  18165.5  133.658
 15.5296  18266.2  134.313
 15.5716  17976.9  132.852
 15.6136  17979.1  133.186
 15.6556  17975  132.416
 15.6976  17842.4  132.004
 15.7396  17739.8  132.221
 15.7816  17650.9  131.403
 15.8236  17359.7  131.001
 15.8656  17383.4  130.89
 15.9076  17377.5  130.692
 15.9496  17926.8  135.549
 15.9916  17602.1  134.733
 16.0336  17826.9  132.438
 16.0756  17534  131.673
 16.1176  17567.2  131.878
 16.1596  17077.5  131.194
 16.2016  17111.8  130.087
 16.2436  16927.8  129.758
 16.2856  17131.9  130.044
 16.3276  16588.3  128.41
 16.3696  16938.9  129.591
 16.4116  16809.8  129.528
 16.4536  16741  129.081
 16.4956  16780.8  128.963
 16.5376  16596  128.445
 16.5796  16416  127.113
 16.6216  16501.3  127.711
 16.6636  16125.9  126.441
 16.7056  16372.2  127.258
 16.7476  16310.9  126.552
 16.7896  16398.2  127.629
 16.8316  16430.2  127.733
 16.8736  16661.6  128.891
 16.9156  16409  128.242
 16.9576  16090.5  127.785
 16.9996  16233.3  128.811
 17.0416  16351.5  127.675
 17.0836  16296.6  127.217
 17.1256  16254.5  127.061
 17.1676  16138.1  126.586
 17.2096  16019.6  125.999
 17.2516  16162.4  126.336
 17.2936  16059.9  126.29
 17.3356  15717  124.915
 17.3776  15624  124.742
 17.4196  15683.2  124.678
 17.4616  15732.4  124.77
 17.5036  15251.4  123.223
 17.5456  15354.7  124.27
 17.5876  15160.7  122.541
 17.6296  15286.2  122.868
 17.6716  14924.5  121.984
 17.7136  14940.5  122.175
 17.7556  14838.3  122.053
 17.7976  14718.9  121.162
 17.8396  14830.4  121.253
 17.8816  14659.3  121.119
 17.9236  14669.6  120.952
 17.9656  14537.1  121.067
 18.0076  14628.2  120.886
 18.0496  14442.3  119.268
 18.0916  14392.4  119.593
 18.1336  14337.5  119.471
 18.1756  14512.5  119.749
 18.2176  14101  118.247
 18.2596  14170.6  118.273
 18.3016  14463.7  119.747
 18.3436  14471.2  120.022
 18.3856  14247.9  118.989
 18.4276  14239.8  118.641
 18.4696  14152.5  118.351
 18.5116  14182.6  118.764
 18.5536  14085.2  118.709
 18.5956  13971.8  117.795
 18.6376  13893.9  117.865
 18.6796  14088.3  117.998
 18.7216  14137.6  118.769
 18.7636  13992.2  118.095
 18.8056  14004.7  118.064
 18.8476  13821.7  117.919
 18.8896  13850.3  117.375
 18.9316  13958.9  117.656
 18.9736  13892.9  117.243
 19.0156  13786.8  117.212
 19.0576  14047.4  117.164
 19.0996  13989.2  117.63
 19.1416  13889.8  117.605
 19.1836  13826.3  116.946
 19.2256  13741.2  116.804
 19.2676  13813.8  117.195
 19.3096  13737.3  117.118
 19.3516  13663.5  116.758
 19.3936  13625.4  116.491
 19.4356  13898.2  117.536
 19.4776  13779.3  117.12
 19.5196  13778  116.972
 19.5616  13734.8  117.047
 19.6036  13564.4  115.82
 19.6456  13748.6  116.715
 19.6876  13753.6  116.38
 19.7296  13871.5  117.334
 19.7716  13784.3  116.994
 19.8136  14057.7  118.493
 19.8556  14062.2  117.993
 19.8976  13905.2  117.393
 19.9396  14039.5  117.546
 19.9816  14088.3  118.002
 20.0236  14406  119.51
 20.0656  14566.1  120.178
 20.1076  14846.5  121.82
 20.1496  14776.2  121.522
 20.1916  14940.6  121.703
 20.2336  14403.2  119.417
 20.2756  14109.9  118.624
 20.3176  13769  116.938
 20.3596  13762.9  116.901
 20.4016  13732.9  116.568
 20.4436  13611.1  116.623
 20.4856  13601  116.361
 20.5276  13363  115.802
 20.5696  13579.7  116.169
 20.6116  13334.6  115.41
 20.6536  13188  114.335
 20.6956  13159.4  114.285
 20.7376  13244.5  114.873
 20.7796  13056.8  113.746
 20.8216  13257.8  114.336
 20.8636  13206.9  114.488
 20.9056  13051.8  113.743
 20.9476  13177.1  114.142
 20.9896  13130.8  113.807
 21.0316  13065.8  113.422
 21.0736  12978.5  113.561
 21.1156  12837  113.096
 21.1576  13092  114.254
 21.1996  12925  113.513
 21.2416  12974.7  113.552
 21.2836  12989.2  113.592
 21.3256  13050.8  113.942
 21.3676  13004.7  113.272
 21.4096  12781.7  112.618
 21.4516  12704.4  112.147
 21.4936  12505.3  111.528
 21.5356  12837.4  112.946
 21.5776  12875.2  112.948
 21.6196  12660.4  112.041
 21.6616  12718.8  112.376
 21.7036  12759.3  112.323
 21.7456  12710.3  112.187
 21.7876  12716  111.981
 21.8296  12604.4  111.327
 21.8716  12662.3  111.816
 21.9136  12918.4  113.152
 21.9556  12576.9  111.316
 21.9976  12579.1  111.356
 22.0396  12633.4  111.849
 22.0816  12599.4  112.222
 22.1236  12647.6  111.9
 22.1656  12543.7  111.634
 22.2076  12541.2  111.032
 22.2496  12492.1  110.843
 22.2916  12385.9  110.255
 22.3336  12366.1  110.864
 22.3756  12373.8  110.641
 22.4176  12406.8  110.64
 22.4596  12061.3  109.669
 22.5016  12200.7  109.806
 22.5436  12327.3  110.254
 22.5856  12530.2  111.406
 22.6276  12635.7  112.005
 22.6696  12450.9  111.54
 22.7116  12401.8  110.834
 22.7536  12293.3  110.324
 22.7956  12290.3  109.649
 22.8376  12073.2  109.189
 22.8796  12210.1  109.61
 22.9216  12385  110.933
 22.9636  12148.8  109.038
 23.0056  12262.2  109.677
 23.0476  12336.3  110.569
 23.0896  12530  110.819
 23.1316  12577.3  111.465
 23.1736  12438.5  113.779
 23.2156  12746.9  112.535
 23.2576  12951.2  113.567
 23.2996  12652.7  112.019
 23.3416  12727.3  112.888
 23.3836  12824.5  112.543
 23.4256  12796  112.539
 23.4676  12568.8  111.225
 23.5096  12491.9  111.545
 23.5516  12612  111.373
 23.5936  12615.6  112.304
 23.6356  12881.9  113.136
 23.6776  12483.1  111.59
 23.7196  12427.6  110.921
 23.7616  12498.6  111.155
 23.8036  12688.5  112.049
 23.8456  12584.1  111.139
 23.8876  12462.3  110.954
 23.9296  12438.4  111.34
 23.9716  12321.5  110.021
 24.0136  12321.5  110.922
 24.0556  12229.7  110.221
 24.0976  12258.8  110.174
 24.1396  12111.1  112.139
 24.1816  12178.1  111.199
 24.2236  12219.8  110.668
 24.2656  12088.6  109.546
 24.3076  12031.7  109.557
 24.3496  11890.1  108.785
 24.3916  12137  109.965
 24.4336  12070.6  109.855
 24.4756  11999  109.426
 24.5176  11842.2  108.34
 24.5596  11887.6  108.667
 24.6016  11973.4  109.36
 24.6436  11780.7  107.979
 24.6856  11741.2  107.54
 24.7276  11594.9  107.197
 24.7696  11596.6  107.304
 24.8116  11399.9  106.577
 24.8536  11482.4  106.952
 24.8956  11495.8  106.757
 24.9376  11446.9  106.466
 24.9796  11465.8  106.903
 25.0216  11402.4  106.727
 25.0636  11345.4  106.113
 25.1056  11231  106.011
 25.1476  11214.5  107.84
 25.1896  11186.9  106.209
 25.2316  11223.8  105.66
 25.2736  11197.6  105.183
 25.3156  11249.8  105.503
 25.3576  10998.1  104.747
 25.3996  11131.9  105.37
 25.4416  11188.7  105.616
 25.4836  10858.2  104.554
 25.5256  11035  104.774
 25.5676  11112.5  104.867
 25.6096  10924.2  104.545
 25.6516  11023.6  104.527
 25.6936  10952.5  104.502
 25.7356  10891.3  104.343
 25.7776  11045.5  104.673
 25.8196  10815.6  103.822
 25.8616  10762.3  103.494
 25.9036  10953.3  103.866
 25.9456  10786.7  103.666
 25.9876  10732.4  103.469
 26.0296  10919.9  103.974
 26.0716  10887  104.153
 26.1136  10866  103.992
 26.1556  10857.1  103.33
 26.1976  10722.6  103.61
 26.2396  10734.9  103.078
 26.2816  10763.7  103.568
 26.3236  10773.3  103.764
 26.3656  10945.5  104.316
 26.4076  10772.7  103.701
 26.4496  10963.6  104.207
 26.4916  11066  104.575
 26.5336  11328.3  106.166
 26.5756  11539.6  107.026
 26.6176  10959  104.323
 26.6596  10920.6  104.448
 26.7016  10850.9  103.873
 26.7436  10811.8  103.812
 26.7856  10505.2  102.325
 26.8276  10704.9  103.257
 26.8696  10624.7  102.739
 26.9116  10592.6  102.522
 26.9536  10503.1  102.133
 26.9956  10449.9  101.914
 27.0376  10546.3  102.605
 27.0796  10550.1  102.42
 27.1216  10437.2  101.851
 27.1636  10309  101.406
 27.2056  10384.7  101.657
 27.2476  10288.6  101.18
 27.2896  10267.4  101.193
 27.3316  10320.9  101.171
 27.3736  10263.7  101.157
 27.4156  10283.3  101.089
 27.4576  10201.6  100.906
 27.4996  10333.5  101.167
 27.5416  10195.1  100.789
 27.5836  10230.1  100.8
 27.6256  10280  101.234
 27.6676  10139.4  100.528
 27.7096  10222.8  100.816
 27.7516  10136.5  100.538
 27.7936  10436.9  102.158
 27.8356  10411.1  101.641
 27.8776  10411.2  101.713
 27.9196  10226.1  100.667
 27.9616  10190.5  100.687
 28.0036  10031.3  99.8514
 28.0456  10040.7  100.048
 28.0876  9910.28  99.4768
 28.1296  9991.16  99.7186
 28.1716  10019.8  99.8791
 28.2136  10054.1  100.013
 28.2556  9988.22  99.7994
 28.2976  9905.36  99.3789
 28.3396  9892.61  99.1158
 28.3816  10011.7  99.6824
 28.4236  9830.76  98.9349
 28.4656  9744.27  98.5352
 28.5076  9797.5  98.4474
 28.5496  9869.85  99.0625
 28.5916  9950.24  99.2724
 28.6336  9908.54  99.4096
 28.6756  9911.9  98.6279
 28.7176  9804.03  98.6402
 28.7596  9697.46  97.9932
 28.8016  9762.69  98.3642
 28.8436  9661.84  98.0885
 28.8856  9630.68  97.7841
 28.9276  9806.48  98.9202
 28.9696  9697.02  98.0262
 29.0116  9612.14  97.7702
 29.0536  9640.33  98.1299
 29.0956  9629.78  97.7789
 29.1376  9697.25  98.0924
 29.1796  9644.31  97.8733
 29.2216  9742.44  98.2053
 29.2636  9772.93  98.357
 29.3056  9691.78  97.8067
 29.3476  9657.24  98.1535
 29.3896  9655.73  98.2692
 29.4316  9680.04  97.7255
 29.4736  9355.74  96.1349
 29.5156  9587.5  97.2435
 29.5576  9422.76  97.1339
 29.5996  9396.92  96.2691
 29.6416  9441.99  96.6131
 29.6836  9379.63  96.2247
 29.7256  9359.93  96.6821
 29.7676  9269.3  95.8774
 29.8096  9413.53  96.5671
 29.8516  9122.44  95.3873
 29.8936  9273.98  96.2685
 29.9356  9294.71  96.1339
 29.9776  9240.8  96.0064
 30.0196  9239.65  95.3984
 30.0616  9245.71  95.7981
 30.1036  9289.91  95.8554
 30.1456  9188.21  95.5549
 30.1876  9243.59  95.8241
 30.2296  9243.09  95.7647
 30.2716  9286.71  95.6373
 30.3136  9408.59  97.1158
 30.3556  9473.25  97.4476
 30.3976  9375.47  98.42
 30.4396  9695.86  97.4319
 30.4816  9477.03  95.9308
 30.5236  9598.2  96.5325
 30.5656  9530.62  96.8589
 30.6076  9486.16  96.033
 30.6496  9490.78  96.4869
 30.6916  9355.65  95.8896
 30.7336  9438.7  96.4525
 30.7756  9555.47  97.1462
 30.8176  9314.14  95.8373
 30.8596  9468.15  96.3731
 30.9016  9470.88  96.7381
 30.9436  9463.93  96.4249
 30.9856  9603.62  97.275
 31.0276  9440.63  96.077
 31.0696  9401.13  96.4417
 31.1116  9330.98  96.051
 31.1536  9383.06  96.1923
 31.1956  9254.25  95.6127
 31.2376  9159.52  95.1525
 31.2796  9308.29  95.4539
 31.3216  9396.13  95.8326
 31.3636  9278.67  95.9323
 31.4056  9317.65  97.4325
 31.4476  9356.21  95.5545
 31.4896  9263.15  95.5754
 31.5316  9400.16  95.7257
 31.5736  9439.39  95.7072
 31.6156  9398.34  95.5106
 31.6576  9407.56  95.6396
 31.6996  9279.21  94.6338
 31.7416  9184.61  95.2478
 31.7836  9331.6  95.0118
 31.8256  9183.32  94.5896
 31.8676  9235.66  94.7588
 31.9096  9180.49  94.8621
 31.9516  9193.3  95.094
 31.9936  8977.31  93.7897
 32.0356  9259.25  95.3074
 32.0776  9238.65  95.0773
 32.1196  9243.91  95.2255
 32.1616  9266.09  94.7874
 32.2036  9174.07  94.8219
 32.2456  9089.07  94.7567
 32.2876  9058.07  93.9394
 32.3296  8991.21  93.7195
 32.3716  8905.58  93.3872
 32.4136  8880  93.4546
 32.4556  9046.55  93.7622
 32.4976  8971.87  93.233
 32.5396  8971.56  93.2899
 32.5816  9003.84  93.5847
 32.6236  8956.08  93.3951
 32.6656  9075.71  94.5715
 32.7076  8816.42  92.8641
 32.7496  8937.44  93.1674
 32.7916  9008.79  93.5094
 32.8336  8947.06  93.279
 32.8756  9043.72  93.5013
 32.9176  8788.13  92.6548
 32.9596  8886.86  93.2425
 33.0016  8822.61  92.6829
 33.0436  8908.01  93.2972
 33.0856  8874.12  93.2145
 33.1276  8690.32  91.9796
 33.1696  8923.38  93.0276
 33.2116  8842.69  92.8496
 33.2536  8972.8  93.5096
 33.2956  8677.54  92.0518
 33.3376  8794.65  92.4196
 33.3796  8905.54  93.21
 33.4216  8796.19  92.2234
 33.4636  8920.49  93.0323
 33.5056  8773.11  92.5091
 33.5476  8842.68  92.8501
 33.5896  8950.32  93.1825
 33.6316  8812.68  92.7886
 33.6736  8735.72  92.6385
 33.7156  8739.41  92.6861
 33.7576  8748.69  92.3744
 33.7996  8802.52  92.4269
 33.8416  8653.74  91.8253
 33.8836  8613.56  91.3891
 33.9256  8831.58  92.589
 33.9676  8798.03  92.3107
 34.0096  8676.37  91.9877
 34.0516  8638.41  91.4271
 34.0936  8651.16  91.7662
 34.1356  8739.15  91.9665
 34.1776  8594.34  91.2112
 34.2196  8532.81  91.0588
 34.2616  8506.92  91.0576
 34.3036  8701.5  92.3396
 34.3456  8529.4  91.1699
 34.3876  8616.59  91.611
 34.4296  8588.47  91.1556
 34.4716  8707.39  91.9357
 34.5136  8595.17  91.5219
 34.5556  8532.24  91.4511
 34.5976  8586.63  91.5527
 34.6396  8578.03  91.2208
 34.6816  8613.73  91.5201
 34.7236  8613.14  91.2945
 34.7656  8558.46  91.2128
 34.8076  8467.73  91.0541
 34.8496  8458.15  90.8533
 34.8916  8505.4  90.9578
 34.9336  8541.87  91.1462
 34.9756  8560.28  91.1653
 35.0176  8545.25  91.6089
 35.0596  8719.14  92.3613
 35.1016  8525.37  91.0767
 35.1436  8885.05  92.6706
 35.1856  8597.6  91.2728
 35.2276  8547.43  91.1868
 35.2696  8613.24  91.7341
 35.3116  8474.34  91.0921
 35.3536  8501.41  90.9362
 35.3956  8483.23  90.5548
 35.4376  8600.9  91.7467
 35.4796  8422.65  90.8317
 35.5216  8404.1  90.7014
 35.5636  8229.09  90.486
 35.6056  8425.83  90.5798
 35.6476  8507.83  90.9173
 35.6896  8498.46  91.0428
 35.7316  8297.95  89.8574
 35.7736  8362.21  90.3827
 35.8156  8498.11  91.1142
 35.8576  8362.47  90.6367
 35.8996  8448.32  91.0756
 35.9416  8457.02  90.6196
 35.9836  8437.44  90.8715
 36.0256  8613.23  91.8171
 36.0676  8544.75  90.9775
 36.1096  8358.34  90.3577
 36.1516  8490.38  90.9591
 36.1936  8435.61  90.5007
 36.2356  8389.63  90.9115
 36.2776  8366.95  90.2581
 36.3196  8373.86  89.963
 36.3616  8409  90.2928
 36.4036  8368.86  90.1392
 36.4456  8337.84  90.1756
 36.4876  8066.25  88.6413
 36.5296  8319.66  90.0606
 36.5716  8192.11  90.139
 36.6136  8166.05  88.7927
 36.6556  8147.46  88.8887
 36.6976  8005.71  88.6009
 36.7396  8070.15  88.6909
 36.7816  8218.9  89.8787
 36.8236  8004.94  88.6224
 36.8656  7931.38  88.2905
 36.9076  7950.99  88.4009
 36.9496  7901.26  87.9844
 36.9916  8003.06  88.1892
 37.0336  8178  89.459
 37.0756  8089.97  88.7726
 37.1176  7865.08  87.7932
 37.1596  8080.8  88.996
 37.2016  7999.14  88.7208
 37.2436  8034.93  88.2815
 37.2856  7942.52  88.0271
 37.3276  8099.75  88.2557
 37.3696  7971.62  88.4303
 37.4116  7905.97  87.9689
 37.4536  7934.34  87.9984
 37.4956  7838.36  87.5048
 37.5376  8128.95  90.706
 37.5796  7976.36  89.7701
 37.6216  7987.86  88.1147
 37.6636  8088.68  88.5574
 37.7056  8177.28  89.2323
 37.7476  8207.32  88.9357
 37.7896  8006.22  88.3383
 37.8316  7951.65  88.2048
 37.8736  7981.44  87.897
 37.9156  8064.43  88.3307
 37.9576  8176.16  88.8644
 37.9996  7829.81  86.6717
 38.0416  8021.33  88.538
 38.0836  8118.89  88.9777
 38.1256  7879.22  87.627
 38.1676  7904.7  87.8873
 38.2096  8094.86  88.553
 38.2516  7962.16  88.0446
 38.2936  8139.86  88.8141
 38.3356  8040.96  88.2001
 38.3776  7972.06  88.072
 38.4196  8137.97  88.8307
 38.4616  7949.77  88.0544
 38.5036  8081.15  88.6185
 38.5456  7838.64  88.1066
 38.5876  7872.54  88.3221
 38.6296  7970.37  87.8462
 38.6716  7969.95  87.644
 38.7136  7953.13  87.4901
 38.7556  7959.36  88.0349
 38.7976  8123.49  88.8475
 38.8396  7886.72  88.018
 38.8816  7806.8  87.3648
 38.9236  7848.53  87.3986
 38.9656  7943.81  87.8231
 39.0076  7930.84  87.1678
 39.0496  7965.11  87.911
 39.0916  8034.65  87.9382
 39.1336  7942.22  87.8384
 39.1756  8007.21  88.2563
 39.2176  7917.35  88.3018
 39.2596  7947.49  88.3927
 39.3016  7934.3  87.8978
 39.3436  7865.39  87.9238
 39.3856  7964.86  87.9209
 39.4276  8108.21  89.2272
 39.4696  8114.48  88.8792
 39.5116  7937.75  88.4186
 39.5536  7971.4  89.0211
 39.5956  7968.12  88.1137
 39.6376  7901.4  87.7425
 39.6796  7801.18  86.932
 39.7216  7895.27  87.5568
 39.7636  7918.71  88.2444
 39.8056  7958.28  88.2526
 39.8476  7784.35  87.5287
 39.8896  7925.77  87.9551
 39.9316  7690.67  86.8872
 39.9736  7942.63  87.8729
 40.0156  7793.21  86.8759
 40.0576  7876.84  87.6937
 40.0996  7935.22  87.2031
 40.1416  7934.83  87.992
 40.1836  7913.9  87.7631
 40.2256  7936  87.9177
 40.2676  7911.5  87.8913
 40.3096  7930.57  87.9313
 40.3516  7935.57  88.0717
 40.3936  8007.82  88.0191
 40.4356  7900.42  87.6343
 40.4776  8001.49  88.5994
 40.5196  7960.7  88.5012
 40.5616  8004.35  88.3809
 40.6036  7933.1  88.2404
 40.6456  7880.1  87.5504
 40.6876  8001.91  88.2239
 40.7296  7924.18  87.9227
 40.7716  7944.6  88.1639
 40.8136  7880.85  87.7503
 40.8556  8056.39  88.8543
 40.8976  7938.62  88.1273
 40.9396  7952.2  88.5534
 40.9816  7998.8  88.0995
 41.0236  7960.11  87.6704
 41.0656  7939.51  88.0921
 41.1076  7949.2  87.9191
 41.1496  7927.37  87.7008
 41.1916  7927.47  88.0271
 41.2336  7920.27  87.9822
 41.2756  7933.25  87.6583
 41.3176  7928.37  88.2361
 41.3596  7934.64  88.0105
 41.4016  7917.71  88.1746
 41.4436  7915.82  87.9553
 41.4856  7927.69  88.1799
 41.5276  7874.95  87.9021
 41.5696  7929.73  87.8286
 41.6116  7922.39  88.187
 41.6536  7974.47  88.3352
 41.6956  7941.52  88.2138
 41.7376  7849.67  87.7315
 41.7796  7808.57  87.4286
 41.8216  7919.16  88.2258
 41.8636  7792.36  87.4688
 41.9056  7773.01  87.1522
 41.9476  7875.61  87.9593
 41.9896  7985.07  88.2362
 42.0316  8033.94  88.5866
 42.0736  7982.1  88.3998
 42.1156  7880.48  87.6782
 42.1576  7911.89  87.9617
 42.1996  7957.86  88.3414
 42.2416  7920.79  87.7225
 42.2836  7839.29  87.3916
 42.3256  7806.77  87.3135
 42.3676  7974.76  88.0495
 42.4096  7840.88  87.2819
 42.4516  7949.7  87.9623
 42.4936  7798.51  87.1868
 42.5356  7768.03  87.1642
 42.5776  7820.42  87.3959
 42.6196  7887.9  87.8305
 42.6616  7835.37  87.7069
 42.7036  7873.09  87.295
 42.7456  7850.18  87.519
 42.7876  7794.03  87.3016
 42.8296  7874.78  87.5908
 42.8716  7685.09  86.6962
 42.9136  7775.83  86.9914
 42.9556  7826.13  87.4008
 42.9976  7816.89  87.3185
 43.0396  7833.62  87.1471
 43.0816  7733.03  86.9621
 43.1236  7752.04  87.1226
 43.1656  7789.39  87.1511
 43.2076  7859.07  87.6446
 43.2496  7799.06  87.1424
 43.2916  7769.14  87.3331
 43.3336  7769.96  87.1634
 43.3756  7800.6  87.1071
 43.4176  7611.45  86.1126
 43.4596  7696.84  86.4566
 43.5016  7766.82  87.2429
 43.5436  7706.7  86.8265
 43.5856  7739.83  87.0368
 43.6276  7699.03  86.6964
 43.6696  7730.46  87.0164
 43.7116  7753.5  86.7623
 43.7536  7785.28  87.4337
 43.7956  7576.17  87.451
 43.8376  7540.22  85.782
 43.8796  7597.88  86.19
 43.9216  7599.5  86.1195
 43.9636  7565.7  86.0302
 44.0056  7552.51  86.1895
 44.0476  7572.1  85.9313
 44.0896  7414.36  85.3704
 44.1316  7513.03  85.5978
 44.1736  7554.47  85.8263
 44.2156  7552.27  85.6675
 44.2576  7426.81  85.27
 44.2996  7477.72  85.5329
 44.3416  7475.15  85.2796
 44.3836  7554.07  86.0601
 44.4256  7456.09  85.1457
 44.4676  7412.53  85.0513
 44.5096  7612.55  86.3378
 44.5516  7576.74  86.0975
 44.5936  7356.64  84.7921
 44.6356  7453.76  85.0894
 44.6776  7470.49  85.4985
 44.7196  7481.57  85.8685
 44.7616  7517.17  87.3975
 44.8036  7548.5  85.9988
 44.8456  7609.68  86.554
 44.8876  7661.63  86.6847
 44.9296  7666.09  86.1637
 44.9716  7615.01  86.3075
 45.0136  7774.52  87.1372
 45.0556  7714.05  86.7739
 45.0976  7591.43  86.2329
 45.1396  7553.79  85.7949
 45.1816  7556.39  85.7441
 45.2236  7698.74  86.4504
 45.2656  7475.41  85.6847
 45.3076  7647.2  86.4443
 45.3496  7526.76  86.064
 45.3916  7604.82  86.7838
 45.4336  7551.16  86.3132
 45.4756  7485.13  85.7949
 45.5176  7681.66  86.5264
 45.5596  7721.79  86.8661
 45.6016  7486.31  85.9613
 45.6436  7512.77  85.2895
 45.6856  7526.97  86.0106
 45.7276  7485.59  87.105
 45.7696  7534.34  87.0742
 45.8116  7499.63  86.3055
 45.8536  7356.62  85.3728
 45.8956  7534.17  85.7442
 45.9376  7555.06  85.322
 45.9796  7598.55  86.2753
 46.0216  7485.2  85.9461
 46.0636  7635.34  85.9478
 46.1056  7535.36  85.376
 46.1476  7528.44  85.9048
 46.1896  7478.55  85.788
 46.2316  7493.73  85.7543
 46.2736  7468.64  85.9819
 46.3156  7457.49  85.4974
 46.3576  7455.51  85.6909
 46.3996  7437.66  85.7506
 46.4416  7525.59  85.8254
 46.4836  7493.37  86.0004
 46.5256  7523.5  86.1053
 46.5676  7372.68  85.3602
 46.6096  7524.39  86.1665
 46.6516  7571.67  85.4684
 46.6936  7501.81  85.5731
 46.7356  7647.86  86.4971
 46.7776  7469.13  86.3374
 46.8196  7433.55  85.7232
 46.8616  7284.12  84.8037
 46.9036  7324.69  84.6965
 46.9456  7455.9  85.0907
 46.9876  7466.87  85.2405
 47.0296  7395.79  85.5271
 47.0716  7296.33  84.7711
 47.1136  7463.21  85.4098
 47.1556  7497.26  85.4704
 47.1976  7508.49  85.6193
 47.2396  7369.3  85.2201
 47.2816  7306.77  84.5566
 47.3236  7381.84  85.3646
 47.3656  7457.27  85.7304
 47.4076  7329.26  84.7864
 47.4496  7324.79  84.8563
 47.4916  7341.93  85.1439
 47.5336  7443.12  85.5426
 47.5756  7505.76  86.0277
 47.6176  7297.25  84.7188
 47.6596  7387.04  84.954
 47.7016  7499.74  85.3977
 47.7436  7436.63  85.3975
 47.7856  7487.01  85.7092
 47.8276  7345.6  84.9352
 47.8696  7373.74  85.1889
 47.9116  7449.26  85.3344
 47.9536  7460.46  85.3394
 47.9956  7351.09  85.4298
 48.0376  7327.1  85.0596
 48.0796  7329.58  85.2008
 48.1216  7399.05  85.4283
 48.1636  7404.29  85.0209
 48.2056  7411.85  85.3367
 48.2476  7548.63  86.4339
 48.2896  7355.96  85.227
 48.3316  7473.18  85.8458
 48.3736  7425.78  85.6022
 48.4156  7417.49  85.4055
 48.4576  7320.81  85.1406
 48.4996  7408.32  85.0953
 48.5416  7429.53  85.5454
 48.5836  7377.5  84.9224
 48.6256  7421.76  85.3789
 48.6676  7407.95  85.8312
 48.7096  7393.41  84.9995
 48.7516  7340.93  84.8477
 48.7936  7266.38  84.4816
 48.8356  7379.29  85.1857
 48.8776  7289.81  85.1604
 48.9196  7475.53  85.6788
 48.9616  7350.69  85.3507
 49.0036  7355.67  85.729
 49.0456  7286.37  85.3112
 49.0876  7320.5  85.1392
 49.1296  7258.47  84.831
 49.1716  7217.47  84.4738
 49.2136  7331.19  85.0647
 49.2556  7477.51  85.9341
 49.2976  7410.54  85.6173
 49.3396  7277.07  84.8952
 49.3816  7402.86  85.0448
 49.4236  7303.51  84.8924
 49.4656  7230.45  84.5027
 49.5076  7269.71  84.477
 49.5496  7245.15  84.3994
 49.5916  7374.46  85.0678
 49.6336  7306.49  84.8758
 49.6756  7318.99  85.1821
 49.7176  7263.69  84.8003
 49.7596  7225.43  84.3409
 49.8016  7423.09  85.3953
 49.8436  7257.03  84.7494
 49.8856  7313.3  85.0841
 49.9276  7264.82  84.9014
 49.9696  7268.95  84.9083
 50.0116  7315.71  85.3079
 50.0536  7302.65  85.1801
 50.0956  7259.85  85.0103
 50.1376  7244.34  84.607
 50.1796  7203.39  84.6436
 50.2216  7220.61  84.746
 50.2636  7236.72  84.4465
 50.3056  7205.57  84.4429
 50.3476  7249.34  84.7155
 50.3896  7204.26  84.4271
 50.4316  7248.23  84.5159
 50.4736  7156.26  84.1986
 50.5156  7240.71  84.6797
 50.5576  7286.86  84.71
 50.5996  7224.95  84.6355
 50.6416  7214.95  84.5016
 50.6836  7322.67  85.1966
 50.7256  7272.86  84.8252
 50.7676  7383.29  85.7431
 50.8096  7226.25  84.401
 50.8516  7221.12  84.7965
 50.8936  7088.05  83.7935
 50.9356  7301.36  85.1542
 50.9776  7195.13  84.6933
 51.0196  7020.69  83.7784
 51.0616  7061.56  83.3456
 51.1036  7093.86  83.9028
 51.1456  7226.14  84.5929
 51.1876  7045.91  82.8583
 51.2296  7071.83  83.6585
 51.2716  6920.39  82.461
 51.3136  7029.15  83.5745
 51.3556  6980.23  82.897
 51.3976  6954.75  82.8927
 51.4396  6979.01  83.3606
 51.4816  7051.41  83.6434
 51.5236  7055.42  83.756
 51.5656  7075.55  83.4627
 51.6076  7072.3  83.5296
 51.6496  7014.31  83.3768
 51.6916  7026.2  83.8149
 51.7336  6956.68  83.4871
 51.7756  6974.05  83.276
 51.8176  7002.72  83.5704
 51.8596  7007.92  83.6119
 51.9016  7018.26  83.2766
 51.9436  7029.15  84.8644
 51.9856  7049.59  85.3937
 52.0276  7045.07  83.8253
 52.0696  7191.64  84.7666
 52.1116  6956.77  83.4994
 52.1536  7096.55  84.2025
 52.1956  7084.14  83.594
 52.2376  7122.9  83.9985
 52.2796  7152.25  83.983
 52.3216  6850.54  82.8851
 52.3636  7016.43  83.4359
 52.4056  6971.9  83.0362
 52.4476  6983.43  83.4736
 52.4896  6957.63  83.3663
 52.5316  7045.14  83.944
 52.5736  6873.94  82.6299
 52.6156  7065.07  84.1797
 52.6576  6917.67  82.7194
 52.6996  6840.4  83.256
 52.7416  6989.28  84.007
 52.7836  7001.13  83.9717
 52.8256  7016.61  83.2582
 52.8676  6829.94  82.7231
 52.9096  7187.11  84.9319
 52.9516  6995.41  84.1982
 52.9936  6961.32  84.3763
 53.0356  7025.87  83.7383
 53.0776  7060.61  84.242
 53.1196  6925.51  83.5398
 53.1616  6970.57  83.8555
 53.2036  6906.99  83.4388
 53.2456  6886.62  83.4227
 53.2876  6884.16  83.0956
 53.3296  6992.69  84.075
 53.3716  7024.32  84.0055
 53.4136  6939.51  83.6549
 53.4556  6925.49  83.6068
 53.4976  6918.74  83.4071
 53.5396  6825.33  83.2251
 53.5816  7017.12  84.0239
 53.6236  6843.37  83.3223
 53.6656  6929.61  83.4394
 53.7076  6969.37  83.6402
 53.7496  7036.46  84.1844
 53.7916  7045.84  84.3866
 53.8336  6884.74  83.3034
 53.8756  6829.74  83.5304
 53.9176  6943.82  83.5504
 53.9596  6674.66  82.6826
 54.0016  6688.86  82.0899
 54.0436  6668.8  82.1907
 54.0856  6772.4  82.2483
 54.1276  6684.08  81.9049
 54.1696  6652.89  81.8835
 54.2116  6848.18  82.8161
 54.2536  6722.94  81.8581
 54.2956  6724.1  81.9191
 54.3376  6561.76  81.4188
 54.3796  6636.17  81.7676
 54.4216  6695.28  82.1909
 54.4636  6619  81.6794
 54.5056  6760.96  82.3595
 54.5476  6632.5  81.9112
 54.5896  6672.03  82.003
 54.6316  6638.9  81.6353
 54.6736  6639.07  81.6853
 54.7156  6680.85  81.9941
 54.7576  6482.64  80.7592
 54.7996  6648.44  81.9424
 54.8416  6605.19  81.7233
 54.8836  6586.58  81.7094
 54.9256  6510.59  80.9882
 54.9676  6514.02  80.8818
 55.0096  6654.12  81.7855
 55.0516  6457.58  80.74
 55.0936  6627.68  81.523
 55.1356  6439.66  80.4009
 55.1776  6748.1  82.5456
 55.2196  6540.87  81.0554
 55.2616  6631.37  81.8321
 55.3036  6485.58  81.1119
 55.3456  6409.86  80.767
 55.3876  6459.6  80.8172
 55.4296  6468.95  80.8695
 55.4716  6539.01  81.3183
 55.5136  6442.42  80.4947
 55.5556  6559.61  81.2606
 55.5976  6537.69  81.2204
 55.6396  6634.5  81.7553
 55.6816  6533.72  80.9891
 55.7236  6492.28  80.7985
 55.7656  6517.18  80.6897
 55.8076  6460.12  80.34
 55.8496  6472.73  80.7281
 55.8916  6428.5  80.607
 55.9336  6604.31  81.5706
 55.9756  6347.67  79.8515
 56.0176  6435.11  80.5582
 56.0596  6340.24  79.9367
 56.1016  6317.63  79.857
 56.1436  6380.31  80.4794
 56.1856  6370.41  80.1671
 56.2276  6512.64  81.1003
 56.2696  6439.09  80.6209
 56.3116  6512.69  81.4457
 56.3536  6414.43  80.4963
 56.3956  6392.92  80.3589
 56.4376  6491.2  81.0146
 56.4796  6273.81  79.4649
 56.5216  6459.39  81.0074
 56.5636  6431.61  80.4156
 56.6056  6483.59  80.9717
 56.6476  6314.88  79.522
 56.6896  6485.44  81.0401
 56.7316  6382.03  80.3192
 56.7736  6415.09  80.5305
 56.8156  6327.59  80.0026
 56.8576  6217.36  79.2372
 56.8996  6237.06  79.285
 56.9416  6369.12  80.4203
 56.9836  6371.79  79.9524
 57.0256  6290.14  79.7491
 57.0676  6387.42  80.4804
 57.1096  6288.37  79.6167
 57.1516  6247.85  79.4145
 57.1936  6237.93  79.1363
 57.2356  6154.65  78.9336
 57.2776  6330.21  80.0191
 57.3196  6307.79  80.2231
 57.3616  6365.18  80.0914
 57.4036  6282.05  79.6191
 57.4456  6335.31  79.9207
 57.4876  6296.53  79.5608
 57.5296  6220.03  79.2942
 57.5716  6262.31  79.6519
 57.6136  6123.46  78.6118
 57.6556  6232.51  79.4325
 57.6976  6273.4  79.5251
 57.7396  6186.14  79.3206
 57.7816  6161.2  79.5223
 57.8236  6212.75  79.6611
 57.8656  6209.37  79.283
 57.9076  6220.18  79.3836
 57.9496  6244.67  79.8904
 57.9916  6241.53  79.3874
 58.0336  6259.2  79.7929
 58.0756  6318.41  79.7763
 58.1176  6125.34  78.5586
 58.1596  6180.14  79.4988
 58.2016  6114.32  78.2923
 58.2436  5996.9  77.9427
 58.2856  5917.14  77.3465
 58.3276  5959.29  77.9787
 58.3696  5955.13  77.7199
 58.4116  6018.83  77.9975
 58.4536  6033.33  77.9779
 58.4956  5886  77.1964
 58.5376  6002.55  77.5251
 58.5796  5878.25  77.14
 58.6216  5972.16  77.5769
 58.6636  6002.25  77.9729
 58.7056  6030.32  78.0195
 58.7476  5920.28  77.7443
 58.7896  5921.67  77.4021
 58.8316  5933.42  77.4701
 58.8736  5930.07  77.4628
 58.9156  5947.77  77.6227
 58.9576  5943.62  77.9066
 58.9996  5912.64  76.9691
 59.0416  5933.7  77.463
 59.0836  6020.23  77.9342
 59.1256  5900.29  77.8568
 59.1676  5861.42  77.9095
 59.2096  6098.29  78.764
 59.2516  6008.04  77.7611
 59.2936  5977.5  77.8896
 59.3356  5934.94  77.4907
 59.3776  5997.92  78.0691
 59.4196  5904.5  77.3953
 59.4616  5960.05  77.6196
 59.5036  5879.44  77.1269
 59.5456  5927.95  77.1415
 59.5876  5891.03  77.0897
 59.6296  5865.76  76.9923
 59.6716  5876.82  77.1221
 59.7136  5944.79  77.5551
 59.7556  5924.09  77.5551
 59.7976  5777.94  76.3403
 59.8396  5876.12  76.8819
 59.8816  5931.46  77.7836
 59.9236  5883.32  77.1156
 59.9656  5987.72  78.0559
 60.0076  5962.25  77.2516
 60.0496  5833.03  76.9052
 60.0916  5963.22  77.1804
 60.1336  5917.41  77.9794
 60.1756  5837.87  78.6179
 60.1996  0.0000000E+00  0.0000000E+00