File: docs/examples/XRD/IS17_D/Data/IS17_D/17_Da_f00153.xye
# /beamlines/bl04/projects/cycle2025-II/20250340211-lsimonelli/DATA/IS17_D/17_Da_f00153.xye : mythproc.py merge -s 0.006 -l 0.5 -f /beamlines/bl04/inhouse/ff/FlatField/ff_20Nov2024rod8mm60s_17keV.raw -b True -c true -o xye /beamlines/bl04/projects/cycle2025-II/20250340211-lsimonelli/DATA/IS17_D/17_Da_00153.dat
# IsMon = [6746246, 6739890, 6743004]  IsPos = [-1.5000, -2.4883, -3.4988]
# Wave = 0.4962  CalPath /beamlines/bl04/projects/cycle2025-II/20250340211-lsimonelli/DATA/Align/Si_Pos1_25keV_f00001.cal
# Date = 2025-09-25_12:13:44 Dt = 4.8000  Bin = 0.0060  <imon> = 6743047 +/- 2595 (Min/Max) 6739890 / 6746246
# icurr 249.3675  mocoIn 1.7009E-05  mocoOut 0.7978  i15 7.06239e+06  imon 6.74305e+06  i7 5.3333  iEMpd_timer 4.8000  iEMpd_1 3.4062E-08  iEMpd_2 7.9011E-08  iEMpd_3 1.7717E-08  iEMpd_4 4.7884E-08  iEMhp_timer 4.8000  iEMhp_1 4.8706E-06  iEMhp_2 -2.4600E-08  iEMhp_3 -2.2844E-08  iEMhp_4 -2.1149E-08
#      9776
 1.5856  40368.6  206.263
 1.6276  47316.5  219.477
 1.6696  53576.9  232.722
 1.7116  62848.2  252.548
 1.7536  71915  269.001
 1.7956  76358.4  277.879
 1.8376  72799.1  271.755
 1.8796  60992.7  246.92
 1.9216  49301.1  222.876
 1.9636  42048.8  205.506
 2.0056  37645.3  193.206
 2.0476  35013.5  188.373
 2.0896  33827.8  184.07
 2.1316  32287.2  178.965
 2.1736  31105.9  177.054
 2.2156  31624.3  177.091
 2.2576  30594.1  174.808
 2.2996  29353.5  171.855
 2.3416  29548.4  171.048
 2.3836  29335.5  170.536
 2.4256  28088  167.414
 2.4676  28110.6  167.244
 2.5096  27212.2  164.603
 2.5516  26665.1  166.76
 2.5936  26950  164.259
 2.6356  26408.1  163.284
 2.6776  26166.2  161.429
 2.7196  26038.5  161.157
 2.7616  25872.7  160.817
 2.8036  25466.7  159.721
 2.8456  25560.3  160.629
 2.8876  25010.6  158.782
 2.9296  24635.8  157.7
 2.9716  24610.7  157.112
 3.0136  24167.8  155.755
 3.0556  24229.2  156.352
 3.0976  24199.7  155.183
 3.1396  24004.8  155.278
 3.1816  24014.7  154.946
 3.2236  23670.3  154.129
 3.2656  23807.7  153.623
 3.3076  23464.8  153.951
 3.3496  23821.8  154.069
 3.3916  24016.9  154.511
 3.4336  24484.1  156.584
 3.4756  24766.6  157.397
 3.5176  25590.3  159.805
 3.5596  25490.9  162.488
 3.6016  25630.8  159.985
 3.6436  25083.9  159.384
 3.6856  24486.3  155.76
 3.7276  23459  153.557
 3.7696  23388  153.294
 3.8116  23047.7  152.27
 3.8536  22954.4  151.89
 3.8956  22948  151.701
 3.9376  22987.9  152.089
 3.9796  22820.5  151.043
 4.0216  23126  151.093
 4.0636  22798.8  151.484
 4.1056  22885.2  151.417
 4.1476  23045.7  152.243
 4.1896  23190.7  152.594
 4.2316  23387.2  153.06
 4.2736  23972.1  154.751
 4.3156  24149.5  155.554
 4.3576  24805.2  157.58
 4.3996  25046.9  158.611
 4.4416  25739.4  160.362
 4.4836  25838.4  160.832
 4.5256  26481.1  163.412
 4.5676  26354.5  163.286
 4.6096  26842.1  163.807
 4.6516  27380.4  164.789
 4.6936  27593.2  166.24
 4.7356  27651.1  166.245
 4.7776  27629.9  166.022
 4.8196  27207.7  165.373
 4.8616  26994.3  164.226
 4.9036  26493.8  162.427
 4.9456  26557.6  163.28
 4.9876  25904.4  161.163
 5.0296  26428.8  162.597
 5.0716  26167.7  162.574
 5.1136  26377  162.927
 5.1556  26700.7  163.4
 5.1976  26778.6  163.61
 5.2396  27176.9  164.53
 5.2816  27131.7  164.839
 5.3236  27249.4  164.918
 5.3656  26793.6  164.452
 5.4076  26636.3  164.125
 5.4496  26710.5  163.842
 5.4916  26952.7  164.331
 5.5336  26895.8  164.173
 5.5756  26712.1  163.622
 5.6176  26787.8  163.298
 5.6596  27250.3  165.532
 5.7016  27268.3  165.001
 5.7436  27672  166.492
 5.7856  27501.7  166.031
 5.8276  27922.9  167.034
 5.8696  27807.5  166.731
 5.9116  28027.9  167.829
 5.9536  27866.7  167.376
 5.9956  28305.1  168.063
 6.0376  28404.2  168.998
 6.0796  28633.3  169.507
 6.1216  28719.8  170.017
 6.1636  28547.9  168.521
 6.2056  28830.8  170.03
 6.2476  28921.3  169.967
 6.2896  29202.2  170.666
 6.3316  28976.9  170.167
 6.3736  29080.1  170.376
 6.4156  29143  170.515
 6.4576  29428.1  170.892
 6.4996  29626.7  171.962
 6.5416  29518.5  171.771
 6.5836  29574.1  172.177
 6.6256  29442  171.345
 6.6676  30374  173.602
 6.7096  29940.5  173.194
 6.7516  30576.4  174.694
 6.7936  30524.5  173.963
 6.8356  30624.7  174.334
 6.8776  31168.3  176.691
 6.9196  31051.7  176.753
 6.9616  31518  177.529
 7.0036  31792.1  177.938
 7.0456  31812.7  177.289
 7.0876  31936.3  179.235
 7.1296  32063.4  178.818
 7.1716  31902.5  177.897
 7.2136  31395.3  176.267
 7.2556  31783.8  177.519
 7.2976  31722.9  177.847
 7.3396  31914.8  178.608
 7.3816  31430.1  177.45
 7.4236  32097.9  178.613
 7.4656  32140.1  178.216
 7.5076  32373.5  178.994
 7.5496  32280.7  179.278
 7.5916  32398.9  179.638
 7.6336  32669.2  180.28
 7.6756  32857.7  180.651
 7.7176  33057.7  181.508
 7.7596  33125.2  182.943
 7.8016  33287.1  185.541
 7.8436  33943.5  184.08
 7.8856  34162.7  184.281
 7.9276  34833.9  186.475
 7.9696  35057.3  187.391
 8.0116  35883.3  188.115
 8.0536  35841  188.263
 8.0956  36235.5  190.486
 8.1376  36469.6  190.561
 8.1796  36570.6  191.38
 8.2216  37747.1  193.149
 8.2636  37856.3  193.715
 8.3056  37516.2  193.576
 8.3476  38458.4  195.318
 8.3896  37919.5  194.027
 8.4316  38129.9  194.731
 8.4736  38372.8  194.814
 8.5156  37741.1  193.48
 8.5576  37460.6  194.363
 8.5996  37572.8  192.889
 8.6416  37681.9  194.449
 8.6836  37126.3  192.83
 8.7256  37892.9  194.255
 8.7676  37287.6  195.59
 8.8096  37074.4  192.287
 8.8516  36687.4  190.953
 8.8936  36652.6  190.696
 8.9356  36561.3  190.81
 8.9776  36630  191.095
 9.0196  36243  189.749
 9.0616  36703.1  190.418
 9.1036  36120.4  190.112
 9.1456  36179.6  189.618
 9.1876  35985.5  189.049
 9.2296  36316.8  189.328
 9.2716  35788.7  187.995
 9.3136  35887.1  188.244
 9.3556  36014.9  188.562
 9.3976  34502.9  185.077
 9.4396  35259.4  186.997
 9.4816  34952.6  186.036
 9.5236  34458.6  184.633
 9.5656  34531.7  185.155
 9.6076  34301.8  185.08
 9.6496  34084.1  184.408
 9.6916  34200.5  184.704
 9.7336  34028.8  184.007
 9.7756  34015.5  185.1
 9.8176  33695.2  183.873
 9.8596  33283.5  181.191
 9.9016  32510.2  179.065
 9.9436  32876.7  179.832
 9.9856  32428.9  178.982
 10.0276  32058.8  179.054
 10.0696  32147  178.349
 10.1116  30973.8  175.326
 10.1536  30999.5  175.057
 10.1956  30953.7  175.033
 10.2376  30543.6  173.359
 10.2796  30487.1  173.34
 10.3216  30377.6  173.163
 10.3636  29872.2  171.882
 10.4056  29712.2  171.833
 10.4476  29726.5  171.484
 10.4896  30001.8  171.885
 10.5316  29056.7  169.361
 10.5736  29018  169.999
 10.6156  28612  168.562
 10.6576  28890.5  167.955
 10.6996  28301.4  166.898
 10.7416  28366  167.333
 10.7836  28358.4  168.011
 10.8256  28102.3  167.675
 10.8676  28134  167.31
 10.9096  27757.9  166.21
 10.9516  27637.5  164.786
 10.9936  27480  164.5
 11.0356  27519.7  165.271
 11.0776  27259.3  163.791
 11.1196  26659.9  162.739
 11.1616  26672.6  162.465
 11.2036  26988.7  163.267
 11.2456  26825.3  163.497
 11.2876  26674.9  162.742
 11.3296  26505.5  162.132
 11.3716  26953.2  163.224
 11.4136  26712.8  163.364
 11.4556  26999.2  163.901
 11.4976  27294.3  163.753
 11.5396  27542.8  164.672
 11.5816  27187.8  164.041
 11.6236  26980.1  163.661
 11.6656  26360.9  160.906
 11.7076  26041  160.786
 11.7496  25602.7  163.374
 11.7916  25663.6  158.879
 11.8336  25307.7  158.663
 11.8756  25019.6  157.291
 11.9176  25254.9  157.689
 11.9596  24655.8  155.977
 12.0016  24819.3  157.027
 12.0436  24833.7  156.766
 12.0856  24506.5  156.257
 12.1276  24556.4  156.328
 12.1696  24395.5  154.954
 12.2116  24794.1  156.214
 12.2536  24193.3  155.091
 12.2956  24456.6  155.316
 12.3376  24100.8  154.372
 12.3796  24164.8  155.042
 12.4216  24299.2  154.695
 12.4636  24021  154.716
 12.5056  24373.7  155.121
 12.5476  24461.7  154.923
 12.5896  24293.7  155.04
 12.6316  23961.8  154.113
 12.6736  23937.1  154.72
 12.7156  23981.6  154.528
 12.7576  24138.4  155.286
 12.7996  24300.7  154.443
 12.8416  23945.4  154.359
 12.8836  24375.1  155.48
 12.9256  24625.5  155.378
 12.9676  24760.9  156.236
 13.0096  24521.5  156.563
 13.0516  24776.7  156.415
 13.0936  24778.2  156.544
 13.1356  24933  156.289
 13.1776  24673.7  156.462
 13.2196  24638.9  156.012
 13.2616  24816.9  156.897
 13.3036  24546.3  156.154
 13.3456  24717.1  156.907
 13.3876  24615  155.859
 13.4296  24673.4  156.205
 13.4716  24823.9  156.288
 13.5136  24828.8  156.455
 13.5556  24592.9  156.326
 13.5976  24727.3  156.9
 13.6396  24996.9  157.123
 13.6816  24451.1  155.748
 13.7236  25160.5  157.769
 13.7656  24602.4  156.531
 13.8076  24761.7  155.829
 13.8496  24505.3  155.804
 13.8916  24458.5  156.483
 13.9336  24374.6  155.442
 13.9756  24272.6  154.462
 14.0176  24196.4  154.907
 14.0596  24332.6  155.3
 14.1016  23971  154.539
 14.1436  23540.1  152.273
 14.1856  23385.9  152.074
 14.2276  23235.1  152.055
 14.2696  23455.4  152.623
 14.3116  23242.4  151.836
 14.3536  22874  150.802
 14.3956  22785.3  150.25
 14.4376  22935.4  150.512
 14.4796  22797.4  150.042
 14.5216  22431  149.633
 14.5636  22256  148.608
 14.6056  22558  149.186
 14.6476  22271.5  147.468
 14.6896  22027.4  147.206
 14.7316  21733.3  147.26
 14.7736  21621.5  146.024
 14.8156  21319.1  145.028
 14.8576  21273.8  144.722
 14.8996  20924.3  144.741
 14.9416  20600.4  143.61
 14.9836  20650.2  143.755
 15.0256  20516.9  142.227
 15.0676  20582.5  142.898
 15.1096  20431.9  141.984
 15.1516  19954.3  140.876
 15.1936  19933.5  140.226
 15.2356  19898.7  140.264
 15.2776  19693.6  139.241
 15.3196  19327.8  138.948
 15.3616  19253.6  138.431
 15.4036  19139.2  137.871
 15.4456  19384.4  138.411
 15.4876  19064.1  136.939
 15.5296  18915.8  136.697
 15.5716  18773.4  135.779
 15.6136  18669.6  135.736
 15.6556  18798.1  135.43
 15.6976  18483.4  134.582
 15.7396  18450.7  134.857
 15.7816  18459  134.395
 15.8236  17957.4  133.252
 15.8656  18204.5  133.955
 15.9076  17630.7  131.659
 15.9496  17677.7  134.597
 15.9916  17709.4  135.172
 16.0336  17565.9  131.47
 16.0756  17503.1  131.556
 16.1176  17568  131.719
 16.1596  16822.5  130.211
 16.2016  17150.2  130.221
 16.2436  16888.3  129.605
 16.2856  17093.3  129.931
 16.3276  16880.7  129.538
 16.3696  16889.7  129.385
 16.4116  16619.9  128.813
 16.4536  16989.9  130.02
 16.4956  16742.3  128.804
 16.5376  16584.8  128.393
 16.5796  16438.3  127.181
 16.6216  16654.1  128.32
 16.6636  16473.4  127.777
 16.7056  16649.2  128.322
 16.7476  16527  127.366
 16.7896  16426.3  127.743
 16.8316  16461.6  127.837
 16.8736  16500.6  128.241
 16.9156  16526  128.689
 16.9576  16391.9  128.989
 16.9996  16461.8  129.758
 17.0416  16568.2  128.52
 17.0836  16454.1  127.819
 17.1256  16232.1  126.971
 17.1676  16348.4  127.419
 17.2096  16090.5  126.282
 17.2516  15947.8  125.79
 17.2936  16050.3  126.229
 17.3356  15591  124.412
 17.3776  15666.7  124.906
 17.4196  15739.8  124.905
 17.4616  15463.7  123.713
 17.5036  15514.2  124.283
 17.5456  15393  124.44
 17.5876  15399  123.504
 17.6296  15347.4  123.089
 17.6716  15224  123.188
 17.7136  14888.3  121.959
 17.7556  14938.4  122.464
 17.7976  14980.3  122.38
 17.8396  14993.2  121.928
 17.8816  15050.1  122.715
 17.9236  14790.5  121.455
 17.9656  15123.3  123.366
 18.0076  14980.8  122.344
 18.0496  15011  121.604
 18.0916  14925.9  121.795
 18.1336  14961.1  122.043
 18.1756  14966.6  121.588
 18.2176  14786.1  121.08
 18.2596  14736.8  120.623
 18.3016  14913.7  121.596
 18.3436  15011.1  122
 18.3856  14531.8  120.153
 18.4276  14733.9  120.664
 18.4696  14674.6  120.525
 18.5116  14675.8  120.822
 18.5536  14805.7  121.718
 18.5956  14529.6  120.122
 18.6376  14516  120.485
 18.6796  14405.3  119.338
 18.7216  14558  120.467
 18.7636  14377.2  119.692
 18.8056  14360  119.569
 18.8476  14348.3  120.15
 18.8896  14333.3  119.415
 18.9316  14501.3  120.104
 18.9736  14337.7  119.113
 19.0156  14296.1  119.358
 19.0576  14242.7  117.982
 19.0996  14450.6  119.706
 19.1416  14159  118.734
 19.1836  14217.9  118.59
 19.2256  14135  118.449
 19.2676  14166.2  118.687
 19.3096  14312.2  119.547
 19.3516  14191.4  118.808
 19.3936  14137.3  118.672
 19.4356  14216.5  118.857
 19.4776  14160.6  118.731
 19.5196  14216.4  118.819
 19.5616  14053.2  118.383
 19.6036  14084  118.011
 19.6456  14185.8  118.562
 19.6876  14185.3  118.21
 19.7296  14148.3  118.497
 19.7716  14073.6  118.361
 19.8136  14182.9  119.018
 19.8556  14593.8  120.208
 19.8976  14251.5  118.856
 19.9396  14402.7  119.06
 19.9816  14609.3  120.217
 20.0236  14799.9  121.156
 20.0656  14990.6  121.934
 20.1076  14611.5  120.837
 20.1496  14486.3  120.337
 20.1916  14305.7  119.05
 20.2336  14148.9  118.374
 20.2756  13956.2  117.994
 20.3176  13833.3  117.217
 20.3596  13808.2  117.097
 20.4016  13806.9  116.885
 20.4436  13739.6  117.164
 20.4856  13608.3  116.383
 20.5276  13637.4  116.972
 20.5696  13458.4  115.768
 20.6116  13446.8  115.894
 20.6536  13470.2  115.505
 20.6956  13348  115.103
 20.7376  13418.1  115.64
 20.7796  13358.1  115.06
 20.8216  13565  115.653
 20.8636  13278.9  114.785
 20.9056  13260.4  114.66
 20.9476  13204.7  114.256
 20.9896  13379.5  114.886
 21.0316  13447.3  115.069
 21.0736  13266.1  114.813
 21.1156  13288.5  115.076
 21.1576  13269.9  115.038
 21.1996  13204.7  114.732
 21.2416  13054.3  113.904
 21.2836  13208.6  114.548
 21.3256  13056.9  113.963
 21.3676  13346.5  114.773
 21.4096  13101.4  114.083
 21.4516  12939.6  113.198
 21.4936  12825.1  112.954
 21.5356  13173.8  114.413
 21.5776  13111.6  113.979
 21.6196  12885.9  113.027
 21.6616  12942.3  113.364
 21.7036  12986.8  113.333
 21.7456  12995.9  113.453
 21.7876  12882.8  112.71
 21.8296  12890.4  112.599
 21.8716  12860.5  112.699
 21.9136  13185.6  114.317
 21.9556  12818  112.379
 21.9976  12838  112.486
 22.0396  12791.9  112.537
 22.0816  12867.8  113.424
 22.1236  12822.9  112.67
 22.1656  12902.3  113.148
 22.2076  12906.4  112.652
 22.2496  12819.1  112.3
 22.2916  12989  112.915
 22.3336  12796.4  112.812
 22.3756  12940.3  113.158
 22.4176  12709.3  111.998
 22.4596  12702.5  112.556
 22.5016  12739.3  112.21
 22.5436  12803.7  112.37
 22.5856  12820.4  112.701
 22.6276  12667.7  112.199
 22.6696  12778.2  112.998
 22.7116  12745.5  112.372
 22.7536  12995.5  113.442
 22.7956  12871.6  112.231
 22.8376  12593.4  111.526
 22.8796  12771.3  112.113
 22.9216  12912.1  113.279
 22.9636  12756.4  111.744
 23.0056  12804.9  112.09
 23.0476  12769.5  112.513
 23.0896  13135.5  113.478
 23.1316  13004.8  113.354
 23.1736  12709.3  114.789
 23.2156  12892.8  113.171
 23.2576  12716.8  112.511
 23.2996  12785.1  112.617
 23.3416  12597.3  112.282
 23.3836  12765.1  112.265
 23.4256  12678.6  112.005
 23.4676  12736.1  111.958
 23.5096  12691.7  112.44
 23.5516  12608.7  111.357
 23.5936  12779  113.014
 23.6356  12856.2  113.013
 23.6776  12778.5  112.896
 23.7196  12548.5  111.658
 23.7616  12701.9  112.05
 23.8036  12685.9  112.008
 23.8456  12586.2  111.15
 23.8876  12349.2  110.437
 23.9296  12320  110.802
 23.9716  12455.3  110.597
 24.0136  12424.6  111.371
 24.0556  12459.4  111.251
 24.0976  12157.6  109.704
 24.1396  12222.1  112.661
 24.1816  12238.5  111.145
 24.2236  12148.9  110.351
 24.2656  12077.2  109.502
 24.3076  12078.3  109.754
 24.3496  12000.9  109.302
 24.3916  11942.5  109.08
 24.4336  11921.3  109.19
 24.4756  11976.7  109.31
 24.5176  11863  108.441
 24.5596  11621.8  107.646
 24.6016  11654.3  107.893
 24.6436  11748.2  107.804
 24.6856  11811.6  107.869
 24.7276  11777.6  108.043
 24.7696  11613.8  107.389
 24.8116  11706.8  108.01
 24.8536  11427.5  106.697
 24.8956  11450.6  106.55
 24.9376  11426  106.606
 24.9796  11350.5  106.374
 25.0216  11379.2  106.609
 25.0636  11365.2  106.204
 25.1056  11182.3  106.048
 25.1476  11573.5  109.563
 25.1896  11467.5  107.543
 25.2316  11398.5  106.48
 25.2736  11369  106.002
 25.3156  11211.9  105.333
 25.3576  11347.3  106.386
 25.3996  11354.3  106.398
 25.4416  11227.8  105.799
 25.4836  11132  105.872
 25.5256  11176.4  105.444
 25.5676  11232.7  105.444
 25.6096  11139.3  105.574
 25.6516  11228.7  105.498
 25.6936  11026.9  104.844
 25.7356  11054.8  105.121
 25.7776  11212.1  105.546
 25.8196  11007.4  104.73
 25.8616  11115.6  105.165
 25.9036  11168  104.884
 25.9456  11155.7  105.434
 25.9876  10989.3  104.557
 26.0296  11219.8  105.307
 26.0716  10961.6  104.488
 26.1136  11003.3  104.646
 26.1556  11113.1  104.541
 26.1976  11043.6  105.147
 26.2396  10969.4  103.947
 26.2816  10919.8  104.325
 26.3236  11034.9  105.038
 26.3656  10926.5  104.232
 26.4076  11003.4  104.795
 26.4496  11599.6  107.084
 26.4916  11094.4  104.746
 26.5336  11030.5  104.764
 26.5756  11645  107.434
 26.6176  11075  104.86
 26.6596  10791.2  103.842
 26.7016  10819.2  103.74
 26.7436  10734.3  103.452
 26.7856  10589.4  102.74
 26.8276  10716  103.301
 26.8696  10730  103.247
 26.9116  10697.8  103.034
 26.9536  10710.6  103.137
 26.9956  10694.5  103.105
 27.0376  10651.8  103.091
 27.0796  10676.1  102.962
 27.1216  10512.5  102.233
 27.1636  10517.3  102.429
 27.2056  10387.1  101.677
 27.2476  10500.4  102.231
 27.2896  10535.1  102.537
 27.3316  10485.2  101.981
 27.3736  10494.6  102.299
 27.4156  10439.6  101.856
 27.4576  10536.7  102.572
 27.4996  10372.1  101.35
 27.5416  10394.7  101.787
 27.5836  10363.9  101.455
 27.6256  10583.6  102.684
 27.6676  10555.6  102.583
 27.7096  10309.5  101.246
 27.7516  10265.7  101.18
 27.7936  10319.6  101.604
 27.8356  10264  100.956
 27.8776  10340.5  101.373
 27.9196  10102  100.057
 27.9616  10251.4  100.982
 28.0036  10226.3  100.833
 28.0456  10312.3  101.395
 28.0876  10190  100.876
 28.1296  10134.4  100.382
 28.1716  10125.1  100.398
 28.2136  10247.6  100.97
 28.2556  10130.9  100.504
 28.2976  10050.8  100.106
 28.3396  10160.3  100.398
 28.3816  10116.4  100.212
 28.4236  10116.3  100.37
 28.4656  9916.84  99.4046
 28.5076  9937.49  99.1542
 28.5496  9907.22  99.2578
 28.5916  10077.6  99.9094
 28.6336  9914.52  99.4337
 28.6756  10062.4  99.3793
 28.7176  9973.06  99.3658
 28.7596  9840.79  98.7236
 28.8016  9862.91  98.8707
 28.8436  9818.4  98.8861
 28.8856  9951.55  99.4591
 28.9276  9754.12  98.6591
 28.9696  9829.26  98.6853
 29.0116  9830.4  98.8856
 29.0536  9840.17  99.1293
 29.0956  9871.35  99.0029
 29.1376  9861.58  98.9239
 29.1796  9784.99  98.5839
 29.2216  9731.37  98.157
 29.2636  9881.58  98.9852
 29.3056  9769.95  98.2163
 29.3476  9907.73  99.4318
 29.3896  9902.94  99.4999
 29.4316  9963.88  99.159
 29.4736  9810.03  98.4505
 29.5156  9835.09  98.4915
 29.5576  9870.51  99.4295
 29.5996  9711.85  97.8783
 29.6416  9850.28  98.696
 29.6836  9791.8  98.3242
 29.7256  9759.78  98.5032
 29.7676  9722.28  98.2007
 29.8096  9772.94  98.4041
 29.8516  9594.17  97.83
 29.8936  9628.97  98.1046
 29.9356  9834.32  98.8946
 29.9776  9599.98  97.8587
 30.0196  9693.04  97.9951
 30.0616  9659.89  97.9297
 30.1036  9611.83  97.513
 30.1456  9640.16  97.8835
 30.1876  9589.68  97.6156
 30.2296  9533.71  97.2677
 30.2716  9616.18  97.3297
 30.3136  9680.71  98.5182
 30.3556  9625.09  98.2365
 30.3976  9422.66  98.7077
 30.4396  9571.84  96.8032
 30.4816  9616.77  96.6286
 30.5236  9549.35  96.3101
 30.5656  9569.19  97.0695
 30.6076  9648.7  97.2525
 30.6496  9502.59  96.5454
 30.6916  9416.55  96.2065
 30.7336  9545.25  97.0093
 30.7756  9594.95  97.3543
 30.8176  9589.71  97.2427
 30.8596  9641.72  97.269
 30.9016  9490.01  96.369
 30.9436  9409.06  96.1855
 30.9856  9513.42  96.8161
 31.0276  9496.47  96.3502
 31.0696  9422.17  96.5473
 31.1116  9384.19  96.3284
 31.1536  9464.32  96.6261
 31.1956  9434.1  96.5552
 31.2376  9289.85  95.8315
 31.2796  9302.64  95.4265
 31.3216  9417.62  95.9564
 31.3636  9331.19  96.2178
 31.4056  9402.79  97.9086
 31.4476  9323.81  95.3835
 31.4896  9364.39  96.0979
 31.5316  9347.73  95.4131
 31.5736  9408.08  95.524
 31.6156  9427.53  95.6549
 31.6576  9464.03  95.9371
 31.6996  9438.25  95.48
 31.7416  9192  95.1356
 31.7836  9246.73  94.5802
 31.8256  9124.88  94.2169
 31.8676  9424.58  95.7542
 31.9096  9176.58  94.7116
 31.9516  9081.15  94.5012
 31.9936  9152.32  94.7097
 32.0356  9256.39  95.3063
 32.0776  9195.07  94.8756
 32.1196  9248.3  95.141
 32.1616  9321.75  95.0734
 32.2036  9128.15  94.5804
 32.2456  8967.56  94.1326
 32.2876  9068.99  94.1609
 32.3296  8964.64  93.5831
 32.3716  8994.79  93.8482
 32.4136  9101.92  94.6193
 32.4556  9256.81  94.7957
 32.4976  9099.79  93.9248
 32.5396  9140.19  94.1725
 32.5816  9082.68  93.9882
 32.6236  9059.18  93.9423
 32.6656  9209.36  95.2626
 32.7076  9105.69  94.3765
 32.7496  9021.24  93.6114
 32.7916  9159.73  94.2827
 32.8336  9168.47  94.4324
 32.8756  9206.7  94.3402
 32.9176  8943.38  93.459
 32.9596  9033.86  94.0071
 33.0016  8985.61  93.5577
 33.0436  9127.61  94.4677
 33.0856  9021.75  93.9886
 33.1276  8925.53  93.2239
 33.1696  9003.43  93.4676
 33.2116  9141.49  94.4143
 33.2536  8986.7  93.5993
 33.2956  8899.9  93.2364
 33.3376  8974.82  93.4469
 33.3796  9022.15  93.8204
 33.4216  9105.25  93.8423
 33.4636  8927.08  93.0719
 33.5056  8885.55  93.0906
 33.5476  8825.35  92.7593
 33.5896  8978.19  93.3456
 33.6316  8864.49  93.0597
 33.6736  8725.03  92.579
 33.7156  8923.91  93.6614
 33.7576  8953.57  93.4358
 33.7996  9002.99  93.4649
 33.8416  8751.17  92.3386
 33.8836  8897.51  92.8808
 33.9256  8859.42  92.7318
 33.9676  8830.57  92.4878
 34.0096  8734.61  92.294
 34.0516  8737.63  91.9521
 34.0936  8789.44  92.4885
 34.1356  8887.68  92.7413
 34.1776  8746.17  92.0233
 34.2196  8770.9  92.3271
 34.2616  8708.29  92.1371
 34.3036  8629.29  91.9564
 34.3456  8704.89  92.1165
 34.3876  8719.19  92.2491
 34.4296  8587  91.1464
 34.4716  8843.95  92.6403
 34.5136  8738.77  92.2989
 34.5556  8736.96  92.5549
 34.5976  8740.58  92.3958
 34.6396  8653.9  91.7515
 34.6816  8698.16  91.965
 34.7236  8603.96  91.2554
 34.7656  8768.77  92.3227
 34.8076  8570.29  91.5864
 34.8496  8628.41  91.8292
 34.8916  8644.15  91.7149
 34.9336  8730.36  92.1384
 34.9756  8658.14  91.6914
 35.0176  8626.43  92.0433
 35.0596  8571.69  91.5681
 35.1016  8537.31  91.1558
 35.1436  8703.25  91.7168
 35.1856  8497.67  90.7571
 35.2276  8590.2  91.4254
 35.2696  8513.58  91.2073
 35.3116  8552.43  91.5096
 35.3536  8527.16  91.1086
 35.3956  8584.28  91.09
 35.4376  8477.2  91.0606
 35.4796  8510.21  91.316
 35.5216  8589.82  91.6968
 35.5636  8263.57  90.6835
 35.6056  8603.97  91.5446
 35.6476  8504.3  90.9033
 35.6896  8630.49  91.6755
 35.7316  8430.67  90.5696
 35.7736  8384.22  90.5205
 35.8156  8334.81  90.2396
 35.8576  8516.24  91.483
 35.8996  8552.38  91.6395
 35.9416  8474.64  90.7334
 35.9836  8396.26  90.7624
 36.0256  8474.03  91.094
 36.0676  8491.58  90.9519
 36.1096  8338.64  90.26
 36.1516  8410.65  90.5376
 36.1936  8506.43  90.8909
 36.2356  8490.66  91.4565
 36.2776  8438.86  90.6401
 36.3196  8362.25  89.9145
 36.3616  8468.25  90.617
 36.4036  8376.08  90.1764
 36.4456  8447.57  90.7721
 36.4876  8337.83  90.1195
 36.5296  8420.43  90.6018
 36.5716  8428.55  91.4373
 36.6136  8541.02  90.8157
 36.6556  8565.76  91.149
 36.6976  8446.33  91.0181
 36.7396  8282.09  90.0321
 36.7816  8349.05  90.5987
 36.8236  8273.49  90.1156
 36.8656  8290.31  90.2673
 36.9076  8243.99  89.9018
 36.9496  8187.21  89.5726
 36.9916  8310.65  89.877
 37.0336  8485.73  91.135
 37.0756  8324.01  90.0574
 37.1176  8326.64  90.342
 37.1596  8341.7  90.4291
 37.2016  8164.73  89.692
 37.2436  8372.23  90.132
 37.2856  8214.75  89.5456
 37.3276  8349.59  89.609
 37.3696  8203.39  89.7152
 37.4116  8305.65  90.1716
 37.4536  8204.77  89.3483
 37.4956  8148.26  89.2264
 37.5376  8236.54  91.271
 37.5796  8113.15  90.5306
 37.6216  8084.16  88.6356
 37.6636  8095.36  88.5864
 37.7056  8048.73  88.5212
 37.7476  8132.28  88.5154
 37.7896  8202.82  89.3947
 37.8316  7968.43  88.2847
 37.8736  8153.94  88.8412
 37.9156  8047.19  88.247
 37.9576  8171.56  88.8222
 37.9996  8064.19  87.9513
 38.0416  8055.06  88.7152
 38.0836  8188.62  89.3485
 38.1256  8090.36  88.7719
 38.1676  7789.7  87.2359
 38.2096  7995.17  88.0049
 38.2516  8199.21  89.3324
 38.2936  8052.68  88.3235
 38.3356  8170.69  88.8892
 38.3776  7988.1  88.1659
 38.4196  8208.89  89.233
 38.4616  8006.05  88.3483
 38.5036  8085.31  88.634
 38.5456  8114.51  89.6492
 38.5876  8019.15  89.3222
 38.6296  7957.57  87.7838
 38.6716  7904.93  87.2862
 38.7136  7764.96  86.4526
 38.7556  7939.73  87.9241
 38.7976  8045.25  88.4357
 38.8396  7964.27  88.2613
 38.8816  7827.44  87.4629
 38.9236  8003.12  88.2565
 38.9656  8018.65  88.255
 39.0076  7990.26  87.5008
 39.0496  7980.77  87.9802
 39.0916  7948.33  87.4555
 39.1336  7971.2  88.0023
 39.1756  7839.69  87.3406
 39.2176  7953.69  88.5137
 39.2596  7959.54  88.4586
 39.3016  7916.08  87.732
 39.3436  7903.72  88.1453
 39.3856  8080.36  88.5689
 39.4276  8003.35  88.6337
 39.4696  7955.82  88.005
 39.5116  7874.6  88.0517
 39.5536  8082.21  89.651
 39.5956  8070.65  88.6848
 39.6376  7903.3  87.7623
 39.6796  8018.51  88.1375
 39.7216  8099.74  88.6812
 39.7636  8018.16  88.8041
 39.8056  7915.07  88.0084
 39.8476  7865.92  87.9939
 39.8896  7913.58  87.8824
 39.9316  7980.92  88.517
 39.9736  8088.6  88.7593
 40.0156  8056.91  88.3198
 40.0576  7917.76  87.9254
 40.0996  8124.29  88.233
 40.1416  8062.34  88.7032
 40.1836  7976.93  88.1042
 40.2256  7964.95  88.0928
 40.2676  7982.91  88.3645
 40.3096  7954.01  88.0635
 40.3516  7967.89  88.2505
 40.3936  8138.96  88.7477
 40.4356  8015.13  88.2697
 40.4776  8078.23  88.8489
 40.5196  8011.79  88.7131
 40.5616  8063.41  88.7036
 40.6036  7945.48  88.3156
 40.6456  8125.43  88.9138
 40.6876  8119.35  88.8638
 40.7296  8112.5  88.8535
 40.7716  8048.18  88.746
 40.8136  7927.14  88.0218
 40.8556  8054.78  88.8508
 40.8976  8104.02  89.0485
 40.9396  7900.72  88.2676
 40.9816  8159.82  88.9854
 41.0236  8023.66  88.0172
 41.0656  8091.98  88.9395
 41.1076  8027.91  88.3559
 41.1496  8048.66  88.3778
 41.1916  8018.31  88.5412
 41.2336  7935.48  88.0604
 41.2756  7952.85  87.7568
 41.3176  7919.14  88.1906
 41.3596  7961.63  88.1513
 41.4016  8055.95  88.9389
 41.4436  8072.61  88.8218
 41.4856  7985.5  88.5072
 41.5276  7957.58  88.3665
 41.5696  7950.35  87.9574
 41.6116  7923.49  88.1992
 41.6536  8070.65  88.8773
 41.6956  8059.2  88.7952
 41.7376  7978.2  88.4506
 41.7796  7986.96  88.3809
 41.8216  7930.11  88.3001
 41.8636  7969.26  88.4613
 41.9056  7873.65  87.7046
 41.9476  7963.13  88.3456
 41.9896  7974.35  88.1698
 42.0316  8063.87  88.7492
 42.0736  7928.01  88.1362
 42.1156  7927.6  87.9466
 42.1576  7891.16  87.814
 42.1996  7969.58  88.422
 42.2416  7989.16  88.1138
 42.2836  7913.52  87.8037
 42.3256  7861.26  87.6286
 42.3676  7943.6  87.8849
 42.4096  7946.56  87.8677
 42.4516  7889.11  87.628
 42.4936  7937.46  87.9765
 42.5356  7828.96  87.5074
 42.5776  8012.63  88.4668
 42.6196  7971.68  88.2999
 42.6616  7772.62  87.3523
 42.7036  7858.56  87.2212
 42.7456  7825.58  87.3864
 42.7876  7746.38  87.0509
 42.8296  7879.59  87.6198
 42.8716  7726.47  86.9315
 42.9136  7733.76  86.7254
 42.9556  7843.31  87.5029
 42.9976  7986.81  88.2724
 43.0396  7932.2  87.6941
 43.0816  7848.78  87.6071
 43.1236  7691.56  86.7881
 43.1656  7845.7  87.4811
 43.2076  7758.49  87.0909
 43.2496  7776.82  87.0035
 43.2916  7700.44  86.9516
 43.3336  7748.02  87.0579
 43.3756  7812.3  87.1697
 43.4176  7655.14  86.3721
 43.4596  7775.27  86.9017
 43.5016  7812.75  87.519
 43.5436  7703.06  86.7975
 43.5856  7725.51  86.9553
 43.6276  7735.08  86.8967
 43.6696  7653.44  86.6993
 43.7116  7696.57  86.442
 43.7536  7755.06  87.2639
 43.7956  7674.06  87.9832
 43.8376  7693.28  86.6592
 43.8796  7545.2  85.9004
 43.9216  7591.4  86.0773
 43.9636  7710.23  86.8564
 44.0056  7707.91  87.0818
 44.0476  7641.97  86.3305
 44.0896  7544.17  86.1248
 44.1316  7660.91  86.3106
 44.1736  7713.3  86.729
 44.2156  7748.73  86.7872
 44.2576  7544.17  85.9534
 44.2996  7654.14  86.5519
 44.3416  7663.42  86.3572
 44.3836  7448.68  85.4604
 44.4256  7589.87  85.9118
 44.4676  7502.06  85.574
 44.5096  7558.92  86.0396
 44.5516  7463.94  85.4588
 44.5936  7374.25  84.9016
 44.6356  7531.43  85.5408
 44.6776  7525.35  85.7449
 44.7196  7604.11  86.5792
 44.7616  7470.18  87.1306
 44.8036  7466.09  85.7171
 44.8456  7422.5  85.4721
 44.8876  7380.97  85.0804
 44.9296  7568.21  85.6068
 44.9716  7451.15  85.3743
 45.0136  7583.28  86.0622
 45.0556  7475.1  85.5253
 45.0976  7458.6  85.4791
 45.1396  7335.96  84.5333
 45.1816  7446.71  85.1149
 45.2236  7502.21  85.3293
 45.2656  7465.95  85.6296
 45.3076  7316.79  84.5528
 45.3496  7315.59  84.8501
 45.3916  7353.64  85.3315
 45.4336  7374.48  85.2947
 45.4756  7357.85  85.0639
 45.5176  7443.62  85.167
 45.5596  7467.09  85.428
 45.6016  7302.12  84.8914
 45.6436  7352.83  84.3734
 45.6856  7378.4  85.1648
 45.7276  7309.19  86.1084
 45.7696  7244.4  85.3832
 45.8116  7369.58  85.568
 45.8536  7317.75  85.1496
 45.8956  7396.09  84.9577
 45.9376  7380.2  84.3324
 45.9796  7359.68  84.8943
 46.0216  7288.56  84.826
 46.0636  7439.7  84.8322
 46.1056  7363.43  84.3945
 46.1476  7334.9  84.8201
 46.1896  7315.39  84.8577
 46.2316  7387.18  85.1431
 46.2736  7313.54  84.9136
 46.3156  7338.85  84.817
 46.3576  7291.76  84.7464
 46.3996  7287.5  84.8806
 46.4416  7370.02  84.9204
 46.4836  7174.94  84.1573
 46.5256  7200.82  84.2498
 46.5676  7284.23  84.8444
 46.6096  7373.75  85.2997
 46.6516  7313.99  84.0023
 46.6936  7352.53  84.7076
 46.7356  7377.66  84.9489
 46.7776  7247.16  85.0452
 46.8196  7289.61  85.0361
 46.8616  7118.8  83.8444
 46.9036  7100.6  83.396
 46.9456  7203.02  83.6414
 46.9876  7170.21  83.5349
 47.0296  7273.32  84.8136
 47.0716  7248.58  84.4932
 47.1136  7126.94  83.4594
 47.1556  7115.22  83.2626
 47.1976  7171.09  83.7323
 47.2396  7057.6  83.3958
 47.2816  7107.4  83.4006
 47.3236  7103.72  83.7383
 47.3656  7200.47  84.2436
 47.4076  7172.06  83.7982
 47.4496  7071.94  83.3741
 47.4916  7081.1  83.6164
 47.5336  7160.89  83.9054
 47.5756  7292.03  84.7874
 47.6176  7064.69  83.3555
 47.6596  7094  83.2514
 47.7016  7140.32  83.338
 47.7436  7132.13  83.6282
 47.7856  7203.28  84.0562
 47.8276  6979.36  82.7988
 47.8696  7039.35  83.2323
 47.9116  7111.3  83.3753
 47.9536  7075.42  83.1103
 47.9956  7095.42  83.9315
 48.0376  6952.12  82.8608
 48.0796  7112.2  83.9249
 48.1216  7270.77  84.6719
 48.1636  7286.28  84.3387
 48.2056  7087.79  83.4501
 48.2476  7156.4  84.1555
 48.2896  7028.68  83.3124
 48.3316  6995.21  83.0609
 48.3736  6942.34  82.7721
 48.4156  6963.07  82.7496
 48.4576  6942.42  82.9116
 48.4996  7097.98  83.3021
 48.5416  7105.54  83.6564
 48.5836  7002.25  82.7365
 48.6256  7010.32  82.981
 48.6676  7014.64  83.5192
 48.7096  6998.16  82.6945
 48.7516  6886.32  82.1839
 48.7936  6949.7  82.6254
 48.8356  6961.44  82.7389
 48.8776  7009.43  83.5949
 48.9196  6989.43  82.8413
 48.9616  7002.39  83.307
 49.0036  6955.52  83.3612
 49.0456  6905.55  83.0521
 49.0876  6924.2  82.6995
 49.1296  6870.18  82.5386
 49.1716  6848.57  82.286
 49.2136  6926.26  82.6889
 49.2556  6952.24  82.979
 49.2976  6932.39  82.8051
 49.3396  6906.3  82.7104
 49.3816  7040.46  82.9425
 49.4236  6965.36  82.9178
 49.4656  6855.81  82.2403
 49.5076  6875.15  82.1501
 49.5496  6962.7  82.7419
 49.5916  6848.03  81.9718
 49.6336  6878.51  82.349
 49.6756  6927.1  82.8682
 49.7176  6818.89  82.163
 49.7596  6816.62  81.9232
 49.8016  6913.11  82.4249
 49.8436  6857.89  82.3892
 49.8856  6835.39  82.255
 49.9276  6859.9  82.5073
 49.9696  6916.78  82.8307
 50.0116  6788.14  82.1871
 50.0536  6795.68  82.1767
 50.0956  6784.76  82.1825
 50.1376  6800.56  81.9799
 50.1796  6737.7  81.8603
 50.2216  6831.22  82.4252
 50.2636  6770.33  81.6797
 50.3056  6761.24  81.803
 50.3476  6729.75  81.6294
 50.3896  6693.15  81.3776
 50.4316  6773.84  81.7013
 50.4736  6669.01  81.2764
 50.5156  6774.3  81.9154
 50.5576  6788.54  81.756
 50.5996  6757.23  81.9619
 50.6416  6736.2  81.6562
 50.6836  6764  81.8803
 50.7256  6756.73  81.7594
 50.7676  6724.61  81.8754
 50.8096  6709.39  81.3322
 50.8516  6594.15  81.0388
 50.8936  6611.77  80.9351
 50.9356  6706.26  81.6119
 50.9776  6704.21  81.7515
 51.0196  6584.19  81.1548
 51.0616  6587.29  80.5126
 51.1036  6745.41  81.8232
 51.1456  6728.62  81.6352
 51.1876  6694.09  80.775
 51.2296  6595.77  80.9219
 51.2716  6523.51  80.0629
 51.3136  6633.4  81.1903
 51.3556  6605.11  80.6466
 51.3976  6639.5  81.0097
 51.4396  6526.11  80.6133
 51.4816  6620.22  81.0455
 51.5236  6612.24  81.0992
 51.5656  6547.37  80.2921
 51.6076  6622.56  80.8408
 51.6496  6686.23  81.4133
 51.6916  6569.28  81.051
 51.7336  6579.14  81.2013
 51.7756  6677.37  81.5044
 51.8176  6559.98  80.8856
 51.8596  6672.39  81.5987
 51.9016  6691.51  81.3206
 51.9436  6577.69  82.0557
 51.9856  6455.44  81.7108
 52.0276  6472.31  80.3459
 52.0696  6580.12  81.077
 52.1116  6628.98  81.4997
 52.1536  6586.11  81.0733
 52.1956  6671.76  81.1166
 52.2376  6620.3  80.9683
 52.2796  6532.54  80.2383
 52.3216  6450.56  80.4237
 52.3636  6559.83  80.6806
 52.4056  6356.9  79.2841
 52.4476  6453.83  80.2482
 52.4896  6389.94  79.8986
 52.5316  6462.35  80.3915
 52.5736  6509.45  80.4187
 52.6156  6522.56  80.8586
 52.6576  6627.18  80.9704
 52.6996  6347.96  80.1997
 52.7416  6481.48  80.8917
 52.7836  6435.2  80.4797
 52.8256  6356.06  79.217
 52.8676  6327.02  79.6148
 52.9096  6439.07  80.3955
 52.9516  6424.06  80.6852
 52.9936  6374.41  80.753
 53.0356  6315.21  79.3945
 53.0776  6380.83  80.0637
 53.1196  6334.92  79.8993
 53.1616  6183.08  78.9838
 53.2036  6354.75  80.0228
 53.2456  6374.41  80.2475
 53.2876  6436.76  80.3504
 53.3296  6295.67  79.7866
 53.3716  6329.82  79.747
 53.4136  6431.77  80.5414
 53.4556  6274.98  79.583
 53.4976  6244.72  79.2399
 53.5396  6339.28  80.2354
 53.5816  6320.61  79.7481
 53.6236  6171.82  79.081
 53.6656  6305.06  79.6223
 53.7076  6373.72  80.0115
 53.7496  6256.35  79.3841
 53.7916  6454.45  80.7594
 53.8336  6306.61  79.7244
 53.8756  6150.84  79.284
 53.9176  6282.5  79.4889
 53.9596  6352.6  80.6863
 54.0016  6229.22  79.2409
 54.0436  6294.9  79.8726
 54.0856  6339.13  79.5813
 54.1276  6296.85  79.5093
 54.1696  6243.53  79.3449
 54.2116  6261.49  79.2107
 54.2536  6345.89  79.5685
 54.2956  6338.4  79.5061
 54.3376  6305  79.8345
 54.3796  6237.74  79.3134
 54.4216  6376.59  80.2231
 54.4636  6327.53  79.9451
 54.5056  6327.62  79.7054
 54.5476  6267.69  79.6544
 54.5896  6354.72  80.0377
 54.6316  6329.83  79.7449
 54.6736  6372.15  80.0851
 54.7156  6359.62  80.0285
 54.7576  6198  79.0056
 54.7996  6299.29  79.7921
 54.8416  6330.57  79.9344
 54.8836  6118.13  78.7792
 54.9256  6145.06  78.7122
 54.9676  6324.32  79.7112
 55.0096  6271.54  79.441
 55.0516  6341.32  80.1165
 55.0936  6239.23  79.1022
 55.1356  6265.27  79.3082
 55.1776  6246.81  79.4501
 55.2196  6275.22  79.4846
 55.2616  6250.73  79.4722
 55.3036  6243.56  79.5959
 55.3456  6175.64  79.3081
 55.3876  6258.32  79.5808
 55.4296  6302.12  79.8757
 55.4716  6153.02  78.9211
 55.5136  6280.59  79.4953
 55.5556  6233.6  79.2511
 55.5976  6243.19  79.3825
 55.6396  6248.52  79.2844
 55.6816  6159.12  78.674
 55.7236  6268.92  79.4142
 55.7656  6266.17  79.1534
 55.8076  6311.03  79.4251
 55.8496  6185.83  79.0489
 55.8916  6165.14  79.0196
 55.9336  6190.49  78.98
 55.9756  6104.98  78.3413
 56.0176  6158.34  78.8314
 56.0596  6161.79  78.8413
 56.1016  6245.49  79.3807
 56.1436  6201.69  79.3661
 56.1856  6175.32  78.9401
 56.2276  6203.41  79.166
 56.2696  6182.79  79.0466
 56.3116  6124.26  79.0364
 56.3536  6134.98  78.7716
 56.3956  6235.43  79.4035
 56.4376  6077.4  78.4241
 56.4796  6215.41  79.1165
 56.5216  6169.35  79.1884
 56.5636  6217.19  79.0912
 56.6056  6200.47  79.2004
 56.6476  6204.03  78.8643
 56.6896  6113.2  78.7223
 56.7316  6180.95  79.0649
 56.7736  6183.28  79.0812
 56.8156  6120.43  78.6817
 56.8576  6106.23  78.5323
 56.8996  6147.84  78.7311
 56.9416  6162.12  79.1337
 56.9836  6112.07  78.3205
 57.0256  6120.31  78.6933
 57.0676  6123.02  78.8216
 57.1096  6183.17  79.0103
 57.1516  6169.62  78.9853
 57.1936  6162.59  78.6894
 57.2356  6194.87  79.2186
 57.2776  6062.53  78.3141
 57.3196  6115.15  78.8154
 57.3616  6115.04  78.5213
 57.4036  6175.96  78.9719
 57.4456  6116.24  78.5526
 57.4876  6217.04  79.0621
 57.5296  6100.64  78.651
 57.5716  6054.51  78.3483
 57.6136  6163.68  78.8643
 57.6556  6169.38  79.0473
 57.6976  6157.69  78.7048
 57.7396  6083.21  78.6843
 57.7816  6003.14  78.5222
 57.8236  6055.09  78.6567
 57.8656  6100.06  78.608
 57.9076  6140.29  78.8888
 57.9496  6070.79  78.7964
 57.9916  6098.33  78.4832
 58.0336  6113.4  78.8582
 58.0756  6129.88  78.586
 58.1176  6058.69  78.1364
 58.1596  6095.96  78.9504
 58.2016  6200.59  78.8493
 58.2436  6179.85  79.1356
 58.2856  6192.45  79.1315
 58.3276  6149.87  79.2371
 58.3696  6103.06  78.6874
 58.4116  6101.43  78.5378
 58.4536  6174.19  78.8936
 58.4956  6066.22  78.3794
 58.5376  6128.68  78.4744
 58.5796  6127.32  78.7636
 58.6216  6109.92  78.4664
 58.6636  6183.13  79.1535
 58.7056  6125.07  78.6371
 58.7476  6127.67  79.1034
 58.7896  6085.25  78.4724
 58.8316  6095.18  78.6396
 58.8736  6287.98  79.7677
 58.9156  6058.66  78.3508
 58.9576  6240.05  79.838
 58.9996  6315.64  79.5475
 59.0416  6360.52  80.1986
 59.0836  6136.48  78.7041
 59.1256  6160.09  79.5612
 59.1676  6109.37  79.5329
 59.2096  6356.46  80.4182
 59.2516  6242.15  79.2659
 59.2936  6116.06  78.7914
 59.3356  6146.07  78.8611
 59.3776  6061.53  78.4862
 59.4196  6095.44  78.6415
 59.4616  6001.24  77.8914
 59.5036  6160.29  78.9527
 59.5456  6280.19  79.4045
 59.5876  6158.29  78.8231
 59.6296  6118.69  78.6389
 59.6716  6180.76  79.0954
 59.7136  6057.1  78.2884
 59.7556  6260.55  79.7313
 59.7976  6072.98  78.2693
 59.8396  6231.61  79.1775
 59.8816  6184.99  79.4329
 59.9236  6168.85  78.9688
 59.9656  6107.17  78.8347
 60.0076  6187.65  78.7025
 60.0496  6159.43  79.0311
 60.0916  6232.12  78.9055
 60.1336  6156.44  79.5429
 60.1756  6083.1  80.2563
 60.1996  0.0000000E+00  0.0000000E+00