File: docs/examples/XRD/IS17_D/Data/IS17_D/17_Db_f00058.xye
# /beamlines/bl04/projects/cycle2025-II/20250340211-lsimonelli/DATA/IS17_D/17_Db_f00058.xye : mythproc.py merge -s 0.006 -l 0.5 -f /beamlines/bl04/inhouse/ff/FlatField/ff_20Nov2024rod8mm60s_17keV.raw -b True -c true -o xye /beamlines/bl04/projects/cycle2025-II/20250340211-lsimonelli/DATA/IS17_D/17_Db_00058.dat
# IsMon = [6753937, 6758819, 6759399]  IsPos = [-1.4999, -2.4884, -3.4988]
# Wave = 0.4962  CalPath /beamlines/bl04/projects/cycle2025-II/20250340211-lsimonelli/DATA/Align/Si_Pos1_25keV_f00001.cal
# Date = 2025-09-24_09:49:57 Dt = 4.8000  Bin = 0.0060  <imon> = 6757385 +/- 2450 (Min/Max) 6753937 / 6759399
# icurr 250.2435  mocoIn 1.7072E-05  mocoOut 0.8012  i15 7.08435e+06  imon 6.75738e+06  i7 5.0000  iEMpd_timer 4.8000  iEMpd_1 3.4934E-08  iEMpd_2 7.6618E-08  iEMpd_3 1.6644E-08  iEMpd_4 4.8498E-08  iEMhp_timer 4.8000  iEMhp_1 4.8887E-06  iEMhp_2 -2.5992E-08  iEMhp_3 -2.3887E-08  iEMhp_4 -2.2551E-08
#      9776
 1.5856  43753.2  214.842
 1.6276  50868  227.677
 1.6696  56450.1  238.998
 1.7116  63777.2  254.533
 1.7536  72000.8  269.293
 1.7956  76054  277.461
 1.8376  72651  271.612
 1.8796  62474.4  250.018
 1.9216  51628.5  228.189
 1.9636  44486.3  210.95
 2.0056  40937.9  201.577
 2.0476  37776.4  195.76
 2.0896  36725.7  191.887
 2.1316  35788  188.511
 2.1736  33712.6  184.414
 2.2156  34642.5  185.44
 2.2576  33166.7  182.099
 2.2996  31959.7  179.41
 2.3416  32253.6  178.795
 2.3836  31687.5  177.328
 2.4256  30338.5  174.077
 2.4676  30052.9  173.01
 2.5096  30073.4  173.126
 2.5516  28557.4  172.555
 2.5936  28646.6  169.345
 2.6356  28010.6  168.165
 2.6776  28128.1  167.407
 2.7196  27620.8  166.383
 2.7616  27193.7  164.876
 2.8036  26915.9  164.193
 2.8456  27144  165.54
 2.8876  26250.6  162.654
 2.9296  25959.5  161.874
 2.9716  25581.9  160.185
 3.0136  25455.8  159.862
 3.0556  25623.7  160.788
 3.0976  25585.6  159.56
 3.1396  25217.1  159.144
 3.1816  24840.5  157.89
 3.2236  24829.1  157.851
 3.2656  24580.5  156.084
 3.3076  24419.8  157.058
 3.3496  24719.9  156.922
 3.3916  25300.2  158.587
 3.4336  25432.7  159.594
 3.4756  25702.2  160.383
 3.5176  26489.5  162.59
 3.5596  26322.3  164.529
 3.6016  26283.5  162.004
 3.6436  25472.1  160.597
 3.6856  25255  158.203
 3.7276  24308  156.286
 3.7696  24074.9  155.729
 3.8116  23651.4  154.252
 3.8536  23731.7  154.444
 3.8956  23799.6  154.478
 3.9376  23601  154.105
 3.9796  23526.7  153.35
 4.0216  23590.6  152.58
 4.0636  23465.7  153.658
 4.1056  23499.3  153.415
 4.1476  23762  154.595
 4.1896  24027.9  155.309
 4.2316  24167.3  155.586
 4.2736  24499  156.445
 4.3156  24532  156.778
 4.3576  25483.4  159.704
 4.3996  25478  159.95
 4.4416  26126.1  161.561
 4.4836  26499.8  162.868
 4.5256  27096.1  165.317
 4.5676  26932.5  165.062
 4.6096  27716.2  166.095
 4.6516  27759.7  165.906
 4.6936  28061  167.642
 4.7356  28345.1  168.314
 4.7776  27917.5  166.865
 4.8196  28005.4  167.791
 4.8616  27073.8  164.459
 4.9036  27179.3  164.522
 4.9456  26803.1  164.031
 4.9876  26484  162.948
 5.0296  26769  163.649
 5.0716  26496.7  163.572
 5.1136  26606.4  163.64
 5.1556  26785.6  163.637
 5.1976  27372  165.427
 5.2396  27430.7  165.285
 5.2816  27493.3  165.961
 5.3236  27656.1  166.125
 5.3656  26775.3  164.4
 5.4076  26632.7  164.099
 5.4496  26779.6  164.041
 5.4916  26823.8  163.928
 5.5336  26826.6  163.944
 5.5756  26812.2  163.927
 5.6176  26897.7  163.624
 5.6596  27274.3  165.761
 5.7016  27384  165.346
 5.7436  27489.7  165.945
 5.7856  27179.2  165.07
 5.8276  27432.4  165.545
 5.8696  27762.8  166.72
 5.9116  27511.7  166.564
 5.9536  28020.1  167.842
 5.9956  28191.4  167.735
 6.0376  28022.7  167.848
 6.0796  28313.3  168.556
 6.1216  28262.3  168.596
 6.1636  28670.5  168.869
 6.2056  28387.1  168.698
 6.2476  28798.6  169.796
 6.2896  29057.2  170.236
 6.3316  29029.6  170.333
 6.3736  28899.9  169.841
 6.4156  29288.6  170.862
 6.4576  29147.7  170.072
 6.4996  29223.4  170.761
 6.5416  29318.7  171.171
 6.5836  29437.9  171.752
 6.6256  29648.7  171.938
 6.6676  29971.8  172.438
 6.7096  29990.7  173.359
 6.7516  30444.2  174.311
 6.7936  30370.4  173.513
 6.8356  30880.4  175.053
 6.8776  30704.6  175.348
 6.9196  30973.6  176.525
 6.9616  31345.6  177.014
 7.0036  31810.9  177.986
 7.0456  31854.8  177.408
 7.0876  31441.2  177.932
 7.1296  31611.2  177.543
 7.1716  31766.3  177.524
 7.2136  31472.5  176.472
 7.2556  31861.6  177.723
 7.2976  31678.3  177.704
 7.3396  31483.5  177.373
 7.3816  31615.5  177.965
 7.4236  32107.7  178.64
 7.4656  31974.3  177.716
 7.5076  32483.6  179.292
 7.5496  32101.8  178.761
 7.5916  32383.9  179.596
 7.6336  32631.4  180.169
 7.6756  32814.9  180.526
 7.7176  33226.7  181.984
 7.7596  33044.6  182.707
 7.8016  33446.8  186.052
 7.8436  33331.7  182.366
 7.8856  33298.7  181.883
 7.9276  33951  184.055
 7.9696  34264.4  185.209
 8.0116  35405.5  186.816
 8.0536  35686.5  187.805
 8.0956  35405.1  188.243
 8.1376  35752.2  188.634
 8.1796  36121.9  190.147
 8.2216  36763.2  190.566
 8.2636  37091.3  191.666
 8.3056  36722.6  191.474
 8.3476  37309.2  192.331
 8.3896  37009.6  191.636
 8.4316  37212.4  192.325
 8.4736  37364  192.189
 8.5156  37005.2  191.538
 8.5576  37026.9  192.558
 8.5996  36695.8  190.583
 8.6416  36791.3  192.088
 8.6836  36333.9  190.721
 8.7256  37026.9  191.98
 8.7676  36755.9  194.208
 8.8096  37113  192.457
 8.8516  36996  191.727
 8.8936  36556.3  190.534
 8.9356  36950.5  191.902
 8.9776  37036.3  192.196
 9.0196  36963.3  191.69
 9.0616  36557.7  190.12
 9.1036  36205.2  190.372
 9.1456  35910.2  188.915
 9.1876  36148.1  189.495
 9.2296  35971.6  188.457
 9.2716  35533.5  187.354
 9.3136  35818.6  188.098
 9.3556  35897.5  188.285
 9.3976  34797  185.905
 9.4396  35020.5  186.398
 9.4816  34814.8  185.712
 9.5236  34354.6  184.372
 9.5656  34225.4  184.381
 9.6076  33540.5  183.036
 9.6496  33910.4  183.946
 9.6916  33497.8  182.774
 9.7336  33592.4  182.801
 9.7756  33560.6  183.978
 9.8176  33223.1  182.567
 9.8596  33256.9  181.11
 9.9016  32655.2  179.454
 9.9436  32605.1  179.233
 9.9856  32093.4  178.092
 10.0276  31781.7  178.299
 10.0696  32171.8  178.427
 10.1116  31290.6  176.217
 10.1536  31356.1  176.572
 10.1956  30989.7  175.144
 10.2376  30592.6  173.537
 10.2796  30342.1  172.929
 10.3216  30212.9  172.843
 10.3636  29974.9  172.188
 10.4056  29490.4  171.181
 10.4476  29800.9  171.699
 10.4896  29751.9  171.014
 10.5316  29211  170.171
 10.5736  29130.4  170.351
 10.6156  29050.1  169.872
 10.6576  28778.3  167.641
 10.6996  28414.4  167.276
 10.7416  28102.5  166.564
 10.7836  27668.1  165.928
 10.8256  27356.4  165.417
 10.8676  27470.5  165.297
 10.9096  27116.9  164.277
 10.9516  26876.7  162.491
 10.9936  27018.7  163.135
 11.0356  26687  162.731
 11.0776  26775.3  162.336
 11.1196  26183.2  161.291
 11.1616  25956.6  160.256
 11.2036  26039.1  160.363
 11.2456  25966.7  160.841
 11.2876  26158.8  161.177
 11.3296  25609.7  159.381
 11.3716  26244.5  161.031
 11.4136  26188.3  161.75
 11.4556  26154.1  161.301
 11.4976  26956.6  162.737
 11.5396  27193.3  163.62
 11.5816  26952.8  163.346
 11.6236  26383.4  161.836
 11.6656  26277.3  160.672
 11.7076  25202.7  158.171
 11.7496  25166.6  162.051
 11.7916  25119  157.163
 11.8336  24677  156.65
 11.8756  24710.4  156.319
 11.9176  24682.1  155.896
 11.9596  24562.6  155.697
 12.0016  24457.3  156.131
 12.0436  24633.5  156.146
 12.0856  23941.2  154.433
 12.1276  23987.6  154.53
 12.1696  24169.8  154.228
 12.2116  24039.1  153.802
 12.2536  23879.5  154.117
 12.2956  23751.7  153.036
 12.3376  24009.1  154.092
 12.3796  23958.5  154.4
 12.4216  24033.6  153.837
 12.4636  23621.9  153.448
 12.5056  23683.8  152.919
 12.5476  23991.8  153.419
 12.5896  23669.5  153.022
 12.6316  23861.7  153.811
 12.6736  23416.4  152.842
 12.7156  23924.9  154.344
 12.7576  23758.5  154.053
 12.7996  23934.8  153.261
 12.8416  23802  153.884
 12.8836  24077.1  154.6
 12.9256  24384.6  154.614
 12.9676  24143.4  154.241
 13.0096  24493.6  156.498
 13.0516  24291.3  154.864
 13.0936  24685.4  156.54
 13.1356  24737.7  155.662
 13.1776  24605.9  156.264
 13.2196  24476  155.495
 13.2616  24197.8  154.917
 13.3036  24483  155.798
 13.3456  24021.5  154.656
 13.3876  24783.2  156.386
 13.4296  24271.7  154.918
 13.4716  24487.7  155.226
 13.5136  24279.7  154.69
 13.5556  24277.5  155.313
 13.5976  24474.1  156.117
 13.6396  24482.9  155.493
 13.6816  24314.1  155.435
 13.7236  24992  157.176
 13.7656  26393.6  161.982
 13.8076  27043.2  162.551
 13.8496  26602.5  161.934
 13.8916  24766.1  157.386
 13.9336  24086.6  154.482
 13.9756  24081.4  153.845
 14.0176  23625.4  153.06
 14.0596  23767.9  153.461
 14.1016  23505.5  153.029
 14.1436  23598  152.474
 14.1856  23188  151.421
 14.2276  23035.3  151.409
 14.2696  22993.5  151.12
 14.3116  22628.6  149.817
 14.3536  22352.9  149.071
 14.3956  22197.8  148.279
 14.4376  22491.7  149.049
 14.4796  22481.1  149.009
 14.5216  22054.7  148.373
 14.5636  21970.6  147.66
 14.6056  22089.4  147.627
 14.6476  21993.7  146.546
 14.6896  21591.7  145.741
 14.7316  21305.5  145.811
 14.7736  20969.5  143.802
 14.8156  21040.8  144.065
 14.8576  21029  143.888
 14.8996  20555.7  143.44
 14.9416  20360.9  142.779
 14.9836  20216.4  142.254
 15.0256  19440.4  138.412
 15.0676  19827.5  140.091
 15.1096  19439.3  138.453
 15.1516  19180.1  138.082
 15.1936  19138.7  137.366
 15.2356  18848.7  136.596
 15.2776  19118.2  137.158
 15.3196  18384.8  135.482
 15.3616  18435.2  135.428
 15.4036  18419  135.234
 15.4456  18709.4  135.944
 15.4876  18170.2  133.658
 15.5296  18165.5  133.923
 15.5716  17984.8  132.863
 15.6136  17783.9  132.443
 15.6556  17909.9  132.159
 15.6976  17830.3  132.159
 15.7396  17533.5  131.434
 15.7816  17383.9  130.391
 15.8236  17218.6  130.453
 15.8656  17490.5  131.275
 15.9076  17041.3  129.403
 15.9496  17766.4  134.96
 15.9916  17564.2  134.581
 16.0336  17666.9  131.862
 16.0756  17517.2  131.611
 16.1176  17414.6  131.308
 16.1596  16847.5  130.308
 16.2016  16867.5  129.155
 16.2436  16840.9  129.435
 16.2856  16907  129.206
 16.3276  16755.8  129.067
 16.3696  16724.9  128.768
 16.4116  16763.8  129.366
 16.4536  16877.8  129.616
 16.4956  16643  128.454
 16.5376  16635.1  128.607
 16.5796  16444.5  127.229
 16.6216  16771.1  128.756
 16.6636  16246.1  126.914
 16.7056  16527.7  127.873
 16.7476  16544.8  127.459
 16.7896  16492.7  128.011
 16.8316  16551.7  128.22
 16.8736  16492.3  128.252
 16.9156  16452.3  128.422
 16.9576  16309.5  128.643
 16.9996  16000.3  127.89
 17.0416  16369.3  127.74
 17.0836  16574.9  128.305
 17.1256  16111.2  126.505
 17.1676  16148.9  126.62
 17.2096  15912.2  125.574
 17.2516  15911.8  125.363
 17.2936  15876.3  125.575
 17.3356  15678.3  124.787
 17.3776  15672.3  124.939
 17.4196  15670.6  124.624
 17.4616  15532.7  123.992
 17.5036  15272.7  123.302
 17.5456  15185.9  123.592
 17.5876  15183.9  122.622
 17.6296  15184.8  122.473
 17.6716  15123.6  122.798
 17.7136  15135.9  122.981
 17.7556  15013.1  122.772
 17.7976  15065  122.718
 17.8396  14966.7  121.81
 17.8816  14658.4  121.114
 17.9236  14605.6  120.687
 17.9656  14671.4  121.483
 18.0076  14708.9  121.219
 18.0496  14679.2  120.237
 18.0916  14686.4  120.82
 18.1336  14617.8  120.629
 18.1756  14668.5  120.394
 18.2176  14444.7  119.678
 18.2596  14407.4  119.25
 18.3016  14678.9  120.631
 18.3436  14543.2  120.075
 18.3856  14692.9  120.838
 18.4276  14426.7  119.42
 18.4696  14447.7  119.589
 18.5116  14405.5  119.688
 18.5536  14444.4  120.211
 18.5956  14203.4  118.77
 18.6376  14177  119.058
 18.6796  14366.6  119.162
 18.7216  14248.4  119.157
 18.7636  14204  118.99
 18.8056  14077.6  118.378
 18.8476  13872.7  118.136
 18.8896  14181.6  118.78
 18.9316  14095  118.394
 18.9736  14093.5  118.076
 19.0156  13744.3  117.027
 19.0576  14162.5  117.643
 19.0996  14193.5  118.486
 19.1416  13894.8  117.633
 19.1836  13962.4  117.523
 19.2256  13791.9  117.02
 19.2676  13988.6  117.93
 19.3096  13755.1  117.181
 19.3516  14001.9  118.195
 19.3936  13742.4  116.983
 19.4356  14079.5  118.305
 19.4776  13759.6  117.038
 19.5196  13888.7  117.436
 19.5616  13693.9  116.87
 19.6036  13732.6  116.532
 19.6456  13798.7  116.931
 19.6876  13747.6  116.345
 19.7296  14048.1  118.085
 19.7716  13846.6  117.397
 19.8136  14076.1  118.573
 19.8556  14312.4  119.039
 19.8976  14208.3  118.664
 19.9396  14438.4  119.203
 19.9816  14446.1  119.483
 20.0236  14924.4  121.65
 20.0656  14663.7  120.576
 20.1076  14540.8  120.56
 20.1496  14180.5  119.052
 20.1916  14121.2  118.329
 20.2336  13974.3  117.61
 20.2756  13795  117.3
 20.3176  13746.1  116.841
 20.3596  13461.8  115.606
 20.4016  13593.5  115.971
 20.4436  13397.6  115.688
 20.4856  13528.5  116.058
 20.5276  13304.9  115.546
 20.5696  13519.1  115.918
 20.6116  13283.8  115.183
 20.6536  13300.9  114.775
 20.6956  13145.2  114.225
 20.7376  13097.9  114.231
 20.7796  13160.1  114.197
 20.8216  13313.4  114.572
 20.8636  13137.4  114.193
 20.9056  13160.3  114.224
 20.9476  13066.6  113.67
 20.9896  13185.6  114.042
 21.0316  13068.7  113.433
 21.0736  12938.6  113.389
 21.1156  12912.5  113.426
 21.1576  13030  113.994
 21.1996  13037.8  114.008
 21.2416  12990.5  113.631
 21.2836  12843.5  112.949
 21.3256  13007  113.76
 21.3676  12896.4  112.802
 21.4096  12878  113.043
 21.4516  12731.5  112.262
 21.4936  12530  111.632
 21.5356  12813.8  112.842
 21.5776  12895.6  113.035
 21.6196  12704  112.228
 21.6616  12663.4  112.134
 21.7036  12755.1  112.311
 21.7456  12676.4  112.04
 21.7876  12674.2  111.793
 21.8296  12596.4  111.3
 21.8716  12740.7  112.166
 21.9136  12788.7  112.58
 21.9556  12600.7  111.42
 21.9976  12452.6  110.796
 22.0396  12534.5  111.411
 22.0816  12482.3  111.694
 22.1236  12572.6  111.564
 22.1656  12542.4  111.573
 22.2076  12459.7  110.653
 22.2496  12454  110.657
 22.2916  12320.2  109.944
 22.3336  12287.8  110.516
 22.3756  12356.1  110.547
 22.4176  12251.7  109.936
 22.4596  12055.9  109.628
 22.5016  12283.5  110.169
 22.5436  12342.9  110.308
 22.5856  12527.6  111.378
 22.6276  12645.4  112.035
 22.6696  12472.2  111.619
 22.7116  12309.9  110.406
 22.7536  12352.4  110.574
 22.7956  12244.4  109.436
 22.8376  12161.7  109.571
 22.8796  12090.6  109.058
 22.9216  12276.4  110.431
 22.9636  12207.4  109.283
 23.0056  12307.7  109.867
 23.0476  12281.6  110.315
 23.0896  12623.3  111.217
 23.1316  12399.5  110.659
 23.1736  12527.4  114.179
 23.2156  12681.7  112.256
 23.2576  12886.8  113.303
 23.2996  12438.8  111.08
 23.3416  12766.6  113.078
 23.3836  12749.5  112.224
 23.4256  12745.7  112.328
 23.4676  12477.8  110.834
 23.5096  12634.8  112.19
 23.5516  12603.3  111.347
 23.5936  12573.5  112.127
 23.6356  12774.3  112.679
 23.6776  12520.5  111.761
 23.7196  12429.9  110.939
 23.7616  12522.8  111.265
 23.8036  12801.5  112.559
 23.8456  12353.8  110.118
 23.8876  12478.4  111.044
 23.9296  12401.4  111.18
 23.9716  12411.9  110.428
 24.0136  12392.5  111.252
 24.0556  12263.2  110.383
 24.0976  12133.9  109.62
 24.1396  12119.9  112.172
 24.1816  12254.4  111.198
 24.2236  12226  110.702
 24.2656  12090.2  109.555
 24.3076  12003.2  109.433
 24.3496  12033.9  109.443
 24.3916  12178.6  110.159
 24.4336  12166.7  110.306
 24.4756  11950.9  109.208
 24.5176  11972.1  108.931
 24.5596  11800.5  108.271
 24.6016  11718.4  108.195
 24.6436  11852.4  108.321
 24.6856  11696.4  107.338
 24.7276  11688.2  107.625
 24.7696  11684.9  107.716
 24.8116  11447.6  106.801
 24.8536  11522.3  107.154
 24.8956  11521.6  106.884
 24.9376  11424.5  106.359
 24.9796  11356.4  106.403
 25.0216  11301.3  106.262
 25.0636  11383.7  106.295
 25.1056  11206.7  106.159
 25.1476  11326.6  108.374
 25.1896  11128.5  105.923
 25.2316  11191  105.498
 25.2736  11193.6  105.165
 25.3156  11202.6  105.283
 25.3576  11161.8  105.526
 25.3996  11123.7  105.336
 25.4416  11070.1  105.053
 25.4836  10918  104.846
 25.5256  11011.4  104.661
 25.5676  11110.1  104.852
 25.6096  10782  103.861
 25.6516  10928.1  104.069
 25.6936  10947.3  104.484
 25.7356  10804.4  103.925
 25.7776  11027.7  104.595
 25.8196  10731.3  103.414
 25.8616  10836.7  103.851
 25.9036  10859.4  103.422
 25.9456  10848.6  103.955
 25.9876  10912.3  104.332
 26.0296  10899.4  103.786
 26.0716  10916.1  104.297
 26.1136  10829.3  103.81
 26.1556  11002.4  104.012
 26.1976  10900.8  104.468
 26.2396  10807.9  103.173
 26.2816  10796.1  103.729
 26.3236  10873.9  104.246
 26.3656  11009  104.626
 26.4076  10747  103.569
 26.4496  10989.1  104.323
 26.4916  10981  104.185
 26.5336  11512.6  107.022
 26.5756  11547.3  107.063
 26.6176  10856.5  103.83
 26.6596  10788.5  103.807
 26.7016  10757.6  103.427
 26.7436  10832.8  103.921
 26.7856  10480.4  102.199
 26.8276  10585.3  102.676
 26.8696  10572.9  102.489
 26.9116  10613.4  102.614
 26.9536  10506.7  102.155
 26.9956  10349  101.413
 27.0376  10458.5  102.184
 27.0796  10493.7  102.075
 27.1216  10540.4  102.348
 27.1636  10379.7  101.749
 27.2056  10379.2  101.63
 27.2476  10352.7  101.489
 27.2896  10279.1  101.239
 27.3316  10345.6  101.292
 27.3736  10297.1  101.318
 27.4156  10446.8  101.892
 27.4576  10226.1  101.023
 27.4996  10425.3  101.624
 27.5416  10210.7  100.869
 27.5836  10336.8  101.326
 27.6256  10287.4  101.265
 27.6676  10210.3  100.873
 27.7096  10293.7  101.164
 27.7516  10148.4  100.597
 27.7936  10552.3  102.726
 27.8356  10407.6  101.625
 27.8776  10424.3  101.783
 27.9196  10146.5  100.273
 27.9616  10257.9  101.021
 28.0036  10172.2  100.554
 28.0456  9995.63  99.8132
 28.0876  9967.17  99.7653
 28.1296  10114.6  100.332
 28.1716  10162.1  100.594
 28.2136  10023.8  99.8603
 28.2556  10007.3  99.9038
 28.2976  9897.29  99.3422
 28.3396  9794.74  98.5814
 28.3816  9968.53  99.4654
 28.4236  9914.06  99.341
 28.4656  9775.01  98.692
 28.5076  9849.03  98.7023
 28.5496  9807.82  98.7503
 28.5916  9844.24  98.7473
 28.6336  9905.43  99.3984
 28.6756  9984.07  98.9834
 28.7176  9861.99  98.9313
 28.7596  9790.47  98.4693
 28.8016  9842.85  98.7594
 28.8436  9657.64  98.0566
 28.8856  9781.55  98.5433
 28.9276  9799.52  98.8817
 28.9696  9662.29  97.8494
 29.0116  9632.84  97.8805
 29.0536  9589.43  97.8692
 29.0956  9716.71  98.215
 29.1376  9607.05  97.6284
 29.1796  9747.6  98.3989
 29.2216  9567.72  97.317
 29.2636  9604.65  97.5884
 29.3056  9652  97.6085
 29.3476  9599.78  97.8724
 29.3896  9509.07  97.518
 29.4316  9464.7  96.6183
 29.4736  9376.71  96.2285
 29.5156  9502.81  96.7999
 29.5576  9364.9  96.821
 29.5996  9512.5  96.8463
 29.6416  9334.05  96.0486
 29.6836  9373.58  96.1804
 29.7256  9399.41  96.8726
 29.7676  9321.69  96.1382
 29.8096  9415.39  96.562
 29.8516  9200.21  95.7821
 29.8936  9401.69  96.9159
 29.9356  9362.47  96.471
 29.9776  9337.09  96.4887
 30.0196  9322.67  95.8134
 30.0616  9402.35  96.5931
 30.1036  9391.86  96.3666
 30.1456  9309.66  96.1728
 30.1876  9369.85  96.463
 30.2296  9184.19  95.4521
 30.2716  9328.64  95.8382
 30.3136  9278.88  96.431
 30.3556  9516.57  97.6771
 30.3976  9396.4  98.5166
 30.4396  9734.08  97.6438
 30.4816  9451.36  95.8167
 30.5236  9557.95  96.3604
 30.5656  9573.57  97.0843
 30.6076  9497.55  96.1238
 30.6496  9537.73  96.7362
 30.6916  9378.54  96.0042
 30.7336  9414.71  96.3525
 30.7756  9184.13  95.2419
 30.8176  9431.46  96.4257
 30.8596  9444.72  96.257
 30.9016  9451.25  96.6474
 30.9436  9576.81  97.0332
 30.9856  9416.55  96.3269
 31.0276  9261.07  95.1642
 31.0696  9382.67  96.347
 31.1116  9350.44  96.1557
 31.1536  9250.31  95.5125
 31.1956  9292.21  95.8099
 31.2376  9142.65  95.0691
 31.2796  9273.51  95.2912
 31.3216  9402.38  95.8813
 31.3636  9338.45  96.2384
 31.4056  9324.51  97.4779
 31.4476  9345.78  95.5028
 31.4896  9242.42  95.4748
 31.5316  9371.81  95.5364
 31.5736  9357.53  95.3001
 31.6156  9322.16  95.1213
 31.6576  9357.61  95.379
 31.6996  9396.51  95.2471
 31.7416  9255.71  95.6193
 31.7836  9318.99  94.9419
 31.8256  9343.79  95.3398
 31.8676  9360.33  95.4167
 31.9096  9193.81  94.9328
 31.9516  9008.3  94.1358
 31.9936  9014.06  93.9758
 32.0356  9219.11  95.0956
 32.0776  9147.1  94.6289
 32.1196  9252.27  95.274
 32.1616  9232.48  94.6226
 32.2036  9216.08  95.0528
 32.2456  9137.76  95.0229
 32.2876  9159.37  94.6309
 32.3296  8996.57  93.7449
 32.3716  8947.92  93.6026
 32.4136  8809.45  93.0794
 32.4556  9035.41  93.648
 32.4976  8972.71  93.2319
 32.5396  8965.7  93.2604
 32.5816  9026.57  93.7047
 32.6236  8897.58  93.0959
 32.6656  9096.72  94.6787
 32.7076  8884.53  93.2251
 32.7496  8953.52  93.2553
 32.7916  9005.36  93.4874
 32.8336  8899.21  93.0273
 32.8756  9036.2  93.4652
 32.9176  8773.33  92.573
 32.9596  8853.6  93.0714
 33.0016  8994.13  93.562
 33.0436  8842.78  92.9368
 33.0856  8887.99  93.2882
 33.1276  8804.1  92.5793
 33.1696  8881.93  92.8219
 33.2116  8895.95  93.121
 33.2536  8953.36  93.416
 33.2956  9047.12  93.9839
 33.3376  8849.33  92.6996
 33.3796  8890.73  93.1342
 33.4216  8862.1  92.5664
 33.4636  8901.8  92.9383
 33.5056  8688.41  92.0569
 33.5476  8843.45  92.8598
 33.5896  8844.29  92.6514
 33.6316  8862.05  93.0631
 33.6736  8570.87  91.7587
 33.7156  8691.17  92.4314
 33.7576  8708.82  92.1602
 33.7996  8816.72  92.4977
 33.8416  8663.37  91.8757
 33.8836  8634.77  91.4962
 33.9256  8780.29  92.3265
 33.9676  8821.49  92.4402
 34.0096  8649.75  91.8522
 34.0516  8588.39  91.1614
 34.0936  8547.81  91.2126
 34.1356  8726.27  91.8999
 34.1776  8645.92  91.4739
 34.2196  8575.6  91.2853
 34.2616  8421.95  90.5992
 34.3036  8594.11  91.7734
 34.3456  8548.41  91.2681
 34.3876  8739.97  92.2696
 34.4296  8554.2  90.9754
 34.4716  8659.15  91.6763
 34.5136  8615.8  91.6435
 34.5556  8417.32  90.8281
 34.5976  8557.09  91.3922
 34.6396  8511.37  90.8678
 34.6816  8522.51  91.0356
 34.7236  8565.3  91.0276
 34.7656  8536.94  91.0982
 34.8076  8487.3  91.1603
 34.8496  8514.92  91.1497
 34.8916  8518.15  91.0383
 34.9336  8543.54  91.1519
 34.9756  8563.21  91.1806
 35.0176  8496.33  91.3485
 35.0596  8612  91.7968
 35.1016  8655.68  91.7705
 35.1436  8685.06  91.6212
 35.1856  8532.51  90.9355
 35.2276  8557.01  91.2333
 35.2696  8509.37  91.1799
 35.3116  8449.76  90.9571
 35.3536  8518.21  91.0321
 35.3956  8397.9  90.0984
 35.4376  8467.9  91.0463
 35.4796  8371.86  90.5507
 35.5216  8400.2  90.6831
 35.5636  8182.7  90.2224
 35.6056  8363.11  90.238
 35.6476  8422.33  90.4649
 35.6896  8395.02  90.3968
 35.7316  8364.96  90.2211
 35.7736  8240.89  89.7362
 35.8156  8455.03  90.8967
 35.8576  8470.2  91.2219
 35.8996  8496.95  91.3287
 35.9416  8352.2  90.0567
 35.9836  8459.09  90.9883
 36.0256  8643.31  91.9721
 36.0676  8562.46  91.2819
 36.1096  8442.72  90.8094
 36.1516  8479.54  90.8985
 36.1936  8460.2  90.634
 36.2356  8422.83  91.0928
 36.2776  8255.89  89.6605
 36.3196  8449.5  90.3767
 36.3616  8332.13  89.8737
 36.4036  8314.95  89.8496
 36.4456  8339.11  90.1919
 36.4876  8217.04  89.4644
 36.5296  8287.37  89.8847
 36.5716  8259.6  90.5067
 36.6136  8298.55  89.497
 36.6556  8196.85  89.1474
 36.6976  8178.99  89.5408
 36.7396  8089.44  88.7869
 36.7816  8063.97  89.016
 36.8236  8110.73  89.1966
 36.8656  7993.2  88.6168
 36.9076  7923.7  88.1138
 36.9496  7943.25  88.2065
 36.9916  8073.1  88.5605
 37.0336  8077.12  88.8959
 37.0756  8071.12  88.6553
 37.1176  7824.67  87.5558
 37.1596  8092.27  89.0424
 37.2016  7920.44  88.3177
 37.2436  8113.65  88.7065
 37.2856  7956.59  88.0971
 37.3276  7974.19  87.5558
 37.3696  7886.73  87.9432
 37.4116  8077.29  88.9068
 37.4536  7908.42  87.8381
 37.4956  7898.72  87.8339
 37.5376  8182.7  90.9921
 37.5796  8120.05  90.5748
 37.6216  7951.71  87.9228
 37.6636  8141.3  88.8585
 37.7056  8223.73  89.4955
 37.7476  8224.61  89.0408
 37.7896  7916.31  87.8515
 37.8316  8060.55  88.8124
 37.8736  7998.54  87.9907
 37.9156  8104.59  88.5811
 37.9576  8075.28  88.3224
 37.9996  7979.67  87.5126
 38.0416  8003.5  88.4359
 38.0836  8162.37  89.2234
 38.1256  7967.86  88.1276
 38.1676  7830.91  87.4834
 38.2096  8102.93  88.6042
 38.2516  7998.72  88.2382
 38.2936  8149.79  88.8797
 38.3356  7995.53  87.9576
 38.3776  7852.52  87.41
 38.4196  7992.2  88.0308
 38.4616  8073.02  88.7415
 38.5036  7993.76  88.1485
 38.5456  7955.45  88.7508
 38.5876  7926.48  88.6096
 38.6296  7986.6  87.9233
 38.6716  8014.37  87.8893
 38.7136  7920.42  87.3118
 38.7556  8014.57  88.3416
 38.7976  8053.8  88.4768
 38.8396  7787.25  87.4633
 38.8816  8002.7  88.4593
 38.9236  7945.31  87.9339
 38.9656  7870.87  87.4378
 39.0076  8082.48  88.0069
 39.0496  7965.78  87.9215
 39.0916  8042.07  87.9836
 39.1336  8030.74  88.3224
 39.1756  7976.76  88.0955
 39.2176  7878.35  88.0737
 39.2596  7939.62  88.3483
 39.3016  8016.58  88.3618
 39.3436  7784.55  87.4814
 39.3856  8022.62  88.2544
 39.4276  8110.34  89.2488
 39.4696  7987.92  88.1882
 39.5116  7901.42  88.227
 39.5536  7900.81  88.6357
 39.5956  7965.86  88.0975
 39.6376  7924.64  87.8689
 39.6796  7875.67  87.3448
 39.7216  7900.82  87.582
 39.7636  8049.46  88.9683
 39.8056  7988.43  88.424
 39.8476  7778.18  87.4896
 39.8896  7937.36  88.029
 39.9316  7825.18  87.6388
 39.9736  7939.21  87.8482
 40.0156  7892.53  87.4246
 40.0576  7878.8  87.6935
 40.0996  7912.83  87.0801
 40.1416  7928.94  87.9552
 40.1836  7940.03  87.9087
 40.2256  7919.99  87.8231
 40.2676  7874.46  87.685
 40.3096  8000.75  88.3193
 40.3516  8020.08  88.5249
 40.3936  8011.83  88.0468
 40.4356  7839.32  87.2931
 40.4776  7903.37  88.0553
 40.5196  8010.16  88.7744
 40.5616  8087.99  88.8447
 40.6036  7772  87.3389
 40.6456  7871.52  87.5108
 40.6876  8040.71  88.4402
 40.7296  7830.18  87.4011
 40.7716  7948.34  88.184
 40.8136  7840.63  87.5222
 40.8556  7989.52  88.4866
 40.8976  7935.02  88.1121
 40.9396  8048.81  89.0836
 40.9816  7947.64  87.8147
 41.0236  8013.7  87.9636
 41.0656  7961.04  88.2137
 41.1076  7896.82  87.627
 41.1496  7915.97  87.6432
 41.1916  7830.68  87.4757
 41.2336  7957.4  88.19
 41.2756  7890.88  87.4229
 41.3176  7968.88  88.4696
 41.3596  7964.53  88.1785
 41.4016  7808.64  87.5647
 41.4436  8041.61  88.6463
 41.4856  7838.87  87.6861
 41.5276  7918.96  88.1518
 41.5696  7962.74  88.0271
 41.6116  8090.96  89.1258
 41.6536  7909.41  87.9624
 41.6956  7963.94  88.3418
 41.7376  7899.63  88.0045
 41.7796  7725.42  86.9124
 41.8216  7910.85  88.1858
 41.8636  7895.26  88.0404
 41.9056  7882.31  87.7597
 41.9476  7902.35  88.1127
 41.9896  8009.75  88.3713
 42.0316  7862.47  87.6394
 42.0736  8116.61  89.1516
 42.1156  7796.1  87.2022
 42.1576  7889.62  87.8276
 42.1996  7987.41  88.5012
 42.2416  7948.42  87.8695
 42.2836  7864.87  87.5356
 42.3256  7833.4  87.459
 42.3676  8007.19  88.2325
 42.4096  7844.62  87.3055
 42.4516  7987.74  88.1748
 42.4936  7817.69  87.299
 42.5356  7800.04  87.3406
 42.5776  7862.63  87.6268
 42.6196  7917.79  87.9944
 42.6616  7769.63  87.3399
 42.7036  7836.17  87.0898
 42.7456  7915.89  87.8913
 42.7876  7701.13  86.7681
 42.8296  7842.75  87.4193
 42.8716  7827.46  87.496
 42.9136  7780.99  87.0206
 42.9556  7788.01  87.1976
 42.9976  7881.27  87.6737
 43.0396  7861.76  87.2965
 43.0816  7823.54  87.4728
 43.1236  7730.79  87.0057
 43.1656  7762.82  87.0067
 43.2076  7756.23  87.0781
 43.2496  7766.96  86.9633
 43.2916  7699.53  86.9396
 43.3336  7848.47  87.6153
 43.3756  7789.11  87.0338
 43.4176  7723.51  86.7515
 43.4596  7710.18  86.5244
 43.5016  7680.84  86.767
 43.5436  7680.34  86.6712
 43.5856  7758.55  87.136
 43.6276  7777.78  87.1383
 43.6696  7657.88  86.7111
 43.7116  7838.89  87.2335
 43.7536  7812.19  87.5819
 43.7956  7580.38  87.4681
 43.8376  7693.54  86.6345
 43.8796  7630.81  86.3646
 43.9216  7700.21  86.6756
 43.9636  7651.08  86.5048
 44.0056  7535.48  86.0795
 44.0476  7611.25  86.1406
 44.0896  7455.94  85.5993
 44.1316  7558.36  85.709
 44.1736  7524.3  85.6417
 44.2156  7585.91  85.8412
 44.2576  7520.63  85.7973
 44.2996  7580.66  86.1093
 44.3416  7602.62  85.995
 44.3836  7342.49  84.8367
 44.4256  7460.06  85.1568
 44.4676  7401.05  84.975
 44.5096  7583.87  86.1632
 44.5516  7516.98  85.7495
 44.5936  7384.28  84.9401
 44.6356  7435.12  84.9714
 44.6776  7514.29  85.7382
 44.7196  7492.37  85.9176
 44.7616  7580.48  87.7627
 44.8036  7554.86  86.0416
 44.8456  7617.91  86.6071
 44.8876  7651.81  86.6385
 44.9296  7789.29  86.8621
 44.9716  7594.19  86.1967
 45.0136  7727.78  86.8685
 45.0556  7774.92  87.1335
 45.0976  7670.76  86.6946
 45.1396  7538.58  85.7006
 45.1816  7530.61  85.5992
 45.2236  7588.45  85.8362
 45.2656  7556.62  86.1451
 45.3076  7577.7  86.0434
 45.3496  7501.67  85.9311
 45.3916  7705.5  87.3652
 45.4336  7644.74  86.8645
 45.4756  7480.41  85.7755
 45.5176  7691.69  86.5947
 45.5596  7701.73  86.7612
 45.6016  7418.66  85.5823
 45.6436  7603.31  85.8065
 45.6856  7459.36  85.6439
 45.7276  7465.61  86.9926
 45.7696  7452.69  86.6024
 45.8116  7574.97  86.7283
 45.8536  7411.09  85.6837
 45.8956  7482.65  85.4559
 45.9376  7495.06  84.9914
 45.9796  7540.03  85.9311
 46.0216  7642.76  86.8611
 46.0636  7549.15  85.4583
 46.1056  7613.58  85.8195
 46.1476  7630.31  86.517
 46.1896  7566.45  86.3072
 46.2316  7509.64  85.8408
 46.2736  7358.92  85.3505
 46.3156  7571.26  86.1551
 46.3576  7503.98  85.9695
 46.3996  7486.13  86.0266
 46.4416  7492.94  85.6466
 46.4836  7470.48  85.8708
 46.5256  7448.36  85.689
 46.5676  7459.1  85.8589
 46.6096  7516.5  86.1051
 46.6516  7418.66  84.602
 46.6936  7524.62  85.7065
 46.7356  7584.66  86.1593
 46.7776  7435.63  86.147
 46.8196  7462.06  85.8879
 46.8616  7361.96  85.2561
 46.9036  7320.74  84.6684
 46.9456  7384.52  84.6755
 46.9876  7413.54  84.9317
 47.0296  7405.59  85.5798
 47.0716  7370.74  85.2015
 47.1136  7371.43  84.8886
 47.1556  7371.26  84.7449
 47.1976  7635  86.3282
 47.2396  7392.89  85.3549
 47.2816  7351.74  84.8142
 47.3236  7431.15  85.6369
 47.3656  7497.61  85.956
 47.4076  7400.65  85.1959
 47.4496  7331.08  84.8969
 47.4916  7320.84  85.031
 47.5336  7545.58  86.1337
 47.5756  7453.94  85.7244
 47.6176  7208.35  84.1905
 47.6596  7314.81  84.5333
 47.7016  7531.65  85.5889
 47.7436  7454.27  85.4897
 47.7856  7473.91  85.6354
 47.8276  7330.85  84.8516
 47.8696  7352.18  85.0702
 47.9116  7441.74  85.2965
 47.9536  7397.19  84.9727
 47.9956  7315.36  85.2222
 48.0376  7238.14  84.5408
 48.0796  7406.73  85.6454
 48.1216  7373.59  85.2767
 48.1636  7448.95  85.2842
 48.2056  7403.56  85.2882
 48.2476  7472.13  86.0009
 48.2896  7359.9  85.2533
 48.3316  7374.78  85.2748
 48.3736  7350.54  85.1635
 48.4156  7282.59  84.6174
 48.4576  7405.57  85.6347
 48.4996  7451.96  85.3438
 48.5416  7461.36  85.7355
 48.5836  7421.51  85.1575
 48.6256  7448.75  85.5292
 48.6676  7339.62  85.4326
 48.7096  7423.75  85.1731
 48.7516  7421.35  85.3135
 48.7936  7291.56  84.6236
 48.8356  7364.81  85.1027
 48.8776  7341.06  85.5421
 48.9196  7433.11  85.4441
 48.9616  7305.02  85.0825
 49.0036  7284.44  85.3152
 49.0456  7276.42  85.2415
 49.0876  7309.58  84.9651
 49.1296  7237.66  84.7213
 49.1716  7231.09  84.5419
 49.2136  7265.28  84.6821
 49.2556  7415.19  85.5752
 49.2976  7367.88  85.3768
 49.3396  7305.04  85.0562
 49.3816  7399.81  85.034
 49.4236  7276.89  84.7615
 49.4656  7243.84  84.5768
 49.5076  7322.28  84.7804
 49.5496  7277.55  84.5836
 49.5916  7310.56  84.6837
 49.6336  7226.45  84.407
 49.6756  7396.6  85.6445
 49.7176  7336.38  85.2288
 49.7596  7269.02  84.5987
 49.8016  7332.14  84.8795
 49.8436  7265.31  84.794
 49.8856  7253.2  84.7277
 49.9276  7304.1  85.1293
 49.9696  7286.33  85.0071
 50.0116  7267.37  85.0237
 50.0536  7190.13  84.5213
 50.0956  7228.17  84.8102
 50.1376  7327.6  85.0738
 50.1796  7288.39  85.1448
 50.2216  7241.07  84.8554
 50.2636  7239.83  84.4628
 50.3056  7220.96  84.5299
 50.3476  7247.37  84.7082
 50.3896  7234.34  84.6057
 50.4316  7262.01  84.5962
 50.4736  7139.22  84.1006
 50.5156  7216.91  84.5409
 50.5576  7287.6  84.7048
 50.5996  7213.02  84.5646
 50.6416  7260.65  84.7698
 50.6836  7240.61  84.7122
 50.7256  7242.46  84.6494
 50.7676  7335.98  85.5208
 50.8096  7255.24  84.5731
 50.8516  7214.15  84.7537
 50.8936  7101.5  83.8694
 50.9356  7252.81  84.875
 50.9776  7176.54  84.5825
 51.0196  6987.15  83.5817
 51.0616  7083.28  83.4631
 51.1036  7089.96  83.8683
 51.1456  7162.18  84.2034
 51.1876  7050.1  82.8724
 51.2296  7117.89  83.919
 51.2716  7006.1  82.9601
 51.3136  6965.5  83.1825
 51.3556  7059.18  83.3558
 51.3976  6983.62  83.0631
 51.4396  6832.18  82.4674
 51.4816  7014.43  83.4133
 51.5236  7100.81  84.007
 51.5656  6948.76  82.6981
 51.6076  6986.11  83.007
 51.6496  7025.53  83.4342
 51.6916  7028.6  83.8194
 51.7336  6963.58  83.5224
 51.7756  6932.36  83.0253
 51.8176  6898.63  82.9358
 51.8596  7053.82  83.8773
 51.9016  7180.25  84.2208
 51.9436  7086.17  85.1955
 51.9856  6951.49  84.8047
 52.0276  7101.99  84.1755
 52.0696  7195.6  84.8039
 52.1116  7037.34  83.9845
 52.1536  7160.03  84.6006
 52.1956  7021.29  83.2231
 52.2376  7297.42  85.0207
 52.2796  7208.01  84.3116
 52.3216  7012.05  83.8612
 52.3636  7019.71  83.4606
 52.4056  7061.91  83.5811
 52.4476  7007.89  83.6242
 52.4896  6937.96  83.2588
 52.5316  7062.62  84.0654
 52.5736  6974.37  83.2401
 52.6156  7131.56  84.5902
 52.6576  6990.68  83.1582
 52.6996  6867.42  83.4287
 52.7416  6835.66  83.0856
 52.7836  7072.18  84.4034
 52.8256  6894.7  82.541
 52.8676  6855.65  82.886
 52.9096  6985.22  83.7358
 52.9516  6984.9  84.136
 52.9936  6891.59  83.9485
 53.0356  6960.29  83.3477
 53.0776  7009.08  83.915
 53.1196  6968.71  83.8085
 53.1616  7007.37  84.0882
 53.2036  6863.31  83.179
 53.2456  6994.2  84.076
 53.2876  6997.1  83.773
 53.3296  7016.96  84.214
 53.3716  7036.95  84.0987
 53.4136  6842.27  83.0778
 53.4556  6907.18  83.4943
 53.4976  6951.94  83.602
 53.5396  6915.78  83.7943
 53.5816  7028.77  84.0991
 53.6236  6928.91  83.8594
 53.6656  6928.88  83.442
 53.7076  6909.52  83.2957
 53.7496  6939.69  83.61
 53.7916  6914.96  83.6062
 53.8336  6981.27  83.8947
 53.8756  6873.01  83.8014
 53.9176  6855.44  83.0148
 53.9596  6689.05  82.7768
 54.0016  6612.16  81.6132
 54.0436  6583.84  81.665
 54.0856  6701.3  81.819
 54.1276  6744.52  82.2743
 54.1696  6755.63  82.5056
 54.2116  6836.49  82.7487
 54.2536  6660.6  81.4826
 54.2956  6709.53  81.8291
 54.3376  6669.87  82.0915
 54.3796  6666.84  81.9649
 54.4216  6695.43  82.205
 54.4636  6543.82  81.2304
 54.5056  6713.91  82.071
 54.5476  6614.66  81.8049
 54.5896  6651.07  81.8739
 54.6316  6623.7  81.5533
 54.6736  6734.01  82.3082
 54.7156  6631.38  81.6956
 54.7576  6552.47  81.2024
 54.7996  6701.92  82.2653
 54.8416  6630.8  81.893
 54.8836  6617.96  81.9123
 54.9256  6636.63  81.7708
 54.9676  6509.84  80.8575
 55.0096  6584.59  81.3414
 55.0516  6514.92  81.1513
 55.0936  6506.16  80.7765
 55.1356  6508.24  80.8169
 55.1776  6686.56  82.1719
 55.2196  6482.74  80.6964
 55.2616  6718.88  82.3877
 55.3036  6424.95  80.7282
 55.3456  6391.99  80.6684
 55.3876  6503.62  81.0889
 55.4296  6439.88  80.6769
 55.4716  6543.71  81.3661
 55.5136  6416.65  80.3314
 55.5556  6695.33  82.1133
 55.5976  6380.28  80.223
 55.6396  6622.61  81.6808
 55.6816  6412.9  80.255
 55.7236  6385.84  80.1329
 55.7656  6498.24  80.5723
 55.8076  6451.51  80.2764
 55.8496  6334.52  79.8593
 55.8916  6390  80.4087
 55.9336  6584.71  81.456
 55.9756  6477.19  80.6606
 56.0176  6397.88  80.3203
 56.0596  6414.76  80.4099
 56.1016  6362.34  80.1096
 56.1436  6294.48  79.9283
 56.1856  6303.85  79.7361
 56.2276  6476.14  80.8729
 56.2696  6394.13  80.3318
 56.3116  6421.73  80.8884
 56.3536  6367.4  80.2283
 56.3956  6457.14  80.751
 56.4376  6422.24  80.5675
 56.4796  6307.69  79.6748
 56.5216  6282.24  79.8882
 56.5636  6271.65  79.3981
 56.6056  6493.95  81.0405
 56.6476  6366.37  79.8402
 56.6896  6477.61  81.016
 56.7316  6280.71  79.6843
 56.7736  6307.4  79.8272
 56.8156  6342.1  80.0848
 56.8576  6207.43  79.166
 56.8996  6297.09  79.6514
 56.9416  6296.86  79.959
 56.9836  6427.76  80.3128
 57.0256  6279.4  79.6952
 57.0676  6391.19  80.5147
 57.1096  6283.96  79.6131
 57.1516  6282.02  79.6522
 57.1936  6325.07  79.6897
 57.2356  6204.48  79.2599
 57.2776  6262.78  79.5833
 57.3196  6347.6  80.477
 57.3616  6273.64  79.4897
 57.4036  6322.11  79.8488
 57.4456  6298.44  79.6973
 57.4876  6321.9  79.715
 57.5296  6254.08  79.6011
 57.5716  6133.67  78.8269
 57.6136  6145.63  78.7466
 57.6556  6216.84  79.3378
 57.6976  6369.6  80.1333
 57.7396  6154.52  79.1278
 57.7816  6117.45  79.2585
 57.8236  6155.04  79.2686
 57.8656  6220.44  79.3557
 57.9076  6196.41  79.2252
 57.9496  6233.69  79.831
 57.9916  6204.34  79.1501
 58.0336  6184.64  79.3165
 58.0756  6308.98  79.7379
 58.1176  6193.61  78.9952
 58.1596  6104.41  79.0082
 58.2016  6013.07  77.6318
 58.2436  6091.67  78.5434
 58.2856  5920.91  77.361
 58.3276  5929.94  77.7733
 58.3696  5931  77.5476
 58.4116  5908.51  77.2677
 58.4536  6067.08  78.1808
 58.4956  5934  77.5011
 58.5376  6024.12  77.6598
 58.5796  5938.74  77.5254
 58.6216  6013.37  77.8321
 58.6636  6044.61  78.2392
 58.7056  6020.57  77.9437
 58.7476  5962.21  78.0088
 58.7896  5946.98  77.5557
 58.8316  5915.34  77.3445
 58.8736  6006.36  77.9493
 58.9156  5928.71  77.485
 58.9576  5926  77.7863
 58.9996  5997.05  77.5049
 59.0416  5996.53  77.8621
 59.0836  5907.33  77.1869
 59.1256  5840.31  77.4463
 59.1676  5803.6  77.5073
 59.2096  6041.07  78.3858
 59.2516  6098.22  78.3348
 59.2936  6002.9  78.0472
 59.3356  5957.48  77.6299
 59.3776  5750.8  76.4364
 59.4196  5848.74  77.022
 59.4616  5968.76  77.6685
 59.5036  5748.94  76.2596
 59.5456  6094.06  78.2071
 59.5876  5940.4  77.4043
 59.6296  5683.58  75.7798
 59.6716  5801.58  76.6192
 59.7136  5907.06  77.301
 59.7556  5819.54  76.8601
 59.7976  5904.64  77.1651
 59.8396  5951.47  77.3656
 59.8816  5904.15  77.5959
 59.9236  5949.4  77.5398
 59.9656  5877.51  77.3259
 60.0076  5954.08  77.191
 60.0496  5822.84  76.8272
 60.0916  6029.08  77.5977
 60.1336  5759.63  76.9251
 60.1756  5821.61  78.5005
 60.1996  0.0000000E+00  0.0000000E+00