File: docs/examples/XRD/IS17_D/Data/IS17_D/17_Db_f00080.xye
# /beamlines/bl04/projects/cycle2025-II/20250340211-lsimonelli/DATA/IS17_D/17_Db_f00080.xye : mythproc.py merge -s 0.006 -l 0.5 -f /beamlines/bl04/inhouse/ff/FlatField/ff_20Nov2024rod8mm60s_17keV.raw -b True -c true -o xye /beamlines/bl04/projects/cycle2025-II/20250340211-lsimonelli/DATA/IS17_D/17_Db_00080.dat
# IsMon = [6785835, 6789266, 6784189]  IsPos = [-1.4999, -2.4884, -3.4988]
# Wave = 0.4962  CalPath /beamlines/bl04/projects/cycle2025-II/20250340211-lsimonelli/DATA/Align/Si_Pos1_25keV_f00001.cal
# Date = 2025-09-24_15:59:32 Dt = 4.8000  Bin = 0.0060  <imon> = 6786430 +/- 2115 (Min/Max) 6784189 / 6789266
# icurr 252.7717  mocoIn 1.7236E-05  mocoOut 0.8085  i15 7.10539e+06  imon 6.78643e+06  i7 5.0000  iEMpd_timer 4.8000  iEMpd_1 3.1962E-08  iEMpd_2 7.8511E-08  iEMpd_3 1.6440E-08  iEMpd_4 4.7916E-08  iEMhp_timer 4.8000  iEMhp_1 4.9354E-06  iEMhp_2 -2.4180E-08  iEMhp_3 -2.3993E-08  iEMhp_4 -2.0267E-08
#      9776
 1.5856  43457.8  214.07
 1.6276  50184.7  226.095
 1.6696  56300.6  238.631
 1.7116  63363.2  253.652
 1.7536  71642.5  268.566
 1.7956  75544.5  276.472
 1.8376  71841.8  270.038
 1.8796  61680.8  248.379
 1.9216  51109.6  226.991
 1.9636  44160.9  210.133
 2.0056  40213.9  199.745
 2.0476  37174.5  194.154
 2.0896  35918.7  189.727
 2.1316  35137  186.749
 2.1736  33227.2  183.043
 2.2156  34035.1  183.769
 2.2576  32487.7  180.187
 2.2996  31555.7  178.235
 2.3416  31752.1  177.363
 2.3836  31049  175.495
 2.4256  30165.4  173.543
 2.4676  30044.2  172.949
 2.5096  30134.9  173.266
 2.5516  31417.3  180.919
 2.5936  108582  329.253
 2.6356  29940.2  173.823
 2.6776  27830.6  166.493
 2.7196  27336  165.495
 2.7616  27395.6  165.468
 2.8036  26620.8  163.273
 2.8456  26659.1  164.034
 2.8876  25886.6  161.491
 2.9296  25565.8  160.627
 2.9716  25324.1  159.358
 3.0136  25001.6  158.399
 3.0556  25230.8  159.515
 3.0976  25201  158.336
 3.1396  24913  158.153
 3.1816  24578.6  157.027
 3.2236  24268.3  156.019
 3.2656  24251  155.018
 3.3076  24035.1  155.795
 3.3496  24419.3  155.949
 3.3916  24797.2  156.974
 3.4336  25007.1  158.218
 3.4756  25432.1  159.509
 3.5176  25965.5  160.949
 3.5596  25966.3  163.397
 3.6016  26155.5  161.608
 3.6436  25185.3  159.679
 3.6856  24840  156.898
 3.7276  23775.5  154.562
 3.7696  23715.1  154.578
 3.8116  23296.8  153.085
 3.8536  23599.8  154.022
 3.8956  23239.2  152.654
 3.9376  23910.1  155.108
 3.9796  23323.3  152.681
 4.0216  23278.1  151.568
 4.0636  23079.7  152.391
 4.1056  23279.1  152.694
 4.1476  23471.8  153.642
 4.1896  23622.6  153.999
 4.2316  23788.5  154.361
 4.2736  24301.8  155.815
 4.3156  24329.1  156.14
 4.3576  25102.1  158.491
 4.3996  25303.1  159.402
 4.4416  26037.8  161.287
 4.4836  26868.7  163.992
 4.5256  27137.9  165.433
 4.5676  26637.1  164.154
 4.6096  27353.5  164.996
 4.6516  27640.9  165.555
 4.6936  27725.6  166.652
 4.7356  28493.4  168.754
 4.7776  27894.9  166.802
 4.8196  27591.1  166.537
 4.8616  27015.5  164.278
 4.9036  26976.2  163.895
 4.9456  27045.5  164.769
 4.9876  26086.8  161.714
 5.0296  26499.9  162.837
 5.0716  26224.7  162.749
 5.1136  26360.2  162.882
 5.1556  26650.7  163.232
 5.1976  32536.6  180.325
 5.2396  27428  165.28
 5.2816  27195.2  165.05
 5.3236  27369.9  165.268
 5.3656  26876.6  164.709
 5.4076  26644.8  164.14
 5.4496  26479.8  163.129
 5.4916  26918.4  164.225
 5.5336  26749.9  163.716
 5.5756  26638.9  163.384
 5.6176  26742.4  163.153
 5.6596  26891.4  164.588
 5.7016  27058.2  164.36
 5.7436  27222.8  165.139
 5.7856  27111.4  164.865
 5.8276  27380.8  165.393
 5.8696  27555.5  166.096
 5.9116  27415.4  166.277
 5.9536  27992.4  167.757
 5.9956  28133  167.566
 6.0376  28047.1  167.929
 6.0796  28255.7  168.385
 6.1216  28114.5  168.161
 6.1636  28793.8  169.224
 6.2056  28448.4  168.884
 6.2476  28564.5  169.105
 6.2896  28946.2  169.907
 6.3316  29004.6  170.253
 6.3736  28921.2  169.9
 6.4156  29118.9  170.359
 6.4576  29056.4  169.808
 6.4996  29063.4  170.302
 6.5416  29302  171.127
 6.5836  29276.3  171.29
 6.6256  29350.5  171.068
 6.6676  29918.3  172.271
 6.7096  29969.1  173.29
 6.7516  29942  172.871
 6.7936  30857.4  174.897
 6.8356  31208.6  175.982
 6.8776  30832.9  175.724
 6.9196  30567  175.365
 6.9616  31065  176.22
 7.0036  31483.8  177.067
 7.0456  31538.4  176.522
 7.0876  31440.6  177.928
 7.1296  31237.8  176.491
 7.1716  31348.2  176.35
 7.2136  31342.6  176.105
 7.2556  31417.4  176.472
 7.2976  31678.1  177.697
 7.3396  31216.9  176.617
 7.3816  31271.2  176.993
 7.4236  31524.4  177.004
 7.4656  31633.2  176.766
 7.5076  32212  178.533
 7.5496  31878  178.15
 7.5916  31999.7  178.528
 7.6336  32702.3  180.363
 7.6756  32409.2  179.4
 7.7176  33012  181.376
 7.7596  32682.7  181.697
 7.8016  37195.6  196.204
 7.8436  33023.9  181.542
 7.8856  33273  181.838
 7.9276  33930.5  184.032
 7.9696  34120.7  184.841
 8.0116  34858.3  185.385
 8.0536  35256.2  186.688
 8.0956  37121.4  192.755
 8.1376  35571.6  188.176
 8.1796  35713  189.067
 8.2216  36552.7  190.043
 8.2636  37202.1  191.973
 8.3056  36627.6  191.261
 8.3476  38304  194.896
 8.3896  37310.4  192.428
 8.4316  37254.6  192.453
 8.4736  37118.6  191.577
 8.5156  36915.6  191.326
 8.5576  36508.7  191.216
 8.5996  36606.4  190.368
 8.6416  36368.3  190.986
 8.6836  36275.8  190.6
 8.7256  36942.3  191.768
 8.7676  38496.5  198.764
 8.8096  39041.2  197.403
 8.8516  37175.6  192.182
 8.8936  38367.6  195.204
 8.9356  37153.3  192.423
 8.9776  36705.6  191.342
 9.0196  36868.3  191.435
 9.0616  36696.6  190.491
 9.1036  38072.9  195.228
 9.1456  35976.4  189.118
 9.1876  36014.3  189.151
 9.2296  35647.8  187.632
 9.2716  34994.9  185.941
 9.3136  35398.7  187.001
 9.3556  35673.1  187.712
 9.3976  34712.9  185.674
 9.4396  34450.9  184.879
 9.4816  34382.6  184.55
 9.5236  34297.6  184.227
 9.5656  33626.2  182.766
 9.6076  33393.3  182.663
 9.6496  33638.5  183.194
 9.6916  33189.9  181.925
 9.7336  33449.5  182.428
 9.7756  33188.6  182.973
 9.8176  32982.8  181.877
 9.8596  33077.2  180.595
 9.9016  32584.8  179.227
 9.9436  32538.3  179.016
 9.9856  32533.4  179.28
 10.0276  31648.1  177.897
 10.0696  31922.2  177.695
 10.1116  31250.8  176.083
 10.1536  30895.1  175.228
 10.1956  30685.2  174.255
 10.2376  30409.1  172.983
 10.2796  30280.9  172.717
 10.3216  30036.3  172.308
 10.3636  30066.3  172.419
 10.4056  31722.3  177.516
 10.4476  32698.8  179.835
 10.4896  34849.1  185.036
 10.5316  32039.5  178.197
 10.5736  29689.1  171.948
 10.6156  29614.8  171.491
 10.6576  33993.8  182.152
 10.6996  29219.3  169.599
 10.7416  28484.3  167.668
 10.7836  29152.6  170.321
 10.8256  27381.1  165.492
 10.8676  27578.3  165.622
 10.9096  27466.4  165.338
 10.9516  27022.4  162.926
 10.9936  27826  165.559
 11.0356  27260.8  164.471
 11.0776  28192.6  166.568
 11.1196  27535.1  165.399
 11.1616  26311.4  161.34
 11.2036  27232.9  163.998
 11.2456  28447.2  168.349
 11.2876  26479.6  162.152
 11.3296  26407.2  161.838
 11.3716  26746.6  162.574
 11.4136  26249.4  161.934
 11.4556  26264.2  161.652
 11.4976  27654.7  164.831
 11.5396  27597.3  164.823
 11.5816  26515.6  162.017
 11.6236  25788.1  159.996
 11.6656  25915.9  159.549
 11.7076  25066.9  157.744
 11.7496  25303.9  162.497
 11.7916  25421.6  158.101
 11.8336  24581.6  156.365
 11.8756  25037.2  157.349
 11.9176  24664.8  155.839
 11.9596  24533.3  155.604
 12.0016  24292.9  155.604
 12.0436  24432  155.499
 12.0856  23956.7  154.482
 12.1276  23915  154.295
 12.1696  24064.3  153.893
 12.2116  24250.3  154.49
 12.2536  25955.8  160.681
 12.2956  23951.5  153.688
 12.3376  24363.2  155.216
 12.3796  23838.9  154.017
 12.4216  24094.7  154.038
 12.4636  24589.9  156.562
 12.5056  23875.5  153.531
 12.5476  23940.9  153.26
 12.5896  23581.1  152.74
 12.6316  23677.9  153.211
 12.6736  23360.3  152.663
 12.7156  24116.8  154.944
 12.7576  23554.8  153.393
 12.7996  23929.5  153.239
 12.8416  23940  154.333
 12.8836  24485  155.905
 12.9256  24457.1  154.842
 12.9676  24223.7  154.502
 13.0096  24254  155.722
 13.0516  24196.5  154.571
 13.0936  24462.4  155.83
 13.1356  24497.8  154.895
 13.1776  24237.4  155.09
 13.2196  24159.2  154.481
 13.2616  24101.9  154.614
 13.3036  24038.5  154.374
 13.3456  23857.7  154.142
 13.3876  24677.9  156.039
 13.4296  24335  155.115
 13.4716  24398  154.943
 13.5136  24420.7  155.143
 13.5556  24262  155.263
 13.5976  24367.2  155.776
 13.6396  24534.5  155.664
 13.6816  24492.8  156.003
 13.7236  25047.7  157.322
 13.7656  26488.5  162.246
 13.8076  27710.6  164.578
 13.8496  26689  162.179
 13.8916  24723.5  157.259
 13.9336  23901.3  153.896
 13.9756  24081.7  153.857
 14.0176  23621.6  153.051
 14.0596  24577.5  156.051
 14.1016  23684.5  153.611
 14.1436  23581.7  152.407
 14.1856  23269.6  151.684
 14.2276  23305  152.288
 14.2696  23380.3  152.386
 14.3116  22435.2  149.185
 14.3536  22160.1  148.429
 14.3956  22239.7  148.412
 14.4376  22521  149.145
 14.4796  22279.6  148.342
 14.5216  22058.9  148.393
 14.5636  22602.3  149.768
 14.6056  22185.3  147.951
 14.6476  21869.9  146.131
 14.6896  21440.3  145.232
 14.7316  21182.6  145.388
 14.7736  21108.8  144.272
 14.8156  20975.7  143.85
 14.8576  20881.6  143.381
 14.8996  20708.2  143.979
 14.9416  20203  142.227
 14.9836  20139.4  141.992
 15.0256  19680.9  139.278
 15.0676  19529.7  139.051
 15.1096  19367.2  138.215
 15.1516  19100.4  137.798
 15.1936  18980.5  136.811
 15.2356  18928.3  136.899
 15.2776  18915.6  136.446
 15.3196  18543.3  136.08
 15.3616  18593.6  136.03
 15.4036  18485  135.491
 15.4456  18712.3  135.968
 15.4876  18436.2  134.647
 15.5296  18297.5  134.409
 15.5716  17935.5  132.697
 15.6136  17650.4  131.949
 15.6556  19049  136.309
 15.6976  17965.9  132.663
 15.7396  17707.3  132.106
 15.7816  17813.9  132.009
 15.8236  17167.9  130.277
 15.8656  17359.5  130.796
 15.9076  17311.6  130.441
 15.9496  18467.5  137.587
 15.9916  17638.3  134.86
 16.0336  17715.9  132.032
 16.0756  17579.6  131.862
 16.1176  17268  130.756
 16.1596  16938.7  130.679
 16.2016  16948.8  129.486
 16.2436  16930.5  129.79
 16.2856  16900.2  129.199
 16.3276  16522.4  128.179
 16.3696  16801  129.077
 16.4116  16499.7  128.349
 16.4536  16630.2  128.669
 16.4956  17118  130.268
 16.5376  16527.4  128.197
 16.5796  16518.7  127.531
 16.6216  16372.4  127.237
 16.6636  16379.1  127.45
 16.7056  16264.4  126.856
 16.7476  16306.1  126.549
 16.7896  16353.5  127.481
 16.8316  16288.2  127.204
 16.8736  16761  129.284
 16.9156  16487.6  128.569
 16.9576  16103.8  127.829
 16.9996  16337.5  129.223
 17.0416  16274.6  127.351
 17.0836  16300.6  127.217
 17.1256  16013.2  126.098
 17.1676  16587.8  128.304
 17.2096  16184.7  126.622
 17.2516  15887.8  125.251
 17.2936  15631.9  124.585
 17.3356  15664.1  124.709
 17.3776  15618.2  124.707
 17.4196  15470  123.805
 17.4616  15537.7  123.99
 17.5036  15847.8  125.579
 17.5456  15183.6  123.553
 17.5876  15192.8  122.655
 17.6296  15174.3  122.411
 17.6716  15454.3  124.115
 17.7136  16070.8  126.693
 17.7556  15069.4  122.982
 17.7976  15243.2  123.425
 17.8396  15054.1  122.162
 17.8816  14831.9  121.811
 17.9236  14823  121.565
 17.9656  14911.6  122.463
 18.0076  15436.2  124.191
 18.0496  15490.9  123.522
 18.0916  19514.6  139.236
 18.1336  16931.7  129.835
 18.1756  15393.5  123.331
 18.2176  15784.6  125.112
 18.2596  14718.3  120.535
 18.3016  15316.9  123.229
 18.3436  15514.9  124.017
 18.3856  14982.3  122.009
 18.4276  14707.5  120.575
 18.4696  14869.2  121.324
 18.5116  14919.8  121.81
 18.5536  14529.2  120.573
 18.5956  14645.1  120.599
 18.6376  14672.9  121.118
 18.6796  14439.4  119.46
 18.7216  14642.1  120.792
 18.7636  14471.5  120.095
 18.8056  14068.8  118.335
 18.8476  13968.2  118.546
 18.8896  14129.7  118.562
 18.9316  14327  119.372
 18.9736  14079.1  118.026
 19.0156  14344.7  119.554
 19.0576  14393.9  118.591
 19.0996  14261.8  118.768
 19.1416  14208.4  118.94
 19.1836  13965.5  117.524
 19.2256  13820.5  117.142
 19.2676  14005.3  118.001
 19.3096  13973.1  118.12
 19.3516  14026.9  118.3
 19.3936  14003.1  118.088
 19.4356  14086.3  118.319
 19.4776  14023  118.156
 19.5196  13890.8  117.45
 19.5616  13907.3  117.771
 19.6036  13699  116.398
 19.6456  14023.2  117.874
 19.6876  14392  119.036
 19.7296  13985.4  117.819
 19.7716  13732.1  116.91
 19.8136  14241.2  119.259
 19.8556  14266.5  118.849
 19.8976  14433.8  119.602
 19.9396  14325.6  118.738
 19.9816  14471.4  119.593
 20.0236  15065.2  122.219
 20.0656  14297  119.068
 20.1076  14066.4  118.57
 20.1496  13863.1  117.704
 20.1916  14008.5  117.845
 20.2336  13740.3  116.628
 20.2756  13499.3  116.038
 20.3176  13393.4  115.331
 20.3596  13340.4  115.088
 20.4016  13467.4  115.433
 20.4436  13434.6  115.852
 20.4856  13357.1  115.315
 20.5276  13293.9  115.5
 20.5696  13391.9  115.378
 20.6116  13216.4  114.89
 20.6536  13149.2  114.118
 20.6956  13187.4  114.409
 20.7376  13022.3  113.901
 20.7796  13025.8  113.619
 20.8216  13090.6  113.61
 20.8636  13488.4  115.703
 20.9056  13769.7  116.837
 20.9476  13264.7  114.522
 20.9896  13968.4  117.385
 21.0316  13243.3  114.196
 21.0736  13140.5  114.271
 21.1156  13492.8  115.952
 21.1576  13259.4  114.976
 21.1996  13020.7  113.933
 21.2416  13090  114.063
 21.2836  13077.5  113.975
 21.3256  13183.8  114.525
 21.3676  13207.8  114.148
 21.4096  13395.5  115.288
 21.4516  13017.1  113.515
 21.4936  12625.3  112.059
 21.5356  12805.2  112.808
 21.5776  12983.9  113.415
 21.6196  13083.6  113.9
 21.6616  12933.5  113.329
 21.7036  12882.1  112.864
 21.7456  12748.7  112.367
 21.7876  12616.3  111.536
 21.8296  12530.9  111.005
 21.8716  12738.6  112.148
 21.9136  12877.4  112.959
 21.9556  12894.3  112.715
 21.9976  12550.4  111.231
 22.0396  12623.6  111.806
 22.0816  12602.7  112.239
 22.1236  13024.1  113.551
 22.1656  12732.6  112.422
 22.2076  12420.6  110.49
 22.2496  12611.5  111.358
 22.2916  12538.2  110.929
 22.3336  12396.8  111.009
 22.3756  12491.2  111.162
 22.4176  12372.7  110.478
 22.4596  12081.4  109.765
 22.5016  12476.3  111.042
 22.5436  12430  110.717
 22.5856  12693.5  112.126
 22.6276  12644.6  112.035
 22.6696  12472.5  111.635
 22.7116  12343.2  110.562
 22.7536  12323.3  110.455
 22.7956  12457.2  110.382
 22.8376  12171.6  109.638
 22.8796  12150.9  109.341
 22.9216  12320.9  110.652
 22.9636  12178.2  109.164
 23.0056  12386.6  110.231
 23.0476  12407.4  110.891
 23.0896  12793.3  111.975
 23.1316  12697.4  111.992
 23.1736  12533.7  114.201
 23.2156  12565.8  111.751
 23.2576  12854.4  113.154
 23.2996  12360.9  110.749
 23.3416  12649.5  112.547
 23.3836  12574.3  111.453
 23.4256  12766.4  112.417
 23.4676  12658  111.635
 23.5096  12650.6  112.262
 23.5516  12665.9  111.628
 23.5936  12611.1  112.302
 23.6356  12774.5  112.689
 23.6776  12390  111.192
 23.7196  12500.9  111.258
 23.7616  12529.8  111.314
 23.8036  12805.8  112.578
 23.8456  12484.3  110.719
 23.8876  12433.5  110.84
 23.9296  12304.1  110.744
 23.9716  12459.7  110.652
 24.0136  12522.2  111.837
 24.0556  12283  110.479
 24.0976  12234.4  110.079
 24.1396  11993.9  111.589
 24.1816  12250.5  111.179
 24.2236  12080.8  110.015
 24.2656  12354  110.729
 24.3076  12090.6  109.813
 24.3496  12120  109.815
 24.3916  12203.3  110.254
 24.4336  12101.1  109.995
 24.4756  12183.5  110.252
 24.5176  11825.8  108.255
 24.5596  11842.3  108.442
 24.6016  11682.8  107.995
 24.6436  12086.6  109.365
 24.6856  11847.6  108.021
 24.7276  11752.1  107.904
 24.7696  11893.2  108.656
 24.8116  11663.5  107.785
 24.8536  11823.4  108.527
 24.8956  11613.5  107.29
 24.9376  11788.1  108.018
 24.9796  11654.7  107.776
 25.0216  11513.9  107.229
 25.0636  11609  107.328
 25.1056  11255.5  106.381
 25.1476  11347.4  108.438
 25.1896  11332.1  106.888
 25.2316  11272.7  105.897
 25.2736  11167.2  105.036
 25.3156  11140.7  104.989
 25.3576  11116.2  105.308
 25.3996  11189.9  105.649
 25.4416  11123.2  105.3
 25.4836  10928.2  104.892
 25.5256  11134.3  105.237
 25.5676  11195.2  105.25
 25.6096  11032.3  105.064
 25.6516  11074.3  104.756
 25.6936  11150.8  105.441
 25.7356  10941.2  104.583
 25.7776  11072.4  104.809
 25.8196  10820  103.843
 25.8616  10953.4  104.411
 25.9036  11293.5  105.461
 25.9456  10965.3  104.516
 25.9876  10792.2  103.754
 26.0296  11098.7  104.726
 26.0716  10979.1  104.594
 26.1136  11194.2  105.55
 26.1556  11141.6  104.683
 26.1976  10799  103.97
 26.2396  10921.4  103.722
 26.2816  10887.4  104.165
 26.3236  11102.1  105.342
 26.3656  11057  104.856
 26.4076  10791.2  103.787
 26.4496  10974  104.258
 26.4916  11125.5  104.856
 26.5336  11456.9  106.762
 26.5756  11821.6  108.331
 26.6176  11143.1  105.187
 26.6596  10930.3  104.494
 26.7016  10788.5  103.563
 26.7436  10760.7  103.574
 26.7856  10545.4  102.516
 26.8276  10563.1  102.571
 26.8696  10636.5  102.798
 26.9116  10640.5  102.758
 26.9536  10502.4  102.131
 26.9956  10540.5  102.354
 27.0376  10690.7  103.305
 27.0796  10503.1  102.113
 27.1216  10669.1  102.988
 27.1636  10432.4  102.005
 27.2056  10440.1  101.93
 27.2476  10582.4  102.608
 27.2896  10306.1  101.376
 27.3316  10507.4  102.081
 27.3736  10204.6  100.868
 27.4156  10373.8  101.54
 27.4576  10445.8  102.113
 27.4996  10512  102.036
 27.5416  10372.6  101.655
 27.5836  10336.9  101.33
 27.6256  10362.9  101.635
 27.6676  10174.2  100.699
 27.7096  10375.3  101.566
 27.7516  10623.5  102.925
 27.7936  10883.5  104.341
 27.8356  10652.6  102.807
 27.8776  10594.7  102.606
 27.9196  10296.7  101.011
 27.9616  10493  102.173
 28.0036  10354.6  101.442
 28.0456  10117.2  100.425
 28.0876  10171.3  100.778
 28.1296  10141.3  100.468
 28.1716  10315.6  101.346
 28.2136  10154.8  100.513
 28.2556  10093.8  100.326
 28.2976  10095  100.329
 28.3396  10107.1  100.15
 28.3816  10124.4  100.24
 28.4236  10088.9  100.217
 28.4656  9865.34  99.1444
 28.5076  9828.69  98.6008
 28.5496  9935.79  99.3847
 28.5916  10003  99.5372
 28.6336  9997.6  99.8546
 28.6756  10009.5  99.1096
 28.7176  9973.99  99.4903
 28.7596  9790.35  98.4618
 28.8016  9820.85  98.6499
 28.8436  9818.01  98.8813
 28.8856  9864.13  98.9666
 28.9276  9894.71  99.3639
 28.9696  9710.69  98.0938
 29.0116  9674.5  98.0977
 29.0536  9645.2  98.1548
 29.0956  9886.41  99.0697
 29.1376  9827.74  98.7462
 29.1796  9665.6  97.9747
 29.2216  9641.48  97.6954
 29.2636  9733.94  98.2402
 29.3056  9645.24  97.5727
 29.3476  9658.64  98.163
 29.3896  9764.59  98.8261
 29.4316  9598.89  97.3121
 29.4736  9452.97  96.6382
 29.5156  9572.72  97.1574
 29.5576  9542.45  97.7383
 29.5996  9428.31  96.4258
 29.6416  9351.87  96.1395
 29.6836  9462.43  96.6472
 29.7256  9420.51  96.9927
 29.7676  9458.72  96.8572
 29.8096  9379.91  96.3903
 29.8516  9181.72  95.7022
 29.8936  9302.29  96.4113
 29.9356  9577.36  97.5822
 29.9776  9357.04  96.6014
 30.0196  9418.51  96.3071
 30.0616  9493.52  97.0701
 30.1036  9345.12  96.1277
 30.1456  9284.76  96.0612
 30.1876  9289.6  96.0529
 30.2296  9236.9  95.7416
 30.2716  9411.37  96.2737
 30.3136  9394.71  97.0414
 30.3556  9541.85  97.8046
 30.3976  9516.44  99.173
 30.4396  9816.31  98.0486
 30.4816  9603.17  96.5879
 30.5236  9528.89  96.2019
 30.5656  9449.74  96.4538
 30.6076  9587.28  96.5785
 30.6496  9624.95  97.177
 30.6916  9406.05  96.164
 30.7336  9642.2  97.5057
 30.7756  9489.67  96.8041
 30.8176  9384.19  96.1926
 30.8596  9419.97  96.1338
 30.9016  9541.7  97.1193
 30.9436  9502.39  96.66
 30.9856  9540.16  96.9671
 31.0276  9377.13  95.7685
 31.0696  9348.11  96.1781
 31.1116  9241.48  95.6003
 31.1536  9457.78  96.5679
 31.1956  9458.41  96.6841
 31.2376  9140.08  95.0724
 31.2796  9258.59  95.2158
 31.3216  9393.94  95.8364
 31.3636  9356.62  96.3327
 31.4056  9237.27  97.0487
 31.4476  9345.55  95.488
 31.4896  9277.14  95.641
 31.5316  9425.39  95.7971
 31.5736  9943  98.2215
 31.6156  9497.09  95.9996
 31.6576  9569.72  96.4541
 31.6996  9614.07  96.3285
 31.7416  9427.16  96.4883
 31.7836  9454.44  95.6267
 31.8256  9459.28  95.9167
 31.8676  9486.94  96.0436
 31.9096  9261.65  95.2726
 31.9516  9157.02  94.8939
 31.9936  9188.38  94.8737
 32.0356  9356.23  95.7815
 32.0776  9226.53  95.0132
 32.1196  9522  96.638
 32.1616  9232.66  94.6087
 32.2036  9296.14  95.4476
 32.2456  9408.09  96.4049
 32.2876  9310.19  95.3908
 32.3296  9160.83  94.5721
 32.3716  9007.13  93.9089
 32.4136  8988.4  94.0211
 32.4556  9190.5  94.4439
 32.4976  9116.96  93.9882
 32.5396  9012.56  93.5091
 32.5816  9032.83  93.7336
 32.6236  9101.09  94.152
 32.6656  9152.31  94.9689
 32.7076  8950.4  93.5633
 32.7496  8983.81  93.4161
 32.7916  8986.09  93.3884
 32.8336  8913.51  93.098
 32.8756  9071.67  93.6462
 32.9176  8933.94  93.4198
 32.9596  8964.26  93.6508
 33.0016  8903.67  93.1091
 33.0436  9012.42  93.8566
 33.0856  8937.77  93.5526
 33.1276  8841.29  92.7681
 33.1696  8929.58  93.077
 33.2116  8933.7  93.318
 33.2536  9136.24  94.365
 33.2956  8905.59  93.2629
 33.3376  8880.15  92.8636
 33.3796  8984.67  93.6236
 33.4216  8914.9  92.8475
 33.4636  8881.63  92.8286
 33.5056  8763.93  92.4512
 33.5476  8918.6  93.2448
 33.5896  8842.13  92.6372
 33.6316  8840.96  92.9434
 33.6736  8607.52  91.9565
 33.7156  8740.56  92.6971
 33.7576  8879.82  93.0692
 33.7996  8846.43  92.6565
 33.8416  8602.05  91.55
 33.8836  8733.42  92.0231
 33.9256  8786.91  92.3628
 33.9676  8836.76  92.5166
 34.0096  8664.59  91.9247
 34.0516  8583.5  91.1289
 34.0936  8539.82  91.1708
 34.1356  8794.78  92.2627
 34.1776  8583.94  91.1447
 34.2196  8595.53  91.3903
 34.2616  8541.12  91.2364
 34.3036  8612.72  91.8636
 34.3456  8608.66  91.5966
 34.3876  8671.74  91.9031
 34.4296  8571.57  91.0622
 34.4716  8691.35  91.8464
 34.5136  8617.31  91.6464
 34.5556  8494.31  91.2495
 34.5976  8652.44  91.9064
 34.6396  8559.23  91.1188
 34.6816  8613.22  91.5126
 34.7236  8603.92  91.2424
 34.7656  8663.14  91.7675
 34.8076  8417.49  90.7846
 34.8496  8399.07  90.5354
 34.8916  8572.73  91.3222
 34.9336  8611.44  91.5136
 34.9756  8696.83  91.8895
 35.0176  8520.94  91.4835
 35.0596  8640.87  91.9428
 35.1016  8660.83  91.8043
 35.1436  8756.56  91.999
 35.1856  8607.19  91.3272
 35.2276  8607.39  91.5082
 35.2696  8494.85  91.0941
 35.3116  8450.51  90.9632
 35.3536  8494.1  90.9025
 35.3956  8482.19  90.549
 35.4376  8529.64  91.3628
 35.4796  8557.53  91.5605
 35.5216  8527.66  91.3666
 35.5636  8277.5  90.7514
 35.6056  8406.62  90.4762
 35.6476  8443.54  90.5754
 35.6896  8538.82  91.1718
 35.7316  8396.79  90.3892
 35.7736  8401.65  90.6027
 35.8156  8471.36  90.9819
 35.8576  8431.66  91.0147
 35.8996  8445.08  91.0625
 35.9416  8376.6  90.1848
 35.9836  8416.28  90.7514
 36.0256  8622.86  91.8755
 36.0676  8507.8  91.0097
 36.1096  8380.41  90.4759
 36.1516  8577.1  91.4184
 36.1936  8483.79  90.7657
 36.2356  8438.65  91.1749
 36.2776  8375.29  90.3185
 36.3196  8296.5  89.5478
 36.3616  8386.89  90.1693
 36.4036  8380.33  90.2001
 36.4456  8335.06  90.1617
 36.4876  8220.77  89.4845
 36.5296  8355.48  90.2573
 36.5716  8332.99  90.8998
 36.6136  8321.7  89.6342
 36.6556  8241.22  89.4027
 36.6976  8037.14  88.7737
 36.7396  8043.62  88.539
 36.7816  8168.46  89.6004
 36.8236  8138.69  89.3525
 36.8656  8013.85  88.7395
 36.9076  8013.32  88.6133
 36.9496  7950.29  88.2651
 36.9916  8045.01  88.4146
 37.0336  8204.95  89.6088
 37.0756  8136.12  89.0225
 37.1176  7896.2  87.9644
 37.1596  8008.35  88.5868
 37.2016  8170.63  89.7121
 37.2436  8179.05  89.0743
 37.2856  8086.37  88.8212
 37.3276  8005.6  87.7379
 37.3696  8032.53  88.7578
 37.4116  8050.01  88.7711
 37.4536  7943.38  88.0413
 37.4956  7869.45  87.6869
 37.5376  8151.17  90.8237
 37.5796  8136.17  90.6649
 37.6216  8068.15  88.5679
 37.6636  8174.25  89.0341
 37.7056  8180.97  89.2657
 37.7476  8243.14  89.138
 37.7896  8008.78  88.3737
 37.8316  8000.92  88.4696
 37.8736  8023.45  88.1389
 37.9156  8073.55  88.4028
 37.9576  8157.08  88.7738
 37.9996  7892.6  87.037
 38.0416  8073.05  88.8337
 38.0836  8102.33  88.891
 38.1256  8111.7  88.923
 38.1676  8073.12  88.8318
 38.2096  8153.44  88.8826
 38.2516  8179.96  89.2536
 38.2936  8166.23  88.9556
 38.3356  8002.45  88.0076
 38.3776  8078.87  88.6834
 38.4196  8058.55  88.4175
 38.4616  8052.87  88.6332
 38.5036  8109.73  88.7849
 38.5456  7919.92  88.5543
 38.5876  7903.71  88.4856
 38.6296  7983.16  87.8958
 38.6716  7966.4  87.608
 38.7136  7858.72  86.9624
 38.7556  7951.91  87.9825
 38.7976  8103.93  88.7287
 38.8396  7969.1  88.4685
 38.8816  7940.52  88.1013
 38.9236  7966.79  88.0479
 38.9656  7925.02  87.7229
 39.0076  8132.07  88.2636
 39.0496  8109.59  88.7
 39.0916  8066.36  88.1026
 39.1336  8075.87  88.5604
 39.1756  7872.48  87.5065
 39.2176  7929.88  88.3533
 39.2596  8033.03  88.847
 39.3016  8069.58  88.6392
 39.3436  7934.06  88.2946
 39.3856  8015.35  88.196
 39.4276  8062.59  88.9708
 39.4696  7992.13  88.1943
 39.5116  7995.15  88.7315
 39.5536  8057.53  89.5076
 39.5956  8048.79  88.55
 39.6376  7906.57  87.7743
 39.6796  7954.07  87.7785
 39.7216  7850.97  87.3087
 39.7636  8038.97  88.8932
 39.8056  8002.79  88.5014
 39.8476  7886.58  88.1076
 39.8896  8011.13  88.4299
 39.9316  7850.4  87.7801
 39.9736  7973.95  88.0421
 40.0156  7960.97  87.8027
 40.0576  7823.98  87.3898
 40.0996  8062.33  87.8959
 40.1416  7962.92  88.1489
 40.1836  7918.57  87.796
 40.2256  7932.99  87.8996
 40.2676  7947.65  88.0908
 40.3096  7930.8  87.9313
 40.3516  8005.15  88.4518
 40.3936  7975.36  87.8347
 40.4356  7882.02  87.5276
 40.4776  8034.68  88.7797
 40.5196  8063.22  89.0647
 40.5616  8030.64  88.5256
 40.6036  7917.95  88.1611
 40.6456  7952.46  87.9683
 40.6876  8054.71  88.5163
 40.7296  7891  87.7361
 40.7716  7968.16  88.2938
 40.8136  7780.93  87.186
 40.8556  8085.02  89.0128
 40.8976  7957.68  88.2343
 40.9396  8000.79  88.8301
 40.9816  7902.8  87.5665
 41.0236  7990.73  87.846
 41.0656  8090.35  88.9184
 41.1076  7920.28  87.7603
 41.1496  8020.34  88.2057
 41.1916  7950.74  88.1463
 41.2336  7879.19  87.7572
 41.2756  7987.28  87.9593
 41.3176  7910.79  88.1453
 41.3596  7956.66  88.1355
 41.4016  7883.71  87.9866
 41.4436  8039.65  88.6379
 41.4856  7896.66  88.0139
 41.5276  8004.91  88.6257
 41.5696  7898.32  87.66
 41.6116  8072.69  89.0243
 41.6536  8002.2  88.4876
 41.6956  8118.85  89.1943
 41.7376  7951.39  88.2955
 41.7796  7848.71  87.6099
 41.8216  7955.48  88.4238
 41.8636  7894.18  88.0323
 41.9056  7901.15  87.8674
 41.9476  7825.3  87.6772
 41.9896  8064.49  88.6716
 42.0316  7894.6  87.8182
 42.0736  8024.1  88.6397
 42.1156  7920.77  87.8965
 42.1576  7923.79  88.0253
 42.1996  7993.09  88.5341
 42.2416  8009.87  88.2199
 42.2836  7926.68  87.8781
 42.3256  7892.43  87.7956
 42.3676  7956.3  87.9403
 42.4096  7931.46  87.7832
 42.4516  7940.74  87.9017
 42.4936  7865.6  87.5728
 42.5356  7850.8  87.6269
 42.5776  7886.9  87.7662
 42.6196  8030.64  88.6107
 42.6616  7790.35  87.4539
 42.7036  7905.32  87.4735
 42.7456  7954.71  88.1023
 42.7876  7909.82  87.9446
 42.8296  7879.11  87.621
 42.8716  7716.52  86.8753
 42.9136  7792.65  87.0887
 42.9556  7923.96  87.9524
 42.9976  7939.05  87.9967
 43.0396  7740.14  86.625
 43.0816  7797.03  87.325
 43.1236  7903.7  87.9708
 43.1656  7851.6  87.5113
 43.2076  7776.88  87.1982
 43.2496  7869.91  87.5344
 43.2916  7850.71  87.7899
 43.3336  7800.06  87.3442
 43.3756  7852.87  87.3941
 43.4176  7705.29  86.6447
 43.4596  7713.18  86.5447
 43.5016  7822.31  87.5541
 43.5436  7852.8  87.6439
 43.5856  7635.42  86.452
 43.6276  7753.95  87.0044
 43.6696  7741.28  87.1958
 43.7116  7803.54  87.0398
 43.7536  7884.76  87.987
 43.7956  7657.41  87.9293
 43.8376  7764.89  87.0438
 43.8796  7534.05  85.8246
 43.9216  7597  86.0956
 43.9636  7712.86  86.8705
 44.0056  7537.65  86.0979
 44.0476  7581.4  85.9866
 44.0896  7555.07  86.1751
 44.1316  7713.78  86.5957
 44.1736  7513.53  85.5896
 44.2156  7576.29  85.7831
 44.2576  7526.01  85.835
 44.2996  7664.88  86.5902
 44.3416  7583.24  85.8984
 44.3836  7430.14  85.3449
 44.4256  7441.76  85.0651
 44.4676  7536.03  85.7545
 44.5096  7547.62  85.9655
 44.5516  7522.59  85.7893
 44.5936  7314.61  84.5476
 44.6356  7611.98  85.9842
 44.6776  7540.32  85.891
 44.7196  7526.67  86.1304
 44.7616  7493.03  87.2527
 44.8036  7529.75  85.9045
 44.8456  7609.77  86.5667
 44.8876  7548.58  86.062
 44.9296  7743.03  86.6061
 44.9716  7707.93  86.8304
 45.0136  7753.28  87.038
 45.0556  7736.09  86.9149
 45.0976  7681.6  86.7598
 45.1396  7632.07  86.2449
 45.1816  7562.9  85.789
 45.2236  7633.06  86.0905
 45.2656  7454.08  85.5729
 45.3076  7598.4  86.1737
 45.3496  7527.48  86.0822
 45.3916  7516.29  86.2907
 45.4336  7670.54  87.0052
 45.4756  7620.81  86.5732
 45.5176  7675.02  86.5017
 45.5596  7712.99  86.8385
 45.6016  7493.13  86.0151
 45.6436  7502.17  85.2367
 45.6856  7598.94  86.455
 45.7276  7430.97  86.7915
 45.7696  7526.49  87.0255
 45.8116  7495.8  86.2671
 45.8536  7385.7  85.5281
 45.8956  7533.75  85.7364
 45.9376  7596.98  85.5535
 45.9796  7465.75  85.4909
 46.0216  7564.68  86.3992
 46.0636  7599.79  85.7203
 46.1056  7542.49  85.4062
 46.1476  7564.99  86.128
 46.1896  7673.18  86.8969
 46.2316  7450.38  85.4804
 46.2736  7375.3  85.4321
 46.3156  7530.13  85.9072
 46.3576  7505.07  85.9661
 46.3996  7564.07  86.4654
 46.4416  7474.84  85.5207
 46.4836  7390.65  85.4053
 46.5256  7558.79  86.3077
 46.5676  7460.76  85.8621
 46.6096  7618.97  86.6924
 46.6516  7544.45  85.3087
 46.6936  7602.71  86.1376
 46.7356  7601.5  86.2271
 46.7776  7454.63  86.2546
 46.8196  7419.51  85.6396
 46.8616  7348.8  85.1843
 46.9036  7354.58  84.8704
 46.9456  7472.62  85.1921
 46.9876  7497.39  85.4047
 47.0296  7508.71  86.1818
 47.0716  7266.35  84.5946
 47.1136  7440.61  85.2809
 47.1556  7434.04  85.1053
 47.1976  7521.33  85.6844
 47.2396  7437.55  85.6105
 47.2816  7344.87  84.7701
 47.3236  7417.07  85.565
 47.3656  7320.88  84.9336
 47.4076  7379.88  85.0867
 47.4496  7349.15  84.9954
 47.4916  7330.06  85.0798
 47.5336  7477.24  85.7371
 47.5756  7395.24  85.3906
 47.6176  7436.1  85.5278
 47.6596  7339.91  84.6761
 47.7016  7529.49  85.5729
 47.7436  7412.83  85.2485
 47.7856  7454.1  85.5128
 47.8276  7340.05  84.9125
 47.8696  7369.6  85.169
 47.9116  7383.17  84.9561
 47.9536  7425.88  85.1458
 47.9956  7310.43  85.1917
 48.0376  7300.86  84.9025
 48.0796  7423.47  85.7496
 48.1216  7357.61  85.1838
 48.1636  7453.44  85.3037
 48.2056  7374.9  85.1226
 48.2476  7540.94  86.3927
 48.2896  7429.38  85.6553
 48.3316  7338.3  85.0754
 48.3736  7444.06  85.705
 48.4156  7431.32  85.4849
 48.4576  7350.64  85.3116
 48.4996  7468.26  85.4338
 48.5416  7549.82  86.2386
 48.5836  7348.81  84.7553
 48.6256  7423.94  85.3929
 48.6676  7381.73  85.6751
 48.7096  7452.24  85.3396
 48.7516  7312.11  84.6852
 48.7936  7326.29  84.8295
 48.8356  7384.05  85.2143
 48.8776  7412.66  85.9592
 48.9196  7488.27  85.7543
 48.9616  7264.94  84.8456
 49.0036  7408.84  86.0444
 49.0456  7273.72  85.2374
 49.0876  7355.4  85.2461
 49.1296  7263.56  84.8652
 49.1716  7300.37  84.9575
 49.2136  7456.85  85.7824
 49.2556  7366.49  85.2869
 49.2976  7391.25  85.509
 49.3396  7291.41  84.9801
 49.3816  7352.82  84.7585
 49.4236  7414.44  85.5446
 49.4656  7247.66  84.6039
 49.5076  7387.6  85.1523
 49.5496  7283.9  84.6205
 49.5916  7414.69  85.2922
 49.6336  7355.55  85.1606
 49.6756  7392.03  85.605
 49.7176  7287.34  84.9403
 49.7596  7247.32  84.4763
 49.8016  7438.19  85.5012
 49.8436  7253.83  84.7326
 49.8856  7304.68  85.0303
 49.9276  7301.04  85.1011
 49.9696  7284.96  85.0038
 50.0116  7261.35  84.9998
 50.0536  7283.02  85.0716
 50.0956  7223.15  84.7911
 50.1376  7348.66  85.2145
 50.1796  7155.67  84.3631
 50.2216  7245.99  84.8838
 50.2636  7291.02  84.7572
 50.3056  7171.54  84.2388
 50.3476  7265.51  84.8151
 50.3896  7208.68  84.4522
 50.4316  7306.16  84.8516
 50.4736  7137.56  84.0885
 50.5156  7232.5  84.6428
 50.5576  7267.59  84.595
 50.5996  7286.39  84.9945
 50.6416  7161.34  84.1924
 50.6836  7272.57  84.8915
 50.7256  7322.35  85.0976
 50.7676  7242.52  84.963
 50.8096  7249.86  84.5438
 50.8516  7154.99  84.4138
 50.8936  7096.39  83.8458
 50.9356  7269.34  84.9676
 50.9776  7234.34  84.9276
 51.0196  7185.39  84.7639
 51.0616  7143.13  83.8199
 51.1036  7056.26  83.6773
 51.1456  7225.49  84.5789
 51.1876  7113.31  83.2485
 51.2296  7002.22  83.2395
 51.2716  7009.93  82.9984
 51.3136  7067.6  83.7993
 51.3556  7035.43  83.2274
 51.3976  6988.25  83.0981
 51.4396  6830.21  82.4649
 51.4816  6951.89  83.0475
 51.5236  7073.11  83.8464
 51.5656  7063.93  83.3892
 51.6076  6992.82  83.0497
 51.6496  7032.64  83.4913
 51.6916  6973.91  83.4912
 51.7336  6881.95  83.046
 51.7756  6862.91  82.6134
 51.8176  6954.22  83.2759
 51.8596  6971.89  83.3986
 51.9016  7043.63  83.4247
 51.9436  7070.02  85.103
 51.9856  7093.68  85.6529
 52.0276  7120.14  84.2834
 52.0696  7119.21  84.3493
 52.1116  6973.57  83.6111
 52.1536  7189.09  84.7687
 52.1956  7080.62  83.5875
 52.2376  7071.96  83.7027
 52.2796  7065.23  83.4787
 52.3216  6963.12  83.5702
 52.3636  7059.06  83.6977
 52.4056  6986.15  83.1281
 52.4476  6968.86  83.3964
 52.4896  6877.14  82.872
 52.5316  7156.99  84.6223
 52.5736  6942.86  83.0443
 52.6156  7092.41  84.3505
 52.6576  6944.02  82.8837
 52.6996  6738.85  82.6439
 52.7416  6953.08  83.8082
 52.7836  6933.28  83.5729
 52.8256  7028.01  83.3386
 52.8676  6907.77  83.2011
 52.9096  6979.76  83.6926
 52.9516  6990.95  84.1566
 52.9936  6950.87  84.3054
 53.0356  6986.53  83.4967
 53.0776  6999.95  83.8488
 53.1196  7008.93  84.033
 53.1616  6953.53  83.7497
 53.2036  6981.32  83.8774
 53.2456  7034.78  84.3065
 53.2876  6971.7  83.6109
 53.3296  6934.96  83.7193
 53.3716  7077.24  84.3254
 53.4136  7031.43  84.2051
 53.4556  6914.1  83.5202
 53.4976  6962.49  83.646
 53.5396  6897.22  83.6683
 53.5816  6870.48  83.1349
 53.6236  6814.9  83.1511
 53.6656  6982.69  83.7696
 53.7076  6927.01  83.3928
 53.7496  7030.55  84.1426
 53.7916  6995.84  84.078
 53.8336  6885.39  83.2963
 53.8756  6802.41  83.3544
 53.9176  6861.35  83.0369
 53.9596  6668.47  82.6435
 54.0016  6617.1  81.6436
 54.0436  6594.28  81.7454
 54.0856  6737  82.0268
 54.1276  6708.91  82.0608
 54.1696  6644.04  81.8154
 54.2116  6787.94  82.4546
 54.2536  6739.87  81.9613
 54.2956  6739.73  82.0262
 54.3376  6630.43  81.8357
 54.3796  6509.29  80.9847
 54.4216  6789.06  82.7792
 54.4636  6631.16  81.7625
 54.5056  6698.21  81.9639
 54.5476  6581.3  81.6092
 54.5896  6625.92  81.7188
 54.6316  6621.94  81.5357
 54.6736  6609.18  81.53
 54.7156  6593.44  81.4717
 54.7576  6532.01  81.0634
 54.7996  6568.25  81.4372
 54.8416  6578.63  81.5673
 54.8836  6566.89  81.5657
 54.9256  6499.4  80.934
 54.9676  6460.68  80.5505
 55.0096  6586.79  81.3764
 55.0516  6436.19  80.6841
 55.0936  6663.13  81.7357
 55.1356  6477.11  80.6202
 55.1776  6715.48  82.3422
 55.2196  6529.74  80.9915
 55.2616  6622.94  81.7902
 55.3036  6470.6  81.0142
 55.3456  6431.81  80.9204
 55.3876  6572.31  81.5076
 55.4296  6410.6  80.5023
 55.4716  6449.66  80.7749
 55.5136  6501.6  80.8557
 55.5556  6645.47  81.8012
 55.5976  6432.13  80.5621
 55.6396  6574.51  81.3871
 55.6816  6463.82  80.542
 55.7236  6411.84  80.3111
 55.7656  6437.31  80.165
 55.8076  6368.12  79.7487
 55.8496  6426.94  80.4442
 55.8916  6349.14  80.1388
 55.9336  6591.68  81.4918
 55.9756  6290.86  79.492
 56.0176  6457.23  80.6964
 56.0596  6377.37  80.1807
 56.1016  6327.16  79.8945
 56.1436  6336.96  80.2095
 56.1856  6293.96  79.6768
 56.2276  6540.01  81.2752
 56.2696  6444.03  80.6448
 56.3116  6481  81.2595
 56.3536  6302.9  79.8094
 56.3956  6349.77  80.0731
 56.4376  6359.15  80.1996
 56.4796  6261.75  79.3847
 56.5216  6319.07  80.1172
 56.5636  6308.23  79.6373
 56.6056  6431.83  80.6419
 56.6476  6317.23  79.5446
 56.6896  6543  81.4116
 56.7316  6292.18  79.7523
 56.7736  6372.18  80.263
 56.8156  6346.6  80.1141
 56.8576  6187.95  79.0321
 56.8996  6228.37  79.2158
 56.9416  6222.87  79.4824
 56.9836  6384.2  80.0397
 57.0256  6231.28  79.3621
 57.0676  6422.1  80.7034
 57.1096  6299.11  79.6949
 57.1516  6177.54  78.9813
 57.1936  6258.43  79.2505
 57.2356  6218.86  79.3418
 57.2776  6243.49  79.4667
 57.3196  6295.85  80.1547
 57.3616  6207.46  79.0691
 57.4036  6315.99  79.8324
 57.4456  6372.56  80.1516
 57.4876  6319.45  79.684
 57.5296  6185.32  79.1757
 57.5716  6226.92  79.4315
 57.6136  6174.29  78.9359
 57.6556  6153.37  78.9239
 57.6976  6200.82  79.0604
 57.7396  6167.24  79.1922
 57.7816  6144.68  79.4219
 57.8236  6172.58  79.3795
 57.8656  6034.66  78.1735
 57.9076  6219.9  79.3873
 57.9496  6162.03  79.3653
 57.9916  6234.45  79.3317
 58.0336  6189.58  79.3367
 58.0756  6259.6  79.4128
 58.1176  6176.49  78.8848
 58.1596  6087.86  78.8948
 58.2016  6051.41  77.8904
 58.2436  6068.31  78.3999
 58.2856  5901.42  77.2469
 58.3276  5914.94  77.6974
 58.3696  5965.25  77.7739
 58.4116  6022.85  78.0204
 58.4536  5948.43  77.4172
 58.4956  5940.97  77.553
 58.5376  6082.96  78.0395
 58.5796  5968.83  77.7344
 58.6216  6004.6  77.7848
 58.6636  5948.79  77.6327
 58.7056  5973.22  77.6431
 58.7476  5841.14  77.2202
 58.7896  5924.04  77.4136
 58.8316  5995.57  77.8694
 58.8736  5976.86  77.7623
 58.9156  5952.76  77.6463
 58.9576  5957.83  78.0012
 58.9996  6051.7  77.8568
 59.0416  6059.45  78.2828
 59.0836  6024.01  77.9642
 59.1256  5879.97  77.7197
 59.1676  5939.55  78.4237
 59.2096  5912.13  77.5692
 59.2516  6138.83  78.6199
 59.2936  5989.92  77.9873
 59.3356  5853.46  76.9735
 59.3776  5902.06  77.4594
 59.4196  5886.47  77.2943
 59.4616  5895.33  77.2136
 59.5036  5852.34  76.9661
 59.5456  6074.98  78.1091
 59.5876  5911.41  77.2395
 59.6296  6059.3  78.2691
 59.6716  5831.91  76.8433
 59.7136  5990.85  77.8717
 59.7556  6014.32  78.1603
 59.7976  5905.37  77.1941
 59.8396  5847.82  76.713
 59.8816  5955.83  77.9576
 59.9236  5870.02  77.0449
 59.9656  5881.18  77.3752
 60.0076  5924.84  77.0254
 60.0496  5945.12  77.6567
 60.0916  6200.09  78.7153
 60.1336  5798.29  77.2071
 60.1756  5834.71  78.6135
 60.1996  0.0000000E+00  0.0000000E+00