File: docs/examples/XRD/IS17_D/Data/IS17_D/17_Da_f00012.xye
# /beamlines/bl04/projects/cycle2025-II/20250340211-lsimonelli/DATA/IS17_D/17_Da_f00012.xye : mythproc.py merge -s 0.006 -l 0.5 -f /beamlines/bl04/inhouse/ff/FlatField/ff_20Nov2024rod8mm60s_17keV.raw -b True -c true -o xye /beamlines/bl04/projects/cycle2025-II/20250340211-lsimonelli/DATA/IS17_D/17_Da_00012.dat
# IsMon = [6747368, 6743040, 6751474]  IsPos = [-1.5000, -2.4885, -3.4986]
# Wave = 0.4962  CalPath /beamlines/bl04/projects/cycle2025-II/20250340211-lsimonelli/DATA/Align/Si_Pos1_25keV_f00001.cal
# Date = 2025-09-23_20:53:11 Dt = 4.8000  Bin = 0.0060  <imon> = 6747294 +/- 3444 (Min/Max) 6743040 / 6751474
# icurr 249.4061  mocoIn 1.7020E-05  mocoOut 0.7983  i15 7.0585e+06  imon 6.74729e+06  i7 5.0000  iEMpd_timer 4.8000  iEMpd_1 3.5374E-08  iEMpd_2 7.9415E-08  iEMpd_3 1.7656E-08  iEMpd_4 4.8714E-08  iEMhp_timer 4.8000  iEMhp_1 4.8733E-06  iEMhp_2 -2.4778E-08  iEMhp_3 -2.3100E-08  iEMhp_4 -2.1397E-08
#      9776
 1.5856  37314.5  198.354
 1.6276  43953.2  211.582
 1.6696  50805.5  226.676
 1.7116  60029.9  246.878
 1.7536  69145.1  263.83
 1.7956  74103  273.808
 1.8376  70213  266.947
 1.8796  58668.4  242.228
 1.9216  46912.3  217.46
 1.9636  39147.5  198.336
 2.0056  35163.9  186.773
 2.0476  32510.8  181.558
 2.0896  31178.1  176.755
 2.1316  30305.2  173.425
 2.1736  28940.4  170.82
 2.2156  29338  170.609
 2.2576  28238.9  167.984
 2.2996  27109.1  165.192
 2.3416  27627  165.429
 2.3836  26902.2  163.348
 2.4256  26346.1  162.177
 2.4676  26369.7  162.02
 2.5096  27082.2  164.248
 2.5516  37737  198.298
 2.5936  174171  417.643
 2.6356  32079.2  179.991
 2.6776  25652.8  159.863
 2.7196  24482.3  156.674
 2.7616  23967.3  154.806
 2.8036  23466.1  153.342
 2.8456  23468.7  153.94
 2.8876  23212.4  152.954
 2.9296  22488.5  150.692
 2.9716  22405.4  149.931
 3.0136  22111.2  149.007
 3.0556  22305.9  150.043
 3.0976  22100.3  148.323
 3.1396  21751.5  147.846
 3.1816  21607.9  147.286
 3.2236  21398.9  146.572
 3.2656  21569.2  146.243
 3.3076  21330.8  146.807
 3.3496  21625.2  147.038
 3.3916  22192.2  148.546
 3.4336  22521.1  150.198
 3.4756  22855  151.23
 3.5176  23881.3  154.395
 3.5596  23496.4  155.999
 3.6016  23572.4  153.427
 3.6436  22966.7  152.514
 3.6856  22580.7  149.581
 3.7276  21571.3  147.247
 3.7696  21456.7  146.83
 3.8116  20987.6  145.306
 3.8536  21089.4  145.584
 3.8956  21097.8  145.459
 3.9376  22026.4  148.894
 3.9796  21083.7  145.181
 4.0216  21162.8  144.537
 4.0636  21061.3  145.595
 4.1056  20991.5  145.019
 4.1476  21282.3  146.313
 4.1896  21548.4  147.09
 4.2316  21749  147.593
 4.2736  22087.6  148.545
 4.3156  22335.2  149.586
 4.3576  23112.4  152.108
 4.3996  23378.6  153.035
 4.4416  24164.6  155.379
 4.4836  25677.5  160.333
 4.5256  25188.2  159.38
 4.5676  24837.5  158.516
 4.6096  25198.5  158.713
 4.6516  26002.6  160.589
 4.6936  26103.1  161.677
 4.7356  27037.8  164.391
 4.7776  26293  161.949
 4.8196  25819  161.103
 4.8616  25362.4  159.308
 4.9036  25217.6  158.47
 4.9456  25287.8  159.328
 4.9876  24586.3  157.009
 5.0296  24573.6  156.791
 5.0716  24517.9  157.227
 5.1136  24504.1  157.038
 5.1556  25134.2  158.525
 5.1976  36348  190.618
 5.2396  25892.7  160.599
 5.2816  25217.3  158.932
 5.3236  25282  158.852
 5.3656  24797.1  158.208
 5.4076  24450.3  157.244
 5.4496  24842  157.999
 5.4916  24700.8  157.317
 5.5336  24687.7  157.282
 5.5756  24602.7  157.039
 5.6176  24651  156.651
 5.6596  24819  157.977
 5.7016  24894.3  157.655
 5.7436  25009.8  158.281
 5.7856  25013.4  158.35
 5.8276  25261.3  158.867
 5.8696  25410.2  159.39
 5.9116  25321.2  159.761
 5.9536  25632.9  160.538
 5.9956  25972.9  160.988
 6.0376  25957  161.554
 6.0796  26167.2  162.045
 6.1216  26253.5  162.506
 6.1636  26586.4  162.627
 6.2056  26596.3  163.303
 6.2476  26698.9  163.316
 6.2896  27000.8  164.105
 6.3316  26760.7  163.54
 6.3736  27183.8  164.723
 6.4156  26863.1  163.709
 6.4576  27398.4  164.892
 6.4996  27523.8  165.737
 6.5416  27419.9  165.554
 6.5836  28027.8  167.608
 6.6256  27854.7  166.663
 6.6676  27971.5  166.595
 6.7096  27924.8  167.276
 6.7516  28164.7  167.662
 6.7936  29926.3  172.01
 6.8356  30694.6  174.535
 6.8776  29747.7  172.612
 6.9196  29049.9  170.961
 6.9616  29609.4  172.03
 7.0036  30080.7  173.084
 7.0456  29939.4  171.989
 7.0876  29875.7  173.366
 7.1296  29859.7  172.566
 7.1716  29717.9  171.694
 7.2136  29276.6  170.218
 7.2556  29662.8  171.495
 7.2976  29698.6  172.076
 7.3396  29898.2  172.875
 7.3816  29784.1  172.741
 7.4236  29906.5  172.408
 7.4656  30201.1  172.754
 7.5076  30627.3  174.101
 7.5496  30273.2  173.6
 7.5916  30380.1  173.946
 7.6336  31212.5  176.216
 7.6756  31035.4  175.57
 7.7176  31244.6  176.473
 7.7596  31418.7  178.174
 7.8016  38295.5  199.048
 7.8436  32601.5  180.382
 7.8856  32332.8  179.265
 7.9276  32943.5  181.309
 7.9696  33223.6  182.404
 8.0116  34368  184.424
 8.0536  34899.9  185.754
 8.0956  37592.2  193.995
 8.1376  35112.7  186.964
 8.1796  35179.4  187.693
 8.2216  36314.8  189.429
 8.2636  37067.4  191.627
 8.3056  36097.9  189.846
 8.3476  38773.1  196.094
 8.3896  37544.4  193.468
 8.4316  36847.2  191.405
 8.4736  36425  189.772
 8.5156  36189.4  189.439
 8.5576  36012.9  189.953
 8.5996  35731.7  188.08
 8.6416  35679.5  189.2
 8.6836  35638.6  188.89
 8.7256  36819.2  191.48
 8.7676  39368  200.95
 8.8096  39639.7  198.855
 8.8516  36213.8  189.727
 8.8936  38079.2  194.372
 8.9356  35445.6  187.879
 8.9776  35409.9  187.885
 9.0196  35015.8  186.513
 9.0616  35747.3  187.929
 9.1036  37738.3  194.309
 9.1456  35199.1  187.004
 9.1876  34725.7  185.706
 9.2296  34430.7  184.331
 9.2716  33653.8  182.303
 9.3136  33336.9  181.421
 9.3556  34447.3  184.402
 9.3976  32272.4  179.008
 9.4396  33174  181.372
 9.4816  32511.6  179.434
 9.5236  32374.6  178.956
 9.5656  32292.8  179.04
 9.6076  31854.2  178.324
 9.6496  31956.8  178.552
 9.6916  31755.3  177.954
 9.7336  31946.6  178.281
 9.7756  31869.7  179.269
 9.8176  31058.6  176.559
 9.8596  31149.9  175.313
 9.9016  30788  174.285
 9.9436  30903  174.373
 9.9856  30984  174.97
 10.0276  29748.8  172.515
 10.0696  30310.5  173.208
 10.1116  29771.2  171.912
 10.1536  29186.6  169.891
 10.1956  28712.5  168.601
 10.2376  28305.7  166.914
 10.2796  28352.5  167.187
 10.3216  28359.7  167.34
 10.3636  28317.8  167.375
 10.4056  32996.5  181.096
 10.4476  33388.2  181.767
 10.4896  38446.6  194.429
 10.5316  34266.3  183.953
 10.5736  28496.4  168.496
 10.6156  27890.2  166.453
 10.6576  34652.9  183.978
 10.6996  27920.4  165.801
 10.7416  26985.3  163.236
 10.7836  28388.5  168.104
 10.8256  26369.8  162.423
 10.8676  26529.5  162.474
 10.9096  26309  161.812
 10.9516  25843  159.343
 10.9936  27035.6  163.16
 11.0356  26602.8  162.493
 11.0776  28603.9  167.783
 11.1196  28256.9  167.535
 11.1616  26015.2  160.456
 11.2036  27531.3  164.905
 11.2456  29184.2  170.539
 11.2876  25329.6  158.596
 11.3296  25460.6  158.911
 11.3716  26014.1  160.345
 11.4136  25294.3  158.967
 11.4556  25591.3  159.556
 11.4976  27275.2  163.691
 11.5396  27481.2  164.489
 11.5816  25109.1  157.657
 11.6236  24489.6  156.131
 11.6656  24439.7  154.946
 11.7076  23827  153.8
 11.7496  24478.2  159.727
 11.7916  25031.4  156.909
 11.8336  23732.2  153.671
 11.8756  24139.8  154.499
 11.9176  23731.2  153.095
 11.9596  23218.4  151.374
 12.0016  23083.7  151.698
 12.0436  23224  151.598
 12.0856  22736.1  150.506
 12.1276  22870.2  150.874
 12.1696  23024  150.536
 12.2116  23846.3  153.195
 12.2536  25983.1  160.74
 12.2956  23786.4  153.167
 12.3376  23208.8  151.498
 12.3796  23104.8  151.607
 12.4216  23470  152.034
 12.4636  24544  156.382
 12.5056  23035.6  150.792
 12.5476  22888  149.86
 12.5896  22793.9  150.168
 12.6316  22261.7  148.553
 12.6736  22770.8  150.555
 12.7156  22882.4  150.949
 12.7576  22587.5  150.214
 12.7996  23187.2  150.863
 12.8416  23174.7  151.857
 12.8836  24187  154.956
 12.9256  23584.3  152.053
 12.9676  23566.2  152.414
 13.0096  23024.5  151.711
 13.0516  23321.7  151.752
 13.0936  23163.6  151.355
 13.1356  23621.3  152.125
 13.1776  23461.8  152.571
 13.2196  23258.6  151.584
 13.2616  23108.2  151.39
 13.3036  23025.6  151.252
 13.3456  23054.5  151.324
 13.3876  23449.2  152.129
 13.4296  23365.6  152.006
 13.4716  23668.7  152.603
 13.5136  23498.7  152.211
 13.5556  23608.3  153.174
 13.5976  23395.5  152.618
 13.6396  23818.4  153.367
 13.6816  23004.1  151.074
 13.7236  24215.9  154.767
 13.7656  23655.7  153.502
 13.8076  24440.6  154.818
 13.8496  23631.3  153.003
 13.8916  23253.1  152.571
 13.9336  23025.4  151.073
 13.9756  23033.5  150.474
 14.0176  23076  151.272
 14.0596  24109.1  154.582
 14.1016  22951.7  151.22
 14.1436  22070.2  147.444
 14.1856  22329.8  148.599
 14.2276  22455.7  149.49
 14.2696  22671.8  150.052
 14.3116  21938.7  147.507
 14.3536  21343.2  145.672
 14.3956  21467.9  145.844
 14.4376  21604.9  146.078
 14.4796  21424.1  145.456
 14.5216  21039.6  144.918
 14.5636  21723.6  146.825
 14.6056  21107.2  144.311
 14.6476  20932.4  142.975
 14.6896  20515.7  142.065
 14.7316  20339.9  142.449
 14.7736  20016.2  140.506
 14.8156  19946.4  140.277
 14.8576  20046  140.48
 14.8996  19853.3  140.983
 14.9416  19304.4  139.018
 14.9836  19465.7  139.545
 15.0256  19333.7  138.048
 15.0676  19128.9  137.622
 15.1096  18894.3  136.52
 15.1516  18797.1  136.724
 15.1936  18870.4  136.419
 15.2356  18843.2  136.594
 15.2776  18669.9  135.561
 15.3196  18415  135.612
 15.3616  18318.8  135.004
 15.4036  18004.3  133.714
 15.4456  18608.3  135.356
 15.4876  18170.7  133.678
 15.5296  17699.2  132.217
 15.5716  17541.7  131.235
 15.6136  17629.5  131.889
 15.6556  20231.1  140.48
 15.6976  18129.5  133.061
 15.7396  17954.6  133.004
 15.7816  17671.9  131.484
 15.8236  17112.2  130.055
 15.8656  17023.1  129.526
 15.9076  17095.9  129.631
 15.9496  17517.5  133.989
 15.9916  16695.3  131.248
 16.0336  16525.7  127.529
 16.0756  16608.9  128.147
 16.1176  16295.9  126.846
 16.1596  16108.8  127.412
 16.2016  16287.6  126.89
 16.2436  15974.2  126.042
 16.2856  16199.3  126.483
 16.3276  15605.2  124.542
 16.3696  15757.9  124.979
 16.4116  15500.6  124.408
 16.4536  15890.3  125.739
 16.4956  16576.9  128.163
 16.5376  16093  126.458
 16.5796  15753  124.492
 16.6216  15586  124.132
 16.6636  15800.3  125.125
 16.7056  15704.4  124.623
 16.7476  15615.9  123.95
 16.7896  15443.7  123.859
 16.8316  15614.5  124.506
 16.8736  15927.7  126.005
 16.9156  15593.5  125.004
 16.9576  15313.3  124.68
 16.9996  15506.2  125.935
 17.0416  15314.4  123.574
 17.0836  15155.9  122.695
 17.1256  15102.4  122.488
 17.1676  15536.4  124.229
 17.2096  15413.8  123.618
 17.2516  15265.9  123.093
 17.2936  14714.5  120.883
 17.3356  14395.9  119.564
 17.3776  14517.9  120.262
 17.4196  14755.6  120.95
 17.4616  14843  121.223
 17.5036  15286.2  123.392
 17.5456  14334.8  120.106
 17.5876  14287.2  118.981
 17.6296  14381.6  119.172
 17.6716  14626.4  120.773
 17.7136  15225.1  123.353
 17.7556  14415.9  120.323
 17.7976  14576  120.609
 17.8396  14275.1  118.991
 17.8816  14081.1  118.717
 17.9236  13911  117.806
 17.9656  14301.4  120.119
 18.0076  14851.1  121.811
 18.0496  16041  125.706
 18.0916  21843.5  147.325
 18.1336  18938.7  137.311
 18.1756  15961.4  125.568
 18.2176  16500.3  127.904
 18.2596  14309.2  118.862
 18.3016  15186.5  122.701
 18.3436  15850.7  125.609
 18.3856  14493.2  120.006
 18.4276  14204.6  118.482
 18.4696  14476.4  119.701
 18.5116  14299.1  119.262
 18.5536  14086.3  118.713
 18.5956  14096  118.321
 18.6376  14375.8  119.905
 18.6796  13792.3  116.772
 18.7216  14164.8  118.897
 18.7636  13746.3  117.043
 18.8056  13413  115.559
 18.8476  13317.3  115.452
 18.8896  13303  115.042
 18.9316  13708.1  116.61
 18.9736  13442.5  115.334
 19.0156  14134.3  118.65
 19.0576  13865.1  116.414
 19.0996  13724  116.524
 19.1416  13505.9  115.975
 19.1836  13427.4  115.248
 19.2256  13177  114.369
 19.2676  13172.8  114.448
 19.3096  13325  115.345
 19.3516  13155  114.394
 19.3936  13511.3  116.074
 19.4356  13316.5  115.039
 19.4776  13347.1  115.271
 19.5196  13242.4  114.673
 19.5616  13315.5  115.241
 19.6036  13250.9  114.333
 19.6456  13554.2  115.894
 19.6876  14031  117.558
 19.7296  13312.7  114.942
 19.7716  13243.4  114.671
 19.8136  13554.8  116.357
 19.8556  14003  117.749
 19.8976  13997.9  117.793
 19.9396  13820.9  116.63
 19.9816  14086.3  117.977
 20.0236  14291.2  119.054
 20.0656  13537.6  115.868
 20.1076  13196.9  114.849
 20.1496  13049.2  114.209
 20.1916  13279  114.696
 20.2336  13181.8  114.256
 20.2756  12850.7  113.22
 20.3176  12863.5  113.033
 20.3596  12791.2  112.696
 20.4016  12952.4  113.212
 20.4436  12945.5  113.724
 20.4856  12647.9  112.204
 20.5276  12826.6  113.449
 20.5696  12650.7  112.241
 20.6116  12683.4  112.554
 20.6536  12553.8  111.564
 20.6956  12597.1  111.811
 20.7376  12657.9  112.31
 20.7796  12584.4  111.675
 20.8216  12721.4  111.996
 20.8636  12976.1  113.479
 20.9056  14484.1  119.835
 20.9476  13002.9  113.387
 20.9896  13962.9  117.363
 21.0316  12913.9  112.763
 21.0736  13159  114.352
 21.1156  13592.3  116.38
 21.1576  12762.2  112.818
 21.1996  12478.1  111.534
 21.2416  12417.4  111.099
 21.2836  12779.9  112.664
 21.3256  12457.3  111.322
 21.3676  12785.4  112.332
 21.4096  12960.4  113.467
 21.4516  12558.6  111.52
 21.4936  12393.9  111.028
 21.5356  12478.1  111.352
 21.5776  12533.1  111.438
 21.6196  12620.6  111.851
 21.6616  12673.7  112.18
 21.7036  12372.4  110.619
 21.7456  12216.6  109.997
 21.7876  12121.5  109.329
 21.8296  12049.7  108.864
 21.8716  12158.4  109.583
 21.9136  12421.5  110.95
 21.9556  12605.2  111.448
 21.9976  12268.4  109.956
 22.0396  12261.6  110.187
 22.0816  12273.3  110.76
 22.1236  12604.6  111.709
 22.1656  12317.7  110.606
 22.2076  12228.4  109.637
 22.2496  12360.6  110.268
 22.2916  12376.9  110.214
 22.3336  12409  111.051
 22.3756  12335.1  110.468
 22.4176  12084.7  109.198
 22.4596  11935.1  109.083
 22.5016  12320.4  110.317
 22.5436  12282.5  110.038
 22.5856  12327.2  110.494
 22.6276  12142.6  109.815
 22.6696  11960.2  109.313
 22.7116  11892.9  108.546
 22.7536  12156.9  109.709
 22.7956  12237  109.421
 22.8376  11979.8  108.753
 22.8796  12028.6  108.79
 22.9216  12193.1  110.06
 22.9636  12096.1  108.801
 23.0056  12089.7  108.904
 23.0476  12152  109.743
 23.0896  12396  110.22
 23.1316  12479.1  111.027
 23.1736  12028.2  111.893
 23.2156  12190  109.956
 23.2576  12031.4  109.442
 23.2996  12023.1  109.195
 23.3416  11954.5  109.393
 23.3836  12097.3  109.263
 23.4256  12014.8  109.036
 23.4676  12280.5  109.928
 23.5096  12129.2  109.915
 23.5516  11923.7  108.273
 23.5936  12202.4  110.417
 23.6356  12388.1  110.935
 23.6776  11931.4  109.406
 23.7196  11884.4  108.655
 23.7616  11997  108.883
 23.8036  11981.4  108.856
 23.8456  12020.1  108.603
 23.8876  11798.6  107.947
 23.9296  11855  108.687
 23.9716  11806.7  107.678
 24.0136  11947.5  109.199
 24.0556  11879.2  108.621
 24.0976  11725.3  107.733
 24.1396  11534.4  109.442
 24.1816  11723.4  109.119
 24.2236  11537.5  107.558
 24.2656  11842.4  108.447
 24.3076  11681.1  107.959
 24.3496  11995.4  109.294
 24.3916  11645.6  107.73
 24.4336  11723.9  108.299
 24.4756  11472.4  107.004
 24.5176  11268.1  105.704
 24.5596  11212.2  105.752
 24.6016  11062  105.134
 24.6436  11381.9  106.134
 24.6856  11424.3  106.103
 24.7276  11522.7  106.88
 24.7696  11375.2  106.299
 24.8116  11448.6  106.829
 24.8536  11133.3  105.335
 24.8956  11161.5  105.212
 24.9376  11243  105.758
 24.9796  11184.7  105.608
 25.0216  10996.3  104.821
 25.0636  11294.1  105.891
 25.1056  11053.6  105.185
 25.1476  10986.8  106.769
 25.1896  11031.7  105.481
 25.2316  10965  104.319
 25.2736  11027.2  104.394
 25.3156  10805  103.398
 25.3576  10819.8  103.894
 25.3996  10872.9  104.124
 25.4416  10844.2  103.974
 25.4836  10748.3  104.031
 25.5256  10768.5  103.502
 25.5676  10950.8  104.114
 25.6096  10669.7  103.323
 25.6516  10804.1  103.485
 25.6936  10641.6  103
 25.7356  10691.4  103.382
 25.7776  10780.3  103.486
 25.8196  10739  103.443
 25.8616  10744.1  103.382
 25.9036  10885.3  103.55
 25.9456  10663.4  103.082
 25.9876  10535.2  102.38
 26.0296  10606.4  102.467
 26.0716  10582.7  102.679
 26.1136  10960.5  104.443
 26.1556  10879.5  103.351
 26.1976  10449.6  102.282
 26.2396  10678.6  102.809
 26.2816  10602  102.789
 26.3236  10693.6  103.314
 26.3656  10511  102.229
 26.4076  10693  103.324
 26.4496  10908.7  103.876
 26.4916  10656.9  102.653
 26.5336  10624.5  102.819
 26.5756  10751  103.281
 26.6176  10746.9  103.323
 26.6596  10312.5  101.511
 26.7016  10423.2  101.862
 26.7436  10139.9  100.547
 26.7856  10113.3  100.402
 26.8276  10213.8  100.863
 26.8696  10231.1  100.82
 26.9116  10170.4  100.466
 26.9536  10135.4  100.332
 26.9956  10119.9  100.291
 27.0376  10075.9  100.274
 27.0796  10288.6  101.109
 27.1216  10216.8  100.789
 27.1636  10071.2  100.236
 27.2056  10124.4  100.382
 27.2476  10109.3  100.308
 27.2896  9915.14  99.3869
 27.3316  10013.5  99.6575
 27.3736  9953.17  99.6189
 27.4156  9871.88  99.0577
 27.4576  9992.24  99.8842
 27.4996  10093.9  99.9889
 27.5416  10018.4  99.9318
 27.5836  9942.87  99.3758
 27.6256  10301.7  101.313
 27.6676  10113  100.406
 27.7096  9996.68  99.6963
 27.7516  10746  103.511
 27.7936  10513.5  102.563
 27.8356  10352.1  101.392
 27.8776  10182.7  100.6
 27.9196  10145.3  100.268
 27.9616  10344.6  101.444
 28.0036  10110.7  100.265
 28.0456  9848.86  99.0839
 28.0876  9821.16  99.0329
 28.1296  9868.41  99.1119
 28.1716  9874.6  99.151
 28.2136  9799.42  98.7349
 28.2556  9754.61  98.625
 28.2976  9736.46  98.5309
 28.3396  9823.8  98.7704
 28.3816  9879.75  99.0286
 28.4236  10066.9  100.122
 28.4656  9578.05  97.695
 28.5076  9504.44  96.9544
 28.5496  9640.6  97.9119
 28.5916  9632.19  97.6803
 28.6336  9575.84  97.7258
 28.6756  9617.91  97.1583
 28.7176  9611.39  97.6655
 28.7596  9505.1  97.0246
 28.8016  9509.57  97.1634
 28.8436  9403.07  96.7711
 28.8856  9551.19  97.3832
 28.9276  9596.36  97.8504
 28.9696  9442.1  96.7345
 29.0116  9316.1  96.2533
 29.0536  9392.23  96.851
 29.0956  9545.79  97.3673
 29.1376  9572.24  97.4604
 29.1796  9334.95  96.2965
 29.2216  9246.5  95.6768
 29.2636  9345.56  96.1806
 29.3056  9321.71  95.937
 29.3476  9321.6  96.4479
 29.3896  9540.58  97.66
 29.4316  9558.87  97.1113
 29.4736  9408.14  96.3957
 29.5156  9393.77  96.2509
 29.5576  9352.27  96.7779
 29.5996  9379.02  96.176
 29.6416  9286.65  95.8231
 29.6836  9339.84  96.0213
 29.7256  9192.19  95.809
 29.7676  9394.97  96.5175
 29.8096  9419.87  96.5997
 29.8516  9151.61  95.5272
 29.8936  9363.32  96.7304
 29.9356  9220.53  95.7465
 29.9776  9294.87  96.2865
 30.0196  9507.37  96.7744
 30.0616  9462.22  96.9128
 30.1036  9198.97  95.3931
 30.1456  9172.14  95.4956
 30.1876  9120.86  95.192
 30.2296  9026.65  94.6308
 30.2716  9205.86  95.2188
 30.3136  9255.72  96.0546
 30.3556  9320.78  96.6704
 30.3976  9217.99  97.6513
 30.4396  9292.03  95.384
 30.4816  9172.55  94.3749
 30.5236  9201.99  94.5367
 30.5656  9131.45  94.8153
 30.6076  9210.44  95.0062
 30.6496  9267.79  95.3394
 30.6916  9006.79  94.0775
 30.7336  9015.89  94.2754
 30.7756  9126.34  95.1552
 30.8176  9013.92  94.274
 30.8596  8934.15  93.6262
 30.9016  8960.14  93.6456
 30.9436  9047.18  94.3127
 30.9856  9081.78  94.6053
 31.0276  9147.83  94.5556
 31.0696  8937.52  93.9013
 31.1116  9118.67  94.9515
 31.1536  9183.4  95.1701
 31.1956  8972.52  94.1591
 31.2376  8773.81  93.1138
 31.2796  8986.18  93.7864
 31.3216  8836.13  92.9438
 31.3636  8983.62  94.4157
 31.4056  8962.52  95.5985
 31.4476  8891.1  93.157
 31.4896  8865.28  93.5166
 31.5316  9096.24  94.1765
 31.5736  9771.06  97.3749
 31.6156  9521.61  96.1476
 31.6576  9059.46  93.88
 31.6996  9182.66  94.1881
 31.7416  9075.03  94.5451
 31.7836  8932.82  92.9713
 31.8256  8942.88  93.3708
 31.8676  9042.22  93.8042
 31.9096  8865.82  93.1091
 31.9516  8724.1  92.6417
 31.9936  8747.79  92.6059
 32.0356  8858.97  93.249
 32.0776  8963.94  93.6906
 32.1196  8819.7  92.9341
 32.1616  8896.02  92.889
 32.2036  8697  92.3324
 32.2456  8715.01  92.8094
 32.2876  8794.64  92.5814
 32.3296  8759.65  92.5216
 32.3716  8755.21  92.5936
 32.4136  8784.83  92.9471
 32.4556  8843.87  92.7112
 32.4976  8871.78  92.7456
 32.5396  8652  91.6232
 32.5816  8657.18  91.6575
 32.6236  8756.41  92.36
 32.6656  8836.98  93.3199
 32.7076  8653.66  92.0063
 32.7496  8662.25  91.732
 32.7916  8662.91  91.6848
 32.8336  8655.76  91.757
 32.8756  8731.62  91.9651
 32.9176  8675.58  92.047
 32.9596  8742.27  92.4737
 33.0016  8750.6  92.3251
 33.0436  8864.28  93.0806
 33.0856  8558.92  91.537
 33.1276  8621.95  91.6213
 33.1696  8592.38  91.3078
 33.2116  8611.77  91.6373
 33.2536  8553.24  91.319
 33.2956  8588.29  91.5882
 33.3376  8506.97  90.9583
 33.3796  8688.93  92.0732
 33.4216  8661.51  91.5238
 33.4636  8664.45  91.6836
 33.5056  8499.79  90.8862
 33.5476  8476.88  90.917
 33.5896  8641.94  91.5491
 33.6316  8329.21  90.2046
 33.6736  8261.94  90.0783
 33.7156  8397.41  90.8592
 33.7576  8561.67  91.3824
 33.7996  8629.42  91.5025
 33.8416  8307.96  89.965
 33.8836  8483.99  90.6946
 33.9256  8437.57  90.5076
 33.9676  8522.47  90.8597
 34.0096  8225.93  89.5711
 34.0516  8379.68  90.0509
 34.0936  8353.16  90.1611
 34.1356  8340.97  89.8448
 34.1776  8321.45  89.7544
 34.2196  8243.05  89.5057
 34.2616  8267.58  89.8319
 34.3036  8312.87  90.2579
 34.3456  8354.8  90.2474
 34.3876  8387.48  90.4741
 34.4296  8360.1  89.9285
 34.4716  8417.66  90.385
 34.5136  8465.41  90.8504
 34.5556  8344.41  90.4482
 34.5976  8382.63  90.4908
 34.6396  8388.12  90.1979
 34.6816  8279.75  89.7277
 34.7236  8336.03  89.824
 34.7656  8331.07  89.9842
 34.8076  8288.05  90.0715
 34.8496  8286.84  89.9255
 34.8916  8262.56  89.6718
 34.9336  8442.3  90.6043
 34.9756  8663.58  91.7014
 35.0176  8340.34  90.4901
 35.0596  8164.6  89.3625
 35.1016  8197.13  89.3219
 35.1436  8416.98  90.1976
 35.1856  8201.58  89.1586
 35.2276  8273.33  89.7259
 35.2696  8233.18  89.6925
 35.3116  8237.94  89.8143
 35.3536  8252.57  89.6354
 35.3956  8192.84  88.9948
 35.4376  8160.08  89.3627
 35.4796  8344.71  90.4268
 35.5216  8188.88  89.4608
 35.5636  8075.85  89.6472
 35.6056  8192.84  89.3266
 35.6476  8218.85  89.3649
 35.6896  8274.73  89.829
 35.7316  8138.39  88.9832
 35.7736  8077.09  88.8467
 35.8156  7998.23  88.4057
 35.8576  8159.29  89.5432
 35.8996  8253.52  90.017
 35.9416  8162.14  89.0264
 35.9836  8164.73  89.49
 36.0256  8215.24  89.6882
 36.0676  8275.85  89.5647
 36.1096  7984.94  88.3209
 36.1516  8131.79  89.0238
 36.1936  8113.69  88.778
 36.2356  8184.31  89.7914
 36.2776  8019.96  88.3633
 36.3196  8161.07  88.8258
 36.3616  8070.04  88.459
 36.4036  8014.18  88.2064
 36.4456  8032.07  88.5125
 36.4876  7925.27  87.8621
 36.5296  8070.08  88.6997
 36.5716  8176.45  90.0616
 36.6136  8364.15  89.8556
 36.6556  8407.27  90.2864
 36.6976  8116.12  89.2109
 36.7396  8135.22  89.1399
 36.7816  8136.71  89.4291
 36.8236  8081.48  89.0613
 36.8656  8032.92  88.8515
 36.9076  8038.51  88.8877
 36.9496  7881.37  88.026
 36.9916  8037.11  88.3713
 37.0336  8136.8  89.2275
 37.0756  8052.46  88.5662
 37.1176  7966.73  88.441
 37.1596  7949.92  88.2677
 37.2016  7889.27  88.1172
 37.2436  8097.22  88.6331
 37.2856  7839.15  87.464
 37.3276  8028.12  87.8619
 37.3696  7951.68  88.3229
 37.4116  7982.19  88.3788
 37.4536  7889.91  87.7509
 37.4956  7907.03  87.8721
 37.5376  7781.79  88.6884
 37.5796  7840.47  88.9988
 37.6216  7727.43  86.6481
 37.6636  7750.26  86.6804
 37.7056  7789.73  87.0886
 37.7476  7781.4  86.5879
 37.7896  7876.86  87.6071
 37.8316  7650.94  86.515
 37.8736  7756.98  86.636
 37.9156  7856.77  87.1999
 37.9576  7739.93  86.58
 37.9996  7673.23  85.79
 38.0416  7765.88  87.1051
 38.0836  8053.62  88.6068
 38.1256  7842.98  87.3977
 38.1676  7752.2  87.0249
 38.2096  7921.1  87.5986
 38.2516  7895.26  87.5589
 38.2936  7894.46  87.456
 38.3356  7944.31  87.6352
 38.3776  7730.45  86.7281
 38.4196  7823.89  87.1032
 38.4616  7861.97  87.5499
 38.5036  7846.31  87.3083
 38.5456  7648.4  87.0344
 38.5876  7714.82  87.45
 38.6296  7650.06  86.0818
 38.6716  7664.24  85.9556
 38.7136  7543.13  85.221
 38.7556  7666.47  86.4068
 38.7976  7695.39  86.5138
 38.8396  7593.46  86.3801
 38.8816  7627.56  86.3544
 38.9236  7632.24  86.1982
 38.9656  7640.1  86.1603
 39.0076  7672.24  85.7587
 39.0496  7707.85  86.479
 39.0916  7712.18  86.1661
 39.1336  7628.72  86.1011
 39.1756  7627.31  86.1551
 39.2176  7573.67  86.3821
 39.2596  7634.42  86.6452
 39.3016  7700.63  86.5979
 39.3436  7572.54  86.2929
 39.3856  7587.51  85.8363
 39.4276  7704.78  86.9847
 39.4696  7756.89  86.9073
 39.5116  7570.8  86.3584
 39.5536  7793.06  88.0327
 39.5956  7730.85  86.7974
 39.6376  7713.96  86.5371
 39.6796  7605.61  85.8471
 39.7216  7693.96  86.424
 39.7636  7621.5  86.583
 39.8056  7655.98  86.5553
 39.8476  7521.52  86.0463
 39.8896  7628.09  86.2871
 39.9316  7604.59  86.4021
 39.9736  7683.08  86.432
 40.0156  7626.28  85.9358
 40.0576  7733.23  86.8897
 40.0996  7699.09  85.8937
 40.1416  7704.86  86.7034
 40.1836  7759.85  86.9027
 40.2256  7635.76  86.2533
 40.2676  7703.5  86.7979
 40.3096  7841.59  87.437
 40.3516  7721.44  86.9548
 40.3936  7817.82  86.9774
 40.4356  7688.97  86.4536
 40.4776  7772.55  87.1597
 40.5196  7724.2  87.1755
 40.5616  7721.38  86.8102
 40.6036  7664.04  86.736
 40.6456  7728.6  86.709
 40.6876  7839.5  87.3205
 40.7296  7780.18  87.1288
 40.7716  7739.53  87.024
 40.8136  7620.24  86.305
 40.8556  7728.43  87.0349
 40.8976  7748.91  87.0691
 40.9396  7673.01  86.9909
 40.9816  7716.1  86.5285
 41.0236  7878.22  87.2132
 41.0656  7776.82  87.1877
 41.1076  7711.47  86.5959
 41.1496  7791.5  86.9551
 41.1916  7681.88  86.6663
 41.2336  7627.48  86.3373
 41.2756  7748.92  86.637
 41.3176  7692.64  86.9232
 41.3596  7763  87.0507
 41.4016  7656.42  86.7067
 41.4436  7780.96  87.1986
 41.4856  7703.25  86.9178
 41.5276  7728.08  87.0851
 41.5696  7779.49  86.9885
 41.6116  7586.92  86.3098
 41.6536  7802.39  87.3878
 41.6956  7859.19  87.6865
 41.7376  7742.18  87.1279
 41.7796  7610.25  86.3183
 41.8216  7658.92  86.7788
 41.8636  7720.77  87.0701
 41.9056  7674.32  86.5991
 41.9476  7613.54  86.4788
 41.9896  7647.56  86.3441
 42.0316  7744.13  86.9751
 42.0736  7703.29  86.8847
 42.1156  7561.4  85.8898
 42.1576  7663.54  86.5661
 42.1996  7664.28  86.713
 42.2416  7651.36  86.229
 42.2836  7758.46  86.9387
 42.3256  7503.98  85.615
 42.3676  7670.86  86.366
 42.4096  7814.7  87.133
 42.4516  7570.56  85.8526
 42.4936  7623.94  86.2206
 42.5356  7596.75  86.1979
 42.5776  7783.79  87.1927
 42.6196  7684.19  86.6099
 42.6616  7539.83  86.0357
 42.7036  7644.35  86.0232
 42.7456  7588.94  86.0596
 42.7876  7548.1  85.9274
 42.8296  7576.56  85.9834
 42.8716  7459.89  85.4116
 42.9136  7546.26  85.6635
 42.9556  7629.35  86.3073
 42.9976  7637.82  86.3236
 43.0396  7473.23  85.1178
 43.0816  7554.02  85.9374
 43.1236  7533.01  85.8882
 43.1656  7550.66  85.8223
 43.2076  7505.55  85.6579
 43.2496  7487.4  85.3764
 43.2916  7488.66  85.7465
 43.3336  7544.7  85.908
 43.3756  7528.93  85.5807
 43.4176  7395.86  84.897
 43.4596  7373.42  84.626
 43.5016  7448.99  85.4553
 43.5436  7447.04  85.3476
 43.5856  7442.95  85.3426
 43.6276  7409.07  85.0522
 43.6696  7442.14  85.3797
 43.7116  7576.38  85.766
 43.7536  7469.14  85.6413
 43.7956  7439.47  86.6251
 43.8376  7448.51  85.2654
 43.8796  7408.61  85.1077
 43.9216  7469.44  85.3761
 43.9636  7400.88  85.0754
 44.0056  7431.17  85.4918
 44.0476  7280.57  84.252
 44.0896  7300.32  84.711
 44.1316  7316.23  84.4866
 44.1736  7490.47  85.4593
 44.2156  7334.17  84.4271
 44.2576  7476.01  85.5544
 44.2996  7336.38  84.7298
 44.3416  7352.66  84.5715
 44.3836  7236.89  84.2352
 44.4256  7135.46  83.2854
 44.4676  7348.6  84.6848
 44.5096  7295.82  84.5214
 44.5516  7284.97  84.4242
 44.5936  7203.59  83.9052
 44.6356  7301.56  84.2143
 44.6776  7306.67  84.5677
 44.7196  7373.76  85.2103
 44.7616  7256.97  85.8807
 44.8036  7211.24  84.2453
 44.8456  7386.43  85.2647
 44.8876  7207.41  84.0766
 44.9296  7270.34  83.9071
 44.9716  7207.3  83.9679
 45.0136  7210.87  83.9164
 45.0556  7279.94  84.4004
 45.0976  7205.65  84.0245
 45.1396  7068.07  82.9847
 45.1816  7279.38  83.9764
 45.2236  7140.34  83.2458
 45.2656  7067.57  83.3043
 45.3076  7116.87  83.3973
 45.3496  7116.64  83.6802
 45.3916  7148.87  84.1327
 45.4336  7132.58  83.8857
 45.4756  7107.34  83.5951
 45.5176  7082.93  83.0792
 45.5596  7179.84  83.7601
 45.6016  7134.34  83.9087
 45.6436  7060.36  82.6702
 45.6856  7111.73  83.6156
 45.7276  7065.65  85.159
 45.7696  7195.75  85.0889
 45.8116  7202.84  84.6047
 45.8536  7028.2  83.4578
 45.8956  7189.39  83.7748
 45.9376  7097.53  82.7123
 45.9796  7162.22  83.7646
 46.0216  7165.66  84.1213
 46.0636  7244.3  83.7397
 46.1056  7033.86  82.4966
 46.1476  7171.38  83.8829
 46.1896  7170.1  84.0173
 46.2316  7045.09  83.1589
 46.2736  7026.85  83.2441
 46.3156  7070.96  83.2657
 46.3576  7085.29  83.5518
 46.3996  7046.44  83.479
 46.4416  7119.85  83.4805
 46.4836  7071.22  83.5521
 46.5256  7072.95  83.5063
 46.5676  6980.92  83.0724
 46.6096  7055.5  83.4544
 46.6516  7232.76  83.5483
 46.6936  7121.6  83.3835
 46.7356  7077.82  83.2332
 46.7776  6910.66  83.0513
 46.8196  6939.86  82.9794
 46.8616  6774.73  81.7746
 46.9036  6894.79  82.186
 46.9456  6906.62  81.8911
 46.9876  6933.66  82.1385
 47.0296  6903.54  82.6267
 47.0716  6924.58  82.5836
 47.1136  6925.26  82.2744
 47.1556  6899.51  81.9941
 47.1976  7002.62  82.7502
 47.2396  6934.27  82.661
 47.2816  6782.98  81.4715
 47.3236  6853.38  82.2466
 47.3656  6930.21  82.6492
 47.4076  6871.85  82.0259
 47.4496  6804.21  81.7796
 47.4916  6775.92  81.7983
 47.5336  6893.69  82.3283
 47.5756  6851.01  82.1418
 47.6176  6738.45  81.409
 47.6596  6818.19  81.6172
 47.7016  6932.17  82.1065
 47.7436  6939.58  82.4864
 47.7856  6923.15  82.4143
 47.8276  6734.21  81.3271
 47.8696  6843.77  82.0701
 47.9116  6982.84  82.6201
 47.9536  6825.23  81.6215
 47.9956  6692  81.5105
 48.0376  6739.08  81.5824
 48.0796  6930.41  82.8507
 48.1216  6895.37  82.4749
 48.1636  6894.94  82.0484
 48.2056  6865.68  82.1326
 48.2476  6801.91  82.0481
 48.2896  6775.88  81.7963
 48.3316  6801.33  81.8914
 48.3736  6734.51  81.5218
 48.4156  6740.31  81.4123
 48.4576  6784.47  81.9647
 48.4996  6852.25  81.8477
 48.5416  6791.38  81.7892
 48.5836  6714.69  81.0172
 48.6256  6793.08  81.6864
 48.6676  6851.53  82.5366
 48.7096  6809.55  81.5756
 48.7516  6721.01  81.1873
 48.7936  6602.56  80.5321
 48.8356  6766.69  81.5738
 48.8776  6870.9  82.6777
 48.9196  6870.49  82.1383
 48.9616  6733.64  81.6856
 49.0036  6785.89  82.3438
 49.0456  6702.19  81.8192
 49.0876  6784.06  81.9579
 49.1296  6666.89  81.3155
 49.1716  6656.78  81.1184
 49.2136  6811.52  81.9857
 49.2556  6738.62  81.566
 49.2976  6751.4  81.7212
 49.3396  6575.07  80.7027
 49.3816  6742.19  81.1664
 49.4236  6604.89  80.7474
 49.4656  6598.56  80.7257
 49.5076  6622.51  80.6281
 49.5496  6682.01  80.9344
 49.5916  6674.54  80.9177
 49.6336  6640.5  80.9062
 49.6756  6649.77  81.2002
 49.7176  6719.48  81.5623
 49.7596  6690.14  81.3318
 49.8016  6765.56  81.544
 49.8436  6630.12  81.006
 49.8856  6609.89  80.89
 49.9276  6582.35  80.8218
 49.9696  6704.17  81.5459
 50.0116  6591.33  80.9786
 50.0536  6596.49  80.961
 50.0956  6518.34  80.5537
 50.1376  6573.44  80.5902
 50.1796  6434.1  79.992
 50.2216  6519.19  80.5143
 50.2636  6570.27  80.4631
 50.3056  6340.41  79.2159
 50.3476  6605.16  80.8651
 50.3896  6509.91  80.2536
 50.4316  6597.74  80.6349
 50.4736  6448.52  79.9261
 50.5156  6571.2  80.6714
 50.5576  6481.48  79.896
 50.5996  6497.88  80.2655
 50.6416  6436.02  79.8148
 50.6836  6547.6  80.5585
 50.7256  6543.22  80.4639
 50.7676  6562.73  80.8562
 50.8096  6546.55  80.3313
 50.8516  6505.39  80.4915
 50.8936  6420.35  79.7465
 50.9356  6517.63  80.4558
 50.9776  6600.47  81.1091
 51.0196  6263.7  79.1458
 51.0616  6315.19  78.8276
 51.1036  6602.19  80.9413
 51.1456  6419.16  79.7332
 51.1876  6443.84  79.2404
 51.2296  6366.61  79.3762
 51.2716  6297.02  78.6511
 51.3136  6286.52  79.0327
 51.3556  6394.66  79.3325
 51.3976  6404.12  79.5523
 51.4396  6237.55  78.7993
 51.4816  6439.72  79.9313
 51.5236  6381.31  79.6534
 51.5656  6397.82  79.3632
 51.6076  6382.05  79.3557
 51.6496  6314.44  79.1025
 51.6916  6258.87  79.1132
 51.7336  6317.29  79.5515
 51.7756  6479.17  80.2812
 51.8176  6393.95  79.8308
 51.8596  6405.46  79.9388
 51.9016  6401.48  79.5309
 51.9436  6326.15  80.476
 51.9856  6284.07  80.6272
 52.0276  6292.42  79.2228
 52.0696  6331.05  79.5305
 52.1116  6392.56  80.0226
 52.1536  6270.63  79.1042
 52.1956  6388.23  79.3642
 52.2376  6381.1  79.4861
 52.2796  6340.56  79.056
 52.3216  6214.5  78.9367
 52.3636  6313.33  79.1488
 52.4056  6324.15  79.0743
 52.4476  6253.31  78.9875
 52.4896  6213.58  78.7872
 52.5316  6334.61  79.5933
 52.5736  6259.85  78.8439
 52.6156  6209.21  78.9055
 52.6576  6385.84  79.474
 52.6996  6081.57  78.4915
 52.7416  6220.86  79.2406
 52.7836  6381.15  80.1457
 52.8256  6294.94  78.8364
 52.8676  6036.47  77.7532
 52.9096  6348.57  79.8276
 52.9516  6235.77  79.4867
 52.9936  6182.5  79.5289
 53.0356  6141.55  78.3072
 53.0776  6177.62  78.8114
 53.1196  6148.15  78.722
 53.1616  6107.14  78.5096
 53.2036  5917.28  77.2273
 53.2456  5952.5  77.5597
 53.2876  6068.24  78.0274
 53.3296  6104.39  78.5763
 53.3716  6040.58  77.9147
 53.4136  5970.71  77.6126
 53.4556  6012.73  77.9144
 53.4976  5957.44  77.4089
 53.5396  6107.95  78.7678
 53.5816  6005.92  77.7493
 53.6236  5979.86  77.9092
 53.6656  6094.22  78.2921
 53.7076  6087.14  78.2067
 53.7496  6075.33  78.2415
 53.7916  6158.88  78.9097
 53.8336  6036.72  78.0165
 53.8756  6072.39  78.7891
 53.9176  6040.23  77.9514
 53.9596  6154.76  79.4114
 54.0016  6009.79  77.8369
 54.0436  6014.26  78.0644
 54.0856  6063.28  77.828
 54.1276  6099.12  78.2505
 54.1696  6043.6  78.063
 54.2116  6036.21  77.7793
 54.2536  6071.19  77.8267
 54.2956  6117.08  78.1698
 54.3376  6015.89  77.9787
 54.3796  6032.54  78.0015
 54.4216  6113.46  78.5624
 54.4636  6154.1  78.78
 54.5056  6091.01  78.1991
 54.5476  5983.3  77.8292
 54.5896  6077.38  78.2665
 54.6316  6079.23  78.1507
 54.6736  6047.83  77.9765
 54.7156  5979.61  77.6033
 54.7576  5968.18  77.5313
 54.7996  5941.43  77.4952
 54.8416  5979.18  77.7772
 54.8836  5947.99  77.6817
 54.9256  5963.68  77.5405
 54.9676  6069  78.0786
 55.0096  5945.81  77.3493
 55.0516  6058.63  78.2477
 55.0936  6001.28  77.5794
 55.1356  5955.33  77.3316
 55.1776  5990.4  77.81
 55.2196  6018.81  77.7805
 55.2616  6037.11  78.1077
 55.3036  5924.51  77.5318
 55.3456  6040.81  78.428
 55.3876  6062.54  78.3265
 55.4296  6044.98  78.1908
 55.4716  5930.76  77.4782
 55.5136  5926.05  77.2171
 55.5556  6011.86  77.8411
 55.5976  5900.98  77.1734
 55.6396  5942.7  77.3156
 55.6816  5974.42  77.4841
 55.7236  6005.13  77.8241
 55.7656  6087.88  78.0182
 55.8076  5961.85  77.1913
 55.8496  5900.31  77.2104
 55.8916  5949.46  77.5895
 55.9336  5934.53  77.3384
 55.9756  5968.22  77.459
 56.0176  6012.28  77.892
 56.0596  5971.34  77.6046
 56.1016  5970.4  77.6414
 56.1436  5921.89  77.5538
 56.1856  5967.79  77.6
 56.2276  5993.61  77.8227
 56.2696  5925.11  77.3495
 56.3116  5860.86  77.319
 56.3536  5927.56  77.4292
 56.3956  5946.14  77.5409
 56.4376  5874.76  77.1025
 56.4796  5995.59  77.702
 56.5216  5928.89  77.6286
 56.5636  6018.11  77.8121
 56.6056  5942.96  77.5484
 56.6476  5920.18  77.0369
 56.6896  5940.1  77.6021
 56.7316  5900.75  77.2583
 56.7736  5952.47  77.5944
 56.8156  5940.56  77.5153
 56.8576  5951.06  77.5238
 56.8996  5953.74  77.488
 56.9416  5886.33  77.1991
 56.9836  5790.04  76.2215
 57.0256  5932.32  77.4767
 57.0676  5906.4  77.4279
 57.1096  5966.53  77.6139
 57.1516  5954.86  77.5637
 57.1936  5952.33  77.3289
 57.2356  5907.76  77.3508
 57.2776  5929.78  77.4608
 57.3196  5850.64  77.3002
 57.3616  5880.64  76.9998
 57.4036  6028.68  78.0203
 57.4456  5835.49  76.7316
 57.4876  5887.21  76.9369
 57.5296  5839.5  76.8538
 57.5716  5831.74  76.877
 57.6136  5886.55  77.0741
 57.6556  5915.84  77.3987
 57.6976  5927.17  77.3017
 57.7396  5808.23  76.8906
 57.7816  5804.29  77.2118
 57.8236  5911.8  77.7214
 57.8656  5994.22  77.9205
 57.9076  5816.86  76.7936
 57.9496  5871.43  77.4875
 57.9916  5856.31  76.869
 58.0336  5894.52  77.434
 58.0756  5905.7  77.103
 58.1176  5913.04  77.196
 58.1596  5958.58  78.0562
 58.2016  5923.93  77.0814
 58.2436  5911.21  77.388
 58.2856  5832.37  76.7813
 58.3276  5858.35  77.3272
 58.3696  5890.24  77.2949
 58.4116  5935.28  77.4487
 58.4536  6000.98  77.7711
 58.4956  5894.62  77.2485
 58.5376  6003.94  77.5408
 58.5796  5886.61  77.1882
 58.6216  5870.75  76.9066
 58.6636  6007.49  78.0066
 58.7056  5867.92  76.9615
 58.7476  5812.09  77.0296
 58.7896  5887.24  77.1755
 58.8316  5858.96  76.9938
 58.8736  5961.7  77.6688
 58.9156  5918.15  77.4336
 58.9576  6053.69  78.5166
 58.9996  5997.77  77.5123
 59.0416  6049.36  78.1945
 59.0836  5880.76  77.0361
 59.1256  5892.46  77.4865
 59.1676  5785.78  77.3989
 59.2096  5891.79  77.3988
 59.2516  6008.89  77.7464
 59.2936  5997.04  77.9965
 59.3356  5990.13  77.8299
 59.3776  5818.77  76.8744
 59.4196  6077.88  78.5037
 59.4616  5795.82  76.5228
 59.5036  5974.21  77.7268
 59.5456  5994.55  77.5535
 59.5876  6183.16  78.9574
 59.6296  5971.48  77.6629
 59.6716  5821.44  76.7379
 59.7136  5944.67  77.5342
 59.7556  5996.8  78.0093
 59.7976  5934.44  77.3472
 59.8396  5840.28  76.6272
 59.8816  5835.7  77.1333
 59.9236  6043.39  78.1373
 59.9656  5889.35  77.3919
 60.0076  5972.13  77.2955
 60.0496  5958.92  77.7079
 60.0916  5948.12  77.0626
 60.1336  5755.83  76.8874
 60.1756  5658.34  77.3794
 60.1996  0.0000000E+00  0.0000000E+00