File: docs/examples/XRD/IS17_D/Data/IS17_D/17_Db_f00037.xye
# /beamlines/bl04/projects/cycle2025-II/20250340211-lsimonelli/DATA/IS17_D/17_Db_f00037.xye : mythproc.py merge -s 0.006 -l 0.5 -f /beamlines/bl04/inhouse/ff/FlatField/ff_20Nov2024rod8mm60s_17keV.raw -b True -c true -o xye /beamlines/bl04/projects/cycle2025-II/20250340211-lsimonelli/DATA/IS17_D/17_Db_00037.dat
# IsMon = [6782551, 6780475, 6783111]  IsPos = [-1.4999, -2.4886, -3.4985]
# Wave = 0.4962  CalPath /beamlines/bl04/projects/cycle2025-II/20250340211-lsimonelli/DATA/Align/Si_Pos1_25keV_f00001.cal
# Date = 2025-09-24_04:00:26 Dt = 4.8000  Bin = 0.0060  <imon> = 6782046 +/- 1134 (Min/Max) 6780475 / 6783111
# icurr 252.5399  mocoIn 1.7226E-05  mocoOut 0.8083  i15 7.1009e+06  imon 6.78205e+06  i7 6.0000  iEMpd_timer 4.8000  iEMpd_1 3.3857E-08  iEMpd_2 7.7494E-08  iEMpd_3 1.6032E-08  iEMpd_4 4.7985E-08  iEMhp_timer 4.8000  iEMhp_1 4.9340E-06  iEMhp_2 -2.4415E-08  iEMhp_3 -2.2571E-08  iEMhp_4 -2.1737E-08
#      9776
 1.5856  44955.7  217.711
 1.6276  51757.2  229.591
 1.6696  57258.4  240.633
 1.7116  64751.4  256.395
 1.7536  73492.3  271.989
 1.7956  77373.7  279.776
 1.8376  73448.9  273.02
 1.8796  63388.7  251.77
 1.9216  52755.9  230.599
 1.9636  45115.4  212.375
 2.0056  41295.9  202.398
 2.0476  38012.7  196.314
 2.0896  37295.9  193.314
 2.1316  36002.8  189.02
 2.1736  34300.8  185.962
 2.2156  34881.2  186.024
 2.2576  33713.5  183.54
 2.2996  32730.7  181.508
 2.3416  32688.6  179.943
 2.3836  31829.3  177.672
 2.4256  31211.2  176.512
 2.4676  30308.5  173.694
 2.5096  30188.3  173.406
 2.5516  29098.8  174.175
 2.5936  29024.9  170.452
 2.6356  28284.7  168.976
 2.6776  28374.1  168.133
 2.7196  27871.1  167.129
 2.7616  27915.6  167.046
 2.8036  27519  166.026
 2.8456  27284  165.962
 2.8876  26823.8  164.385
 2.9296  26204.6  162.636
 2.9716  26334.4  162.513
 3.0136  25868  161.144
 3.0556  25842.2  161.457
 3.0976  25947.3  160.679
 3.1396  25460.8  159.888
 3.1816  25180.8  158.96
 3.2236  25145.9  158.824
 3.2656  24618.8  156.214
 3.3076  24647.5  157.772
 3.3496  25015  158.108
 3.3916  25154.6  158.122
 3.4336  25501.2  159.798
 3.4756  25852.8  160.832
 3.5176  26366  162.192
 3.5596  26438.5  164.882
 3.6016  26334.4  162.16
 3.6436  25639.1  161.132
 3.6856  25303.6  158.354
 3.7276  24108.3  155.652
 3.7696  24274.5  155.904
 3.8116  23667.3  154.303
 3.8536  23771.2  154.563
 3.8956  23691.5  154.125
 3.9376  23419.7  153.541
 3.9796  23379.1  152.871
 4.0216  23421.5  152.048
 4.0636  23319.7  153.174
 4.1056  23451.3  153.268
 4.1476  23790.3  154.677
 4.1896  23753.9  154.415
 4.2316  24045.4  154.994
 4.2736  24084.5  155.114
 4.3156  24362.1  156.237
 4.3576  25212  158.849
 4.3996  25458.1  159.693
 4.4416  25985.1  161.122
 4.4836  26504.2  162.889
 4.5256  27077.7  165.245
 4.5676  26825.7  164.735
 4.6096  27555.9  165.602
 4.6516  27834.5  166.137
 4.6936  27646.5  166.403
 4.7356  28234.5  167.99
 4.7776  27942.1  166.942
 4.8196  27692.6  166.849
 4.8616  27169.7  164.884
 4.9036  27029.7  164.054
 4.9456  26695.8  163.691
 4.9876  26089.1  161.717
 5.0296  26337.5  162.336
 5.0716  26294.3  162.814
 5.1136  26226.6  162.467
 5.1556  26709.3  163.415
 5.1976  27204.1  164.91
 5.2396  27324.3  164.965
 5.2816  27351.4  165.518
 5.3236  27193.4  164.735
 5.3656  26759.7  164.349
 5.4076  26389.5  163.343
 5.4496  26506.5  163.214
 5.4916  26635.5  163.355
 5.5336  26687.5  163.601
 5.5756  26419.4  162.719
 5.6176  26762.2  163.208
 5.6596  26703.1  164.009
 5.7016  26959.9  164.062
 5.7436  27117.4  164.59
 5.7856  27025.1  164.605
 5.8276  27028.7  164.331
 5.8696  27146.2  164.857
 5.9116  26960.7  164.857
 5.9536  27791.5  167.132
 5.9956  27769.6  166.48
 6.0376  27798.9  167.183
 6.0796  28070.5  167.82
 6.1216  27964.5  167.72
 6.1636  28212.2  167.502
 6.2056  28029.6  167.643
 6.2476  28319  168.373
 6.2896  28676.9  169.115
 6.3316  28733.1  169.447
 6.3736  28691  169.216
 6.4156  28881.5  169.658
 6.4576  28911  169.378
 6.4996  28760.4  169.41
 6.5416  28838.7  169.771
 6.5836  28896.3  170.129
 6.6256  29143  170.458
 6.6676  29842.1  172.06
 6.7096  29767.3  172.698
 6.7516  29764.3  172.354
 6.7936  30160.6  172.855
 6.8356  30208.1  173.133
 6.8776  30215  173.951
 6.9196  30286.4  174.554
 6.9616  30701.4  175.302
 7.0036  31404  176.842
 7.0456  31495.6  176.405
 7.0876  31304.9  177.545
 7.1296  31217.3  176.427
 7.1716  31066.5  175.921
 7.2136  30792.1  174.544
 7.2556  31045.8  175.423
 7.2976  31108.1  176.098
 7.3396  30950.4  176.12
 7.3816  30868.4  175.841
 7.4236  31177.1  176.024
 7.4656  31467.9  176.313
 7.5076  31772.2  177.301
 7.5496  31195.4  176.214
 7.5916  31564.8  177.31
 7.6336  32068.5  178.601
 7.6756  32063.5  178.444
 7.7176  32437.1  179.802
 7.7596  32389.6  180.873
 7.8016  33081  185.026
 7.8436  32660  180.546
 7.8856  32625.4  180.065
 7.9276  33160.3  181.919
 7.9696  33191.9  182.313
 8.0116  34209.7  183.94
 8.0536  34096.6  183.605
 8.0956  34452.8  185.728
 8.1376  34629.2  185.673
 8.1796  35221.1  187.791
 8.2216  35656.6  187.702
 8.2636  35909.8  188.616
 8.3056  35597.7  188.543
 8.3476  36371.6  189.925
 8.3896  36048.1  189.586
 8.4316  36066.1  189.368
 8.4736  36271.3  189.383
 8.5156  35813.9  188.457
 8.5576  35566.4  188.757
 8.5996  35493.4  187.461
 8.6416  35382.1  188.404
 8.6836  34887.4  186.91
 8.7256  35626.3  188.143
 8.7676  35529.9  190.944
 8.8096  35746.7  188.859
 8.8516  35789.2  188.548
 8.8936  35573.5  187.935
 8.9356  35679.5  188.537
 8.9776  35982  189.412
 9.0196  35815.6  188.653
 9.0616  35348.7  186.929
 9.1036  34726.6  186.42
 9.1456  34609.1  185.443
 9.1876  34976  186.374
 9.2296  34343.9  184.134
 9.2716  34158.5  183.67
 9.3136  33866.1  183.008
 9.3556  34817.5  185.399
 9.3976  33637.9  182.741
 9.4396  33934.4  183.451
 9.4816  33535.5  182.23
 9.5236  32966.8  180.582
 9.5656  32757.3  180.358
 9.6076  32200.8  179.413
 9.6496  32628.8  180.406
 9.6916  32157.9  179.054
 9.7336  32328.3  179.308
 9.7756  32158.6  180.182
 9.8176  32000.9  179.179
 9.8596  31897.6  177.349
 9.9016  31640.8  176.631
 9.9436  31408  175.894
 9.9856  30886.1  174.703
 10.0276  30415.6  174.413
 10.0696  30944  174.976
 10.1116  29860.4  172.141
 10.1536  29894.3  172.392
 10.1956  29320.7  170.346
 10.2376  29364.4  169.996
 10.2796  29257.9  169.8
 10.3216  28911.8  169.071
 10.3636  28733.8  168.576
 10.4056  28005.5  166.82
 10.4476  28418.6  167.642
 10.4896  28483.7  167.31
 10.5316  27424.4  164.871
 10.5736  27528.3  165.591
 10.6156  27363.4  164.843
 10.6576  27286.8  163.228
 10.6996  26835.7  162.69
 10.7416  26674.5  162.269
 10.7836  26447.2  162.214
 10.8256  26081.4  161.513
 10.8676  26187.2  161.707
 10.9096  25921  160.603
 10.9516  25638.6  158.703
 10.9936  25677.8  159.026
 11.0356  25379.3  158.688
 11.0776  25219.8  157.591
 11.1196  24836.4  157.088
 11.1616  24825.9  156.728
 11.2036  24815.2  156.548
 11.2456  24787.4  157.604
 11.2876  24919  157.295
 11.3296  24280.3  155.187
 11.3716  24803.4  156.54
 11.4136  24688.1  157.041
 11.4556  24588  156.379
 11.4976  25152.2  157.197
 11.5396  25346.9  158.135
 11.5816  26054.3  160.595
 11.6236  26220.4  161.563
 11.6656  25870.2  159.403
 11.7076  24871.7  157.125
 11.7496  24385.6  159.526
 11.7916  24381.1  154.834
 11.8336  23760.2  153.75
 11.8756  23777.2  153.34
 11.9176  23542.4  152.493
 11.9596  23925.8  153.657
 12.0016  23494.6  153.025
 12.0436  23758  153.334
 12.0856  23342.3  152.484
 12.1276  23152.1  151.814
 12.1696  23325.4  151.518
 12.2116  23192  151.082
 12.2536  23073.6  151.493
 12.2956  22917.7  150.341
 12.3376  23255.4  151.64
 12.3796  23065.2  151.499
 12.4216  23089.9  150.785
 12.4636  22777.7  150.679
 12.5056  22921.7  150.325
 12.5476  23116.8  150.595
 12.5896  22747  150.014
 12.6316  23005.2  151.01
 12.6736  22687.5  150.3
 12.7156  22966.2  151.209
 12.7576  22991.2  151.536
 12.7996  23012.8  150.269
 12.8416  22839.6  150.74
 12.8836  23070.6  151.32
 12.9256  23495.2  151.767
 12.9676  23211.1  151.239
 13.0096  23705.4  153.947
 13.0516  23560.4  152.517
 13.0936  23850  153.859
 13.1356  23881.2  152.935
 13.1776  23396.9  152.211
 13.2196  23755.4  153.183
 13.2616  23508  152.698
 13.3036  23546.1  152.784
 13.3456  23425.1  152.529
 13.3876  24101.7  154.19
 13.4296  23615.9  152.801
 13.4716  23745.9  152.852
 13.5136  23695  152.815
 13.5556  23521.8  152.887
 13.5976  23689.3  153.594
 13.6396  23713  153.037
 13.6816  23807.3  153.806
 13.7236  23868.7  153.856
 13.7656  25741.9  159.924
 13.8076  26433.4  160.727
 13.8496  26001.5  160.067
 13.8916  24069.2  155.147
 13.9336  23396.9  152.259
 13.9756  23363.7  151.536
 14.0176  22936.2  150.863
 14.0596  23148.7  151.445
 14.1016  22874.6  150.959
 14.1436  23137.6  150.963
 14.1856  22310.6  148.532
 14.2276  22404.8  149.311
 14.2696  22354.7  149.002
 14.3116  21853.7  147.24
 14.3536  21576.6  146.461
 14.3956  21825.7  147.286
 14.4376  22063.8  147.61
 14.4796  21571.3  145.965
 14.5216  21353.3  145.997
 14.5636  21209.4  145.081
 14.6056  21644.8  145.849
 14.6476  21379.4  144.489
 14.6896  21075.3  143.988
 14.7316  20593.9  143.356
 14.7736  20652.1  142.746
 14.8156  20455.6  142.046
 14.8576  20304.7  141.384
 14.8996  20001.1  141.482
 14.9416  19606.8  140.115
 14.9836  19536.5  139.842
 15.0256  19091.6  137.185
 15.0676  19025.7  137.251
 15.1096  18905.4  136.562
 15.1516  18501.3  135.641
 15.1936  18625  135.528
 15.2356  18302.6  134.621
 15.2776  18497.1  134.934
 15.3196  18013.7  134.125
 15.3616  17816.3  133.151
 15.4036  17768.8  132.845
 15.4456  18064.9  133.369
 15.4876  17789.2  132.27
 15.5296  17676.3  132.132
 15.5716  17438.4  130.85
 15.6136  17348.2  130.832
 15.6556  17219  129.604
 15.6976  17144.2  129.398
 15.7396  17011.7  129.477
 15.7816  17012.7  129.013
 15.8236  16790.1  128.836
 15.8656  16708.7  128.326
 15.9076  16596.4  127.713
 15.9496  17442.7  133.714
 15.9916  16863  132.365
 16.0336  17386.6  130.789
 16.0756  16826.3  128.976
 16.1176  16817.9  129.021
 16.1596  16476.5  128.862
 16.2016  16414.6  127.403
 16.2436  16355.7  127.542
 16.2856  16116.6  126.13
 16.3276  15923.2  125.798
 16.3696  16247.7  126.9
 16.4116  16072  126.651
 16.4536  16286.8  127.312
 16.4956  16300  127.099
 16.5376  16058.5  126.337
 16.5796  15877.6  125.006
 16.6216  16043.7  125.915
 16.6636  15817.2  125.212
 16.7056  15862.5  125.257
 16.7476  15763.8  124.549
 16.7896  15814.4  125.333
 16.8316  15746.5  125.045
 16.8736  15911  125.952
 16.9156  15890.1  126.19
 16.9576  15653.2  126.032
 16.9996  15589.7  126.237
 17.0416  15941.3  126.247
 17.0836  15900.1  125.662
 17.1256  15716.5  124.938
 17.1676  15769.1  125.102
 17.2096  15698  124.72
 17.2516  15457.1  123.557
 17.2936  15560.9  124.317
 17.3356  15328.6  123.279
 17.3776  15262.1  123.275
 17.4196  15177.8  122.652
 17.4616  15083.3  122.175
 17.5036  14869.7  121.666
 17.5456  14729.6  121.719
 17.5876  14815  121.133
 17.6296  14816.9  120.974
 17.6716  14568.3  120.52
 17.7136  14583.8  120.705
 17.7556  14493.9  120.629
 17.7976  14185.7  118.942
 17.8396  14345  119.259
 17.8816  14057.6  118.61
 17.9236  14201.2  119.009
 17.9656  14186.8  119.611
 18.0076  14042.6  118.44
 18.0496  14016.8  117.492
 18.0916  13987.1  117.904
 18.1336  13950.2  117.839
 18.1756  14012.7  117.594
 18.2176  13627  116.243
 18.2596  13697.8  116.285
 18.3016  13969  117.681
 18.3436  13874.9  117.517
 18.3856  13815.9  117.163
 18.4276  13840.5  116.969
 18.4696  13744.1  116.631
 18.5116  13749.4  116.931
 18.5536  13713.7  117.112
 18.5956  13648.7  116.428
 18.6376  13591.7  116.58
 18.6796  13538.8  115.667
 18.7216  13563.9  116.336
 18.7636  13547  116.191
 18.8056  13313.9  115.117
 18.8476  13463.8  116.086
 18.8896  13383.9  115.387
 18.9316  13517.6  115.784
 18.9736  13394.3  115.113
 19.0156  13304.6  115.125
 19.0576  13614.8  115.338
 19.0996  13615.5  116.053
 19.1416  13430.5  115.634
 19.1836  13379.7  115.039
 19.2256  13191.6  114.443
 19.2676  13375.7  115.317
 19.3096  13259.7  115.061
 19.3516  13255.4  114.998
 19.3936  13163.4  114.562
 19.4356  13362.7  115.248
 19.4776  13227  114.749
 19.5196  13292.6  114.887
 19.5616  13316.6  115.248
 19.6036  13224  114.346
 19.6456  13446.2  115.423
 19.6876  13311.4  114.48
 19.7296  13392.3  115.275
 19.7716  13139.3  114.153
 19.8136  13533.4  116.252
 19.8556  13471.6  115.491
 19.8976  13423.7  115.34
 19.9396  13617.6  115.765
 19.9816  13664.3  116.106
 20.0236  13894.8  117.37
 20.0656  13938.8  117.563
 20.1076  14273.6  119.445
 20.1496  14285.5  119.49
 20.1916  14358.6  119.305
 20.2336  14089  118.108
 20.2756  13736.1  117.049
 20.3176  13297.7  114.918
 20.3596  13183.2  114.413
 20.4016  13189.7  114.237
 20.4436  13201.3  114.852
 20.4856  13114.9  114.253
 20.5276  13027.2  114.338
 20.5696  13085.7  114.039
 20.6116  12979.3  113.849
 20.6536  12864.9  112.93
 20.6956  12793.8  112.688
 20.7376  12718.9  112.566
 20.7796  12746.7  112.381
 20.8216  12784.7  112.42
 20.8636  12833.4  112.857
 20.9056  12579.2  111.663
 20.9476  12747.3  112.261
 20.9896  12820  112.449
 21.0316  12690.8  111.785
 21.0736  12571  111.764
 21.1156  12460.7  111.431
 21.1576  12611.6  112.142
 21.1996  12524.5  111.74
 21.2416  12503.6  111.475
 21.2836  12604  111.898
 21.3256  12566  111.796
 21.3676  12390.5  110.557
 21.4096  12446.3  111.127
 21.4516  12387.6  110.736
 21.4936  12300.7  110.449
 21.5356  12312.7  110.612
 21.5776  12483.9  111.212
 21.6196  12327.6  110.559
 21.6616  12329.5  110.648
 21.7036  12422.7  110.787
 21.7456  12352.6  110.601
 21.7876  12311.5  110.18
 21.8296  12193.7  109.502
 21.8716  12268.3  110.065
 21.9136  12456.1  111.103
 21.9556  12294  110.058
 21.9976  12205.5  109.688
 22.0396  12162.3  109.74
 22.0816  12205.4  110.456
 22.1236  12376.2  110.691
 22.1656  12158.9  109.906
 22.2076  11951.1  108.387
 22.2496  11974.6  108.527
 22.2916  11838.8  107.796
 22.3336  11953.5  108.998
 22.3756  11824.8  108.159
 22.4176  11749.6  107.675
 22.4596  11717.2  108.091
 22.5016  11761  107.812
 22.5436  12017.6  108.861
 22.5856  12186.6  109.869
 22.6276  12445.1  111.155
 22.6696  11960.8  109.324
 22.7116  11911.8  108.625
 22.7536  12105.2  109.477
 22.7956  12109.7  108.645
 22.8376  11656.9  107.289
 22.8796  11770.3  107.619
 22.9216  11888.4  108.684
 22.9636  11663.3  106.834
 23.0056  11951.7  108.278
 23.0476  11967.3  108.907
 23.0896  12257  109.607
 23.1316  12136.2  109.494
 23.1736  12154.5  112.468
 23.2156  12480  111.278
 23.2576  12588.8  111.965
 23.2996  12384.2  110.819
 23.3416  12508.6  111.907
 23.3836  12334.3  110.345
 23.4256  12454.5  111.021
 23.4676  12363.6  110.313
 23.5096  12284.3  110.617
 23.5516  12293.9  109.952
 23.5936  12191.5  110.398
 23.6356  12585.7  111.835
 23.6776  12202.6  110.636
 23.7196  12180.1  109.807
 23.7616  12193.8  109.784
 23.8036  12434.4  110.921
 23.8456  12091  108.937
 23.8876  12252.2  110.014
 23.9296  11804.4  108.465
 23.9716  12025.8  108.687
 24.0136  12130  110.054
 24.0556  11984.9  109.106
 24.0976  11843  108.286
 24.1396  11725  110.325
 24.1816  11887.4  109.851
 24.2236  11943.4  109.409
 24.2656  11750.1  107.999
 24.3076  11715.2  108.108
 24.3496  11707.6  107.923
 24.3916  11808.7  108.469
 24.4336  11626.5  107.819
 24.4756  11807.8  108.552
 24.5176  11493.3  106.719
 24.5596  11538.4  107.047
 24.6016  11378.4  106.607
 24.6436  11492.3  106.598
 24.6856  11544.4  106.641
 24.7276  11323.1  105.935
 24.7696  11292.5  105.891
 24.8116  11262.3  105.922
 24.8536  11207.5  105.674
 24.8956  11230.3  105.519
 24.9376  11209.7  105.344
 24.9796  10921.5  104.339
 25.0216  11181.3  105.689
 25.0636  11085.6  104.896
 25.1056  10871.9  104.297
 25.1476  10913.5  106.356
 25.1896  10779.9  104.258
 25.2316  10931.2  104.158
 25.2736  10917.8  103.864
 25.3156  10854.8  103.629
 25.3576  10742.3  103.521
 25.3996  10761.9  103.601
 25.4416  10812  103.813
 25.4836  10669.2  103.555
 25.5256  10647.3  102.913
 25.5676  10612.7  102.486
 25.6096  10689.3  103.418
 25.6516  10719.1  103.095
 25.6936  10628.1  102.94
 25.7356  10560  102.745
 25.7776  10728.9  103.161
 25.8196  10461.9  102.109
 25.8616  10551  102.414
 25.9036  10526.1  101.814
 25.9456  10596.6  102.749
 25.9876  10453.3  102.112
 26.0296  10624.6  102.556
 26.0716  10657.9  103.044
 26.1136  10617.2  102.786
 26.1556  10658.1  102.292
 26.1976  10541.4  102.728
 26.2396  10460.1  101.753
 26.2816  10591.3  102.739
 26.3236  10459.2  102.158
 26.3656  10677.3  103.029
 26.4076  10435.6  102.052
 26.4496  10758.4  103.225
 26.4916  10827  103.456
 26.5336  11055  104.876
 26.5756  11160.6  105.256
 26.6176  10617.7  102.684
 26.6596  10630.8  103.049
 26.7016  10333.1  101.414
 26.7436  10639  102.988
 26.7856  10341  101.516
 26.8276  10429.3  101.919
 26.8696  10241.9  100.866
 26.9116  10257.7  100.882
 26.9536  10232.4  100.811
 26.9956  10203.6  100.705
 27.0376  10230.3  101.053
 27.0796  10204.4  100.692
 27.1216  10230  100.837
 27.1636  10016  99.9495
 27.2056  10058.1  100.044
 27.2476  10114  100.3
 27.2896  9943.44  99.4932
 27.3316  10000.4  99.5875
 27.3736  9969.34  99.6998
 27.4156  9994.61  99.6611
 27.4576  9978.77  99.7985
 27.4996  10088.1  99.9558
 27.5416  9867.33  99.1585
 27.5836  9881.37  99.0687
 27.6256  10043  100.055
 27.6676  9917.34  99.416
 27.7096  9872.93  99.0795
 27.7516  9873.41  99.1795
 27.7936  10142.8  100.705
 27.8356  10014.2  99.691
 27.8776  10032.3  99.8416
 27.9196  9844.15  98.7687
 27.9616  9988.57  99.5864
 28.0036  9791.88  98.6612
 28.0456  9685.54  98.2555
 28.0876  9616.8  97.9916
 28.1296  9620.17  97.9312
 28.1716  9723.47  98.3868
 28.2136  9684.38  98.1623
 28.2556  9671.96  98.1994
 28.2976  9540.49  97.5287
 28.3396  9564.57  97.2772
 28.3816  9680.84  98.0173
 28.4236  9572.61  97.6206
 28.4656  9552.7  97.5537
 28.5076  9613.01  97.5087
 28.5496  9698.16  98.1922
 28.5916  9612.89  97.5801
 28.6336  9504.35  97.3569
 28.6756  9616.89  97.1456
 28.7176  9500.06  97.0972
 28.7596  9368.65  96.3223
 28.8016  9501.98  97.1195
 28.8436  9345.8  96.4767
 28.8856  9537.26  97.3096
 28.9276  9447.44  97.0945
 28.9696  9394.05  96.4803
 29.0116  9318.97  96.2545
 29.0536  9430.07  97.055
 29.0956  9336.57  96.278
 29.1376  9358.93  96.3662
 29.1796  9306.28  96.0749
 29.2216  9340.13  96.1591
 29.2636  9509.88  97.0178
 29.3056  9304.96  95.8426
 29.3476  9269.27  96.1743
 29.3896  9305.26  96.7744
 29.4316  9282.6  95.696
 29.4736  9134.94  94.9904
 29.5156  9321.45  95.8829
 29.5576  9127.76  95.6035
 29.5996  9224.29  95.3811
 29.6416  9115.37  94.9336
 29.6836  9105.21  94.8084
 29.7256  9073.64  95.1928
 29.7676  9053.67  94.8544
 29.8096  9063.06  94.7527
 29.8516  8921.3  94.3275
 29.8936  9031.97  95.0051
 29.9356  8946.35  94.3072
 29.9776  9015.98  94.8302
 30.0196  8915.89  93.7143
 30.0616  9033.83  94.6951
 30.1036  9037.14  94.5442
 30.1456  8996.71  94.5787
 30.1876  8999.98  94.7293
 30.2296  8928.97  94.1259
 30.2716  9097.1  94.6566
 30.3136  8948.85  94.4578
 30.3556  9147.01  95.7565
 30.3976  9140.83  97.1749
 30.4396  9406.85  95.9725
 30.4816  9296.72  95.0204
 30.5236  9217.66  94.5986
 30.5656  9073  94.5055
 30.6076  9136.81  94.2609
 30.6496  9310.51  95.5613
 30.6916  8963.86  93.8515
 30.7336  9024.17  94.3046
 30.7756  8972.72  94.3424
 30.8176  9218.45  95.3352
 30.8596  9178.59  94.8939
 30.9016  9141.2  95.0356
 30.9436  9187.26  95.0331
 30.9856  9330.29  95.8734
 31.0276  9122.85  94.445
 31.0696  9152.21  95.0135
 31.1116  9154.62  95.1342
 31.1536  9040.8  94.398
 31.1956  9067.93  94.644
 31.2376  8807.97  93.2968
 31.2796  9065.24  94.1956
 31.3216  8950.84  93.9312
 31.3636  9073.78  94.8702
 31.4056  8911.14  95.2818
 31.4476  9160.15  94.5436
 31.4896  9021.39  94.3173
 31.5316  9017.06  93.7529
 31.5736  9274.91  94.875
 31.6156  8970.07  93.3101
 31.6576  9164.99  94.3882
 31.6996  9131.93  93.8878
 31.7416  8970.62  94.1292
 31.7836  9179.44  94.2196
 31.8256  9033.33  93.8128
 31.8676  9114.23  94.1422
 31.9096  8920.09  93.4964
 31.9516  8724.61  92.6365
 31.9936  8962.28  93.8458
 32.0356  8953.53  93.6987
 32.0776  8937.97  93.5332
 32.1196  9017.92  94.057
 32.1616  9037.4  93.6074
 32.2036  8915.09  93.4797
 32.2456  8865.57  93.5795
 32.2876  8767.07  92.4218
 32.3296  8877.97  93.1248
 32.3716  8731.35  92.4691
 32.4136  8683.53  92.4097
 32.4556  8814.29  92.5532
 32.4976  8769.92  92.1731
 32.5396  8738.71  92.074
 32.5816  8681.76  91.7972
 32.6236  8792.48  92.5378
 32.6656  8708.85  92.6479
 32.7076  8569.95  91.5536
 32.7496  8611.06  91.459
 32.7916  8674.3  91.7566
 32.8336  8623.48  91.6802
 32.8756  8862.94  92.6475
 32.9176  8556.48  91.4253
 32.9596  8582.87  91.6261
 33.0016  8645.59  91.7471
 33.0436  8553.11  91.4021
 33.0856  8585.7  91.6905
 33.1276  8494.94  90.9424
 33.1696  8693.25  91.8271
 33.2116  8660.71  91.6886
 33.2536  8724.87  92.2032
 33.2956  8685.37  92.0875
 33.3376  8560.4  91.1397
 33.3796  8733.65  92.3106
 33.4216  8450.89  90.4355
 33.4636  8568.78  91.1779
 33.5056  8483.09  90.81
 33.5476  8543.75  91.2569
 33.5896  8709.9  91.9198
 33.6316  8646.65  91.9138
 33.6736  8497.75  91.3629
 33.7156  8479.69  91.3025
 33.7576  8611.74  91.6527
 33.7996  8529.39  90.9832
 33.8416  8386.34  90.3938
 33.8836  8410.71  90.3069
 33.9256  8547.88  91.09
 33.9676  8513.85  90.8139
 34.0096  8477.93  90.9264
 34.0516  8445.58  90.3974
 34.0936  8478.42  90.8458
 34.1356  8438.84  90.375
 34.1776  8306.85  89.6718
 34.2196  8409.92  90.3984
 34.2616  8339.33  90.2742
 34.3036  8462.2  91.0556
 34.3456  8304.17  89.9534
 34.3876  8413.98  90.5274
 34.4296  8295.6  89.5861
 34.4716  8378.73  90.3335
 34.5136  8393.39  90.4419
 34.5556  8256.49  89.9656
 34.5976  8379.67  90.4423
 34.6396  8350.77  89.8837
 34.6816  8289.1  89.7747
 34.7236  8338.01  89.8028
 34.7656  8334.65  90.0121
 34.8076  8302.53  90.1593
 34.8496  8259.31  89.9013
 34.8916  8329.41  90.0226
 34.9336  8255.54  89.6044
 34.9756  8232.45  89.3981
 35.0176  8323.09  90.4127
 35.0596  8325.59  90.2497
 35.1016  8337.49  90.0578
 35.1436  8486.09  90.5665
 35.1856  8228.75  89.2985
 35.2276  8287.1  89.7846
 35.2696  8211.32  89.5602
 35.3116  8240.48  89.8425
 35.3536  8223.74  89.4443
 35.3956  8223.78  89.1619
 35.4376  8336.67  90.3283
 35.4796  8267.82  89.9943
 35.5216  8137.39  89.1755
 35.5636  8036.28  89.4146
 35.6056  8106.88  88.8506
 35.6476  8251.38  89.5347
 35.6896  8180.29  89.3061
 35.7316  8138.48  88.9911
 35.7736  8079.33  88.8423
 35.8156  8179.27  89.3933
 35.8576  8139.77  89.4158
 35.8996  8169.94  89.5623
 35.9416  8082.53  88.5918
 35.9836  8189.31  89.5048
 36.0256  8245.26  89.8325
 36.0676  8420.72  90.3092
 36.1096  8190.93  89.448
 36.1516  8223.58  89.5055
 36.1936  8269.68  89.6038
 36.2356  8267.77  90.2403
 36.2776  7980.25  88.3387
 36.3196  8167.08  88.8438
 36.3616  8080.02  88.5015
 36.4036  8180.67  89.1208
 36.4456  8172.71  89.2534
 36.4876  7977.68  88.1568
 36.5296  8130  89.0243
 36.5716  7991.71  89.0277
 36.6136  7904.65  87.3613
 36.6556  7843.86  87.2176
 36.6976  7839.45  87.6787
 36.7396  7866.27  87.6562
 36.7816  7812.54  87.6309
 36.8236  7866.07  87.8576
 36.8656  7801.01  87.5589
 36.9076  7717.05  87.0941
 36.9496  7666.71  86.8216
 36.9916  7709.68  86.5521
 37.0336  7861.16  87.7051
 37.0756  7796.73  87.1497
 37.1176  7640.12  86.6147
 37.1596  7799.42  87.4347
 37.2016  7851.49  87.8972
 37.2436  7687.67  86.3595
 37.2856  7785.69  87.1639
 37.3276  7812.42  86.6772
 37.3696  7671.29  86.7519
 37.4116  7742.56  87.0544
 37.4536  7614.89  86.2028
 37.4956  7611.53  86.2313
 37.5376  7912.86  89.4867
 37.5796  7850.42  89.057
 37.6216  7817.61  87.1673
 37.6636  7892.59  87.4665
 37.7056  7909.16  87.7504
 37.7476  7871.87  87.0971
 37.7896  7738.12  86.9703
 37.8316  7797.79  87.3259
 37.8736  7783.56  86.7951
 37.9156  7859.32  87.2063
 37.9576  7768.71  86.7654
 37.9996  7712.86  86.0257
 38.0416  7789.6  87.2444
 38.0836  7819.88  87.3117
 38.1256  7857.39  87.5036
 38.1676  7620.41  86.2896
 38.2096  7832.22  87.0997
 38.2516  7919.57  87.7138
 38.2936  7921.93  87.61
 38.3356  7927.95  87.5781
 38.3776  7604.21  86.0173
 38.4196  7784.94  86.8975
 38.4616  7782.54  87.1201
 38.5036  7624.73  86.1794
 38.5456  7724.18  87.4479
 38.5876  7634.15  86.9683
 38.6296  7659.34  86.0928
 38.6716  7787.55  86.6289
 38.7136  7567.77  85.3461
 38.7556  7696.36  86.5695
 38.7976  7781.13  86.9748
 38.8396  7717.16  87.0565
 38.8816  7607.06  86.2416
 38.9236  7600.58  86.0082
 38.9656  7691.15  86.4252
 39.0076  7887.3  86.9181
 39.0496  7803.77  87.0153
 39.0916  7814.56  86.7246
 39.1336  7689.74  86.4297
 39.1756  7697.03  86.5291
 39.2176  7574.76  86.3755
 39.2596  7709.33  87.0492
 39.3016  7652.07  86.3259
 39.3436  7553.61  86.1688
 39.3856  7756.32  86.7538
 39.4276  7732.32  87.1324
 39.4696  7755.68  86.8911
 39.5116  7844.29  87.8976
 39.5536  7768.11  87.8763
 39.5956  7772.38  87.0214
 39.6376  7633.57  86.0749
 39.6796  7718.4  86.4741
 39.7216  7689.79  86.4046
 39.7636  7609.65  86.5031
 39.8056  7728.62  86.9656
 39.8476  7635.98  86.693
 39.8896  7654.61  86.3687
 39.9316  7681.14  86.8209
 39.9736  7760.64  86.8624
 40.0156  7668.17  86.1748
 40.0576  7610.31  86.1933
 40.0996  7704.44  85.9241
 40.1416  7668.79  86.507
 40.1836  7774.32  86.9812
 40.2256  7631  86.2192
 40.2676  7630.91  86.321
 40.3096  7723.61  86.7797
 40.3516  7725.18  86.9622
 40.3936  7786.35  86.787
 40.4356  7650.19  86.2373
 40.4776  7802.28  87.4789
 40.5196  7629.95  86.6371
 40.5616  7801.31  87.2476
 40.6036  7722.81  87.0647
 40.6456  7716.65  86.6424
 40.6876  7745.32  86.7985
 40.7296  7664.04  86.4758
 40.7716  7821.84  87.4685
 40.8136  7596.2  86.1497
 40.8556  7833.45  87.6133
 40.8976  7812.82  87.4283
 40.9396  7721.12  87.2487
 40.9816  7826.49  87.1464
 41.0236  7759.43  86.6712
 41.0656  7836.92  87.5151
 41.1076  7720.92  86.6461
 41.1496  7733.61  86.626
 41.1916  7641.4  86.3525
 41.2336  7670.72  86.5855
 41.2756  7714.85  86.44
 41.3176  7789.44  87.4628
 41.3596  7722.02  86.8224
 41.4016  7685.38  86.7993
 41.4436  7863.6  87.6616
 41.4856  7636.81  86.5541
 41.5276  7651.21  86.6358
 41.5696  7644.49  86.3809
 41.6116  7706.57  86.9752
 41.6536  7804.52  87.3904
 41.6956  7753.79  87.1656
 41.7376  7638.03  86.537
 41.7796  7627.67  86.2309
 41.8216  7720.96  87.1074
 41.8636  7706.36  86.9855
 41.9056  7481.52  85.5044
 41.9476  7694.74  86.9416
 41.9896  7837.6  87.4121
 42.0316  7807.59  87.3315
 42.0736  7734.41  87.0187
 42.1156  7705.72  86.6965
 42.1576  7707.07  86.8149
 42.1996  7737.12  87.1062
 42.2416  7693.64  86.4507
 42.2836  7625.06  86.1849
 42.3256  7798.2  87.2692
 42.3676  7744.13  86.7696
 42.4096  7701.03  86.4909
 42.4516  7764.62  86.9206
 42.4936  7497.35  85.4974
 42.5356  7570.26  86.0444
 42.5776  7631.85  86.3327
 42.6196  7604.61  86.1514
 42.6616  7606.59  86.4158
 42.7036  7668.62  86.1512
 42.7456  7693.41  86.6446
 42.7876  7670.62  86.5968
 42.8296  7626.42  86.2578
 42.8716  7519.38  85.7499
 42.9136  7580.51  85.8962
 42.9556  7611.85  86.2004
 42.9976  7666.07  86.4938
 43.0396  7552.42  85.568
 43.0816  7543.64  85.8951
 43.1236  7514.98  85.779
 43.1656  7642.58  86.3304
 43.2076  7556.74  85.949
 43.2496  7532.02  85.6372
 43.2916  7579.67  86.2635
 43.3336  7606.47  86.2469
 43.3756  7627.98  86.1267
 43.4176  7472.52  85.3315
 43.4596  7495.5  85.3196
 43.5016  7559.56  86.0787
 43.5436  7533  85.833
 43.5856  7464.41  85.4683
 43.6276  7418.12  85.0893
 43.6696  7422.48  85.2664
 43.7116  7549.75  85.597
 43.7536  7517.23  85.9174
 43.7956  7414.77  86.5091
 43.8376  7342.33  84.4789
 43.8796  7258.56  84.2439
 43.9216  7280.17  84.2896
 43.9636  7375.12  84.9411
 44.0056  7384.68  85.2262
 44.0476  7320.95  84.4942
 44.0896  7226.71  84.2854
 44.1316  7303.68  84.4077
 44.1736  7212.15  83.8589
 44.2156  7312.02  84.2994
 44.2576  7385.23  85.0355
 44.2996  7325.95  84.8513
 44.3416  7393.25  84.8154
 44.3836  7184.55  83.9297
 44.4256  7167.35  83.4771
 44.4676  7238.59  84.05
 44.5096  7330.26  84.7227
 44.5516  7246.79  84.1994
 44.5936  7195.92  83.8619
 44.6356  7342.73  84.4528
 44.6776  7138.38  83.5753
 44.7196  7359.23  85.1275
 44.7616  7315.79  86.2244
 44.8036  7206.65  84.0314
 44.8456  7459.04  85.6903
 44.8876  7398.79  85.1897
 44.9296  7501.61  85.2303
 44.9716  7478.23  85.52
 45.0136  7545.29  85.841
 45.0556  7584.63  86.0461
 45.0976  7425.5  85.2912
 45.1396  7244.25  84.0044
 45.1816  7327.59  84.2665
 45.2236  7420.07  84.8694
 45.2656  7376.66  85.1088
 45.3076  7266.78  84.2646
 45.3496  7254.32  84.4937
 45.3916  7334.96  85.228
 45.4336  7397.35  85.4329
 45.4756  7430.87  85.4758
 45.5176  7395.89  84.8973
 45.5596  7481.57  85.5002
 45.6016  7433.41  85.6573
 45.6436  7287.36  83.9984
 45.6856  7344.28  84.9738
 45.7276  7294.25  86.4808
 45.7696  7339.05  85.9377
 45.8116  7316.4  85.2408
 45.8536  7325.47  85.1937
 45.8956  7304.06  84.4253
 45.9376  7439.49  84.6724
 45.9796  7528.7  85.873
 46.0216  7431.79  85.6462
 46.0636  7429.07  84.7736
 46.1056  7294.69  84.0029
 46.1476  7398.81  85.1781
 46.1896  7408  85.3724
 46.2316  7346.05  84.8919
 46.2736  7100.1  83.6946
 46.3156  7390.93  85.1148
 46.3576  7251.88  84.513
 46.3996  7251.8  84.6682
 46.4416  7270.35  84.357
 46.4836  7294.67  84.8484
 46.5256  7269.6  84.6459
 46.5676  7185.23  84.2696
 46.6096  7238.09  84.5148
 46.6516  7330.3  84.0816
 46.6936  7265.14  84.2132
 46.7356  7458.66  85.4194
 46.7776  7213.4  84.843
 46.8196  7250.58  84.6486
 46.8616  7037.79  83.3557
 46.9036  7077.89  83.2664
 46.9456  7121.73  83.1643
 46.9876  7225.19  83.8412
 47.0296  7120.99  83.922
 47.0716  7074.09  83.4704
 47.1136  7290.03  84.4034
 47.1556  7262.05  84.1201
 47.1976  7281.74  84.2867
 47.2396  7208.51  84.2847
 47.2816  7129.02  83.5233
 47.3236  7249.48  84.5928
 47.3656  7219.79  84.4306
 47.4076  7162.63  83.8114
 47.4496  7122.7  83.677
 47.4916  7128.52  83.896
 47.5336  7249.05  84.4257
 47.5756  7165.44  84.0118
 47.6176  7184.81  84.0598
 47.6596  7093.55  83.2501
 47.7016  7386.43  84.7532
 47.7436  7298.41  84.5322
 47.7856  7348.97  84.9108
 47.8276  7224.23  84.2393
 47.8696  7227.26  84.3357
 47.9116  7299.4  84.4727
 47.9536  7160.24  83.6025
 47.9956  7089.49  83.897
 48.0376  7138.65  84.0159
 48.0796  7195.23  84.4147
 48.1216  7204.37  84.4002
 48.1636  7335.59  84.6243
 48.2056  7168.59  83.924
 48.2476  7322.34  85.1234
 48.2896  7255.3  84.6423
 48.3316  7304.03  84.8743
 48.3736  7133.99  83.8967
 48.4156  7145.58  83.8241
 48.4576  7205.27  84.4668
 48.4996  7316.06  84.5416
 48.5416  7282.25  84.6958
 48.5836  7113.64  83.3864
 48.6256  7253.81  84.4123
 48.6676  7196.02  84.5907
 48.7096  7134.56  83.514
 48.7516  7211.43  84.0961
 48.7936  7033.92  83.1202
 48.8356  7074.5  83.4058
 48.8776  7120.83  84.1697
 48.9196  7338.14  84.8803
 48.9616  7079.29  83.7607
 49.0036  7166.61  84.6173
 49.0456  7213.56  84.864
 49.0876  7198.51  84.4224
 49.1296  7069.17  83.7317
 49.1716  7008.41  83.2418
 49.2136  7237.16  84.505
 49.2556  7216.46  84.4233
 49.2976  7068.04  83.6164
 49.3396  7072.74  83.6942
 49.3816  7229.28  84.0354
 49.4236  7079.99  83.6037
 49.4656  7102.5  83.7446
 49.5076  7129.21  83.656
 49.5496  7115.37  83.5167
 49.5916  7092.91  83.4244
 49.6336  7133.38  83.8612
 49.6756  7146.14  84.1681
 49.7176  7005.67  83.2813
 49.7596  7111.29  83.8458
 49.8016  7182.34  84.0055
 49.8436  7060.2  83.5911
 49.8856  7097.86  83.8215
 49.9276  7072.79  83.8317
 49.9696  7160.02  84.2607
 50.0116  7086.06  83.9579
 50.0536  7118.98  84.1068
 50.0956  6999.96  83.456
 50.1376  7146.26  84.1015
 50.1796  6988.84  83.3774
 50.2216  7048.65  83.7189
 50.2636  7013.67  83.1353
 50.3056  6984.49  83.1341
 50.3476  7031.33  83.4374
 50.3896  7025.12  83.3715
 50.4316  7117.48  83.7501
 50.4736  6984.58  83.1837
 50.5156  7065.75  83.656
 50.5576  7075.39  83.4698
 50.5996  7069.27  83.7158
 50.6416  6952.11  82.9527
 50.6836  7050.63  83.5905
 50.7256  7181.46  84.283
 50.7676  7130.32  84.2682
 50.8096  7043.89  83.3229
 50.8516  7001.31  83.4917
 50.8936  6941.81  82.9205
 50.9356  7011.28  83.4347
 50.9776  6971.57  83.3668
 51.0196  6786.05  82.378
 51.0616  7013.7  83.0692
 51.1036  7039.05  83.579
 51.1456  6966.32  83.06
 51.1876  6865.82  81.7952
 51.2296  6934.25  82.8353
 51.2716  6811.74  81.8074
 51.3136  6775.15  82.0518
 51.3556  6849.21  82.1147
 51.3976  6852.97  82.2897
 51.4396  6591.44  81.0139
 51.4816  6798.94  82.1338
 51.5236  6900.9  82.8295
 51.5656  6849.24  82.1157
 51.6076  6934.03  82.7116
 51.6496  7028.76  83.5282
 51.6916  6716.12  82.0153
 51.7336  6775.34  82.3958
 51.7756  6898.79  82.8306
 51.8176  6726.22  81.8905
 51.8596  6740.28  82.0047
 51.9016  6962.23  82.9433
 51.9436  6835.59  83.679
 51.9856  6846.71  84.1524
 52.0276  6913.95  83.0415
 52.0696  7005  83.66
 52.1116  6781.95  82.4379
 52.1536  6921.95  83.1664
 52.1956  6896.49  82.4814
 52.2376  6990.58  83.2086
 52.2796  6898.06  82.5009
 52.3216  6818.25  82.687
 52.3636  6917  82.8462
 52.4056  6856.16  82.3456
 52.4476  6844.57  82.6412
 52.4896  6806.81  82.4613
 52.5316  6955.79  83.407
 52.5736  6910.05  82.6218
 52.6156  7009.64  83.8464
 52.6576  6840.2  82.2568
 52.6996  6656.99  82.1358
 52.7416  6702.41  82.2554
 52.7836  6721.55  82.2731
 52.8256  6871.13  82.381
 52.8676  6766.26  82.3346
 52.9096  6784.13  82.5167
 52.9516  6799.12  83.0076
 52.9936  6778.82  83.2577
 53.0356  6820.04  82.4933
 53.0776  6905.18  83.3148
 53.1196  6842.75  83.0379
 53.1616  6701.63  82.222
 53.2036  6659.24  81.93
 53.2456  6731.11  82.4757
 53.2876  6830.03  82.7553
 53.3296  6744.64  82.5822
 53.3716  6766.83  82.5247
 53.4136  6614.64  81.6805
 53.4556  6679  82.1049
 53.4976  6594.19  81.4158
 53.5396  6678.51  82.3425
 53.5816  6762.94  82.4864
 53.6236  6743.61  82.7281
 53.6656  6755.59  82.4041
 53.7076  6744.33  82.306
 53.7496  6859.57  83.1157
 53.7916  6693.43  82.2481
 53.8336  6729.73  82.3615
 53.8756  6683.9  82.5972
 53.9176  6707.09  82.1037
 53.9596  6503.81  81.6311
 54.0016  6517.4  81.0347
 54.0436  6399.93  80.5122
 54.0856  6646.45  81.4761
 54.1276  6527.24  80.9381
 54.1696  6488.75  80.8668
 54.2116  6591.73  81.2517
 54.2536  6572.05  80.9398
 54.2956  6478.37  80.4172
 54.3376  6486.21  80.9483
 54.3796  6425.98  80.4796
 54.4216  6505.35  81.0236
 54.4636  6406.53  80.3628
 54.5056  6506.98  80.7994
 54.5476  6450.89  80.7867
 54.5896  6553.39  81.266
 54.6316  6462.77  80.5478
 54.6736  6363.85  80.0115
 54.7156  6385.85  80.1779
 54.7576  6296.54  79.6023
 54.7996  6484.36  80.9197
 54.8416  6388.93  80.3653
 54.8836  6456.21  80.8913
 54.9256  6394.24  80.2588
 54.9676  6292.54  79.4874
 55.0096  6420.67  80.3299
 55.0516  6331.43  79.9436
 55.0936  6387.25  80.0265
 55.1356  6258.17  79.2564
 55.1776  6473.32  80.8308
 55.2196  6333.16  79.7546
 55.2616  6511.68  81.0946
 55.3036  6380.36  80.4442
 55.3456  6376.53  80.658
 55.3876  6368.47  80.2394
 55.4296  6251.76  79.4958
 55.4716  6306.26  79.8687
 55.5136  6237.8  79.1633
 55.5556  6429.76  80.4591
 55.5976  6364.65  80.1313
 55.6396  6361.51  80.0495
 55.6816  6274.13  79.3677
 55.7236  6241.13  79.3281
 55.7656  6249.28  79.0036
 55.8076  6163.25  78.4624
 55.8496  6264.97  79.4127
 55.8916  6166.57  78.9889
 55.9336  6382.46  80.1781
 55.9756  6282.4  79.433
 56.0176  6252.67  79.3923
 56.0596  6240.46  79.3234
 56.1016  6266.59  79.5553
 56.1436  6217.47  79.4414
 56.1856  6145.21  78.7215
 56.2276  6296.74  79.7495
 56.2696  6284.08  79.6465
 56.3116  6279.23  79.9753
 56.3536  6193.32  79.0948
 56.3956  6208.54  79.1862
 56.4376  6125.1  78.6997
 56.4796  6080.5  78.2348
 56.5216  6230.09  79.5598
 56.5636  6061.93  78.0554
 56.6056  6307.9  79.8463
 56.6476  6142.16  78.4182
 56.6896  6288.45  79.8081
 56.7316  6155.96  78.8873
 56.7736  6107.52  78.7672
 56.8156  6165.41  78.9501
 56.8576  5974.06  77.6575
 56.8996  6153.63  78.7473
 56.9416  6042.81  78.1867
 56.9836  6168.63  78.6642
 57.0256  6121.13  78.6756
 57.0676  6131.12  78.8406
 57.1096  6030.71  78.0122
 57.1516  6022.59  78.0152
 57.1936  6114.46  78.3358
 57.2356  6038.41  78.1762
 57.2776  6178.92  79.0302
 57.3196  6201.51  79.5392
 57.3616  6078.56  78.2407
 57.4036  6155.79  78.8037
 57.4456  6215.11  79.141
 57.4876  6094.53  78.2679
 57.5296  5951.06  77.5602
 57.5716  6062.52  78.3889
 57.6136  5903.7  77.1887
 57.6556  6032.43  78.1283
 57.6976  6130.16  78.6092
 57.7396  6005.3  78.1435
 57.7816  5989.21  78.3954
 57.8236  5988.06  78.199
 57.8656  6093.54  78.5381
 57.9076  5992.79  77.9195
 57.9496  6001.82  78.3136
 57.9916  5953.71  77.4824
 58.0336  5967.32  77.8983
 58.0756  6139.02  78.6379
 58.1176  5972.52  77.5473
 58.1596  5929.38  77.8679
 58.2016  5740.73  75.8807
 58.2436  5924.44  77.4716
 58.2856  5839.44  76.8353
 58.3276  5736.67  76.5129
 58.3696  5774.91  76.5228
 58.4116  5651.98  75.5834
 58.4536  5845.92  76.7604
 58.4956  5724.59  76.1305
 58.5376  5846.64  76.5184
 58.5796  5687.26  76.0005
 58.6216  5881.2  76.9822
 58.6636  5827.22  76.8325
 58.7056  5813.41  76.6033
 58.7476  5731.09  76.3582
 58.7896  5810.59  76.6736
 58.8316  5798.72  76.5905
 58.8736  5803.74  76.6318
 58.9156  5710.29  76.0552
 58.9576  5749.56  76.5239
 58.9996  5779.23  76.1045
 59.0416  5806.95  76.6268
 59.0836  5818.3  76.6153
 59.1256  5756.18  76.586
 59.1676  5756.9  77.2098
 59.2096  5688.14  76.067
 59.2516  5793.14  76.3555
 59.2936  5780.15  76.5908
 59.3356  5675.72  75.7773
 59.3776  5560.74  75.168
 59.4196  5793.62  76.662
 59.4616  5653.12  75.5924
 59.5036  5663.25  75.6944
 59.5456  5825.03  76.4667
 59.5876  5661.75  75.5178
 59.6296  5679.44  75.7575
 59.6716  5798.45  76.6039
 59.7136  5780.43  76.4733
 59.7556  5704.17  76.0998
 59.7976  5586.31  75.0615
 59.8396  5604.45  75.0815
 59.8816  5744.67  76.6169
 59.9236  5736.6  76.1458
 59.9656  5655.33  75.8547
 60.0076  5759.15  75.9223
 60.0496  5759.22  76.4145
 60.0916  5590.57  74.7278
 60.1336  5661.2  76.2704
 60.1756  5717.61  77.8017
 60.1996  0.0000000E+00  0.0000000E+00