File: docs/examples/XRD/IS17_D/Data/IS17_D/17_Da_f00145.xye
# /beamlines/bl04/projects/cycle2025-II/20250340211-lsimonelli/DATA/IS17_D/17_Da_f00145.xye : mythproc.py merge -s 0.006 -l 0.5 -f /beamlines/bl04/inhouse/ff/FlatField/ff_20Nov2024rod8mm60s_17keV.raw -b True -c true -o xye /beamlines/bl04/projects/cycle2025-II/20250340211-lsimonelli/DATA/IS17_D/17_Da_00145.dat
# IsMon = [6784329, 6787997, 6791467]  IsPos = [-1.4999, -2.4884, -3.4988]
# Wave = 0.4962  CalPath /beamlines/bl04/projects/cycle2025-II/20250340211-lsimonelli/DATA/Align/Si_Pos1_25keV_f00001.cal
# Date = 2025-09-25_09:58:56 Dt = 4.8000  Bin = 0.0060  <imon> = 6787931 +/- 2914 (Min/Max) 6784329 / 6791467
# icurr 252.8055  mocoIn 1.7250E-05  mocoOut 0.8091  i15 7.10628e+06  imon 6.78793e+06  i7 7.0000  iEMpd_timer 4.8000  iEMpd_1 3.5031E-08  iEMpd_2 7.9304E-08  iEMpd_3 1.8265E-08  iEMpd_4 4.8955E-08  iEMhp_timer 4.8000  iEMhp_1 4.9377E-06  iEMhp_2 -2.5486E-08  iEMhp_3 -2.4146E-08  iEMhp_4 -2.1886E-08
#      9776
 1.5856  41790.8  209.971
 1.6276  48902.4  223.237
 1.6696  54863.4  235.618
 1.7116  63323.3  253.628
 1.7536  73185  271.502
 1.7956  77118.4  279.399
 1.8376  73732.9  273.63
 1.8796  61935.4  248.934
 1.9216  50263.8  225.155
 1.9636  42442.7  206.05
 2.0056  37692.2  193.424
 2.0476  35225.3  189.037
 2.0896  33904.8  184.372
 2.1316  32804.6  180.484
 2.1736  31024.1  176.91
 2.2156  32081.7  178.457
 2.2576  30667.8  175.106
 2.2996  29628.5  172.744
 2.3416  29937.5  172.256
 2.3836  28832.4  169.152
 2.4256  28409.9  168.455
 2.4676  27416.2  165.248
 2.5096  27841.2  166.579
 2.5516  27414.7  169.098
 2.5936  29771.4  172.646
 2.6356  26462.4  163.472
 2.6776  26473.3  162.388
 2.7196  26002.7  161.462
 2.7616  25933.6  161.026
 2.8036  25397  159.522
 2.8456  25805  161.412
 2.8876  25084.4  159.018
 2.9296  24531.5  157.386
 2.9716  24516.3  156.832
 3.0136  24187.9  155.843
 3.0556  24315.6  156.648
 3.0976  24186.3  155.17
 3.1396  23966.4  155.174
 3.1816  23661.1  154.121
 3.2236  23643.7  154.059
 3.2656  23653.6  153.125
 3.3076  23492.3  154.061
 3.3496  23794.7  153.983
 3.3916  23945.2  154.301
 3.4336  24538  156.777
 3.4756  24988.4  158.141
 3.5176  25986.1  161.054
 3.5596  25623.9  162.352
 3.6016  25790.2  160.482
 3.6436  24947.1  158.939
 3.6856  24698.3  156.434
 3.7276  23715.1  154.384
 3.7696  23413.6  153.577
 3.8116  23109.2  152.477
 3.8536  23291.5  153.009
 3.8956  23177.8  152.46
 3.9376  22952.7  151.969
 3.9796  22966.2  151.524
 4.0216  23041.5  150.801
 4.0636  22945  151.965
 4.1056  22927.7  151.544
 4.1476  23158.3  152.634
 4.1896  23505.3  153.618
 4.2316  23503.8  153.443
 4.2736  24145.7  155.312
 4.3156  24321  156.096
 4.3576  25131.4  158.608
 4.3996  25392.2  159.691
 4.4416  25786  160.508
 4.4836  26443.4  162.697
 4.5256  26633  163.899
 4.5676  26572.5  163.96
 4.6096  27051  164.091
 4.6516  27493.6  165.129
 4.6936  27732.5  166.652
 4.7356  27713.8  166.433
 4.7776  27884.6  166.769
 4.8196  27744.7  167.018
 4.8616  27104  164.555
 4.9036  26763.1  163.27
 4.9456  26759.1  163.898
 4.9876  26150.1  161.922
 5.0296  26514.5  162.852
 5.0716  26393.5  163.265
 5.1136  26429.2  163.093
 5.1556  26983  164.245
 5.1976  27423.8  165.59
 5.2396  27437.5  165.316
 5.2816  27447.8  165.821
 5.3236  27611.8  166.01
 5.3656  26922.8  164.848
 5.4076  26724.3  164.394
 5.4496  27014.9  164.757
 5.4916  27272.7  165.305
 5.5336  27154.5  164.946
 5.5756  26928.9  164.302
 5.6176  27237  164.661
 5.6596  27236.3  165.646
 5.7016  27487.1  165.662
 5.7436  27836.2  166.982
 5.7856  27662.7  166.526
 5.8276  28154.9  167.712
 5.8696  28157.3  167.895
 5.9116  28019.2  168.096
 5.9536  28183.9  168.346
 5.9956  28759.5  169.406
 6.0376  28640  169.698
 6.0796  28881.5  170.242
 6.1216  28957.8  170.663
 6.1636  29036.7  169.951
 6.2056  29056.1  170.676
 6.2476  29076.6  170.617
 6.2896  29570.3  171.737
 6.3316  29337  171.244
 6.3736  29403.1  171.321
 6.4156  29479.2  171.442
 6.4576  29560.6  171.276
 6.4996  29879.8  172.674
 6.5416  29819.8  172.648
 6.5836  29922.5  173.172
 6.6256  29945.1  172.804
 6.6676  30548.2  174.098
 6.7096  30198.9  173.966
 6.7516  30723.4  175.112
 6.7936  30883.5  174.992
 6.8356  31062.7  175.577
 6.8776  31410.3  177.36
 6.9196  31274.8  177.386
 6.9616  31961.2  178.761
 7.0036  32103.4  178.809
 7.0456  32316.7  178.686
 7.0876  31982.4  179.459
 7.1296  32116.1  178.967
 7.1716  32198.2  178.728
 7.2136  31852.9  177.546
 7.2556  32183.1  178.629
 7.2976  32195.8  179.166
 7.3396  32020.7  178.893
 7.3816  32127.1  179.405
 7.4236  32401.1  179.455
 7.4656  32538.8  179.317
 7.5076  32767.7  180.081
 7.5496  32671  180.348
 7.5916  32945.5  181.145
 7.6336  33215.2  181.78
 7.6756  33234.8  181.684
 7.7176  33546.7  182.853
 7.7596  33465.5  183.883
 7.8016  34044.6  187.673
 7.8436  34510.5  185.563
 7.8856  34545.4  185.264
 7.9276  35348.1  187.797
 7.9696  35695  189.041
 8.0116  36307.8  189.178
 8.0536  36835.1  190.807
 8.0956  36535.3  191.22
 8.1376  36993.9  191.879
 8.1796  37322.9  193.289
 8.2216  38038.8  193.849
 8.2636  37952.7  193.878
 8.3056  38209.6  195.308
 8.3476  38602.8  195.629
 8.3896  38526.8  195.525
 8.4316  38676.3  196.072
 8.4736  38786.1  195.806
 8.5156  38427.8  195.182
 8.5576  37893.7  194.814
 8.5996  38087.4  194.16
 8.6416  38123.2  195.533
 8.6836  37917.7  194.822
 8.7256  38691.6  196.251
 8.7676  38101.9  197.696
 8.8096  37931.3  194.537
 8.8516  37339.6  192.624
 8.8936  37174.1  192.078
 8.9356  36938  191.834
 8.9776  37219.7  192.651
 9.0196  37122.4  192.084
 9.0616  37508.3  192.534
 9.1036  36741.7  191.748
 9.1456  36819.7  191.288
 9.1876  36864.3  191.366
 9.2296  36908.7  190.864
 9.2716  36094.8  188.832
 9.3136  36567.1  190.037
 9.3556  36651  190.241
 9.3976  35225.5  187.054
 9.4396  35649.8  188.053
 9.4816  34908.9  185.963
 9.5236  35235.4  186.729
 9.5656  34910.4  186.179
 9.6076  34967.8  186.865
 9.6496  34566.1  185.728
 9.6916  34894.5  186.566
 9.7336  34654.2  185.712
 9.7756  34757.4  187.25
 9.8176  33898.1  184.449
 9.8596  33834.2  182.704
 9.9016  33308.9  181.275
 9.9436  33146.2  180.744
 9.9856  33042.7  180.702
 10.0276  32552.8  180.464
 10.0696  32612.6  179.66
 10.1116  31908.2  177.972
 10.1536  31829.2  177.921
 10.1956  31401  176.313
 10.2376  30815.6  174.173
 10.2796  31332.9  175.751
 10.3216  30863.9  174.7
 10.3636  30825.3  174.628
 10.4056  30522.4  174.156
 10.4476  30357.9  173.318
 10.4896  30843.6  174.143
 10.5316  30177.9  172.961
 10.5736  29846  172.434
 10.6156  29317.6  170.668
 10.6576  30032.8  171.266
 10.6996  29177.9  169.493
 10.7416  28962.2  169.107
 10.7836  29166.3  170.379
 10.8256  28633.2  169.251
 10.8676  28907.9  169.586
 10.9096  28314.4  167.876
 10.9516  28300.1  166.748
 10.9936  28198.9  166.651
 11.0356  28139.8  167.121
 11.0776  28131.4  166.394
 11.1196  27648.2  165.718
 11.1616  27372.4  164.575
 11.2036  27654.4  165.272
 11.2456  27364.6  165.117
 11.2876  27288.5  164.621
 11.3296  27131.1  164.031
 11.3716  27447.3  164.677
 11.4136  27571.8  165.967
 11.4556  27685.9  165.962
 11.4976  28068.6  166.059
 11.5396  28150.1  166.473
 11.5816  27457.2  164.876
 11.6236  26786.6  163.07
 11.6656  26676.9  161.891
 11.7076  26272.8  161.502
 11.7496  25955.3  164.497
 11.7916  26067.7  160.125
 11.8336  25622.7  159.634
 11.8756  25439.6  158.608
 11.9176  25584.5  158.708
 11.9596  25238.1  157.829
 12.0016  25311.7  158.851
 12.0436  25215.4  157.977
 12.0856  25009  157.851
 12.1276  24976.3  157.661
 12.1696  24846.3  156.375
 12.2116  25167  157.371
 12.2536  24869.7  157.287
 12.2956  24860.7  156.577
 12.3376  24631.5  156.083
 12.3796  24833.5  157.177
 12.4216  24732.7  156.07
 12.4636  24501.3  156.261
 12.5056  24611.2  155.872
 12.5476  24796.7  155.986
 12.5896  24651  156.159
 12.6316  24234.1  155.01
 12.6736  24439.9  156.141
 12.7156  24324.5  155.646
 12.7576  24525.7  156.516
 12.7996  24739.7  155.83
 12.8416  24574.7  156.375
 12.8836  24867.1  157.118
 12.9256  25165.9  157.063
 12.9676  25152.4  157.45
 13.0096  25049.1  158.255
 13.0516  25167.7  157.642
 13.0936  25091.4  157.822
 13.1356  25448.9  157.9
 13.1776  25101.2  157.818
 13.2196  25258.3  157.962
 13.2616  25237.7  158.208
 13.3036  25288.4  158.342
 13.3456  24999.5  157.786
 13.3876  25001  157.092
 13.4296  25021.1  157.301
 13.4716  24941.3  156.655
 13.5136  25240.8  157.744
 13.5556  25127.3  158.008
 13.5976  25235.5  158.494
 13.6396  25347.7  158.205
 13.6816  25198.1  158.247
 13.7236  25784.6  159.721
 13.7656  24712.8  156.904
 13.8076  25178  157.133
 13.8496  25027.9  157.281
 13.8916  24739  157.381
 13.9336  24847.3  156.932
 13.9756  24540.2  155.302
 14.0176  24595.3  156.162
 14.0596  24527.9  155.925
 14.1016  24317.8  155.651
 14.1436  24048.5  153.921
 14.1856  23801.8  153.419
 14.2276  23598.7  153.255
 14.2696  23793  153.721
 14.3116  23457.9  152.527
 14.3536  22986.8  151.172
 14.3956  23098.5  151.266
 14.4376  23262.3  151.573
 14.4796  23182.5  151.312
 14.5216  22809.8  150.894
 14.5636  22745.8  150.242
 14.6056  22791.2  149.963
 14.6476  22651.2  148.723
 14.6896  22317.9  148.173
 14.7316  21994.3  148.129
 14.7736  21862.7  146.832
 14.8156  21667.4  146.206
 14.8576  21557.5  145.688
 14.8996  21175.1  145.604
 14.9416  20737.2  144.084
 14.9836  20959.3  144.805
 15.0256  20679  142.749
 15.0676  20709.4  143.175
 15.1096  20672.9  142.783
 15.1516  20262.3  141.926
 15.1936  20219.5  141.192
 15.2356  20025.2  140.793
 15.2776  19940.5  140.073
 15.3196  19585.8  139.838
 15.3616  19636.9  139.766
 15.4036  19368  138.67
 15.4456  19552  138.973
 15.4876  19240.1  137.533
 15.5296  19104.3  137.341
 15.5716  18930.5  136.306
 15.6136  18956  136.739
 15.6556  18892.3  135.728
 15.6976  18578.7  134.9
 15.7396  18701.1  135.732
 15.7816  18628.4  134.977
 15.8236  18240.8  134.264
 15.8656  18406.5  134.665
 15.9076  18044  133.158
 15.9496  18039.6  135.98
 15.9916  18080  136.573
 16.0336  17724.5  132.098
 16.0756  17846.4  132.857
 16.1176  17644.3  132.163
 16.1596  17182.5  131.614
 16.2016  17474.4  131.452
 16.2436  17209.5  130.846
 16.2856  17279.3  130.651
 16.3276  17014.4  130.067
 16.3696  17101.4  130.213
 16.4116  16942.7  130.077
 16.4536  17198.5  130.833
 16.4956  16923.9  129.534
 16.5376  16876.6  129.529
 16.5796  16806.7  128.612
 16.6216  16776.7  128.809
 16.6636  16887.9  129.372
 16.7056  16782.9  128.856
 16.7476  16719.6  128.136
 16.7896  16747.8  128.999
 16.8316  16758.3  129.014
 16.8736  16630  128.781
 16.9156  16770.5  129.652
 16.9576  16599.2  129.806
 16.9996  16584.1  130.234
 17.0416  16725.7  129.125
 17.0836  16461  127.865
 17.1256  16411  127.685
 17.1676  16277.3  127.155
 17.2096  16022  126.029
 17.2516  16150  126.308
 17.2936  16148.3  126.643
 17.3356  15707.7  124.899
 17.3776  15766.2  125.323
 17.4196  15948.5  125.73
 17.4616  15883.1  125.396
 17.5036  15592.8  124.605
 17.5456  15630  125.41
 17.5876  15454.5  123.743
 17.6296  15621.5  124.225
 17.6716  15517.7  124.388
 17.7136  15248.5  123.456
 17.7556  15220.4  123.633
 17.7976  15281.8  123.619
 17.8396  15210.3  122.822
 17.8816  15311.9  123.783
 17.9236  15093.7  122.71
 17.9656  15270.3  123.957
 18.0076  15311  123.691
 18.0496  15437  123.317
 18.0916  15375.7  123.625
 18.1336  15406.3  123.843
 18.1756  15607.2  124.163
 18.2176  15190.8  122.723
 18.2596  15148.8  122.29
 18.3016  15314.3  123.215
 18.3436  15459  123.8
 18.3856  15078.1  122.409
 18.4276  15088.9  122.112
 18.4696  14983.1  121.791
 18.5116  15144.5  122.734
 18.5536  15146.8  123.099
 18.5956  14706  120.849
 18.6376  14833.4  121.779
 18.6796  14855.7  121.19
 18.7216  15022.2  122.366
 18.7636  14596.1  120.611
 18.8056  14733.5  121.115
 18.8476  14511  120.821
 18.8896  14587.1  120.469
 18.9316  14790  121.285
 18.9736  14583.5  120.131
 19.0156  14648.5  120.812
 19.0576  14650  119.671
 19.0996  14749.3  120.788
 19.1416  14385.3  119.693
 19.1836  14536.8  119.914
 19.2256  14347.8  119.339
 19.2676  14495.5  120.053
 19.3096  14533.3  120.455
 19.3516  14440.7  120.031
 19.3936  14564.5  120.446
 19.4356  14433.7  119.773
 19.4776  14491.7  120.112
 19.5196  14374.1  119.476
 19.5616  14306.7  119.451
 19.6036  14506.7  119.766
 19.6456  14365.3  119.309
 19.6876  14448.3  119.288
 19.7296  14480.1  119.893
 19.7716  14340.4  119.469
 19.8136  14549.8  120.561
 19.8556  14802  121.062
 19.8976  14767  120.986
 19.9396  14848.6  120.887
 19.9816  15131.1  122.277
 20.0236  15132.7  122.51
 20.0656  15005.5  121.984
 20.1076  14594.9  120.783
 20.1496  14310.2  119.602
 20.1916  14095.8  118.22
 20.2336  14211.7  118.634
 20.2756  13993.7  118.151
 20.3176  13949.5  117.711
 20.3596  13982.2  117.82
 20.4016  13762.2  116.696
 20.4436  13825.4  117.516
 20.4856  13734.8  116.937
 20.5276  13616.2  116.886
 20.5696  13741.7  116.881
 20.6116  13553.5  116.353
 20.6536  13726.5  116.6
 20.6956  13610.2  116.225
 20.7376  13573.7  116.296
 20.7796  13603.1  116.109
 20.8216  13594  115.776
 20.8636  13547.7  115.956
 20.9056  13597.8  116.116
 20.9476  13284.7  114.617
 20.9896  13728.3  116.369
 21.0316  13618.8  115.797
 21.0736  13403  115.398
 21.1156  13481  115.897
 21.1576  13586.7  116.406
 21.1996  13339.9  115.322
 21.2416  13363.3  115.26
 21.2836  13426.4  115.479
 21.3256  13264.1  114.878
 21.3676  13579.8  115.77
 21.4096  13341.4  115.064
 21.4516  13199.7  114.331
 21.4936  13072.8  114.034
 21.5356  13149.2  114.305
 21.5776  13426.7  115.337
 21.6196  13106.9  113.984
 21.6616  13208.6  114.523
 21.7036  13117.6  113.908
 21.7456  13195.1  114.316
 21.7876  13122  113.752
 21.8296  13034.2  113.221
 21.8716  13062.8  113.585
 21.9136  13133  114.09
 21.9556  13044.4  113.373
 21.9976  13079.7  113.534
 22.0396  12880.8  112.935
 22.0816  12974.1  113.881
 22.1236  12977.1  113.346
 22.1656  13082.5  113.929
 22.2076  13070.1  113.333
 22.2496  12990.5  113.021
 22.2916  12996.8  112.923
 22.3336  13029.9  113.808
 22.3756  12946.3  113.155
 22.4176  12909.3  112.846
 22.4596  12835.8  113.116
 22.5016  12871.8  112.757
 22.5436  13166.4  113.927
 22.5856  12926.7  113.139
 22.6276  12954.5  113.404
 22.6696  12997.5  113.932
 22.7116  12955.8  113.271
 22.7536  12989.8  113.391
 22.7956  12960.6  112.585
 22.8376  12870.3  112.716
 22.8796  13051.5  113.308
 22.9216  13060.3  113.895
 22.9636  13000.4  112.779
 23.0056  12872  112.35
 23.0476  13023.7  113.589
 23.0896  13312.1  114.21
 23.1316  13139.1  113.906
 23.1736  12917.3  115.941
 23.2156  13056.6  113.893
 23.2576  12984.9  113.724
 23.2996  13026.1  113.672
 23.3416  12859.6  113.485
 23.3836  12937.6  113.043
 23.4256  12983.7  113.364
 23.4676  12920.8  112.781
 23.5096  12746.3  112.695
 23.5516  12716.1  111.842
 23.5936  12930  113.691
 23.6356  13011.2  113.713
 23.6776  12948.2  113.635
 23.7196  12703.3  112.143
 23.7616  12880.3  112.835
 23.8036  12842  112.714
 23.8456  12794.6  112.064
 23.8876  12624  111.679
 23.9296  12563.6  111.906
 23.9716  12719.6  111.769
 24.0136  12523.5  111.81
 24.0556  12487  111.387
 24.0976  12596.3  111.676
 24.1396  12429.9  113.621
 24.1816  12537.7  112.509
 24.2236  12331.3  111.193
 24.2656  12226.2  110.189
 24.3076  12316.5  110.845
 24.3496  12233  110.358
 24.3916  12203.2  110.278
 24.4336  12084.5  109.949
 24.4756  12148  110.094
 24.5176  11963.8  108.914
 24.5596  11934.5  108.907
 24.6016  11942.6  109.236
 24.6436  11923.3  108.632
 24.6856  12078.1  109.095
 24.7276  11898.6  108.596
 24.7696  11874.6  108.606
 24.8116  11845.7  108.652
 24.8536  11603.8  107.536
 24.8956  11639.6  107.439
 24.9376  11647.6  107.415
 24.9796  11590.5  107.503
 25.0216  11419.7  106.827
 25.0636  11411.9  106.436
 25.1056  11465.6  107.4
 25.1476  11602.2  109.714
 25.1896  11587.8  108.1
 25.2316  11623.5  107.515
 25.2736  11583.8  106.992
 25.3156  11471.4  106.546
 25.3576  11427.5  106.769
 25.3996  11469.1  106.945
 25.4416  11491.7  107.033
 25.4836  11295.8  106.641
 25.5256  11298.2  106.017
 25.5676  11442.5  106.416
 25.6096  11274.6  106.214
 25.6516  11375.9  106.181
 25.6936  11141.2  105.398
 25.7356  11403  106.765
 25.7776  11318  105.964
 25.8196  11141.8  105.374
 25.8616  11244  105.768
 25.9036  11382.3  105.885
 25.9456  11287.7  106.05
 25.9876  11133.4  105.385
 26.0296  11353.1  105.927
 26.0716  11161.7  105.457
 26.1136  11295.2  106.025
 26.1556  11176.7  104.838
 26.1976  11115.1  105.49
 26.2396  11272.6  105.365
 26.2816  11127  105.305
 26.3236  11281.9  106.2
 26.3656  11048.6  104.821
 26.4076  11282  106.135
 26.4496  11851.2  108.228
 26.4916  11249.3  105.468
 26.5336  11099.2  105.09
 26.5756  11702.6  107.701
 26.6176  11114.1  105.067
 26.6596  10860.1  104.169
 26.7016  10936.1  104.291
 26.7436  10788  103.723
 26.7856  10970.2  104.57
 26.8276  10964.2  104.495
 26.8696  10966.6  104.379
 26.9116  10948.7  104.232
 26.9536  10862.5  103.871
 26.9956  10862.8  103.899
 27.0376  10763  103.648
 27.0796  10781.1  103.463
 27.1216  10663.2  102.976
 27.1636  10697.4  103.303
 27.2056  10678.5  103.093
 27.2476  10589.9  102.666
 27.2896  10756.1  103.575
 27.3316  10663.6  102.843
 27.3736  10644.5  103.011
 27.4156  10518  102.251
 27.4576  10581.2  102.789
 27.4996  10544.9  102.209
 27.5416  10567  102.632
 27.5836  10526.7  102.253
 27.6256  10895.8  104.195
 27.6676  10903.9  104.249
 27.7096  10576.7  102.546
 27.7516  10418.3  101.922
 27.7936  10509.6  102.544
 27.8356  10610.5  102.647
 27.8776  10486.1  102.093
 27.9196  10473.2  101.877
 27.9616  10463.6  102.024
 28.0036  10354.1  101.457
 28.0456  10483.9  102.22
 28.0876  10263.6  101.234
 28.1296  10273.7  101.127
 28.1716  10302.2  101.285
 28.2136  10336.1  101.407
 28.2556  10167  100.699
 28.2976  10138.6  100.539
 28.3396  10300.7  101.093
 28.3816  10300.1  101.116
 28.4236  10231.8  100.933
 28.4656  10143  100.534
 28.5076  10229.5  100.593
 28.5496  10202.1  100.72
 28.5916  10176.8  100.399
 28.6336  10052  100.136
 28.6756  10171.8  99.9178
 28.7176  10073.9  99.986
 28.7596  9991.13  99.4734
 28.8016  10096.9  100.033
 28.8436  9978.75  99.6825
 28.8856  10110.8  100.197
 28.9276  10028.5  100.036
 28.9696  10051.8  99.8019
 29.0116  10086.8  100.162
 29.0536  9891.61  99.3899
 29.0956  9934.5  99.3259
 29.1376  9970.36  99.468
 29.1796  9991.78  99.6237
 29.2216  9927.69  99.1407
 29.2636  9971.42  99.4404
 29.3056  9929.55  99.0156
 29.3476  9969.91  99.7468
 29.3896  10002.8  99.9979
 29.4316  10140.7  100.009
 29.4736  9930.38  99.0259
 29.5156  10037.9  99.4837
 29.5576  9851.81  99.3094
 29.5996  9990.83  99.2508
 29.6416  9906.24  98.949
 29.6836  9957.06  99.125
 29.7256  9901.38  99.4255
 29.7676  9989.19  99.5151
 29.8096  9842.28  98.7276
 29.8516  9713.04  98.4105
 29.8936  9818.15  99.0361
 29.9356  10077.4  100.086
 29.9776  9752.92  98.6164
 30.0196  9797.64  98.2278
 30.0616  9830.79  98.7673
 30.1036  9788.59  98.3826
 30.1456  9794.53  98.6408
 30.1876  9841.68  98.8653
 30.2296  9795.06  98.5682
 30.2716  9840.38  98.4327
 30.3136  9803.98  99.1201
 30.3556  9766.82  98.9562
 30.3976  9641.06  99.8529
 30.4396  9849.22  98.2236
 30.4816  9817.1  97.6486
 30.5236  9685.74  97.0186
 30.5656  9661.19  97.5463
 30.6076  9703.32  97.1858
 30.6496  9792.2  98.0175
 30.6916  9629.16  97.2842
 30.7336  9595.08  97.2726
 30.7756  9588.36  97.3316
 30.8176  9624.1  97.4277
 30.8596  9626.51  97.2047
 30.9016  9653.18  97.6877
 30.9436  9627.3  97.3042
 30.9856  9781.64  98.2046
 31.0276  9656.46  97.1638
 31.0696  9448.08  96.6926
 31.1116  9414.8  96.4965
 31.1536  9531.27  96.9669
 31.1956  9328.05  96.0198
 31.2376  9465.95  96.7298
 31.2796  9371.87  95.7938
 31.3216  9488.39  96.3317
 31.3636  9502.73  97.1005
 31.4056  9643.94  99.1643
 31.4476  9494.9  96.2705
 31.4896  9338.51  95.9778
 31.5316  9561.05  96.5008
 31.5736  9619.44  96.5979
 31.6156  9489.32  95.9787
 31.6576  9593.54  96.5973
 31.6996  9574.83  96.1756
 31.7416  9395.75  96.3405
 31.7836  9474.5  95.7507
 31.8256  9359.32  95.4444
 31.8676  9438.63  95.8416
 31.9096  9260.28  95.287
 31.9516  9260.04  95.4493
 31.9936  9205.88  94.9903
 32.0356  9266.38  95.3734
 32.0776  9493.37  96.4139
 32.1196  9415.78  96.1078
 32.1616  9382.48  95.3951
 32.2036  9144.14  94.6881
 32.2456  9425.44  96.5186
 32.2876  9326.61  95.4971
 32.3296  9274.64  95.1999
 32.3716  9242.94  95.126
 32.4136  9335.87  95.8182
 32.4556  9314.37  95.0866
 32.4976  9340.96  95.1199
 32.5396  9264.45  94.8109
 32.5816  9175.77  94.482
 32.6236  9283.93  95.1052
 32.6656  9319.59  95.8302
 32.7076  9169.92  94.7131
 32.7496  9179.16  94.4202
 32.7916  9273.07  94.8697
 32.8336  9257.31  94.8805
 32.8756  9307.03  94.8528
 32.9176  9090.99  94.2345
 32.9596  9098.96  94.3472
 33.0016  9199.37  94.6579
 33.0436  9202.03  94.8439
 33.0856  9118.02  94.4784
 33.1276  9077.97  94.0057
 33.1696  9216.24  94.5626
 33.2116  9279.3  95.1149
 33.2536  9144.11  94.425
 33.2956  9107.82  94.3166
 33.3376  9098.21  94.0049
 33.3796  9174.63  94.5969
 33.4216  9229.35  94.4758
 33.4636  9136.83  94.1533
 33.5056  9059.81  93.997
 33.5476  8964.66  93.5024
 33.5896  9201.21  94.4908
 33.6316  9010.52  93.8283
 33.6736  8940.74  93.7033
 33.7156  8961.13  93.8601
 33.7576  9092.08  94.1584
 33.7996  9045.94  93.6741
 33.8416  8970.44  93.4849
 33.8836  9133.88  94.0948
 33.9256  8987.46  93.4154
 33.9676  8975.09  93.2413
 34.0096  8923.05  93.2929
 34.0516  8743.65  91.9816
 34.0936  8944.96  93.3074
 34.1356  8919.86  92.9147
 34.1776  8894.09  92.7905
 34.2196  8838.68  92.6835
 34.2616  8811.03  92.6734
 34.3036  8747.82  92.5965
 34.3456  8912.36  93.2029
 34.3876  8806.86  92.6231
 34.4296  8793.92  92.2325
 34.4716  8978.14  93.3486
 34.5136  8856.29  92.9223
 34.5556  8807.46  92.9143
 34.5976  8862.45  93.0115
 34.6396  8814.47  92.4687
 34.6816  8853.52  92.7919
 34.7236  8832.94  92.4594
 34.7656  8817.03  92.5739
 34.8076  8704.01  92.3073
 34.8496  8788.16  92.6029
 34.8916  8815.52  92.6135
 34.9336  8911.19  93.0828
 34.9756  8739.04  92.0988
 35.0176  8835.14  93.1343
 35.0596  8710.89  92.3176
 35.1016  8742.71  92.2463
 35.1436  8774.43  92.0963
 35.1856  8703.98  91.8509
 35.2276  8713.87  92.0773
 35.2696  8625.85  91.8073
 35.3116  8753.4  92.5727
 35.3536  8657.26  91.7796
 35.3956  8649.11  91.4374
 35.4376  8623.57  91.8591
 35.4796  8761.32  92.655
 35.5216  8705.25  92.3147
 35.5636  8379.27  91.3146
 35.6056  8662.05  91.8439
 35.6476  8702.2  91.9561
 35.6896  8591.33  91.4558
 35.7316  8567.93  91.3027
 35.7736  8559.06  91.4592
 35.8156  8526.51  91.2865
 35.8576  8634.69  92.1148
 35.8996  8679.31  92.3206
 35.9416  8658.35  91.6959
 35.9836  8505.18  91.2397
 36.0256  8735.13  92.4856
 36.0676  8619.61  91.6265
 36.1096  8457.22  90.8906
 36.1516  8629.19  91.7025
 36.1936  8489.17  90.8056
 36.2356  8506.73  91.5473
 36.2776  8635.01  91.7017
 36.3196  8614.87  91.2628
 36.3616  8581.1  91.2164
 36.4036  8594.9  91.3446
 36.4456  8541.28  91.2807
 36.4876  8446.83  90.7086
 36.5296  8485.47  90.9592
 36.5716  8447.57  91.5425
 36.6136  8722.83  91.7498
 36.6556  8737.97  92.0378
 36.6976  8499.73  91.2825
 36.7396  8625.82  91.6854
 36.7816  8502.94  91.4072
 36.8236  8342.25  90.4582
 36.8656  8381.45  90.7524
 36.9076  8383.26  90.6363
 36.9496  8492.45  91.2062
 36.9916  8529.84  91.0326
 37.0336  8556.43  91.492
 37.0756  8537.94  91.1844
 37.1176  8383.66  90.6282
 37.1596  8469.53  91.0939
 37.2016  8390.62  90.9018
 37.2436  8493.84  90.7641
 37.2856  8318.21  90.0826
 37.3276  8384.87  89.7827
 37.3696  8280.4  90.1152
 37.4116  8347.98  90.3806
 37.4536  8290.03  89.9344
 37.4956  8243.56  89.722
 37.5376  8425.2  92.3003
 37.5796  8309.16  91.6178
 37.6216  7999.61  88.1676
 37.6636  8181.89  89.0768
 37.7056  8375.28  90.314
 37.7476  8271.94  89.2913
 37.7896  8257.85  89.695
 37.8316  7992.62  88.4386
 37.8736  8273.25  89.4833
 37.9156  8196.99  89.0824
 37.9576  8209.08  89.0347
 37.9996  8173.23  88.5381
 38.0416  8201.61  89.5306
 38.0836  8374.59  90.3546
 38.1256  8222.73  89.4835
 38.1676  8115.33  89.0553
 38.2096  8235.05  89.3375
 38.2516  8364.88  90.2343
 38.2936  8176.85  89.0236
 38.3356  8205.31  89.0812
 38.3776  8075.77  88.6588
 38.4196  8229.37  89.3417
 38.4616  8193.21  89.3821
 38.5036  8253.6  89.5506
 38.5456  8239.2  90.3334
 38.5876  8135.7  89.7938
 38.6296  8109.79  88.6261
 38.6716  8135.68  88.5591
 38.7136  8050.47  88.0359
 38.7556  7983.74  88.1786
 38.7976  8083.59  88.6652
 38.8396  8188.91  89.7008
 38.8816  7912.18  87.9409
 38.9236  8053.94  88.5476
 38.9656  8087.3  88.6423
 39.0076  8041.92  87.7981
 39.0496  8099.76  88.6555
 39.0916  8091.04  88.2339
 39.1336  8050.84  88.4469
 39.1756  8033.46  88.4255
 39.2176  8009.64  88.8251
 39.2596  8025.35  88.8347
 39.3016  8033.78  88.443
 39.3436  7943.51  88.379
 39.3856  8074.63  88.5485
 39.4276  8055.73  88.9504
 39.4696  8062.58  88.599
 39.5116  7980.96  88.6672
 39.5536  8220.5  90.4172
 39.5956  8120.34  88.9515
 39.6376  8186.8  89.3165
 39.6796  8030.14  88.202
 39.7216  8116.5  88.7679
 39.7636  8015.62  88.7876
 39.8056  8222.81  89.7001
 39.8476  7954.78  88.4901
 39.8896  8123.24  89.0452
 39.9316  8019.57  88.7269
 39.9736  8129.99  88.9026
 40.0156  7979.7  87.8979
 40.0576  8071.33  88.7697
 40.0996  8262.16  88.9843
 40.1416  8138.24  89.1139
 40.1836  8126.38  88.9319
 40.2256  8214.5  89.4625
 40.2676  8062.56  88.7387
 40.3096  8181.45  89.299
 40.3516  8228.31  89.6765
 40.3936  8263.41  89.4222
 40.4356  8142.36  88.9574
 40.4776  8173.46  89.5513
 40.5196  8190.9  89.7724
 40.5616  8094.49  88.8884
 40.6036  8114.74  89.2462
 40.6456  8201.16  89.3203
 40.6876  8140.76  88.9786
 40.7296  8208.12  89.4874
 40.7716  8086.6  88.9512
 40.8136  8121.21  89.0822
 40.8556  8144.59  89.3572
 40.8976  8165.54  89.3833
 40.9396  8163.73  89.7357
 40.9816  8173.52  89.0592
 41.0236  8141.32  88.6587
 41.0656  8150.82  89.2617
 41.1076  8211.69  89.3553
 41.1496  8169.88  89.0382
 41.1916  8089.89  88.9282
 41.2336  8062.8  88.7716
 41.2756  8127.84  88.727
 41.3176  8093.98  89.1672
 41.3596  8089.45  88.8593
 41.4016  8020.72  88.7404
 41.4436  8122.31  89.0955
 41.4856  8152.35  89.4212
 41.5276  7995.21  88.5758
 41.5696  8127.61  88.9337
 41.6116  8065.96  89
 41.6536  8098.79  89.0303
 41.6956  8098.81  89.0923
 41.7376  8066.88  88.9423
 41.7796  8013.97  88.5284
 41.8216  8052.33  88.9794
 41.8636  8192.07  89.6815
 41.9056  8064.85  88.773
 41.9476  8083.35  89.1104
 41.9896  8090.67  88.8219
 42.0316  8161.42  89.286
 42.0736  8037.24  88.719
 42.1156  7976.87  88.2202
 42.1576  8085.5  88.9143
 42.1996  8123.44  89.2674
 42.2416  8077.77  88.5936
 42.2836  7962.06  88.0753
 42.3256  7971.18  88.2372
 42.3676  8070.61  88.5979
 42.4096  8124.72  88.85
 42.4516  8065.64  88.6179
 42.4936  7873.8  87.6228
 42.5356  8008.31  88.5009
 42.5776  7991.33  88.3483
 42.6196  8140.54  89.2267
 42.6616  7939.63  88.2907
 42.7036  8059.01  88.3244
 42.7456  7987.49  88.2968
 42.7876  8046.95  88.7238
 42.8296  8040.14  88.5134
 42.8716  7923.74  88.0343
 42.9136  7908.81  87.7326
 42.9556  7979.03  88.2608
 42.9976  7973.33  88.1921
 43.0396  7922.9  87.6366
 43.0816  7871.5  87.7372
 43.1236  7921.89  88.0764
 43.1656  7958.32  88.1047
 43.2076  7890.3  87.8346
 43.2496  7931.92  87.8783
 43.2916  7861.16  87.8519
 43.3336  7910.59  87.9637
 43.3756  7950.86  87.9443
 43.4176  7774.29  87.0418
 43.4596  7810.51  87.0959
 43.5016  7910.55  88.0656
 43.5436  7802.39  87.3566
 43.5856  7822.12  87.4939
 43.6276  7807.47  87.3074
 43.6696  7774.68  87.381
 43.7116  7867.64  87.3994
 43.7536  7893.1  88.0363
 43.7956  7834.29  88.9047
 43.8376  7768.4  87.0596
 43.8796  7689.88  86.6968
 43.9216  7759.53  87.0051
 43.9636  7880.61  87.7905
 44.0056  7858.03  87.8963
 44.0476  7811.68  87.2655
 44.0896  7689.99  86.9291
 44.1316  7798.92  87.0614
 44.1736  7693.82  86.5858
 44.2156  7884.32  87.5083
 44.2576  7680.44  86.7056
 44.2996  7822.75  87.4749
 44.3416  7725.83  86.683
 44.3836  7584.09  86.2197
 44.4256  7621.68  86.0722
 44.4676  7547.49  85.8111
 44.5096  7653.15  86.5532
 44.5516  7512.32  85.7222
 44.5936  7565.72  85.9771
 44.6356  7673.82  86.324
 44.6776  7598.46  86.222
 44.7196  7635.71  86.7373
 44.7616  7673.59  88.303
 44.8036  7582.41  86.1889
 44.8456  7507.61  85.9711
 44.8876  7604.59  86.3733
 44.9296  7723.47  86.4906
 44.9716  7537.5  85.8748
 45.0136  7542.61  85.8394
 45.0556  7567.61  85.9631
 45.0976  7628.81  86.462
 45.1396  7364.62  84.7237
 45.1816  7589.1  85.9257
 45.2236  7596.28  85.8751
 45.2656  7479.11  85.7083
 45.3076  7555.52  85.9231
 45.3496  7519.53  86.0237
 45.3916  7529.47  86.3578
 45.4336  7508.72  86.0888
 45.4756  7321.11  84.8521
 45.5176  7428.79  85.1034
 45.5596  7607.96  86.2414
 45.6016  7550.89  86.337
 45.6436  7460.69  84.9954
 45.6856  7409.86  85.3582
 45.7276  7432.88  86.815
 45.7696  7437.94  86.511
 45.8116  7474.38  86.1643
 45.8536  7435.62  85.8444
 45.8956  7558.29  85.8938
 45.9376  7553.43  85.3276
 45.9796  7461.34  85.4905
 46.0216  7368.81  85.2967
 46.0636  7482.81  85.1044
 46.1056  7601.08  85.7566
 46.1476  7345.48  84.8926
 46.1896  7445.87  85.6219
 46.2316  7390.88  85.1726
 46.2736  7361.38  85.3713
 46.3156  7382.41  85.0774
 46.3576  7460.03  85.7306
 46.3996  7459.31  85.8882
 46.4416  7446.3  85.3831
 46.4836  7450  85.7661
 46.5256  7460.34  85.7627
 46.5676  7478.25  85.9799
 46.6096  7525.7  86.1812
 46.6516  7375.56  84.3664
 46.6936  7447.97  85.2685
 46.7356  7441.63  85.3506
 46.7776  7330.47  85.5363
 46.8196  7313.92  85.0348
 46.8616  7178.21  84.1863
 46.9036  7247.2  84.2507
 46.9456  7256.03  83.9419
 46.9876  7291.5  84.2318
 47.0296  7312.87  85.0366
 47.0716  7096.64  83.6021
 47.1136  7293.19  84.4319
 47.1556  7335.8  84.5423
 47.1976  7349.8  84.711
 47.2396  7217.56  84.3318
 47.2816  7127.34  83.5101
 47.3236  7276.22  84.7543
 47.3656  7303.76  84.8412
 47.4076  7221.7  84.16
 47.4496  7207.8  84.1781
 47.4916  7185.59  84.2364
 47.5336  7280.27  84.6064
 47.5756  7280.64  84.7307
 47.6176  7178.76  84.0267
 47.6596  7156.83  83.6156
 47.7016  7456.92  85.1705
 47.7436  7303.41  84.6276
 47.7856  7273.88  84.479
 47.8276  7185.82  84.0057
 47.8696  7186.56  84.1019
 47.9116  7225.7  84.0448
 47.9536  7213.79  83.9139
 47.9956  7098.78  83.9516
 48.0376  7155.52  84.0623
 48.0796  7314.08  85.1115
 48.1216  7389.48  85.3548
 48.1636  7371.71  84.842
 48.2056  7196.86  84.0898
 48.2476  7244.13  84.6762
 48.2896  7178.33  84.2024
 48.3316  7140.5  83.9171
 48.3736  7109.38  83.7625
 48.4156  7093.68  83.5163
 48.4576  7122.96  83.9846
 48.4996  7198.91  83.8843
 48.5416  7128.04  83.7989
 48.5836  7010.9  82.7848
 48.6256  7190.34  84.0472
 48.6676  7074.9  83.8651
 48.7096  7146.09  83.5649
 48.7516  7183.23  83.935
 48.7936  6978.15  82.7865
 48.8356  7074.54  83.4091
 48.8776  7105.33  84.1588
 48.9196  7199.55  84.0855
 48.9616  7067.16  83.688
 49.0036  7094.44  84.2018
 49.0456  7004.43  83.6381
 49.0876  7075.81  83.601
 49.1296  7000.64  83.3214
 49.1716  6945.78  82.867
 49.2136  7060.58  83.4733
 49.2556  6975.73  82.9941
 49.2976  7051.99  83.531
 49.3396  6972.64  83.1072
 49.3816  7076.58  83.1669
 49.4236  7146.6  83.9828
 49.4656  6906.44  82.5834
 49.5076  6916.59  82.3971
 49.5496  6944.84  82.6323
 49.5916  7078.71  83.3417
 49.6336  7013.68  83.1631
 49.6756  7030.36  83.4984
 49.7176  6915.17  82.746
 49.7596  6971.92  82.8526
 49.8016  7141.88  83.7789
 49.8436  6944.08  82.9011
 49.8856  6975.71  83.0969
 49.9276  6839.79  82.3814
 49.9696  6961.54  83.0924
 50.0116  6944.3  83.121
 50.0536  6989.83  83.3443
 50.0956  6890.99  82.825
 50.1376  6854.48  82.3035
 50.1796  6737.02  81.8618
 50.2216  6938.94  83.077
 50.2636  6850.17  82.1627
 50.3056  6853.15  82.3522
 50.3476  6874.3  82.5016
 50.3896  6824.82  82.1728
 50.4316  6805.17  81.8939
 50.4736  6820.55  82.2033
 50.5156  6882.63  82.5594
 50.5576  6956.35  82.771
 50.5996  6848.72  82.4033
 50.6416  6881.24  82.5255
 50.6836  6891.62  82.6542
 50.7256  6867.86  82.4292
 50.7676  6774.51  82.185
 50.8096  6866.48  82.2773
 50.8516  6908.03  82.9469
 50.8936  6753.44  81.7899
 50.9356  6794.42  82.1492
 50.9776  6858.44  82.6728
 51.0196  6755.48  82.1804
 51.0616  6829.73  81.9604
 51.1036  6853.33  82.4547
 51.1456  6838.34  82.2799
 51.1876  6835.08  81.5988
 51.2296  6786.84  81.9476
 51.2716  6664.68  80.9091
 51.3136  6719.08  81.6935
 51.3556  6772.4  81.6359
 51.3976  6706.15  81.3966
 51.4396  6542.49  80.7008
 51.4816  6693.85  81.4769
 51.5236  6818.99  82.3216
 51.5656  6772.41  81.645
 51.6076  6744.34  81.5593
 51.6496  6804.79  82.1086
 51.6916  6746.82  82.1229
 51.7336  6726.29  82.0822
 51.7756  6675.93  81.4795
 51.8176  6580.29  80.9894
 51.8596  6671.8  81.5728
 51.9016  6812.51  82.0361
 51.9436  6642.63  82.4517
 51.9856  6600.4  82.6356
 52.0276  6699.77  81.7603
 52.0696  6662.69  81.604
 52.1116  6780.9  82.4341
 52.1536  6597.3  81.1964
 52.1956  6731.46  81.4764
 52.2376  6767.38  81.8626
 52.2796  6579.08  80.5449
 52.3216  6451.95  80.4388
 52.3636  6634.25  81.1484
 52.4056  6579.85  80.6598
 52.4476  6649.83  81.468
 52.4896  6558.45  80.9568
 52.5316  6475.86  80.4935
 52.5736  6628.98  81.1468
 52.6156  6551.5  81.0656
 52.6576  6691.85  81.3644
 52.6996  6469.16  80.9726
 52.7416  6685.95  82.1514
 52.7836  6451.84  80.5833
 52.8256  6683.36  81.2322
 52.8676  6484.53  80.6062
 52.9096  6566.27  81.1976
 52.9516  6547.37  81.4492
 52.9936  6446.09  81.2067
 53.0356  6305.24  79.342
 53.0776  6357.52  79.9282
 53.1196  6363.2  80.0895
 53.1616  6396.01  80.342
 53.2036  6434.52  80.5369
 53.2456  6310.33  79.8572
 53.2876  6414.89  80.2237
 53.3296  6449.5  80.7659
 53.3716  6464.81  80.6132
 53.4136  6408.77  80.4069
 53.4556  6328.93  79.9343
 53.4976  6353.42  79.9375
 53.5396  6473.38  81.0774
 53.5816  6397.8  80.2443
 53.6236  6371.8  80.4164
 53.6656  6431.08  80.423
 53.7076  6475.44  80.6604
 53.7496  6364.7  80.0876
 53.7916  6497.2  81.0396
 53.8336  6391.65  80.2808
 53.8756  6247.45  79.9144
 53.9176  6450.27  80.5429
 53.9596  6455.29  81.3351
 54.0016  6420.93  80.4489
 54.0436  6448.84  80.8348
 54.0856  6462.36  80.3482
 54.1276  6367.68  79.956
 54.1696  6339.79  79.9552
 54.2116  6401.45  80.1015
 54.2536  6495.56  80.5014
 54.2956  6411.71  80.0207
 54.3376  6358.24  80.1701
 54.3796  6400.55  80.3373
 54.4216  6425.52  80.5367
 54.4636  6398.39  80.3325
 54.5056  6435.19  80.3807
 54.5476  6393.67  80.4581
 54.5896  6361.63  80.0824
 54.6316  6449.9  80.4953
 54.6736  6411.21  80.3243
 54.7156  6382.6  80.1645
 54.7576  6302.66  79.6679
 54.7996  6368.6  80.2176
 54.8416  6372.73  80.2896
 54.8836  6345.08  80.2369
 54.9256  6308.73  79.7539
 54.9676  6447.47  80.4751
 55.0096  6309.82  79.6853
 55.0516  6324.98  80.0073
 55.0936  6368.36  79.9111
 55.1356  6300.94  79.5363
 55.1776  6382.45  80.3225
 55.2196  6351.11  79.9027
 55.2616  6305.47  79.8279
 55.3036  6255.78  79.6656
 55.3456  6224.67  79.6172
 55.3876  6373.04  80.3041
 55.4296  6370.19  80.2622
 55.4716  6346.69  80.1519
 55.5136  6352.16  79.9408
 55.5556  6331.22  79.8866
 55.5976  6301.64  79.7552
 55.6396  6246  79.3502
 55.6816  6265.37  79.3497
 55.7236  6326.96  79.7729
 55.7656  6389.36  79.9272
 55.8076  6385.58  79.8854
 55.8496  6339.26  79.9174
 55.8916  6214.94  79.3369
 55.9336  6290.86  79.6373
 55.9756  6313.08  79.6635
 56.0176  6348.81  80.0436
 56.0596  6298.54  79.7106
 56.1016  6263.38  79.4931
 56.1436  6333.28  80.1978
 56.1856  6256.99  79.4547
 56.2276  6353.25  80.1215
 56.2696  6293.66  79.7205
 56.3116  6267.26  79.9625
 56.3536  6207.82  79.2371
 56.3956  6273.31  79.6448
 56.4376  6230.08  79.4009
 56.4796  6305.06  79.6737
 56.5216  6260.53  79.7672
 56.5636  6288.08  79.5329
 56.6056  6225.44  79.377
 56.6476  6305.56  79.5036
 56.6896  6296.96  79.9056
 56.7316  6303.23  79.8517
 56.7736  6315  79.9175
 56.8156  6319.64  79.9499
 56.8576  6226.45  79.2965
 56.8996  6366.03  80.1198
 56.9416  6279.12  79.871
 56.9836  6159.48  78.6279
 57.0256  6189.54  79.1366
 57.0676  6230.06  79.5227
 57.1096  6208.77  79.1734
 57.1516  6226.37  79.3403
 57.1936  6254.13  79.2713
 57.2356  6269.33  79.6846
 57.2776  6220.59  79.335
 57.3196  6331.25  80.4092
 57.3616  6217.71  79.1796
 57.4036  6245.67  79.4159
 57.4456  6160.98  78.8454
 57.4876  6277.13  79.443
 57.5296  6176.03  79.1374
 57.5716  6176.06  79.1307
 57.6136  6245.21  79.3837
 57.6556  6167.6  79.0333
 57.6976  6298.08  79.6837
 57.7396  6176.27  79.2819
 57.7816  6158.87  79.5363
 57.8236  6200.81  79.5943
 57.8656  6274.59  79.7108
 57.9076  6239.2  79.5252
 57.9496  6218.51  79.748
 57.9916  6097.13  78.4777
 58.0336  6241.08  79.6775
 58.0756  6144.21  78.6993
 58.1176  6170.5  78.8605
 58.1596  6162.07  79.3763
 58.2016  6217.34  78.9352
 58.2436  6187.67  79.1616
 58.2856  6286.01  79.7078
 58.3276  6192.09  79.4871
 58.3696  6186.71  79.2048
 58.4116  6256.12  79.5073
 58.4536  6258.18  79.4074
 58.4956  6191.84  79.164
 58.5376  6269.24  79.2247
 58.5796  6256.15  79.5683
 58.6216  6224.43  79.1779
 58.6636  6292.7  79.8313
 58.7056  6277.83  79.5936
 58.7476  6086.7  78.8174
 58.7896  6222.86  79.335
 58.8316  6168.58  78.9864
 58.8736  6343.74  80.1065
 58.9156  6195.92  79.2124
 58.9576  6288.36  80.1212
 58.9996  6334.46  79.6453
 59.0416  6428.73  80.6072
 59.0836  6275.9  79.5737
 59.1256  6104.95  79.1843
 59.1676  6119.11  79.5747
 59.2096  6247.01  79.7018
 59.2516  6370.93  80.0582
 59.2936  6353.09  80.2825
 59.3356  6223.83  79.3375
 59.3776  6266.84  79.7832
 59.4196  6233.52  79.506
 59.4616  6266.99  79.5764
 59.5036  6281.06  79.7018
 59.5456  6331.64  79.7081
 59.5876  6406.68  80.3758
 59.6296  6219.3  79.2619
 59.6716  6264.39  79.6078
 59.7136  6351.22  80.1455
 59.7556  6288.75  79.8896
 59.7976  6261.01  79.4507
 59.8396  6378.35  80.0832
 59.8816  6218.22  79.6222
 59.9236  6329.72  79.9708
 59.9656  6225.32  79.5731
 60.0076  6333.16  79.6015
 60.0496  6255.32  79.6233
 60.0916  6426.92  80.1081
 60.1336  6141.52  79.4256
 60.1756  6392.34  82.2493
 60.1996  0.0000000E+00  0.0000000E+00