File: docs/examples/XRD/IS17_D/Data/IS17_D/17_Da_f00099.xye
# /beamlines/bl04/projects/cycle2025-II/20250340211-lsimonelli/DATA/IS17_D/17_Da_f00099.xye : mythproc.py merge -s 0.006 -l 0.5 -f /beamlines/bl04/inhouse/ff/FlatField/ff_20Nov2024rod8mm60s_17keV.raw -b True -c true -o xye /beamlines/bl04/projects/cycle2025-II/20250340211-lsimonelli/DATA/IS17_D/17_Da_00099.dat
# IsMon = [6767523, 6767497, 6767923]  IsPos = [-1.4999, -2.4884, -3.4988]
# Wave = 0.4962  CalPath /beamlines/bl04/projects/cycle2025-II/20250340211-lsimonelli/DATA/Align/Si_Pos1_25keV_f00001.cal
# Date = 2025-09-24_21:08:51 Dt = 4.8000  Bin = 0.0060  <imon> = 6767648 +/- 195 (Min/Max) 6767497 / 6767923
# icurr 250.5404  mocoIn 1.7087E-05  mocoOut 0.8018  i15 7.08228e+06  imon 6.76765e+06  i7 4.0000  iEMpd_timer 4.8000  iEMpd_1 3.4446E-08  iEMpd_2 7.7799E-08  iEMpd_3 1.7266E-08  iEMpd_4 4.8447E-08  iEMhp_timer 4.8000  iEMhp_1 4.8939E-06  iEMhp_2 -2.4471E-08  iEMhp_3 -2.3910E-08  iEMhp_4 -2.2482E-08
#      9776
 1.5856  40862.7  207.573
 1.6276  47613.8  220.22
 1.6696  54474.4  234.721
 1.7116  62677.2  252.266
 1.7536  72200.8  269.601
 1.7956  77059.2  279.22
 1.8376  73041.9  272.275
 1.8796  61603.9  248.198
 1.9216  49677.5  223.781
 1.9636  41656  204.079
 2.0056  37840.2  193.753
 2.0476  34909.4  188.139
 2.0896  33921.4  184.37
 2.1316  32764.7  180.328
 2.1736  30996.3  176.786
 2.2156  31581.5  177.015
 2.2576  30597.2  174.859
 2.2996  29407.7  172.055
 2.3416  29696.9  171.517
 2.3836  29173.5  170.106
 2.4256  28113.8  167.532
 2.4676  27914.5  166.7
 2.5096  27599  165.81
 2.5516  27050.2  167.96
 2.5936  27224.9  165.097
 2.6356  26645.8  164.02
 2.6776  26894.2  163.665
 2.7196  26483.3  162.927
 2.7616  26183  161.781
 2.8036  25763.7  160.652
 2.8456  25708.8  161.093
 2.8876  25257.6  159.554
 2.9296  24905.9  158.559
 2.9716  24908.3  158.06
 3.0136  24372.6  156.419
 3.0556  24458.4  157.089
 3.0976  24295.7  155.503
 3.1396  24096.6  155.583
 3.1816  24064.2  155.403
 3.2236  23732.2  154.335
 3.2656  23865.6  153.799
 3.3076  23564.1  154.276
 3.3496  23846.8  154.136
 3.3916  23944.1  154.279
 3.4336  24610  156.988
 3.4756  24944.3  157.978
 3.5176  25725.7  160.231
 3.5596  25568.2  162.168
 3.6016  25644.1  160.027
 3.6436  24867.4  158.684
 3.6856  24553.9  155.971
 3.7276  23509.3  153.711
 3.7696  23310.1  153.254
 3.8116  22977.5  152.039
 3.8536  23054.3  152.225
 3.8956  23134.9  152.32
 3.9376  22821.6  151.537
 3.9796  22649  150.474
 4.0216  23075.8  150.92
 4.0636  22726.6  151.24
 4.1056  23018.9  151.851
 4.1476  22832.7  151.549
 4.1896  23229.2  152.721
 4.2316  23455.7  153.287
 4.2736  24090  155.13
 4.3156  24284.5  155.985
 4.3576  24707.2  157.269
 4.3996  25040.6  158.576
 4.4416  25397.3  159.292
 4.4836  26140.6  161.759
 4.5256  26518.7  163.538
 4.5676  26355  163.287
 4.6096  26903.4  163.63
 4.6516  27265.6  164.443
 4.6936  27753.2  166.724
 4.7356  27617.4  166.143
 4.7776  27689.2  166.192
 4.8196  27481.4  166.21
 4.8616  26913.4  163.975
 4.9036  26565.1  162.653
 4.9456  26702.9  163.718
 4.9876  25996  161.448
 5.0296  26341.4  162.328
 5.0716  26088.4  162.328
 5.1136  26596.2  163.606
 5.1556  26760.5  163.568
 5.1976  26951  164.144
 5.2396  26914.7  163.735
 5.2816  27177.9  164.992
 5.3236  27315.8  165.118
 5.3656  26839.2  164.592
 5.4076  26495.5  163.688
 5.4496  26488.2  163.15
 5.4916  26752.8  163.72
 5.5336  26762.2  163.758
 5.5756  26504.6  162.99
 5.6176  26824.2  163.407
 5.6596  26907.3  164.636
 5.7016  27011.3  164.222
 5.7436  27233.4  165.162
 5.7856  26962.3  164.402
 5.8276  27446.9  165.599
 5.8696  27597.5  166.216
 5.9116  27475.9  166.459
 5.9536  27645.5  166.718
 5.9956  28055.5  167.314
 6.0376  28144.9  168.224
 6.0796  28332.8  168.616
 6.1216  28423.4  169.089
 6.1636  28710.1  169
 6.2056  28796.9  169.923
 6.2476  28694.6  169.492
 6.2896  28992.3  170.047
 6.3316  28821.7  169.719
 6.3736  29062.4  170.325
 6.4156  29144.9  170.456
 6.4576  29244.2  170.355
 6.4996  29442  171.416
 6.5416  29233.1  170.94
 6.5836  29473.9  171.878
 6.6256  29352.4  171.081
 6.6676  30032.1  172.621
 6.7096  29841.8  172.923
 6.7516  30478.5  174.416
 6.7936  30500.9  173.905
 6.8356  30678.5  174.487
 6.8776  30717.5  175.402
 6.9196  30754.4  175.906
 6.9616  31475.7  177.4
 7.0036  31677.4  177.617
 7.0456  31908  177.552
 7.0876  31585.3  178.342
 7.1296  31569.8  177.439
 7.1716  31704.9  177.351
 7.2136  31598.7  176.839
 7.2556  31576.3  176.938
 7.2976  31619.7  177.557
 7.3396  31467.9  177.342
 7.3816  31388.5  177.332
 7.4236  31730.8  177.589
 7.4656  31869.4  177.462
 7.5076  32168.2  178.426
 7.5496  31824.7  178.006
 7.5916  32126.2  178.878
 7.6336  32393.5  179.52
 7.6756  32650.6  180.081
 7.7176  32782.8  180.748
 7.7596  32955.8  182.473
 7.8016  33120.3  185.103
 7.8436  33637.7  183.225
 7.8856  33999.2  183.818
 7.9276  34259.9  184.914
 7.9696  34516.6  185.919
 8.0116  35501.7  187.086
 8.0536  35926.4  188.464
 8.0956  35731.5  189.124
 8.1376  36163.4  189.739
 8.1796  36319.7  190.688
 8.2216  37294.6  191.964
 8.2636  37146.3  191.829
 8.3056  37298.4  192.997
 8.3476  37593.3  193.085
 8.3896  37131.1  191.978
 8.4316  37655.2  193.491
 8.4736  37747.3  193.193
 8.5156  37339.1  192.422
 8.5576  37096.9  192.77
 8.5996  36985.5  191.35
 8.6416  37060.5  192.807
 8.6836  36806.3  191.978
 8.7256  37367.2  192.873
 8.7676  36655  193.914
 8.8096  36570.8  191.01
 8.8516  36369  190.097
 8.8936  35825.3  188.566
 8.9356  35870.1  189.02
 8.9776  36103.2  189.729
 9.0196  35890.8  188.855
 9.0616  35935.7  188.449
 9.1036  35660.7  188.901
 9.1456  35779.5  188.579
 9.1876  35807.1  188.601
 9.2296  36112.3  188.812
 9.2716  34899.8  185.671
 9.3136  35067.2  186.095
 9.3556  35498.9  187.225
 9.3976  33985.2  183.71
 9.4396  34510.2  185.022
 9.4816  33726.5  182.764
 9.5236  34078.2  183.632
 9.5656  34082.1  183.955
 9.6076  33704.7  183.471
 9.6496  33526.8  182.914
 9.6916  33539.5  182.923
 9.7336  33510.8  182.621
 9.7756  33593.1  184.101
 9.8176  32430.9  180.392
 9.8596  32634.3  179.417
 9.9016  32279  178.429
 9.9436  31909.6  177.32
 9.9856  31684  176.92
 10.0276  30980.3  176.032
 10.0696  31390  176.237
 10.1116  30713.3  174.588
 10.1536  30375.9  173.791
 10.1956  29957.8  172.197
 10.2376  29514.4  170.425
 10.2796  29951.1  171.811
 10.3216  29516.9  170.83
 10.3636  29108.1  169.672
 10.4056  29099.8  170.041
 10.4476  29038.3  169.489
 10.4896  28967.4  168.742
 10.5316  28187.3  167.149
 10.5736  28280.7  167.832
 10.6156  27873.4  166.383
 10.6576  28289.3  166.198
 10.6996  27623.7  164.9
 10.7416  27375.7  164.387
 10.7836  27645.8  165.879
 10.8256  27196.8  164.95
 10.8676  27262.4  164.688
 10.9096  26967.7  163.834
 10.9516  26710.5  161.995
 10.9936  26729.1  162.244
 11.0356  26734.4  162.896
 11.0776  26590.1  161.775
 11.1196  26048.6  160.857
 11.1616  25833.3  159.887
 11.2036  26067.9  160.46
 11.2456  25962.4  160.834
 11.2876  25829.1  160.148
 11.3296  25646.7  159.485
 11.3716  26017.4  160.325
 11.4136  25976.5  161.097
 11.4556  26059.8  161.021
 11.4976  26247.8  160.575
 11.5396  26501.2  161.519
 11.5816  27060.8  163.68
 11.6236  26648.4  162.652
 11.6656  26237  160.542
 11.7076  25503.6  159.118
 11.7496  25226.8  162.194
 11.7916  25035.6  156.923
 11.8336  24973.1  157.604
 11.8756  24510.7  155.683
 11.9176  24680.1  155.872
 11.9596  24427.8  155.26
 12.0016  24226.5  155.408
 12.0436  24108.8  154.46
 12.0856  24013.1  154.675
 12.1276  24037  154.668
 12.1696  24079.7  153.946
 12.2116  24216  154.378
 12.2536  24031.8  154.617
 12.2956  23993.5  153.832
 12.3376  23744.9  153.241
 12.3796  24014.1  154.553
 12.4216  23853.9  153.269
 12.4636  23650.5  153.52
 12.5056  23769.8  153.185
 12.5476  23946.5  153.282
 12.5896  23874.5  153.688
 12.6316  23522.4  152.703
 12.6736  23379.1  152.72
 12.7156  23494.3  152.955
 12.7576  23699.7  153.863
 12.7996  23769.5  152.745
 12.8416  23681  153.501
 12.8836  23986.7  154.324
 12.9256  24253.5  154.192
 12.9676  24294.5  154.75
 13.0096  23957.1  154.757
 13.0516  24331  154.998
 13.0936  24197.5  154.972
 13.1356  24715  155.607
 13.1776  24358  155.461
 13.2196  24302.6  154.95
 13.2616  24381.7  155.508
 13.3036  24394.9  155.52
 13.3456  24333.3  155.676
 13.3876  24275.2  154.786
 13.4296  24363.2  155.22
 13.4716  24373.3  154.86
 13.5136  24284.7  154.733
 13.5556  24341.9  155.521
 13.5976  24445.7  155.999
 13.6396  24623.3  155.94
 13.6816  24117.9  154.813
 13.7236  24792.1  156.614
 13.7656  24051.2  154.779
 13.8076  24430.1  154.784
 13.8496  24065.1  154.216
 13.8916  23972.6  154.909
 13.9336  24027.2  154.324
 13.9756  24103.6  153.921
 14.0176  23781.8  153.563
 14.0596  24024.7  154.314
 14.1016  23600.2  153.337
 14.1436  23459.3  152.017
 14.1856  23069.9  151.043
 14.2276  22882.9  150.907
 14.2696  23074.7  151.38
 14.3116  22977.8  150.963
 14.3536  22501.8  149.571
 14.3956  22491.9  149.271
 14.4376  22677.6  149.664
 14.4796  22292.8  148.367
 14.5216  22186.2  148.816
 14.5636  21915.7  147.467
 14.6056  22206.8  148.029
 14.6476  22067.8  146.798
 14.6896  21647.2  145.921
 14.7316  21380.7  146.053
 14.7736  21250.7  144.761
 14.8156  21207.9  144.652
 14.8576  21052.5  143.97
 14.8996  20580.1  143.54
 14.9416  20307  142.583
 14.9836  20459.1  143.088
 15.0256  20269.7  141.348
 15.0676  20370.7  142.019
 15.1096  20004.6  140.474
 15.1516  19874.5  140.574
 15.1936  19795.1  139.721
 15.2356  19561.3  139.17
 15.2776  19381.4  138.118
 15.3196  19162.8  138.337
 15.3616  18963.7  137.372
 15.4036  18918.4  137.062
 15.4456  19055.9  137.216
 15.4876  18828.4  136.072
 15.5296  18687.8  135.852
 15.5716  18410.9  134.441
 15.6136  18352.4  134.559
 15.6556  18488.1  134.291
 15.6976  18222.8  133.615
 15.7396  18269.4  134.174
 15.7816  18022.3  132.778
 15.8236  17864.6  132.894
 15.8656  17982.2  133.119
 15.9076  17411.8  130.823
 15.9496  17480.7  133.85
 15.9916  17493.4  134.336
 16.0336  17145.1  129.911
 16.0756  17565  131.804
 16.1176  17218.1  130.566
 16.1596  16751.2  129.952
 16.2016  17048.3  129.845
 16.2436  16773.6  129.175
 16.2856  16628.5  128.168
 16.3276  16523.8  128.175
 16.3696  16833.7  129.19
 16.4116  16492.4  128.336
 16.4536  16812.4  129.362
 16.4956  16484  127.824
 16.5376  16360  127.53
 16.5796  16424.2  127.142
 16.6216  16241.9  126.735
 16.6636  16156  126.554
 16.7056  16259.6  126.825
 16.7476  16282.7  126.447
 16.7896  16264.2  127.124
 16.8316  16386.6  127.569
 16.8736  16273.7  127.384
 16.9156  16207.6  127.452
 16.9576  15910.4  127.078
 16.9996  16106.2  128.351
 17.0416  16233.4  127.206
 17.0836  16221.1  126.908
 17.1256  15950.2  125.861
 17.1676  15826.3  125.358
 17.2096  15776.1  125.044
 17.2516  15769.5  124.802
 17.2936  15771.6  125.133
 17.3356  15331.6  123.377
 17.3776  15521.9  124.329
 17.4196  15432.3  123.669
 17.4616  15223.3  122.748
 17.5036  15131.4  122.741
 17.5456  14988.7  122.795
 17.5876  15033.2  122.03
 17.6296  15028.1  121.83
 17.6716  14957.7  122.112
 17.7136  14536  120.519
 17.7556  14700.7  121.489
 17.7976  14661.6  121.073
 17.8396  14696.6  120.716
 17.8816  14625.4  120.967
 17.9236  14525.6  120.362
 17.9656  14779  121.948
 18.0076  14715.7  121.263
 18.0496  14604.8  119.948
 18.0916  14532.2  120.18
 18.1336  14538.8  120.306
 18.1756  14661.6  120.346
 18.2176  14347.3  119.275
 18.2596  14314  118.874
 18.3016  14453.4  119.701
 18.3436  14454.7  119.717
 18.3856  14156.7  118.608
 18.4276  14306.8  118.907
 18.4696  14270.4  118.857
 18.5116  14217.6  118.921
 18.5536  14325  119.725
 18.5956  14242.6  118.934
 18.6376  14240  119.328
 18.6796  14145.4  118.258
 18.7216  14299.6  119.383
 18.7636  13987.7  118.069
 18.8056  13988.2  118.011
 18.8476  14038.3  118.841
 18.8896  14029.9  118.148
 18.9316  14180.8  118.767
 18.9736  13939  117.447
 19.0156  14046.7  118.302
 19.0576  14011.5  117.027
 19.0996  14193.4  118.494
 19.1416  13831  117.361
 19.1836  13874.8  117.151
 19.2256  13796.3  117.033
 19.2676  13934.2  117.708
 19.3096  13955.5  118.045
 19.3516  13792.1  117.308
 19.3936  14019.6  118.172
 19.4356  13908.1  117.569
 19.4776  13890.3  117.593
 19.5196  13760.9  116.899
 19.5616  13894.7  117.717
 19.6036  13953.7  117.463
 19.6456  13800.6  116.941
 19.6876  13930.5  117.134
 19.7296  13784.8  116.968
 19.7716  13703.9  116.787
 19.8136  13895  117.811
 19.8556  14091.8  118.12
 19.8976  14114  118.281
 19.9396  13974.7  117.271
 19.9816  14397.4  119.28
 20.0236  14605.3  120.355
 20.0656  14758  120.976
 20.1076  14550.8  120.589
 20.1496  14689.7  121.178
 20.1916  14376.7  119.385
 20.2336  14236.4  118.741
 20.2756  13938.2  117.917
 20.3176  13793.1  117.048
 20.3596  13704.2  116.65
 20.4016  13701.9  116.442
 20.4436  13645.9  116.755
 20.4856  13394  115.472
 20.5276  13296.6  115.512
 20.5696  13367.4  115.274
 20.6116  13320.9  115.346
 20.6536  13382.2  115.117
 20.6956  13235  114.615
 20.7376  13275.7  115.016
 20.7796  13212.2  114.426
 20.8216  13243.2  114.268
 20.8636  13078.3  113.92
 20.9056  13075.4  113.861
 20.9476  12980  113.288
 20.9896  13292.7  114.505
 21.0316  13306.5  114.468
 21.0736  12988.4  113.608
 21.1156  13051  114.038
 21.1576  13052.8  114.093
 21.1996  13000.2  113.842
 21.2416  12935  113.39
 21.2836  13025.6  113.748
 21.3256  12781.7  112.765
 21.3676  13060.8  113.536
 21.4096  12824.7  112.813
 21.4516  12782.8  112.507
 21.4936  12583.6  111.883
 21.5356  12894.2  113.195
 21.5776  12920.4  113.147
 21.6196  12757.2  112.462
 21.6616  12715.5  112.367
 21.7036  12705.9  112.104
 21.7456  12788.5  112.545
 21.7876  12855.9  112.592
 21.8296  12739.9  111.939
 21.8716  12666.7  111.843
 21.9136  12948.9  113.288
 21.9556  12740  112.043
 21.9976  12510.5  111.048
 22.0396  12742.5  112.315
 22.0816  12668.8  112.536
 22.1236  12708.7  112.169
 22.1656  12653.8  112.046
 22.2076  12540.6  111.03
 22.2496  12640.5  111.497
 22.2916  12788.6  112.023
 22.3336  12586.1  111.862
 22.3756  12599.9  111.646
 22.4176  12532.2  111.203
 22.4596  12559.2  111.908
 22.5016  12453  110.927
 22.5436  12657.7  111.721
 22.5856  12735.5  112.314
 22.6276  12632.9  111.998
 22.6696  12398  111.295
 22.7116  12465.7  111.118
 22.7536  12679.7  112.041
 22.7956  12549.2  110.795
 22.8376  12438.8  110.829
 22.8796  12627.9  111.467
 22.9216  12653.3  112.127
 22.9636  12417.3  110.233
 23.0056  12541.1  110.917
 23.0476  12620.1  111.836
 23.0896  12736  111.725
 23.1316  12668.4  111.86
 23.1736  12476.7  113.942
 23.2156  12827.5  112.897
 23.2576  12728.8  112.584
 23.2996  12762.5  112.522
 23.3416  12558.3  112.134
 23.3836  12510.2  111.161
 23.4256  12676.6  112
 23.4676  12531  111.062
 23.5096  12521.9  111.698
 23.5516  12457.2  110.696
 23.5936  12668.5  112.532
 23.6356  12658.5  112.164
 23.6776  12537.3  111.831
 23.7196  12405  110.812
 23.7616  12744.6  112.241
 23.8036  12466.5  111.043
 23.8456  12660.1  111.48
 23.8876  12220.6  109.87
 23.9296  12319.1  110.796
 23.9716  12519.9  110.898
 24.0136  12395.4  111.241
 24.0556  12233.7  110.251
 24.0976  12226.2  110.02
 24.1396  12079  111.991
 24.1816  12218.8  111.065
 24.2236  12032  109.823
 24.2656  11914.1  108.759
 24.3076  11855.8  108.735
 24.3496  11851.1  108.613
 24.3916  11940.1  109.069
 24.4336  11676.1  108.062
 24.4756  11837.4  108.675
 24.5176  11681.1  107.607
 24.5596  11577.9  107.258
 24.6016  11474.6  107.061
 24.6436  11606.3  107.163
 24.6856  11469.7  106.296
 24.7276  11566.3  107.05
 24.7696  11410.6  106.449
 24.8116  11524.9  107.159
 24.8536  11373.7  106.445
 24.8956  11429.1  106.45
 24.9376  11304  105.806
 24.9796  11211.5  105.719
 25.0216  11063.2  105.129
 25.0636  11061.8  104.78
 25.1056  11039.7  105.373
 25.1476  11348.8  108.519
 25.1896  11207.9  106.314
 25.2316  11247.2  105.77
 25.2736  11235  105.37
 25.3156  11147  105.03
 25.3576  11122.2  105.333
 25.3996  11084.5  105.137
 25.4416  11121.8  105.297
 25.4836  10894.8  104.735
 25.5256  10951.9  104.379
 25.5676  11158.9  105.091
 25.6096  10947.1  104.661
 25.6516  11102.3  104.893
 25.6936  10948.6  104.478
 25.7356  11012.4  104.92
 25.7776  10948.6  104.22
 25.8196  10858.4  104.03
 25.8616  11060.5  104.913
 25.9036  11069.2  104.42
 25.9456  10877.1  104.102
 25.9876  10723.8  103.428
 26.0296  10958.9  104.069
 26.0716  10762.8  103.551
 26.1136  10919.1  104.245
 26.1556  10966.6  103.853
 26.1976  10794.3  103.954
 26.2396  10894.6  103.59
 26.2816  10834.9  103.915
 26.3236  10760.9  103.717
 26.3656  10714.1  103.221
 26.4076  10939.7  104.511
 26.4496  11462  106.41
 26.4916  10965.9  104.129
 26.5336  10916.4  104.219
 26.5756  11002.6  104.504
 26.6176  10769.7  103.433
 26.6596  10663  103.226
 26.7016  10584.9  102.604
 26.7436  10651.3  103.055
 26.7856  10610.9  102.845
 26.8276  10588  102.683
 26.8696  10634.7  102.79
 26.9116  10594.1  102.53
 26.9536  10458.5  101.916
 26.9956  10458.6  101.954
 27.0376  10473.2  102.235
 27.0796  10567.5  102.436
 27.1216  10281  101.107
 27.1636  10351.1  101.619
 27.2056  10291.8  101.207
 27.2476  10457.7  102.019
 27.2896  10373.4  101.721
 27.3316  10335.2  101.248
 27.3736  10254  101.111
 27.4156  10169.1  100.538
 27.4576  10210.2  100.971
 27.4996  10170.4  100.37
 27.5416  10324.1  101.445
 27.5836  10204.8  100.671
 27.6256  10563.2  102.571
 27.6676  10493.7  102.275
 27.7096  10228.4  100.835
 27.7516  10145.8  100.586
 27.7936  10178.3  100.912
 27.8356  10169.6  100.49
 27.8776  10112  100.251
 27.9196  10132.5  100.205
 27.9616  10001.6  99.7442
 28.0036  10049.7  99.961
 28.0456  10114.2  100.408
 28.0876  9993.15  99.8975
 28.1296  10015.6  99.8475
 28.1716  9990.21  99.7287
 28.2136  10063.5  100.057
 28.2556  9964.99  99.6811
 28.2976  9779.08  98.7386
 28.3396  9909.29  99.1588
 28.3816  10005.7  99.6617
 28.4236  10002.9  99.8037
 28.4656  9844.17  99.0424
 28.5076  9857.63  98.7451
 28.5496  9719.18  98.308
 28.5916  9959.71  99.3269
 28.6336  9725.13  98.4895
 28.6756  9796.88  98.0587
 28.7176  9802.87  98.6329
 28.7596  9698.69  98.0051
 28.8016  9796.99  98.538
 28.8436  9729.77  98.4407
 28.8856  9800.04  98.6431
 28.9276  9845.72  99.1189
 28.9696  9723.86  98.1564
 29.0116  9760.94  98.5352
 29.0536  9657.61  98.2086
 29.0956  9710.4  98.1995
 29.1376  9738.19  98.2999
 29.1796  9591.17  97.6024
 29.2216  9650.73  97.7463
 29.2636  9714.67  98.1462
 29.3056  9666.56  97.694
 29.3476  9613.06  97.9449
 29.3896  9754.18  98.7564
 29.4316  9695  97.7999
 29.4736  9754.26  98.1617
 29.5156  9613.34  97.3673
 29.5576  9668.98  98.3899
 29.5996  9623.84  97.4233
 29.6416  9645.01  97.6489
 29.6836  9716.41  97.9337
 29.7256  9684.45  98.3417
 29.7676  9590.39  97.5253
 29.8096  9602.04  97.5283
 29.8516  9342.55  96.5298
 29.8936  9716.05  98.5315
 29.9356  9582.96  97.6123
 29.9776  9374.37  96.697
 30.0196  9496.41  96.7153
 30.0616  9564.85  97.4362
 30.1036  9674.09  97.8144
 30.1456  9507.38  97.2007
 30.1876  9520.82  97.2475
 30.2296  9386.35  96.5071
 30.2716  9548.77  96.9761
 30.3136  9561.12  97.8974
 30.3556  9434.88  97.2604
 30.3976  9408.95  98.6297
 30.4396  9481.63  96.3608
 30.4816  9502.91  96.0712
 30.5236  9349.41  95.3133
 30.5656  9373.43  96.0822
 30.6076  9481.52  96.0689
 30.6496  9370.23  95.8822
 30.6916  9267.51  95.4468
 30.7336  9365.46  96.1021
 30.7756  9335.59  96.0398
 30.8176  9353.45  96.0479
 30.8596  9292.26  95.5064
 30.9016  9320.46  95.9876
 30.9436  9483.52  96.5726
 30.9856  9356.49  96.0353
 31.0276  9354.58  95.6349
 31.0696  9260.48  95.7268
 31.1116  9297.34  95.892
 31.1536  9449.89  96.5583
 31.1956  9195.92  95.3378
 31.2376  9260.43  95.6842
 31.2796  9224.62  95.0358
 31.3216  9193.86  94.824
 31.3636  9289.09  96.0018
 31.4056  9318.36  97.4715
 31.4476  9299.56  95.261
 31.4896  9116.93  94.8199
 31.5316  9244.91  94.884
 31.5736  9357.54  95.2826
 31.6156  9241.03  94.7069
 31.6576  9283.58  95.0203
 31.6996  9254.34  94.5428
 31.7416  9013.71  94.3512
 31.7836  9094.78  93.7995
 31.8256  9030.71  93.7351
 31.8676  9145.6  94.3245
 31.9096  8964.93  93.7461
 31.9516  8863.99  93.3705
 31.9936  8894.32  93.3621
 32.0356  9044.79  94.211
 32.0776  8943.95  93.572
 32.1196  9102.14  94.4815
 32.1616  9156.4  94.226
 32.2036  8941.45  93.6159
 32.2456  8948.03  94.0311
 32.2876  9046.95  94.0444
 32.3296  9020.09  93.8731
 32.3716  8914.17  93.4309
 32.4136  9016.16  94.1691
 32.4556  9129.04  94.1327
 32.4976  9033.58  93.5466
 32.5396  8994.43  93.4192
 32.5816  8965.09  93.3838
 32.6236  8928.67  93.2698
 32.6656  9053.37  94.45
 32.7076  8896.08  93.2875
 32.7496  8877.45  92.8601
 32.7916  8950.92  93.2013
 32.8336  9047.35  93.7986
 32.8756  9061.25  93.5936
 32.9176  8712.39  92.2463
 32.9596  8817.01  92.8754
 33.0016  8907.51  93.1491
 33.0436  9095.73  94.3018
 33.0856  8982.79  93.7804
 33.1276  8737.51  92.2307
 33.1696  8889.13  92.8592
 33.2116  8919.95  93.2548
 33.2536  8858.24  92.9341
 33.2956  8896.35  93.2152
 33.3376  8804.37  92.4729
 33.3796  8898.6  93.1769
 33.4216  8913.75  92.8433
 33.4636  8922.6  93.0365
 33.5056  8820.07  92.7475
 33.5476  8763.42  92.4428
 33.5896  8899.86  92.9351
 33.6316  8708.98  92.244
 33.6736  8595.35  91.8748
 33.7156  8600.32  91.9389
 33.7576  8921.62  93.2759
 33.7996  8879.2  92.8239
 33.8416  8657.44  91.836
 33.8836  8683.21  91.7552
 33.9256  8664.2  91.716
 33.9676  8752.23  92.0702
 34.0096  8614.39  91.6597
 34.0516  8594.14  91.1958
 34.0936  8597.8  91.4719
 34.1356  8757.95  92.0537
 34.1776  8640.29  91.4573
 34.2196  8515.28  90.9671
 34.2616  8507.34  91.0608
 34.3036  8544.7  91.5099
 34.3456  8594.94  91.5332
 34.3876  8475.61  90.859
 34.4296  8619.82  91.3182
 34.4716  8650.61  91.6242
 34.5136  8706.24  92.1328
 34.5556  8529.03  91.4382
 34.5976  8607.63  91.6644
 34.6396  8505.5  90.8271
 34.6816  8454.38  90.6725
 34.7236  8554.27  90.9905
 34.7656  8608.41  91.4728
 34.8076  8522.65  91.3304
 34.8496  8489.89  91.0214
 34.8916  8601.87  91.4937
 34.9336  8627.81  91.5983
 34.9756  8593.44  91.3303
 35.0176  8593.95  91.8639
 35.0596  8473.3  91.0422
 35.1016  8478  90.8356
 35.1436  8529.03  90.7953
 35.1856  8550.99  91.043
 35.2276  8528.8  91.0981
 35.2696  8447.48  90.8523
 35.3116  8496.8  91.2084
 35.3536  8352.66  90.1457
 35.3956  8329.56  89.7383
 35.4376  8382.52  90.564
 35.4796  8485.3  91.1828
 35.5216  8405.28  90.7074
 35.5636  8214.55  90.4134
 35.6056  8380.36  90.3409
 35.6476  8363.94  90.1431
 35.6896  8458.68  90.7485
 35.7316  8302.93  89.8837
 35.7736  8296.05  90.0433
 35.8156  8295.58  90.0342
 35.8576  8317.17  90.403
 35.8996  8487.39  91.2871
 35.9416  8543.91  91.0529
 35.9836  8299.62  90.1287
 36.0256  8338.2  90.3596
 36.0676  8412.02  90.5181
 36.1096  8289.15  89.9832
 36.1516  8291.4  89.893
 36.1936  8281.8  89.6911
 36.2356  8353.61  90.7189
 36.2776  8325.99  90.048
 36.3196  8275.31  89.4461
 36.3616  8337.78  89.9082
 36.4036  8281.36  89.659
 36.4456  8313.39  90.0398
 36.4876  8171.79  89.2193
 36.5296  8249.56  89.6806
 36.5716  8292.08  90.6956
 36.6136  8278.07  89.3935
 36.6556  8284.41  89.6342
 36.6976  8259.84  89.9964
 36.7396  8334.78  90.1344
 36.7816  8319.61  90.4282
 36.8236  8235.6  89.8927
 36.8656  8058.34  88.9954
 36.9076  8235.78  89.8435
 36.9496  8214.34  89.7145
 36.9916  8138.17  88.9299
 37.0336  8284.79  90.0415
 37.0756  8264.09  89.7209
 37.1176  8207.2  89.6813
 37.1596  8101.22  89.088
 37.2016  8146.13  89.5787
 37.2436  8354.99  90.032
 37.2856  8107.05  88.9424
 37.3276  8050.4  87.9825
 37.3696  8130.03  89.3023
 37.4116  8170.95  89.4279
 37.4536  8055.5  88.6667
 37.4956  8055.87  88.7094
 37.5376  8094.17  90.4552
 37.5796  8058.48  90.2253
 37.6216  7885.48  87.5336
 37.6636  7884.64  87.4365
 37.7056  8057.61  88.587
 37.7476  8087.52  88.2875
 37.7896  8016  88.3795
 37.8316  7847.67  87.6305
 37.8736  8008.4  88.0493
 37.9156  8035.28  88.1985
 37.9576  8048.61  88.1592
 37.9996  7925.74  87.2032
 38.0416  7926.86  88.0166
 38.0836  8011.17  88.3902
 38.1256  7923.51  87.8569
 38.1676  7809.99  87.366
 38.2096  7965.55  87.8531
 38.2516  8070.56  88.6405
 38.2936  7934.24  87.6878
 38.3356  8081.17  88.4117
 38.3776  7906.34  87.7229
 38.4196  8029.15  88.2575
 38.4616  7994.7  88.3024
 38.5036  8126.03  88.8702
 38.5456  7848.96  88.1677
 38.5876  7930.64  88.6613
 38.6296  7778.5  86.7888
 38.6716  7818.12  86.8022
 38.7136  7706.79  86.1289
 38.7556  7725.06  86.7275
 38.7976  7822.72  87.2141
 38.8396  7693.91  86.9385
 38.8816  7679.09  86.6375
 38.9236  7773.25  86.981
 38.9656  7893.66  87.5651
 39.0076  7800.54  86.4586
 39.0496  7926.78  87.6972
 39.0916  7912.98  87.2629
 39.1336  7763.83  86.8506
 39.1756  7750.43  86.8424
 39.2176  7790.76  87.5964
 39.2596  7832.19  87.7485
 39.3016  7711.3  86.6429
 39.3436  7708.73  87.0528
 39.3856  7955.17  87.8793
 39.4276  7844.09  87.756
 39.4696  7870.17  87.5279
 39.5116  7858.11  87.9699
 39.5536  7982.88  89.1012
 39.5956  7960.29  88.0721
 39.6376  7935.65  87.941
 39.6796  7879  87.3698
 39.7216  7939.71  87.7931
 39.7636  7965.86  88.5075
 39.8056  7869.45  87.7577
 39.8476  7728.68  87.2139
 39.8896  7816.08  87.3462
 39.9316  7816.87  87.5998
 39.9736  8008.52  88.2372
 40.0156  7843.63  87.1524
 40.0576  7846.15  87.5205
 40.0996  7894.53  86.9768
 40.1416  7843.59  87.4831
 40.1836  7928.52  87.8432
 40.2256  7905.55  87.7642
 40.2676  7766.54  87.0932
 40.3096  7995.36  88.2815
 40.3516  8065.7  88.786
 40.3936  7895.97  87.4123
 40.4356  7851.61  87.3585
 40.4776  8034.13  88.7866
 40.5196  7924.82  88.3018
 40.5616  7930.97  87.9777
 40.6036  7852.91  87.8011
 40.6456  7915.17  87.7556
 40.6876  7984.88  88.1331
 40.7296  7878.65  87.6744
 40.7716  7963.6  88.2765
 40.8136  7900.64  87.8682
 40.8556  7964.09  88.3547
 40.8976  7859  87.6938
 40.9396  7777.09  87.5773
 40.9816  7918.23  87.6581
 41.0236  7942.8  87.575
 41.0656  7884.49  87.7874
 41.1076  7999.24  88.1968
 41.1496  8011.84  88.1705
 41.1916  7935.22  88.0747
 41.2336  7832.06  87.4859
 41.2756  7884.96  87.3949
 41.3176  7868.69  87.9118
 41.3596  8004.94  88.3992
 41.4016  7870.52  87.9117
 41.4436  7908.92  87.9141
 41.4856  7928.31  88.1883
 41.5276  7880.81  87.9397
 41.5696  7964.6  88.0372
 41.6116  7836.27  87.7122
 41.6536  7999.11  88.4818
 41.6956  7984.9  88.4568
 41.7376  7883.05  87.9236
 41.7796  7801.64  87.35
 41.8216  7843.61  87.8168
 41.8636  7839.57  87.7315
 41.9056  7776.3  87.1709
 41.9476  7789.35  87.4743
 41.9896  7927.38  87.9086
 42.0316  7841.47  87.5086
 42.0736  7806.81  87.4339
 42.1156  7909.92  87.8463
 42.1576  7876.66  87.7641
 42.1996  7880.61  87.9248
 42.2416  7848.68  87.3285
 42.2836  7662.14  86.3994
 42.3256  7841.11  87.5166
 42.3676  7858.08  87.4164
 42.4096  7801.79  87.0669
 42.4516  7756.4  86.8979
 42.4936  7749.25  86.9275
 42.5356  7739.15  87.0012
 42.5776  7849.44  87.5578
 42.6196  7812.02  87.4016
 42.6616  7759.25  87.2764
 42.7036  7804.61  86.9212
 42.7456  7747.17  86.9529
 42.7876  7789.59  87.289
 42.8296  7771.38  87.0211
 42.8716  7730.37  86.9509
 42.9136  7719.54  86.6815
 42.9556  7762.28  87.0494
 42.9976  7877.55  87.6584
 43.0396  7717.83  86.4995
 43.0816  7611.67  86.2738
 43.1236  7725.01  86.9764
 43.1656  7780.36  87.1182
 43.2076  7645.26  86.4604
 43.2496  7723.73  86.7085
 43.2916  7665.29  86.7542
 43.3336  7676.13  86.6531
 43.3756  7604.9  86.0038
 43.4176  7452.52  85.2203
 43.4596  7589.02  85.8536
 43.5016  7617.56  86.4173
 43.5436  7584.6  86.1334
 43.5856  7517.25  85.772
 43.6276  7651.11  86.431
 43.6696  7663.06  86.7563
 43.7116  7736.61  86.6675
 43.7536  7635.59  86.5852
 43.7956  7539.9  87.2317
 43.8376  7754.84  86.996
 43.8796  7490.22  85.5763
 43.9216  7584.36  86.0312
 43.9636  7690.5  86.7374
 44.0056  7586.92  86.3846
 44.0476  7570.37  85.9204
 44.0896  7470.55  85.6934
 44.1316  7553.67  85.6927
 44.1736  7615.94  86.1707
 44.2156  7577.76  85.8013
 44.2576  7574.23  86.1111
 44.2996  7610.6  86.287
 44.3416  7523.76  85.5604
 44.3836  7378.46  85.0564
 44.4256  7438.24  85.0413
 44.4676  7445.57  85.2414
 44.5096  7500.9  85.6996
 44.5516  7410.45  85.1421
 44.5936  7356.2  84.7832
 44.6356  7457.33  85.1078
 44.6776  7525.3  85.8118
 44.7196  7473.36  85.8251
 44.7616  7395.97  86.6864
 44.8036  7322.67  84.699
 44.8456  7344.12  85.0319
 44.8876  7366.79  85.0126
 44.9296  7506.37  85.2702
 44.9716  7403.61  85.1051
 45.0136  7371.16  84.8572
 45.0556  7374.68  84.8537
 45.0976  7238.38  84.2183
 45.1396  7234  83.954
 45.1816  7368.92  84.6805
 45.2236  7431.54  84.9372
 45.2656  7302.07  84.6923
 45.3076  7291.21  84.4166
 45.3496  7313.95  84.8471
 45.3916  7346.26  85.2999
 45.4336  7234.91  84.4955
 45.4756  7290.9  84.684
 45.5176  7340.93  84.5912
 45.5596  7255.05  84.2136
 45.6016  7162.54  84.086
 45.6436  7366.53  84.457
 45.6856  7254.14  84.4603
 45.7276  7185.54  85.3529
 45.7696  7223.98  85.259
 45.8116  7371.2  85.5659
 45.8536  7224.92  84.6093
 45.8956  7376.62  84.8444
 45.9376  7195.59  83.2705
 45.9796  7184.51  83.8742
 46.0216  7283.17  84.7979
 46.0636  7395.73  84.5903
 46.1056  7100.05  82.8718
 46.1476  7182.46  83.9355
 46.1896  7175.36  84.0422
 46.2316  7300.68  84.645
 46.2736  7174.63  84.2687
 46.3156  7237.7  84.2294
 46.3576  7232.76  84.4034
 46.3996  7172.96  84.2091
 46.4416  7265.26  84.3338
 46.4836  7157.62  84.0541
 46.5256  7188.9  84.1735
 46.5676  7064.89  83.5607
 46.6096  7185.65  84.204
 46.6516  7244.68  83.5949
 46.6936  7206.94  83.863
 46.7356  7172.25  83.772
 46.7776  7146.87  84.4591
 46.8196  7116.48  83.8753
 46.8616  6960.55  82.8933
 46.9036  7026.53  82.9619
 46.9456  7066.31  82.8397
 46.9876  7185.33  83.6168
 47.0296  7120.77  83.9214
 47.0716  6999.47  83.0277
 47.1136  7156.03  83.6271
 47.1556  7072.1  83.0094
 47.1976  7173.4  83.6742
 47.2396  7100.03  83.6482
 47.2816  7087.13  83.2727
 47.3236  7102.92  83.7381
 47.3656  7154.91  83.974
 47.4076  6992.35  82.818
 47.4496  6962.22  82.7345
 47.4916  6985.25  83.053
 47.5336  7063.25  83.3332
 47.5756  7091.56  83.6142
 47.6176  6970.67  82.8068
 47.6596  7002.55  82.7135
 47.7016  7095.15  83.0775
 47.7436  7155.19  83.7658
 47.7856  7129.68  83.629
 47.8276  6925.03  82.4731
 47.8696  6990.05  82.9348
 47.9116  7023.99  82.8647
 47.9536  6980.42  82.5495
 47.9956  6919.02  82.8815
 48.0376  6835.68  82.1565
 48.0796  7045.78  83.5376
 48.1216  7070.26  83.5067
 48.1636  7108.33  83.2994
 48.2056  6969.41  82.7494
 48.2476  7025.82  83.389
 48.2896  7009.45  83.2041
 48.3316  6920.51  82.6158
 48.3736  6924.46  82.662
 48.4156  6973.18  82.8051
 48.4576  6880.57  82.5397
 48.4996  6963.71  82.5062
 48.5416  7064.65  83.4187
 48.5836  6788.64  81.4644
 48.6256  6948.99  82.6187
 48.6676  6984.74  83.3414
 48.7096  6909.6  82.1691
 48.7516  6844.37  81.9323
 48.7936  6786.67  81.6451
 48.8356  6940.87  82.6178
 48.8776  6879.61  82.8132
 48.9196  6968.9  82.7246
 48.9616  6787.52  82.0145
 49.0036  6908.25  83.0816
 49.0456  6810.54  82.4801
 49.0876  6759.08  81.712
 49.1296  6697.57  81.4951
 49.1716  6721.34  81.517
 49.2136  6855.58  82.2529
 49.2556  6724.81  81.4987
 49.2976  6862.66  82.3909
 49.3396  6806.93  82.1119
 49.3816  6846.55  81.7891
 49.4236  6791.72  81.879
 49.4656  6745.99  81.6249
 49.5076  6789.69  81.6392
 49.5496  6778.01  81.6275
 49.5916  6846.31  81.9614
 49.6336  6661.43  81.0269
 49.6756  6915.54  82.808
 49.7176  6875.55  82.5071
 49.7596  6755.8  81.5582
 49.8016  6864.99  82.1404
 49.8436  6793.66  81.9977
 49.8856  6773.24  81.8833
 49.9276  6646.89  81.2103
 49.9696  6675.09  81.3691
 50.0116  6711.02  81.7135
 50.0536  6723.38  81.7294
 50.0956  6664.25  81.4484
 50.1376  6733.75  81.5678
 50.1796  6642.3  81.2839
 50.2216  6667.68  81.442
 50.2636  6640.73  80.8954
 50.3056  6646.46  81.0999
 50.3476  6775.09  81.8986
 50.3896  6715.31  81.5091
 50.4316  6756.5  81.6005
 50.4736  6590.22  80.8043
 50.5156  6757.55  81.8081
 50.5576  6804.49  81.8616
 50.5996  6645.28  81.1698
 50.6416  6573.8  80.6662
 50.6836  6647.17  81.1708
 50.7256  6664.57  81.1899
 50.7676  6627.06  81.2829
 50.8096  6628.2  80.8434
 50.8516  6621.34  81.2045
 50.8936  6561.47  80.6227
 50.9356  6682.83  81.4692
 50.9776  6606.15  81.1468
 51.0196  6405.82  80.0385
 51.0616  6578.56  80.4457
 51.1036  6619.63  81.0486
 51.1456  6570.24  80.6593
 51.1876  6528.51  79.7569
 51.2296  6505.8  80.2406
 51.2716  6482.61  79.8105
 51.3136  6555.53  80.7084
 51.3556  6579.84  80.486
 51.3976  6566  80.5502
 51.4396  6405.92  79.8616
 51.4816  6485.28  80.2099
 51.5236  6540.5  80.6255
 51.5656  6567.97  80.4137
 51.6076  6644.02  80.9555
 51.6496  6679.06  81.3616
 51.6916  6395.18  79.9583
 51.7336  6490.89  80.6472
 51.7756  6550.4  80.7208
 51.8176  6379.05  79.7575
 51.8596  6440.53  80.1477
 51.9016  6595.81  80.7244
 51.9436  6446.23  81.2311
 51.9856  6396.38  81.3531
 52.0276  6543.36  80.7993
 52.0696  6492.78  80.5516
 52.1116  6444.97  80.3654
 52.1536  6448.93  80.2799
 52.1956  6541.3  80.3241
 52.2376  6631.14  81.0476
 52.2796  6499.17  80.0553
 52.3216  6297.41  79.4724
 52.3636  6361.67  79.4629
 52.4056  6322.58  79.065
 52.4476  6339.74  79.5421
 52.4896  6309.21  79.4027
 52.5316  6316.28  79.491
 52.5736  6481.35  80.255
 52.6156  6400.02  80.1026
 52.6576  6502.33  80.2069
 52.6996  6249.94  79.5852
 52.7416  6398.89  80.3761
 52.7836  6370.59  80.071
 52.8256  6382.71  79.3921
 52.8676  6298.34  79.4339
 52.9096  6474.32  80.6179
 52.9516  6403.44  80.5499
 52.9936  6349.75  80.5947
 53.0356  6177.14  78.5151
 53.0776  6264.73  79.3277
 53.1196  6213.55  79.1312
 53.1616  6183.14  78.9853
 53.2036  6196.69  79.0264
 53.2456  6167.45  78.931
 53.2876  6151.04  78.5472
 53.3296  6161.94  78.9339
 53.3716  6287.16  79.4783
 53.4136  6220.43  79.2044
 53.4556  6205.14  79.1403
 53.4976  6203.35  78.9789
 53.5396  6187.13  79.2615
 53.5816  6239.72  79.2369
 53.6236  6130.35  78.8696
 53.6656  6256.7  79.3171
 53.7076  6259.73  79.2953
 53.7496  6289.83  79.604
 53.7916  6327.33  79.9679
 53.8336  6154.38  78.765
 53.8756  5983.79  78.2
 53.9176  6322.85  79.7351
 53.9596  6268.65  80.1516
 54.0016  6244.54  79.3368
 54.0436  6244.25  79.5523
 54.0856  6246.13  78.9931
 54.1276  6113.19  78.3436
 54.1696  6150.53  78.7498
 54.2116  6116.08  78.2915
 54.2536  6227.02  78.8191
 54.2956  6244.2  78.9709
 54.3376  6069.35  78.3305
 54.3796  6213.64  79.1573
 54.4216  6277.62  79.6083
 54.4636  6265.87  79.4948
 54.5056  6232.05  79.0987
 54.5476  6151.55  78.9197
 54.5896  6174.76  78.9046
 54.6316  6244.27  79.2045
 54.6736  6271.5  79.4513
 54.7156  6189.65  78.9523
 54.7576  6149.14  78.6915
 54.7996  6243.84  79.4275
 54.8416  6148.63  78.8688
 54.8836  6073.23  78.4948
 54.9256  6116.03  78.5243
 54.9676  6268.44  79.3533
 55.0096  6131.8  78.5489
 55.0516  6188.6  79.1473
 55.0936  6194.3  78.8202
 55.1356  6150.01  78.5743
 55.1776  6104.2  78.5473
 55.2196  6256.95  79.3062
 55.2616  6108.44  78.5701
 55.3036  6193.05  79.2675
 55.3456  6133.47  79.0338
 55.3876  6172.22  79.0322
 55.4296  6172.87  79.0135
 55.4716  6164.65  78.9943
 55.5136  6166.87  78.7693
 55.5556  6052.77  78.1029
 55.5976  6193.06  79.0538
 55.6396  6097.49  78.3908
 55.6816  6099.31  78.2874
 55.7236  6104.02  78.3614
 55.7656  6173.54  78.5611
 55.8076  6193.61  78.6777
 55.8496  6155.24  78.7498
 55.8916  6085.55  78.5047
 55.9336  6097.69  78.3952
 55.9756  6119.3  78.4254
 56.0176  6122.62  78.6007
 56.0596  6167.71  78.871
 56.1016  6128.78  78.6344
 56.1436  6042.69  78.346
 56.1856  6134.24  78.6765
 56.2276  6065.09  78.2828
 56.2696  6068.54  78.2822
 56.3116  5995.83  78.2013
 56.3536  6084.98  78.4474
 56.3956  5994.69  77.8567
 56.4376  6129.65  78.761
 56.4796  6156.91  78.7386
 56.5216  6115.06  78.8385
 56.5636  6109.54  78.4
 56.6056  6081.41  78.4431
 56.6476  6046.86  77.8584
 56.6896  6154.32  78.9875
 56.7316  6153.14  78.882
 56.7736  6065.58  78.3246
 56.8156  6050.25  78.2258
 56.8576  6058.09  78.2224
 56.8996  6080.97  78.3078
 56.9416  6071.4  78.5452
 56.9836  6045.31  77.8951
 57.0256  6025.68  78.0786
 57.0676  6097.09  78.6649
 57.1096  6113.85  78.5613
 57.1516  6197.83  79.1656
 57.1936  6133.41  78.5012
 57.2356  6112.54  78.6869
 57.2776  6056.96  78.2858
 57.3196  6065.51  78.7064
 57.3616  6064.63  78.1988
 57.4036  6120.52  78.6189
 57.4456  6025.15  77.9674
 57.4876  6184.46  78.8563
 57.5296  6037.19  78.2428
 57.5716  5956.48  77.6997
 57.6136  6122.15  78.6025
 57.6556  6018.28  78.0643
 57.6976  6136.23  78.6536
 57.7396  5924.15  77.6449
 57.7816  5918.45  77.9637
 57.8236  6001.83  78.3082
 57.8656  6125.2  78.7661
 57.9076  6091.46  78.5792
 57.9496  6010.07  78.3982
 57.9916  6053.65  78.1974
 58.0336  6034.41  78.3448
 58.0756  6047.31  78.0728
 58.1176  6074.27  78.2405
 58.1596  6020.17  78.4535
 58.2016  6079.71  78.0687
 58.2436  6099.85  78.6121
 58.2856  6061.46  78.28
 58.3276  6102.17  78.9183
 58.3696  6054.94  78.362
 58.4116  6012.39  77.9525
 58.4536  5970.37  77.5692
 58.4956  5979.64  77.8059
 58.5376  6043.19  77.7932
 58.5796  6071.31  78.3965
 58.6216  6109.8  78.4598
 58.6636  6044.42  78.2505
 58.7056  6035.92  78.0527
 58.7476  6025.62  78.4317
 58.7896  6026.18  78.0806
 58.8316  6005.93  77.9451
 58.8736  6104.88  78.5897
 58.9156  5948.92  77.6242
 58.9576  6156.5  79.2906
 58.9996  6102.98  78.1663
 59.0416  6225.24  79.3342
 59.0836  6094.09  78.4178
 59.1256  5921.07  77.9905
 59.1676  6036.42  79.0403
 59.2096  6249.03  79.7338
 59.2516  6124.63  78.5143
 59.2936  6197.54  79.3126
 59.3356  6014.35  78.0096
 59.3776  6095.69  78.7051
 59.4196  6063.3  78.4314
 59.4616  5988.1  77.8043
 59.5036  6035.95  78.1495
 59.5456  6155.39  78.6098
 59.5876  6200.62  79.0917
 59.6296  5860.17  76.9579
 59.6716  5954.23  77.6306
 59.7136  6260.39  79.5895
 59.7556  6105.64  78.7369
 59.7976  6020.16  77.9263
 59.8396  5980.84  77.5662
 59.8816  6180.56  79.4007
 59.9236  6091.4  78.4697
 59.9656  6047.97  78.4505
 60.0076  6054.5  77.8493
 60.0496  6049.52  78.3208
 60.0916  6147.75  78.3677
 60.1336  5944.03  78.1569
 60.1756  5997.82  79.6899
 60.1996  0.0000000E+00  0.0000000E+00