File: docs/examples/XRD/IS17_D/Data/IS17_D/17_Db_f00078.xye
# /beamlines/bl04/projects/cycle2025-II/20250340211-lsimonelli/DATA/IS17_D/17_Db_f00078.xye : mythproc.py merge -s 0.006 -l 0.5 -f /beamlines/bl04/inhouse/ff/FlatField/ff_20Nov2024rod8mm60s_17keV.raw -b True -c true -o xye /beamlines/bl04/projects/cycle2025-II/20250340211-lsimonelli/DATA/IS17_D/17_Db_00078.dat
# IsMon = [6767585, 6769382, 6769255]  IsPos = [-1.4999, -2.4884, -3.4988]
# Wave = 0.4962  CalPath /beamlines/bl04/projects/cycle2025-II/20250340211-lsimonelli/DATA/Align/Si_Pos1_25keV_f00001.cal
# Date = 2025-09-24_15:26:17 Dt = 4.8000  Bin = 0.0060  <imon> = 6768741 +/- 819 (Min/Max) 6767585 / 6769382
# icurr 251.0791  mocoIn 1.7117E-05  mocoOut 0.8031  i15 7.08837e+06  imon 6.76874e+06  i7 6.0000  iEMpd_timer 4.8000  iEMpd_1 3.3851E-08  iEMpd_2 7.8177E-08  iEMpd_3 1.7044E-08  iEMpd_4 4.5844E-08  iEMhp_timer 4.8000  iEMhp_1 4.9040E-06  iEMhp_2 -2.5043E-08  iEMhp_3 -2.3834E-08  iEMhp_4 -2.0979E-08
#      9776
 1.5856  42943.5  212.809
 1.6276  49826.5  225.296
 1.6696  55485.5  236.907
 1.7116  62039.6  250.999
 1.7536  70742.4  266.884
 1.7956  74419.9  274.418
 1.8376  71137.3  268.722
 1.8796  61307.2  247.626
 1.9216  50743.8  226.187
 1.9636  43307.4  208.101
 2.0056  39759.5  198.621
 2.0476  36726.8  192.989
 2.0896  35696.2  189.146
 2.1316  34879.9  186.072
 2.1736  32982  182.374
 2.2156  33653.9  182.744
 2.2576  32138.6  179.224
 2.2996  31329.8  177.603
 2.3416  31582.4  176.895
 2.3836  30947.7  175.216
 2.4256  29739.1  172.32
 2.4676  29362.5  170.982
 2.5096  29660.5  171.904
 2.5516  33146.8  185.862
 2.5936  148236  384.535
 2.6356  30508.8  175.485
 2.6776  27803.3  166.431
 2.7196  27113.7  164.84
 2.7616  26903.3  163.982
 2.8036  26577.8  163.152
 2.8456  26547.3  163.703
 2.8876  25541  160.427
 2.9296  25295.3  159.787
 2.9716  24921.6  158.098
 3.0136  24829.3  157.874
 3.0556  24987.4  158.761
 3.0976  24895  157.379
 3.1396  24424.6  156.605
 3.1816  24279.9  156.086
 3.2236  24072.6  155.413
 3.2656  23887.3  153.868
 3.3076  23728.3  154.815
 3.3496  24074.9  154.866
 3.3916  24479.4  155.984
 3.4336  24739.5  157.396
 3.4756  24883.3  157.791
 3.5176  25837.2  160.553
 3.5596  25754.7  162.748
 3.6016  25704  160.209
 3.6436  24799.2  158.455
 3.6856  24405.4  155.519
 3.7276  23508.5  153.698
 3.7696  23316.1  153.256
 3.8116  22944.1  151.92
 3.8536  23039.7  152.174
 3.8956  23229.9  152.623
 3.9376  23675.5  154.347
 3.9796  22917.4  151.347
 4.0216  23052.8  150.841
 4.0636  22932.6  151.895
 4.1056  22796.8  151.107
 4.1476  23166.2  152.638
 4.1896  23263.8  152.816
 4.2316  23463.1  153.297
 4.2736  23680  153.805
 4.3156  24007.3  155.093
 4.3576  24728.1  157.308
 4.3996  24859.5  157.999
 4.4416  25737.9  160.349
 4.4836  27088.6  164.669
 4.5256  26803.9  164.413
 4.5676  26480.8  163.676
 4.6096  26998.9  163.918
 4.6516  27408  164.86
 4.6936  27396.7  165.652
 4.7356  28433.8  168.581
 4.7776  27452.7  165.474
 4.8196  27366.1  165.86
 4.8616  26663.1  163.209
 4.9036  26538.4  162.559
 4.9456  26716.2  163.761
 4.9876  26131.4  161.854
 5.0296  26060.4  161.479
 5.0716  25803.8  161.43
 5.1136  26007.9  161.786
 5.1556  26317.7  162.21
 5.1976  34669.4  186.151
 5.2396  26875.4  163.606
 5.2816  26998.1  164.452
 5.3236  26874.8  163.768
 5.3656  26383.7  163.193
 5.4076  26090.2  162.42
 5.4496  26100.8  161.956
 5.4916  26406.3  162.653
 5.5336  26143  161.848
 5.5756  26235.5  162.151
 5.6176  26372.8  162.012
 5.6596  26516.2  163.437
 5.7016  26629.3  163.054
 5.7436  26952.6  164.317
 5.7856  26669.1  163.515
 5.8276  26835.2  163.737
 5.8696  27358.5  165.501
 5.9116  27170.1  165.528
 5.9536  27464.8  166.168
 5.9956  27467.3  165.565
 6.0376  27587.7  166.55
 6.0796  27599.9  166.419
 6.1216  27704.9  166.927
 6.1636  27936.5  166.688
 6.2056  28049.2  167.699
 6.2476  28100.1  167.723
 6.2896  28476.5  168.52
 6.3316  28370.4  168.388
 6.3736  28466.7  168.566
 6.4156  28695.1  169.125
 6.4576  28861.9  169.237
 6.4996  28652  169.09
 6.5416  28767.3  169.561
 6.5836  29167.4  170.972
 6.6256  28962.1  169.933
 6.6676  29392.1  170.758
 6.7096  29489.1  171.899
 6.7516  29790.4  172.427
 6.7936  30616.7  174.215
 6.8356  31353.1  176.383
 6.8776  30546.2  174.897
 6.9196  30116.9  174.067
 6.9616  30709.4  175.214
 7.0036  31260.1  176.433
 7.0456  31234.8  175.667
 7.0876  31183.2  177.201
 7.1296  31079.4  176.041
 7.1716  31008  175.389
 7.2136  30977.4  175.079
 7.2556  30869.7  174.93
 7.2976  31146.5  176.207
 7.3396  30630.4  174.955
 7.3816  30880  175.879
 7.4236  31160.9  175.98
 7.4656  31392.1  176.099
 7.5076  31910.8  177.685
 7.5496  31581  177.313
 7.5916  31753.2  177.841
 7.6336  32568.3  179.994
 7.6756  32065.9  178.444
 7.7176  32626  180.323
 7.7596  32435.8  181.02
 7.8016  37997.4  198.312
 7.8436  32981.6  181.422
 7.8856  32870.5  180.726
 7.9276  33581.4  183.068
 7.9696  33705.5  183.709
 8.0116  34432.6  184.246
 8.0536  34836.8  185.574
 8.0956  37280.8  193.173
 8.1376  35452.1  187.856
 8.1796  35701  189.045
 8.2216  36581.6  190.112
 8.2636  37827.3  193.574
 8.3056  36640.1  191.279
 8.3476  38889.7  196.379
 8.3896  37524.6  192.984
 8.4316  36584.1  190.711
 8.4736  36698.2  190.483
 8.5156  36808.2  191.044
 8.5576  36512  191.237
 8.5996  36366.5  189.741
 8.6416  36145.9  190.409
 8.6836  35939.9  189.703
 8.7256  36627.1  190.955
 8.7676  39498.1  201.323
 8.8096  40122.7  200.102
 8.8516  37119.2  192.037
 8.8936  38949.7  196.667
 8.9356  36628.8  191.047
 8.9776  36669.2  191.237
 9.0196  36832.4  191.327
 9.0616  36714.1  190.521
 9.1036  39383.4  198.537
 9.1456  35861.7  188.789
 9.1876  35608.4  188.072
 9.2296  35244.2  186.542
 9.2716  35338.3  186.833
 9.3136  35319.2  186.777
 9.3556  35569.8  187.421
 9.3976  34252.7  184.435
 9.4396  34202  184.195
 9.4816  34132.9  183.866
 9.5236  33994.2  183.395
 9.5656  33583.4  182.637
 9.6076  32835.7  181.107
 9.6496  33243.3  182.119
 9.6916  32899.5  181.128
 9.7336  33360.9  182.159
 9.7756  33028.6  182.525
 9.8176  32887.3  181.637
 9.8596  32671.4  179.503
 9.9016  32470.7  178.939
 9.9436  32033.3  177.647
 9.9856  32442.7  179.048
 10.0276  31428.9  177.295
 10.0696  31793.5  177.344
 10.1116  31217.9  176.002
 10.1536  30792.5  174.958
 10.1956  30319.5  173.232
 10.2376  30200.4  172.404
 10.2796  29878.6  171.576
 10.3216  29778.2  171.58
 10.3636  29638.6  171.207
 10.4056  31888.1  177.997
 10.4476  34245.3  184.057
 10.4896  37467.6  191.893
 10.5316  32395.3  179.202
 10.5736  29492.1  171.392
 10.6156  29023.9  169.783
 10.6576  34468.6  183.439
 10.6996  29099.2  169.268
 10.7416  28331.3  167.238
 10.7836  29252.7  170.614
 10.8256  27192  164.921
 10.8676  27365.5  164.988
 10.9096  27488.2  165.401
 10.9516  26820.7  162.32
 10.9936  28002  166.072
 11.0356  27422.6  164.954
 11.0776  28441.9  167.306
 11.1196  27981.6  166.737
 11.1616  26322.1  161.384
 11.2036  27290.7  164.177
 11.2456  28950.1  169.832
 11.2876  26255.1  161.46
 11.3296  26264.9  161.408
 11.3716  26624.3  162.197
 11.4136  26004.6  161.176
 11.4556  26382.1  162.002
 11.4976  27525.5  164.443
 11.5396  27441.3  164.361
 11.5816  25981.8  160.378
 11.6236  25277.3  158.411
 11.6656  25738.8  159.011
 11.7076  24826.4  156.983
 11.7496  25405.8  162.825
 11.7916  25698  158.962
 11.8336  24417.7  155.84
 11.8756  25153.3  157.713
 11.9176  24399.4  154.999
 11.9596  24455.5  155.355
 12.0016  23984.2  154.605
 12.0436  24242.2  154.896
 12.0856  23742.1  153.785
 12.1276  23783.7  153.871
 12.1696  24058.4  153.872
 12.2116  24161.2  154.194
 12.2536  27006.4  163.907
 12.2956  24327.5  154.887
 12.3376  24157.2  154.562
 12.3796  23963.9  154.418
 12.4216  24085.2  154.009
 12.4636  25101.5  158.175
 12.5056  23568  152.54
 12.5476  23583.6  152.116
 12.5896  23254.6  151.682
 12.6316  23564.3  152.837
 12.6736  23358  152.651
 12.7156  23962  154.456
 12.7576  23384.1  152.831
 12.7996  23710.8  152.542
 12.8416  23794  153.868
 12.8836  24780.9  156.841
 12.9256  24313.1  154.39
 12.9676  24102.2  154.112
 13.0096  23949.4  154.742
 13.0516  24018.4  154.003
 13.0936  24119.7  154.732
 13.1356  24328.1  154.366
 13.1776  24252.9  155.14
 13.2196  24041.5  154.107
 13.2616  23798.2  153.636
 13.3036  24087.1  154.531
 13.3456  23746.6  153.774
 13.3876  24576  155.718
 13.4296  23836.9  153.519
 13.4716  24279.8  154.566
 13.5136  24177.9  154.369
 13.5556  24226.6  155.148
 13.5976  24018  154.652
 13.6396  24457.7  155.415
 13.6816  24211.4  155.106
 13.7236  24883.2  156.803
 13.7656  26341  161.799
 13.8076  27846.2  164.981
 13.8496  26911.7  162.856
 13.8916  24726  157.245
 13.9336  23755.3  153.416
 13.9756  23870  153.18
 14.0176  23482.6  152.601
 14.0596  24612.5  156.163
 14.1016  23495.1  152.994
 14.1436  23422.8  151.894
 14.1856  22985.3  150.747
 14.2276  23211.3  151.984
 14.2696  23161.8  151.672
 14.3116  22431.7  149.169
 14.3536  22039.6  148.025
 14.3956  22098  147.948
 14.4376  22306.6  148.425
 14.4796  22207.4  148.102
 14.5216  21808.6  147.549
 14.5636  22651.3  149.933
 14.6056  21900.7  146.994
 14.6476  21636.1  145.352
 14.6896  21286.5  144.71
 14.7316  20971.5  144.663
 14.7736  20892.9  143.535
 14.8156  20694.5  142.876
 14.8576  20633.7  142.531
 14.8996  20579.8  143.529
 14.9416  20010.6  141.54
 14.9836  20052.1  141.675
 15.0256  19329.7  138.027
 15.0676  19345  138.385
 15.1096  19329.1  138.077
 15.1516  18948.6  137.258
 15.1936  18966.7  136.76
 15.2356  18882  136.729
 15.2776  18753.4  135.856
 15.3196  18481.5  135.847
 15.3616  18362  135.17
 15.4036  18259.5  134.653
 15.4456  18596.7  135.546
 15.4876  18262.9  134.011
 15.5296  18132.2  133.809
 15.5716  17641.1  131.595
 15.6136  17629.7  131.877
 15.6556  19363.6  137.429
 15.6976  17942  132.582
 15.7396  17812  132.485
 15.7816  17631.6  131.322
 15.8236  17136.5  130.151
 15.8656  17291.3  130.537
 15.9076  17163.3  129.876
 15.9496  18521.7  137.793
 15.9916  17540.1  134.496
 16.0336  17563.3  131.462
 16.0756  17348.2  130.984
 16.1176  17086.5  130.063
 16.1596  16911.2  130.57
 16.2016  16789.7  128.862
 16.2436  16680.7  128.824
 16.2856  17075.1  129.859
 16.3276  16549.3  128.274
 16.3696  16672.3  128.563
 16.4116  16329.1  127.666
 16.4536  16467.3  128.026
 16.4956  17526.3  131.81
 16.5376  16583.2  128.406
 16.5796  16316.6  126.734
 16.6216  16144.2  126.327
 16.6636  16328  127.231
 16.7056  16189  126.554
 16.7476  16263.5  126.376
 16.7896  16453.6  127.863
 16.8316  16204.5  126.866
 16.8736  16706.8  129.075
 16.9156  16573.7  128.886
 16.9576  16062.4  127.672
 16.9996  16191.5  128.657
 17.0416  16085.1  126.622
 17.0836  16038.2  126.203
 17.1256  15903.3  125.681
 17.1676  16653.5  128.562
 17.2096  16149.1  126.508
 17.2516  15870.2  125.197
 17.2936  15700.6  124.872
 17.3356  15429.7  123.775
 17.3776  15219  123.106
 17.4196  15301.3  123.146
 17.4616  15491.8  123.812
 17.5036  16167.2  126.862
 17.5456  15098.8  123.236
 17.5876  15102.4  122.302
 17.6296  15003.4  121.732
 17.6716  15273.4  123.4
 17.7136  16424.4  128.085
 17.7556  14997.7  122.709
 17.7976  15389.2  124.02
 17.8396  15113.5  122.413
 17.8816  14633.8  121.01
 17.9236  14811.3  121.539
 17.9656  14725.4  121.707
 18.0076  15532.2  124.568
 18.0496  15590.8  123.929
 18.0916  20984.5  144.314
 18.1336  17595.6  132.356
 18.1756  15621.7  124.239
 18.2176  16146.5  126.536
 18.2596  14668.6  120.328
 18.3016  15420.1  123.645
 18.3436  15763  125.011
 18.3856  15160.1  122.727
 18.4276  14623.8  120.231
 18.4696  14896.6  121.439
 18.5116  14889  121.674
 18.5536  14508.5  120.475
 18.5956  14431.9  119.721
 18.6376  14752.4  121.447
 18.6796  14452.1  119.514
 18.7216  14508.7  120.249
 18.7636  14320.8  119.473
 18.8056  13870.8  117.501
 18.8476  13820  117.91
 18.8896  13834.9  117.323
 18.9316  14211.9  118.884
 18.9736  14007.2  117.722
 19.0156  14262.7  119.214
 19.0576  14517.2  119.104
 19.0996  14066.1  117.954
 19.1416  14128.9  118.609
 19.1836  13884.4  117.19
 19.2256  13581.4  116.122
 19.2676  13701.4  116.721
 19.3096  13753.5  117.185
 19.3516  13650.2  116.701
 19.3936  13892.2  117.626
 19.4356  13872.2  117.428
 19.4776  13666.9  116.645
 19.5196  13740.6  116.807
 19.5616  13854.8  117.557
 19.6036  13690.1  116.351
 19.6456  13966.2  117.637
 19.6876  14354.8  118.882
 19.7296  13868.6  117.33
 19.7716  13693.8  116.749
 19.8136  14110.8  118.705
 19.8556  14342.4  119.166
 19.8976  14568.3  120.161
 19.9396  14329.8  118.752
 19.9816  14455.4  119.527
 20.0236  14920.7  121.635
 20.0656  13975.7  117.72
 20.1076  13820.9  117.539
 20.1496  13517.1  116.229
 20.1916  13857.1  117.206
 20.2336  13703.1  116.469
 20.2756  13419.4  115.689
 20.3176  13350.4  115.146
 20.3596  13338.5  115.08
 20.4016  13425.3  115.249
 20.4436  13151.3  114.622
 20.4856  13307.1  115.098
 20.5276  13122.3  114.753
 20.5696  13310.2  115.024
 20.6116  13280.3  115.163
 20.6536  13113.8  113.962
 20.6956  13100.4  114.031
 20.7376  12983.7  113.733
 20.7796  13003.7  113.517
 20.8216  13207.6  114.113
 20.8636  13438  115.487
 20.9056  14209.5  118.696
 20.9476  13273  114.56
 20.9896  14213.9  118.406
 21.0316  12966.2  112.99
 21.0736  13238.2  114.693
 21.1156  13511.7  116.029
 21.1576  13231.1  114.86
 21.1996  12879  113.311
 21.2416  12901.5  113.238
 21.2836  13116.7  114.142
 21.3256  13019.4  113.801
 21.3676  13047.6  113.464
 21.4096  13390.3  115.271
 21.4516  12847.2  112.78
 21.4936  12523.1  111.605
 21.5356  12953.3  113.453
 21.5776  12854.1  112.856
 21.6196  12961.4  113.366
 21.6616  12897.5  113.166
 21.7036  12710.1  112.112
 21.7456  12581.7  111.612
 21.7876  12531.5  111.16
 21.8296  12641.8  111.5
 21.8716  12508.3  111.13
 21.9136  12651.7  111.966
 21.9556  13009.5  113.22
 21.9976  12570.6  111.319
 22.0396  12533.8  111.406
 22.0816  12607  112.264
 22.1236  12940.7  113.189
 22.1656  12648.9  112.047
 22.2076  12260.2  109.776
 22.2496  12405.8  110.453
 22.2916  12369.6  110.172
 22.3336  12488.8  111.424
 22.3756  12336.3  110.466
 22.4176  12367.2  110.462
 22.4596  12007.6  109.419
 22.5016  12217.6  109.883
 22.5436  12334  110.281
 22.5856  12520.5  111.353
 22.6276  12517.8  111.476
 22.6696  12244.6  110.606
 22.7116  12193.8  109.895
 22.7536  12243  110.092
 22.7956  12296.3  109.67
 22.8376  11980.4  108.764
 22.8796  12172.8  109.436
 22.9216  12098.5  109.636
 22.9636  12196.1  109.244
 23.0056  12157  109.2
 23.0476  12378.1  110.757
 23.0896  12483.3  110.607
 23.1316  12455.6  110.914
 23.1736  12386.5  113.531
 23.2156  12517.8  111.528
 23.2576  12722.3  112.569
 23.2996  12484.7  111.286
 23.3416  12681.7  112.693
 23.3836  12623.1  111.663
 23.4256  12591.4  111.644
 23.4676  12622.1  111.469
 23.5096  12621.9  112.129
 23.5516  12398.2  110.429
 23.5936  12622  112.341
 23.6356  12840.4  112.967
 23.6776  12331.7  110.914
 23.7196  12298.1  110.346
 23.7616  12313.9  110.333
 23.8036  12466.7  111.075
 23.8456  12266.5  109.731
 23.8876  12329.9  110.376
 23.9296  12263.8  110.561
 23.9716  12309.5  109.974
 24.0136  12365.7  111.127
 24.0556  12071.9  109.518
 24.0976  11929.4  108.69
 24.1396  12069.5  111.931
 24.1816  12121.3  110.597
 24.2236  12173.6  110.46
 24.2656  12235.4  110.205
 24.3076  12135.9  110.03
 24.3496  12298.9  110.641
 24.3916  12258.4  110.516
 24.4336  12107.9  110.017
 24.4756  12067  109.732
 24.5176  11824.6  108.254
 24.5596  11770.1  108.115
 24.6016  11643.8  107.84
 24.6436  12096  109.416
 24.6856  11916.7  108.342
 24.7276  11830.9  108.276
 24.7696  11861.9  108.525
 24.8116  11585.3  107.428
 24.8536  11599.7  107.507
 24.8956  11556.5  107.041
 24.9376  11761.4  107.902
 24.9796  11544.1  107.271
 25.0216  11474.1  107.063
 25.0636  11755.9  108.019
 25.1056  11225.5  106.25
 25.1476  11192.5  107.727
 25.1896  11206  106.295
 25.2316  11167.9  105.393
 25.2736  11297.1  105.651
 25.3156  11116.5  104.874
 25.3576  10992.1  104.717
 25.3996  11183.6  105.617
 25.4416  11113.1  105.259
 25.4836  10949.8  104.999
 25.5256  10970.6  104.462
 25.5676  11172.1  105.143
 25.6096  10940.3  104.615
 25.6516  11033.3  104.565
 25.6936  11077.7  105.099
 25.7356  10916.6  104.465
 25.7776  11107.2  104.971
 25.8196  10979.9  104.603
 25.8616  10863.5  103.982
 25.9036  11300.6  105.502
 25.9456  10806.4  103.758
 25.9876  10775.4  103.675
 26.0296  10888.8  103.738
 26.0716  10987.9  104.637
 26.1136  11032.7  104.772
 26.1556  11130.2  104.618
 26.1976  10639.5  103.209
 26.2396  10891.4  103.571
 26.2816  10854.9  104.013
 26.3236  10916  104.455
 26.3656  11033.1  104.742
 26.4076  10830.9  103.976
 26.4496  10959.1  104.182
 26.4916  11046.1  104.494
 26.5336  11438  106.682
 26.5756  11800.9  108.233
 26.6176  11326.3  106.048
 26.6596  10821.7  103.971
 26.7016  10597.2  102.653
 26.7436  10738.8  103.463
 26.7856  10613.8  102.844
 26.8276  10473.7  102.137
 26.8696  10486.8  102.064
 26.9116  10474  101.942
 26.9536  10405  101.658
 26.9956  10368.7  101.513
 27.0376  10425.1  102.012
 27.0796  10388.2  101.554
 27.1216  10650.9  102.901
 27.1636  10445.6  102.074
 27.2056  10400  101.729
 27.2476  10375.7  101.604
 27.2896  10291.6  101.307
 27.3316  10435.9  101.732
 27.3736  10134  100.518
 27.4156  10357  101.453
 27.4576  10379  101.781
 27.4996  10406.3  101.527
 27.5416  10335.9  101.49
 27.5836  10227.6  100.791
 27.6256  10201.9  100.845
 27.6676  10205.4  100.859
 27.7096  10274.6  101.078
 27.7516  10724  103.414
 27.7936  10950.4  104.648
 27.8356  10746.5  103.271
 27.8776  10631  102.785
 27.9196  10422.5  101.625
 27.9616  10558.2  102.489
 28.0036  10312.1  101.25
 28.0456  10095.2  100.311
 28.0876  10119.2  100.52
 28.1296  10129.9  100.402
 28.1716  10186.6  100.707
 28.2136  10089.3  100.193
 28.2556  10126  100.484
 28.2976  10022.1  99.9644
 28.3396  10212.1  100.662
 28.3816  10054.5  99.8975
 28.4236  10131.6  100.421
 28.4656  9824.04  98.9332
 28.5076  9827.05  98.5928
 28.5496  9843.49  98.9283
 28.5916  9864.21  98.841
 28.6336  9980.42  99.7622
 28.6756  9809.87  98.1159
 28.7176  9831.55  98.7782
 28.7596  9791.51  98.47
 28.8016  9833.25  98.7105
 28.8436  9662.8  98.0933
 28.8856  9730.89  98.2941
 28.9276  9900.98  99.3923
 28.9696  9720.06  98.1402
 29.0116  9593.47  97.6827
 29.0536  9590.73  97.8766
 29.0956  9764.18  98.4575
 29.1376  9799.2  98.6062
 29.1796  9679.26  98.0501
 29.2216  9569.53  97.3345
 29.2636  9710.95  98.1273
 29.3056  9620.95  97.45
 29.3476  9594.56  97.8475
 29.3896  9702.19  98.5031
 29.4316  9524.12  96.9283
 29.4736  9370.02  96.2033
 29.5156  9538.09  96.9819
 29.5576  9294.41  96.4643
 29.5996  9515.65  96.8693
 29.6416  9408.04  96.4349
 29.6836  9454.05  96.6017
 29.7256  9302.99  96.3813
 29.7676  9443.05  96.7691
 29.8096  9380.34  96.392
 29.8516  9153.78  95.5463
 29.8936  9438.63  97.112
 29.9356  9353.54  96.4333
 29.9776  9427.33  96.9656
 30.0196  9460.96  96.5278
 30.0616  9413.01  96.6556
 30.1036  9262.38  95.7069
 30.1456  9176.85  95.4923
 30.1876  9273.43  95.9733
 30.2296  9102.76  95.0363
 30.2716  9303.62  95.7192
 30.3136  9327.43  96.6922
 30.3556  9455.6  97.3537
 30.3976  9415.89  98.6449
 30.4396  9804.95  97.9909
 30.4816  9616.5  96.6478
 30.5236  9624.63  96.6754
 30.5656  9506.87  96.7507
 30.6076  9503.07  96.141
 30.6496  9544.78  96.7522
 30.6916  9327.3  95.7362
 30.7336  9416.69  96.3549
 30.7756  9364.88  96.1549
 30.8176  9581.17  97.1996
 30.8596  9428.4  96.1645
 30.9016  9257.66  95.6523
 30.9436  9347.38  95.8458
 30.9856  9386.93  96.1726
 31.0276  9436.96  96.0622
 31.0696  9310.73  95.9703
 31.1116  9196.67  95.3531
 31.1536  9385.5  96.2108
 31.1956  9383.35  96.2788
 31.2376  9034.72  94.5079
 31.2796  9246.17  95.1465
 31.3216  9279.28  95.2451
 31.3636  9358.02  96.347
 31.4056  9180.47  96.7168
 31.4476  9298.74  95.2593
 31.4896  9265.45  95.5818
 31.5316  9472.98  96.0486
 31.5736  10033.7  98.6786
 31.6156  9638.5  96.7197
 31.6576  9585.97  96.529
 31.6996  9556.62  96.0399
 31.7416  9366.26  96.1853
 31.7836  9565.11  96.1803
 31.8256  9397.22  95.6064
 31.8676  9337.6  95.3034
 31.9096  9238.38  95.1546
 31.9516  9323.33  95.7636
 31.9936  9074.4  94.2918
 32.0356  9335.65  95.6808
 32.0776  9379.01  95.8098
 32.1196  9309.28  95.5614
 32.1616  9234.07  94.6206
 32.2036  9214.76  95.0378
 32.2456  9206.51  95.373
 32.2876  9209.88  94.8858
 32.3296  9072.51  94.1419
 32.3716  8998.39  93.8705
 32.4136  9040.83  94.2941
 32.4556  9186.15  94.4255
 32.4976  9025.02  93.5053
 32.5396  8840.58  92.6086
 32.5816  8965.22  93.3883
 32.6236  8962.18  93.4377
 32.6656  9134.23  94.8741
 32.7076  8848.49  93.0312
 32.7496  8933.54  93.1436
 32.7916  9011.24  93.5167
 32.8336  8925.89  93.1645
 32.8756  8927.62  92.8967
 32.9176  8837.62  92.9126
 32.9596  8964.01  93.6462
 33.0016  8908.08  93.1347
 33.0436  8851.7  93.0091
 33.0856  8791.99  92.785
 33.1276  8734.05  92.2141
 33.1696  8843.88  92.6232
 33.2116  8831.92  92.7878
 33.2536  9026.67  93.7902
 33.2956  8892.97  93.1881
 33.3376  8930.92  93.1263
 33.3796  8848.15  92.9133
 33.4216  8751.11  91.9895
 33.4636  8824  92.528
 33.5056  8688.99  92.0615
 33.5476  8824.06  92.7527
 33.5896  8816.45  92.5061
 33.6316  8699.75  92.2011
 33.6736  8626.29  92.0473
 33.7156  8772.23  92.861
 33.7576  8684.42  92.0387
 33.7996  8804.07  92.4332
 33.8416  8579.27  91.4292
 33.8836  8624.32  91.4422
 33.9256  8741.63  92.1233
 33.9676  8843.72  92.5561
 34.0096  8564.46  91.3879
 34.0516  8663.29  91.5547
 34.0936  8533.69  91.137
 34.1356  8659.8  91.5425
 34.1776  8552.75  90.9774
 34.2196  8563.84  91.2231
 34.2616  8473.72  90.8724
 34.3036  8634.18  91.9843
 34.3456  8591.51  91.5062
 34.3876  8655.63  91.8237
 34.4296  8547.22  90.9372
 34.4716  8748.53  92.1529
 34.5136  8588.37  91.4856
 34.5556  8467.76  91.1049
 34.5976  8644.07  91.8616
 34.6396  8521.52  90.9197
 34.6816  8713.7  92.0406
 34.7236  8584.53  91.1462
 34.7656  8599.84  91.4336
 34.8076  8442.35  90.919
 34.8496  8457.54  90.8475
 34.8916  8532.51  91.1069
 34.9336  8567.65  91.2814
 34.9756  8571.02  91.2213
 35.0176  8486.1  91.2947
 35.0596  8645.85  91.9739
 35.1016  8553.17  91.2296
 35.1436  8722.54  91.8177
 35.1856  8392.59  90.1857
 35.2276  8493.02  90.893
 35.2696  8525.48  91.2462
 35.3116  8455.68  90.9889
 35.3536  8484.62  90.8508
 35.3956  8394.05  90.0799
 35.4376  8471.21  91.0579
 35.4796  8463.54  91.0524
 35.5216  8453.46  90.9683
 35.5636  8211.04  90.3795
 35.6056  8355.41  90.1985
 35.6476  8395.08  90.3181
 35.6896  8521.88  91.0874
 35.7316  8438.55  90.6169
 35.7736  8338.75  90.2653
 35.8156  8511.91  91.2022
 35.8576  8422.7  90.9608
 35.8996  8432.63  90.9799
 35.9416  8440.51  90.5388
 35.9836  8355.32  90.4165
 36.0256  8555.46  91.5117
 36.0676  8389.04  90.3718
 36.1096  8507.09  91.1533
 36.1516  8476.53  90.8676
 36.1936  8349.33  90.0331
 36.2356  8380.48  90.8586
 36.2776  8280.73  89.7909
 36.3196  8524.47  90.7707
 36.3616  8326.97  89.8484
 36.4036  8338.79  89.9736
 36.4456  8360.09  90.2975
 36.4876  8285.48  89.8357
 36.5296  8299.91  89.9544
 36.5716  8296.93  90.7192
 36.6136  8290.37  89.463
 36.6556  8368.01  90.0749
 36.6976  8117.66  89.2136
 36.7396  8117.73  88.9478
 36.7816  8040.12  88.8926
 36.8236  8068.11  88.9665
 36.8656  8083.94  89.1235
 36.9076  8045.01  88.7929
 36.9496  8009.11  88.5845
 36.9916  8090.33  88.6615
 37.0336  8224.86  89.7139
 37.0756  8134.62  89.0113
 37.1176  7968.82  88.3647
 37.1596  7960.7  88.329
 37.2016  8006.58  88.804
 37.2436  8189.2  89.1209
 37.2856  7939.36  88.0005
 37.3276  7967.26  87.5254
 37.3696  7963.48  88.378
 37.4116  7963.1  88.2842
 37.4536  7864.56  87.6024
 37.4956  7931.77  88.0216
 37.5376  8215.29  91.1726
 37.5796  8037.62  90.112
 37.6216  8048.83  88.4544
 37.6636  8107.11  88.6613
 37.7056  8161.39  89.1553
 37.7476  8084.33  88.2726
 37.7896  8128.03  89.0166
 37.8316  7991.2  88.4255
 37.8736  8003.84  88.0156
 37.9156  8025.81  88.1277
 37.9576  8017.95  88.0066
 37.9996  7934.16  87.2555
 38.0416  7925.06  88.0104
 38.0836  8197.08  89.413
 38.1256  8069.62  88.683
 38.1676  7918.58  87.9757
 38.2096  8315.24  89.7526
 38.2516  8141.2  89.0265
 38.2936  8107.16  88.6363
 38.3356  8058.69  88.3062
 38.3776  8067.61  88.6009
 38.4196  7942.69  87.7681
 38.4616  8052.7  88.6276
 38.5036  8160.11  89.0594
 38.5456  7838.29  88.102
 38.5876  7938.9  88.6812
 38.6296  7932.02  87.6296
 38.6716  8022.88  87.9275
 38.7136  7936.36  87.4018
 38.7556  7930.83  87.8757
 38.7976  8030.08  88.3581
 38.8396  8015.81  88.7298
 38.8816  7943.73  88.1254
 38.9236  7913.05  87.7501
 38.9656  8064.72  88.4919
 39.0076  7935.13  87.1742
 39.0496  8090.03  88.6001
 39.0916  7892.86  87.1587
 39.1336  7915.08  87.688
 39.1756  7890.5  87.6148
 39.2176  7921.54  88.3226
 39.2596  7883.59  88.0335
 39.3016  7974.72  88.1254
 39.3436  7832.09  87.7413
 39.3856  7953.06  87.86
 39.4276  8073.23  89.0354
 39.4696  7822.08  87.2643
 39.5116  7963.64  88.5588
 39.5536  7983.86  89.0854
 39.5956  7888.78  87.6696
 39.6376  7882.83  87.6393
 39.6796  7854.44  87.2278
 39.7216  7833.12  87.2029
 39.7636  7897.22  88.122
 39.8056  7935.62  88.1248
 39.8476  7852.28  87.9157
 39.8896  7976.82  88.2395
 39.9316  7884.75  87.9729
 39.9736  7959  87.9626
 40.0156  7931.79  87.6438
 40.0576  7869.15  87.6463
 40.0996  8023.05  87.6838
 40.1416  7974.45  88.2125
 40.1836  7936.71  87.8909
 40.2256  7927.87  87.8772
 40.2676  7817.71  87.371
 40.3096  7961.38  88.1037
 40.3516  8000.21  88.4277
 40.3936  7922.85  87.5414
 40.4356  7909.75  87.678
 40.4776  7987.63  88.5232
 40.5196  7990.11  88.6622
 40.5616  8087.25  88.8351
 40.6036  7865.98  87.8685
 40.6456  7855.43  87.4156
 40.6876  8074.43  88.6204
 40.7296  7865.88  87.6018
 40.7716  7946.21  88.1757
 40.8136  7830.71  87.4789
 40.8556  7962.05  88.3367
 40.8976  8032.04  88.6387
 40.9396  7859.53  88.0395
 40.9816  7923.12  87.6837
 41.0236  7917.46  87.4354
 41.0656  7983.9  88.337
 41.1076  7862.57  87.4371
 41.1496  8004.81  88.1315
 41.1916  7862.26  87.6542
 41.2336  7906.57  87.9066
 41.2756  7899.6  87.472
 41.3176  8026  88.7812
 41.3596  7959.4  88.1489
 41.4016  7783.71  87.4259
 41.4436  7920.42  87.9798
 41.4856  7930.37  88.1978
 41.5276  7865.95  87.8569
 41.5696  7922.52  87.8039
 41.6116  7855.01  87.8149
 41.6536  7982.45  88.3746
 41.6956  7944.52  88.2291
 41.7376  7851.52  87.7399
 41.7796  7857.5  87.6567
 41.8216  7857.33  87.8877
 41.8636  7893.06  88.0281
 41.9056  7742.58  86.9831
 41.9476  7952.77  88.3841
 41.9896  8021.44  88.4319
 42.0316  7983.35  88.3112
 42.0736  8022.03  88.628
 42.1156  7954.44  88.0862
 42.1576  7905.26  87.9206
 42.1996  7987.95  88.4896
 42.2416  7926.42  87.7543
 42.2836  7924.02  87.8615
 42.3256  7835.61  87.479
 42.3676  7989.1  88.1285
 42.4096  7927.61  87.7638
 42.4516  7931.27  87.8645
 42.4936  7887.76  87.6932
 42.5356  7793.7  87.3048
 42.5776  7921.62  87.9568
 42.6196  7807.86  87.3685
 42.6616  7696  86.9244
 42.7036  7874.25  87.3056
 42.7456  7886.97  87.7283
 42.7876  7825.8  87.4763
 42.8296  7822.45  87.3042
 42.8716  7801.21  87.3484
 42.9136  7822.54  87.2548
 42.9556  7753.86  86.996
 42.9976  7924.49  87.9202
 43.0396  7861.27  87.298
 43.0816  7822.01  87.4625
 43.1236  7731.88  87.0101
 43.1656  7776.88  87.0868
 43.2076  7759.85  87.1021
 43.2496  7846.18  87.4036
 43.2916  7753.96  87.2477
 43.3336  7857.77  87.66
 43.3756  7764.05  86.895
 43.4176  7730.16  86.7901
 43.4596  7654.98  86.2224
 43.5016  7703.91  86.8946
 43.5436  7762.28  87.128
 43.5856  7652.96  86.5471
 43.6276  7670.96  86.5377
 43.6696  7608.82  86.439
 43.7116  7770.21  86.853
 43.7536  7800.91  87.5192
 43.7956  7615.38  87.689
 43.8376  7652.51  86.4137
 43.8796  7577.27  86.0682
 43.9216  7626.12  86.2621
 43.9636  7673.86  86.6439
 44.0056  7440.19  85.5408
 44.0476  7560.62  85.8613
 44.0896  7532.44  86.0445
 44.1316  7499.47  85.3816
 44.1736  7495.89  85.4855
 44.2156  7512.5  85.4376
 44.2576  7542.63  85.926
 44.2996  7650.6  86.5083
 44.3416  7523.96  85.5575
 44.3836  7481.4  85.6363
 44.4256  7422.86  84.9529
 44.4676  7408.47  85.0221
 44.5096  7485.03  85.6063
 44.5516  7421.14  85.204
 44.5936  7376.94  84.9039
 44.6356  7561.7  85.6991
 44.6776  7533.26  85.8545
 44.7196  7511.12  86.0355
 44.7616  7517.12  87.3956
 44.8036  7462.23  85.5097
 44.8456  7591.51  86.4555
 44.8876  7587.28  86.2778
 44.9296  7615.97  85.8788
 44.9716  7634.47  86.4134
 45.0136  7727.54  86.8833
 45.0556  7697.64  86.6919
 45.0976  7626.86  86.4557
 45.1396  7747.33  86.8775
 45.1816  7423.92  84.9886
 45.2236  7704.94  86.4903
 45.2656  7387.22  85.1688
 45.3076  7562.4  85.952
 45.3496  7494.33  85.8784
 45.3916  7540.22  86.421
 45.4336  7632.14  86.788
 45.4756  7511.92  85.9531
 45.5176  7539.94  85.7269
 45.5596  7584.31  86.1079
 45.6016  7489.1  85.9808
 45.6436  7478  85.0965
 45.6856  7530.11  86.0535
 45.7276  7456  86.9325
 45.7696  7418.02  86.3979
 45.8116  7637.77  87.0932
 45.8536  7416.54  85.7237
 45.8956  7545.53  85.8092
 45.9376  7478.79  84.8846
 45.9796  7493.37  85.6592
 46.0216  7565.11  86.4167
 46.0636  7693.09  86.2736
 46.1056  7562.05  85.5242
 46.1476  7566.31  86.1478
 46.1896  7560.95  86.2683
 46.2316  7467.13  85.586
 46.2736  7391.03  85.5326
 46.3156  7457.05  85.4916
 46.3576  7510.24  86.0029
 46.3996  7535.85  86.3044
 46.4416  7473.05  85.5225
 46.4836  7368.72  85.281
 46.5256  7556.19  86.2991
 46.5676  7489.32  86.0344
 46.6096  7580.08  86.4843
 46.6516  7506.12  85.0888
 46.6936  7484.23  85.4725
 46.7356  7615.9  86.3198
 46.7776  7468.72  86.3339
 46.8196  7544.26  86.3612
 46.8616  7335.31  85.1076
 46.9036  7202.97  83.986
 46.9456  7404.32  84.7968
 46.9876  7413.86  84.9305
 47.0296  7329.55  85.1373
 47.0716  7363.66  85.1612
 47.1136  7392.45  85.0087
 47.1556  7376.95  84.7789
 47.1976  7568.62  85.9502
 47.2396  7247.65  84.5095
 47.2816  7328.38  84.6815
 47.3236  7463.06  85.8259
 47.3656  7298.49  84.8119
 47.4076  7339.15  84.8474
 47.4496  7322.69  84.8464
 47.4916  7413.95  85.5659
 47.5336  7445.11  85.5544
 47.5756  7492.36  85.9475
 47.6176  7293.12  84.695
 47.6596  7279.63  84.3329
 47.7016  7529.35  85.5724
 47.7436  7492.56  85.7086
 47.7856  7460.74  85.5582
 47.8276  7263.15  84.4702
 47.8696  7280.36  84.6462
 47.9116  7408.41  85.1033
 47.9536  7348.05  84.6948
 47.9956  7379.14  85.5936
 48.0376  7302.85  84.9204
 48.0796  7345.33  85.2943
 48.1216  7364.27  85.2253
 48.1636  7447.89  85.2672
 48.2056  7399.53  85.2599
 48.2476  7542.13  86.3974
 48.2896  7391.23  85.4355
 48.3316  7384.98  85.3443
 48.3736  7323.07  85.0034
 48.4156  7317.64  84.8189
 48.4576  7367.27  85.4106
 48.4996  7412.87  85.1205
 48.5416  7438.36  85.6002
 48.5836  7365.75  84.8538
 48.6256  7409.46  85.3174
 48.6676  7386.77  85.7048
 48.7096  7443.98  85.2925
 48.7516  7341.9  84.8571
 48.7936  7249.42  84.3827
 48.8356  7376.96  85.1732
 48.8776  7335.5  85.5113
 48.9196  7497.09  85.8067
 48.9616  7219.6  84.5805
 49.0036  7339.57  85.6442
 49.0456  7338.85  85.6121
 49.0876  7364.46  85.287
 49.1296  7179.43  84.3751
 49.1716  7248.82  84.6505
 49.2136  7344.38  85.1253
 49.2556  7395.03  85.4644
 49.2976  7425.44  85.7047
 49.3396  7304.44  85.0612
 49.3816  7391.81  84.9815
 49.4236  7390.72  85.4189
 49.4656  7165.37  84.1201
 49.5076  7289.34  84.5904
 49.5496  7307.84  84.7594
 49.5916  7310.1  84.6865
 49.6336  7279.42  84.7278
 49.6756  7267.21  84.8832
 49.7176  7353.2  85.3248
 49.7596  7221.82  84.3248
 49.8016  7329.33  84.873
 49.8436  7265.47  84.7938
 49.8856  7189.22  84.357
 49.9276  7182.96  84.4185
 49.9696  7260.15  84.8575
 50.0116  7268.61  85.0381
 50.0536  7291.55  85.1208
 50.0956  7239.48  84.886
 50.1376  7242.93  84.6028
 50.1796  7193.1  84.5843
 50.2216  7277.99  85.0677
 50.2636  7218.61  84.3409
 50.3056  7195.3  84.3814
 50.3476  7253.65  84.7376
 50.3896  7163.11  84.188
 50.4316  7237.51  84.4477
 50.4736  7167.7  84.2655
 50.5156  7148.16  84.1404
 50.5576  7264.55  84.5719
 50.5996  7256.91  84.8212
 50.6416  7067.55  83.6355
 50.6836  7252.33  84.7817
 50.7256  7272.83  84.8138
 50.7676  7253.12  85.0358
 50.8096  7173.54  84.0894
 50.8516  7140.23  84.3187
 50.8936  7046.28  83.5482
 50.9356  7302.9  85.1641
 50.9776  7185.13  84.6346
 51.0196  6865.2  82.8514
 51.0616  7062.75  83.3475
 51.1036  7075.78  83.7904
 51.1456  7117.77  83.9497
 51.1876  7108.12  83.2123
 51.2296  7001.97  83.2373
 51.2716  6951.26  82.641
 51.3136  7026.21  83.5533
 51.3556  6961.51  82.7819
 51.3976  7020.77  83.2821
 51.4396  6903.88  82.9067
 51.4816  7009.39  83.3902
 51.5236  6927.42  82.9867
 51.5656  6964.73  82.7893
 51.6076  7099.52  83.6847
 51.6496  7057.57  83.6269
 51.6916  6956.72  83.3944
 51.7336  6900.39  83.1493
 51.7756  7013.49  83.5125
 51.8176  6850.98  82.6557
 51.8596  7041.92  83.8141
 51.9016  6997.73  83.1472
 51.9436  7050.3  84.9827
 51.9856  7074.5  85.5527
 52.0276  7114.54  84.2463
 52.0696  7239.65  85.0591
 52.1116  6957.11  83.5016
 52.1536  7112.74  84.3126
 52.1956  6980.58  82.9814
 52.2376  7189.96  84.3907
 52.2796  7063.97  83.4664
 52.3216  6945.98  83.4646
 52.3636  7001.13  83.3497
 52.4056  6981.14  83.0935
 52.4476  7037.71  83.8042
 52.4896  6926.74  83.1708
 52.5316  7170.95  84.694
 52.5736  6874.32  82.6405
 52.6156  7018.24  83.9081
 52.6576  6944.55  82.8903
 52.6996  6778.38  82.8852
 52.7416  6769.72  82.6837
 52.7836  6924.98  83.517
 52.8256  6912.83  82.6428
 52.8676  6805.08  82.575
 52.9096  6979.4  83.7019
 52.9516  6973.67  84.061
 52.9936  6921.28  84.1102
 53.0356  7011.86  83.6572
 53.0776  6933.39  83.4589
 53.1196  7031.44  84.1698
 53.1616  7000.33  84.0355
 53.2036  6947.5  83.6824
 53.2456  6890.75  83.4467
 53.2876  6940.93  83.4371
 53.3296  6895.72  83.4882
 53.3716  7060.16  84.2275
 53.4136  6938.71  83.657
 53.4556  6858.11  83.1917
 53.4976  6812.81  82.754
 53.5396  6827.48  83.25
 53.5816  6911.93  83.3967
 53.6236  6895.58  83.6395
 53.6656  6890.13  83.2199
 53.7076  7004.89  83.8613
 53.7496  6923.18  83.5087
 53.7916  6917.47  83.6092
 53.8336  6934.5  83.601
 53.8756  6729.55  82.9096
 53.9176  6782.2  82.5691
 53.9596  6572.2  82.0523
 54.0016  6664.48  81.9284
 54.0436  6517.34  81.2492
 54.0856  6741.03  82.0469
 54.1276  6666.52  81.8029
 54.1696  6643.49  81.8319
 54.2116  6743.79  82.1818
 54.2536  6667.25  81.5137
 54.2956  6676.74  81.6337
 54.3376  6568.89  81.467
 54.3796  6500.03  80.9287
 54.4216  6761.77  82.6072
 54.4636  6580.97  81.4564
 54.5056  6621.31  81.5083
 54.5476  6598.15  81.723
 54.5896  6649.02  81.8576
 54.6316  6669.89  81.8169
 54.6736  6667.74  81.8956
 54.7156  6595.66  81.49
 54.7576  6504.16  80.893
 54.7996  6590.13  81.58
 54.8416  6610.58  81.7644
 54.8836  6552.62  81.4898
 54.9256  6550.47  81.2475
 54.9676  6464.53  80.576
 55.0096  6591.91  81.4007
 55.0516  6390.29  80.376
 55.0936  6575.82  81.2048
 55.1356  6442.16  80.4139
 55.1776  6587.98  81.5415
 55.2196  6516.07  80.9062
 55.2616  6648.08  81.9491
 55.3036  6418.92  80.6894
 55.3456  6341.2  80.3282
 55.3876  6465.73  80.8511
 55.4296  6363.66  80.2055
 55.4716  6429.13  80.6432
 55.5136  6446.51  80.5116
 55.5556  6663.36  81.9072
 55.5976  6415.54  80.456
 55.6396  6549.78  81.238
 55.6816  6433.48  80.3812
 55.7236  6327.76  79.7703
 55.7656  6482.08  80.4433
 55.8076  6438.79  80.205
 55.8496  6427.64  80.4404
 55.8916  6346.13  80.1413
 55.9336  6562.14  81.3134
 55.9756  6356.29  79.9078
 56.0176  6244.28  79.3577
 56.0596  6395.78  80.3103
 56.1016  6350.34  80.0272
 56.1436  6339.45  80.2267
 56.1856  6272.72  79.5331
 56.2276  6597.82  81.6315
 56.2696  6304.61  79.7729
 56.3116  6365.92  80.5477
 56.3536  6332.54  79.9921
 56.3956  6356.78  80.1359
 56.4376  6392.36  80.4049
 56.4796  6259.57  79.3698
 56.5216  6329.89  80.191
 56.5636  6257.59  79.3073
 56.6056  6403.14  80.4606
 56.6476  6358.74  79.7851
 56.6896  6436.71  80.745
 56.7316  6320.3  79.9165
 56.7736  6325.23  79.9627
 56.8156  6384.85  80.3561
 56.8576  6094.94  78.4461
 56.8996  6194.74  78.9979
 56.9416  6174.63  79.1696
 56.9836  6315.23  79.5962
 57.0256  6169.34  78.974
 57.0676  6403.16  80.5799
 57.1096  6376.36  80.2022
 57.1516  6180.41  79.0153
 57.1936  6262.26  79.2954
 57.2356  6173.22  79.0471
 57.2776  6162.23  78.9486
 57.3196  6200.13  79.5324
 57.3616  6235.29  79.2512
 57.4036  6260.54  79.4909
 57.4456  6351.71  80.0327
 57.4876  6256.61  79.2969
 57.5296  6231.24  79.4577
 57.5716  6167.69  79.0613
 57.6136  6051.24  78.1535
 57.6556  6263.41  79.6216
 57.6976  6276.57  79.548
 57.7396  6120.08  78.9
 57.7816  6146.8  79.4447
 57.8236  6086.96  78.8421
 57.8656  6233.91  79.4513
 57.9076  6223.8  79.3999
 57.9496  6147.18  79.273
 57.9916  6187.82  79.0426
 58.0336  6120.75  78.895
 58.0756  6230.36  79.2335
 58.1176  6165.15  78.8065
 58.1596  6068.32  78.7744
 58.2016  5985.33  77.4592
 58.2436  5998.84  77.9504
 58.2856  5893.64  77.1871
 58.3276  5891.5  77.5401
 58.3696  5996.84  77.9851
 58.4116  5869.32  77.0187
 58.4536  6004.43  77.7843
 58.4956  5853.36  76.9789
 58.5376  6053.82  77.8586
 58.5796  5837.63  76.8689
 58.6216  5919.49  77.2301
 58.6636  5995.25  77.9311
 58.7056  5885.47  77.0716
 58.7476  5999.58  78.2588
 58.7896  5898.12  77.2424
 58.8316  5869.97  77.0535
 58.8736  5878.6  77.1219
 58.9156  5903.24  77.3241
 58.9576  5859.3  77.3517
 58.9996  6017.02  77.6389
 59.0416  6012.84  77.9711
 59.0836  5991.5  77.7424
 59.1256  5778.03  77.0419
 59.1676  5882.01  78.0397
 59.2096  5932.34  77.6858
 59.2516  6048.91  78.0261
 59.2936  5903.76  77.4086
 59.3356  5892.59  77.2146
 59.3776  5768.8  76.5644
 59.4196  5732.22  76.2592
 59.4616  5743.59  76.1979
 59.5036  5795.13  76.5736
 59.5456  5972.91  77.4344
 59.5876  5991.28  77.7437
 59.6296  5801.59  76.5709
 59.6716  5900.67  77.2793
 59.7136  5978.53  77.7758
 59.7556  5877.95  77.2534
 59.7976  5899.01  77.1369
 59.8396  6002.49  77.7051
 59.8816  5830.89  77.1198
 59.9236  5777.62  76.4206
 59.9656  5855.2  77.1886
 60.0076  5869.49  76.6492
 60.0496  5845.89  76.9901
 60.0916  5939.34  77.0266
 60.1336  5831.93  77.415
 60.1756  5794.57  78.3267
 60.1996  0.0000000E+00  0.0000000E+00