File: docs/examples/XRD/IS17_D/Data/IS17_D/17_Db_f00124.xye
# /beamlines/bl04/projects/cycle2025-II/20250340211-lsimonelli/DATA/IS17_D/17_Db_f00124.xye : mythproc.py merge -s 0.006 -l 0.5 -f /beamlines/bl04/inhouse/ff/FlatField/ff_20Nov2024rod8mm60s_17keV.raw -b True -c true -o xye /beamlines/bl04/projects/cycle2025-II/20250340211-lsimonelli/DATA/IS17_D/17_Db_00124.dat
# IsMon = [6742867, 6761272, 6780124]  IsPos = [-1.4999, -2.4884, -3.4988]
# Wave = 0.4962  CalPath /beamlines/bl04/projects/cycle2025-II/20250340211-lsimonelli/DATA/Align/Si_Pos1_25keV_f00001.cal
# Date = 2025-09-25_04:16:56 Dt = 4.8000  Bin = 0.0060  <imon> = 6761421 +/- 15210 (Min/Max) 6742867 / 6780124
# icurr 250.1498  mocoIn 1.7078E-05  mocoOut 0.8012  i15 7.08182e+06  imon 6.76142e+06  i7 7.0000  iEMpd_timer 4.8000  iEMpd_1 3.5408E-08  iEMpd_2 7.8309E-08  iEMpd_3 1.7054E-08  iEMpd_4 4.9571E-08  iEMhp_timer 4.8000  iEMhp_1 4.9006E-06  iEMhp_2 -2.4711E-08  iEMhp_3 -2.5674E-08  iEMhp_4 -2.2679E-08
#      9776
 1.5856  43945.4  215.554
 1.6276  51495.9  229.334
 1.6696  56875.9  240.167
 1.7116  63678.1  254.62
 1.7536  71713.8  269.057
 1.7956  75319.9  276.428
 1.8376  72681.3  271.973
 1.8796  62453.1  250.26
 1.9216  51865.5  228.968
 1.9636  44563.8  211.369
 2.0056  40959.8  201.857
 2.0476  37793.7  196.024
 2.0896  36720.9  192.089
 2.1316  35719.6  188.541
 2.1736  34130.2  185.761
 2.2156  34374.4  184.928
 2.2576  33027.2  181.913
 2.2996  31816.1  179.207
 2.3416  32339.6  179.234
 2.3836  32074  178.605
 2.4256  30742  175.427
 2.4676  30070.8  173.256
 2.5096  29977.7  173.044
 2.5516  28749.8  173.232
 2.5936  28678.9  169.544
 2.6356  28152.2  168.706
 2.6776  28162.5  167.616
 2.7196  27696.8  166.719
 2.7616  27507  165.931
 2.8036  27055  164.733
 2.8456  27142.4  165.641
 2.8876  26487.9  163.459
 2.9296  26158.1  162.6
 2.9716  25883.7  161.234
 3.0136  25573.3  160.332
 3.0556  25697.4  161.113
 3.0976  25636.6  159.864
 3.1396  25342.1  159.641
 3.1816  24950.9  158.338
 3.2236  24936.6  158.289
 3.2656  24991.7  157.458
 3.3076  24674.8  157.978
 3.3496  24868.6  157.471
 3.3916  25361  158.88
 3.4336  25553.5  160.076
 3.4756  26018.7  161.495
 3.5176  26482.1  162.661
 3.5596  26489.4  165.104
 3.6016  26524.7  162.752
 3.6436  25630.6  161.098
 3.6856  25537.1  159.085
 3.7276  24537.6  157.031
 3.7696  24208.8  156.114
 3.8116  23844.5  154.883
 3.8536  23954.2  155.168
 3.8956  24033  155.242
 3.9376  23693.3  154.409
 3.9796  23670.6  153.82
 4.0216  23846.2  153.417
 4.0636  23686.4  154.389
 4.1056  23688.3  154.036
 4.1476  23897.9  155.083
 4.1896  23922.4  154.964
 4.2316  24250.8  155.855
 4.2736  24551.3  156.616
 4.3156  24784.8  157.534
 4.3576  25412.2  159.473
 4.3996  25640.6  160.47
 4.4416  26267.2  161.996
 4.4836  26435.3  162.671
 4.5256  27074.6  165.298
 4.5676  27191.7  165.858
 4.6096  27600.8  165.796
 4.6516  28043.2  166.754
 4.6936  27880.6  167.054
 4.7356  28230  167.976
 4.7776  28132.8  167.471
 4.8196  27954.1  167.696
 4.8616  27362.4  165.339
 4.9036  27215  164.679
 4.9456  26966.6  164.527
 4.9876  26367.5  162.587
 5.0296  26682  163.386
 5.0716  26604.5  163.861
 5.1136  26780.2  164.174
 5.1556  26840.3  163.773
 5.1976  27504.8  165.88
 5.2396  27560.1  165.676
 5.2816  27549.4  166.178
 5.3236  27582.3  165.919
 5.3656  27152.1  165.553
 5.4076  26803.4  164.629
 5.4496  27044.9  164.813
 5.4916  27205.3  165.091
 5.5336  27043.6  164.571
 5.5756  26971.5  164.465
 5.6176  27104.2  164.259
 5.6596  27351.4  166.048
 5.7016  27470.7  165.612
 5.7436  27819.8  166.941
 5.7856  27516.9  166.096
 5.8276  27879.8  166.851
 5.8696  27873  167.053
 5.9116  27847.1  167.577
 5.9536  28296.5  168.72
 5.9956  28434.5  168.465
 6.0376  28154.4  168.254
 6.0796  28702.6  169.711
 6.1216  28614.6  169.607
 6.1636  28734.7  169.06
 6.2056  28848.1  170.025
 6.2476  28927.1  170.18
 6.2896  29282.3  170.896
 6.3316  29221.8  170.947
 6.3736  29325.2  171.09
 6.4156  29527.4  171.614
 6.4576  29421.8  170.874
 6.4996  29522.1  171.597
 6.5416  29648.5  172.136
 6.5836  29438.9  171.725
 6.6256  29799.9  172.375
 6.6676  30118.8  172.857
 6.7096  30301.9  174.308
 6.7516  30582.6  174.713
 6.7936  30751.5  174.602
 6.8356  30929.9  175.198
 6.8776  30920.9  175.927
 6.9196  31068.4  176.798
 6.9616  31444.9  177.306
 7.0036  31819.7  178.011
 7.0456  32043.1  177.931
 7.0876  31840.7  179.06
 7.1296  31960.7  178.524
 7.1716  31803.4  177.62
 7.2136  31645.3  176.96
 7.2556  31874.8  177.757
 7.2976  31772.1  177.966
 7.3396  31780.1  178.214
 7.3816  31803.3  178.497
 7.4236  31934.7  178.159
 7.4656  32301.4  178.637
 7.5076  32418.7  179.115
 7.5496  32293.2  179.244
 7.5916  32359.6  179.531
 7.6336  32989  181.154
 7.6756  33010.2  181.059
 7.7176  33355.9  182.384
 7.7596  33424.1  183.755
 7.8016  33963  187.546
 7.8436  33388.5  182.417
 7.8856  33870.8  183.342
 7.9276  34466.7  185.303
 7.9696  34525  185.808
 8.0116  35537  187.058
 8.0536  35779.4  187.944
 8.0956  35555.8  188.575
 8.1376  36019.4  189.232
 8.1796  36308.8  190.568
 8.2216  37064.1  191.239
 8.2636  37385.2  192.317
 8.3056  37137  192.403
 8.3476  37709.9  193.253
 8.3896  37221.8  192.075
 8.4316  37671.9  193.402
 8.4736  37644  192.801
 8.5156  37590  192.936
 8.5576  37089.1  192.66
 8.5996  36875.4  190.943
 8.6416  37000.9  192.569
 8.6836  36602.8  191.277
 8.7256  37338.6  192.722
 8.7676  37149.8  195.192
 8.8096  37606.4  193.726
 8.8516  37315.6  192.544
 8.8936  36985.5  191.64
 8.9356  37344.2  192.99
 8.9776  37274.2  192.805
 9.0196  37284.3  192.578
 9.0616  36642.8  190.333
 9.1036  36659.5  191.555
 9.1456  36313.4  189.887
 9.1876  36546.2  190.531
 9.2296  36268.7  189.151
 9.2716  35998.5  188.573
 9.3136  36122.8  188.887
 9.3556  36228.5  189.145
 9.3976  35350.1  187.442
 9.4396  35338.3  187.231
 9.4816  35295.6  187.058
 9.5236  34666.6  185.194
 9.5656  34900.4  186.182
 9.6076  34188  184.716
 9.6496  34183.4  184.676
 9.6916  34012.7  184.087
 9.7336  34173.1  184.387
 9.7756  34056.7  185.279
 9.8176  33824.3  184.335
 9.8596  33716.6  182.471
 9.9016  33456.6  181.761
 9.9436  32971.4  180.347
 9.9856  32856.3  180.306
 10.0276  32084.7  179.258
 10.0696  32685.1  179.96
 10.1116  31470  176.84
 10.1536  31751.4  177.791
 10.1956  30859.5  174.889
 10.2376  31227.1  175.464
 10.2796  31124.4  175.245
 10.3216  30650  174.198
 10.3636  30660.6  174.252
 10.4056  29839.4  172.271
 10.4476  29999.7  172.374
 10.4896  29954.8  171.693
 10.5316  29649.6  171.547
 10.5736  29360.6  171.127
 10.6156  29415  171.071
 10.6576  29272.4  169.176
 10.6996  28796.7  168.501
 10.7416  28343.4  167.386
 10.7836  28081  167.167
 10.8256  27598.1  166.154
 10.8676  27946.1  166.736
 10.9096  27671.2  165.95
 10.9516  27295.4  163.753
 10.9936  27487.5  164.542
 11.0356  27179.4  164.227
 11.0776  27040.9  163.141
 11.1196  26659.8  162.753
 11.1616  26286.6  161.283
 11.2036  26598.9  162.083
 11.2456  26433.3  162.289
 11.2876  26805.8  163.208
 11.3296  26253.8  161.377
 11.3716  26814.8  162.774
 11.4136  26580.4  162.951
 11.4556  26900.1  163.535
 11.4976  27628.2  164.754
 11.5396  27671.5  165.057
 11.5816  27243.2  164.229
 11.6236  26485.4  162.15
 11.6656  26409.5  161.123
 11.7076  25670  159.632
 11.7496  25396.2  162.791
 11.7916  25330.9  157.83
 11.8336  25097.6  157.939
 11.8756  25015.2  157.282
 11.9176  24850.2  156.433
 11.9596  24992.9  157.103
 12.0016  24783.4  157.166
 12.0436  24955.6  157.208
 12.0856  24612.1  156.584
 12.1276  24391  155.822
 12.1696  24568.4  155.5
 12.2116  24393  154.899
 12.2536  24359.7  155.666
 12.2956  23988  153.77
 12.3376  24322.3  155.139
 12.3796  24287.1  155.461
 12.4216  24038.1  153.855
 12.4636  23913.1  154.391
 12.5056  23862  153.494
 12.5476  24524.4  155.119
 12.5896  23939.6  153.86
 12.6316  24185.8  154.893
 12.6736  24017.2  154.794
 12.7156  23930  154.412
 12.7576  24046  154.981
 12.7996  24260.9  154.294
 12.8416  24059.7  154.724
 12.8836  24105  154.651
 12.9256  24507.9  155.009
 12.9676  24529.5  155.441
 13.0096  24666.7  157.098
 13.0516  24755.1  156.346
 13.0936  24917.4  157.326
 13.1356  25054.4  156.654
 13.1776  24487.4  155.892
 13.2196  24673.2  156.121
 13.2616  24548.2  155.998
 13.3036  24687.9  156.445
 13.3456  24461.2  156.034
 13.3876  24827.4  156.561
 13.4296  24711.3  156.317
 13.4716  24656.9  155.766
 13.5136  24593.9  155.695
 13.5556  24693.2  156.64
 13.5976  24629.9  156.612
 13.6396  24772.1  156.377
 13.6816  24741.7  156.799
 13.7236  24929.4  156.966
 13.7656  26545.2  162.507
 13.8076  27197.1  163.094
 13.8496  26705.2  162.343
 13.8916  25186.7  158.729
 13.9336  24221.5  154.889
 13.9756  24217.1  154.292
 14.0176  23990.3  154.204
 14.0596  24057.1  154.385
 14.1016  23847.9  154.142
 14.1436  23852.3  153.338
 14.1856  23313.7  151.834
 14.2276  23432.2  152.758
 14.2696  23332.8  152.235
 14.3116  22866.9  150.566
 14.3536  22651.1  150.063
 14.3956  22510.7  149.326
 14.4376  22747.4  149.895
 14.4796  22886.6  150.349
 14.5216  22229.8  148.964
 14.5636  22126.3  148.191
 14.6056  22357.7  148.522
 14.6476  22234.4  147.348
 14.6896  21898.4  146.777
 14.7316  21726.8  147.244
 14.7736  21327.2  145.026
 14.8156  21216  144.667
 14.8576  21187.3  144.431
 14.8996  20726.8  144.047
 14.9416  20545.5  143.431
 14.9836  20445  143.011
 15.0256  19887.5  139.915
 15.0676  19790.7  139.884
 15.1096  19675.3  139.219
 15.1516  19485.4  139.131
 15.1936  19445.3  138.384
 15.2356  19181.3  137.719
 15.2776  19001.1  136.656
 15.3196  18583.3  136.137
 15.3616  18615.9  135.984
 15.4036  18747  136.355
 15.4456  18925.5  136.652
 15.4876  18350.7  134.246
 15.5296  18477.9  135.023
 15.5716  18150.8  133.402
 15.6136  18096.6  133.558
 15.6556  18128.6  132.889
 15.6976  18058.8  132.96
 15.7396  17729.6  132.062
 15.7816  17698  131.484
 15.8236  17455.4  131.245
 15.8656  17592.4  131.584
 15.9076  17350.4  130.497
 15.9496  18133.7  136.39
 15.9916  17691.6  135.074
 16.0336  18115  133.583
 16.0756  17698.6  132.291
 16.1176  17404.2  131.266
 16.1596  17089.2  131.251
 16.2016  17121.9  130.07
 16.2436  17098.9  130.428
 16.2856  16964.3  129.422
 16.3276  16736.9  129
 16.3696  17074.3  130.103
 16.4116  16960.2  130.126
 16.4536  17010.6  130.125
 16.4956  16963.2  129.728
 16.5376  16646.6  128.645
 16.5796  16619.6  127.904
 16.6216  16657.7  128.329
 16.6636  16340.9  127.228
 16.7056  16533.6  127.891
 16.7476  16885.1  128.765
 16.7896  16750.6  129.004
 16.8316  16624.8  128.502
 16.8736  16794.2  129.468
 16.9156  16544  128.775
 16.9576  16400.7  129.046
 16.9996  16404.4  129.498
 17.0416  16514.6  128.361
 17.0836  16530.1  128.211
 17.1256  16239.4  127.084
 17.1676  16498.7  128.051
 17.2096  15991  125.97
 17.2516  15953.9  125.607
 17.2936  16072.6  126.422
 17.3356  16030.7  126.268
 17.3776  15858.9  125.758
 17.4196  15809  125.232
 17.4616  15707.4  124.765
 17.5036  15229.9  123.19
 17.5456  15543.1  125.121
 17.5876  15356.6  123.407
 17.6296  15386  123.356
 17.6716  15389.1  123.952
 17.7136  15321.3  123.834
 17.7556  15033.5  122.94
 17.7976  15113.1  122.998
 17.8396  15079.1  122.342
 17.8816  14932.1  122.295
 17.9236  15019.1  122.464
 17.9656  15030  122.959
 18.0076  14985  122.361
 18.0496  14982.7  121.474
 18.0916  14947.7  121.886
 18.1336  14846.1  121.567
 18.1756  15074  122.047
 18.2176  14740.2  120.902
 18.2596  14595  120.032
 18.3016  14893.2  121.518
 18.3436  14760.3  120.98
 18.3856  14661.9  120.749
 18.4276  14737.7  120.701
 18.4696  14581.3  120.14
 18.5116  14726.5  121.015
 18.5536  14625.7  120.922
 18.5956  14387.3  119.538
 18.6376  14345.3  119.765
 18.6796  14309.9  118.934
 18.7216  14503.1  120.224
 18.7636  14459.7  120.085
 18.8056  14316  119.378
 18.8476  14132.2  119.199
 18.8896  14247.8  119.058
 18.9316  14277.7  119.118
 18.9736  14334.3  119.094
 19.0156  14153.8  118.761
 19.0576  14365.4  118.526
 19.0996  14377.3  119.262
 19.1416  14167.7  118.819
 19.1836  14148.3  118.304
 19.2256  13851.6  117.273
 19.2676  14195.1  118.806
 19.3096  14000.1  118.204
 19.3516  14068.1  118.48
 19.3936  14014.6  118.146
 19.4356  14171.4  118.725
 19.4776  14153.6  118.701
 19.5196  14088.3  118.284
 19.5616  13968.3  118.037
 19.6036  14058.9  117.874
 19.6456  14041  117.958
 19.6876  14032.9  117.52
 19.7296  14154.9  118.572
 19.7716  14064.9  118.323
 19.8136  14361.1  119.804
 19.8556  14446.4  119.595
 19.8976  14488.3  119.826
 19.9396  14652.5  120.087
 19.9816  14764.4  120.765
 20.0236  14998.2  121.952
 20.0656  14786.4  121.053
 20.1076  14596.3  120.831
 20.1496  14260  119.382
 20.1916  14149.5  118.481
 20.2336  13985.3  117.667
 20.2756  13874.5  117.644
 20.3176  13676.7  116.544
 20.3596  13544.7  115.938
 20.4016  13746.1  116.624
 20.4436  13466.1  115.953
 20.4856  13536.5  116.122
 20.5276  13589.7  116.777
 20.5696  13542  116.058
 20.6116  13391.6  115.643
 20.6536  13303.9  114.787
 20.6956  13351.4  115.121
 20.7376  13257.3  114.898
 20.7796  13294.3  114.777
 20.8216  13514.8  115.429
 20.8636  13322.5  115.03
 20.9056  13215  114.465
 20.9476  13311.8  114.763
 20.9896  13432.1  115.107
 21.0316  13220  114.064
 21.0736  13184.1  114.46
 21.1156  13026.4  113.901
 21.1576  13232.6  114.874
 21.1996  13129.4  114.409
 21.2416  13128  114.265
 21.2836  13127.9  114.198
 21.3256  13052.4  113.986
 21.3676  13107.5  113.722
 21.4096  12887.8  113.082
 21.4516  12974.3  113.335
 21.4936  12731.6  112.534
 21.5356  13069.8  113.968
 21.5776  12974.8  113.382
 21.6196  12944.2  113.291
 21.6616  12846.2  112.942
 21.7036  12893.2  112.922
 21.7456  12898.6  113.02
 21.7876  12904.9  112.808
 21.8296  12779.1  112.106
 21.8716  12840.9  112.636
 21.9136  13048  113.709
 21.9556  12680.3  111.775
 21.9976  12803.1  112.342
 22.0396  12669.8  112.012
 22.0816  12724.4  112.744
 22.1236  12786.4  112.516
 22.1656  12818.7  112.761
 22.2076  12526.5  110.885
 22.2496  12494.7  110.802
 22.2916  12406.9  110.274
 22.3336  12413.1  111.042
 22.3756  12552.7  111.36
 22.4176  12345.9  110.291
 22.4596  12233.1  110.345
 22.5016  12366.2  110.478
 22.5436  12432.9  110.626
 22.5856  12695.5  112.052
 22.6276  12715.1  112.309
 22.6696  12389.5  111.189
 22.7116  12562.9  111.5
 22.7536  12468.9  111.032
 22.7956  12415.4  110.157
 22.8376  12438.9  110.725
 22.8796  12425.1  110.493
 22.9216  12522.7  111.448
 22.9636  12391.5  110.043
 23.0056  12488.2  110.607
 23.0476  12569.3  111.535
 23.0896  12806  111.956
 23.1316  12521.4  111.14
 23.1736  12720.9  115.052
 23.2156  12801.5  112.733
 23.2576  12909.6  113.443
 23.2996  12511.2  111.359
 23.3416  12708.4  112.859
 23.3836  12691.7  111.966
 23.4256  12975.3  113.379
 23.4676  12713.4  111.873
 23.5096  12788.7  112.868
 23.5516  12645.6  111.522
 23.5936  12702.5  112.696
 23.6356  12785  112.72
 23.6776  12532.7  111.769
 23.7196  12661.8  111.966
 23.7616  12605.2  111.581
 23.8036  12799.5  112.595
 23.8456  12625  111.28
 23.8876  12575.5  111.507
 23.9296  12479.8  111.532
 23.9716  12453.2  110.612
 24.0136  12488.2  111.673
 24.0556  12550  111.665
 24.0976  12326.8  110.483
 24.1396  12184  112.476
 24.1816  12358  111.716
 24.2236  12220.5  110.74
 24.2656  12103.4  109.683
 24.3076  11959.3  109.3
 24.3496  12028.2  109.467
 24.3916  12142.6  110.065
 24.4336  12078.6  109.977
 24.4756  12036.1  109.669
 24.5176  12043  109.315
 24.5596  11895.1  108.771
 24.6016  11863.1  108.916
 24.6436  12025.1  109.193
 24.6856  11882.4  108.264
 24.7276  11803.1  108.203
 24.7696  11839.9  108.502
 24.8116  11582.7  107.471
 24.8536  11755  108.299
 24.8956  11674.3  107.644
 24.9376  11558.9  107.053
 24.9796  11490.3  107.1
 25.0216  11409.9  106.857
 25.0636  11453.5  106.695
 25.1056  11280.2  106.583
 25.1476  11333.8  108.404
 25.1896  11435.7  107.383
 25.2316  11390.7  106.404
 25.2736  11173.6  105.078
 25.3156  11255.9  105.536
 25.3576  11119.8  105.326
 25.3996  11279.9  106.071
 25.4416  11186.2  105.604
 25.4836  10952.7  105.011
 25.5256  11078.2  104.977
 25.5676  11214.8  105.344
 25.6096  11019.9  105.005
 25.6516  10986.6  104.352
 25.6936  11209  105.753
 25.7356  11113.6  105.404
 25.7776  11104.5  104.958
 25.8196  10954.4  104.486
 25.8616  11012.8  104.66
 25.9036  11135.5  104.727
 25.9456  10966.4  104.529
 25.9876  11017.2  104.833
 26.0296  11052.9  104.519
 26.0716  10970.9  104.592
 26.1136  11060  104.913
 26.1556  11056.5  104.239
 26.1976  11031.4  105.094
 26.2396  10958.5  103.858
 26.2816  10957.3  104.506
 26.3236  10986.7  104.793
 26.3656  11145.7  105.312
 26.4076  10864.4  104.14
 26.4496  11152.8  105.138
 26.4916  11200.2  105.226
 26.5336  11250.9  105.802
 26.5756  11470.8  106.708
 26.6176  11049.4  104.719
 26.6596  10956.7  104.627
 26.7016  10771.9  103.497
 26.7436  10955.3  104.545
 26.7856  10705.9  103.294
 26.8276  10730  103.378
 26.8696  10731.3  103.258
 26.9116  10565.7  102.383
 26.9536  10525.7  102.245
 26.9956  10595.7  102.593
 27.0376  10570.1  102.755
 27.0796  10613.8  102.656
 27.1216  10606.6  102.718
 27.1636  10442.2  102.058
 27.2056  10472.9  102.083
 27.2476  10326.9  101.367
 27.2896  10334.6  101.493
 27.3316  10445.4  101.786
 27.3736  10289.4  101.257
 27.4156  10472.6  102.055
 27.4576  10448.4  102.106
 27.4996  10416.9  101.613
 27.5416  10353.5  101.581
 27.5836  10335.4  101.324
 27.6256  10278.2  101.226
 27.6676  10286.3  101.226
 27.7096  10352.3  101.46
 27.7516  10281.3  101.229
 27.7936  10600.1  102.999
 27.8356  10358.3  101.395
 27.8776  10546.8  102.412
 27.9196  10213.2  100.601
 27.9616  10275.8  101.11
 28.0036  10237.1  100.88
 28.0456  10136.7  100.498
 28.0876  10199.9  100.919
 28.1296  10183  100.674
 28.1716  10177.2  100.693
 28.2136  10215.7  100.82
 28.2556  10172.4  100.747
 28.2976  10046.4  100.087
 28.3396  10060.8  99.8826
 28.3816  10129.5  100.26
 28.4236  10079.9  100.139
 28.4656  9885.13  99.2451
 28.5076  9999.56  99.4531
 28.5496  10012.1  99.7689
 28.5916  10037.4  99.7104
 28.6336  10030.7  100.057
 28.6756  10033.4  99.2234
 28.7176  9930.75  99.2775
 28.7596  9878.41  98.9107
 28.8016  9947.78  99.2901
 28.8436  9911.14  99.3529
 28.8856  9806.17  98.6764
 28.9276  9788.89  98.8339
 28.9696  9772.21  98.405
 29.0116  9801.34  98.7037
 29.0536  9841.89  99.1511
 29.0956  9791.57  98.5901
 29.1376  9681.63  98.0095
 29.1796  9833.49  98.8562
 29.2216  9756.87  98.2837
 29.2636  9794.98  98.5774
 29.3056  9712.07  97.9149
 29.3476  9796.53  98.8703
 29.3896  9772.76  98.831
 29.4316  9612.11  97.3141
 29.4736  9473.02  96.6478
 29.5156  9642.09  97.4522
 29.5576  9616.01  98.0789
 29.5996  9401.19  96.2244
 29.6416  9594.99  97.352
 29.6836  9501.43  96.7824
 29.7256  9565.31  97.6702
 29.7676  9443.96  96.6906
 29.8096  9465.58  96.7676
 29.8516  9351.37  96.4902
 29.8936  9595.76  97.8558
 29.9356  9499.89  97.1218
 29.9776  9401.61  96.7644
 30.0196  9358.75  95.9662
 30.0616  9433.94  96.6986
 30.1036  9429.55  96.5253
 30.1456  9396.32  96.5428
 30.1876  9362.15  96.3919
 30.2296  9314.63  96.0496
 30.2716  9489.05  96.6054
 30.3136  9461.34  97.3212
 30.3556  9584.17  98.0148
 30.3976  9466.72  98.9119
 30.4396  9822.72  98.1183
 30.4816  9752.63  97.3287
 30.5236  9625.41  96.7343
 30.5656  9509.11  96.7637
 30.6076  9690.74  97.0948
 30.6496  9568.06  96.8857
 30.6916  9455.98  96.3616
 30.7336  9513.76  96.8499
 30.7756  9660.33  97.6619
 30.8176  9568.41  97.1285
 30.8596  9460.94  96.3353
 30.9016  9555  97.1797
 30.9436  9531.23  96.7914
 30.9856  9619.51  97.4034
 31.0276  9397.21  95.8603
 31.0696  9391.59  96.3959
 31.1116  9303.11  95.9079
 31.1536  9325.75  95.8596
 31.1956  9336.82  96.0519
 31.2376  9207.56  95.3626
 31.2796  9246.9  95.1491
 31.3216  9440.42  96.0572
 31.3636  9492.28  97.0639
 31.4056  9476.69  98.2768
 31.4476  9344.46  95.5567
 31.4896  9324.11  95.9567
 31.5316  9396.93  95.7077
 31.5736  9491.33  96.0396
 31.6156  9447.65  95.816
 31.6576  9538.15  96.3517
 31.6996  9376.66  95.2014
 31.7416  9318.83  96.0061
 31.7836  9371.22  95.2717
 31.8256  9414.37  95.779
 31.8676  9478.93  96.0834
 31.9096  9247.22  95.264
 31.9516  9077.05  94.5551
 31.9936  9102.03  94.4842
 32.0356  9356.19  95.8715
 32.0776  9249.12  95.2154
 32.1196  9265.44  95.4013
 32.1616  9307  95.0626
 32.2036  9227.85  95.1899
 32.2456  9231.39  95.5645
 32.2876  9230.67  95.0597
 32.3296  9110.67  94.4018
 32.3716  8993.58  93.8448
 32.4136  8985.7  93.9749
 32.4556  9244.24  94.727
 32.4976  9110.04  93.9152
 32.5396  9063.46  93.7695
 32.5816  9087.61  94.0551
 32.6236  9146.05  94.382
 32.6656  9187.38  95.1514
 32.7076  9002.98  93.8451
 32.7496  8997.08  93.4841
 32.7916  9098.2  93.9697
 32.8336  9066.26  93.8956
 32.8756  9124.35  93.9178
 32.9176  8901.61  93.25
 32.9596  8946.55  93.5515
 33.0016  8967.38  93.4263
 33.0436  9058.54  94.056
 33.0856  8921.39  93.4639
 33.1276  8854.59  92.8447
 33.1696  9017.24  93.5243
 33.2116  9007.95  93.7123
 33.2536  9116.24  94.2876
 33.2956  8956  93.5232
 33.3376  8923.39  93.0874
 33.3796  9071.85  94.0812
 33.4216  8960.32  93.064
 33.4636  8968.44  93.2857
 33.5056  8887.34  93.1094
 33.5476  9004.02  93.7233
 33.5896  8912.23  93.0102
 33.6316  8804.42  92.7808
 33.6736  8665.01  92.2589
 33.7156  8736.29  92.6728
 33.7576  8870.48  93.0214
 33.7996  8872.16  92.7594
 33.8416  8692.28  92.0313
 33.8836  8731.98  91.9921
 33.9256  8840.95  92.6767
 33.9676  8915.38  92.9339
 34.0096  8827.77  92.8179
 34.0516  8663.16  91.5576
 34.0936  8803.73  92.5719
 34.1356  8908.92  92.8514
 34.1776  8635.72  91.3969
 34.2196  8617.08  91.5052
 34.2616  8527.68  91.1674
 34.3036  8649.03  92.0896
 34.3456  8629.08  91.7055
 34.3876  8763.95  92.426
 34.4296  8629.36  91.372
 34.4716  8791.68  92.3785
 34.5136  8753.92  92.3756
 34.5556  8500.33  91.2682
 34.5976  8692.13  92.1159
 34.6396  8629.29  91.495
 34.6816  8708.84  92.0537
 34.7236  8718.45  91.852
 34.7656  8690.2  91.9098
 34.8076  8494.82  91.1999
 34.8496  8530.1  91.2126
 34.8916  8584.69  91.3876
 34.9336  8592.06  91.3887
 34.9756  8639.83  91.5863
 35.0176  8691.3  92.394
 35.0596  8723.25  92.4145
 35.1016  8582.18  91.3866
 35.1436  8807.76  92.2579
 35.1856  8689.55  91.7633
 35.2276  8486.36  90.8396
 35.2696  8611.72  91.7244
 35.3116  8521.2  91.3184
 35.3536  8576.56  91.3426
 35.3956  8545.42  90.8875
 35.4376  8567.86  91.5949
 35.4796  8600.16  91.7836
 35.5216  8536.17  91.4142
 35.5636  8338.17  91.0861
 35.6056  8502.12  90.9641
 35.6476  8445.05  90.584
 35.6896  8542  91.192
 35.7316  8410.48  90.4659
 35.7736  8398.78  90.5878
 35.8156  8578.35  91.5876
 35.8576  8456.89  91.1502
 35.8996  8492.13  91.3161
 35.9416  8557.28  91.1516
 35.9836  8433.99  90.8334
 36.0256  8621.21  91.868
 36.0676  8681.46  91.9405
 36.1096  8487.26  91.0567
 36.1516  8518.87  91.1112
 36.1936  8483.15  90.7537
 36.2356  8434.32  91.1475
 36.2776  8451.58  90.6901
 36.3196  8383.54  90.0223
 36.3616  8486.39  90.7065
 36.4036  8416.92  90.401
 36.4456  8476.76  90.955
 36.4876  8282.21  89.8199
 36.5296  8350.72  90.2292
 36.5716  8368.71  91.1107
 36.6136  8344.53  89.6941
 36.6556  8309.4  89.6793
 36.6976  8069.7  88.8942
 36.7396  8229.16  89.5194
 36.7816  8213.89  89.79
 36.8236  8157.12  89.4201
 36.8656  8058.49  88.9257
 36.9076  8061.39  88.8457
 36.9496  8089.98  88.9527
 36.9916  8120.23  88.7704
 37.0336  8303.35  90.0627
 37.0756  8244.94  89.557
 37.1176  8101.77  89.0431
 37.1596  8066.01  88.8541
 37.2016  8125.92  89.4065
 37.2436  8092.11  88.5374
 37.2856  8066.76  88.6702
 37.3276  8152.52  88.4814
 37.3696  8073.45  88.9487
 37.4116  8155.9  89.2665
 37.4536  8114.5  88.9282
 37.4956  7980.5  88.2185
 37.5376  8137.49  90.7541
 37.5796  8197.73  91.0114
 37.6216  8097.57  88.7164
 37.6636  8211.25  89.2659
 37.7056  8211.41  89.426
 37.7476  8255.93  89.2432
 37.7896  8029.06  88.4377
 37.8316  8155.1  89.3589
 37.8736  8129.16  88.6681
 37.9156  8144  88.7832
 37.9576  8249.04  89.2634
 37.9996  8090.41  88.1136
 38.0416  8078.55  88.8477
 38.0836  8232.08  89.598
 38.1256  8182.18  89.3
 38.1676  7958.45  88.1929
 38.2096  8231.85  89.3455
 38.2516  8190.97  89.264
 38.2936  8264.14  89.5337
 38.3356  8079.59  88.3808
 38.3776  8022.95  88.3561
 38.4196  8057.05  88.3629
 38.4616  8137.09  89.0891
 38.5036  8181.53  89.1732
 38.5456  7960.49  88.7908
 38.5876  7955.9  88.7781
 38.6296  8035.33  88.2419
 38.6716  8082.86  88.3163
 38.7136  8024.66  87.9455
 38.7556  8024.31  88.4517
 38.7976  7945.46  87.9383
 38.8396  7970.36  88.5367
 38.8816  8003.72  88.5203
 38.9236  7954.31  88.0448
 38.9656  8066.76  88.5769
 39.0076  8154.36  88.4514
 39.0496  8127.25  88.882
 39.0916  8138.62  88.5639
 39.1336  8066.07  88.5781
 39.1756  8058.05  88.5896
 39.2176  7933.82  88.4325
 39.2596  8004.73  88.763
 39.3016  7994.45  88.2916
 39.3436  7932.75  88.3658
 39.3856  8073.47  88.5892
 39.4276  8035.82  88.9091
 39.4696  8037.38  88.5167
 39.5116  7991.45  88.7943
 39.5536  8051.46  89.4722
 39.5956  8013.11  88.3634
 39.6376  8034.63  88.4516
 39.6796  7974.89  87.8905
 39.7216  7989.58  88.0448
 39.7636  7991.89  88.6416
 39.8056  7956.14  88.2452
 39.8476  7892.08  88.1415
 39.8896  8083.96  88.8616
 39.9316  7973.62  88.4703
 39.9736  8014.17  88.268
 40.0156  7917.16  87.5639
 40.0576  7959.08  88.1495
 40.0996  8015.84  87.639
 40.1416  8108.59  88.9528
 40.1836  8050.77  88.5229
 40.2256  8064.82  88.6325
 40.2676  7983.66  88.2963
 40.3096  8087.24  88.7924
 40.3516  8080.76  88.8694
 40.3936  8149.34  88.7971
 40.4356  7882.95  87.5377
 40.4776  8088.24  89.0674
 40.5196  7956.88  88.4819
 40.5616  8138.12  89.1495
 40.6036  7963.96  88.4174
 40.6456  8072.64  88.5953
 40.6876  8167.15  89.1262
 40.7296  7959.37  88.0992
 40.7716  7927.47  88.0675
 40.8136  7923.16  87.9929
 40.8556  8099.16  89.1236
 40.8976  8046.53  88.7264
 40.9396  8056.61  89.1614
 40.9816  8139.42  88.8746
 41.0236  7958.94  87.6366
 41.0656  8163.07  89.3281
 41.1076  7998.26  88.1684
 41.1496  8124.57  88.7869
 41.1916  8074.6  88.8357
 41.2336  8001.95  88.467
 41.2756  8036.66  88.2299
 41.3176  8033.02  88.8469
 41.3596  7994.73  88.3448
 41.4016  8030.05  88.7754
 41.4436  8020  88.5326
 41.4856  8022.9  88.6929
 41.5276  7961.63  88.389
 41.5696  8010.51  88.2928
 41.6116  7992.42  88.6079
 41.6536  8036.58  88.6812
 41.6956  7978.48  88.4535
 41.7376  7941.54  88.2482
 41.7796  7923.09  87.9886
 41.8216  7980.39  88.5678
 41.8636  7961.69  88.3903
 41.9056  7913.34  87.9394
 41.9476  8013.88  88.7273
 41.9896  8149.21  89.1691
 42.0316  8098.78  88.9467
 42.0736  8016.19  88.6268
 42.1156  8036.05  88.5388
 42.1576  7980.66  88.32
 42.1996  8048.79  88.8359
 42.2416  8110.15  88.744
 42.2836  7975.43  88.1495
 42.3256  7913.72  87.9188
 42.3676  8093.68  88.7328
 42.4096  7943.69  87.8542
 42.4516  7932.84  87.9025
 42.4936  7878.79  87.6484
 42.5356  7838.69  87.5405
 42.5776  8067.57  88.7693
 42.6196  7995.49  88.4177
 42.6616  7792.9  87.4702
 42.7036  7919.12  87.5529
 42.7456  8016.29  88.4744
 42.7876  7950.53  88.1678
 42.8296  7942.2  87.9699
 42.8716  7914.17  87.9769
 42.9136  7846.92  87.3924
 42.9556  7903.25  87.8413
 42.9976  7978.98  88.224
 43.0396  7855.88  87.266
 43.0816  7867.35  87.7119
 43.1236  7861.49  87.7388
 43.1656  7952.55  88.0653
 43.2076  7797.45  87.3199
 43.2496  7866.77  87.521
 43.2916  7798.11  87.4998
 43.3336  7867.82  87.7231
 43.3756  7885.97  87.6039
 43.4176  7755.49  86.9314
 43.4596  7742.62  86.7173
 43.5016  7807.49  87.4739
 43.5436  7831.26  87.5242
 43.5856  7761.78  87.1311
 43.6276  7874.8  87.6844
 43.6696  7763.79  87.293
 43.7116  7963.45  87.9192
 43.7536  7921.68  88.2228
 43.7956  7686.2  88.0964
 43.8376  7593.69  86.0472
 43.8796  7666.93  86.5191
 43.9216  7693.77  86.5918
 43.9636  7710.78  86.7772
 44.0056  7758.39  87.296
 44.0476  7722.2  86.7003
 44.0896  7593.51  86.3336
 44.1316  7644.54  86.1487
 44.1736  7571.92  85.8638
 44.2156  7560.12  85.6611
 44.2576  7514.97  85.7112
 44.2996  7620.02  86.3044
 44.3416  7612.09  85.9824
 44.3836  7553.41  86.0003
 44.4256  7545.33  85.5753
 44.4676  7523.09  85.6235
 44.5096  7594.36  86.1751
 44.5516  7667.1  86.5427
 44.5936  7422.88  85.1145
 44.6356  7626.22  86.0081
 44.6776  7457.86  85.3901
 44.7196  7559.62  86.2413
 44.7616  7523.61  87.4364
 44.8036  7599.8  86.2603
 44.8456  7699.32  87.0666
 44.8876  7775.22  87.3377
 44.9296  7861.97  87.2654
 44.9716  7725.33  86.9643
 45.0136  7673.65  86.5802
 45.0556  7820.28  87.4124
 45.0976  7701.82  86.8731
 45.1396  7533.43  85.6741
 45.1816  7582.66  85.8586
 45.2236  7879.77  87.461
 45.2656  7676.62  86.7958
 45.3076  7597.66  86.1723
 45.3496  7586.78  86.3805
 45.3916  7666.85  87.1407
 45.4336  7678.59  87.09
 45.4756  7495.89  85.8621
 45.5176  7650.11  86.3943
 45.5596  7813.29  87.3955
 45.6016  7670  87.0161
 45.6436  7635.72  85.9913
 45.6856  7613.58  86.5298
 45.7276  7436.13  86.8047
 45.7696  7504.6  86.9026
 45.8116  7524.17  86.4835
 45.8536  7533.74  86.4577
 45.8956  7560.33  85.9521
 45.9376  7567.15  85.453
 45.9796  7548.45  86.0367
 46.0216  7618.37  86.7802
 46.0636  7806.71  86.9665
 46.1056  7699.28  86.3571
 46.1476  7578.91  86.2744
 46.1896  7543.87  86.2288
 46.2316  7586.39  86.3206
 46.2736  7504.64  86.2469
 46.3156  7577.41  86.2441
 46.3576  7584.26  86.4859
 46.3996  7555.16  86.4831
 46.4416  7514.31  85.8219
 46.4836  7554.43  86.3951
 46.5256  7626.66  86.7571
 46.5676  7422.68  85.7055
 46.6096  7540.77  86.3258
 46.6516  7501.47  85.1199
 46.6936  7657.83  86.5108
 46.7356  7677.12  86.7359
 46.7776  7472.05  86.3543
 46.8196  7524.61  86.2748
 46.8616  7380.81  85.3422
 46.9036  7330.96  84.7343
 46.9456  7451.11  85.0357
 46.9876  7469.08  85.248
 47.0296  7499.33  86.0961
 47.0716  7420.55  85.4904
 47.1136  7470.37  85.4788
 47.1556  7488.14  85.4147
 47.1976  7583.03  86.072
 47.2396  7426.85  85.5493
 47.2816  7486.8  85.594
 47.3236  7464.69  85.8388
 47.3656  7479.22  85.8544
 47.4076  7429.33  85.3363
 47.4496  7438.21  85.5086
 47.4916  7470.35  85.8978
 47.5336  7537.95  86.0826
 47.5756  7523.3  86.1221
 47.6176  7456.75  85.6431
 47.6596  7457.6  85.3557
 47.7016  7574.06  85.8355
 47.7436  7583.37  86.2316
 47.7856  7616.92  86.4777
 47.8276  7493.5  85.7808
 47.8696  7475.56  85.7738
 47.9116  7506.53  85.6642
 47.9536  7437.53  85.1842
 47.9956  7473.02  86.1382
 48.0376  7369.28  85.3065
 48.0796  7426.5  85.7673
 48.1216  7450.46  85.7249
 48.1636  7609.48  86.2214
 48.2056  7561.01  86.1922
 48.2476  7609.95  86.8148
 48.2896  7543.23  86.3119
 48.3316  7517.4  86.076
 48.3736  7471.01  85.8663
 48.4156  7423.24  85.4135
 48.4576  7441.28  85.8402
 48.4996  7602.89  86.2077
 48.5416  7519.75  86.095
 48.5836  7532.71  85.8071
 48.6256  7575.69  86.2957
 48.6676  7467.7  86.1776
 48.7096  7390.53  84.9557
 48.7516  7476.52  85.6337
 48.7936  7299.44  84.651
 48.8356  7407.17  85.3491
 48.8776  7409.22  85.9485
 48.9196  7533.33  86.0413
 48.9616  7358.2  85.3904
 49.0036  7467.7  86.4155
 49.0456  7377.06  85.8325
 49.0876  7481.59  85.9386
 49.1296  7440.97  85.9039
 49.1716  7256.53  84.6824
 49.2136  7463.41  85.8358
 49.2556  7391.99  85.4459
 49.2976  7462.69  85.952
 49.3396  7386.9  85.5404
 49.3816  7509.11  85.6909
 49.4236  7446.33  85.7386
 49.4656  7369.13  85.2869
 49.5076  7482.46  85.7054
 49.5496  7399.64  85.2919
 49.5916  7408.83  85.261
 49.6336  7356.13  85.1703
 49.6756  7369.7  85.5141
 49.7176  7328.57  85.1835
 49.7596  7323.39  84.9182
 49.8016  7431.75  85.4501
 49.8436  7266.19  84.7766
 49.8856  7313.37  85.0857
 49.9276  7197.3  84.506
 49.9696  7386.5  85.5887
 50.0116  7350.86  85.526
 50.0536  7345.83  85.4345
 50.0956  7229.38  84.8311
 50.1376  7329.78  85.1114
 50.1796  7286.28  85.1193
 50.2216  7317.95  85.315
 50.2636  7236.75  84.4436
 50.3056  7207.35  84.4528
 50.3476  7317.32  85.1169
 50.3896  7272.93  84.83
 50.4316  7347.3  85.0925
 50.4736  7184.65  84.3679
 50.5156  7354.92  85.3225
 50.5576  7348.42  85.0663
 50.5996  7243.85  84.7476
 50.6416  7253.19  84.7248
 50.6836  7293.25  85.0439
 50.7256  7381.47  85.4574
 50.7676  7359.68  85.7121
 50.8096  7270.73  84.663
 50.8516  7259.93  85.0215
 50.8936  7195.52  84.4035
 50.9356  7341.28  85.3858
 50.9776  7258.39  85.0353
 51.0196  7250.43  85.091
 51.0616  7166.17  83.9256
 51.1036  7154.59  84.2022
 51.1456  7180.91  84.2841
 51.1876  7151.6  83.3995
 51.2296  7119.34  83.8786
 51.2716  7141.99  83.6935
 51.3136  7101.83  83.9465
 51.3556  7030.36  83.1178
 51.3976  7084.76  83.6074
 51.4396  7086.2  83.9407
 51.4816  7140.47  84.1099
 51.5236  7148.47  84.2652
 51.5656  7037.85  83.1838
 51.6076  7163.08  84.0232
 51.6496  7100.49  83.8123
 51.6916  7064.38  84.0024
 51.7336  7085.92  84.1863
 51.7756  7128.1  84.1438
 51.8176  7044.47  83.761
 51.8596  7024.6  83.6575
 51.9016  7157.69  84.0424
 51.9436  7088.3  85.2139
 51.9856  7149.5  86.027
 52.0276  7032.36  83.7624
 52.0696  7199.27  84.8565
 52.1116  7040.13  83.9613
 52.1536  7161.29  84.6388
 52.1956  7109.63  83.7064
 52.2376  7191.17  84.3963
 52.2796  7234.89  84.4712
 52.3216  7016.4  83.8856
 52.3636  7089.63  83.8802
 52.4056  6965.79  83.0043
 52.4476  7101.54  84.1729
 52.4896  7110.48  84.2746
 52.5316  7080.89  84.1987
 52.5736  6950.18  83.058
 52.6156  7128.81  84.6035
 52.6576  7057.71  83.5152
 52.6996  6957.16  83.9706
 52.7416  6987.71  83.9639
 52.7836  6970.37  83.791
 52.8256  7067.16  83.5617
 52.8676  6860.15  82.9121
 52.9096  6992.43  83.7853
 52.9516  6942.3  83.8758
 52.9936  7011.9  84.687
 53.0356  6990.2  83.5813
 53.0776  6942.99  83.5771
 53.1196  7073.19  84.4848
 53.1616  7078.62  84.565
 53.2036  6998.82  84.0483
 53.2456  6932.68  83.7577
 53.2876  7001.7  83.8559
 53.3296  7096.11  84.7547
 53.3716  7211.26  85.2034
 53.4136  6974.4  83.9277
 53.4556  6937.78  83.7376
 53.4976  6953.53  83.6714
 53.5396  6865.6  83.5232
 53.5816  7057.98  84.3261
 53.6236  6887.08  83.6578
 53.6656  7017.09  84.0425
 53.7076  6957.03  83.6269
 53.7496  7139.02  84.8733
 53.7916  7145.25  85.0279
 53.8336  7000.4  84.0767
 53.8756  6816.75  83.505
 53.9176  6937.44  83.5452
 53.9596  6748.88  83.119
 54.0016  6730.51  82.3524
 54.0436  6523.18  81.2774
 54.0856  6780.52  82.3025
 54.1276  6759.72  82.3722
 54.1696  6764.46  82.5722
 54.2116  6846.32  82.8367
 54.2536  6691.74  81.662
 54.2956  6726.93  81.9527
 54.3376  6595.6  81.63
 54.3796  6618.43  81.6647
 54.4216  6765.13  82.6331
 54.4636  6645.84  81.8576
 54.5056  6713.45  82.0779
 54.5476  6653.07  82.0465
 54.5896  6721.78  82.3135
 54.6316  6694.58  81.9712
 54.6736  6729.63  82.2853
 54.7156  6638.95  81.7608
 54.7576  6509.6  80.9351
 54.7996  6736.08  82.4849
 54.8416  6628.35  81.8771
 54.8836  6691.01  82.3853
 54.9256  6594.07  81.5236
 54.9676  6548.59  81.0704
 55.0096  6545.25  81.1209
 55.0516  6449.3  80.7254
 55.0936  6616.2  81.4595
 55.1356  6541.28  81.0284
 55.1776  6669.63  82.0953
 55.2196  6667.62  81.8359
 55.2616  6678.41  82.1527
 55.3036  6540.82  81.4548
 55.3456  6485.2  81.2189
 55.3876  6538.11  81.2995
 55.4296  6477.16  80.8934
 55.4716  6493.31  81.0529
 55.5136  6561.83  81.237
 55.5556  6683.22  82.0534
 55.5976  6462.44  80.7587
 55.6396  6662.86  81.9684
 55.6816  6500.5  80.8117
 55.7236  6438.31  80.4527
 55.7656  6540.37  80.8081
 55.8076  6460.13  80.3149
 55.8496  6502.53  80.9151
 55.8916  6387.65  80.3895
 55.9336  6601.07  81.5908
 55.9756  6464.11  80.584
 56.0176  6424.71  80.482
 56.0596  6404.88  80.3564
 56.1016  6398.02  80.3088
 56.1436  6392.42  80.5587
 56.1856  6306.08  79.7373
 56.2276  6625.01  81.8344
 56.2696  6425.19  80.5398
 56.3116  6523.99  81.5727
 56.3536  6358.37  80.1515
 56.3956  6442.09  80.6804
 56.4376  6511.35  81.1491
 56.4796  6351.34  79.9305
 56.5216  6481.82  81.1614
 56.5636  6335.05  79.7768
 56.6056  6543.94  81.3826
 56.6476  6430.54  80.256
 56.6896  6507.63  81.2242
 56.7316  6407.74  80.4928
 56.7736  6387.61  80.3605
 56.8156  6381.9  80.3398
 56.8576  6281.07  79.6183
 56.8996  6400.2  80.3044
 56.9416  6311.86  80.0698
 56.9836  6383.28  80.0631
 57.0256  6269.62  79.632
 57.0676  6417.74  80.7078
 57.1096  6397.25  80.331
 57.1516  6342.92  80.0199
 57.1936  6318.23  79.6519
 57.2356  6162.26  78.9658
 57.2776  6393.74  80.4142
 57.3196  6304.66  80.2048
 57.3616  6368.89  80.1076
 57.4036  6339.43  79.9848
 57.4456  6428.89  80.5444
 57.4876  6305.78  79.6039
 57.5296  6336.24  80.1427
 57.5716  6258.38  79.6455
 57.6136  6213.4  79.1696
 57.6556  6251.47  79.5514
 57.6976  6357.42  80.0614
 57.7396  6161.45  79.1827
 57.7816  6081.35  79.0165
 57.8236  6259.5  79.952
 57.8656  6195  79.1989
 57.9076  6318.75  80
 57.9496  6270.61  80.0677
 57.9916  6252.53  79.4831
 58.0336  6203.1  79.4267
 58.0756  6321.38  79.8408
 58.1176  6198.16  79.0259
 58.1596  6200.8  79.6333
 58.2016  6054.16  77.8358
 58.2436  6205.04  79.224
 58.2856  5979.12  77.6794
 58.3276  5938.76  77.8002
 58.3696  6036.52  78.2104
 58.4116  6053.02  78.1649
 58.4536  6033.87  77.9424
 58.4956  6035.69  78.1188
 58.5376  6149.98  78.4121
 58.5796  5967.35  77.6498
 58.6216  6065.46  78.1267
 58.6636  6009.71  77.9518
 58.7056  6066.95  78.1984
 58.7476  5873.05  77.3796
 58.7896  6090.35  78.436
 58.8316  6023.83  78.0232
 58.8736  6012.45  77.9461
 58.9156  5996.59  77.9027
 58.9576  6036.83  78.449
 58.9996  6042.44  77.7693
 59.0416  6083.36  78.3613
 59.0836  6063.05  78.1676
 59.1256  5824.05  77.2984
 59.1676  6006.02  78.8043
 59.2096  5969.35  77.8232
 59.2516  6232.82  79.097
 59.2936  6170.87  79.0341
 59.3356  6028.56  77.9955
 59.3776  6066.36  78.4088
 59.4196  5960.12  77.656
 59.4616  5989.58  77.7081
 59.5036  5849.04  76.8255
 59.5456  6057.21  77.8743
 59.5876  6011.78  77.772
 59.6296  5925.15  77.2782
 59.6716  5869.08  76.9687
 59.7136  5960.52  77.5544
 59.7556  5936.82  77.5351
 59.7976  5819.91  76.5151
 59.8396  5958.63  77.3168
 59.8816  5929.2  77.6645
 59.9236  6023.55  77.9253
 59.9656  6096.25  78.6555
 60.0076  5937.43  76.9881
 60.0496  6051.93  78.2294
 60.0916  6176.95  78.4468
 60.1336  5915.26  77.8615
 60.1756  5912.76  79.0153
 60.1996  0.0000000E+00  0.0000000E+00