File: docs/examples/XRD/IS17_D/Data/IS17_D/17_Da_f00035.xye
# /beamlines/bl04/projects/cycle2025-II/20250340211-lsimonelli/DATA/IS17_D/17_Da_f00035.xye : mythproc.py merge -s 0.006 -l 0.5 -f /beamlines/bl04/inhouse/ff/FlatField/ff_20Nov2024rod8mm60s_17keV.raw -b True -c true -o xye /beamlines/bl04/projects/cycle2025-II/20250340211-lsimonelli/DATA/IS17_D/17_Da_00035.dat
# IsMon = [6789664, 6790158, 6790240]  IsPos = [-1.5000, -2.4885, -3.4986]
# Wave = 0.4962  CalPath /beamlines/bl04/projects/cycle2025-II/20250340211-lsimonelli/DATA/Align/Si_Pos1_25keV_f00001.cal
# Date = 2025-09-24_03:19:08 Dt = 4.8000  Bin = 0.0060  <imon> = 6790021 +/- 254 (Min/Max) 6789664 / 6790240
# icurr 252.6925  mocoIn 1.7246E-05  mocoOut 0.8088  i15 7.10427e+06  imon 6.79002e+06  i7 7.6667  iEMpd_timer 4.8000  iEMpd_1 3.5834E-08  iEMpd_2 7.6977E-08  iEMpd_3 1.6149E-08  iEMpd_4 4.9476E-08  iEMhp_timer 4.8000  iEMhp_1 4.9376E-06  iEMhp_2 -2.5358E-08  iEMhp_3 -2.3725E-08  iEMhp_4 -2.1770E-08
#      9776
 1.5856  40833.8  207.503
 1.6276  48440.1  222.126
 1.6696  54736.3  235.289
 1.7116  63465.4  253.852
 1.7536  72742.7  270.615
 1.7956  77555.1  280.122
 1.8376  73277.9  272.719
 1.8796  61820.9  248.658
 1.9216  49851.9  224.177
 1.9636  42623.3  206.96
 2.0056  37871.8  193.837
 2.0476  35131.5  188.74
 2.0896  33441.5  183.064
 2.1316  32619.7  179.932
 2.1736  31218.5  177.421
 2.2156  31416.2  176.554
 2.2576  30343.7  174.134
 2.2996  29037.2  170.971
 2.3416  29328.2  170.454
 2.3836  29082.8  169.844
 2.4256  28009.6  167.224
 2.4676  27440.3  165.281
 2.5096  27165.3  164.505
 2.5516  26637.6  166.669
 2.5936  26653.7  163.353
 2.6356  26267.9  162.852
 2.6776  26326.2  161.935
 2.7196  25877.5  161.054
 2.7616  25875.1  160.823
 2.8036  25280.5  159.136
 2.8456  25270.9  159.718
 2.8876  24846.8  158.224
 2.9296  24267.1  156.515
 2.9716  24272.8  156.031
 3.0136  23943.2  155.033
 3.0556  23958.7  155.48
 3.0976  23906.4  154.248
 3.1396  23577.8  153.888
 3.1816  23523.1  153.646
 3.2236  23398.5  153.242
 3.2656  23277.1  151.892
 3.3076  23018.8  152.482
 3.3496  23411.3  152.968
 3.3916  23892  154.109
 3.4336  24214.1  155.72
 3.4756  24658.6  157.071
 3.5176  25466.2  159.416
 3.5596  25229.5  161.638
 3.6016  25658.5  160.072
 3.6436  24633.1  157.937
 3.6856  24143.5  154.669
 3.7276  23254.3  152.875
 3.7696  23022.4  152.097
 3.8116  22739.6  151.253
 3.8536  22711.4  151.092
 3.8956  22627.5  150.641
 3.9376  22444.4  150.312
 3.9796  22474.7  149.894
 4.0216  22847.5  150.17
 4.0636  22491.5  150.458
 4.1056  22536.8  150.25
 4.1476  22787.6  151.398
 4.1896  23052.3  152.138
 4.2316  23161.5  152.322
 4.2736  23625.2  153.628
 4.3156  23676.9  154.026
 4.3576  24714.3  157.288
 4.3996  24955.9  158.116
 4.4416  25509.8  159.645
 4.4836  25808.7  160.727
 4.5256  26378.1  163.105
 4.5676  26409.7  163.457
 4.6096  26678.6  163.303
 4.6516  27170.8  164.155
 4.6936  27370.6  165.565
 4.7356  27694.5  166.375
 4.7776  27653  166.082
 4.8196  27230.1  165.455
 4.8616  26740.4  163.579
 4.9036  26473.4  162.373
 4.9456  26466.1  163
 4.9876  25747  160.672
 5.0296  26034.8  161.374
 5.0716  25937.7  161.71
 5.1136  26205.4  162.399
 5.1556  26371.3  162.379
 5.1976  26860.6  163.872
 5.2396  26880.6  163.632
 5.2816  26865  164.038
 5.3236  27141.6  164.591
 5.3656  26283.3  162.88
 5.4076  26133.8  162.566
 5.4496  26306.8  162.591
 5.4916  26474.6  162.867
 5.5336  26523.2  163.025
 5.5756  26351.4  162.523
 5.6176  26496.6  162.403
 5.6596  26777  164.089
 5.7016  26771  163.488
 5.7436  26937  164.265
 5.7856  26941.5  164.337
 5.8276  27234  164.951
 5.8696  27363.5  165.405
 5.9116  27113.1  165.329
 5.9536  27457.3  166.154
 5.9956  27718.2  166.315
 6.0376  27772  167.104
 6.0796  27965.5  167.519
 6.1216  28073  168.043
 6.1636  28204.2  167.503
 6.2056  28256.5  168.317
 6.2476  28494.9  168.723
 6.2896  28588.3  168.863
 6.3316  28515  168.818
 6.3736  28828.4  169.639
 6.4156  28858.4  169.679
 6.4576  28838.3  169.17
 6.4996  29135.1  170.52
 6.5416  28874.3  169.889
 6.5836  29154.7  170.941
 6.6256  29328.9  171.014
 6.6676  29743.9  171.789
 6.7096  29545.7  172.063
 6.7516  29932.1  172.844
 6.7936  30047.3  172.357
 6.8356  30197.3  173.116
 6.8776  30574.5  174.991
 6.9196  30571.8  175.384
 6.9616  30958.7  175.905
 7.0036  31267.5  176.466
 7.0456  31638.6  176.806
 7.0876  31320.4  177.51
 7.1296  31380.9  176.906
 7.1716  31188.4  175.901
 7.2136  30806.4  174.608
 7.2556  31158.8  175.764
 7.2976  31228.3  176.451
 7.3396  31078.5  176.241
 7.3816  31137.4  176.619
 7.4236  31139.4  175.925
 7.4656  31316.8  175.919
 7.5076  31716.5  177.168
 7.5496  31757.8  177.821
 7.5916  31737.1  177.791
 7.6336  32074  178.631
 7.6756  32059.5  178.444
 7.7176  32468.4  179.882
 7.7596  32335.2  180.747
 7.8016  32619.5  183.706
 7.8436  33198.7  182.024
 7.8856  33528.6  182.542
 7.9276  33994  184.195
 7.9696  34252.8  185.204
 8.0116  35268.6  186.838
 8.0536  35478.3  187.285
 8.0956  35036.5  187.273
 8.1376  35593.4  188.231
 8.1796  35704.2  189.065
 8.2216  36613.6  190.204
 8.2636  36794.3  190.915
 8.3056  36615.8  191.221
 8.3476  37196.4  192.064
 8.3896  36835  191.648
 8.4316  37092.5  192.038
 8.4736  37278.5  191.986
 8.5156  36790.9  191.003
 8.5576  36419.3  190.999
 8.5996  36605.7  190.367
 8.6416  36420.4  191.135
 8.6836  36108.8  190.15
 8.7256  36823.2  191.461
 8.7676  36105.4  192.462
 8.8096  35792  188.961
 8.8516  35738.2  188.499
 8.8936  35371.1  187.369
 8.9356  35212.5  187.286
 8.9776  35801.4  188.948
 9.0196  35247.1  187.151
 9.0616  35337.4  186.882
 9.1036  34927.2  186.962
 9.1456  34990.4  186.49
 9.1876  34739.6  185.773
 9.2296  35284.8  186.635
 9.2716  33838.8  182.83
 9.3136  34178.6  183.727
 9.3556  34479.2  184.521
 9.3976  33383.4  182.085
 9.4396  33830.4  183.191
 9.4816  33272  181.537
 9.5236  33608.1  182.363
 9.5656  32845.1  180.595
 9.6076  32721.4  180.779
 9.6496  32561.2  180.261
 9.6916  32871.6  181.092
 9.7336  32641.4  180.239
 9.7756  32722.9  181.653
 9.8176  31807.5  178.65
 9.8596  31899.4  177.382
 9.9016  31577.5  176.477
 9.9436  31208.4  175.197
 9.9856  31078.9  175.218
 10.0276  30209.4  173.827
 10.0696  30650.1  174.147
 10.1116  29989.9  172.509
 10.1536  29660.4  171.25
 10.1956  29394.9  170.573
 10.2376  29045.8  169.068
 10.2796  29111.7  169.384
 10.3216  29366  170.247
 10.3636  28669.5  168.382
 10.4056  28391.3  167.956
 10.4476  28405.6  167.632
 10.4896  28432.2  167.176
 10.5316  27930.2  166.065
 10.5736  27792.3  166.373
 10.6156  27321.2  164.734
 10.6576  27531.7  163.964
 10.6996  27295.2  163.911
 10.7416  26755.1  162.512
 10.7836  27187.8  164.498
 10.8256  26505.4  162.84
 10.8676  26740.2  163.103
 10.9096  26329.9  161.885
 10.9516  26064.5  160.017
 10.9936  26378.1  161.178
 11.0356  26030.9  160.737
 11.0776  25910.4  159.693
 11.1196  25595.3  159.452
 11.1616  25339.9  158.346
 11.2036  25422.2  158.463
 11.2456  25291.6  158.742
 11.2876  25103  157.884
 11.3296  24772.8  156.749
 11.3716  25390.9  158.422
 11.4136  25146.5  158.501
 11.4556  25314.4  158.705
 11.4976  25574  158.498
 11.5396  26010.6  160.023
 11.5816  26287.5  161.313
 11.6236  26059  161.056
 11.6656  25519.6  158.331
 11.7076  25047.4  157.687
 11.7496  24623.8  160.235
 11.7916  24717.9  155.922
 11.8336  24118.7  154.916
 11.8756  24040.3  154.182
 11.9176  24196.3  154.59
 11.9596  23922.4  153.653
 12.0016  23820.3  154.103
 12.0436  23829.1  153.561
 12.0856  23706.5  153.683
 12.1276  23601.5  153.262
 12.1696  23686.3  152.686
 12.2116  23890.1  153.334
 12.2536  23195.3  151.871
 12.2956  23598.2  152.559
 12.3376  23286.1  151.748
 12.3796  23574.1  153.135
 12.4216  23459.4  151.999
 12.4636  23037.3  151.508
 12.5056  23368.4  151.891
 12.5476  23513  151.893
 12.5896  23426.3  152.235
 12.6316  23188.8  151.616
 12.6736  23388.2  152.602
 12.7156  23005.3  151.356
 12.7576  23270.1  152.462
 12.7996  23463.6  151.76
 12.8416  23012.2  151.323
 12.8836  23502.8  152.736
 12.9256  23822.5  152.823
 12.9676  23854.7  153.342
 13.0096  23709.7  153.954
 13.0516  23767  153.197
 13.0936  23958.2  153.924
 13.1356  24195.3  153.962
 13.1776  23882.6  153.925
 13.2196  23960.8  153.852
 13.2616  23944.8  154.104
 13.3036  24084.8  154.697
 13.3456  24023.7  154.484
 13.3876  24001.5  153.914
 13.4296  23836.9  153.532
 13.4716  23937.7  153.472
 13.5136  23825.9  153.262
 13.5556  23881  154.046
 13.5976  24165.6  155.106
 13.6396  24136  154.387
 13.6816  23618.8  153.081
 13.7236  24579  155.913
 13.7656  23881.8  154.236
 13.8076  24057.3  153.599
 13.8496  23633.5  153.011
 13.8916  23475.6  153.302
 13.9336  23616.7  153.005
 13.9756  23544.4  152.122
 14.0176  23403.2  152.345
 14.0596  23644.9  153.084
 14.1016  23324.2  152.439
 14.1436  23004.7  150.538
 14.1856  22647.3  149.653
 14.2276  22420.4  149.376
 14.2696  22710.4  150.184
 14.3116  22378.3  148.981
 14.3536  22115.2  148.278
 14.3956  22220.1  148.362
 14.4376  22183.3  148.019
 14.4796  22072.5  147.64
 14.5216  21919.7  147.918
 14.5636  21740.1  146.88
 14.6056  21802.3  146.67
 14.6476  21763.1  145.782
 14.6896  21454.6  145.28
 14.7316  21034.6  144.864
 14.7736  20982.5  143.847
 14.8156  20631  142.665
 14.8576  20679.3  142.686
 14.8996  20281  142.495
 14.9416  19940.1  141.293
 14.9836  20078.6  141.739
 15.0256  19933.8  140.173
 15.0676  19743.9  139.815
 15.1096  19684.1  139.343
 15.1516  19382.8  138.825
 15.1936  19446.6  138.484
 15.2356  19023.7  137.24
 15.2776  19133.6  137.229
 15.3196  18568.7  136.173
 15.3616  18689.7  136.375
 15.4036  18474.5  135.439
 15.4456  18744.4  135.863
 15.4876  18355.5  134.352
 15.5296  18346  134.602
 15.5716  18063.8  133.168
 15.6136  18033.4  133.37
 15.6556  18082  132.806
 15.6976  18003.5  132.591
 15.7396  17907.2  132.843
 15.7816  17754.9  131.787
 15.8236  17530.9  131.646
 15.8656  17682.9  132.009
 15.9076  17156.2  129.858
 15.9496  17094.8  132.365
 15.9916  17183.1  133.133
 16.0336  17016.3  129.423
 16.0756  16930.9  129.405
 16.1176  16905.7  129.224
 16.1596  16402.6  128.592
 16.2016  16759.6  128.742
 16.2436  16444.2  127.905
 16.2856  16527.8  127.78
 16.3276  16182.5  126.848
 16.3696  16305.9  127.153
 16.4116  16053  126.62
 16.4536  16416.8  127.827
 16.4956  15969.6  125.816
 16.5376  15957.3  125.948
 16.5796  16257.7  126.497
 16.6216  16217.8  126.638
 16.6636  16184.2  126.662
 16.7056  16085.1  126.147
 16.7476  16015.4  125.554
 16.7896  16008.7  126.122
 16.8316  16056.4  126.279
 16.8736  15902.9  125.93
 16.9156  15878.5  126.146
 16.9576  15727.4  126.346
 16.9996  15801.5  127.123
 17.0416  15906.5  125.916
 17.0836  15709.6  124.898
 17.1256  15569.2  124.341
 17.1676  15620.7  124.55
 17.2096  15545.9  124.128
 17.2516  15440.9  123.787
 17.2936  15438  123.794
 17.3356  15072.2  122.334
 17.3776  15140.5  122.79
 17.4196  15231.7  122.861
 17.4616  15103.8  122.266
 17.5036  14881.5  121.723
 17.5456  14661.4  121.448
 17.5876  14872.6  121.369
 17.6296  14718.5  120.55
 17.6716  14455.7  120.044
 17.7136  14365.2  119.807
 17.7556  14601.5  121.076
 17.7976  14378.6  119.764
 17.8396  14387.6  119.442
 17.8816  14221.9  119.281
 17.9236  14201.7  119.014
 17.9656  14229.8  119.819
 18.0076  14267.3  119.402
 18.0496  14494  119.492
 18.0916  14294.5  119.194
 18.1336  14296.6  119.3
 18.1756  14463.9  119.531
 18.2176  14260.5  118.915
 18.2596  14141.1  118.154
 18.3016  14165.7  118.511
 18.3436  14272.8  119.188
 18.3856  13987.5  117.894
 18.4276  14237.8  118.615
 18.4696  13924.8  117.403
 18.5116  14112.5  118.477
 18.5536  14141.7  118.953
 18.5956  13733.3  116.788
 18.6376  13880.9  117.812
 18.6796  13665.7  116.237
 18.7216  13958  118.026
 18.7636  13701.3  116.852
 18.8056  13823.6  117.311
 18.8476  13620.6  116.76
 18.8896  13569.2  116.189
 18.9316  13837.7  117.159
 18.9736  13592.3  115.977
 19.0156  13679.5  116.732
 19.0576  13570.5  115.17
 19.0996  13802.6  116.851
 19.1416  13507.4  115.982
 19.1836  13614.7  116.046
 19.2256  13605.5  116.215
 19.2676  13451.8  115.651
 19.3096  13641.8  116.709
 19.3516  13445.8  115.653
 19.3936  13692.6  116.85
 19.4356  13606.4  116.289
 19.4776  13485  115.868
 19.5196  13619.1  116.292
 19.5616  13649.2  116.678
 19.6036  13452  115.193
 19.6456  13502.3  115.668
 19.6876  13600.2  115.742
 19.7296  13468.1  115.619
 19.7716  13633.8  116.349
 19.8136  13724.5  117.088
 19.8556  13964.2  117.585
 19.8976  13806.3  116.982
 19.9396  13721.5  116.201
 19.9816  14095.7  118.02
 20.0236  14163  118.518
 20.0656  14391.5  119.466
 20.1076  14241.3  119.308
 20.1496  14271.2  119.439
 20.1916  14278.8  118.936
 20.2336  14021.3  117.837
 20.2756  13676.3  116.802
 20.3176  13504.6  115.818
 20.3596  13481.7  115.691
 20.4016  13482.1  115.504
 20.4436  13310.1  115.324
 20.4856  13194  114.602
 20.5276  13122.8  114.75
 20.5696  13259.4  114.914
 20.6116  12957.9  113.762
 20.6536  12975.5  113.406
 20.6956  13049  113.806
 20.7376  13030.1  113.946
 20.7796  12810.4  112.679
 20.8216  13068.6  113.516
 20.8636  12819.1  112.783
 20.9056  12857.9  112.912
 20.9476  12801  112.501
 20.9896  12948.2  113.018
 21.0316  13067.2  113.434
 21.0736  12868.7  113.082
 21.1156  12709  112.535
 21.1576  12936.7  113.589
 21.1996  12719.9  112.609
 21.2416  12644.9  112.11
 21.2836  12817.3  112.838
 21.3256  12629.6  112.092
 21.3676  12830.1  112.53
 21.4096  12726.7  112.438
 21.4516  12536.5  111.417
 21.4936  12489.7  111.446
 21.5356  12556.5  111.706
 21.5776  12603.2  111.751
 21.6196  12487.3  111.263
 21.6616  12407.2  110.994
 21.7036  12552.1  111.426
 21.7456  12620.5  111.801
 21.7876  12441.8  110.764
 21.8296  12493.2  110.847
 21.8716  12339.4  110.39
 21.9136  12721.2  112.288
 21.9556  12477.4  110.882
 21.9976  12389.8  110.506
 22.0396  12419.9  110.884
 22.0816  12329.3  111.021
 22.1236  12476.3  111.137
 22.1656  12341.9  110.713
 22.2076  12450  110.627
 22.2496  12478.2  110.777
 22.2916  12502  110.768
 22.3336  12434.7  111.167
 22.3756  12507.2  111.233
 22.4176  12171.6  109.589
 22.4596  12222.6  110.399
 22.5016  12528.4  111.252
 22.5436  12468.1  110.883
 22.5856  12533.2  111.417
 22.6276  12376.1  110.85
 22.6696  12433  111.449
 22.7116  12315.7  110.446
 22.7536  12528  111.37
 22.7956  12353.8  109.932
 22.8376  12221.1  109.848
 22.8796  12465.9  110.75
 22.9216  12337.6  110.72
 22.9636  12386.3  110.097
 23.0056  12313.7  109.904
 23.0476  12596.7  111.732
 23.0896  12646.3  111.327
 23.1316  12471.9  110.99
 23.1736  12438.7  113.773
 23.2156  12520.3  111.446
 23.2576  12448.5  111.325
 23.2996  12570.9  111.675
 23.3416  12396.9  111.408
 23.3836  12576.5  111.427
 23.4256  12442.4  110.965
 23.4676  12315.1  110.105
 23.5096  12204  110.272
 23.5516  12353.5  110.234
 23.5936  12395.2  111.312
 23.6356  12599.3  111.898
 23.6776  12148.7  110.413
 23.7196  12102.7  109.672
 23.7616  12382.7  110.64
 23.8036  12310.9  110.366
 23.8456  12405.3  110.358
 23.8876  11993.1  108.847
 23.9296  12120.5  109.91
 23.9716  12164.7  109.317
 24.0136  12124.1  110.016
 24.0556  12047.5  109.408
 24.0976  11930.7  108.681
 24.1396  11899.8  111.163
 24.1816  11961.5  110.216
 24.2236  11765.7  108.6
 24.2656  11858.1  108.503
 24.3076  11698  108.005
 24.3496  11780.9  108.289
 24.3916  11678.9  107.867
 24.4336  11699.7  108.171
 24.4756  11534.4  107.272
 24.5176  11450.7  106.541
 24.5596  11455.5  106.88
 24.6016  11388.7  106.657
 24.6436  11430.6  106.35
 24.6856  11356.2  105.772
 24.7276  11341.2  106.003
 24.7696  11304.5  105.949
 24.8116  11319.8  106.203
 24.8536  11151.4  105.406
 24.8956  11280.7  105.757
 24.9376  11010.8  104.654
 24.9796  11038.3  104.901
 25.0216  10973.1  104.701
 25.0636  10986.6  104.424
 25.1056  10832.6  104.106
 25.1476  11078.1  107.215
 25.1896  10985.7  105.254
 25.2316  10928.8  104.152
 25.2736  11089.1  104.685
 25.3156  10944.2  104.072
 25.3576  10902.9  104.284
 25.3996  10936.3  104.428
 25.4416  11019.9  104.811
 25.4836  10818.6  104.371
 25.5256  10901.8  104.141
 25.5676  10940.3  104.056
 25.6096  10670.6  103.33
 25.6516  10835.9  103.629
 25.6936  10696.3  103.271
 25.7356  10774.5  103.776
 25.7776  10915.3  104.138
 25.8196  10601.7  102.789
 25.8616  10721.2  103.292
 25.9036  10768.2  102.992
 25.9456  10621.6  102.868
 25.9876  10714.2  103.248
 26.0296  10782  103.316
 26.0716  10653.1  103.024
 26.1136  10596.8  102.695
 26.1556  10691  102.451
 26.1976  10634.8  103.187
 26.2396  10696.7  102.894
 26.2816  10687  103.205
 26.3236  10619.8  102.959
 26.3656  10657  102.943
 26.4076  10771  103.696
 26.4496  11108  104.789
 26.4916  10780.4  103.245
 26.5336  10723.9  103.298
 26.5756  11043.5  104.687
 26.6176  10564.5  102.442
 26.6596  10487  102.37
 26.7016  10551.1  102.484
 26.7436  10360.2  101.639
 26.7856  10402.2  101.821
 26.8276  10530.2  102.408
 26.8696  10420.2  101.743
 26.9116  10365.3  101.412
 26.9536  10183.7  100.573
 26.9956  10313.3  101.241
 27.0376  10202.5  100.903
 27.0796  10389.5  101.611
 27.1216  10217.2  100.793
 27.1636  10247.1  101.105
 27.2056  10223.9  100.874
 27.2476  10202.8  100.772
 27.2896  10110.1  100.351
 27.3316  10124.8  100.211
 27.3736  10184.1  100.766
 27.4156  10040.6  99.8975
 27.4576  10185.2  100.847
 27.4996  10001.1  99.5267
 27.5416  10015.2  99.915
 27.5836  10085.3  100.074
 27.6256  10387  101.734
 27.6676  10218.5  100.925
 27.7096  10110  100.253
 27.7516  9969.49  99.7069
 27.7936  9997  100.01
 27.8356  10031.8  99.8103
 27.8776  9927.69  99.3328
 27.9196  9847.62  98.7874
 27.9616  9944.06  99.4599
 28.0036  9918.41  99.2944
 28.0456  9898.25  99.328
 28.0876  9758.09  98.7105
 28.1296  9738.11  98.456
 28.1716  9838.77  98.9713
 28.2136  9792.01  98.7048
 28.2556  9723.02  98.4716
 28.2976  9834.32  99.0219
 28.3396  9764.82  98.4729
 28.3816  9741.91  98.3395
 28.4236  9776.26  98.665
 28.4656  9652.17  98.0721
 28.5076  9735.46  98.1368
 28.5496  9797.78  98.7077
 28.5916  9792.1  98.4885
 28.6336  9572.89  97.7074
 28.6756  9673.3  97.4388
 28.7176  9574.22  97.4728
 28.7596  9573.69  97.3742
 28.8016  9713.77  98.2012
 28.8436  9636.24  97.9638
 28.8856  9533.09  97.2878
 28.9276  9593.58  97.8387
 28.9696  9556.23  97.3164
 29.0116  9480.93  97.1026
 29.0536  9486.78  97.3428
 29.0956  9568.16  97.4784
 29.1376  9488.72  97.0352
 29.1796  9489.42  97.0829
 29.2216  9435.12  96.6498
 29.2636  9554.34  97.2507
 29.3056  9477.37  96.7339
 29.3476  9315.54  96.4182
 29.3896  9573.27  97.8388
 29.4316  9688.75  97.7675
 29.4736  9366.15  96.1889
 29.5156  9468.13  96.629
 29.5576  9421.54  97.1258
 29.5996  9428.97  96.4306
 29.6416  9358.83  96.1853
 29.6836  9344.3  96.0413
 29.7256  9448.79  97.1354
 29.7676  9466.61  96.8892
 29.8096  9355.54  96.2669
 29.8516  9289.26  96.2487
 29.8936  9283.06  96.3136
 29.9356  9419.17  96.7739
 29.9776  9204.83  95.8172
 30.0196  9380.94  96.1224
 30.0616  9329.95  96.2314
 30.1036  9329.62  96.0537
 30.1456  9393.98  96.6413
 30.1876  9333.11  96.2787
 30.2296  9270.56  95.9096
 30.2716  9402.84  96.2314
 30.3136  9327.12  96.434
 30.3556  9356.96  96.8572
 30.3976  9242.94  97.7791
 30.4396  9309.51  95.487
 30.4816  9347.3  95.2838
 30.5236  9139.96  94.2399
 30.5656  9022.03  94.2638
 30.6076  9420.93  96.1012
 30.6496  9329.09  95.6719
 30.6916  9124.09  94.7072
 30.7336  9184.79  95.1692
 30.7756  9178.67  95.448
 30.8176  9255.77  95.5459
 30.8596  9247.83  95.2779
 30.9016  9161.35  94.6982
 30.9436  9217.31  95.2049
 30.9856  9144.06  94.9392
 31.0276  9137.34  94.5103
 31.0696  9029.72  94.389
 31.1116  9006.2  94.379
 31.1536  9208.53  95.3177
 31.1956  9044.01  94.5493
 31.2376  8968.79  94.164
 31.2796  9180.49  94.8106
 31.3216  9098.93  94.3298
 31.3636  9127.45  95.1612
 31.4056  9032.44  95.9712
 31.4476  9052.47  93.9874
 31.4896  9041.56  94.4229
 31.5316  8843.69  92.8398
 31.5736  9164.09  94.2813
 31.6156  9013.06  93.5227
 31.6576  9161.54  94.3942
 31.6996  9181.35  94.1715
 31.7416  8920.28  93.7283
 31.7836  9116.83  93.9137
 31.8256  8919.89  93.2379
 31.8676  8919.35  93.1509
 31.9096  8992.56  93.753
 31.9516  8880.45  93.4597
 31.9936  8839.53  93.072
 32.0356  8884.92  93.3738
 32.0776  8822.93  92.9366
 32.1196  8990.86  93.822
 32.1616  9020.74  93.5254
 32.2036  8766.65  92.698
 32.2456  8957.14  94.078
 32.2876  8869.29  92.954
 32.3296  8901.25  93.2521
 32.3716  8805.77  92.8545
 32.4136  8920.17  93.6683
 32.4556  8889.31  92.9477
 32.4976  8853.37  92.6519
 32.5396  8856.75  92.6992
 32.5816  8850.53  92.6831
 32.6236  8917.46  93.2064
 32.6656  8958.06  93.9569
 32.7076  8825  92.9109
 32.7496  8819.75  92.557
 32.7916  8868.29  92.7729
 32.8336  8765.23  92.3288
 32.8756  8844.26  92.5559
 32.9176  8676.32  92.0473
 32.9596  8703.5  92.274
 33.0016  8778.91  92.4741
 33.0436  8829.67  92.9094
 33.0856  8663.58  92.0977
 33.1276  8540.57  91.1837
 33.1696  8685.7  91.8019
 33.2116  8764.59  92.4358
 33.2536  8736.93  92.2951
 33.2956  8722.33  92.2957
 33.3376  8666.14  91.8043
 33.3796  8674.44  91.9919
 33.4216  8763.11  92.0631
 33.4636  8849.92  92.6659
 33.5056  8727.83  92.0991
 33.5476  8638.47  91.7759
 33.5896  8853.17  92.6569
 33.6316  8648  91.9261
 33.6736  8608.11  91.9484
 33.7156  8567.4  91.7767
 33.7576  8702.21  92.1194
 33.7996  8759.37  92.1917
 33.8416  8451.86  90.736
 33.8836  8569.56  91.1483
 33.9256  8618.77  91.4737
 33.9676  8558.66  91.0543
 34.0096  8430.16  90.6725
 34.0516  8494.13  90.6617
 34.0936  8505.97  90.9861
 34.1356  8605.91  91.264
 34.1776  8552.39  90.9912
 34.2196  8475.77  90.7582
 34.2616  8425.51  90.6822
 34.3036  8405.32  90.7569
 34.3456  8481.54  90.9281
 34.3876  8546.16  91.3295
 34.4296  8383.86  90.0628
 34.4716  8397  90.2779
 34.5136  8505.94  91.0647
 34.5556  8445.7  90.9924
 34.5976  8483.49  91.0336
 34.6396  8357.38  90.0374
 34.6816  8303.74  89.8601
 34.7236  8367.07  89.9862
 34.7656  8444.68  90.6025
 34.8076  8411.75  90.7415
 34.8496  8356.58  90.3046
 34.8916  8366.93  90.2332
 34.9336  8473.79  90.7683
 34.9756  8576.99  91.2511
 35.0176  8453.21  91.1039
 35.0596  8359.24  90.4237
 35.1016  8325.48  90.0174
 35.1436  8538.09  90.8438
 35.1856  8347.58  89.9511
 35.2276  8388.61  90.346
 35.2696  8304.85  90.0831
 35.3116  8306.39  90.1814
 35.3536  8237.52  89.557
 35.3956  8206.49  89.0677
 35.4376  8257.44  89.8895
 35.4796  8350.6  90.4559
 35.5216  8251.23  89.8014
 35.5636  8109.04  89.831
 35.6056  8411.36  90.5037
 35.6476  8316.51  89.8901
 35.6896  8285.11  89.886
 35.7316  8219.45  89.4287
 35.7736  8258.13  89.836
 35.8156  8098.94  88.9636
 35.8576  8163.33  89.5687
 35.8996  8382.31  90.7186
 35.9416  8262.93  89.5766
 35.9836  8119.11  89.2372
 36.0256  8295.95  90.1328
 36.0676  8267.52  89.5186
 36.1096  8077.59  88.8324
 36.1516  8170.83  89.2365
 36.1936  8105.69  88.7267
 36.2356  8245.5  90.1307
 36.2776  8131  88.979
 36.3196  8157.52  88.8072
 36.3616  8198.73  89.1629
 36.4036  8170.22  89.0629
 36.4456  8151.41  89.1677
 36.4876  8059.8  88.6024
 36.5296  8068.31  88.6914
 36.5716  8166.29  90.0053
 36.6136  8182.77  88.8595
 36.6556  8289.09  89.6566
 36.6976  8102.44  89.1339
 36.7396  8151.38  89.2272
 36.7816  8218.37  89.8752
 36.8236  8166.51  89.5135
 36.8656  8032.65  88.8544
 36.9076  8070.46  89.0633
 36.9496  8115.2  89.323
 36.9916  8149.21  88.9855
 37.0336  8340.2  90.3418
 37.0756  8239.63  89.5881
 37.1176  8092.52  89.1455
 37.1596  8186.92  89.5685
 37.2016  8037.06  88.9275
 37.2436  8085.59  88.5633
 37.2856  7947.35  88.0609
 37.3276  8146.44  88.5048
 37.3696  7994.36  88.5541
 37.4116  8051.29  88.7708
 37.4536  7858.27  87.5732
 37.4956  7866.99  87.6661
 37.5376  7936.58  89.5913
 37.5796  7975.5  89.7635
 37.6216  7780.74  86.9644
 37.6636  7892.41  87.4825
 37.7056  7966.79  88.0843
 37.7476  7948.41  87.52
 37.7896  7881.72  87.6487
 37.8316  7723.71  86.9369
 37.8736  7956.85  87.7676
 37.9156  7852.88  87.1921
 37.9576  7866.41  87.3087
 37.9996  7822.8  86.6405
 38.0416  7702.23  86.7648
 38.0836  7918.91  87.8772
 38.1256  7742.2  86.8427
 38.1676  7670.55  86.5845
 38.2096  7781.11  86.8315
 38.2516  8002.38  88.165
 38.2936  7813.46  87.0179
 38.3356  7993.82  87.9287
 38.3776  7896.05  87.6639
 38.4196  7952.88  87.8374
 38.4616  7846.95  87.4704
 38.5036  8128.45  88.8729
 38.5456  7785.49  87.812
 38.5876  7747.12  87.6233
 38.6296  7724.93  86.485
 38.6716  7754.52  86.4494
 38.7136  7710.75  86.1501
 38.7556  7596.84  86.0051
 38.7976  7749.25  86.8029
 38.8396  7678.07  86.8488
 38.8816  7713.11  86.8128
 38.9236  7610.13  86.0561
 38.9656  7672.35  86.3292
 39.0076  7881.41  86.9044
 39.0496  7773.39  86.8396
 39.0916  7773.2  86.4815
 39.1336  7738.01  86.7056
 39.1756  7765.89  86.9274
 39.2176  7699.72  87.0824
 39.2596  7719.97  87.1181
 39.3016  7603.83  86.0388
 39.3436  7692.32  86.9597
 39.3856  7704.6  86.4851
 39.4276  7682.15  86.8447
 39.4696  7647.71  86.2787
 39.5116  7681.75  86.9808
 39.5536  7817.95  88.1727
 39.5956  7737.49  86.8305
 39.6376  7746.03  86.7218
 39.6796  7740.85  86.5941
 39.7216  7745.35  86.7195
 39.7636  7740.85  87.2598
 39.8056  7778.49  87.2475
 39.8476  7646.78  86.76
 39.8896  7664.35  86.4901
 39.9316  7643.89  86.6279
 39.9736  7859  87.4083
 40.0156  7775.5  86.7729
 40.0576  7800.17  87.2644
 40.0996  7916.46  87.0949
 40.1416  7816.31  87.3291
 40.1836  7809.17  87.1784
 40.2256  7877.95  87.6129
 40.2676  7746.71  87.0487
 40.3096  7858.9  87.5332
 40.3516  7862.05  87.7398
 40.3936  7933.64  87.6166
 40.4356  7802.11  87.0826
 40.4776  7764.47  87.1146
 40.5196  7852.16  87.8983
 40.5616  7811.68  87.316
 40.6036  7717.57  87.0377
 40.6456  7809.54  87.1686
 40.6876  7941.17  87.8853
 40.7296  7819.94  87.3465
 40.7716  7801.19  87.3728
 40.8136  7686.94  86.6731
 40.8556  7816.64  87.5322
 40.8976  7862.1  87.7062
 40.9396  7763.85  87.5052
 40.9816  7835.99  87.1986
 41.0236  7865.45  87.1496
 41.0656  7858.65  87.6469
 41.1076  7903  87.6657
 41.1496  7843.1  87.2429
 41.1916  7758.93  87.0927
 41.2336  7758.66  87.0772
 41.2756  7799.63  86.9167
 41.3176  7783.56  87.4356
 41.3596  7855.54  87.5709
 41.4016  7737.11  87.1622
 41.4436  7868.67  87.6892
 41.4856  7857.1  87.7895
 41.5276  7808.06  87.5301
 41.5696  7832.45  87.2892
 41.6116  7722.05  87.0739
 41.6536  7806.95  87.4131
 41.6956  7816.2  87.4458
 41.7376  7698.11  86.8819
 41.7796  7758.74  87.1533
 41.8216  7766.72  87.3867
 41.8636  7766.73  87.3223
 41.9056  7644.71  86.4327
 41.9476  7754.32  87.2806
 41.9896  7789.88  87.1477
 42.0316  7774.26  87.1385
 42.0736  7812.86  87.5004
 42.1156  7652.12  86.4045
 42.1576  7678.3  86.6523
 42.1996  7720.45  87.0215
 42.2416  7744.13  86.7463
 42.2836  7762.92  86.9645
 42.3256  7619.61  86.2713
 42.3676  7702.56  86.5457
 42.4096  7778.55  86.9364
 42.4516  7690.39  86.525
 42.4936  7503.6  85.5378
 42.5356  7618.07  86.3238
 42.5776  7730.17  86.8926
 42.6196  7701.02  86.7017
 42.6616  7511.25  85.8755
 42.7036  7630.28  85.9443
 42.7456  7656.01  86.4412
 42.7876  7614.23  86.3029
 42.8296  7671.99  86.527
 42.8716  7626.57  86.3646
 42.9136  7579.17  85.8492
 42.9556  7676.13  86.5712
 42.9976  7659.27  86.4372
 43.0396  7561.5  85.6205
 43.0816  7622.61  86.3375
 43.1236  7481.72  85.5938
 43.1656  7663.21  86.4591
 43.2076  7549.88  85.9173
 43.2496  7572.46  85.8611
 43.2916  7560.46  86.1561
 43.3336  7637.74  86.4351
 43.3756  7539.03  85.6336
 43.4176  7449.94  85.2067
 43.4596  7559.78  85.6884
 43.5016  7621.77  86.4424
 43.5436  7619.95  86.3337
 43.5856  7483.76  85.5843
 43.6276  7484.92  85.4889
 43.6696  7470.67  85.5475
 43.7116  7497.24  85.3166
 43.7536  7603.55  86.4039
 43.7956  7360.87  86.1878
 43.8376  7609.32  86.1733
 43.8796  7426.83  85.2122
 43.9216  7625.96  86.2645
 43.9636  7540.79  85.8878
 44.0056  7577.93  86.3276
 44.0476  7430.17  85.1208
 44.0896  7361.05  85.0624
 44.1316  7486.31  85.4467
 44.1736  7437.51  85.149
 44.2156  7511.68  85.4356
 44.2576  7408.49  85.1667
 44.2996  7450.78  85.3811
 44.3416  7420.31  84.9639
 44.3836  7307.46  84.6391
 44.4256  7302.44  84.2635
 44.4676  7270.67  84.2336
 44.5096  7357.98  84.8798
 44.5516  7276.48  84.3758
 44.5936  7195.1  83.8548
 44.6356  7322.59  84.3355
 44.6776  7378.65  84.9732
 44.7196  7348.28  85.0643
 44.7616  7371.93  86.5465
 44.8036  7325.67  84.9202
 44.8456  7263.64  84.5653
 44.8876  7286.58  84.5495
 44.9296  7407.03  84.6991
 44.9716  7328.59  84.6729
 45.0136  7236.33  84.0778
 45.0556  7342.54  84.7701
 45.0976  7227.46  84.1633
 45.1396  7181.93  83.6596
 45.1816  7188.85  83.4627
 45.2236  7313.58  84.2593
 45.2656  7194.28  84.0667
 45.3076  7256.81  84.2219
 45.3496  7175.02  84.0382
 45.3916  7160.56  84.2119
 45.4336  7236.86  84.5039
 45.4756  7228.03  84.3184
 45.5176  7265.46  84.1547
 45.5596  7222.44  84.0262
 45.6016  7163.88  84.0951
 45.6436  7140  83.1543
 45.6856  7068.11  83.3619
 45.7276  7134  85.57
 45.7696  7158.4  84.8733
 45.8116  7186.43  84.4903
 45.8536  7148.24  84.1587
 45.8956  7126.42  83.3955
 45.9376  7163.96  83.0884
 45.9796  7143.44  83.6465
 46.0216  7241.5  84.5497
 46.0636  7295.64  84.0117
 46.1056  7107.79  82.9166
 46.1476  7142.75  83.703
 46.1896  7150.38  83.8938
 46.2316  7140.81  83.7111
 46.2736  7107.13  83.716
 46.3156  7151.32  83.727
 46.3576  7079.15  83.5026
 46.3996  7085.42  83.6946
 46.4416  7197.67  83.9152
 46.4836  7032.2  83.3096
 46.5256  7147.36  83.9347
 46.5676  7059.63  83.5289
 46.6096  7173.47  84.1258
 46.6516  7148.99  83.048
 46.6936  7166.32  83.6343
 46.7356  7147.97  83.6244
 46.7776  6981.87  83.4751
 46.8196  7077.17  83.7913
 46.8616  6920.21  82.6623
 46.9036  6876.42  82.0653
 46.9456  7007.31  82.4901
 46.9876  7068.18  82.9338
 47.0296  6953.05  82.926
 47.0716  6916.54  82.5339
 47.1136  6952.7  82.4368
 47.1556  7029.45  82.7592
 47.1976  7006.67  82.7792
 47.2396  6983.98  82.9546
 47.2816  6986.62  82.6821
 47.3236  6986.39  83.0416
 47.3656  7039.92  83.2919
 47.4076  7012.66  82.8641
 47.4496  6949.97  82.6602
 47.4916  6959.79  82.9037
 47.5336  6926.93  82.5287
 47.5756  6883.5  82.3473
 47.6176  6893.87  82.3486
 47.6596  6830.2  81.6845
 47.7016  7049.32  82.8059
 47.7436  7015.73  82.942
 47.7856  7028.84  83.0313
 47.8276  6880.48  82.2086
 47.8696  6908.09  82.4607
 47.9116  7004.48  82.7508
 47.9536  7009.55  82.7191
 47.9956  6820.57  82.2895
 48.0376  6818.9  82.0604
 48.0796  6892.23  82.6221
 48.1216  6956.73  82.8346
 48.1636  6941.8  82.3273
 48.2056  6879.82  82.216
 48.2476  6944.44  82.9022
 48.2896  6849.6  82.2428
 48.3316  6878.82  82.3644
 48.3736  6901.08  82.5221
 48.4156  6843.04  82.0324
 48.4576  6845.36  82.3297
 48.4996  6916.11  82.2145
 48.5416  6830.05  82.0243
 48.5836  6829.95  81.7073
 48.6256  6944.86  82.5958
 48.6676  6842.82  82.487
 48.7096  6882.1  82.0123
 48.7516  6766.11  81.4606
 48.7936  6818.73  81.8393
 48.8356  6840.51  82.0178
 48.8776  6793.26  82.2105
 48.9196  6921.67  82.4426
 48.9616  6801.58  82.1046
 49.0036  6783.86  82.3335
 49.0456  6770.41  82.2328
 49.0876  6801.92  82.0672
 49.1296  6601.01  80.9061
 49.1716  6641.87  81.0267
 49.2136  6885.63  82.4387
 49.2556  6783.42  81.848
 49.2976  6819.18  82.13
 49.3396  6738.92  81.7016
 49.3816  6772.29  81.3378
 49.4236  6780.14  81.8037
 49.4656  6712.06  81.4137
 49.5076  6749.02  81.395
 49.5496  6709.45  81.0965
 49.5916  6705.13  81.1038
 49.6336  6698.47  81.2642
 49.6756  6726.26  81.6638
 49.7176  6722.4  81.5829
 49.7596  6628  80.9542
 49.8016  6785.19  81.6623
 49.8436  6584.25  80.7206
 49.8856  6572.27  80.6551
 49.9276  6668.21  81.3431
 49.9696  6674.26  81.3599
 50.0116  6606.43  81.0731
 50.0536  6630.16  81.1703
 50.0956  6617.2  81.1561
 50.1376  6725.21  81.5161
 50.1796  6596.35  80.9971
 50.2216  6637.52  81.2439
 50.2636  6516.02  80.1314
 50.3056  6505.23  80.2295
 50.3476  6565.51  80.6255
 50.3896  6546.3  80.4767
 50.4316  6587.82  80.572
 50.4736  6638.04  81.0964
 50.5156  6567.29  80.6488
 50.5576  6641.23  80.8726
 50.5996  6536.19  80.5018
 50.6416  6535.89  80.4316
 50.6836  6583.15  80.7803
 50.7256  6622.56  80.9462
 50.7676  6644.99  81.3466
 50.8096  6555.11  80.3942
 50.8516  6468.45  80.2625
 50.8936  6539.4  80.4894
 50.9356  6547.86  80.6417
 50.9776  6613.87  81.1924
 51.0196  6496.31  80.6016
 51.0616  6467.79  79.7644
 51.1036  6558.48  80.6652
 51.1456  6580.49  80.7195
 51.1876  6452.7  79.2948
 51.2296  6587.68  80.7376
 51.2716  6421.59  79.4319
 51.3136  6389.58  79.6756
 51.3556  6461.36  79.758
 51.3976  6334.68  79.1177
 51.4396  6379.21  79.6908
 51.4816  6395.43  79.6564
 51.5236  6436.16  79.9766
 51.5656  6478.52  79.8628
 51.6076  6474.12  79.9145
 51.6496  6469.27  80.0739
 51.6916  6372.27  79.815
 51.7336  6464.92  80.4858
 51.7756  6540.87  80.6569
 51.8176  6437.13  80.1094
 51.8596  6377.5  79.7587
 51.9016  6459.98  79.8942
 51.9436  6378.18  80.8012
 51.9856  6327.7  80.9034
 52.0276  6473.84  80.3717
 52.0696  6414.05  80.0622
 52.1116  6349.23  79.7689
 52.1536  6254.88  79.0148
 52.1956  6453.72  79.791
 52.2376  6515.63  80.3404
 52.2796  6368.2  79.239
 52.3216  6222.85  79.0008
 52.3636  6307.23  79.1231
 52.4056  6279.96  78.8059
 52.4476  6310.88  79.3623
 52.4896  6324.3  79.4992
 52.5316  6396.07  79.9932
 52.5736  6338.83  79.3679
 52.6156  6281.85  79.3741
 52.6576  6337.07  79.1819
 52.6996  6081.76  78.5035
 52.7416  6299.56  79.7517
 52.7836  6394.78  80.2208
 52.8256  6391.91  79.4583
 52.8676  6177.19  78.6732
 52.9096  6281.38  79.4135
 52.9516  6329.8  80.0844
 52.9936  6163  79.4033
 53.0356  6116.19  78.1339
 53.0776  6155.41  78.6607
 53.1196  6109.01  78.4639
 53.1616  6232.38  79.2981
 53.2036  6189.15  78.982
 53.2456  6168.32  78.9433
 53.2876  6168.63  78.6588
 53.3296  6138.53  78.7854
 53.3716  6242.31  79.1965
 53.4136  6200.33  79.0793
 53.4556  6058.11  78.1962
 53.4976  6051.43  78.0043
 53.5396  6194.32  79.3069
 53.5816  6261.88  79.3742
 53.6236  6078.11  78.5282
 53.6656  6196.23  78.9316
 53.7076  6180.01  78.7889
 53.7496  6091.36  78.3365
 53.7916  6100.17  78.5183
 53.8336  6043.25  78.0526
 53.8756  6052.46  78.645
 53.9176  6127.94  78.4978
 53.9596  6162.06  79.468
 54.0016  6112.42  78.4932
 54.0436  6136.73  78.8583
 54.0856  6228.64  78.8836
 54.1276  6120.84  78.3918
 54.1696  6101.41  78.4348
 54.2116  6078.72  78.0526
 54.2536  6159.12  78.3871
 54.2956  6162.63  78.4533
 54.3376  6095.6  78.4922
 54.3796  6102.6  78.4427
 54.4216  6131.95  78.6738
 54.4636  6067.84  78.231
 54.5056  6111.3  78.3294
 54.5476  6071.63  78.4056
 54.5896  6059.69  78.1588
 54.6316  6191.74  78.8677
 54.6736  6065.75  78.0804
 54.7156  5964.24  77.4995
 54.7576  5968.04  77.5242
 54.7996  6080.13  78.3951
 54.8416  6126.48  78.7259
 54.8836  6055.33  78.3805
 54.9256  6077.58  78.2815
 54.9676  6190.65  78.8573
 55.0096  6140  78.6076
 55.0516  6066.63  78.2998
 55.0936  6089.26  78.1455
 55.1356  6047.7  77.9232
 55.1776  6079.94  78.3899
 55.2196  6097.4  78.2898
 55.2616  6096.38  78.4854
 55.3036  5988.21  77.9508
 55.3456  6012.17  78.2517
 55.3876  5985.02  77.8223
 55.4296  6039.51  78.154
 55.4716  6036.81  78.171
 55.5136  6019.85  77.8174
 55.5556  6012.31  77.845
 55.5976  6023.28  77.9663
 55.6396  6050.65  78.0123
 55.6816  6080.3  78.163
 55.7236  6023.54  77.942
 55.7656  6113.47  78.1826
 55.8076  6101.18  78.0831
 55.8496  5996.31  77.8335
 55.8916  6015.02  78.0127
 55.9336  5967.76  77.5636
 55.9756  5976.11  77.5093
 56.0176  6049.22  78.1316
 56.0596  5884.85  77.0446
 56.1016  6011.72  77.9136
 56.1436  5890.34  77.3447
 56.1856  6013.72  77.8996
 56.2276  6070.85  78.3187
 56.2696  6046.56  78.1384
 56.3116  6014.45  78.3263
 56.3536  5994.52  77.8652
 56.3956  6071.08  78.3513
 56.4376  5941.28  77.5405
 56.4796  6111.28  78.4405
 56.5216  6000.51  78.0978
 56.5636  6120.71  78.472
 56.6056  5989.18  77.8494
 56.6476  6036.3  77.7901
 56.6896  5992.68  77.9439
 56.7316  5956.42  77.6168
 56.7736  6016.64  78.0121
 56.8156  5991.81  77.8502
 56.8576  5985.46  77.7524
 56.8996  5955.54  77.4961
 56.9416  5982.37  77.828
 56.9836  5923.62  77.1009
 57.0256  5942.87  77.5448
 57.0676  5985.35  77.9394
 57.1096  5972.69  77.6527
 57.1516  6043.52  78.1383
 57.1936  6036.16  77.8753
 57.2356  5979.91  77.8282
 57.2776  5968.19  77.7104
 57.3196  5992.67  78.2273
 57.3616  5951.3  77.4648
 57.4036  6053.59  78.1804
 57.4456  5920.68  77.291
 57.4876  6001.43  77.6808
 57.5296  5934.25  77.4771
 57.5716  5953.39  77.691
 57.6136  5960.62  77.5585
 57.6556  5969.52  77.7501
 57.6976  5918.3  77.2425
 57.7396  5970.67  77.9583
 57.7816  5837.44  77.4291
 57.8236  5905.65  77.6806
 57.8656  6058.79  78.3381
 57.9076  5925.83  77.5079
 57.9496  5933.39  77.8964
 57.9916  5898.14  77.141
 58.0336  5954.07  77.8283
 58.0756  5965.45  77.4936
 58.1176  5993.94  77.7209
 58.1596  5869.69  77.4646
 58.2016  6018.91  77.6949
 58.2436  5973.3  77.7921
 58.2856  5962.04  77.6393
 58.3276  5877.84  77.4538
 58.3696  5849.18  77.0208
 58.4116  5921.8  77.3603
 58.4536  5973.26  77.5854
 58.4956  5909.42  77.3471
 58.5376  5987.66  77.4343
 58.5796  5992.9  77.8866
 58.6216  5989.67  77.6827
 58.6636  6059.92  78.3534
 58.7056  5932.63  77.3834
 58.7476  5850.84  77.2858
 58.7896  5873.55  77.0854
 58.8316  6035.07  78.1301
 58.8736  6037.23  78.1548
 58.9156  5903.56  77.3294
 58.9576  6106.1  78.8484
 58.9996  6046.06  77.816
 59.0416  6122.72  78.6738
 59.0836  5915.6  77.2636
 59.1256  5951.37  77.8843
 59.1676  5906.88  78.2044
 59.2096  6054.47  78.4831
 59.2516  6224.03  79.1492
 59.2936  6024.2  78.1959
 59.3356  5819.72  76.7373
 59.3776  6052.44  78.4258
 59.4196  6040.7  78.2851
 59.4616  5958.48  77.6119
 59.5036  5923.47  77.4181
 59.5456  6280.94  79.4078
 59.5876  5992.53  77.7535
 59.6296  5949.26  77.541
 59.6716  6055.05  78.2854
 59.7136  6119.12  78.6867
 59.7556  6017.06  78.164
 59.7976  6006.33  77.8371
 59.8396  6028.6  77.8756
 59.8816  5977.78  78.089
 59.9236  5868.88  77.0235
 59.9656  5983.19  78.0295
 60.0076  5942.67  77.1273
 60.0496  6031.48  78.2039
 60.0916  6205.85  78.7375
 60.1336  5990.79  78.464
 60.1756  5823.15  78.5213
 60.1996  0.0000000E+00  0.0000000E+00