File: docs/examples/XRD/IS17_D/Data/IS17_D/17_Db_f00072.xye
# /beamlines/bl04/projects/cycle2025-II/20250340211-lsimonelli/DATA/IS17_D/17_Db_f00072.xye : mythproc.py merge -s 0.006 -l 0.5 -f /beamlines/bl04/inhouse/ff/FlatField/ff_20Nov2024rod8mm60s_17keV.raw -b True -c true -o xye /beamlines/bl04/projects/cycle2025-II/20250340211-lsimonelli/DATA/IS17_D/17_Db_00072.dat
# IsMon = [6778571, 6770871, 6772292]  IsPos = [-1.5000, -2.4884, -3.4989]
# Wave = 0.4962  CalPath /beamlines/bl04/projects/cycle2025-II/20250340211-lsimonelli/DATA/Align/Si_Pos1_25keV_f00001.cal
# Date = 2025-09-24_13:44:26 Dt = 4.8000  Bin = 0.0060  <imon> = 6773911 +/- 3346 (Min/Max) 6770871 / 6778571
# icurr 251.6160  mocoIn 1.7166E-05  mocoOut 0.8054  i15 7.097e+06  imon 6.77391e+06  i7 4.6667  iEMpd_timer 4.8000  iEMpd_1 3.3653E-08  iEMpd_2 7.8058E-08  iEMpd_3 1.5599E-08  iEMpd_4 4.6835E-08  iEMhp_timer 4.8000  iEMhp_1 4.9156E-06  iEMhp_2 -2.5906E-08  iEMhp_3 -2.5371E-08  iEMhp_4 -2.2290E-08
#      9776
 1.5856  42790.1  212.337
 1.6276  49404.1  224.243
 1.6696  55529.8  236.9
 1.7116  62283.6  251.384
 1.7536  70447.4  266.213
 1.7956  74342.9  274.158
 1.8376  71586.3  269.453
 1.8796  61247.5  247.409
 1.9216  50038  224.512
 1.9636  43733.4  209.56
 2.0056  39418.2  197.682
 2.0476  36626.3  192.642
 2.0896  35453.1  188.42
 2.1316  34471.4  184.9
 2.1736  32852.6  181.938
 2.2156  32935  180.704
 2.2576  32383.1  179.828
 2.2996  30985.3  176.548
 2.3416  30973.8  175.106
 2.3836  30756.9  174.6
 2.4256  29638.5  171.954
 2.4676  29756.9  172.053
 2.5096  29585.9  171.614
 2.5516  36036.5  193.789
 2.5936  162581  402.903
 2.6356  30804.4  176.321
 2.6776  27843  166.537
 2.7196  26764.8  163.764
 2.7616  26489.6  162.708
 2.8036  26113.3  161.711
 2.8456  26197.1  162.605
 2.8876  25484.4  160.255
 2.9296  24990.7  158.809
 2.9716  24937.1  158.138
 3.0136  24595.7  157.114
 3.0556  24800  158.147
 3.0976  24630.6  156.527
 3.1396  24201.4  155.884
 3.1816  23938  154.973
 3.2236  23830.1  154.615
 3.2656  23860.6  153.784
 3.3076  23825.8  155.114
 3.3496  23633.1  153.442
 3.3916  24217.7  155.137
 3.4336  24662  157.132
 3.4756  25213.7  158.806
 3.5176  25648.9  159.947
 3.5596  25190.9  161.499
 3.6016  25506.8  159.595
 3.6436  24734.8  158.264
 3.6856  24202.4  154.867
 3.7276  23446.1  153.502
 3.7696  23245.2  152.816
 3.8116  23068.5  152.333
 3.8536  22898.7  151.703
 3.8956  23014.4  151.914
 3.9376  23672.1  154.336
 3.9796  22893.8  151.277
 4.0216  22848.3  150.173
 4.0636  22445.6  150.287
 4.1056  22746  150.945
 4.1476  23053.4  152.248
 4.1896  22999.7  151.948
 4.2316  23221.2  152.502
 4.2736  23675.9  153.791
 4.3156  23901.8  154.763
 4.3576  24486.8  156.539
 4.3996  24748.4  157.661
 4.4416  25530.7  159.707
 4.4836  26748.9  163.643
 4.5256  26703  164.083
 4.5676  26093.5  162.469
 4.6096  26522.8  162.835
 4.6516  27482.6  165.085
 4.6936  27181.8  165.006
 4.7356  28469.4  168.686
 4.7776  27372  165.243
 4.8196  27090  165.01
 4.8616  26399.1  162.411
 4.9036  26548.9  162.581
 4.9456  26610  163.429
 4.9876  25903.7  161.151
 5.0296  25976.7  161.219
 5.0716  25583.8  160.741
 5.1136  25805.3  161.153
 5.1556  26200  161.857
 5.1976  35748.7  189.001
 5.2396  26774.7  163.299
 5.2816  26676.6  163.449
 5.3236  26642.8  163.062
 5.3656  26227.3  162.709
 5.4076  25772.9  161.438
 5.4496  25852.5  161.194
 5.4916  26028.2  161.485
 5.5336  25974.7  161.416
 5.5756  25981.7  161.351
 5.6176  26031.8  160.96
 5.6596  26685.5  163.787
 5.7016  26428.1  162.434
 5.7436  26626.3  162.946
 5.7856  26495.3  162.983
 5.8276  26865.3  163.846
 5.8696  27026.9  164.368
 5.9116  26786.7  164.358
 5.9536  27036  164.842
 5.9956  27369.9  165.278
 6.0376  27477.4  166.214
 6.0796  27435.2  165.921
 6.1216  27451.2  166.175
 6.1636  27877.7  166.51
 6.2056  27719.6  166.722
 6.2476  28192.1  167.797
 6.2896  28286.4  167.966
 6.3316  28163.1  167.745
 6.3736  28331.4  168.163
 6.4156  28264.3  167.899
 6.4576  28673.3  168.681
 6.4996  28535  168.757
 6.5416  28816  169.699
 6.5836  29293.4  171.206
 6.6256  28758.8  169.337
 6.6676  29157.3  170.071
 6.7096  29195.2  171.018
 6.7516  29594.2  171.864
 6.7936  30830.4  174.81
 6.8356  31509.6  176.83
 6.8776  30567.1  174.976
 6.9196  30194.1  174.29
 6.9616  30442.6  174.466
 7.0036  31009  175.728
 7.0456  31228.8  175.652
 7.0876  31305.7  177.443
 7.1296  31057.9  175.987
 7.1716  30876.5  175.004
 7.2136  30648.8  174.146
 7.2556  30863.7  174.918
 7.2976  30926.3  175.58
 7.3396  30748.3  175.297
 7.3816  30880.7  175.885
 7.4236  31260.2  176.261
 7.4656  31175.8  175.484
 7.5076  31696.5  177.093
 7.5496  31283.1  176.476
 7.5916  31511.1  177.161
 7.6336  32513.5  179.919
 7.6756  32029  178.347
 7.7176  32509.5  179.994
 7.7596  32394.9  180.9
 7.8016  39074.6  201.076
 7.8436  32593.4  180.538
 7.8856  32992.4  181.095
 7.9276  33671.5  183.347
 7.9696  33843.6  184.124
 8.0116  34808.9  185.29
 8.0536  35372.7  187.036
 8.0956  37655.1  194.19
 8.1376  35626.9  188.36
 8.1796  35688.6  189.058
 8.2216  36852  190.573
 8.2636  38068.5  194.233
 8.3056  36786.5  191.697
 8.3476  39005.3  196.707
 8.3896  37770.2  193.652
 8.4316  36796.6  191.306
 8.4736  36850.7  190.922
 8.5156  36624  190.602
 8.5576  36534.2  191.331
 8.5996  36391.7  189.848
 8.6416  36350.1  190.989
 8.6836  36310  190.714
 8.7256  37270.3  192.667
 8.7676  39823.9  202.163
 8.8096  41011.1  202.268
 8.8516  37631.7  193.367
 8.8936  39597.5  198.267
 8.9356  36902.6  191.718
 8.9776  36629.5  191.102
 9.0196  36610.9  190.711
 9.0616  36398  189.744
 9.1036  39597.1  199.058
 9.1456  36154.8  189.552
 9.1876  35730.7  188.364
 9.2296  35350  186.817
 9.2716  35251.1  186.583
 9.3136  35127.5  186.248
 9.3556  35497.4  187.203
 9.3976  34450.8  184.912
 9.4396  34353  184.577
 9.4816  34317.9  184.323
 9.5236  34134  183.721
 9.5656  33506.2  182.399
 9.6076  32927  181.35
 9.6496  33359.7  182.401
 9.6916  32952.2  181.262
 9.7336  33469.7  182.464
 9.7756  33113.9  182.607
 9.8176  32761.3  181.281
 9.8596  32871  180.032
 9.9016  32638  179.381
 9.9436  32196.8  177.927
 9.9856  32701.8  179.746
 10.0276  31620.9  177.813
 10.0696  31958.6  177.803
 10.1116  31045.9  175.518
 10.1536  30949.6  174.88
 10.1956  30202.4  172.886
 10.2376  30168.4  172.278
 10.2796  30124.2  172.278
 10.3216  29716.8  171.262
 10.3636  29875.9  171.879
 10.4056  33075.5  181.297
 10.4476  33754.1  182.71
 10.4896  37846.8  192.856
 10.5316  34611.9  184.803
 10.5736  29920.9  172.614
 10.6156  29549.6  171.284
 10.6576  35096.2  185.107
 10.6996  29449.1  170.27
 10.7416  28581  167.956
 10.7836  29191.4  170.44
 10.8256  27255.7  165.132
 10.8676  27397  165.091
 10.9096  27349.4  164.972
 10.9516  27036.4  162.979
 10.9936  27853  165.622
 11.0356  27486.5  165.152
 11.0776  28953.8  168.809
 11.1196  28606  168.588
 11.1616  26453  161.796
 11.2036  27925.2  166.071
 11.2456  29840.7  172.446
 11.2876  26434.6  162.002
 11.3296  26289  161.481
 11.3716  26786.9  162.736
 11.4136  26214.1  161.829
 11.4556  26534.9  162.476
 11.4976  27987.4  165.821
 11.5396  27512.5  164.575
 11.5816  26212.3  161.056
 11.6236  25202.2  158.182
 11.6656  25762.7  159.066
 11.7076  24753.7  156.75
 11.7496  25273.7  161.584
 11.7916  25754.6  159.131
 11.8336  24453  155.958
 11.8756  25028.5  157.324
 11.9176  24459  155.201
 11.9596  24426.1  155.245
 12.0016  24227.8  155.4
 12.0436  23991.1  154.09
 12.0856  23846.3  154.122
 12.1276  23894.6  154.123
 12.1696  23796.9  153.035
 12.2116  24143.1  154.158
 12.2536  27191.2  164.41
 12.2956  24532.3  155.434
 12.3376  24429.9  155.414
 12.3796  23880.9  154.152
 12.4216  24141.2  154.187
 12.4636  25404  159.13
 12.5056  23610.2  152.755
 12.5476  23809.9  152.835
 12.5896  23329.4  151.937
 12.6316  23633  153.048
 12.6736  23331  152.566
 12.7156  24049.7  154.727
 12.7576  23658.5  153.723
 12.7996  23877  153.064
 12.8416  23937.7  154.324
 12.8836  24863  157.117
 12.9256  24495.4  154.967
 12.9676  24114.6  154.17
 13.0096  24241  155.665
 13.0516  23957.5  153.8
 13.0936  24037.9  154.185
 13.1356  24261.8  154.154
 13.1776  24387.5  155.57
 13.2196  24180.2  154.547
 13.2616  23689.1  153.297
 13.3036  24029.3  154.499
 13.3456  23793.7  154.113
 13.3876  24568.6  155.686
 13.4296  24002.8  154.059
 13.4716  24330.5  154.728
 13.5136  24244  154.595
 13.5556  24187.8  154.761
 13.5976  24109  154.946
 13.6396  24552.1  155.732
 13.6816  24501.6  155.89
 13.7236  24729.4  156.339
 13.7656  26508.8  162.309
 13.8076  27915.6  165.205
 13.8496  25868  159.864
 13.8916  24908.8  157.841
 13.9336  23609.5  152.963
 13.9756  23895.9  153.253
 14.0176  23563.8  152.777
 14.0596  24727.1  156.524
 14.1016  23437.2  152.806
 14.1436  23431.1  151.899
 14.1856  23079.2  151.066
 14.2276  23085.9  151.522
 14.2696  23492.4  152.747
 14.3116  22563  149.621
 14.3536  22167.6  148.45
 14.3956  22056.9  147.818
 14.4376  22415  148.791
 14.4796  22135.2  147.859
 14.5216  21951.7  148.035
 14.5636  22536.4  149.549
 14.6056  21930.8  147.09
 14.6476  21708.2  145.592
 14.6896  21306.9  144.781
 14.7316  20892.3  144.387
 14.7736  20752.7  143.066
 14.8156  20615.1  142.598
 14.8576  20502.4  142.067
 14.8996  20595.2  143.594
 14.9416  20092.2  141.829
 14.9836  20028.1  141.598
 15.0256  19443  138.463
 15.0676  19441.5  138.674
 15.1096  19164.2  137.514
 15.1516  18843.1  136.906
 15.1936  18860.8  136.408
 15.2356  18833.8  136.584
 15.2776  18699.5  136.102
 15.3196  18753.4  136.874
 15.3616  18225.4  134.694
 15.4036  18254.1  134.665
 15.4456  18769  136.203
 15.4876  18200.9  133.812
 15.5296  17989.1  133.312
 15.5716  17625.7  131.57
 15.6136  17910.9  132.955
 15.6556  20292.1  141.099
 15.6976  18157.3  133.405
 15.7396  17853.2  132.662
 15.7816  17592  131.209
 15.8236  17134.7  130.119
 15.8656  17253.7  130.422
 15.9076  17171.9  129.938
 15.9496  18710.7  138.469
 15.9916  17315.9  133.642
 16.0336  17593.7  131.543
 16.0756  17556.8  131.749
 16.1176  17099.6  129.942
 16.1596  16839.8  130.272
 16.2016  16845.4  129.072
 16.2436  16707.6  128.907
 16.2856  16807.8  128.815
 16.3276  16208.7  126.931
 16.3696  16517.6  127.96
 16.4116  16341.4  127.702
 16.4536  16256.1  127.192
 16.4956  17478.5  131.6
 16.5376  16796.1  129.206
 16.5796  16473.8  127.328
 16.6216  16206.7  126.553
 16.6636  16386.6  127.452
 16.7056  16138.5  126.339
 16.7476  16283.3  126.424
 16.7896  16351.7  127.446
 16.8316  16081.5  126.367
 16.8736  16760.2  129.252
 16.9156  16385.3  128.138
 16.9576  16018.5  127.494
 16.9996  16106.6  128.3
 17.0416  15954.5  126.108
 17.0836  15927.9  125.757
 17.1256  15866.6  125.525
 17.1676  16620.3  128.43
 17.2096  16060.9  126.142
 17.2516  16212.6  126.817
 17.2936  15477.7  123.972
 17.3356  15273.2  123.122
 17.3776  15203.8  123.043
 17.4196  15310.9  123.187
 17.4616  15663.7  124.49
 17.5036  16064.4  126.458
 17.5456  15087.9  123.166
 17.5876  15023.8  121.977
 17.6296  15160.1  122.325
 17.6716  15204  123.111
 17.7136  16225.6  127.299
 17.7556  14950.2  122.497
 17.7976  15424.5  124.159
 17.8396  15105.3  122.372
 17.8816  14613.4  120.929
 17.9236  14640.8  120.818
 17.9656  14755.1  121.835
 18.0076  15601  124.831
 18.0496  16209.9  126.359
 18.0916  20261.1  141.8
 18.1336  18233.6  134.734
 18.1756  16283  126.839
 18.2176  16165.6  126.612
 18.2596  14802.9  120.889
 18.3016  15376.1  123.472
 18.3436  15844.8  125.344
 18.3856  15135.9  122.825
 18.4276  14635.3  120.278
 18.4696  14739.5  120.79
 18.5116  14945.7  121.9
 18.5536  14517.7  120.525
 18.5956  14617.5  120.491
 18.6376  14781.8  121.576
 18.6796  14438.3  119.46
 18.7216  14426.6  119.909
 18.7636  14361.8  119.63
 18.8056  13877.9  117.529
 18.8476  13768  117.692
 18.8896  13746.7  116.939
 18.9316  13953.2  117.804
 18.9736  13975.3  117.595
 19.0156  14440.2  119.963
 19.0576  14686.1  119.774
 19.0996  14158.8  118.338
 19.1416  14147.6  118.682
 19.1836  13777  116.738
 19.2256  13688.4  116.674
 19.2676  13871.2  117.435
 19.3096  13728.8  117.09
 19.3516  13846.2  117.339
 19.3936  13897.2  117.655
 19.4356  13971  117.833
 19.4776  13790  117.165
 19.5196  13781  116.977
 19.5616  13724.9  117.002
 19.6036  13726.5  116.51
 19.6456  13947.9  117.557
 19.6876  14387.4  119.037
 19.7296  14050.8  118.076
 19.7716  13655.1  116.594
 19.8136  14319.4  119.575
 19.8556  14549.1  120.021
 19.8976  14739  120.852
 19.9396  14584.6  119.806
 19.9816  14425  119.411
 20.0236  15073.6  122.251
 20.0656  13797.6  116.97
 20.1076  13622.8  116.677
 20.1496  13497.8  116.146
 20.1916  13587.5  116.017
 20.2336  13637.6  116.198
 20.2756  13297.3  115.152
 20.3176  13269.5  114.801
 20.3596  13211.6  114.54
 20.4016  13341.5  114.887
 20.4436  13337.1  115.345
 20.4856  13290.6  115.018
 20.5276  13138.5  114.823
 20.5696  13088  114.161
 20.6116  13204  114.835
 20.6536  13105.7  113.901
 20.6956  13084  113.962
 20.7376  12994.2  113.787
 20.7796  12870.1  112.934
 20.8216  13169  113.947
 20.8636  13616  116.238
 20.9056  14324  119.143
 20.9476  13363.1  114.938
 20.9896  14168.9  118.212
 21.0316  13099.9  113.58
 21.0736  13435.4  115.54
 21.1156  13770.5  117.144
 21.1576  13238.8  114.888
 21.1996  12958.6  113.656
 21.2416  12924.3  113.321
 21.2836  12960.8  113.469
 21.3256  13023.2  113.859
 21.3676  12927.7  112.934
 21.4096  13266.3  114.797
 21.4516  12777.4  112.475
 21.4936  12545.5  111.715
 21.5356  12885.2  113.158
 21.5776  13009.5  113.523
 21.6196  12969.2  113.397
 21.6616  12968.2  113.477
 21.7036  12735.1  112.217
 21.7456  12677.3  112.047
 21.7876  12428  110.699
 21.8296  12617.9  111.388
 21.8716  12600.9  111.543
 21.9136  12739  112.355
 21.9556  13039.2  113.347
 21.9976  12645.1  111.648
 22.0396  12514.8  111.322
 22.0816  12667.6  112.529
 22.1236  13078.7  113.795
 22.1656  12830.1  113.205
 22.2076  12382  110.343
 22.2496  12406  110.479
 22.2916  12379.3  110.247
 22.3336  12470.5  111.37
 22.3756  12289.3  110.281
 22.4176  12404.3  110.652
 22.4596  12006.8  109.435
 22.5016  12428.9  110.849
 22.5436  12569.4  111.466
 22.5856  12558.1  111.548
 22.6276  12432.8  111.124
 22.6696  12243.5  110.623
 22.7116  12212  109.997
 22.7536  12239.2  110.098
 22.7956  12421  110.246
 22.8376  12142.1  109.518
 22.8796  12215.7  109.653
 22.9216  12221.9  110.218
 22.9636  12199.9  109.282
 23.0056  12422.7  110.412
 23.0476  12437.8  111.046
 23.0896  12556.4  110.955
 23.1316  12470.8  111.007
 23.1736  12455  113.851
 23.2156  12519.6  111.531
 23.2576  12580.5  111.913
 23.2996  12297.8  110.448
 23.3416  12562.3  112.137
 23.3836  12556.9  111.348
 23.4256  12684.6  112.03
 23.4676  12708.8  111.828
 23.5096  12598  112.014
 23.5516  12346.7  110.189
 23.5936  12643.1  112.418
 23.6356  12706.7  112.357
 23.6776  12428.2  111.349
 23.7196  12357.1  110.799
 23.7616  12449.4  110.936
 23.8036  12443.1  110.937
 23.8456  12441.8  110.354
 23.8876  12317.1  110.293
 23.9296  12099.3  109.802
 23.9716  12327.5  110.039
 24.0136  12473.4  111.595
 24.0556  12124.8  109.744
 24.0976  12090.7  109.4
 24.1396  11914  111.197
 24.1816  12245.3  111.142
 24.2236  12118.3  110.198
 24.2656  12148.1  109.799
 24.3076  12147  110.071
 24.3496  12319.1  110.737
 24.3916  12288.2  110.634
 24.4336  12184.1  110.37
 24.4756  11989.7  109.374
 24.5176  11885.3  108.518
 24.5596  11934.9  109.055
 24.6016  11678.6  107.99
 24.6436  12062.3  109.244
 24.6856  11859.1  108.077
 24.7276  11786  108.075
 24.7696  11684.6  107.71
 24.8116  11781.9  108.353
 24.8536  11775  108.309
 24.8956  11694.5  107.667
 24.9376  11686.4  107.8
 24.9796  11669.9  107.846
 25.0216  11532.2  107.312
 25.0636  11670.2  107.616
 25.1056  11326.3  106.714
 25.1476  11277.1  108.145
 25.1896  11261.6  106.564
 25.2316  11332.4  106.174
 25.2736  11242.8  105.41
 25.3156  11170.6  105.12
 25.3576  10998.2  104.745
 25.3996  11243.3  105.894
 25.4416  11156.6  105.462
 25.4836  11006.4  105.262
 25.5256  11108.9  105.121
 25.5676  11073  104.689
 25.6096  11022.5  105.008
 25.6516  11063.2  104.717
 25.6936  10984.5  104.648
 25.7356  10944.7  104.598
 25.7776  11133.9  105.177
 25.8196  11046.9  104.925
 25.8616  11050.8  104.877
 25.9036  11337.8  105.677
 25.9456  10899.1  104.205
 25.9876  10901.3  104.125
 26.0296  10961.9  104.093
 26.0716  11028.1  104.818
 26.1136  11163.5  105.399
 26.1556  11153.5  104.733
 26.1976  10835  104.153
 26.2396  10996.8  104.079
 26.2816  10860.9  104.038
 26.3236  11004.7  104.89
 26.3656  11097.2  105.035
 26.4076  10872.8  104.183
 26.4496  10879.2  103.795
 26.4916  11016.6  104.354
 26.5336  11355.1  106.375
 26.5756  11633.2  107.464
 26.6176  11170.4  105.332
 26.6596  10761.6  103.675
 26.7016  10606  102.698
 26.7436  10770.2  103.611
 26.7856  10430.1  101.956
 26.8276  10588.9  102.698
 26.8696  10555  102.399
 26.9116  10518  102.171
 26.9536  10364.3  101.457
 26.9956  10413.3  101.739
 27.0376  10465.8  102.201
 27.0796  10515.3  102.189
 27.1216  10700.1  103.114
 27.1636  10318.5  101.446
 27.2056  10424.1  101.845
 27.2476  10547.2  102.44
 27.2896  10265.5  101.184
 27.3316  10298  101.048
 27.3736  10135.9  100.538
 27.4156  10338.6  101.357
 27.4576  10412  101.943
 27.4996  10501.9  101.981
 27.5416  10285.4  101.241
 27.5836  10230.6  100.807
 27.6256  10201.5  100.84
 27.6676  10250.4  101.084
 27.7096  10338.1  101.385
 27.7516  10863.8  103.995
 27.7936  10932.3  104.55
 27.8356  10847.1  103.753
 27.8776  10731.2  103.254
 27.9196  10468.9  101.851
 27.9616  10496.9  102.191
 28.0036  10411.4  101.726
 28.0456  10140.1  100.541
 28.0876  10070.1  100.273
 28.1296  10152.8  100.513
 28.1716  10360.5  101.55
 28.2136  10106.7  100.28
 28.2556  10098.8  100.342
 28.2976  10111.4  100.408
 28.3396  10132.6  100.27
 28.3816  10115  100.191
 28.4236  10156.1  100.559
 28.4656  9878.7  99.2083
 28.5076  9749.68  98.2083
 28.5496  9842.35  98.913
 28.5916  9975.53  99.4038
 28.6336  9886.23  99.2872
 28.6756  10026.7  99.191
 28.7176  9820.86  98.7264
 28.7596  9674.33  97.8769
 28.8016  9742.82  98.2661
 28.8436  9679.83  98.1804
 28.8856  9797.47  98.6292
 28.9276  9791.6  98.8443
 28.9696  9593.05  97.4994
 29.0116  9597.94  97.7056
 29.0536  9700.87  98.4382
 29.0956  9781.49  98.5371
 29.1376  9772.19  98.4697
 29.1796  9781.52  98.5635
 29.2216  9612.02  97.553
 29.2636  9692.54  98.026
 29.3056  9561.92  97.1545
 29.3476  9609.1  97.9073
 29.3896  9663.99  98.313
 29.4316  9765.1  98.1648
 29.4736  9393.85  96.3472
 29.5156  9459.17  96.6069
 29.5576  9405.71  97.0624
 29.5996  9499.47  96.8069
 29.6416  9431  96.5756
 29.6836  9470.49  96.7077
 29.7256  9401.06  96.9102
 29.7676  9520.16  97.1813
 29.8096  9339.54  96.2029
 29.8516  9214.92  95.8835
 29.8936  9273.79  96.2824
 29.9356  9328.09  96.3228
 29.9776  9288.5  96.2684
 30.0196  9417.67  96.3286
 30.0616  9504.73  97.1465
 30.1036  9370.86  96.2871
 30.1456  9160.84  95.4295
 30.1876  9303.26  96.1499
 30.2296  9220.45  95.6656
 30.2716  9375.81  96.1102
 30.3136  9225.13  96.1814
 30.3556  9547.3  97.8265
 30.3976  9460.88  98.8927
 30.4396  9862.52  98.2521
 30.4816  9705.82  97.0773
 30.5236  9695.48  97.0198
 30.5656  9474.55  96.5751
 30.6076  9482.89  96.3915
 30.6496  9465.6  96.3549
 30.6916  9400.57  96.1233
 30.7336  9397.04  96.2227
 30.7756  9360.37  96.1303
 30.8176  9302.3  95.7528
 30.8596  9431.48  96.1757
 30.9016  9424.48  96.0044
 30.9436  9418.69  96.2
 30.9856  9450.96  96.4872
 31.0276  9291.64  95.3099
 31.0696  9306.29  95.9365
 31.1116  9267.2  95.7117
 31.1536  9267.98  95.6075
 31.1956  9507.85  96.8962
 31.2376  9107.99  94.8841
 31.2796  9278.55  95.287
 31.3216  9331.92  95.4797
 31.3636  9289.54  95.9852
 31.4056  9354.35  97.6487
 31.4476  9359.83  95.5642
 31.4896  9263.65  95.5719
 31.5316  9401.65  95.6879
 31.5736  10116  99.0741
 31.6156  9924.67  98.1354
 31.6576  9689.23  97.0453
 31.6996  9572.85  96.1153
 31.7416  9498.12  96.6982
 31.7836  9335.74  95.017
 31.8256  9363.09  95.4154
 31.8676  9521.5  96.2213
 31.9096  9149.46  94.5473
 31.9516  9206.01  95.143
 31.9936  9118.89  94.5233
 32.0356  9083.99  94.3994
 32.0776  9274.16  95.2544
 32.1196  9394.85  95.8956
 32.1616  9258.77  94.7414
 32.2036  9232.06  95.1048
 32.2456  9255.57  95.6224
 32.2876  9274.29  95.2148
 32.3296  8976.91  93.6343
 32.3716  9047.3  94.1285
 32.4136  8951.3  93.8334
 32.4556  9119.05  94.0836
 32.4976  9099.62  93.9241
 32.5396  9020.88  93.5559
 32.5816  8936.58  93.2264
 32.6236  9018.97  93.7274
 32.6656  9024.18  94.3004
 32.7076  8865.44  93.1245
 32.7496  8939.22  93.1841
 32.7916  8990.54  93.4102
 32.8336  8936.69  93.2321
 32.8756  9040.95  93.4873
 32.9176  8998.65  93.7542
 32.9596  8964.99  93.6441
 33.0016  8945.01  93.3261
 33.0436  8994.96  93.481
 33.0856  8871.31  93.2045
 33.1276  8831.59  92.726
 33.1696  8914.7  92.9931
 33.2116  8963.81  93.4865
 33.2536  8933.38  93.2997
 33.2956  8866.29  93.0413
 33.3376  8773.51  92.3871
 33.3796  8977.48  93.5902
 33.4216  8812.15  92.3082
 33.4636  8833.95  92.5793
 33.5056  8676.18  91.9969
 33.5476  8850.32  92.8851
 33.5896  8780.31  92.3229
 33.6316  8711.4  92.2438
 33.6736  8628.15  92.0668
 33.7156  8575.42  91.5495
 33.7576  8705.38  92.1501
 33.7996  8909.02  92.9849
 33.8416  8757.26  92.3738
 33.8836  8670.34  91.8303
 33.9256  8882.17  92.8478
 33.9676  8727.45  91.9467
 34.0096  8633.6  91.7465
 34.0516  8541.94  90.909
 34.0936  8540.23  91.0846
 34.1356  8709.38  91.8135
 34.1776  8518.4  90.8048
 34.2196  8427.76  90.4836
 34.2616  8511.54  91.0845
 34.3036  8636.24  91.983
 34.3456  8650.91  91.8111
 34.3876  8683.24  92.0567
 34.4296  8674.55  91.6101
 34.4716  8603.44  91.3419
 34.5136  8547.81  91.2793
 34.5556  8459.09  91.0663
 34.5976  8710.12  92.2343
 34.6396  8556.46  91.1055
 34.6816  8732.56  92.1404
 34.7236  8627.91  91.3689
 34.7656  8594.17  91.4012
 34.8076  8384.77  90.6069
 34.8496  8487.45  91.0165
 34.8916  8582.85  91.3889
 34.9336  8585.63  91.3851
 34.9756  8787.09  92.3763
 35.0176  8574.4  91.7662
 35.0596  8579.46  91.6088
 35.1016  8605.83  91.5124
 35.1436  8746.02  91.9353
 35.1856  8503.68  90.7783
 35.2276  8497.82  90.9267
 35.2696  8575.28  91.5312
 35.3116  8475.66  91.0944
 35.3536  8579.22  91.3676
 35.3956  8399.71  90.112
 35.4376  8585.99  91.6703
 35.4796  8417.07  90.8016
 35.5216  8443.72  90.9109
 35.5636  8304.68  90.9022
 35.6056  8432.23  90.6226
 35.6476  8418.42  90.442
 35.6896  8469.37  90.8128
 35.7316  8331.27  90.04
 35.7736  8347.6  90.3038
 35.8156  8467.86  90.9535
 35.8576  8446.89  91.0918
 35.8996  8495.91  91.3232
 35.9416  8367.84  90.1271
 35.9836  8331.64  90.4142
 36.0256  8465.66  91.0263
 36.0676  8537.36  91.1784
 36.1096  8352.2  90.321
 36.1516  8551.05  91.2737
 36.1936  8500.96  90.8475
 36.2356  8392.47  90.9248
 36.2776  8518.01  91.0548
 36.3196  8456.49  90.4128
 36.3616  8364.46  89.9974
 36.4036  8236.14  89.4259
 36.4456  8484.59  90.9686
 36.4876  8213.99  89.4506
 36.5296  8268.31  89.782
 36.5716  8316.11  90.5882
 36.6136  8372.25  89.9147
 36.6556  8379.11  90.1552
 36.6976  8158.12  89.4566
 36.7396  8144.68  89.1149
 36.7816  8058.28  89.0121
 36.8236  8175.67  89.5823
 36.8656  8108.49  89.2764
 36.9076  8078.7  89
 36.9496  8121.72  89.2228
 36.9916  8000.59  88.1843
 37.0336  8095.61  89.0179
 37.0756  8093.62  88.807
 37.1176  7920.22  88.1155
 37.1596  8070.75  88.9563
 37.2016  8014.91  88.8701
 37.2436  8108.42  88.7092
 37.2856  8004.9  88.3944
 37.3276  8027.58  88.0419
 37.3696  7902.58  88.0602
 37.4116  8075.39  88.9224
 37.4536  7876.9  87.6932
 37.4956  7772.31  87.3542
 37.5376  8094.24  90.5021
 37.5796  8105.39  90.4953
 37.6216  8031.87  88.3502
 37.6636  8058.33  88.365
 37.7056  8195.54  89.3298
 37.7476  8247.76  89.1417
 37.7896  7935.73  87.9555
 37.8316  7999.59  88.4465
 37.8736  8075.88  88.4107
 37.9156  8040.05  88.2054
 37.9576  7938.43  87.5554
 37.9996  7975.17  87.4724
 38.0416  8130.85  89.1317
 38.0836  8097.07  88.8494
 38.1256  8152.93  89.1288
 38.1676  7940.13  88.0797
 38.2096  8301.74  89.6647
 38.2516  8050.1  88.5243
 38.2936  8223.16  89.2534
 38.3356  8064.51  88.3318
 38.3776  8069.42  88.5974
 38.4196  8038.09  88.2909
 38.4616  8104.25  88.8967
 38.5036  8114.61  88.7969
 38.5456  7998.31  88.9988
 38.5876  7835.74  88.1093
 38.6296  8006.42  88.0342
 38.6716  8108.4  88.3862
 38.7136  7890.91  87.1447
 38.7556  7830.78  87.3092
 38.7976  8089.55  88.6532
 38.8396  7913.26  88.1578
 38.8816  7846.18  87.5777
 38.9236  7794.44  87.0855
 38.9656  7919.06  87.6894
 39.0076  8000.33  87.5391
 39.0496  8069.53  88.4688
 39.0916  8010.04  87.7957
 39.1336  8034.73  88.335
 39.1756  7900.37  87.6494
 39.2176  7833.07  87.829
 39.2596  7902.95  88.1368
 39.3016  7844.72  87.3967
 39.3436  7794.39  87.5277
 39.3856  7938.43  87.7783
 39.4276  8028.69  88.7731
 39.4696  8022.16  88.3646
 39.5116  8023.7  88.8809
 39.5536  8027.04  89.3465
 39.5956  7953.23  88.03
 39.6376  7966.61  88.1136
 39.6796  7962.81  87.8326
 39.7216  7972.74  87.983
 39.7636  7938.92  88.3436
 39.8056  7979.11  88.3614
 39.8476  7830.42  87.7882
 39.8896  7943.44  88.0468
 39.9316  7849.98  87.7808
 39.9736  7976.52  88.0664
 40.0156  7899.95  87.4687
 40.0576  7947.13  88.0885
 40.0996  8069.21  87.9246
 40.1416  7988.78  88.2906
 40.1836  7982.6  88.14
 40.2256  7941.3  87.9524
 40.2676  7801.25  87.3487
 40.3096  7851.73  87.489
 40.3516  8016.4  88.5083
 40.3936  8056.73  88.2934
 40.4356  7910.11  87.6883
 40.4776  8036.17  88.6161
 40.5196  8007  88.7562
 40.5616  8044.64  88.5921
 40.6036  7867.42  87.8824
 40.6456  7943.48  87.9125
 40.6876  8044.64  88.4582
 40.7296  7938.47  88.0148
 40.7716  7891.93  87.8667
 40.8136  7880.16  87.7548
 40.8556  8000.2  88.5395
 40.8976  7929.1  88.0644
 40.9396  7927.39  88.4057
 40.9816  7960.26  87.8873
 41.0236  7901.04  87.3489
 41.0656  8060.61  88.7616
 41.1076  7901.99  87.664
 41.1496  8052.75  88.3967
 41.1916  7877.42  87.7414
 41.2336  8031.96  88.5877
 41.2756  7964.26  87.8312
 41.3176  7936.23  88.2688
 41.3596  7979.05  88.258
 41.4016  7886.5  88.0064
 41.4436  7954.15  88.1673
 41.4856  7891.66  87.9918
 41.5276  7985.88  88.519
 41.5696  7920  87.7879
 41.6116  7965  88.4161
 41.6536  7842.59  87.6026
 41.6956  7977.13  88.3248
 41.7376  8048.3  88.8319
 41.7796  7770.55  87.1725
 41.8216  7951.74  88.4146
 41.8636  7944.9  88.3274
 41.9056  7846.86  87.5678
 41.9476  7940.84  88.3233
 41.9896  7927.4  87.9086
 42.0316  8017.98  88.4999
 42.0736  8005.44  88.5578
 42.1156  7956.53  88.1039
 42.1576  7959.61  88.2326
 42.1996  7883.56  87.9229
 42.2416  8064.81  88.4383
 42.2836  7908.28  87.7723
 42.3256  7901.93  87.8457
 42.3676  7949.25  87.9055
 42.4096  7934.5  87.8001
 42.4516  7896.33  87.7155
 42.4936  7891.22  87.7065
 42.5356  7850.9  87.6342
 42.5776  7952.15  88.1244
 42.6196  7863.75  87.696
 42.6616  7707.32  86.9866
 42.7036  7905.24  87.4749
 42.7456  7959.3  88.1154
 42.7876  7780.31  87.2186
 42.8296  7906.65  87.7683
 42.8716  7805.83  87.3753
 42.9136  7730.86  86.7092
 42.9556  7771.71  87.1026
 42.9976  7877.66  87.6605
 43.0396  7857.41  87.2767
 43.0816  7725.29  86.9226
 43.1236  7812.68  87.4643
 43.1656  7762.86  87.0057
 43.2076  7745.28  87.0148
 43.2496  7862.48  87.4955
 43.2916  7757.12  87.27
 43.3336  7880.99  87.7899
 43.3756  7762.68  86.8904
 43.4176  7705.13  86.6455
 43.4596  7739.79  86.6955
 43.5016  7776.06  87.308
 43.5436  7680.52  86.6714
 43.5856  7606.52  86.2833
 43.6276  7663.02  86.4936
 43.6696  7693.52  86.8742
 43.7116  7829.33  87.176
 43.7536  7831.02  87.6845
 43.7956  7563.8  87.3847
 43.8376  7530.04  85.7396
 43.8796  7577.95  86.0897
 43.9216  7718.52  86.8023
 43.9636  7617.56  86.3425
 44.0056  7524.72  86.0435
 44.0476  7466.75  85.4634
 44.0896  7495.19  85.8481
 44.1316  7617.96  86.0724
 44.1736  7567.27  85.912
 44.2156  7535.6  85.5862
 44.2576  7511.85  85.7729
 44.2996  7625.31  86.3884
 44.3416  7568.83  85.8282
 44.3836  7449.95  85.4772
 44.4256  7435.71  85.0432
 44.4676  7459.24  85.3341
 44.5096  7516.81  85.8046
 44.5516  7391.64  85.0561
 44.5936  7406.61  85.0939
 44.6356  7554.41  85.6759
 44.6776  7491.81  85.6394
 44.7196  7479.91  85.8742
 44.7616  7559.2  87.6448
 44.8036  7551.28  86.2117
 44.8456  7574.19  86.3452
 44.8876  7691.83  86.952
 44.9296  7771.18  86.7289
 44.9716  7659.63  86.5469
 45.0136  7608.42  86.2013
 45.0556  7569.47  86.0665
 45.0976  7613.25  86.3584
 45.1396  7583.3  85.9545
 45.1816  7543.84  85.6689
 45.2236  7595.29  85.8608
 45.2656  7567.65  86.2154
 45.3076  7563.38  85.9545
 45.3496  7495.5  85.8819
 45.3916  7493.72  86.1423
 45.4336  7685.64  87.0715
 45.4756  7560.06  86.2198
 45.5176  7649.12  86.3308
 45.5596  7619.57  86.2942
 45.6016  7637.58  86.8192
 45.6436  7509.81  85.2534
 45.6856  7506.44  85.8983
 45.7276  7331.53  86.2086
 45.7696  7462.71  86.6601
 45.8116  7477.86  86.1779
 45.8536  7465.55  85.9925
 45.8956  7528.9  85.7025
 45.9376  7491.43  84.9585
 45.9796  7559.55  86.0328
 46.0216  7579.53  86.4864
 46.0636  7638.9  85.9509
 46.1056  7529.84  85.3366
 46.1476  7514.31  85.8388
 46.1896  7499.94  85.9001
 46.2316  7567.49  86.1602
 46.2736  7602.96  86.5619
 46.3156  7539.17  85.9599
 46.3576  7488.28  85.874
 46.3996  7483.39  86.0009
 46.4416  7633.79  86.4252
 46.4836  7448.32  85.7378
 46.5256  7466.88  85.7831
 46.5676  7502.37  86.1004
 46.6096  7445.73  85.688
 46.6516  7551.66  85.3485
 46.6936  7488.8  85.4852
 46.7356  7636.35  86.4028
 46.7776  7351.63  85.7175
 46.8196  7430.43  85.8564
 46.8616  7318.58  85.0043
 46.9036  7392.63  85.0946
 46.9456  7361.8  84.5522
 46.9876  7443.81  85.1054
 47.0296  7467.66  85.849
 47.0716  7469.35  85.7696
 47.1136  7421.12  85.1529
 47.1556  7411.2  84.981
 47.1976  7365.73  84.8717
 47.2396  7447.57  85.6684
 47.2816  7313.14  84.599
 47.3236  7376.57  85.3303
 47.3656  7406.63  85.4437
 47.4076  7503.09  85.7072
 47.4496  7361.98  85.0734
 47.4916  7407.83  85.5315
 47.5336  7514.46  85.9553
 47.5756  7454.71  85.7387
 47.6176  7393.12  85.2729
 47.6596  7379.82  84.913
 47.7016  7500.38  85.4164
 47.7436  7470.38  85.5921
 47.7856  7500.63  85.7748
 47.8276  7338.95  84.9023
 47.8696  7422.9  85.4755
 47.9116  7481.69  85.5237
 47.9536  7347.84  84.6988
 47.9956  7349.8  85.423
 48.0376  7298.42  84.8973
 48.0796  7369.01  85.4322
 48.1216  7380.64  85.3262
 48.1636  7486.32  85.487
 48.2056  7400.76  85.2708
 48.2476  7397.3  85.5443
 48.2896  7451.33  85.7792
 48.3316  7447.41  85.7015
 48.3736  7405.45  85.484
 48.4156  7409.06  85.4658
 48.4576  7474.59  86.0323
 48.4996  7491.11  85.5783
 48.5416  7510.06  86.0037
 48.5836  7415.93  85.1422
 48.6256  7440.62  85.4824
 48.6676  7321.76  85.3275
 48.7096  7417.98  85.1481
 48.7516  7484.2  85.6716
 48.7936  7267.35  84.5904
 48.8356  7407.12  85.347
 48.8776  7334.29  85.5016
 48.9196  7519  85.9246
 48.9616  7373.55  85.4847
 49.0036  7367.24  85.7903
 49.0456  7383.11  85.8674
 49.0876  7377.29  85.362
 49.1296  7325.9  85.233
 49.1716  7203  84.6152
 49.2136  7431.48  85.6297
 49.2556  7386.37  85.4094
 49.2976  7403.67  85.572
 49.3396  7326.01  85.1824
 49.3816  7335.83  84.8174
 49.4236  7284.43  84.7971
 49.4656  7234.74  84.5296
 49.5076  7422.62  85.3594
 49.5496  7286.99  84.6479
 49.5916  7277.6  84.5006
 49.6336  7288.49  84.7719
 49.6756  7330.47  85.2461
 49.7176  7310.08  85.0736
 49.7596  7343.65  85.0305
 49.8016  7385.23  85.1866
 49.8436  7297.27  84.9899
 49.8856  7373.13  85.4271
 49.9276  7266.72  84.9149
 49.9696  7278.06  84.9619
 50.0116  7346.2  85.4981
 50.0536  7362.8  85.5285
 50.0956  7327.74  85.4033
 50.1376  7342.69  85.1721
 50.1796  7275.05  85.0625
 50.2216  7257.79  84.9503
 50.2636  7260.04  84.5804
 50.3056  7183.59  84.3145
 50.3476  7302.52  85.0275
 50.3896  7183.79  84.3066
 50.4316  7214.88  84.3169
 50.4736  7142.66  84.119
 50.5156  7237.56  84.6704
 50.5576  7259.4  84.5455
 50.5996  7242.23  84.7368
 50.6416  7160  84.1754
 50.6836  7284.62  84.9667
 50.7256  7310.62  85.0307
 50.7676  7354.8  85.6153
 50.8096  7198.67  84.2421
 50.8516  7136.47  84.3024
 50.8936  7074.03  83.7155
 50.9356  7235.37  84.7672
 50.9776  7114.69  84.2182
 51.0196  7044.14  83.9441
 51.0616  7157.42  83.9239
 51.1036  7172.47  84.3793
 51.1456  7101.03  83.8693
 51.1876  7151.13  83.4913
 51.2296  7063.52  83.6235
 51.2716  6971.66  82.7802
 51.3136  7056.04  83.7485
 51.3556  6993.72  82.9867
 51.3976  6980.65  83.0707
 51.4396  6844.62  82.5678
 51.4816  7031.88  83.5386
 51.5236  7002.47  83.4534
 51.5656  7021.48  83.157
 51.6076  7046.83  83.3916
 51.6496  6958.44  83.0595
 51.6916  6979.35  83.5491
 51.7336  6961.01  83.5314
 51.7756  7001.93  83.4628
 51.8176  6934.83  83.178
 51.8596  7009.06  83.6366
 51.9016  7064.68  83.5662
 51.9436  7043.82  84.9445
 51.9856  7060.73  85.436
 52.0276  7090.5  84.1012
 52.0696  7092.91  84.1741
 52.1116  7007.39  83.798
 52.1536  7038.68  83.8099
 52.1956  6987.07  83.0223
 52.2376  7201.84  84.4446
 52.2796  7118.82  83.7801
 52.3216  6927.11  83.3354
 52.3636  6893  82.6985
 52.4056  6930.79  82.7845
 52.4476  6970.91  83.3879
 52.4896  6952.11  83.3358
 52.5316  7051.42  83.9678
 52.5736  6869.96  82.6124
 52.6156  7063.31  84.1586
 52.6576  6996.6  83.1929
 52.6996  6858.14  83.3619
 52.7416  6923.88  83.6859
 52.7836  6965.35  83.7496
 52.8256  7009.34  83.2099
 52.8676  6771.02  82.3599
 52.9096  7046.11  84.0803
 52.9516  6944.03  83.8817
 52.9936  6953.79  84.3263
 53.0356  6963.97  83.3569
 53.0776  6989.3  83.7904
 53.1196  6932.97  83.5726
 53.1616  6930.11  83.6126
 53.2036  6843.96  83.0496
 53.2456  6988.95  84.033
 53.2876  6786.17  82.4973
 53.3296  6952.46  83.8292
 53.3716  7071.39  84.2713
 53.4136  7079.71  84.4945
 53.4556  6989.63  83.9836
 53.4976  6941.57  83.5186
 53.5396  6885.74  83.6105
 53.5816  6946.7  83.5975
 53.6236  6792.57  83.0202
 53.6656  6990.98  83.8159
 53.7076  6909.63  83.2922
 53.7496  6914.21  83.4393
 53.7916  6964.25  83.8851
 53.8336  6977.94  83.8451
 53.8756  6745.23  83.0073
 53.9176  6865.29  83.0821
 53.9596  6663.06  82.609
 54.0016  6698.61  82.1515
 54.0436  6538.9  81.3862
 54.0856  6644.33  81.4598
 54.1276  6727.99  82.1718
 54.1696  6746.62  82.4544
 54.2116  6883.06  83.0226
 54.2536  6680.45  81.6095
 54.2956  6690.98  81.7202
 54.3376  6606.61  81.6839
 54.3796  6614.46  81.6332
 54.4216  6598.57  81.4289
 54.4636  6651.4  81.8929
 54.5056  6662.94  81.756
 54.5476  6566.53  81.517
 54.5896  6541.65  81.2063
 54.6316  6671.9  81.8286
 54.6736  6669.18  81.9119
 54.7156  6676.59  81.9862
 54.7576  6483.01  80.765
 54.7996  6717.83  82.3866
 54.8416  6510.09  81.1474
 54.8836  6547.5  81.4658
 54.9256  6519.11  81.048
 54.9676  6441.05  80.4367
 55.0096  6560.46  81.2121
 55.0516  6440.31  80.6857
 55.0936  6533.93  80.9417
 55.1356  6478.97  80.6395
 55.1776  6621.09  81.7564
 55.2196  6554.52  81.1385
 55.2616  6637.01  81.8724
 55.3036  6449.6  80.8766
 55.3456  6347.23  80.3821
 55.3876  6544.28  81.3249
 55.4296  6356.94  80.1678
 55.4716  6479.12  80.9552
 55.5136  6598.06  81.4627
 55.5556  6596.86  81.4965
 55.5976  6427.36  80.5327
 55.6396  6493.01  80.793
 55.6816  6455.04  80.5238
 55.7236  6385.49  80.1461
 55.7656  6495.7  80.539
 55.8076  6364.98  79.7506
 55.8496  6510.81  81.0551
 55.8916  6398  80.4662
 55.9336  6544.24  81.2032
 55.9756  6461.35  80.5666
 56.0176  6440.01  80.5669
 56.0596  6487.11  80.8654
 56.1016  6293.21  79.6656
 56.1436  6381.72  80.4774
 56.1856  6337.57  79.9591
 56.2276  6490.9  80.9401
 56.2696  6447.21  80.6749
 56.3116  6491.91  81.3295
 56.3536  6356.67  80.1653
 56.3956  6360.21  80.1507
 56.4376  6283.92  79.7227
 56.4796  6262.33  79.4043
 56.5216  6384.23  80.543
 56.5636  6258.12  79.3276
 56.6056  6437.89  80.6736
 56.6476  6324.05  79.5692
 56.6896  6510.47  81.2006
 56.7316  6250.89  79.4827
 56.7736  6301.65  79.7908
 56.8156  6271.31  79.6417
 56.8576  6237.34  79.3687
 56.8996  6317.83  79.7726
 56.9416  6281.91  79.8736
 56.9836  6360.24  79.8666
 57.0256  6232.4  79.3849
 57.0676  6423  80.7094
 57.1096  6398.09  80.3332
 57.1516  6225.37  79.3122
 57.1936  6342.83  79.8044
 57.2356  6216.21  79.3313
 57.2776  6264.73  79.5916
 57.3196  6318.16  80.2788
 57.3616  6301.39  79.6879
 57.4036  6290.49  79.6786
 57.4456  6345.42  79.9852
 57.4876  6273.73  79.3998
 57.5296  6232.91  79.4671
 57.5716  6218.21  79.3858
 57.6136  6188.71  79.0294
 57.6556  6304.33  79.8975
 57.6976  6213.59  79.1334
 57.7396  6168.19  79.2124
 57.7816  6026.59  78.6609
 57.8236  6062.49  78.722
 57.8656  6229.35  79.424
 57.9076  6259.51  79.6185
 57.9496  6236.02  79.8516
 57.9916  6218.45  79.2416
 58.0336  6147.14  79.0763
 58.0756  6152  78.7116
 58.1176  6178.8  78.8908
 58.1596  6129.92  79.1713
 58.2016  6008.9  77.6275
 58.2436  5949.99  77.643
 58.2856  5930.65  77.4477
 58.3276  5954.4  77.9651
 58.3696  5932.19  77.5827
 58.4116  5925.44  77.4003
 58.4536  5976.7  77.6219
 58.4956  5872.69  77.1229
 58.5376  6075.93  78.0172
 58.5796  5971.47  77.7546
 58.6216  5955.82  77.4831
 58.6636  5964.23  77.7435
 58.7056  6037.88  78.0813
 58.7476  5941.29  77.8884
 58.7896  5947.77  77.585
 58.8316  5947.27  77.576
 58.8736  6014.54  78.0233
 58.9156  5944.52  77.6132
 58.9576  5922.07  77.7788
 58.9996  6040.03  77.806
 59.0416  6044.45  78.1955
 59.0836  5962.54  77.5795
 59.1256  5923.17  78.0196
 59.1676  5969.69  78.6264
 59.2096  5976.48  77.9866
 59.2516  6110.44  78.4343
 59.2936  5889.85  77.3295
 59.3356  5866.77  77.0574
 59.3776  5910.38  77.5105
 59.4196  5888.3  77.3026
 59.4616  5876.98  77.0898
 59.5036  5901.84  77.2873
 59.5456  6007.67  77.6716
 59.5876  6004.07  77.8389
 59.6296  5854.88  76.9339
 59.6716  5915.38  77.3877
 59.7136  5880.58  77.1482
 59.7556  5890.64  77.349
 59.7976  5747.17  76.1497
 59.8396  5797.57  76.3792
 59.8816  5881.95  77.4717
 59.9236  5913.02  77.3231
 59.9656  5798.09  76.8229
 60.0076  5924.3  77.0184
 60.0496  5793.7  76.1891
 60.0916  5964.24  77.2001
 60.1336  5892.17  77.8261
 60.1756  5732.16  77.916
 60.1996  5974.28  81.7692