File: docs/examples/XRD/IS17_D/Data/IS17_D/17_Da_f00033.xye
# /beamlines/bl04/projects/cycle2025-II/20250340211-lsimonelli/DATA/IS17_D/17_Da_f00033.xye : mythproc.py merge -s 0.006 -l 0.5 -f /beamlines/bl04/inhouse/ff/FlatField/ff_20Nov2024rod8mm60s_17keV.raw -b True -c true -o xye /beamlines/bl04/projects/cycle2025-II/20250340211-lsimonelli/DATA/IS17_D/17_Da_00033.dat
# IsMon = [6769591, 6771207, 6772283]  IsPos = [-1.5000, -2.4885, -3.4986]
# Wave = 0.4962  CalPath /beamlines/bl04/projects/cycle2025-II/20250340211-lsimonelli/DATA/Align/Si_Pos1_25keV_f00001.cal
# Date = 2025-09-24_02:46:02 Dt = 4.8000  Bin = 0.0060  <imon> = 6771027 +/- 1106 (Min/Max) 6769591 / 6772283
# icurr 251.2089  mocoIn 1.7141E-05  mocoOut 0.8042  i15 7.08829e+06  imon 6.77103e+06  i7 6.6667  iEMpd_timer 4.8000  iEMpd_1 3.5312E-08  iEMpd_2 7.8308E-08  iEMpd_3 1.6802E-08  iEMpd_4 4.8009E-08  iEMhp_timer 4.8000  iEMhp_1 4.9090E-06  iEMhp_2 -2.6292E-08  iEMhp_3 -2.3824E-08  iEMhp_4 -2.1552E-08
#      9776
 1.5856  40472.2  206.599
 1.6276  47974.5  221.074
 1.6696  54206  234.165
 1.7116  63067.6  253.075
 1.7536  72150.2  269.533
 1.7956  76831.9  278.834
 1.8376  73240.3  272.671
 1.8796  61382.6  247.793
 1.9216  49238.7  222.812
 1.9636  41534.2  204.315
 2.0056  37031.9  191.691
 2.0476  34395.3  186.767
 2.0896  32972.7  181.791
 2.1316  31789.4  177.641
 2.1736  30501.3  175.385
 2.2156  31032.1  175.485
 2.2576  29799.3  172.58
 2.2996  28789.4  170.254
 2.3416  29010.8  169.543
 2.3836  28385.5  167.809
 2.4256  27760.6  166.493
 2.4676  27123.1  164.336
 2.5096  27167.6  164.525
 2.5516  26363.2  165.802
 2.5936  26122  161.724
 2.6356  25728  161.176
 2.6776  25904.5  160.621
 2.7196  25402.8  159.577
 2.7616  25373.5  159.264
 2.8036  24728.7  157.395
 2.8456  24840.2  158.352
 2.8876  24434.7  156.911
 2.9296  24188.2  156.266
 2.9716  23793.6  154.489
 3.0136  23543.2  153.74
 3.0556  23625.7  154.396
 3.0976  23554.3  153.113
 3.1396  23466.7  153.532
 3.1816  23192.8  152.577
 3.2236  23097.4  152.259
 3.2656  23000.8  150.989
 3.3076  22757.5  151.62
 3.3496  23107.6  151.977
 3.3916  23422.2  152.592
 3.4336  24055.9  155.217
 3.4756  24372  156.161
 3.5176  25181.8  158.526
 3.5596  25042.7  161.044
 3.6016  25195.2  158.621
 3.6436  24408.8  157.213
 3.6856  24101.4  154.538
 3.7276  22914.5  151.751
 3.7696  22873.8  151.608
 3.8116  22401.1  150.12
 3.8536  22656  150.905
 3.8956  22552.7  150.391
 3.9376  22477.8  150.424
 3.9796  22386.3  149.597
 4.0216  22489.3  148.984
 4.0636  22385.8  150.106
 4.1056  22417.2  149.851
 4.1476  22622.3  150.851
 4.1896  22725.7  151.055
 4.2316  23094.5  152.102
 4.2736  23507.9  153.248
 4.3156  23580.5  153.71
 4.3576  24442.6  156.421
 4.3996  24724.2  157.376
 4.4416  25145.1  158.5
 4.4836  25614.7  160.124
 4.5256  25987.1  161.893
 4.5676  26059.3  162.369
 4.6096  26557.7  162.934
 4.6516  27013.9  163.683
 4.6936  27028.5  164.529
 4.7356  27252.6  165.042
 4.7776  27258.8  164.891
 4.8196  26932.8  164.548
 4.8616  26592.5  163.126
 4.9036  26220.8  161.599
 4.9456  26257.9  162.355
 4.9876  25534.5  160.007
 5.0296  25941.8  161.093
 5.0716  25895.1  161.579
 5.1136  25777.3  161.066
 5.1556  26407.9  162.49
 5.1976  26541.2  162.897
 5.2396  26664  162.971
 5.2816  26848.1  163.994
 5.3236  26720.8  163.31
 5.3656  26325.3  163.007
 5.4076  26113.2  162.504
 5.4496  26275.1  162.491
 5.4916  26453.3  162.803
 5.5336  26279.8  162.271
 5.5756  26178.6  161.993
 5.6176  26412.9  162.148
 5.6596  26556.8  163.41
 5.7016  26680.7  163.213
 5.7436  26808  163.873
 5.7856  26654.3  163.462
 5.8276  27118  164.599
 5.8696  27159.3  164.788
 5.9116  27067.2  165.183
 5.9536  27360.1  165.861
 5.9956  27544.7  165.793
 6.0376  27705.2  166.905
 6.0796  27949.5  167.468
 6.1216  28002.3  167.828
 6.1636  27911.8  166.632
 6.2056  28174.9  168.077
 6.2476  28298.2  168.143
 6.2896  28608  168.918
 6.3316  28303.3  168.194
 6.3736  28446.5  168.511
 6.4156  28457.6  168.496
 6.4576  28715.9  168.813
 6.4996  28982.5  170.069
 6.5416  28775  169.598
 6.5836  29057.7  170.655
 6.6256  29114.5  170.39
 6.6676  29650.9  171.521
 6.7096  29384.5  171.594
 6.7516  29869.9  172.664
 6.7936  29997.3  172.214
 6.8356  30145.3  172.967
 6.8776  30299.1  174.2
 6.9196  30440.7  175.003
 6.9616  30938.1  175.848
 7.0036  31165  176.171
 7.0456  31021.9  175.073
 7.0876  31093.4  176.868
 7.1296  31036.2  175.93
 7.1716  30882.8  175.035
 7.2136  30780.4  174.534
 7.2556  30960.4  175.203
 7.2976  30999.9  175.808
 7.3396  30691.2  175.137
 7.3816  30852.7  175.811
 7.4236  31155.4  175.971
 7.4656  31166.5  175.492
 7.5076  31428  176.362
 7.5496  31500.9  177.096
 7.5916  31567.9  177.316
 7.6336  31739.5  177.695
 7.6756  31770  177.633
 7.7176  32190.5  179.11
 7.7596  32126.5  180.169
 7.8016  32541.2  183.481
 7.8436  32868.4  181.108
 7.8856  33371.2  182.106
 7.9276  33725.8  183.453
 7.9696  33994.2  184.496
 8.0116  34796.2  185.576
 8.0536  35242.8  186.648
 8.0956  34779.9  186.582
 8.1376  35251.6  187.322
 8.1796  35475.2  188.45
 8.2216  36302.8  189.385
 8.2636  36693.7  190.651
 8.3056  36361.6  190.547
 8.3476  36778.7  190.974
 8.3896  36700.3  191.288
 8.4316  36557.8  190.641
 8.4736  37149.8  191.651
 8.5156  36838.3  191.119
 8.5576  36404.8  190.955
 8.5996  36322.9  189.623
 8.6416  36097.4  190.283
 8.6836  35841.1  189.43
 8.7256  36581.5  190.836
 8.7676  35764.9  191.545
 8.8096  35748.6  188.853
 8.8516  35462.4  187.776
 8.8936  35189.9  186.884
 8.9356  34912.8  186.499
 8.9776  35220.3  187.416
 9.0196  34952.3  186.37
 9.0616  35292.4  186.759
 9.1036  34759.6  186.51
 9.1456  34589.5  185.414
 9.1876  34799.3  185.933
 9.2296  34475  184.469
 9.2716  34047.1  183.396
 9.3136  34149.2  183.646
 9.3556  34479.8  184.528
 9.3976  32898.5  180.762
 9.4396  33566.4  182.475
 9.4816  32612.6  179.733
 9.5236  32910.7  180.464
 9.5656  32826.4  180.545
 9.6076  32302.3  179.618
 9.6496  32241.1  179.374
 9.6916  32216.4  179.275
 9.7336  32599.2  180.122
 9.7756  32526.1  181.108
 9.8176  31828.3  178.715
 9.8596  31799.3  177.11
 9.9016  31200.9  175.43
 9.9436  31298.9  175.454
 9.9856  30695.5  174.134
 10.0276  30188.6  173.767
 10.0696  30817.5  174.631
 10.1116  29630.9  171.489
 10.1536  29352.8  170.368
 10.1956  29280.3  170.242
 10.2376  28745  168.2
 10.2796  28994.3  169.051
 10.3216  29165.8  169.667
 10.3636  28828.7  168.855
 10.4056  28355  167.857
 10.4476  28499.4  167.915
 10.4896  28621.8  167.739
 10.5316  28011.3  166.31
 10.5736  27867.9  166.611
 10.6156  27524  165.346
 10.6576  27614.3  164.214
 10.6996  27279.6  163.868
 10.7416  27089.1  163.527
 10.7836  27253.8  164.698
 10.8256  26798.8  163.74
 10.8676  26804.8  163.299
 10.9096  26320.4  161.859
 10.9516  26136.2  160.241
 10.9936  26331.7  161.034
 11.0356  25889.5  160.299
 11.0776  25926.6  159.741
 11.1196  25443.8  158.973
 11.1616  25364.8  158.424
 11.2036  25229.9  157.862
 11.2456  25182.1  158.396
 11.2876  25067.3  157.771
 11.3296  24833.5  156.938
 11.3716  25414.6  158.495
 11.4136  25054  158.205
 11.4556  25495.7  159.267
 11.4976  25593.2  158.567
 11.5396  25834.9  159.477
 11.5816  25954.3  160.292
 11.6236  25851.2  160.419
 11.6656  25140.5  157.16
 11.7076  24757.9  156.778
 11.7496  24400.6  159.482
 11.7916  24375.4  154.839
 11.8336  24033.5  154.639
 11.8756  23861.1  153.605
 11.9176  24125.9  154.358
 11.9596  23789.1  153.224
 12.0016  23690.9  153.682
 12.0436  23788.3  153.429
 12.0856  23478.8  152.946
 12.1276  23488.3  152.894
 12.1696  23663.8  152.611
 12.2116  23736  152.839
 12.2536  23037.4  151.358
 12.2956  23399  151.912
 12.3376  23122.7  151.221
 12.3796  23366.9  152.46
 12.4216  23267.6  151.375
 12.4636  22989.4  151.355
 12.5056  23287.8  151.632
 12.5476  23346.5  151.355
 12.5896  23470.2  152.377
 12.6316  22965.5  150.884
 12.6736  23121.9  151.722
 12.7156  22922.3  151.083
 12.7576  23152.9  152.084
 12.7996  23196.6  150.892
 12.8416  23003.1  151.293
 12.8836  23462.1  152.6
 12.9256  23753  152.588
 12.9676  23742.7  152.978
 13.0096  23518.8  153.343
 13.0516  23680.9  152.915
 13.0936  23643.5  152.912
 13.1356  24191.5  153.949
 13.1776  23958.8  154.184
 13.2196  23617.1  152.747
 13.2616  23812.9  153.681
 13.3036  23793.8  153.758
 13.3456  23763.3  153.641
 13.3876  23861.8  153.468
 13.4296  23713.9  153.136
 13.4716  23861.3  153.218
 13.5136  23876.9  153.437
 13.5556  23707.8  153.481
 13.5976  24050.4  154.728
 13.6396  23993.6  153.921
 13.6816  23256.2  151.901
 13.7236  24139.8  154.538
 13.7656  23507.3  153.022
 13.8076  23911.4  153.132
 13.8496  23511.8  152.617
 13.8916  23351.3  152.899
 13.9336  23546.2  152.772
 13.9756  23297.3  151.323
 14.0176  23368.4  152.225
 14.0596  23393.1  152.27
 14.1016  23054.1  151.551
 14.1436  22735.3  149.658
 14.1856  22621.8  149.567
 14.2276  22112.7  148.345
 14.2696  22637.3  149.935
 14.3116  22298.1  148.711
 14.3536  22081.4  148.167
 14.3956  21966  147.508
 14.4376  21994.7  147.389
 14.4796  21843.9  146.879
 14.5216  21641.1  146.979
 14.5636  21537.3  146.195
 14.6056  21682.2  146.268
 14.6476  21511.3  144.936
 14.6896  21226.9  144.503
 14.7316  20929  144.5
 14.7736  20937.3  143.685
 14.8156  20608.4  142.585
 14.8576  20542.3  142.215
 14.8996  20141.4  142.005
 14.9416  19794  140.767
 14.9836  19935.4  141.23
 15.0256  19752.6  139.527
 15.0676  19663.5  139.524
 15.1096  19618.2  139.104
 15.1516  19285.5  138.471
 15.1936  19185.6  137.546
 15.2356  19069  137.402
 15.2776  18770.4  135.912
 15.3196  18626.7  136.381
 15.3616  18548.1  135.852
 15.4036  18370.1  135.057
 15.4456  18823.6  136.141
 15.4876  18453.7  134.706
 15.5296  18146.2  133.864
 15.5716  17903.4  132.57
 15.6136  17913.5  132.93
 15.6556  18170.6  133.127
 15.6976  18002  132.583
 15.7396  17762.8  132.295
 15.7816  17647.6  131.38
 15.8236  17428.1  131.251
 15.8656  17281.7  130.495
 15.9076  17130.3  129.753
 15.9496  17142.1  132.562
 15.9916  16953.6  132.246
 16.0336  16780.9  128.529
 16.0756  16609.2  128.167
 16.1176  16747.6  128.614
 16.1596  16401.4  128.586
 16.2016  16626.8  128.22
 16.2436  16413  127.787
 16.2856  16316.1  126.958
 16.3276  16034.1  126.267
 16.3696  16423  127.609
 16.4116  15972.5  126.305
 16.4536  16258.7  127.205
 16.4956  15966.7  125.812
 16.5376  15887.3  125.679
 16.5796  15788.5  124.659
 16.6216  16035.9  125.932
 16.6636  15995.7  125.921
 16.7056  15877.4  125.329
 16.7476  15796.5  124.685
 16.7896  15646.5  124.685
 16.8316  15922.4  125.752
 16.8736  15740.2  125.287
 16.9156  15848.2  126.04
 16.9576  15654.9  126.058
 16.9996  15768.3  126.989
 17.0416  15727.5  125.209
 17.0836  15630.8  124.586
 17.1256  15626.2  124.582
 17.1676  15634.7  124.609
 17.2096  15395.5  123.531
 17.2516  15453.1  123.837
 17.2936  15327.7  123.362
 17.3356  14883.1  121.567
 17.3776  14803.4  121.42
 17.4196  15025.5  122.031
 17.4616  14779.2  120.95
 17.5036  14669.2  120.853
 17.5456  14669.3  121.485
 17.5876  14579.8  120.177
 17.6296  14593.4  120.042
 17.6716  14386.7  119.752
 17.7136  14368  119.825
 17.7556  14332.8  119.961
 17.7976  14254.5  119.25
 17.8396  14123.4  118.344
 17.8816  14319.9  119.686
 17.9236  14121.1  118.681
 17.9656  14352.4  120.334
 18.0076  14166.5  118.976
 18.0496  14297.3  118.676
 18.0916  14211.7  118.848
 18.1336  14205.4  118.921
 18.1756  14414.5  119.324
 18.2176  14082.5  118.165
 18.2596  14122.4  118.075
 18.3016  14285.6  119.008
 18.3436  14410.5  119.76
 18.3856  13935.2  117.675
 18.4276  14114.1  118.096
 18.4696  13914.1  117.358
 18.5116  14153.2  118.652
 18.5536  14161.6  119.036
 18.5956  13742.9  116.828
 18.6376  13779.2  117.381
 18.6796  13672.4  116.267
 18.7216  13870.9  117.657
 18.7636  13686  116.788
 18.8056  13655.1  116.597
 18.8476  13563.5  116.521
 18.8896  13534.8  116.044
 18.9316  13757.6  116.815
 18.9736  13672  116.317
 19.0156  13708  116.85
 19.0576  13596  115.282
 19.0996  13707.7  116.454
 19.1416  13399.4  115.518
 19.1836  13557.5  115.803
 19.2256  13457.3  115.583
 19.2676  13546  116.059
 19.3096  13559.3  116.352
 19.3516  13483.7  115.819
 19.3936  13588.4  116.399
 19.4356  13542.4  116.023
 19.4776  13517.9  116.005
 19.5196  13544  115.973
 19.5616  13338.1  115.338
 19.6036  13337.2  114.701
 19.6456  13590.2  116.048
 19.6876  13646.8  115.938
 19.7296  13515.9  115.828
 19.7716  13503.8  115.794
 19.8136  13595.9  116.541
 19.8556  13823.6  116.985
 19.8976  13929  117.502
 19.9396  13830.3  116.67
 19.9816  13907.3  117.223
 20.0236  13984.1  117.769
 20.0656  14251.8  118.884
 20.1076  14185.5  119.073
 20.1496  14047.3  118.499
 20.1916  14123  118.289
 20.2336  13680.8  116.393
 20.2756  13582  116.4
 20.3176  13378.2  115.273
 20.3596  13429.4  115.472
 20.4016  13373.5  115.037
 20.4436  13318.1  115.361
 20.4856  13079  114.11
 20.5276  13066.6  114.502
 20.5696  12916.3  113.413
 20.6116  12944  113.704
 20.6536  12908.1  113.12
 20.6956  12998.7  113.586
 20.7376  12938.1  113.543
 20.7796  12954.4  113.312
 20.8216  12936.2  112.941
 20.8636  12737.4  112.432
 20.9056  12693.7  112.189
 20.9476  12637.8  111.783
 20.9896  12841.5  112.547
 21.0316  12945.2  112.894
 21.0736  12689.4  112.283
 21.1156  12672.1  112.368
 21.1576  12882.6  113.349
 21.1996  12663.2  112.359
 21.2416  12497.3  111.455
 21.2836  12807.5  112.788
 21.3256  12577.9  111.858
 21.3676  12802.8  112.411
 21.4096  12513.5  111.49
 21.4516  12506.7  111.287
 21.4936  12477.7  111.398
 21.5356  12565.5  111.745
 21.5776  12576.6  111.63
 21.6196  12453.6  111.116
 21.6616  12291.6  110.476
 21.7036  12338.4  110.474
 21.7456  12528.6  111.395
 21.7876  12460.7  110.845
 21.8296  12341.4  110.174
 21.8716  12280.9  110.128
 21.9136  12606.2  111.774
 21.9556  12339  110.263
 21.9976  12191.7  109.621
 22.0396  12178.2  109.809
 22.0816  12251.6  110.67
 22.1236  12403  110.814
 22.1656  12313.4  110.588
 22.2076  12575.9  111.178
 22.2496  12325.9  110.097
 22.2916  12492.5  110.716
 22.3336  12196.4  110.091
 22.3756  12292.6  110.271
 22.4176  12332.8  110.306
 22.4596  12076.4  109.731
 22.5016  12317.9  110.326
 22.5436  12430.3  110.708
 22.5856  12273.2  110.249
 22.6276  12180  109.966
 22.6696  12146.6  110.157
 22.7116  12278.7  110.275
 22.7536  12462.2  111.071
 22.7956  12136.1  108.955
 22.8376  12164.6  109.595
 22.8796  12319.9  110.093
 22.9216  12272.5  110.422
 22.9636  12373.1  110.033
 23.0056  12198.1  109.383
 23.0476  12366.2  110.702
 23.0896  12505.9  110.706
 23.1316  12437.9  110.837
 23.1736  12216.5  112.759
 23.2156  12514.2  111.419
 23.2576  12242.1  110.414
 23.2996  12286.7  110.405
 23.3416  12191.4  110.49
 23.3836  12282.4  110.115
 23.4256  12316.3  110.41
 23.4676  12280.1  109.948
 23.5096  12154.4  110.047
 23.5516  12285.5  109.933
 23.5936  12185.9  110.373
 23.6356  12396.2  110.99
 23.6776  12020.5  109.833
 23.7196  12086.9  109.605
 23.7616  12352.1  110.495
 23.8036  12294.2  110.292
 23.8456  12086.3  108.923
 23.8876  11947.9  108.646
 23.9296  12015.2  109.43
 23.9716  11994.8  108.55
 24.0136  11985.1  109.382
 24.0556  11934.5  108.896
 24.0976  11884.1  108.479
 24.1396  11813.8  110.759
 24.1816  11946.2  110.147
 24.2236  11764.9  108.601
 24.2656  11644.5  107.524
 24.3076  11609.8  107.606
 24.3496  11695.9  107.9
 24.3916  11651.8  107.748
 24.4336  11612.6  107.771
 24.4756  11603.4  107.596
 24.5176  11381.7  106.223
 24.5596  11296.2  106.139
 24.6016  11353.2  106.493
 24.6436  11416.5  106.284
 24.6856  11161.2  104.863
 24.7276  11384.2  106.218
 24.7696  11329.8  106.07
 24.8116  11212.2  105.696
 24.8536  11111.6  105.223
 24.8956  11058.1  104.705
 24.9376  11061.2  104.901
 24.9796  11061.6  105.017
 25.0216  10837  104.054
 25.0636  11012.3  104.544
 25.1056  10906.9  104.464
 25.1476  11050.1  107.067
 25.1896  10973.5  105.191
 25.2316  10965.8  104.324
 25.2736  11005.6  104.291
 25.3156  10993.7  104.307
 25.3576  10909.5  104.324
 25.3996  10820.6  103.882
 25.4416  10806.6  103.79
 25.4836  10594.3  103.282
 25.5256  10644.7  102.903
 25.5676  10754.4  103.168
 25.6096  10584.9  102.911
 25.6516  10829.3  103.6
 25.6936  10627.4  102.94
 25.7356  10701  103.428
 25.7776  10675.8  102.985
 25.8196  10644.8  103
 25.8616  10656.1  102.975
 25.9036  10678.7  102.564
 25.9456  10648.4  103.004
 25.9876  10516.4  102.292
 26.0296  10745.8  103.141
 26.0716  10559  102.57
 26.1136  10578.3  102.605
 26.1556  10742.7  102.699
 26.1976  10532.5  102.688
 26.2396  10621  102.523
 26.2816  10526.4  102.422
 26.3236  10595.2  102.836
 26.3656  10535.4  102.356
 26.4076  10674.5  103.236
 26.4496  10993.9  104.297
 26.4916  10685.4  102.797
 26.5336  10574.2  102.575
 26.5756  11020.7  104.56
 26.6176  10527.6  102.261
 26.6596  10504.5  102.456
 26.7016  10495.1  102.21
 26.7436  10321.5  101.451
 26.7856  10288.9  101.271
 26.8276  10375.7  101.656
 26.8696  10295.3  101.131
 26.9116  10207.7  100.644
 26.9536  10267.1  100.986
 26.9956  10265.7  101.007
 27.0376  10174.4  100.773
 27.0796  10265.4  100.997
 27.1216  10123.3  100.33
 27.1636  10110.2  100.426
 27.2056  10115  100.336
 27.2476  10125.6  100.386
 27.2896  10143.9  100.516
 27.3316  10064.2  99.9103
 27.3736  10066.8  100.181
 27.4156  9989.03  99.6463
 27.4576  10039.7  100.125
 27.4996  10030.2  99.6776
 27.5416  9965.83  99.6657
 27.5836  10035  99.8338
 27.6256  10176.9  100.713
 27.6676  10250.8  101.085
 27.7096  9964.51  99.529
 27.7516  9948.49  99.5918
 27.7936  9893.04  99.4906
 27.8356  9998.87  99.6452
 27.8776  9886.67  99.1284
 27.9196  9764.14  98.3655
 27.9616  9880.19  99.1384
 28.0036  9815.23  98.7899
 28.0456  9820.33  98.9388
 28.0876  9645.51  98.1451
 28.1296  9828.46  98.9127
 28.1716  9710.12  98.3255
 28.2136  9787.69  98.6754
 28.2556  9560.23  97.6395
 28.2976  9692.6  98.301
 28.3396  9688.72  98.087
 28.3816  9822.11  98.7411
 28.4236  9741.58  98.4885
 28.4656  9584.78  97.7266
 28.5076  9628.59  97.5811
 28.5496  9634.61  97.8802
 28.5916  9736.18  98.2062
 28.6336  9590.58  97.8037
 28.6756  9585.05  96.9933
 28.7176  9656.53  97.8918
 28.7596  9458.67  96.7847
 28.8016  9626.42  97.7559
 28.8436  9456.32  97.04
 28.8856  9504.07  97.1422
 28.9276  9510.45  97.4134
 28.9696  9483.53  96.9475
 29.0116  9384.39  96.6039
 29.0536  9403.1  96.9036
 29.0956  9503.25  97.1473
 29.1376  9466.23  96.9206
 29.1796  9420.55  96.7344
 29.2216  9541.92  97.1963
 29.2636  9513.09  97.0451
 29.3056  9502.35  96.862
 29.3476  9388.04  96.7895
 29.3896  9471.26  97.3131
 29.4316  9548.69  97.0537
 29.4736  9487.28  96.8023
 29.5156  9604.15  97.3176
 29.5576  9435.68  97.1961
 29.5996  9451.56  96.5428
 29.6416  9241.98  95.5735
 29.6836  9463.82  96.6468
 29.7256  9360.93  96.6822
 29.7676  9369.76  96.3871
 29.8096  9329.11  96.1273
 29.8516  9234.02  95.9639
 29.8936  9372.62  96.7719
 29.9356  9253.22  95.9136
 29.9776  9246.24  96.0264
 30.0196  9245.02  95.4188
 30.0616  9393.17  96.5532
 30.1036  9281.29  95.8061
 30.1456  9349.07  96.4067
 30.1876  9199.88  95.5923
 30.2296  9186.34  95.4666
 30.2716  9377.38  96.0966
 30.3136  9151.46  95.5148
 30.3556  9169.82  95.8829
 30.3976  9252.24  97.8016
 30.4396  9255.35  95.2121
 30.4816  9298.77  95.0384
 30.5236  9145.62  94.267
 30.5656  9043.16  94.3754
 30.6076  9179.31  94.8619
 30.6496  9214.27  95.0791
 30.6916  9079.26  94.4707
 30.7336  9062.28  94.5338
 30.7756  9141.91  95.2508
 30.8176  9082.06  94.6451
 30.8596  9150.92  94.7664
 30.9016  9123.73  94.5075
 30.9436  9179.92  95.0171
 30.9856  9177.4  95.1165
 31.0276  8963.31  93.619
 31.0696  8883.64  93.6266
 31.1116  9066.95  94.6978
 31.1536  9147.16  94.9993
 31.1956  8848.68  93.5227
 31.2376  8876.74  93.6776
 31.2796  8990.44  93.8229
 31.3216  9077.07  94.2208
 31.3636  8985.16  94.419
 31.4056  9147.8  96.5835
 31.4476  9130.77  94.3943
 31.4896  9026.36  94.3505
 31.5316  8952.08  93.4137
 31.5736  9113.15  94.0155
 31.6156  9036.68  93.6546
 31.6576  8970.53  93.4102
 31.6996  9065.84  93.5795
 31.7416  8898.59  93.6208
 31.7836  8983.88  93.2309
 31.8256  8810.43  92.6667
 31.8676  9080.75  93.998
 31.9096  8958.77  93.5702
 31.9516  8816.25  93.1213
 31.9936  8930.86  93.5519
 32.0356  8863.66  93.2657
 32.0776  8958.38  93.6507
 32.1196  8833.19  93.0024
 32.1616  8996.67  93.4041
 32.2036  8786.54  92.8071
 32.2456  8764.03  93.0608
 32.2876  8856.18  92.8844
 32.3296  8649.62  91.9283
 32.3716  8701.52  92.2967
 32.4136  8820.97  93.148
 32.4556  8847.94  92.7288
 32.4976  8784.9  92.295
 32.5396  8704.42  91.9009
 32.5816  8739.08  92.0942
 32.6236  8869.03  92.9579
 32.6656  8787.72  93.0574
 32.7076  8629.41  91.8775
 32.7496  8708.7  91.9747
 32.7916  8743.4  92.1197
 32.8336  8785.19  92.4296
 32.8756  8622.23  91.3882
 32.9176  8654.95  91.946
 32.9596  8631.57  91.8927
 33.0016  8671.18  91.9035
 33.0436  8734.8  92.4093
 33.0856  8633.79  91.9441
 33.1276  8598.48  91.4839
 33.1696  8716.95  91.9557
 33.2116  8701.78  92.1094
 33.2536  8716.68  92.1882
 33.2956  8607.3  91.6891
 33.3376  8570.93  91.2974
 33.3796  8733.82  92.3073
 33.4216  8690.41  91.6857
 33.4636  8710.28  91.9252
 33.5056  8567.91  91.251
 33.5476  8486.51  90.9685
 33.5896  8700.24  91.8466
 33.6316  8512.83  91.1962
 33.6736  8460.14  91.1512
 33.7156  8423.22  91.0016
 33.7576  8666.15  91.9262
 33.7996  8623.74  91.4835
 33.8416  8389.07  90.4028
 33.8836  8514.65  90.8512
 33.9256  8543.49  91.0777
 33.9676  8504.92  90.7632
 34.0096  8403.84  90.5331
 34.0516  8505.75  90.726
 34.0936  8462.69  90.7604
 34.1356  8412.2  90.2325
 34.1776  8454.2  90.4612
 34.2196  8396.87  90.3313
 34.2616  8432.02  90.7186
 34.3036  8361.17  90.5242
 34.3456  8328.27  90.1039
 34.3876  8564.88  91.4273
 34.4296  8393.69  90.1094
 34.4716  8432.58  90.4668
 34.5136  8361.37  90.2889
 34.5556  8264.64  90.0101
 34.5976  8344.89  90.2853
 34.6396  8325.93  89.872
 34.6816  8296.27  89.8188
 34.7236  8362.6  89.9671
 34.7656  8458.76  90.6752
 34.8076  8251.46  89.8739
 34.8496  8364.57  90.3428
 34.8916  8363.07  90.2142
 34.9336  8394.62  90.3444
 34.9756  8545.38  91.0781
 35.0176  8339.9  90.488
 35.0596  8202.24  89.5778
 35.1016  8345.69  90.1261
 35.1436  8427.22  90.2558
 35.1856  8227.55  89.303
 35.2276  8302.26  89.8765
 35.2696  8292.54  90.0182
 35.3116  8307.42  90.186
 35.3536  8203.76  89.3749
 35.3956  8217.91  89.1275
 35.4376  8218.71  89.6797
 35.4796  8286.48  90.1126
 35.5216  8133.22  89.1612
 35.5636  7974.05  89.0789
 35.6056  8254.87  89.662
 35.6476  8242.54  89.4944
 35.6896  8320.05  90.0784
 35.7316  8151.18  89.0562
 35.7736  8212.51  89.5863
 35.8156  8101.19  88.9783
 35.8576  8117.75  89.3058
 35.8996  8353.63  90.5654
 35.9416  8100.33  88.6908
 35.9836  8035.08  88.7729
 36.0256  8258.63  89.9252
 36.0676  8286.72  89.6224
 36.1096  7984.41  88.322
 36.1516  8119.8  88.9496
 36.1936  8149.91  88.9695
 36.2356  8132.85  89.5088
 36.2776  8123.09  88.9362
 36.3196  8172.85  88.8852
 36.3616  8104.29  88.6512
 36.4036  8013.61  88.2018
 36.4456  8136.44  89.0865
 36.4876  7970.82  88.115
 36.5296  8093.89  88.8367
 36.5716  8079.28  89.5171
 36.6136  8266.78  89.3302
 36.6556  8140.01  88.8432
 36.6976  8123.75  89.2477
 36.7396  8115.86  89.0287
 36.7816  7971.93  88.5136
 36.8236  8049.36  88.8686
 36.8656  7937.76  88.3195
 36.9076  7816.47  87.6462
 36.9496  8117.42  89.3315
 36.9916  7995.86  88.1437
 37.0336  8131.71  89.2019
 37.0756  8168.78  89.1982
 37.1176  7924.74  88.2111
 37.1596  8020.06  88.6526
 37.2016  7818.25  87.7046
 37.2436  8049.5  88.3609
 37.2856  8045.71  88.6004
 37.3276  8166.11  88.6089
 37.3696  7889.89  87.9685
 37.4116  7984.62  88.3946
 37.4536  7971.42  88.1984
 37.4956  7897.72  87.8344
 37.5376  8000.7  89.9359
 37.5796  7776.02  88.633
 37.6216  7805.71  87.0971
 37.6636  7801.23  86.9809
 37.7056  7817.25  87.2521
 37.7476  7756.22  86.4648
 37.7896  7888.66  87.6803
 37.8316  7603.25  86.2586
 37.8736  7946.61  87.7096
 37.9156  7745.77  86.5939
 37.9576  7803.08  86.9571
 37.9996  7749.7  86.2362
 38.0416  7693.67  86.715
 38.0836  7924.08  87.9072
 38.1256  7829.68  87.3379
 38.1676  7687.35  86.6774
 38.2096  7802.43  86.9546
 38.2516  7934.14  87.7857
 38.2936  7803.61  86.9655
 38.3356  7882.74  87.3281
 38.3776  7643.07  86.2506
 38.4196  7712.09  86.4925
 38.4616  7764.44  87.0207
 38.5036  7870.66  87.4601
 38.5456  7662.94  87.1145
 38.5876  7756.98  87.6827
 38.6296  7650.03  86.0719
 38.6716  7621.06  85.7087
 38.7136  7614.03  85.6123
 38.7556  7627.2  86.1745
 38.7976  7687.27  86.4568
 38.8396  7741.41  87.2086
 38.8816  7639.57  86.4189
 38.9236  7564.34  85.807
 38.9656  7659.73  86.2585
 39.0076  7721.72  86.0254
 39.0496  7647.07  86.1393
 39.0916  7796.26  86.612
 39.1336  7696.79  86.4781
 39.1756  7656.55  86.3141
 39.2176  7764.34  87.4494
 39.2596  7647.49  86.7101
 39.3016  7678.22  86.4537
 39.3436  7586.55  86.3628
 39.3856  7731.32  86.6391
 39.4276  7660.73  86.7333
 39.4696  7588.73  85.9526
 39.5116  7581.34  86.4162
 39.5536  7764.34  87.8734
 39.5956  7793.68  87.1433
 39.6376  7739.78  86.6828
 39.6796  7684.57  86.2816
 39.7216  7673.64  86.3162
 39.7636  7714.86  87.1022
 39.8056  7719.88  86.9156
 39.8476  7571.88  86.3334
 39.8896  7626.74  86.2744
 39.9316  7656.2  86.6959
 39.9736  7688.04  86.4552
 40.0156  7692.99  86.2989
 40.0576  7711.33  86.765
 40.0996  7770.99  86.2946
 40.1416  7746.17  86.9403
 40.1836  7813.54  87.2052
 40.2256  7716.63  86.7107
 40.2676  7710.09  86.8406
 40.3096  7859.84  87.5421
 40.3516  7760.6  87.1733
 40.3936  7825.47  87.0216
 40.4356  7731.31  86.6862
 40.4776  7725.84  86.901
 40.5196  7709.5  87.0922
 40.5616  7858.29  87.5768
 40.6036  7739.63  87.1631
 40.6456  7741.59  86.7859
 40.6876  7871.51  87.4922
 40.7296  7799.98  87.239
 40.7716  7804.49  87.3837
 40.8136  7699.1  86.7392
 40.8556  7695.76  86.8565
 40.8976  7838.38  87.5772
 40.9396  7701.21  87.1532
 40.9816  7749.53  86.7198
 41.0236  7838.32  86.9947
 41.0656  7850.34  87.6003
 41.1076  7834.39  87.2838
 41.1496  7779.45  86.8861
 41.1916  7746.19  87.015
 41.2336  7730.68  86.9231
 41.2756  7652.97  86.0945
 41.3176  7692.52  86.9242
 41.3596  7784.95  87.1784
 41.4016  7641.14  86.6219
 41.4436  7810.63  87.3666
 41.4856  7708.72  86.9522
 41.5276  7679.5  86.8029
 41.5696  7671.97  86.3871
 41.6116  7638.71  86.6046
 41.6536  7746.51  87.0752
 41.6956  7817.11  87.4504
 41.7376  7639.03  86.5488
 41.7796  7618  86.3629
 41.8216  7718.92  87.118
 41.8636  7779.77  87.3981
 41.9056  7604.92  86.2043
 41.9476  7719.38  87.0809
 41.9896  7854.02  87.5075
 42.0316  7835.98  87.4766
 42.0736  7714.98  86.9501
 42.1156  7589.78  86.0529
 42.1576  7634.32  86.3999
 42.1996  7690.89  86.8636
 42.2416  7713.34  86.5741
 42.2836  7639.16  86.2694
 42.3256  7577.1  86.0311
 42.3676  7718.58  86.6374
 42.4096  7640.09  86.1569
 42.4516  7677.57  86.4586
 42.4936  7561.49  85.8685
 42.5356  7606.53  86.2478
 42.5776  7632.05  86.3366
 42.6196  7664.11  86.4909
 42.6616  7497.09  85.7909
 42.7036  7572.5  85.6187
 42.7456  7656.01  86.444
 42.7876  7535.99  85.8659
 42.8296  7627.38  86.2691
 42.8716  7541.02  85.8781
 42.9136  7545.78  85.6569
 42.9556  7692.93  86.6658
 42.9976  7665.07  86.471
 43.0396  7638.14  86.0515
 43.0816  7580.51  86.1009
 43.1236  7526.39  85.8497
 43.1656  7593.34  86.0645
 43.2076  7549.24  85.9145
 43.2496  7615.15  86.1027
 43.2916  7521.17  85.9331
 43.3336  7623.43  86.3543
 43.3756  7506.92  85.4507
 43.4176  7521.25  85.6114
 43.4596  7493.51  85.3119
 43.5016  7420.61  85.2948
 43.5436  7424.67  85.2221
 43.5856  7416.11  85.1939
 43.6276  7512.37  85.6448
 43.6696  7496.49  85.6913
 43.7116  7605.44  85.9298
 43.7536  7548.98  86.0932
 43.7956  7320.96  85.9367
 43.8376  7506.57  85.5848
 43.8796  7458.63  85.3911
 43.9216  7423.43  85.096
 43.9636  7485.5  85.5692
 44.0056  7385.41  85.2224
 44.0476  7406.46  84.9764
 44.0896  7342.93  84.9519
 44.1316  7430.83  85.1309
 44.1736  7405.5  84.9678
 44.2156  7491.31  85.3047
 44.2576  7397.73  85.0968
 44.2996  7423.05  85.2199
 44.3416  7308.44  84.318
 44.3836  7300.26  84.5962
 44.4256  7332.22  84.4301
 44.4676  7253.56  84.1311
 44.5096  7405.6  85.1429
 44.5516  7314.17  84.5734
 44.5936  7244.34  84.1357
 44.6356  7390.44  84.7161
 44.6776  7312.87  84.5897
 44.7196  7277.28  84.6466
 44.7616  7231.77  85.721
 44.8036  7200.31  84.1928
 44.8456  7251  84.4929
 44.8876  7281.76  84.5229
 44.9296  7333.16  84.2811
 44.9716  7245.53  84.1949
 45.0136  7253.57  84.1765
 45.0556  7097.3  83.3468
 45.0976  7127.02  83.5765
 45.1396  7150.2  83.4871
 45.1816  7349.74  84.399
 45.2236  7294.23  84.1465
 45.2656  7191.89  84.0522
 45.3076  7149.78  83.6004
 45.3496  7080.34  83.4836
 45.3916  7212.41  84.5203
 45.4336  7199.25  84.2833
 45.4756  7156.41  83.8983
 45.5176  7195.63  83.753
 45.5596  7227.09  84.0531
 45.6016  7118.84  83.8283
 45.6436  7176.38  83.363
 45.6856  6990.54  82.9145
 45.7276  7018.18  84.8435
 45.7696  7071.5  84.3509
 45.8116  7121.74  84.1113
 45.8536  6932.92  82.8806
 45.8956  7172.83  83.6691
 45.9376  7284.41  83.7872
 45.9796  7160.93  83.7569
 46.0216  7129.46  83.9004
 46.0636  7222  83.5844
 46.1056  7105.3  82.9033
 46.1476  6997.42  82.8502
 46.1896  7095.06  83.5719
 46.2316  6926.83  82.4508
 46.2736  7004.19  83.1117
 46.3156  7074.77  83.281
 46.3576  7097.31  83.6103
 46.3996  7024.3  83.3341
 46.4416  7002.49  82.7741
 46.4836  7044.29  83.3919
 46.5256  7048.28  83.3534
 46.5676  6957.76  82.9279
 46.6096  7111.26  83.7744
 46.6516  7093.72  82.7329
 46.6936  7212.12  83.9001
 46.7356  7143.67  83.6038
 46.7776  6963.38  83.3661
 46.8196  7000.45  83.3346
 46.8616  6885.04  82.45
 46.9036  6912.3  82.2827
 46.9456  6959.54  82.2122
 46.9876  6910.08  82.0017
 47.0296  6859.39  82.3602
 47.0716  6898.26  82.426
 47.1136  6855.4  81.8551
 47.1556  6856.36  81.729
 47.1976  6979.12  82.6093
 47.2396  6887.16  82.3848
 47.2816  6869.53  81.9849
 47.3236  7007.95  83.1713
 47.3656  6925.31  82.6136
 47.4076  6900.66  82.1966
 47.4496  6907.53  82.4009
 47.4916  6823.58  82.093
 47.5336  6970.68  82.7876
 47.5756  6848.83  82.1357
 47.6176  6856.79  82.1233
 47.6596  6855.22  81.8328
 47.7016  6980.52  82.3981
 47.7436  6898.73  82.2505
 47.7856  6963.4  82.6509
 47.8276  6826.12  81.8627
 47.8696  6828.85  81.9797
 47.9116  6912.51  82.2045
 47.9536  6914.73  82.1602
 47.9956  6738.93  81.7955
 48.0376  6746.86  81.6238
 48.0796  6903.8  82.6942
 48.1216  6912.7  82.5727
 48.1636  6995.42  82.6457
 48.2056  6884.35  82.2443
 48.2476  6923.03  82.7764
 48.2896  6768.21  81.7576
 48.3316  6853.2  82.2123
 48.3736  6854.44  82.2412
 48.4156  6743.31  81.4284
 48.4576  6725.52  81.6075
 48.4996  6800.89  81.5315
 48.5416  6812.01  81.9161
 48.5836  6762.12  81.3035
 48.6256  6888.59  82.2553
 48.6676  6746.95  81.911
 48.7096  6741.47  81.1604
 48.7516  6789.72  81.5987
 48.7936  6733.49  81.3219
 48.8356  6724.65  81.3177
 48.8776  6793.32  82.2125
 48.9196  6875.51  82.1672
 48.9616  6728.16  81.6587
 49.0036  6746.53  82.1034
 49.0456  6694.9  81.7701
 49.0876  6714.73  81.5343
 49.1296  6584.12  80.8032
 49.1716  6475.25  79.9989
 49.2136  6650.55  81.0105
 49.2556  6781.04  81.8338
 49.2976  6756.2  81.7523
 49.3396  6679.95  81.3435
 49.3816  6731.24  81.1072
 49.4236  6718.82  81.437
 49.4656  6638.4  80.9655
 49.5076  6706.62  81.1396
 49.5496  6640.18  80.6735
 49.5916  6743.47  81.3381
 49.6336  6633.66  80.8743
 49.6756  6706.74  81.5479
 49.7176  6587.47  80.757
 49.7596  6689.98  81.3325
 49.8016  6727.67  81.3066
 49.8436  6671.58  81.2549
 49.8856  6640.27  81.0774
 49.9276  6561.9  80.6877
 49.9696  6718.89  81.627
 50.0116  6581.29  80.9098
 50.0536  6552.47  80.6976
 50.0956  6552.91  80.7633
 50.1376  6546.61  80.429
 50.1796  6475.83  80.2559
 50.2216  6586.53  80.9288
 50.2636  6517.7  80.1388
 50.3056  6524.52  80.3512
 50.3476  6575.83  80.6943
 50.3896  6448.19  79.8753
 50.4316  6539.67  80.2769
 50.4736  6575.61  80.7141
 50.5156  6511.95  80.3
 50.5576  6595.8  80.5866
 50.5996  6526.14  80.4396
 50.6416  6584.97  80.7346
 50.6836  6607.26  80.9213
 50.7256  6556.65  80.5316
 50.7676  6550.93  80.7782
 50.8096  6532.79  80.2466
 50.8516  6467.6  80.2596
 50.8936  6458.5  79.9866
 50.9356  6600.05  80.9649
 50.9776  6569.78  80.9245
 51.0196  6411.63  80.0702
 51.0616  6410.15  79.4065
 51.1036  6380.43  79.5637
 51.1456  6438.36  79.8435
 51.1876  6545.54  79.8602
 51.2296  6389.41  79.5178
 51.2716  6404.7  79.3223
 51.3136  6316.16  79.2119
 51.3556  6310.33  78.8161
 51.3976  6327.22  79.0661
 51.4396  6255.46  78.9153
 51.4816  6406.48  79.718
 51.5236  6383.03  79.6481
 51.5656  6306.38  78.7913
 51.6076  6382.13  79.3433
 51.6496  6372.52  79.4663
 51.6916  6374.95  79.8315
 51.7336  6295.72  79.4202
 51.7756  6345.25  79.4428
 51.8176  6376.15  79.7265
 51.8596  6346.56  79.5681
 51.9016  6413.87  79.6062
 51.9436  6395.41  80.9145
 51.9856  6270.68  80.5438
 52.0276  6326.03  79.4489
 52.0696  6354.69  79.6928
 52.1116  6297.9  79.4469
 52.1536  6354.19  79.6439
 52.1956  6396.91  79.4298
 52.2376  6393.18  79.5782
 52.2796  6411.96  79.5092
 52.3216  6314.03  79.5781
 52.3636  6296.57  79.0549
 52.4056  6288.91  78.8652
 52.4476  6176.45  78.5151
 52.4896  6131.06  78.2753
 52.5316  6270  79.1994
 52.5736  6284.74  79.0201
 52.6156  6261.24  79.2413
 52.6576  6324.26  79.1033
 52.6996  6129.36  78.8133
 52.7416  6211.39  79.1885
 52.7836  6276.25  79.5026
 52.8256  6309.76  78.948
 52.8676  6125.05  78.3462
 52.9096  6256.76  79.2601
 52.9516  6170.64  79.0714
 52.9936  6174.7  79.4783
 53.0356  6135.73  78.2599
 53.0776  6171.58  78.7646
 53.1196  5980.61  77.6377
 53.1616  6126.72  78.6266
 53.2036  6101.4  78.4227
 53.2456  6145.38  78.8008
 53.2876  6158.44  78.5977
 53.3296  6051.77  78.2292
 53.3716  6186.63  78.8468
 53.4136  6105.83  78.4745
 53.4556  6058.5  78.2005
 53.4976  6072.51  78.1444
 53.5396  6111.72  78.7766
 53.5816  6064.58  78.1171
 53.6236  6121.9  78.8213
 53.6656  6072.88  78.139
 53.7076  6179.62  78.7894
 53.7496  6159.37  78.7775
 53.7916  6107.54  78.5598
 53.8336  6099.22  78.4163
 53.8756  5960.04  78.0483
 53.9176  6091.74  78.2675
 53.9596  6105.74  79.1037
 54.0016  6116.92  78.5205
 54.0436  6049.58  78.2953
 54.0856  6071.5  77.8764
 54.1276  6068.83  78.0579
 54.1696  6088.15  78.3505
 54.2116  6068.47  77.9866
 54.2536  6049.27  77.6847
 54.2956  6118.63  78.1729
 54.3376  6074.03  78.3616
 54.3796  6103.88  78.4533
 54.4216  6156.86  78.8383
 54.4636  5966.82  77.576
 54.5056  6110.15  78.3257
 54.5476  6057.34  78.3129
 54.5896  6145.58  78.7076
 54.6316  6108.35  78.3372
 54.6736  6083.83  78.2053
 54.7156  6035.55  77.966
 54.7576  6015.4  77.83
 54.7996  6036.27  78.1081
 54.8416  6060.66  78.3039
 54.8836  5987.39  77.938
 54.9256  6107.63  78.4644
 54.9676  6135.19  78.5039
 55.0096  6044.31  77.9895
 55.0516  6045.34  78.1607
 55.0936  5966.1  77.346
 55.1356  5983.48  77.5047
 55.1776  6026.35  78.0449
 55.2196  6049.66  77.9795
 55.2616  5975.23  77.7113
 55.3036  5929.66  77.5691
 55.3456  5995.86  78.1419
 55.3876  5979.14  77.7882
 55.4296  6022.66  78.0459
 55.4716  6029.87  78.1256
 55.5136  6043.11  77.9721
 55.5556  5987.88  77.6852
 55.5976  6064.43  78.2352
 55.6396  6074.28  78.1725
 55.6816  5991.5  77.5935
 55.7236  6022.29  77.9299
 55.7656  6082.65  77.9858
 55.8076  6081.19  77.9572
 55.8496  5900.45  77.2139
 55.8916  5926.68  77.4408
 55.9336  5973.95  77.6008
 55.9756  5963.91  77.4313
 56.0176  5943.55  77.4465
 56.0596  5991.88  77.7398
 56.1016  5998.01  77.8239
 56.1436  5979.76  77.9304
 56.1856  5969.15  77.6102
 56.2276  5992.15  77.8192
 56.2696  5993.36  77.7971
 56.3116  6016.94  78.3463
 56.3536  5923.33  77.4008
 56.3956  5983.5  77.7821
 56.4376  5935.64  77.5018
 56.4796  6004.05  77.7552
 56.5216  5894.31  77.406
 56.5636  6000.85  77.6975
 56.6056  5960.08  77.6638
 56.6476  5910.92  76.9792
 56.6896  5953.11  77.6873
 56.7316  5893.27  77.2046
 56.7736  6002.98  77.9224
 56.8156  5946.01  77.5443
 56.8576  6013.74  77.9326
 56.8996  5903.1  77.1581
 56.9416  5932.09  77.5044
 56.9836  5844.2  76.5903
 57.0256  5890.88  77.2042
 57.0676  5880.53  77.2623
 57.1096  5965.77  77.6097
 57.1516  5926.74  77.3782
 57.1936  5918.14  77.1129
 57.2356  5892.88  77.2572
 57.2776  5947.35  77.5765
 57.3196  5938.12  77.8701
 57.3616  5856.73  76.8468
 57.4036  5935.01  77.418
 57.4456  5919.24  77.2812
 57.4876  5901.84  77.0289
 57.5296  5909.15  77.3128
 57.5716  5899.37  77.3365
 57.6136  5946.77  77.467
 57.6556  5937.76  77.5441
 57.6976  6027.04  77.9458
 57.7396  5867.79  77.2811
 57.7816  5810.46  77.2508
 57.8236  5917.88  77.7622
 57.8656  5871.87  77.1103
 57.9076  5967.44  77.7802
 57.9496  5869.76  77.4809
 57.9916  5972.36  77.6282
 58.0336  5900.95  77.4764
 58.0756  5920.25  77.2029
 58.1176  5937.8  77.3557
 58.1596  5825.31  77.1814
 58.2016  5870.95  76.7317
 58.2436  6007.61  78.0109
 58.2856  6060.23  78.2723
 58.3276  5777.41  76.7863
 58.3696  5928.73  77.5394
 58.4116  5932.17  77.427
 58.4536  5921.63  77.2483
 58.4956  5844.9  76.9231
 58.5376  5861.69  76.6098
 58.5796  5861.24  77.0249
 58.6216  5949.88  77.4238
 58.6636  6020.3  78.0878
 58.7056  5820.04  76.6421
 58.7476  5884.25  77.5029
 58.7896  5870.06  77.0594
 58.8316  5964.54  77.6731
 58.8736  5908.09  77.3043
 58.9156  5957.62  77.6774
 58.9576  6148.31  79.1218
 58.9996  6090.99  78.1062
 59.0416  6170.09  78.9773
 59.0836  5880.07  77.024
 59.1256  5947.55  77.847
 59.1676  5884.24  78.0494
 59.2096  6055.51  78.4838
 59.2516  5930.05  77.2514
 59.2936  5880.45  77.2514
 59.3356  5850.45  76.9338
 59.3776  5900  77.4259
 59.4196  5898.84  77.3548
 59.4616  5974.38  77.7095
 59.5036  5826.6  76.777
 59.5456  6124.63  78.4074
 59.5876  5933.14  77.3614
 59.6296  5810.85  76.6278
 59.6716  5963.25  77.6837
 59.7136  5875.12  77.096
 59.7556  5852.69  77.083
 59.7976  5897.37  77.1219
 59.8396  5946.18  77.3355
 59.8816  5904.39  77.6027
 59.9236  6041.07  78.1392
 59.9656  5926.28  77.6514
 60.0076  6037.65  77.7352
 60.0496  5919.19  77.4664
 60.0916  6100.82  78.0624
 60.1336  5949.98  78.1904
 60.1756  5743.89  77.9791
 60.1996  0.0000000E+00  0.0000000E+00