File: docs/examples/XRD/IS17_D/Data/IS17_D/17_Db_f00006.xye
# /beamlines/bl04/projects/cycle2025-II/20250340211-lsimonelli/DATA/IS17_D/17_Db_f00006.xye : mythproc.py merge -s 0.006 -l 0.5 -f /beamlines/bl04/inhouse/ff/FlatField/ff_20Nov2024rod8mm60s_17keV.raw -b True -c true -o xye /beamlines/bl04/projects/cycle2025-II/20250340211-lsimonelli/DATA/IS17_D/17_Db_00006.dat
# IsMon = [6768435, 6770462, 6769908]  IsPos = [-1.5000, -2.4885, -3.4988]
# Wave = 0.4962  CalPath /beamlines/bl04/projects/cycle2025-II/20250340211-lsimonelli/DATA/Align/Si_Pos1_25keV_f00001.cal
# Date = 2025-09-23_19:22:11 Dt = 4.8000  Bin = 0.0060  <imon> = 6769602 +/- 855 (Min/Max) 6768435 / 6770462
# icurr 252.0613  mocoIn 1.7200E-05  mocoOut 0.8068  i15 7.08464e+06  imon 6.7696e+06  i7 5.0000  iEMpd_timer 4.8000  iEMpd_1 3.5628E-08  iEMpd_2 7.7689E-08  iEMpd_3 1.6385E-08  iEMpd_4 4.8415E-08  iEMhp_timer 4.8000  iEMhp_1 4.9263E-06  iEMhp_2 -2.3654E-08  iEMhp_3 -2.3233E-08  iEMhp_4 -2.1480E-08
#      9776
 1.5856  42770  212.378
 1.6276  49548.7  224.667
 1.6696  55377.8  236.678
 1.7116  63136.1  253.208
 1.7536  70825.9  267.042
 1.7956  75316.9  276.067
 1.8376  71872.5  270.108
 1.8796  61778.5  248.589
 1.9216  51295.5  227.413
 1.9636  43999  210.286
 2.0056  39325.1  197.533
 2.0476  36685.4  192.88
 2.0896  35486.6  188.59
 2.1316  34269.3  184.436
 2.1736  32774.7  181.8
 2.2156  33526.9  182.399
 2.2576  31859.4  178.443
 2.2996  30822.1  176.158
 2.3416  31190.6  175.792
 2.3836  30560.5  174.116
 2.4256  29923.5  172.853
 2.4676  29298.2  170.795
 2.5096  29554.1  171.596
 2.5516  33539  186.919
 2.5936  82995  288.195
 2.6356  30832.4  176.42
 2.6776  27570  165.724
 2.7196  26805.9  163.903
 2.7616  26489.1  162.716
 2.8036  25825.6  160.829
 2.8456  25924.2  161.768
 2.8876  25427.4  160.044
 2.9296  25174.1  159.4
 2.9716  24766.7  157.605
 3.0136  24368.9  156.399
 3.0556  24450.2  157.044
 3.0976  24493.7  156.101
 3.1396  23970.8  155.147
 3.1816  23697.2  154.195
 3.2236  23693.5  154.168
 3.2656  23407.8  152.313
 3.3076  23437.7  153.86
 3.3496  23638.9  153.697
 3.3916  23895.8  154.108
 3.4336  24520.7  156.692
 3.4756  24744.2  157.35
 3.5176  25510.1  159.527
 3.5596  25121.5  161.287
 3.6016  25336.1  159.06
 3.6436  24719.1  158.204
 3.6856  24214.8  154.911
 3.7276  23109.6  152.384
 3.7696  23001.7  152.016
 3.8116  22588  150.741
 3.8536  22629.4  150.814
 3.8956  22767.2  151.096
 3.9376  23001.1  152.134
 3.9796  22520.7  150.036
 4.0216  22689.5  149.645
 4.0636  22425.6  150.218
 4.1056  22597.4  150.446
 4.1476  22861.5  151.634
 4.1896  22849.9  151.454
 4.2316  23099  152.103
 4.2736  23460.6  153.093
 4.3156  23514.4  153.496
 4.3576  24432.4  156.368
 4.3996  24769.4  157.717
 4.4416  25258.5  158.852
 4.4836  26019.9  161.386
 4.5256  26334.5  162.964
 4.5676  26055.3  162.352
 4.6096  26515.9  162.814
 4.6516  27031  163.712
 4.6936  26987  164.405
 4.7356  27751.1  166.542
 4.7776  27260.1  164.888
 4.8196  26994.2  164.722
 4.8616  26261.6  162.109
 4.9036  26251.8  161.684
 4.9456  26140.1  161.989
 4.9876  25491.7  159.863
 5.0296  25528  159.82
 5.0716  25370.7  159.929
 5.1136  25676.4  160.754
 5.1556  26057  161.406
 5.1976  30564.1  174.797
 5.2396  26756.7  163.242
 5.2816  26493.1  162.906
 5.3236  26329.4  162.1
 5.3656  25761.4  161.256
 5.4076  25727.2  161.286
 5.4496  25478.8  160.011
 5.4916  25918.2  161.138
 5.5336  25599.6  160.155
 5.5756  25712.1  160.525
 5.6176  25866.3  160.449
 5.6596  25908.7  161.395
 5.7016  25801.6  160.5
 5.7436  26208.2  162.033
 5.7856  25984.5  161.404
 5.8276  26159  161.664
 5.8696  26553.5  162.937
 5.9116  26195.4  162.532
 5.9536  26734.2  163.944
 5.9956  26901  163.855
 6.0376  26699.9  163.841
 6.0796  27106.5  164.922
 6.1216  26991.5  164.761
 6.1636  27355.9  164.939
 6.2056  27225.6  165.219
 6.2476  27805.9  166.662
 6.2896  27837.7  166.62
 6.3316  27928  167.063
 6.3736  27880.9  166.818
 6.4156  27740.9  166.347
 6.4576  28068.4  166.894
 6.4996  28164.4  167.643
 6.5416  28209.6  167.91
 6.5836  28187.5  168.073
 6.6256  28301.7  167.981
 6.6676  28897.2  169.316
 6.7096  28958.7  170.342
 6.7516  29115.1  170.469
 6.7936  29892.6  172.128
 6.8356  30139.4  172.941
 6.8776  29883.3  172.995
 6.9196  29720.9  172.913
 6.9616  30351.9  174.161
 7.0036  30588.9  174.528
 7.0456  30835.5  174.536
 7.0876  30865.2  176.209
 7.1296  30534.5  174.492
 7.1716  30455.3  173.816
 7.2136  30359.1  173.326
 7.2556  30464.3  173.781
 7.2976  30699.1  174.936
 7.3396  30272.9  173.936
 7.3816  30558.4  174.955
 7.4236  30697.8  174.669
 7.4656  30934.1  174.788
 7.5076  31424.4  176.338
 7.5496  30908  175.406
 7.5916  30986.3  175.678
 7.6336  31530.7  177.101
 7.6756  31470  176.783
 7.7176  32009.7  178.615
 7.7596  31856.7  179.383
 7.8016  35080.7  190.551
 7.8436  32473  180.011
 7.8856  32402.1  179.436
 7.9276  32872.6  181.126
 7.9696  33073.6  181.975
 8.0116  33889.7  182.788
 8.0536  34379.8  184.35
 8.0956  35168.7  187.624
 8.1376  35067.9  186.835
 8.1796  34996.2  187.171
 8.2216  36088.2  188.82
 8.2636  36342.6  189.738
 8.3056  35881.2  189.287
 8.3476  37314  192.354
 8.3896  36369.5  189.983
 8.4316  36190.4  189.683
 8.4736  36291.4  189.426
 8.5156  35976.4  188.872
 8.5576  35989.2  189.86
 8.5996  35467.6  187.381
 8.6416  35654  189.106
 8.6836  35062.9  187.373
 8.7256  36137.3  189.676
 8.7676  37029.1  194.937
 8.8096  37117.2  192.462
 8.8516  36653.2  190.889
 8.8936  36659  190.797
 8.9356  36102.6  189.674
 8.9776  35996.4  189.474
 9.0196  36094.3  189.405
 9.0616  36065.5  188.832
 9.1036  36089.2  190.06
 9.1456  34890.8  186.217
 9.1876  34994.7  186.438
 9.2296  34770.9  185.288
 9.2716  34219.9  183.861
 9.3136  34565  184.773
 9.3556  35032.4  185.996
 9.3976  33545.9  182.522
 9.4396  33449.5  182.159
 9.4816  33505.8  182.174
 9.5236  33088.9  180.942
 9.5656  32669.5  180.134
 9.6076  32312  179.66
 9.6496  32578.8  180.281
 9.6916  32318.8  179.508
 9.7336  32567.5  179.986
 9.7756  32342  180.573
 9.8176  32026  179.236
 9.8596  31988.6  177.604
 9.9016  31653.5  176.651
 9.9436  31126.5  174.936
 9.9856  31203.8  175.591
 10.0276  30748  175.363
 10.0696  31073.3  175.34
 10.1116  30176  173.044
 10.1536  30378.2  173.29
 10.1956  29586.5  171.124
 10.2376  29370.1  170.018
 10.2796  29328  169.997
 10.3216  28866.5  168.779
 10.3636  28992.8  169.332
 10.4056  30175.7  173.151
 10.4476  30863.3  174.719
 10.4896  32182.3  177.821
 10.5316  30814.7  174.412
 10.5736  28355.4  168.05
 10.6156  28303.4  167.66
 10.6576  30386.5  172.247
 10.6996  27920.9  165.806
 10.7416  27086.9  163.52
 10.7836  27208.7  164.54
 10.8256  26494.2  162.792
 10.8676  26394.8  162.034
 10.9096  26365.6  161.979
 10.9516  26194.4  160.417
 10.9936  26662.2  162.052
 11.0356  26268.4  161.447
 11.0776  26758.8  162.288
 11.1196  26515.8  162.312
 11.1616  25504.4  158.857
 11.2036  26208.3  160.886
 11.2456  26764.1  163.296
 11.2876  25744.9  159.892
 11.3296  25316.2  158.466
 11.3716  25491.2  158.741
 11.4136  25563.2  159.806
 11.4556  25844.2  160.341
 11.4976  26770.8  162.172
 11.5396  26398.2  161.21
 11.5816  25491.9  158.838
 11.6236  24845.8  157.268
 11.6656  24991.5  156.681
 11.7076  24354.9  155.477
 11.7496  24267.7  159.137
 11.7916  24533.1  155.32
 11.8336  23751.4  153.72
 11.8756  23936.5  153.845
 11.9176  23735.4  152.881
 11.9596  23792.1  153.239
 12.0016  23401.7  152.73
 12.0436  23493.8  152.484
 12.0856  23094.2  151.664
 12.1276  23232.3  152.079
 12.1696  23224.3  151.181
 12.2116  23457.9  151.942
 12.2536  24474.9  156.007
 12.2956  23130.5  151.028
 12.3376  23385.3  152.071
 12.3796  23240.6  152.072
 12.4216  23360  151.666
 12.4636  23391.2  152.694
 12.5056  23126.9  151.105
 12.5476  23009.4  150.24
 12.5896  22770.3  150.093
 12.6316  22916.8  150.72
 12.6736  22585.1  150.108
 12.7156  23111.6  151.677
 12.7576  22869.3  151.139
 12.7996  23186.9  150.85
 12.8416  23167  151.822
 12.8836  23677.1  153.309
 12.9256  23566  152.004
 12.9676  23480.1  152.114
 13.0096  23750.9  154.101
 13.0516  23551.1  152.488
 13.0936  23240  151.604
 13.1356  23910.3  153.039
 13.1776  23304.8  152.077
 13.2196  23593.4  152.662
 13.2616  23152.4  151.538
 13.3036  23417.4  152.536
 13.3456  23087.7  151.431
 13.3876  23973.7  153.802
 13.4296  23288.1  151.738
 13.4716  23713.3  152.752
 13.5136  23632.9  152.627
 13.5556  23491  152.778
 13.5976  23383.6  152.596
 13.6396  23677.7  152.919
 13.6816  23796.4  153.646
 13.7236  24256.6  154.813
 13.7656  25883.4  160.388
 13.8076  26737.6  161.672
 13.8496  25116.1  157.54
 13.8916  24062  155.124
 13.9336  23229.6  151.706
 13.9756  23306.5  151.349
 14.0176  22885.6  150.647
 14.0596  23265.1  151.816
 14.1016  22998.6  151.366
 14.1436  22878.6  150.111
 14.1856  22415.5  148.881
 14.2276  22558.5  149.83
 14.2696  22522.7  149.566
 14.3116  21798.3  147.049
 14.3536  21563.6  146.421
 14.3956  21264.1  145.12
 14.4376  21636  146.182
 14.4796  21663  146.27
 14.5216  21234.6  145.591
 14.5636  21241.2  145.189
 14.6056  21353.5  145.142
 14.6476  21179.3  143.803
 14.6896  20682.8  142.643
 14.7316  20307  142.351
 14.7736  20311.9  141.522
 14.8156  20244.3  141.314
 14.8576  20077.9  140.588
 14.8996  19924.1  141.22
 14.9416  19566.3  139.971
 14.9836  19322.7  139.077
 15.0256  18824  136.21
 15.0676  18725.8  136.159
 15.1096  18510.8  135.121
 15.1516  18332.5  135.003
 15.1936  18340.7  134.484
 15.2356  18119.9  133.937
 15.2776  18233.9  133.962
 15.3196  17820.6  133.399
 15.3616  17773.2  132.986
 15.4036  17352.4  131.268
 15.4456  17977  133.266
 15.4876  17560.6  131.408
 15.5296  17478.3  131.375
 15.5716  17152.7  129.765
 15.6136  17125.6  129.972
 15.6556  18003.9  132.516
 15.6976  17366.7  130.227
 15.7396  17059.9  129.658
 15.7816  17139.1  129.484
 15.8236  16579.1  128.02
 15.8656  16744.4  128.455
 15.9076  16751.2  128.307
 15.9496  17394.6  133.528
 15.9916  16955.9  132.24
 16.0336  17136.9  129.862
 16.0756  16909.8  129.308
 16.1176  16500.8  127.653
 16.1596  16326.9  128.272
 16.2016  16292.1  126.934
 16.2436  16346.1  127.513
 16.2856  16260.9  126.714
 16.3276  15781.7  125.258
 16.3696  16198.8  126.729
 16.4116  16197.6  127.177
 16.4536  16081.6  126.521
 16.4956  16391  127.471
 16.5376  16104.9  126.534
 16.5796  16004.8  125.519
 16.6216  15879.3  125.279
 16.6636  15773.9  125.049
 16.7056  15906.2  125.447
 16.7476  15933.3  125.087
 16.7896  16073.1  126.375
 16.8316  15795.9  125.258
 16.8736  16202.3  127.1
 16.9156  15802.1  125.855
 16.9576  15589.8  125.782
 16.9996  15623.3  126.376
 17.0416  15724.1  125.193
 17.0836  15505  124.087
 17.1256  15321.5  123.354
 17.1676  15536.9  124.186
 17.2096  15630.2  124.446
 17.2516  15479.7  123.939
 17.2936  15206.2  122.889
 17.3356  14861.6  121.477
 17.3776  14792.9  121.378
 17.4196  14874.1  121.413
 17.4616  15104.6  122.253
 17.5036  14923.2  121.883
 17.5456  14779.3  121.918
 17.5876  14604.5  120.261
 17.6296  14893.5  121.265
 17.6716  14694.9  121.038
 17.7136  14902  122.021
 17.7556  14517.3  120.721
 17.7976  14363.3  119.685
 17.8396  14508.1  119.932
 17.8816  14242.1  119.377
 17.9236  14227.1  119.112
 17.9656  14250.7  119.889
 18.0076  14467.3  120.227
 18.0496  15000.5  121.547
 18.0916  17178.4  130.647
 18.1336  15889.4  125.761
 18.1756  14941.6  121.507
 18.2176  14860.8  121.391
 18.2596  14095.7  117.956
 18.3016  14565.4  120.168
 18.3436  14802.3  121.375
 18.3856  14264.4  119.059
 18.4276  14042.7  117.816
 18.4696  13989.6  117.681
 18.5116  14139.9  118.572
 18.5536  13938.1  118.086
 18.5956  13825.7  117.177
 18.6376  13842.3  117.65
 18.6796  13749.6  116.588
 18.7216  13980.2  118.107
 18.7636  13859.1  117.531
 18.8056  13502.6  115.931
 18.8476  13444.2  116.292
 18.8896  13428.5  115.578
 18.9316  13570.2  116
 18.9736  13457.7  115.399
 19.0156  13467.8  115.844
 19.0576  13851.9  116.336
 19.0996  13638.1  116.138
 19.1416  13591.2  116.337
 19.1836  13354.6  114.932
 19.2256  13166.8  114.337
 19.2676  13299.8  114.993
 19.3096  13356.9  115.476
 19.3516  13477.2  115.777
 19.3936  13305  115.113
 19.4356  13554  116.068
 19.4776  13475.5  115.815
 19.5196  13302.9  114.935
 19.5616  13345.2  115.365
 19.6036  13249.9  114.468
 19.6456  13452.3  115.452
 19.6876  13615  115.782
 19.7296  13591.2  116.142
 19.7716  13482.4  115.705
 19.8136  13931.2  117.959
 19.8556  13986.4  117.674
 19.8976  14148  118.413
 19.9396  14070.4  117.673
 19.9816  14105.2  118.071
 20.0236  14320.8  119.158
 20.0656  13775.5  116.863
 20.1076  13566.8  116.448
 20.1496  13295.5  115.268
 20.1916  13372.4  115.096
 20.2336  13239.8  114.486
 20.2756  13061.9  114.143
 20.3176  12905.9  113.204
 20.3596  12838.8  112.904
 20.4016  13004.9  113.437
 20.4436  12869.3  113.401
 20.4856  12969.2  113.632
 20.5276  12836.3  113.495
 20.5696  12703.7  112.464
 20.6116  12729.6  112.757
 20.6536  12576.5  111.651
 20.6956  12832.6  112.859
 20.7376  12596.6  112.026
 20.7796  12561  111.564
 20.8216  12742  112.089
 20.8636  13067  113.882
 20.9056  13472.1  115.559
 20.9476  12864.2  112.778
 20.9896  13141.2  113.847
 21.0316  12668.6  111.683
 21.0736  12792.9  112.748
 21.1156  12796.6  112.921
 21.1576  12706.8  112.568
 21.1996  12673  112.404
 21.2416  12566.7  111.756
 21.2836  12557.5  111.693
 21.3256  12597  111.942
 21.3676  12480  110.954
 21.4096  12502.7  111.435
 21.4516  12402.2  110.812
 21.4936  12104.4  109.727
 21.5356  12519.1  111.536
 21.5776  12571.2  111.606
 21.6196  12495.4  111.306
 21.6616  12428.3  111.09
 21.7036  12353.3  110.528
 21.7456  12209.9  109.955
 21.7876  12195.6  109.659
 21.8296  12154.8  109.329
 21.8716  12202.4  109.758
 21.9136  12425.1  110.956
 21.9556  12319.4  110.169
 21.9976  12169.8  109.529
 22.0396  12091.9  109.422
 22.0816  12140.3  110.159
 22.1236  12318.8  110.434
 22.1656  12168.6  109.949
 22.2076  11996.9  108.593
 22.2496  12086.1  109.02
 22.2916  11701.5  107.158
 22.3336  11938.9  108.926
 22.3756  11834.9  108.199
 22.4176  11940.6  108.54
 22.4596  11661.6  107.834
 22.5016  11972.2  108.77
 22.5436  11993.8  108.749
 22.5856  12170.5  109.786
 22.6276  12451.1  111.176
 22.6696  11995.7  109.473
 22.7116  11747.2  107.863
 22.7536  11851.6  108.318
 22.7956  12053.5  108.584
 22.8376  11731.9  107.628
 22.8796  11877.8  108.103
 22.9216  11906.6  108.763
 22.9636  11783.9  107.38
 23.0056  11814.9  107.654
 23.0476  12111.2  109.554
 23.0896  12254  109.587
 23.1316  11928.7  108.546
 23.1736  12103.6  112.239
 23.2156  12113.3  109.709
 23.2576  12374.1  111.018
 23.2996  12073.9  109.438
 23.3416  12176.9  110.425
 23.3836  12304.9  110.245
 23.4256  12316.1  110.418
 23.4676  12205.3  109.612
 23.5096  12317.8  110.762
 23.5516  12095.6  109.076
 23.5936  12309.6  110.943
 23.6356  12334  110.718
 23.6776  12113.5  109.93
 23.7196  12084.4  109.599
 23.7616  12054.2  109.164
 23.8036  12295.7  110.309
 23.8456  12024.1  108.64
 23.8876  12102.4  109.354
 23.9296  11852.5  108.688
 23.9716  11949.6  108.355
 24.0136  12084  109.855
 24.0556  11971.5  109.064
 24.0976  11913.5  108.618
 24.1396  11585.8  109.666
 24.1816  11800.8  109.45
 24.2236  11734.5  108.441
 24.2656  11846.6  108.435
 24.3076  11740.7  108.219
 24.3496  11645.1  107.654
 24.3916  11784.1  108.354
 24.4336  11817  108.698
 24.4756  11757.1  108.315
 24.5176  11577.3  107.107
 24.5596  11592.2  107.504
 24.6016  11453.4  106.954
 24.6436  11628  107.28
 24.6856  11387.5  105.911
 24.7276  11347.9  106.044
 24.7696  11380.2  106.3
 24.8116  11186.7  105.562
 24.8536  11235.6  105.804
 24.8956  11229.8  105.513
 24.9376  11307.2  106.055
 24.9796  11045.4  104.929
 25.0216  11008.1  104.861
 25.0636  11067.3  104.806
 25.1056  10937.4  104.608
 25.1476  10928.9  106.41
 25.1896  10857.8  104.633
 25.2316  10965.3  104.438
 25.2736  10976.8  104.144
 25.3156  10778.4  103.27
 25.3576  10850.2  104.042
 25.3996  10787.2  103.728
 25.4416  10902.9  104.251
 25.4836  10640.6  103.504
 25.5256  10814.1  103.71
 25.5676  10776.1  103.262
 25.6096  10635.7  103.157
 25.6516  10819.5  103.547
 25.6936  10704.8  103.315
 25.7356  10657.8  103.217
 25.7776  10666.6  102.94
 25.8196  10487.7  102.235
 25.8616  10633.6  102.874
 25.9036  10753.1  102.904
 25.9456  10640.2  102.96
 25.9876  10667  103.01
 26.0296  10693.7  102.89
 26.0716  10731.5  103.407
 26.1136  10593.5  102.667
 26.1556  10720.3  102.677
 26.1976  10592  102.979
 26.2396  10494.8  101.916
 26.2816  10619.8  102.877
 26.3236  10615.7  103.004
 26.3656  10768  103.472
 26.4076  10449.2  102.129
 26.4496  10729.8  103.091
 26.4916  10876  103.675
 26.5336  11095.6  105.071
 26.5756  11240.1  105.627
 26.6176  10659.1  102.885
 26.6596  10548.8  102.651
 26.7016  10357.2  101.488
 26.7436  10449.8  102.06
 26.7856  10185.6  100.754
 26.8276  10318.2  101.373
 26.8696  10262.9  100.966
 26.9116  10297.1  101.065
 26.9536  10246  100.881
 26.9956  10083.5  100.107
 27.0376  10135.2  100.584
 27.0796  10252.3  100.967
 27.1216  10304.5  101.198
 27.1636  10015.2  99.9417
 27.2056  10064.7  100.077
 27.2476  10018.9  99.838
 27.2896  10031.7  100.021
 27.3316  9971.12  99.4351
 27.3736  9919.51  99.4422
 27.4156  10106.8  100.225
 27.4576  10024  100.02
 27.4996  10142.8  100.226
 27.5416  9972.57  99.685
 27.5836  9972.91  99.5303
 27.6256  10069.4  100.182
 27.6676  9912.93  99.3937
 27.7096  10030.5  99.8685
 27.7516  10089.3  100.303
 27.7936  10403.2  102.002
 27.8356  10358  101.378
 27.8776  10217.2  100.754
 27.9196  10038.8  99.7363
 27.9616  10021.7  99.8503
 28.0036  9903.48  99.2199
 28.0456  9709.3  98.3779
 28.0876  9719.64  98.5141
 28.1296  9764.91  98.5767
 28.1716  9853.18  99.0463
 28.2136  9805.37  98.7658
 28.2556  9751.94  98.6084
 28.2976  9678.19  98.2352
 28.3396  9588.94  97.5781
 28.3816  9765.21  98.4386
 28.4236  9629.71  97.9097
 28.4656  9609.92  97.8485
 28.5076  9541.25  97.1474
 28.5496  9614.08  97.7543
 28.5916  9561.53  97.312
 28.6336  9515.41  97.4211
 28.6756  9521.14  96.6581
 28.7176  9521.87  97.2095
 28.7596  9377.54  96.3654
 28.8016  9434.2  96.6894
 28.8436  9377.45  96.6374
 28.8856  9521.76  97.2304
 28.9276  9501.95  97.3744
 28.9696  9431.29  96.6731
 29.0116  9320.29  96.2765
 29.0536  9297.46  96.3646
 29.0956  9396.01  96.5882
 29.1376  9425.02  96.7058
 29.1796  9417.06  96.7136
 29.2216  9282.93  95.8533
 29.2636  9509.23  97.0201
 29.3056  9273.85  95.6706
 29.3476  9248.36  96.0585
 29.3896  9401.18  96.967
 29.4316  9174.4  95.1331
 29.4736  9168.41  95.1631
 29.5156  9161.58  95.0548
 29.5576  9117.92  95.5431
 29.5996  9102.5  94.7409
 29.6416  8995.84  94.2998
 29.6836  9109.16  94.8231
 29.7256  9067.18  95.1543
 29.7676  9195.12  95.4909
 29.8096  8952.8  94.1698
 29.8516  8821.15  93.792
 29.8936  9025.78  94.9665
 29.9356  9028.76  94.7442
 29.9776  9118.06  95.3615
 30.0196  9032.81  94.3177
 30.0616  8993.93  94.4794
 30.1036  9054.47  94.6236
 30.1456  8934.72  94.2265
 30.1876  8931.75  94.188
 30.2296  8861.5  93.7686
 30.2716  9030.4  94.3037
 30.3136  9113  95.5729
 30.3556  9240.41  96.2458
 30.3976  9126.93  97.1127
 30.4396  9494.71  96.4149
 30.4816  9180.99  94.4301
 30.5236  9265.89  94.8612
 30.5656  9256.59  95.4631
 30.6076  9080.7  94.3291
 30.6496  9267.46  95.3447
 30.6916  8949.15  93.7844
 30.7336  9050.49  94.4598
 30.7756  9116.46  94.8794
 30.8176  9156.04  95.0056
 30.8596  9123.83  94.595
 30.9016  9073.09  94.2201
 30.9436  9170.8  94.9478
 30.9856  9308.46  95.7743
 31.0276  9094.91  94.3091
 31.0696  9129.27  95.0356
 31.1116  9150.83  95.1135
 31.1536  9018.17  94.3112
 31.1956  8967.6  94.1253
 31.2376  8827.75  93.4122
 31.2796  8934.7  93.5296
 31.3216  8942.43  93.5008
 31.3636  9001.17  94.4804
 31.4056  8920.46  95.3536
 31.4476  8989.5  93.6612
 31.4896  9126.03  94.8635
 31.5316  9105.12  94.2062
 31.5736  9480.2  95.9135
 31.6156  9330.1  95.1568
 31.6576  9262.56  94.875
 31.6996  9217.52  94.3239
 31.7416  9213.75  95.2602
 31.7836  9151.27  94.0851
 31.8256  8966.47  93.4533
 31.8676  9266.99  94.9349
 31.9096  8911.72  93.3111
 31.9516  8758.07  92.8131
 31.9936  8845.14  93.0926
 32.0356  9061.45  94.2771
 32.0776  8950.83  93.5973
 32.1196  9072.81  94.2516
 32.1616  9176.16  94.3244
 32.2036  8855.62  93.1645
 32.2456  8883.99  93.6828
 32.2876  8821.18  92.7008
 32.3296  8775.45  92.5882
 32.3716  8616.46  91.85
 32.4136  8747.31  92.7509
 32.4556  8806.21  92.5041
 32.4976  8791.24  92.3274
 32.5396  8657.85  91.6474
 32.5816  8708.67  92.038
 32.6236  8703.13  92.0691
 32.6656  8723.77  92.7212
 32.7076  8668.56  92.0823
 32.7496  8589.92  91.3461
 32.7916  8661.67  91.6873
 32.8336  8700.46  91.981
 32.8756  8799.84  92.233
 32.9176  8623.89  91.7845
 32.9596  8693.58  92.2222
 33.0016  8632.95  91.6702
 33.0436  8651.89  91.9553
 33.0856  8733.23  92.4753
 33.1276  8535.65  91.1545
 33.1696  8652.98  91.6247
 33.2116  8610.99  91.6225
 33.2536  8767.33  92.4365
 33.2956  8592.07  91.5995
 33.3376  8482.83  90.8429
 33.3796  8618.83  91.6999
 33.4216  8577.72  91.0781
 33.4636  8685.06  91.7992
 33.5056  8461.22  90.8442
 33.5476  8513.12  91.1033
 33.5896  8544.15  91.0445
 33.6316  8595.99  91.6497
 33.6736  8372.49  90.692
 33.7156  8344.38  90.5661
 33.7576  8582.06  91.4907
 33.7996  8498.16  90.8091
 33.8416  8393.37  90.4347
 33.8836  8414.2  90.326
 33.9256  8567.16  91.1971
 33.9676  8596.72  91.2483
 34.0096  8402.55  90.5265
 34.0516  8299.93  89.6128
 34.0936  8313.86  89.9552
 34.1356  8565.59  91.0518
 34.1776  8272.59  89.4704
 34.2196  8303.49  89.8124
 34.2616  8194.56  89.3672
 34.3036  8349.04  90.4359
 34.3456  8341.9  90.1676
 34.3876  8393.84  90.5083
 34.4296  8315.67  89.6838
 34.4716  8410.71  90.3513
 34.5136  8382.13  90.3896
 34.5556  8173.95  89.5087
 34.5976  8447.84  90.8385
 34.6396  8270.1  89.5705
 34.6816  8387  90.2967
 34.7236  8302.32  89.6264
 34.7656  8291.34  89.7749
 34.8076  8263.2  89.9481
 34.8496  8278.77  89.8782
 34.8916  8325.53  89.999
 34.9336  8313.81  89.9188
 34.9756  8498.6  90.8634
 35.0176  8357.47  90.6011
 35.0596  8478.14  91.0741
 35.1016  8184.39  89.2434
 35.1436  8451.06  90.3677
 35.1856  8210.84  89.1925
 35.2276  8230.53  89.4717
 35.2696  8286.48  89.9758
 35.3116  8143.22  89.2906
 35.3536  8288.17  89.8241
 35.3956  8285.3  89.485
 35.4376  8235.56  89.7853
 35.4796  8207.54  89.6668
 35.5216  8208.75  89.6402
 35.5636  8113.07  89.8332
 35.6056  8163.83  89.158
 35.6476  8275.66  89.6693
 35.6896  8236.09  89.6237
 35.7316  8047.53  88.493
 35.7736  8165.97  89.325
 35.8156  8224.25  89.6402
 35.8576  8122.85  89.3317
 35.8996  8244.83  89.9683
 35.9416  8079.25  88.5817
 35.9836  8048.85  88.8615
 36.0256  8375.03  90.5421
 36.0676  8422.42  90.323
 36.1096  8254.43  89.7866
 36.1516  8297.1  89.9142
 36.1936  8169.33  89.033
 36.2356  8167.77  89.6982
 36.2776  8142.56  89.0225
 36.3196  8040.55  88.1596
 36.3616  8122.02  88.7347
 36.4036  8086.77  88.6119
 36.4456  8081.47  88.7859
 36.4876  7997.15  88.2598
 36.5296  8083.21  88.7718
 36.5716  8040.16  89.2995
 36.6136  8049.01  88.1513
 36.6556  8063.63  88.4276
 36.6976  7736.29  87.0907
 36.7396  7865.44  87.5522
 36.7816  7836.68  87.761
 36.8236  7870.94  87.862
 36.8656  7865.97  87.9152
 36.9076  7796.56  87.5337
 36.9496  7794.85  87.3893
 36.9916  7740.12  86.7232
 37.0336  7909.54  87.9766
 37.0756  7883.31  87.6268
 37.1176  7635.12  86.4901
 37.1596  7828.46  87.588
 37.2016  7735.52  87.2399
 37.2436  7949.11  87.8095
 37.2856  7767.25  87.0407
 37.3276  7944.56  87.4018
 37.3696  7761.5  87.2512
 37.4116  7848.89  87.6499
 37.4536  7722.73  86.8111
 37.4956  7634.56  86.3545
 37.5376  7877.79  89.2886
 37.5796  7747.35  88.4758
 37.6216  7817.23  87.1689
 37.6636  7931.93  87.6939
 37.7056  7936.59  87.9136
 37.7476  7983.74  87.722
 37.7896  7840.62  87.431
 37.8316  7800.9  87.36
 37.8736  7806.56  86.9286
 37.9156  7875.49  87.3113
 37.9576  7776.35  86.6713
 37.9996  7821.42  86.6357
 38.0416  7837.41  87.515
 38.0836  7919.84  87.8887
 38.1256  7757.67  86.9538
 38.1676  7816.54  87.4062
 38.2096  7922.98  87.6115
 38.2516  7847.57  87.4029
 38.2936  7853.26  87.2406
 38.3356  7841.72  87.109
 38.3776  7752.77  86.8556
 38.4196  7760.22  86.7635
 38.4616  7795.85  87.2002
 38.5036  7879.43  87.5117
 38.5456  7699.31  87.3189
 38.5876  7707.8  87.3728
 38.6296  7847.61  87.1493
 38.6716  7744.35  86.3803
 38.7136  7685.7  86.0073
 38.7556  7652.4  86.3158
 38.7976  7710.16  86.5638
 38.8396  7702.67  86.9782
 38.8816  7746.61  87.0248
 38.9236  7715.93  86.6538
 38.9656  7758.27  86.796
 39.0076  7754.73  86.2015
 39.0496  7924.74  87.6884
 39.0916  7808.46  86.69
 39.1336  7716.62  86.5772
 39.1756  7715.7  86.633
 39.2176  7668.92  86.8984
 39.2596  7812.15  87.6267
 39.3016  7728.19  86.7516
 39.3436  7665.44  86.7942
 39.3856  7754.75  86.7617
 39.4276  7807.23  87.5564
 39.4696  7766.08  86.9458
 39.5116  7738.81  87.3053
 39.5536  7761.38  87.8361
 39.5956  7768.7  87.0023
 39.6376  7685.71  86.5292
 39.6796  7696.62  86.3451
 39.7216  7652.17  86.1966
 39.7636  7648.21  86.7264
 39.8056  7770.15  87.206
 39.8476  7678.72  86.9393
 39.8896  7693.2  86.6545
 39.9316  7604.6  86.4007
 39.9736  7732.95  86.7031
 40.0156  7676.71  86.2183
 40.0576  7641.74  86.37
 40.0996  7846.53  86.7149
 40.1416  7759.66  87.0175
 40.1836  7766.14  86.9453
 40.2256  7733.47  86.7884
 40.2676  7588.98  86.1528
 40.3096  7705.01  86.6749
 40.3516  7696.29  86.7252
 40.3936  7794.63  86.8448
 40.4356  7705.71  86.545
 40.4776  7791.57  87.2567
 40.5196  7789.84  87.5403
 40.5616  7882.34  87.7032
 40.6036  7734.65  87.1354
 40.6456  7729.94  86.7089
 40.6876  7894.83  87.634
 40.7296  7711.89  86.7425
 40.7716  7724.98  86.9404
 40.8136  7696.17  86.7232
 40.8556  7851.86  87.7255
 40.8976  7776.26  87.2275
 40.9396  7735.53  87.339
 40.9816  7779.27  86.8863
 41.0236  7706.07  86.2621
 41.0656  7696.05  86.7348
 41.1076  7782.17  86.9864
 41.1496  7729.96  86.5984
 41.1916  7689.44  86.6836
 41.2336  7718.06  86.8531
 41.2756  7766.06  86.7275
 41.3176  7652.67  86.6892
 41.3596  7700.96  86.7079
 41.4016  7695.24  86.9317
 41.4436  7798.97  87.3021
 41.4856  7732.55  87.0923
 41.5276  7713.08  86.999
 41.5696  7782.8  87.0101
 41.6116  7700.26  86.9469
 41.6536  7767.72  87.1792
 41.6956  7853.81  87.6451
 41.7376  7673.69  86.7344
 41.7796  7579.53  86.1406
 41.8216  7673.69  86.8567
 41.8636  7682.54  86.8502
 41.9056  7571.56  86.0128
 41.9476  7772.22  87.3826
 41.9896  7885.76  87.6764
 42.0316  7815.24  87.3764
 42.0736  7757.26  87.1811
 42.1156  7707.91  86.7
 42.1576  7688.22  86.702
 42.1996  7853.91  87.7485
 42.2416  7700.02  86.495
 42.2836  7641.61  86.2785
 42.3256  7668.63  86.5401
 42.3676  7878.51  87.5208
 42.4096  7746  86.7489
 42.4516  7720.74  86.6794
 42.4936  7631.54  86.2558
 42.5356  7599  86.2099
 42.5776  7635.14  86.3503
 42.6196  7674.08  86.6272
 42.6616  7630.92  86.5524
 42.7036  7629.86  85.9405
 42.7456  7811.19  87.3129
 42.7876  7591.73  86.149
 42.8296  7643.57  86.296
 42.8716  7447.22  85.3421
 42.9136  7476.1  85.264
 42.9556  7663.98  86.4978
 42.9976  7618.13  86.1947
 43.0396  7715.18  86.4789
 43.0816  7560.17  85.9869
 43.1236  7614.79  86.3388
 43.1656  7653.94  86.3938
 43.2076  7558.28  85.9597
 43.2496  7532.64  85.6406
 43.2916  7540.91  86.0432
 43.3336  7569.65  86.0373
 43.3756  7609.26  86.0284
 43.4176  7498.82  85.4787
 43.4596  7544.1  85.5924
 43.5016  7547.2  86.0077
 43.5436  7450.91  85.3648
 43.5856  7483.06  85.5809
 43.6276  7550.82  85.8537
 43.6696  7498.1  85.6967
 43.7116  7603.2  85.9091
 43.7536  7491.29  85.7675
 43.7956  7432.53  86.6186
 43.8376  7401.39  84.986
 43.8796  7347.47  84.7537
 43.9216  7377.14  84.8359
 43.9636  7323.87  84.6471
 44.0056  7467.94  85.6986
 44.0476  7330.76  84.5472
 44.0896  7259.49  84.4701
 44.1316  7405.84  84.9861
 44.1736  7302.48  84.3778
 44.2156  7397.91  84.7707
 44.2576  7246.42  84.2274
 44.2996  7402.34  85.0964
 44.3416  7368.28  84.6631
 44.3836  7275.4  84.4583
 44.4256  7204.04  83.6896
 44.4676  7280.64  84.2868
 44.5096  7360.46  84.8913
 44.5516  7303.61  84.5281
 44.5936  7147.4  83.5727
 44.6356  7320.76  84.3227
 44.6776  7312.8  84.5886
 44.7196  7289.66  84.7577
 44.7616  7376.29  86.575
 44.8036  7448.69  85.6401
 44.8456  7516.88  86.0303
 44.8876  7476.47  85.6456
 44.9296  7566.06  85.5943
 44.9716  7398  85.0619
 45.0136  7555.47  85.9094
 45.0556  7414.46  85.1928
 45.0976  7248.13  84.2631
 45.1396  7287.06  84.25
 45.1816  7354.3  84.5923
 45.2236  7438.07  84.9758
 45.2656  7371.74  85.0847
 45.3076  7398.93  85.0372
 45.3496  7284.22  84.6748
 45.3916  7360.16  85.3803
 45.4336  7490.68  85.9798
 45.4756  7327.02  84.8906
 45.5176  7385.04  84.8439
 45.5596  7475.11  85.4813
 45.6016  7230.54  84.4876
 45.6436  7423.88  84.7883
 45.6856  7409.14  85.3535
 45.7276  7233.46  85.6348
 45.7696  7340.27  85.9457
 45.8116  7349.01  85.4189
 45.8536  7245.69  84.7223
 45.8956  7389.08  84.9139
 45.9376  7434.54  84.6355
 45.9796  7486.95  85.6372
 46.0216  7379.35  85.3399
 46.0636  7471.31  85.0197
 46.1056  7296.63  84.0029
 46.1476  7398.51  85.1861
 46.1896  7338.84  84.9902
 46.2316  7187.66  83.9737
 46.2736  7319.48  84.9608
 46.3156  7400.9  85.1753
 46.3576  7380.77  85.2551
 46.3996  7386.49  85.4489
 46.4416  7269.91  84.3325
 46.4836  7319.17  84.9985
 46.5256  7394.12  85.3687
 46.5676  7182.88  84.2537
 46.6096  7352.16  85.1766
 46.6516  7364.3  84.2862
 46.6936  7361.21  84.7665
 46.7356  7413.85  85.1643
 46.7776  7344.39  85.6136
 46.8196  7251.52  84.8095
 46.8616  7150.03  84.0256
 46.9036  7189.48  83.9072
 46.9456  7143.65  83.2885
 46.9876  7310.27  84.3362
 47.0296  7223.11  84.5222
 47.0716  7221.32  84.3318
 47.1136  7200.44  83.8864
 47.1556  7235.73  83.9427
 47.1976  7323.34  84.6274
 47.2396  7197.15  84.2178
 47.2816  7160.29  83.7035
 47.3236  7242.34  84.549
 47.3656  7303.87  84.841
 47.4076  7217.09  84.0578
 47.4496  7100.77  83.5415
 47.4916  7131.41  83.915
 47.5336  7294.47  84.6834
 47.5756  7276.12  84.7007
 47.6176  7218  84.2603
 47.6596  7191.2  83.8182
 47.7016  7263.24  84.0447
 47.7436  7265.13  84.3928
 47.7856  7181.07  83.9389
 47.8276  7135.89  83.721
 47.8696  7205.11  84.2099
 47.9116  7345.94  84.7397
 47.9536  7096.81  83.2319
 47.9956  7171.05  84.3776
 48.0376  7118.25  83.8412
 48.0796  7271.65  84.8618
 48.1216  7137.99  83.9015
 48.1636  7273.64  84.2731
 48.2056  7159.65  83.8714
 48.2476  7254.1  84.7335
 48.2896  7293.28  84.8626
 48.3316  7164.74  84.0628
 48.3736  7281.19  84.7622
 48.4156  7214.69  84.228
 48.4576  7192.18  84.3905
 48.4996  7339.4  84.6978
 48.5416  7377.56  85.2461
 48.5836  7263.33  84.2563
 48.6256  7311.2  84.7542
 48.6676  7331.01  85.3839
 48.7096  7211.05  83.939
 48.7516  7245.4  84.2916
 48.7936  7104.32  83.5334
 48.8356  7208.66  84.1944
 48.8776  7186.87  84.556
 48.9196  7351.02  84.9637
 48.9616  7157.06  84.2187
 49.0036  7202.08  84.8325
 49.0456  7078.95  84.0811
 49.0876  7244.8  84.6981
 49.1296  7097.07  83.8962
 49.1716  7061.16  83.5513
 49.2136  7207.45  84.3203
 49.2556  7397.23  85.467
 49.2976  7220.23  84.51
 49.3396  7037.86  83.4837
 49.3816  7167.83  83.6892
 49.4236  7203.67  84.3191
 49.4656  7103.23  83.7451
 49.5076  7086.89  83.4083
 49.5496  7065.99  83.3441
 49.5916  7254.01  84.3643
 49.6336  7211.9  84.3243
 49.6756  7196.46  84.4599
 49.7176  7113.1  83.9197
 49.7596  7143.01  83.8644
 49.8016  7200.05  84.112
 49.8436  7040.97  83.4781
 49.8856  7144.35  84.0966
 49.9276  7048.19  83.623
 49.9696  7170.59  84.3332
 50.0116  7096.53  84.0253
 50.0536  7111.01  84.0503
 50.0956  7008.76  83.52
 50.1376  7077.76  83.6289
 50.1796  7052.62  83.7544
 50.2216  7059.6  83.7862
 50.2636  7100.36  83.6449
 50.3056  7066.02  83.616
 50.3476  7048.39  83.5355
 50.3896  6992.43  83.1775
 50.4316  7099.27  83.6429
 50.4736  7055.41  83.5928
 50.5156  7092.5  83.8014
 50.5576  7178.15  84.0742
 50.5996  7083.7  83.7984
 50.6416  7145.53  84.0936
 50.6836  7142.97  84.1333
 50.7256  7149.43  84.0826
 50.7676  7241.76  84.9274
 50.8096  7099.19  83.659
 50.8516  6970.92  83.3198
 50.8936  6884.35  82.5836
 50.9356  7093.71  83.932
 50.9776  7060.92  83.8998
 51.0196  6805  82.4912
 51.0616  6984.8  82.8876
 51.1036  7063.96  83.7214
 51.1456  6921  82.7775
 51.1876  6965.23  82.3768
 51.2296  6973.48  83.0735
 51.2716  6779.47  81.6163
 51.3136  6780.34  82.0782
 51.3556  6756.12  81.5528
 51.3976  6788.48  81.8937
 51.4396  6702.29  81.6874
 51.4816  6795.86  82.1086
 51.5236  6928.34  82.9912
 51.5656  6819.93  81.934
 51.6076  6858.11  82.2487
 51.6496  6844.56  82.3587
 51.6916  6804.65  82.4771
 51.7336  6786.95  82.4583
 51.7756  6762.14  82.0051
 51.8176  6870.32  82.7722
 51.8596  6711.86  81.8265
 51.9016  6922.91  82.7045
 51.9436  6932.11  84.2685
 51.9856  6949.91  84.7862
 52.0276  6997.89  83.5489
 52.0696  7069.31  84.0537
 52.1116  6805.07  82.5825
 52.1536  6973.9  83.441
 52.1956  6974.8  82.9525
 52.2376  7024.62  83.4179
 52.2796  6884.54  82.4017
 52.3216  6792.44  82.5209
 52.3636  6827.1  82.3143
 52.4056  6706.58  81.4481
 52.4476  6832.08  82.5572
 52.4896  6817.54  82.5327
 52.5316  6815.44  82.5722
 52.5736  6744.93  81.8531
 52.6156  6848.06  82.8857
 52.6576  6822.53  82.1597
 52.6996  6616.85  81.8932
 52.7416  6675.99  82.1104
 52.7836  6980.08  83.8507
 52.8256  6792.24  81.923
 52.8676  6654.44  81.6603
 52.9096  6809.73  82.6789
 52.9516  6793  82.9686
 52.9936  6774.68  83.222
 53.0356  6866.7  82.7846
 53.0776  6888.98  83.2191
 53.1196  6908.97  83.4382
 53.1616  6843.15  83.0863
 53.2036  6779.31  82.6608
 53.2456  6824.6  83.0437
 53.2876  6825.11  82.7398
 53.3296  6798.18  82.8936
 53.3716  6894.26  83.2362
 53.4136  6771.87  82.6405
 53.4556  6708.1  82.2839
 53.4976  6735.9  82.2753
 53.5396  6732.76  82.6757
 53.5816  6796.28  82.6912
 53.6236  6764.43  82.8486
 53.6656  6762.62  82.4347
 53.7076  6827.47  82.7935
 53.7496  6887.9  83.2919
 53.7916  6852.47  83.206
 53.8336  6678.74  82.0524
 53.8756  6622.37  82.2429
 53.9176  6602.76  81.4653
 53.9596  6568.48  82.0219
 54.0016  6501.97  80.9284
 54.0436  6406.42  80.5594
 54.0856  6559.79  80.9428
 54.1276  6501.14  80.7771
 54.1696  6465.01  80.7197
 54.2116  6602.59  81.3221
 54.2536  6602.52  81.1207
 54.2956  6589.88  81.1002
 54.3376  6392.73  80.3741
 54.3796  6468.28  80.7327
 54.4216  6600.43  81.6149
 54.4636  6410.65  80.3976
 54.5056  6498.8  80.7531
 54.5476  6366.03  80.2518
 54.5896  6452.61  80.6473
 54.6316  6396.36  80.1436
 54.6736  6460.43  80.5745
 54.7156  6482.39  80.761
 54.7576  6407.14  80.2725
 54.7996  6605.66  81.6906
 54.8416  6422.66  80.5994
 54.8836  6503.48  81.2017
 54.9256  6392.61  80.2553
 54.9676  6361.58  79.9269
 55.0096  6316.87  79.6915
 55.0516  6264.39  79.5177
 55.0936  6354.05  79.8223
 55.1356  6240.73  79.1453
 55.1776  6502.09  81.0136
 55.2196  6374.47  80.0052
 55.2616  6495.62  81.0072
 55.3036  6361.98  80.3129
 55.3456  6297.98  80.0472
 55.3876  6390.57  80.3682
 55.4296  6246.52  79.4567
 55.4716  6336.74  80.0542
 55.5136  6313.74  79.6763
 55.5556  6489.35  80.8425
 55.5976  6276.68  79.5868
 55.6396  6334  79.8037
 55.6816  6310.08  79.6037
 55.7236  6219.08  79.0752
 55.7656  6344.57  79.6123
 55.8076  6274.6  79.1661
 55.8496  6443.02  80.641
 55.8916  6340.58  80.0508
 55.9336  6465.18  80.7062
 55.9756  6230.53  79.1204
 56.0176  6277.96  79.5695
 56.0596  6213.28  79.143
 56.1016  6185.46  79.0204
 56.1436  6261.47  79.7216
 56.1856  6203.22  79.1015
 56.2276  6345.88  80.0519
 56.2696  6294.82  79.7088
 56.3116  6404.21  80.7763
 56.3536  6227.51  79.3344
 56.3956  6259.8  79.51
 56.4376  6270.8  79.6202
 56.4796  6114.64  78.4529
 56.5216  6106.13  78.7553
 56.5636  6181.31  78.8152
 56.6056  6301.38  79.8208
 56.6476  6231.31  78.9743
 56.6896  6310.38  79.9385
 56.7316  6134.46  78.7586
 56.7736  6213.63  79.2411
 56.8156  6124.02  78.6955
 56.8576  6056.16  78.1936
 56.8996  6130.4  78.5713
 56.9416  6082  78.5607
 56.9836  6231.01  79.0694
 57.0256  6116.18  78.6319
 57.0676  6214.9  79.3894
 57.1096  6192.89  79.0185
 57.1516  6076.43  78.3095
 57.1936  6139.94  78.4953
 57.2356  6049.25  78.249
 57.2776  6167.62  78.98
 57.3196  6114.3  78.9659
 57.3616  6167.37  78.8177
 57.4036  6196.2  79.0627
 57.4456  6262.03  79.4504
 57.4876  6087.54  78.2102
 57.5296  6064.42  78.2863
 57.5716  6081.04  78.4952
 57.6136  5942.23  77.4394
 57.6556  6069.26  78.3825
 57.6976  6069.55  78.2215
 57.7396  5989.59  78.0398
 57.7816  5978.57  78.3336
 57.8236  6087.67  78.8414
 57.8656  6103.53  78.6138
 57.9076  6054.64  78.3133
 57.9496  6070.38  78.7894
 57.9916  6103.39  78.4866
 58.0336  6042.49  78.3885
 58.0756  6222.67  79.134
 58.1176  6046.74  78.0417
 58.1596  5979.36  78.191
 58.2016  5904.22  76.9333
 58.2436  5786.24  76.555
 58.2856  5792.57  76.5252
 58.3276  5697.87  76.2473
 58.3696  5666.19  75.8017
 58.4116  5731.99  76.1086
 58.4536  5920.84  77.2423
 58.4956  5698  75.9504
 58.5376  5951.84  77.2
 58.5796  5760.85  76.365
 58.6216  5882.82  76.9901
 58.6636  5808.25  76.7057
 58.7056  5856.67  76.8816
 58.7476  5776.68  76.7834
 58.7896  5776.3  76.4424
 58.8316  5833.92  76.8165
 58.8736  5877.22  77.1125
 58.9156  5755.31  76.35
 58.9576  5720.83  76.4316
 58.9996  5862.54  76.6361
 59.0416  5816.37  76.6909
 59.0836  5864.3  76.9251
 59.1256  5753.21  76.8762
 59.1676  5764.13  77.2512
 59.2096  5744.8  76.4491
 59.2516  5835.51  76.6386
 59.2936  5727.6  76.2461
 59.3356  5841.39  76.8795
 59.3776  5752.25  76.4557
 59.4196  5778.94  76.5659
 59.4616  5788.27  76.4949
 59.5036  5581.96  75.1527
 59.5456  5891.42  76.9056
 59.5876  5770.44  76.2986
 59.6296  5755.27  76.2658
 59.6716  5831.7  76.8275
 59.7136  5905.59  77.3011
 59.7556  5807.23  76.7885
 59.7976  5722.74  75.9768
 59.8396  5923.16  77.1911
 59.8816  5747.02  76.5667
 59.9236  5755.05  76.2724
 59.9656  5641.68  75.7688
 60.0076  5772.78  76.0163
 60.0496  5712.79  76.1096
 60.0916  5821.41  76.2593
 60.1336  5664.76  76.2986
 60.1756  5741.86  77.9708
 60.1996  0.0000000E+00  0.0000000E+00