File: docs/examples/XRD/IS17_D/Data/IS17_D/17_Da_f00125.xye
# /beamlines/bl04/projects/cycle2025-II/20250340211-lsimonelli/DATA/IS17_D/17_Da_f00125.xye : mythproc.py merge -s 0.006 -l 0.5 -f /beamlines/bl04/inhouse/ff/FlatField/ff_20Nov2024rod8mm60s_17keV.raw -b True -c true -o xye /beamlines/bl04/projects/cycle2025-II/20250340211-lsimonelli/DATA/IS17_D/17_Da_00125.dat
# IsMon = [6768858, 6772979, 6774298]  IsPos = [-1.4999, -2.4884, -3.4988]
# Wave = 0.4962  CalPath /beamlines/bl04/projects/cycle2025-II/20250340211-lsimonelli/DATA/Align/Si_Pos1_25keV_f00001.cal
# Date = 2025-09-25_04:25:14 Dt = 4.8000  Bin = 0.0060  <imon> = 6772045 +/- 2317 (Min/Max) 6768858 / 6774298
# icurr 251.3830  mocoIn 1.7143E-05  mocoOut 0.8045  i15 7.08932e+06  imon 6.77204e+06  i7 5.6667  iEMpd_timer 4.8000  iEMpd_1 3.6739E-08  iEMpd_2 7.9653E-08  iEMpd_3 1.7067E-08  iEMpd_4 4.9450E-08  iEMhp_timer 4.8000  iEMhp_1 4.9107E-06  iEMhp_2 -2.5318E-08  iEMhp_3 -2.5698E-08  iEMhp_4 -2.2339E-08
#      9776
 1.5856  40764.5  207.37
 1.6276  48414.2  222.114
 1.6696  54470.3  234.766
 1.7116  63043.6  253.06
 1.7536  72774.1  270.73
 1.7956  77247.8  279.625
 1.8376  73175.5  272.586
 1.8796  61752.2  248.569
 1.9216  50019.6  224.601
 1.9636  41815.7  204.516
 2.0056  37710.1  193.464
 2.0476  34943  188.272
 2.0896  33839.9  184.19
 2.1316  33075.8  181.223
 2.1736  31567.9  178.449
 2.2156  31540.3  176.939
 2.2576  30437.5  174.442
 2.2996  29179.5  171.425
 2.3416  29746.5  171.701
 2.3836  29318.9  170.568
 2.4256  28394.1  168.403
 2.4676  27754.2  166.259
 2.5096  27603.5  165.861
 2.5516  27075.6  168.042
 2.5936  26895  164.105
 2.6356  26556.7  163.757
 2.6776  26191.5  161.523
 2.7196  26134.5  161.863
 2.7616  26051  161.384
 2.8036  25516  159.888
 2.8456  25286.6  159.778
 2.8876  25076.2  158.983
 2.9296  24676.2  157.843
 2.9716  24387  156.41
 3.0136  24240  156.004
 3.0556  24349.4  156.752
 3.0976  24165.5  155.105
 3.1396  23810.4  154.667
 3.1816  23739.8  154.368
 3.2236  23619.5  153.975
 3.2656  23438.2  152.422
 3.3076  23675.1  154.65
 3.3496  23612.4  153.384
 3.3916  24161.6  154.988
 3.4336  24504.3  156.661
 3.4756  24982.3  158.12
 3.5176  25741.9  160.289
 3.5596  25609.2  162.31
 3.6016  25888.9  160.79
 3.6436  25024.7  159.182
 3.6856  24560.2  155.998
 3.7276  23631.5  154.104
 3.7696  23546.1  154.015
 3.8116  23202  152.783
 3.8536  23017.6  152.106
 3.8956  23215  152.582
 3.9376  23109.5  152.485
 3.9796  23012.4  151.677
 4.0216  23177.2  151.249
 4.0636  22907.6  151.84
 4.1056  23090.5  152.083
 4.1476  23124.8  152.523
 4.1896  23428.1  153.373
 4.2316  23425.2  153.188
 4.2736  23814.7  154.242
 4.3156  24332.9  156.14
 4.3576  24937.2  157.995
 4.3996  25112.6  158.803
 4.4416  25710.2  160.271
 4.4836  26037.6  161.437
 4.5256  26498.4  163.483
 4.5676  26580.6  163.985
 4.6096  27123.9  164.31
 4.6516  27501.2  165.152
 4.6936  27643  166.386
 4.7356  27878.2  166.926
 4.7776  27616.3  165.966
 4.8196  27568.9  166.488
 4.8616  27072.9  164.458
 4.9036  26719.5  163.131
 4.9456  26619.2  163.469
 4.9876  26179.6  162.016
 5.0296  26486  162.768
 5.0716  26273.2  162.891
 5.1136  26461.1  163.192
 5.1556  26830.9  163.782
 5.1976  27050.4  164.459
 5.2396  27273  164.819
 5.2816  27033.9  164.566
 5.3236  27426  165.449
 5.3656  26895.8  164.764
 5.4076  26730.2  164.411
 5.4496  26753.5  163.958
 5.4916  26887.1  164.131
 5.5336  26953.5  164.334
 5.5756  26823.1  163.978
 5.6176  27177.6  164.482
 5.6596  27054.4  165.097
 5.7016  27366.2  165.297
 5.7436  27529.9  166.066
 5.7856  27190  165.092
 5.8276  27879.5  166.889
 5.8696  27877.2  167.063
 5.9116  27915  167.779
 5.9536  28052.5  167.954
 5.9956  28342.8  168.175
 6.0376  28442.2  169.111
 6.0796  28706.7  169.721
 6.1216  28671.1  169.817
 6.1636  28998.4  169.84
 6.2056  28850.7  170.073
 6.2476  29088.1  170.65
 6.2896  29404.8  171.257
 6.3316  29179.9  170.784
 6.3736  29200.1  170.729
 6.4156  29443  171.338
 6.4576  29600  171.392
 6.4996  29861.5  172.623
 6.5416  29619.2  172.066
 6.5836  29653.9  172.392
 6.6256  29865.8  172.574
 6.6676  30496.1  173.949
 6.7096  30221.6  174.029
 6.7516  30686.1  175.008
 6.7936  30773.9  174.68
 6.8356  31071.4  175.602
 6.8776  31269.3  176.962
 6.9196  31163.6  177.072
 6.9616  31844.1  178.427
 7.0036  32259.3  179.238
 7.0456  31975.2  177.741
 7.0876  32080.7  179.735
 7.1296  32083.7  178.877
 7.1716  32071.2  178.379
 7.2136  31795.4  177.386
 7.2556  32245  178.801
 7.2976  32147.4  179.032
 7.3396  32215.1  179.43
 7.3816  31823.5  178.557
 7.4236  32241.6  179.012
 7.4656  32444.3  179.056
 7.5076  32695.5  179.883
 7.5496  32757  180.589
 7.5916  32765.4  180.65
 7.6336  33144.1  181.585
 7.6756  33376.7  182.072
 7.7176  33506.7  182.738
 7.7596  33522.6  184.034
 7.8016  33717.3  186.771
 7.8436  34408.1  185.289
 7.8856  34829.5  186.03
 7.9276  35361.2  187.839
 7.9696  35400.3  188.261
 8.0116  36394  189.402
 8.0536  36325.6  189.478
 8.0956  36478.5  191.071
 8.1376  37058.6  192.051
 8.1796  37101.4  192.713
 8.2216  38393.2  194.748
 8.2636  38206  194.527
 8.3056  37872.5  194.453
 8.3476  39002.2  196.649
 8.3896  38501.1  195.463
 8.4316  38836.8  196.481
 8.4736  38687.9  195.565
 8.5156  38216.8  194.648
 8.5576  38292.1  195.834
 8.5996  38143.8  194.306
 8.6416  37949.6  195.087
 8.6836  38188  195.524
 8.7256  38452.4  195.644
 8.7676  38004.4  197.444
 8.8096  37772.5  194.136
 8.8516  37534  193.131
 8.8936  36837.8  191.222
 8.9356  37176.8  192.468
 8.9776  37276.5  192.807
 9.0196  37080.5  191.983
 9.0616  37048.2  191.364
 9.1036  36875.6  192.116
 9.1456  36923  191.568
 9.1876  37017  191.771
 9.2296  36941.4  190.965
 9.2716  36282.4  189.324
 9.3136  36293.5  189.324
 9.3556  36425.5  189.661
 9.3976  35223.3  187.051
 9.4396  35527.5  187.734
 9.4816  35100.5  186.477
 9.5236  35267.2  186.82
 9.5656  35069.8  186.616
 9.6076  34693.3  186.148
 9.6496  34457.5  185.442
 9.6916  34711.8  186.087
 9.7336  34447.2  185.162
 9.7756  34990.2  187.885
 9.8176  34083.1  184.944
 9.8596  33884  182.83
 9.9016  33400.2  181.515
 9.9436  33153.5  180.757
 9.9856  32991.1  180.539
 10.0276  32400.8  180.034
 10.0696  32818.4  180.219
 10.1116  31630.3  177.188
 10.1536  31840.6  177.943
 10.1956  31480  176.53
 10.2376  30982.6  174.636
 10.2796  31035.6  174.907
 10.3216  30699.1  174.228
 10.3636  30684  174.218
 10.4056  30324.3  173.586
 10.4476  30204.3  172.871
 10.4896  30434.7  172.976
 10.5316  29516.3  171.056
 10.5736  29430.5  171.221
 10.6156  29260.6  170.498
 10.6576  29550  169.876
 10.6996  29042.2  169.086
 10.7416  28609.6  168.064
 10.7836  28969.5  169.8
 10.8256  28353.7  168.422
 10.8676  28530.6  168.474
 10.9096  28125.5  167.317
 10.9516  27937.9  165.677
 10.9936  28001.2  166.062
 11.0356  27880.8  166.349
 11.0776  27658.6  164.994
 11.1196  27108.6  164.092
 11.1616  27119.4  163.806
 11.2036  27217.6  163.957
 11.2456  27226  164.699
 11.2876  27003.2  163.762
 11.3296  26859.9  163.214
 11.3716  27124.4  163.706
 11.4136  27253.6  165.006
 11.4556  27764.3  166.201
 11.4976  28207.9  166.47
 11.5396  28039.6  166.144
 11.5816  27619.4  165.363
 11.6236  27078.2  163.952
 11.6656  26738.5  162.078
 11.7076  26090.8  160.939
 11.7496  25920.6  164.402
 11.7916  25880.7  159.549
 11.8336  25784.1  160.14
 11.8756  25305.6  158.188
 11.9176  25729.1  159.15
 11.9596  25278.2  157.95
 12.0016  25194.7  158.486
 12.0436  25201.2  157.93
 12.0856  24737  156.99
 12.1276  25053  157.901
 12.1696  25045.9  157.007
 12.2116  25058.4  157.031
 12.2536  24598  156.429
 12.2956  24826.4  156.471
 12.3376  24407.1  155.369
 12.3796  24704.1  156.77
 12.4216  24508.8  155.36
 12.4636  24429.2  156.03
 12.5056  24579.5  155.769
 12.5476  24639.5  155.49
 12.5896  24639.5  156.118
 12.6316  24384.6  155.488
 12.6736  24420.6  156.083
 12.7156  24298.5  155.559
 12.7576  24507.7  156.465
 12.7996  24643.4  155.528
 12.8416  24472.3  156.049
 12.8836  24818.1  156.967
 12.9256  25094.3  156.846
 12.9676  25146  157.431
 13.0096  24794.5  157.449
 13.0516  25139.3  157.554
 13.0936  25037.3  157.648
 13.1356  25512.8  158.099
 13.1776  24913.9  157.223
 13.2196  25134.5  157.577
 13.2616  25073.5  157.692
 13.3036  25215.5  158.116
 13.3456  24956.1  157.653
 13.3876  24987.8  157.053
 13.4296  24930.2  157.014
 13.4716  25215.6  157.511
 13.5136  25186.5  157.573
 13.5556  25087.1  157.883
 13.5976  25144.7  158.203
 13.6396  25232.5  157.843
 13.6816  25014.9  157.671
 13.7236  25518.7  158.897
 13.7656  24870.8  157.404
 13.8076  25080.3  156.826
 13.8496  24726.4  156.33
 13.8916  24867.7  157.786
 13.9336  24741.7  156.595
 13.9756  24518.7  155.247
 14.0176  24570.7  156.091
 14.0596  24364.9  155.404
 14.1016  24168.2  155.171
 14.1436  24000.9  153.766
 14.1856  23687.5  153.051
 14.2276  23390.8  152.582
 14.2696  23791.9  153.714
 14.3116  23511.3  152.703
 14.3536  23098.2  151.543
 14.3956  23247.6  151.752
 14.4376  23140.1  151.178
 14.4796  23102.6  151.054
 14.5216  22684.3  150.482
 14.5636  22498.3  149.425
 14.6056  22708.7  149.695
 14.6476  22763.1  149.093
 14.6896  22255  147.962
 14.7316  22156.1  148.677
 14.7736  21880.5  146.887
 14.8156  21674.4  146.23
 14.8576  21592.2  145.802
 14.8996  21171.5  145.593
 14.9416  20873.4  144.562
 14.9836  21087.3  145.265
 15.0256  21058.5  144.055
 15.0676  20459.7  142.312
 15.1096  20532.3  142.299
 15.1516  20271.2  141.952
 15.1936  20353.3  141.66
 15.2356  19860.1  140.213
 15.2776  19881.2  139.87
 15.3196  19502.8  139.543
 15.3616  19421  139.001
 15.4036  19251.8  138.24
 15.4456  19675.7  139.411
 15.4876  19149.3  137.214
 15.5296  19203.1  137.699
 15.5716  18961.2  136.421
 15.6136  18764.5  136.048
 15.6556  18880.3  135.691
 15.6976  18717.3  135.408
 15.7396  18521.4  135.086
 15.7816  18360  133.999
 15.8236  18148.3  133.93
 15.8656  18199.3  133.91
 15.9076  17988.8  132.955
 15.9496  17855.8  135.281
 15.9916  17882.9  135.821
 16.0336  17580.3  131.56
 16.0756  17780.7  132.613
 16.1176  17657.3  132.225
 16.1596  17244.3  131.855
 16.2016  17493.9  131.531
 16.2436  17226.8  130.915
 16.2856  17169.1  130.237
 16.3276  16731.5  128.985
 16.3696  17110.1  130.255
 16.4116  16893.1  129.888
 16.4536  17084.2  130.401
 16.4956  16782.3  128.987
 16.5376  16748.1  129.043
 16.5796  16769.2  128.471
 16.6216  16862.1  129.141
 16.6636  16655.8  128.496
 16.7056  16750.6  128.734
 16.7476  16803.2  128.46
 16.7896  16746.4  129.001
 16.8316  16669.6  128.673
 16.8736  16746  129.231
 16.9156  16903.9  130.172
 16.9576  16648.2  129.997
 16.9996  16536.6  130.042
 17.0416  16876.2  129.694
 17.0836  16439.9  127.78
 17.1256  16447.4  127.818
 17.1676  16510.8  128.049
 17.2096  16091.1  126.294
 17.2516  16096.7  126.09
 17.2936  16282.7  127.16
 17.3356  15868.7  125.539
 17.3776  15809  125.486
 17.4196  15886.2  125.48
 17.4616  15747  124.851
 17.5036  15627.7  124.739
 17.5456  15455.1  124.7
 17.5876  15415.2  123.58
 17.6296  15593.5  124.109
 17.6716  15413.6  123.974
 17.7136  15154.1  123.068
 17.7556  15174.5  123.436
 17.7976  15092.4  122.847
 17.8396  15158.1  122.607
 17.8816  15353.9  123.945
 17.9236  15029.5  122.44
 17.9656  15178.1  123.579
 18.0076  15099.6  122.837
 18.0496  15123.3  122.058
 18.0916  15139.8  122.665
 18.1336  15136.5  122.751
 18.1756  15266  122.798
 18.2176  14869.9  121.428
 18.2596  14953.5  121.499
 18.3016  14968.6  121.821
 18.3436  15083.6  122.288
 18.3856  14825.7  121.382
 18.4276  14995.8  121.745
 18.4696  14838.4  121.196
 18.5116  14690.5  120.883
 18.5536  15044  122.686
 18.5956  14608.4  120.451
 18.6376  14574.1  120.715
 18.6796  14733.9  120.686
 18.7216  14782.2  121.383
 18.7636  14506.1  120.234
 18.8056  14536.7  120.303
 18.8476  14375.1  120.257
 18.8896  14670.5  120.816
 18.9316  14701  120.923
 18.9736  14560.1  120.033
 19.0156  14506.3  120.226
 19.0576  14395.8  118.629
 19.0996  14601.1  120.189
 19.1416  14277.5  119.245
 19.1836  14505.3  119.786
 19.2256  14299.3  119.148
 19.2676  14368.6  119.534
 19.3096  14441  120.072
 19.3516  14379.4  119.779
 19.3936  14252.7  119.149
 19.4356  14379.4  119.547
 19.4776  14519.7  120.224
 19.5196  14390.1  119.537
 19.5616  14297.1  119.411
 19.6036  14282.4  118.841
 19.6456  14266.3  118.897
 19.6876  14408  119.124
 19.7296  14364.8  119.415
 19.7716  14306.2  119.323
 19.8136  14353.6  119.746
 19.8556  14669  120.516
 19.8976  14636.4  120.448
 19.9396  14863.9  120.95
 19.9816  15207.8  122.581
 20.0236  15165.7  122.643
 20.0656  15125.1  122.469
 20.1076  14612.2  120.858
 20.1496  14590.1  120.767
 20.1916  14292.1  119.043
 20.2336  14136.1  118.316
 20.2756  14187.7  118.969
 20.3176  13921.8  117.593
 20.3596  13901  117.475
 20.4016  13834.2  117.001
 20.4436  13877  117.737
 20.4856  13663.8  116.633
 20.5276  13616.1  116.883
 20.5696  13664.3  116.552
 20.6116  13688.7  116.932
 20.6536  13730  116.608
 20.6956  13435.3  115.48
 20.7376  13525  116.087
 20.7796  13487.1  115.612
 20.8216  13570.4  115.674
 20.8636  13530.3  115.873
 20.9056  13506.4  115.715
 20.9476  13201.2  114.255
 20.9896  13567  115.685
 21.0316  13583.8  115.642
 21.0736  13548.5  116.025
 21.1156  13442.5  115.732
 21.1576  13412.6  115.658
 21.1996  13298.6  115.143
 21.2416  13233.4  114.698
 21.2836  13327.9  115.062
 21.3256  13196.9  114.589
 21.3676  13408.6  115.04
 21.4096  13153.4  114.251
 21.4516  13209.5  114.374
 21.4936  13053.5  113.945
 21.5356  13269.7  114.831
 21.5776  13280.7  114.71
 21.6196  13098.9  113.955
 21.6616  12960.4  113.445
 21.7036  13005.8  113.423
 21.7456  13222.9  114.439
 21.7876  13078.6  113.568
 21.8296  12884.5  112.572
 21.8716  13027.2  113.43
 21.9136  13091.1  113.908
 21.9556  13035.8  113.337
 21.9976  12944.3  112.949
 22.0396  13014.1  113.513
 22.0816  13043.7  114.188
 22.1236  12971.5  113.324
 22.1656  13083.1  113.919
 22.2076  13049.5  113.247
 22.2496  13093.7  113.466
 22.2916  12962.6  112.78
 22.3336  13082.3  114.034
 22.3756  13065.5  113.677
 22.4176  12910.3  112.854
 22.4596  12781.1  112.879
 22.5016  12793.8  112.43
 22.5436  13133.3  113.788
 22.5856  13010.8  113.507
 22.6276  12861.7  112.995
 22.6696  12911.3  113.567
 22.7116  12902.2  113.036
 22.7536  13013.2  113.494
 22.7956  12982.9  112.679
 22.8376  12805.2  112.436
 22.8796  12956.3  112.896
 22.9216  12929.6  113.33
 22.9636  12810.3  111.953
 23.0056  13179.3  113.692
 23.0476  13134.2  114.082
 23.0896  13305.5  114.183
 23.1316  13185.4  114.113
 23.1736  12970  116.177
 23.2156  13015  113.711
 23.2576  12909.3  113.39
 23.2996  13006.1  113.589
 23.3416  12804.3  113.234
 23.3836  12871.9  112.759
 23.4256  12800.2  112.567
 23.4676  12902.9  112.706
 23.5096  12829.1  113.064
 23.5516  12761  112.039
 23.5936  12779.4  113.038
 23.6356  13069.1  113.965
 23.6776  12739  112.73
 23.7196  12614.9  111.751
 23.7616  12899.7  112.925
 23.8036  12838.7  112.702
 23.8456  12850.6  112.312
 23.8876  12449.8  110.916
 23.9296  12521.8  111.723
 23.9716  12705.7  111.721
 24.0136  12593.1  112.127
 24.0556  12515.7  111.52
 24.0976  12374.7  110.687
 24.1396  12386.4  113.424
 24.1816  12424.4  111.999
 24.2236  12176.6  110.488
 24.2656  12140.1  109.792
 24.3076  12289.2  110.724
 24.3496  12240.9  110.386
 24.3916  12092.9  109.773
 24.4336  12045.8  109.768
 24.4756  12201.5  110.341
 24.5176  11995.7  109.055
 24.5596  11909.7  108.791
 24.6016  11806.2  108.604
 24.6436  11819.5  108.163
 24.6856  11964.6  108.576
 24.7276  11725.4  107.796
 24.7696  11702.2  107.809
 24.8116  11795.2  108.415
 24.8536  11684.7  107.901
 24.8956  11668.9  107.566
 24.9376  11662.5  107.478
 24.9796  11426.7  106.738
 25.0216  11418.3  106.815
 25.0636  11379.4  106.281
 25.1056  11356.4  106.883
 25.1476  11553.7  109.484
 25.1896  11519.1  107.776
 25.2316  11508.7  106.99
 25.2736  11460.8  106.42
 25.3156  11414.7  106.286
 25.3576  11321.2  106.275
 25.3996  11475.7  106.983
 25.4416  11469.7  106.933
 25.4836  11249.6  106.428
 25.5256  11262.6  105.85
 25.5676  11355.2  106.008
 25.6096  11234.7  106.022
 25.6516  11304.3  105.844
 25.6936  11287  106.091
 25.7356  11216.3  105.888
 25.7776  11332.7  106.035
 25.8196  11086.5  105.107
 25.8616  11166  105.409
 25.9036  11330.4  105.644
 25.9456  11168  105.485
 25.9876  11053  105.004
 26.0296  11199.9  105.21
 26.0716  11052.9  104.944
 26.1136  11113.3  105.168
 26.1556  11278.4  105.315
 26.1976  11089  105.363
 26.2396  11132.8  104.71
 26.2816  11107.5  105.216
 26.3236  11256.4  106.077
 26.3656  11100.7  105.069
 26.4076  11158  105.55
 26.4496  11577.6  107.035
 26.4916  11202  105.248
 26.5336  11086  105.029
 26.5756  11540  106.98
 26.6176  11046.2  104.748
 26.6596  11029.8  104.987
 26.7016  11006  104.62
 26.7436  10884.7  104.187
 26.7856  10753.8  103.535
 26.8276  10853.7  103.969
 26.8696  10947.3  104.285
 26.9116  10889.3  103.952
 26.9536  10832.1  103.722
 26.9956  10734.5  103.285
 27.0376  10584.2  102.788
 27.0796  10744.9  103.289
 27.1216  10676.3  103.039
 27.1636  10688  103.258
 27.2056  10553.2  102.486
 27.2476  10583.3  102.63
 27.2896  10726.9  103.435
 27.3316  10588.2  102.475
 27.3736  10655.3  103.069
 27.4156  10534  102.331
 27.4576  10543.8  102.607
 27.4996  10607.8  102.511
 27.5416  10443.4  102.03
 27.5836  10528.9  102.265
 27.6256  10883  104.145
 27.6676  10746  103.496
 27.7096  10415.4  101.763
 27.7516  10473  102.193
 27.7936  10446.2  102.239
 27.8356  10409.3  101.669
 27.8776  10437.4  101.86
 27.9196  10358  101.316
 27.9616  10421.7  101.81
 28.0036  10304.8  101.218
 28.0456  10327  101.453
 28.0876  10257.9  101.212
 28.1296  10204.9  100.786
 28.1716  10246.4  101.008
 28.2136  10326  101.357
 28.2556  10143.4  100.579
 28.2976  10101.4  100.358
 28.3396  10266.4  100.93
 28.3816  10384.3  101.53
 28.4236  10223.6  100.893
 28.4656  10137.8  100.508
 28.5076  10174.2  100.319
 28.5496  10190.5  100.667
 28.5916  10054.6  99.7963
 28.6336  10050.4  100.125
 28.6756  10066.4  99.3983
 28.7176  10105.2  100.14
 28.7596  9990.38  99.4709
 28.8016  10103.7  100.066
 28.8436  9858.66  99.086
 28.8856  10053.1  99.9116
 28.9276  10031.8  100.053
 28.9696  10034.7  99.7214
 29.0116  9918.7  99.3231
 29.0536  9909.43  99.4819
 29.0956  9853.15  98.9201
 29.1376  9891.83  99.0766
 29.1796  9952.85  99.4272
 29.2216  9796.95  98.4862
 29.2636  9955.17  99.36
 29.3056  9845.97  98.5973
 29.3476  9910.23  99.4449
 29.3896  9995.58  99.9627
 29.4316  10074.1  99.6814
 29.4736  9894.97  98.8542
 29.5156  10082.4  99.7087
 29.5576  9811.62  99.1068
 29.5996  9908.55  98.8427
 29.6416  9852.12  98.6776
 29.6836  9880.87  98.7471
 29.7256  9885.63  99.3477
 29.7676  9909.18  99.1155
 29.8096  9745.84  98.2438
 29.8516  9546.2  97.5648
 29.8936  9895.17  99.4269
 29.9356  9917.84  99.2922
 29.9776  9668  98.1878
 30.0196  9717.18  97.8216
 30.0616  9727.88  98.2516
 30.1036  9848.91  98.6812
 30.1456  9793.46  98.6383
 30.1876  9707.2  98.1863
 30.2296  9724.43  98.2169
 30.2716  9707.92  97.7679
 30.3136  9850.12  99.357
 30.3556  9793.68  99.0925
 30.3976  9781.85  100.588
 30.4396  9795.95  97.9575
 30.4816  9618.33  96.6561
 30.5236  9693.43  97.0617
 30.5656  9586.55  97.1721
 30.6076  9665.31  96.9939
 30.6496  9728.26  97.7011
 30.6916  9630.43  97.296
 30.7336  9630.68  97.4542
 30.7756  9629.8  97.5461
 30.8176  9642.41  97.52
 30.8596  9599.98  97.0689
 30.9016  9488.5  96.8537
 30.9436  9640.02  97.372
 30.9856  9607.39  97.3265
 31.0276  9629.59  97.0389
 31.0696  9560  97.2631
 31.1116  9444.64  96.6528
 31.1536  9579.37  97.2107
 31.1956  9561.37  97.2151
 31.2376  9241.24  95.583
 31.2796  9494.03  96.4192
 31.3216  9501.11  96.3965
 31.3636  9529.83  97.2413
 31.4056  9538.56  98.6129
 31.4476  9454.11  96.0567
 31.4896  9461.49  96.6028
 31.5316  9526.83  96.3217
 31.5736  9558.66  96.3041
 31.6156  9612.61  96.5959
 31.6576  9524.05  96.2532
 31.6996  9618.33  96.395
 31.7416  9358.52  96.1483
 31.7836  9575.17  96.2527
 31.8256  9329.14  95.2853
 31.8676  9402.1  95.6478
 31.9096  9315.96  95.5699
 31.9516  9080.17  94.508
 31.9936  9260.46  95.2604
 32.0356  9308.83  95.5774
 32.0776  9401.34  95.9391
 32.1196  9391.98  95.989
 32.1616  9312.44  95.0331
 32.2036  9150.74  94.7196
 32.2456  9175.98  95.2281
 32.2876  9206.53  94.8807
 32.3296  9176.84  94.6914
 32.3716  9150.98  94.6606
 32.4136  9227.21  95.2634
 32.4556  9382.44  95.4306
 32.4976  9312.47  94.9795
 32.5396  9255.17  94.7627
 32.5816  9089.18  94.036
 32.6236  9180.69  94.5767
 32.6656  9271.35  95.5849
 32.7076  9099.26  94.3485
 32.7496  9183.46  94.4504
 32.7916  9141.42  94.1842
 32.8336  9202.45  94.5987
 32.8756  9229.63  94.4585
 32.9176  9129.55  94.4176
 32.9596  9010.5  93.8913
 33.0016  9144.36  94.3754
 33.0436  9255.33  95.1225
 33.0856  9087.44  94.3279
 33.1276  8923.69  93.2003
 33.1696  9128.35  94.1089
 33.2116  9222.17  94.8193
 33.2536  9134.17  94.3724
 33.2956  9206.55  94.8288
 33.3376  9005.83  93.529
 33.3796  9072.05  94.0825
 33.4216  9252.2  94.5981
 33.4636  9125.7  94.0966
 33.5056  9042.09  93.9045
 33.5476  8995.54  93.6619
 33.5896  9099.79  93.9687
 33.6316  8985.89  93.7063
 33.6736  8942.83  93.7196
 33.7156  8843.19  93.2402
 33.7576  9030  93.8362
 33.7996  9133.84  94.1408
 33.8416  8841.57  92.8158
 33.8836  9018.66  93.5025
 33.9256  9008.4  93.5242
 33.9676  8992.45  93.3296
 34.0096  8803.89  92.6706
 34.0516  8911.35  92.8637
 34.0936  8880.55  92.9708
 34.1356  9035.61  93.5149
 34.1776  8849.64  92.5529
 34.2196  8675.03  91.8183
 34.2616  8721.52  92.1941
 34.3036  8837.27  93.0672
 34.3456  8779.85  92.5132
 34.3876  8792.27  92.5433
 34.4296  8759.48  92.0609
 34.4716  8999.37  93.4595
 34.5136  8821.59  92.7401
 34.5556  8788.9  92.8206
 34.5976  8725.99  92.2933
 34.6396  8755.96  92.1627
 34.6816  8670.56  91.8272
 34.7236  8749.7  92.0233
 34.7656  8720.91  92.0659
 34.8076  8660.82  92.0655
 34.8496  8738.91  92.3384
 34.8916  8708.45  92.0611
 34.9336  8877.33  92.9012
 34.9756  8758.86  92.2109
 35.0176  8799.04  92.9568
 35.0596  8728.28  92.4112
 35.1016  8705.56  92.0487
 35.1436  8822.1  92.3446
 35.1856  8606.05  91.3356
 35.2276  8617.94  91.5693
 35.2696  8700.53  92.2047
 35.3116  8681.76  92.1978
 35.3536  8769.04  92.3607
 35.3956  8578.73  91.0636
 35.4376  8573.64  91.5966
 35.4796  8675.94  92.2039
 35.5216  8571.76  91.6054
 35.5636  8398.28  91.4195
 35.6056  8603.78  91.5371
 35.6476  8690.26  91.8954
 35.6896  8613.69  91.58
 35.7316  8510.9  90.9973
 35.7736  8591.27  91.6289
 35.8156  8456.75  90.9149
 35.8576  8609.8  91.9854
 35.8996  8592.82  91.8596
 35.9416  8491.13  90.8172
 35.9836  8394.18  90.6394
 36.0256  8601.35  91.7752
 36.0676  8667.88  91.8826
 36.1096  8366.92  90.4095
 36.1516  8618.63  91.6477
 36.1936  8550.88  91.1368
 36.2356  8487.21  91.4435
 36.2776  8610.61  91.5762
 36.3196  8533.1  90.8309
 36.3616  8544.96  91.0237
 36.4036  8530.18  90.9984
 36.4456  8518.19  91.1561
 36.4876  8436.98  90.6579
 36.5296  8495.33  91.001
 36.5716  8535.25  92.0115
 36.6136  8670.44  91.4724
 36.6556  8551.65  91.056
 36.6976  8372.13  90.596
 36.7396  8348.74  90.2029
 36.7816  8538.22  91.5981
 36.8236  8434.54  90.9629
 36.8656  8424.02  90.9786
 36.9076  8455.15  91.0234
 36.9496  8325.92  90.3071
 36.9916  8395.67  90.3134
 37.0336  8494.76  91.1629
 37.0756  8394.77  90.4179
 37.1176  8300.75  90.1812
 37.1596  8240.86  89.8585
 37.2016  8257.11  90.1759
 37.2436  8356.64  90.0248
 37.2856  8353.09  90.2693
 37.3276  8436.37  90.0571
 37.3696  8278.99  90.1088
 37.4116  8324.9  90.2596
 37.4536  8308.34  90.0372
 37.4956  8289.08  89.9772
 37.5376  8262.42  91.4013
 37.5796  8378.49  92.0046
 37.6216  8222.27  89.3937
 37.6636  8141.49  88.8566
 37.7056  8177.96  89.2486
 37.7476  8257.85  89.2205
 37.7896  8201.2  89.3959
 37.8316  7954.52  88.2316
 37.8736  8318.54  89.7344
 37.9156  8190.22  89.0432
 37.9576  8189.84  88.9391
 37.9996  8069.81  87.9844
 38.0416  8132.36  89.1577
 38.0836  8191.61  89.3816
 38.1256  8102.6  88.8585
 38.1676  8105.5  89.0089
 38.2096  8146.36  88.858
 38.2516  8248.98  89.6071
 38.2936  8169.62  88.9892
 38.3356  8153.29  88.8125
 38.3776  8014.38  88.3233
 38.4196  8186.88  89.1174
 38.4616  8174.03  89.2887
 38.5036  8224.9  89.408
 38.5456  8080.87  89.4635
 38.5876  8101.7  89.603
 38.6296  8272.38  89.5105
 38.6716  8017.9  87.9133
 38.7136  7984.84  87.6751
 38.7556  7950.15  87.9897
 38.7976  7989.36  88.1448
 38.8396  7930.66  88.2723
 38.8816  7897.71  87.8675
 38.9236  8071.7  88.6411
 38.9656  7996.96  88.1416
 39.0076  8053.3  87.8525
 39.0496  8100.41  88.6552
 39.0916  8091.39  88.2441
 39.1336  8022.77  88.2944
 39.1756  7891.46  87.634
 39.2176  8098.51  89.3077
 39.2596  8070.88  89.0821
 39.3016  8137.03  89.0107
 39.3436  8000.18  88.6832
 39.3856  8015.13  88.2173
 39.4276  8073.39  89.0436
 39.4696  7988.29  88.178
 39.5116  7964  88.5733
 39.5536  8170.92  90.1435
 39.5956  8123.03  88.9657
 39.6376  8112.48  88.9098
 39.6796  8062.9  88.3764
 39.7216  8086.29  88.6071
 39.7636  8046.75  88.964
 39.8056  8142.32  89.2673
 39.8476  8004.92  88.7661
 39.8896  8074.1  88.7767
 39.9316  7988.26  88.5542
 39.9736  8178.52  89.1671
 40.0156  8070.72  88.4003
 40.0576  8058.29  88.6971
 40.0996  8157.48  88.4111
 40.1416  8141.43  89.1258
 40.1836  8084.76  88.7011
 40.2256  8102.21  88.8469
 40.2676  7942.35  88.0754
 40.3096  8196.03  89.3916
 40.3516  8139.42  89.1836
 40.3936  8288.53  89.558
 40.4356  8045.91  88.4305
 40.4776  8121.23  89.2626
 40.5196  8121.21  89.3912
 40.5616  8097.37  88.903
 40.6036  8089.22  89.1101
 40.6456  8175.18  89.1745
 40.6876  8238.89  89.5206
 40.7296  8231.55  89.6178
 40.7716  8182.25  89.4829
 40.8136  8054.87  88.7209
 40.8556  8148.89  89.3802
 40.8976  8060.55  88.8094
 40.9396  7970.11  88.6637
 40.9816  8187.18  89.1346
 41.0236  8168.65  88.8066
 41.0656  8244.39  89.7685
 41.1076  8132.9  88.9277
 41.1496  8092.1  88.6157
 41.1916  8132.17  89.1609
 41.2336  8050.6  88.7053
 41.2756  8177.32  88.9998
 41.3176  8087.11  89.1308
 41.3596  8095.24  88.8982
 41.4016  8075.94  89.0502
 41.4436  8132.47  89.1509
 41.4856  8186.77  89.6128
 41.5276  8058.28  88.9261
 41.5696  8104.52  88.8038
 41.6116  8118.45  89.2874
 41.6536  8024.16  88.622
 41.6956  8139.19  89.3165
 41.7376  8099.33  89.115
 41.7796  7985.9  88.3646
 41.8216  8018.54  88.7907
 41.8636  8099.6  89.1743
 41.9056  7957.49  88.1833
 41.9476  8098.83  89.1954
 41.9896  8045.15  88.5692
 42.0316  8209.73  89.5519
 42.0736  8004.15  88.5395
 42.1156  8039.2  88.5641
 42.1576  8078.81  88.8773
 42.1996  8094.31  89.1094
 42.2416  8127.2  88.8621
 42.2836  7963.75  88.085
 42.3256  7993.17  88.3627
 42.3676  7915.33  87.7385
 42.4096  8019.02  88.2632
 42.4516  8065.05  88.6148
 42.4936  8024.65  88.4583
 42.5356  8018.85  88.5559
 42.5776  8024.55  88.5289
 42.6196  7888.8  87.8249
 42.6616  7877.22  87.9328
 42.7036  8039.67  88.2204
 42.7456  7936.12  88.0112
 42.7876  7912.62  87.9782
 42.8296  7950.11  88.021
 42.8716  7928.09  88.0558
 42.9136  7988  88.1765
 42.9556  7955.82  88.132
 42.9976  8028.44  88.493
 43.0396  7938.19  87.7238
 43.0816  7815.87  87.4221
 43.1236  7929.61  88.1201
 43.1656  7880.46  87.6762
 43.2076  7868.66  87.7127
 43.2496  7866.32  87.5075
 43.2916  7821  87.6291
 43.3336  7867.5  87.7262
 43.3756  7966.64  88.0281
 43.4176  7801.39  87.1928
 43.4596  7833.99  87.2295
 43.5016  7866.86  87.8202
 43.5436  7833.61  87.5298
 43.5856  7785.14  87.2844
 43.6276  7874.4  87.6831
 43.6696  7782.57  87.4266
 43.7116  7903.93  87.6
 43.7536  7896.27  88.0561
 43.7956  7698.95  88.1313
 43.8376  7766.9  87.0527
 43.8796  7698.55  86.7483
 43.9216  7803.8  87.2543
 43.9636  7835.25  87.5411
 44.0056  7736.93  87.2237
 44.0476  7741.14  86.8724
 44.0896  7593.97  86.3886
 44.1316  7842.44  87.3064
 44.1736  7621.36  86.1929
 44.2156  7710.98  86.5412
 44.2576  7683.47  86.7235
 44.2996  7673.28  86.6348
 44.3416  7811.03  87.165
 44.3836  7632.22  86.4895
 44.4256  7574.03  85.8061
 44.4676  7648.81  86.3856
 44.5096  7687.1  86.7475
 44.5516  7664.76  86.5855
 44.5936  7725.73  86.8809
 44.6356  7770.42  86.8672
 44.6776  7610.96  86.2914
 44.7196  7641.82  86.7752
 44.7616  7633.32  88.0671
 44.8036  7516.15  85.8041
 44.8456  7580.82  86.3855
 44.8876  7604.42  86.3779
 44.9296  7722.71  86.4954
 44.9716  7536.77  85.8849
 45.0136  7617.97  86.2729
 45.0556  7631.52  86.3244
 45.0976  7500.32  85.7407
 45.1396  7481.8  85.3943
 45.1816  7496.07  85.4016
 45.2236  7555.94  85.65
 45.2656  7482.26  85.7311
 45.3076  7418.29  85.1429
 45.3496  7502.01  85.9252
 45.3916  7552.41  86.4898
 45.4336  7562.86  86.3984
 45.4756  7476.57  85.754
 45.5176  7512.96  85.5848
 45.5596  7539.39  85.8546
 45.6016  7425.72  85.6206
 45.6436  7523.33  85.348
 45.6856  7495.68  85.8494
 45.7276  7326.35  86.1996
 45.7696  7444.66  86.5499
 45.8116  7445.92  86.0026
 45.8536  7421.45  85.7591
 45.8956  7553.4  85.861
 45.9376  7424.51  84.5922
 45.9796  7412.71  85.2057
 46.0216  7453.92  85.7901
 46.0636  7592.57  85.7074
 46.1056  7450.58  84.899
 46.1476  7371.31  85.0377
 46.1896  7434.54  85.5534
 46.2316  7460.31  85.5593
 46.2736  7304.24  85.0351
 46.3156  7481.49  85.6442
 46.3576  7425.01  85.5223
 46.3996  7406.78  85.5738
 46.4416  7479.21  85.5705
 46.4836  7296.69  84.8697
 46.5256  7587.9  86.489
 46.5676  7319.11  85.0558
 46.6096  7366.78  85.2634
 46.6516  7377.22  84.3679
 46.6936  7320.98  84.5404
 46.7356  7478.77  85.5548
 46.7776  7275.45  85.2145
 46.8196  7376.18  85.3973
 46.8616  7204  84.3304
 46.9036  7190.95  83.9222
 46.9456  7255.7  83.9362
 46.9876  7320.62  84.4019
 47.0296  7214.52  84.4694
 47.0716  7123.37  83.7594
 47.1136  7278.91  84.3499
 47.1556  7242.83  83.9948
 47.1976  7376.27  84.8573
 47.2396  7189.49  84.1685
 47.2816  7212.18  84.0031
 47.3236  7183.17  84.1962
 47.3656  7348.09  85.095
 47.4076  7141.07  83.6913
 47.4496  7202.17  84.15
 47.4916  7173  84.1658
 47.5336  7283.68  84.6247
 47.5756  7273.03  84.6811
 47.6176  7168.23  83.9587
 47.6596  7141.44  83.5211
 47.7016  7413.12  84.9032
 47.7436  7239.09  84.2482
 47.7856  7263.7  84.4143
 47.8276  7056.81  83.2568
 47.8696  7194.47  84.1465
 47.9116  7311.81  84.5456
 47.9536  7180.44  83.7209
 47.9956  7088.35  83.8901
 48.0376  6998.59  83.1326
 48.0796  7173.91  84.2943
 48.1216  7253.36  84.5791
 48.1636  7294.99  84.4005
 48.2056  7150.71  83.8201
 48.2476  7241.77  84.6615
 48.2896  7019.04  83.258
 48.3316  7166.77  84.0723
 48.3736  7107.2  83.7449
 48.4156  7050.81  83.2644
 48.4576  7027.41  83.4194
 48.4996  7119.54  83.4218
 48.5416  7159.98  83.9879
 48.5836  7140.06  83.5461
 48.6256  7039.84  83.1656
 48.6676  7089.25  83.9646
 48.7096  7075.4  83.1492
 48.7516  7076.66  83.312
 48.7936  7037.36  83.1334
 48.8356  7062.44  83.3372
 48.8776  7084.83  84.0424
 48.9196  7194.79  84.0589
 48.9616  6999.66  83.2902
 49.0036  7051.19  83.9452
 49.0456  7029.25  83.7899
 49.0876  7049.7  83.4453
 49.1296  6906.19  82.7445
 49.1716  6905.18  82.6193
 49.2136  7002.05  83.1366
 49.2556  7072.21  83.5679
 49.2976  7012.46  83.2881
 49.3396  6961.03  83.0406
 49.3816  7064.09  83.089
 49.4236  7063.11  83.492
 49.4656  6883.13  82.438
 49.5076  7032.09  83.0844
 49.5496  6951.22  82.6655
 49.5916  7073.88  83.316
 49.6336  6956.78  82.8164
 49.6756  6992.06  83.2703
 49.7176  6949.16  82.9477
 49.7596  6960.16  82.783
 49.8016  6955.44  82.6675
 49.8436  6889  82.5709
 49.8856  6855.91  82.3744
 49.9276  6871.44  82.5702
 49.9696  6857.9  82.4745
 50.0116  6968.77  83.2701
 50.0536  6937.91  83.0271
 50.0956  6866.55  82.677
 50.1376  6917.24  82.6842
 50.1796  6771.84  82.0727
 50.2216  6908.13  82.884
 50.2636  6812.15  81.9309
 50.3056  6817.78  82.1353
 50.3476  6832.91  82.2487
 50.3896  6791.58  81.972
 50.4316  6848.16  82.1506
 50.4736  6791.27  82.0237
 50.5156  6872.23  82.4954
 50.5576  6883.91  82.3254
 50.5996  6867.23  82.5161
 50.6416  6811.5  82.1099
 50.6836  6902.47  82.7158
 50.7256  6879.68  82.4982
 50.7676  6859.91  82.7048
 50.8096  6778.64  81.7512
 50.8516  6809.74  82.3526
 50.8936  6798.45  82.0616
 50.9356  6908.18  82.8275
 50.9776  6878.82  82.8037
 51.0196  6733.1  82.0469
 51.0616  6729.47  81.3562
 51.1036  6863.21  82.5138
 51.1456  6750.23  81.7493
 51.1876  6728.6  80.9615
 51.2296  6774.54  81.8722
 51.2716  6655.94  80.8571
 51.3136  6649.66  81.2761
 51.3556  6711.39  81.2776
 51.3976  6743.08  81.6199
 51.4396  6645.77  81.3319
 51.4816  6629.94  81.095
 51.5236  6746.17  81.8848
 51.5656  6629.48  80.7799
 51.6076  6751.66  81.6038
 51.6496  6710.65  81.5427
 51.6916  6616.64  81.3274
 51.7336  6699.08  81.9207
 51.7756  6760.07  81.9918
 51.8176  6617.51  81.2211
 51.8596  6575.37  80.9829
 51.9016  6803.56  81.9834
 51.9436  6709.83  82.8587
 51.9856  6643.68  82.9138
 52.0276  6682.71  81.6603
 52.0696  6562.67  80.9875
 52.1116  6675.25  81.7859
 52.1536  6616.27  81.3237
 52.1956  6655.47  81.0209
 52.2376  6596.21  80.8386
 52.2796  6717.8  81.3831
 52.3216  6574.18  81.2029
 52.3636  6531  80.5161
 52.4056  6559.5  80.5496
 52.4476  6464.81  80.3288
 52.4896  6517.23  80.7054
 52.5316  6514.43  80.7349
 52.5736  6526.42  80.53
 52.6156  6560.09  81.1248
 52.6576  6714.59  81.5063
 52.6996  6439.36  80.7858
 52.7416  6488.95  80.9419
 52.7836  6584.8  81.4194
 52.8256  6646.99  81.035
 52.8676  6365.15  79.8679
 52.9096  6573.76  81.246
 52.9516  6552.75  81.4799
 52.9936  6382.69  80.8054
 53.0356  6449  80.2368
 53.0776  6507.41  80.8612
 53.1196  6449.86  80.6293
 53.1616  6441.28  80.6231
 53.2036  6393.07  80.2749
 53.2456  6432.78  80.6316
 53.2876  6528.42  80.9269
 53.3296  6421.39  80.5862
 53.3716  6377.82  80.064
 53.4136  6414.02  80.437
 53.4556  6320.87  79.8801
 53.4976  6329.77  79.7848
 53.5396  6360.44  80.3655
 53.5816  6421.36  80.3857
 53.6236  6418.01  80.7104
 53.6656  6388.1  80.1507
 53.7076  6424.78  80.3408
 53.7496  6378.94  80.1749
 53.7916  6520.72  81.1806
 53.8336  6425.66  80.4909
 53.8756  6198.45  79.5965
 53.9176  6429.32  80.4078
 53.9596  6417.2  81.0949
 54.0016  6371.05  80.1339
 54.0436  6343.21  80.1736
 54.0856  6527.8  80.7559
 54.1276  6373.55  79.9952
 54.1696  6459.27  80.7047
 54.2116  6445.47  80.3764
 54.2536  6343.26  79.5517
 54.2956  6435.7  80.169
 54.3376  6364.18  80.21
 54.3796  6403.46  80.3559
 54.4216  6438.72  80.6209
 54.4636  6306.91  79.7544
 54.5056  6396.41  80.1406
 54.5476  6337.93  80.1054
 54.5896  6408.18  80.3832
 54.6316  6403.14  80.2046
 54.6736  6430.26  80.4421
 54.7156  6373.13  80.1124
 54.7576  6277.24  79.5054
 54.7996  6428.64  80.5954
 54.8416  6421.82  80.6061
 54.8836  6223.85  79.4666
 54.9256  6285.17  79.601
 54.9676  6411.22  80.2488
 55.0096  6235.44  79.2167
 55.0516  6296.33  79.8302
 55.0936  6316.48  79.5882
 55.1356  6292.91  79.485
 55.1776  6291.3  79.7422
 55.2196  6323.21  79.7261
 55.2616  6331.33  79.9892
 55.3036  6255.36  79.6675
 55.3456  6375.4  80.575
 55.3876  6314.92  79.9421
 55.4296  6317.45  79.928
 55.4716  6242.42  79.4918
 55.5136  6391.77  80.1912
 55.5556  6253.73  79.3967
 55.5976  6347.49  80.0358
 55.6396  6240.82  79.3188
 55.6816  6304.34  79.595
 55.7236  6281.6  79.4915
 55.7656  6382.25  79.8801
 55.8076  6411.34  80.0456
 55.8496  6251.57  79.3596
 55.8916  6271.43  79.6885
 55.9336  6188.18  78.9816
 55.9756  6235.37  79.1724
 56.0176  6275.79  79.5813
 56.0596  6280.45  79.5962
 56.1016  6337.66  79.9589
 56.1436  6276.96  79.8496
 56.1856  6249.63  79.4126
 56.2276  6275.54  79.6337
 56.2696  6275.97  79.6109
 56.3116  6233.62  79.7423
 56.3536  6299.39  79.8205
 56.3956  6178.86  79.0435
 56.4376  6213.96  79.3009
 56.4796  6296.66  79.6192
 56.5216  6268.92  79.8189
 56.5636  6354.02  79.9478
 56.6056  6220.99  79.3454
 56.6476  6220.81  78.9712
 56.6896  6290.29  79.8638
 56.7316  6167.4  78.9825
 56.7736  6240.55  79.4517
 56.8156  6267.43  79.6153
 56.8576  6238.25  79.3712
 56.8996  6285.99  79.6191
 56.9416  6168.2  79.1629
 56.9836  6257.82  79.2583
 57.0256  6206.14  79.2414
 57.0676  6235.74  79.5593
 57.1096  6327.23  79.9237
 57.1516  6252.22  79.5117
 57.1936  6210.21  78.9916
 57.2356  6253.76  79.5851
 57.2776  6338.9  80.0831
 57.3196  6250.65  79.895
 57.3616  6218.84  79.1851
 57.4036  6325.17  79.9225
 57.4456  6193.15  79.0532
 57.4876  6291.28  79.5277
 57.5296  6157.39  79.0198
 57.5716  6210.56  79.342
 57.6136  6159.13  78.8363
 57.6556  6251.9  79.5717
 57.6976  6247.26  79.3653
 57.7396  6098.24  78.7792
 57.7816  6064.63  78.924
 57.8236  6148.34  79.2612
 57.8656  6241.94  79.5098
 57.9076  6189.55  79.2135
 57.9496  6172.15  79.4413
 57.9916  6224.25  79.2981
 58.0336  6178.34  79.2772
 58.0756  6261.23  79.4445
 58.1176  6183.32  78.936
 58.1596  6201.79  79.6236
 58.2016  6272.41  79.2856
 58.2436  6209.34  79.3033
 58.2856  6324.6  79.9559
 58.3276  6215.23  79.6334
 58.3696  6148.02  78.9563
 58.4116  6328.91  79.9716
 58.4536  6267.21  79.4653
 58.4956  6190.98  79.1574
 58.5376  6286.68  79.3327
 58.5796  6202.44  79.2283
 58.6216  6274.65  79.501
 58.6636  6298.84  79.8736
 58.7056  6237.37  79.3379
 58.7476  6247.95  79.856
 58.7896  6220.21  79.3192
 58.8316  6160.98  78.9368
 58.8736  6188.07  79.1197
 58.9156  6126.99  78.7687
 58.9576  6284.42  80.1037
 58.9996  6327.1  79.6034
 59.0416  6437.52  80.6712
 59.0836  6213.29  79.1742
 59.1256  6160.59  79.5457
 59.1676  6272.54  80.5744
 59.2096  6287.49  79.9671
 59.2516  6358.22  79.9859
 59.2936  6266.64  79.7419
 59.3356  6365.29  80.2416
 59.3776  6236.54  79.5976
 59.4196  6178.74  79.1633
 59.4616  6235.54  79.3839
 59.5036  6124.06  78.7059
 59.5456  6443.35  80.4158
 59.5876  6237.45  79.3146
 59.6296  6126.5  78.6758
 59.6716  6103.6  78.5868
 59.7136  6194.34  79.157
 59.7556  6127.49  78.8661
 59.7976  6167.05  78.8598
 59.8396  6185.78  78.8724
 59.8816  6054.02  78.5741
 59.9236  6055.01  78.2236
 59.9656  6289.87  79.9918
 60.0076  6205.53  78.8027
 60.0496  6176.63  79.1272
 60.0916  6430.13  80.1357
 60.1336  6130.03  79.3587
 60.1756  6304.79  81.6919
 60.1996  0.0000000E+00  0.0000000E+00