File: docs/examples/XRD/IS17_D/Data/IS17_D/17_Da_f00093.xye
# /beamlines/bl04/projects/cycle2025-II/20250340211-lsimonelli/DATA/IS17_D/17_Da_f00093.xye : mythproc.py merge -s 0.006 -l 0.5 -f /beamlines/bl04/inhouse/ff/FlatField/ff_20Nov2024rod8mm60s_17keV.raw -b True -c true -o xye /beamlines/bl04/projects/cycle2025-II/20250340211-lsimonelli/DATA/IS17_D/17_Da_00093.dat
# IsMon = [6759805, 6763620, 6764620]  IsPos = [-1.4999, -2.4884, -3.4989]
# Wave = 0.4962  CalPath /beamlines/bl04/projects/cycle2025-II/20250340211-lsimonelli/DATA/Align/Si_Pos1_25keV_f00001.cal
# Date = 2025-09-24_19:29:15 Dt = 4.8000  Bin = 0.0060  <imon> = 6762682 +/- 2075 (Min/Max) 6759805 / 6764620
# icurr 250.3571  mocoIn 1.7068E-05  mocoOut 0.8014  i15 7.08445e+06  imon 6.76268e+06  i7 3.6667  iEMpd_timer 4.8000  iEMpd_1 3.5684E-08  iEMpd_2 7.8533E-08  iEMpd_3 1.5693E-08  iEMpd_4 4.8669E-08  iEMhp_timer 4.8000  iEMhp_1 4.8892E-06  iEMhp_2 -2.5104E-08  iEMhp_3 -2.4835E-08  iEMhp_4 -2.0927E-08
#      9776
 1.5856  40295.9  206.17
 1.6276  47243.2  219.406
 1.6696  54041.5  233.834
 1.7116  62555.9  252.073
 1.7536  71750.2  268.813
 1.7956  76811  278.826
 1.8376  73135.7  272.505
 1.8796  61075.3  247.194
 1.9216  49252.2  222.866
 1.9636  41505.5  203.752
 2.0056  37250.6  192.277
 2.0476  34607.9  187.363
 2.0896  33124.5  182.229
 2.1316  32194.3  178.788
 2.1736  30456.2  175.274
 2.2156  31292.8  176.24
 2.2576  29940.7  173.009
 2.2996  28832.3  170.399
 2.3416  29520.4  171.041
 2.3836  28572.1  168.378
 2.4256  27763.5  166.519
 2.4676  27393.2  165.17
 2.5096  26985.6  163.99
 2.5516  26590.8  166.542
 2.5936  26568.1  163.102
 2.6356  26010.5  162.061
 2.6776  25620.5  159.754
 2.7196  25629.9  160.287
 2.7616  25491.3  159.638
 2.8036  25112.2  158.616
 2.8456  25419.1  160.188
 2.8876  24716.1  157.837
 2.9296  24360.1  156.826
 2.9716  24105.1  155.499
 3.0136  23833.3  154.688
 3.0556  24204.8  156.285
 3.0976  23778.6  153.858
 3.1396  23661.7  154.179
 3.1816  23431.8  153.358
 3.2236  23197.7  152.587
 3.2656  23447.9  152.452
 3.3076  23055  152.611
 3.3496  23477.2  152.942
 3.3916  23941  154.277
 3.4336  24236.4  155.801
 3.4756  24657.9  157.083
 3.5176  25512  159.561
 3.5596  25193.6  160.983
 3.6016  25716.7  160.254
 3.6436  24697.5  158.135
 3.6856  24217.9  154.903
 3.7276  23341  153.157
 3.7696  23056.3  152.407
 3.8116  22790.1  151.42
 3.8536  22686.2  151.006
 3.8956  22845.2  151.361
 3.9376  22680.3  151.063
 3.9796  22772.5  150.883
 4.0216  22840.2  150.143
 4.0636  22820.5  151.557
 4.1056  22601.1  150.464
 4.1476  22821.9  151.522
 4.1896  22978.6  151.892
 4.2316  23524.2  153.513
 4.2736  23736.2  153.989
 4.3156  23931.8  154.845
 4.3576  24627.5  157.011
 4.3996  24891.5  158.109
 4.4416  25364  159.189
 4.4836  25986.2  161.276
 4.5256  26301.1  162.875
 4.5676  26324.1  163.191
 4.6096  26801.5  163.33
 4.6516  27237.7  164.357
 4.6936  27411.5  165.685
 4.7356  27620.3  166.151
 4.7776  27569  165.823
 4.8196  27018.2  164.818
 4.8616  26915.5  163.978
 4.9036  26604.3  162.782
 4.9456  26489.6  163.071
 4.9876  25728  160.612
 5.0296  26159.7  161.77
 5.0716  26009.5  162.076
 5.1136  26387.7  162.959
 5.1556  26647.2  163.217
 5.1976  26927.5  164.083
 5.2396  26943.7  163.824
 5.2816  26975.4  164.387
 5.3236  27203.5  164.779
 5.3656  26616.7  163.907
 5.4076  26266.2  162.975
 5.4496  26655.1  163.656
 5.4916  26753.1  163.72
 5.5336  26768.7  163.854
 5.5756  26483  162.935
 5.6176  26953.6  163.802
 5.6596  26954.9  164.788
 5.7016  26982.5  164.134
 5.7436  27385.9  165.244
 5.7856  27275.6  165.354
 5.8276  27374.5  165.372
 5.8696  27709.4  166.558
 5.9116  27620.1  166.897
 5.9536  27880.7  167.437
 5.9956  28181.3  167.703
 6.0376  28172.5  168.306
 6.0796  28407.9  168.84
 6.1216  28475.1  169.237
 6.1636  28620.4  168.732
 6.2056  28680.5  169.577
 6.2476  28727.1  169.589
 6.2896  29140.8  170.486
 6.3316  28825.3  169.741
 6.3736  29090.3  170.406
 6.4156  29163.6  170.52
 6.4576  29322.8  170.588
 6.4996  29544.7  171.703
 6.5416  29346.2  171.271
 6.5836  29461.2  171.686
 6.6256  29446.2  171.358
 6.6676  30046.7  172.66
 6.7096  29700.3  172.521
 6.7516  30196.5  173.598
 6.7936  30323.9  173.403
 6.8356  30572.1  174.181
 6.8776  30904  175.925
 6.9196  30825.5  176.11
 6.9616  31355.4  177.056
 7.0036  31623.1  177.465
 7.0456  31678.6  176.917
 7.0876  31486.6  178.064
 7.1296  31511.2  177.272
 7.1716  31503.8  176.791
 7.2136  31364.7  176.183
 7.2556  31553.9  176.873
 7.2976  31584.1  177.455
 7.3396  31588.8  177.678
 7.3816  31251.9  176.947
 7.4236  31698.4  177.497
 7.4656  31916.4  177.595
 7.5076  32116.6  178.282
 7.5496  32061.8  178.664
 7.5916  31986.9  178.491
 7.6336  32497.7  179.888
 7.6756  32421.2  179.445
 7.7176  32690.9  180.503
 7.7596  32678.9  181.71
 7.8016  33032.5  184.868
 7.8436  33516  183.024
 7.8856  33614.8  182.761
 7.9276  34650.1  185.945
 7.9696  34593.7  186.107
 8.0116  35354.9  186.684
 8.0536  35491.4  187.3
 8.0956  35578.9  188.707
 8.1376  36060.3  189.448
 8.1796  36286.4  190.587
 8.2216  37279.7  191.626
 8.2636  37045.1  191.55
 8.3056  37060.1  192.359
 8.3476  37587.7  193.052
 8.3896  37175.4  192.071
 8.4316  37375.1  192.75
 8.4736  37868.6  193.482
 8.5156  37683.9  193.285
 8.5576  37099.1  192.761
 8.5996  36742.9  190.708
 8.6416  36997.2  192.626
 8.6836  36611.1  191.45
 8.7256  37379.1  192.886
 8.7676  36694  194.018
 8.8096  36743.8  191.46
 8.8516  36539.9  190.556
 8.8936  35997.4  189.031
 8.9356  35850.2  189
 8.9776  36137.6  189.835
 9.0196  35715.7  188.41
 9.0616  36080.6  188.908
 9.1036  35777.8  189.224
 9.1456  35704.9  188.382
 9.1876  35653  188.205
 9.2296  35814  188.027
 9.2716  35038.7  186.049
 9.3136  35261.5  186.616
 9.3556  35392  186.953
 9.3976  33868.7  183.418
 9.4396  34625.8  185.339
 9.4816  33902.7  183.261
 9.5236  34061.7  183.598
 9.5656  33932.6  183.573
 9.6076  33681  183.407
 9.6496  33568.7  183.035
 9.6916  33514.3  182.848
 9.7336  33358.7  182.213
 9.7756  33589.1  184.086
 9.8176  32681.1  181.098
 9.8596  32761.5  179.777
 9.9016  32558.5  179.211
 9.9436  31827.2  177.099
 9.9856  31683.6  176.931
 10.0276  31246.5  176.785
 10.0696  31523.1  176.621
 10.1116  30617  174.326
 10.1536  30588.3  174.409
 10.1956  30418.3  173.527
 10.2376  29730.9  171.071
 10.2796  29872.5  171.597
 10.3216  29743.8  171.494
 10.3636  29618.2  171.157
 10.4056  29270.1  170.54
 10.4476  29284.1  170.215
 10.4896  29505.7  170.314
 10.5316  28498.1  168.08
 10.5736  28573.4  168.706
 10.6156  28473.5  168.187
 10.6576  28401.7  166.545
 10.6996  28196.8  166.605
 10.7416  27786.6  165.626
 10.7836  28156.5  167.401
 10.8256  27687.6  166.43
 10.8676  27746.3  166.138
 10.9096  27177.9  164.476
 10.9516  27065.3  163.063
 10.9936  27064.4  163.264
 11.0356  26928.3  163.485
 11.0776  26900.7  162.714
 11.1196  26288.2  161.595
 11.1616  26069.4  160.605
 11.2036  26230.4  160.96
 11.2456  26144.3  161.393
 11.2876  26131.3  161.094
 11.3296  25805.5  159.981
 11.3716  26128  160.673
 11.4136  26281.5  162.039
 11.4556  26223.7  161.525
 11.4976  26455.5  161.207
 11.5396  26740.2  162.25
 11.5816  26683.6  162.538
 11.6236  26454  162.052
 11.6656  25860  159.392
 11.7076  25397.3  158.784
 11.7496  25084.2  160.918
 11.7916  25019.5  156.872
 11.8336  24916.7  157.42
 11.8756  24562.4  155.842
 11.9176  24802.8  156.263
 11.9596  24479  155.44
 12.0016  24490.4  156.253
 12.0436  24271.3  154.985
 12.0856  24116.2  155.008
 12.1276  24228.4  155.166
 12.1696  24151.1  154.177
 12.2116  24394.3  154.942
 12.2536  23964.5  154.4
 12.2956  23943.7  153.551
 12.3376  23772.4  153.339
 12.3796  23987.9  154.471
 12.4216  23888.5  153.384
 12.4636  23572.6  153.273
 12.5056  23956.9  153.86
 12.5476  24067  153.67
 12.5896  24035  154.197
 12.6316  23526.1  152.726
 12.6736  23624  153.513
 12.7156  23421.3  152.721
 12.7576  23668.8  153.765
 12.7996  23843.7  152.984
 12.8416  23580.4  153.176
 12.8836  24188.3  154.962
 12.9256  24406.7  154.682
 12.9676  24393  155.058
 13.0096  24058.5  155.092
 13.0516  24269.9  154.802
 13.0936  24165.7  154.882
 13.1356  24707  155.581
 13.1776  24280  155.219
 13.2196  24446.7  155.402
 13.2616  24427.2  155.648
 13.3036  24428.5  155.629
 13.3456  24308.8  155.779
 13.3876  24235.6  154.667
 13.4296  24155.9  154.557
 13.4716  24505.7  155.283
 13.5136  24453.3  155.267
 13.5556  24511.6  155.767
 13.5976  24471.3  156.073
 13.6396  24573.1  155.763
 13.6816  24232.8  155.187
 13.7236  24741.1  156.454
 13.7656  24103.6  154.953
 13.8076  24460.3  154.88
 13.8496  23901  153.698
 13.8916  24120.8  155.395
 13.9336  24152.6  154.724
 13.9756  23864.4  153.155
 14.0176  23812.3  153.569
 14.0596  23744.2  153.415
 14.1016  23760.2  153.854
 14.1436  23289.6  151.469
 14.1856  22990.9  150.786
 14.2276  22835.9  150.711
 14.2696  23082.7  151.415
 14.3116  22814.7  150.423
 14.3536  22497.9  149.552
 14.3956  22487.6  149.252
 14.4376  22523.2  149.15
 14.4796  22444.5  148.882
 14.5216  22226.5  148.952
 14.5636  22042.5  147.903
 14.6056  22107.7  147.694
 14.6476  22128.2  146.999
 14.6896  21575.2  145.689
 14.7316  21448.7  146.277
 14.7736  21312  144.967
 14.8156  21160.7  144.49
 14.8576  20948.8  143.615
 14.8996  20744.2  144.11
 14.9416  20191.1  142.173
 14.9836  20441.9  143.013
 15.0256  19958.8  140.246
 15.0676  20367.8  141.902
 15.1096  20344.4  141.647
 15.1516  19917.7  140.711
 15.1936  19732.1  139.482
 15.2356  19433.8  138.702
 15.2776  19548.2  139.118
 15.3196  18863.6  137.239
 15.3616  18972.8  137.387
 15.4036  18877.9  136.908
 15.4456  19139.8  137.504
 15.4876  18979  136.603
 15.5296  18672.3  135.781
 15.5716  18447.8  134.565
 15.6136  18316.4  134.413
 15.6556  18461.5  134.551
 15.6976  18286  133.84
 15.7396  18050.8  133.36
 15.7816  18050.1  132.868
 15.8236  17941.2  133.111
 15.8656  17804.4  132.444
 15.9076  17526.6  131.24
 15.9496  17420.4  133.629
 15.9916  17510.9  134.412
 16.0336  17028.9  129.483
 16.0756  17394.8  131.169
 16.1176  17199.1  130.496
 16.1596  16798.2  130.137
 16.2016  17048.1  129.844
 16.2436  16804.8  129.301
 16.2856  16876.7  129.125
 16.3276  16269.4  127.193
 16.3696  16639.9  128.45
 16.4116  16487.8  128.323
 16.4536  16771  129.202
 16.4956  16422  127.6
 16.5376  16448.1  127.88
 16.5796  16308.1  126.693
 16.6216  16505.4  127.766
 16.6636  16214.4  126.781
 16.7056  16429.2  127.491
 16.7476  16405  126.928
 16.7896  16261.7  127.12
 16.8316  16229.1  126.961
 16.8736  16117.9  126.778
 16.9156  16233.6  127.566
 16.9576  16053.9  127.653
 16.9996  16088.8  128.28
 17.0416  16106.5  126.71
 17.0836  16216.7  126.908
 17.1256  15906.1  125.692
 17.1676  15907.8  125.695
 17.2096  15803.2  125.158
 17.2516  15588.7  124.09
 17.2936  15783.7  125.191
 17.3356  15214.9  122.922
 17.3776  15444.6  124.032
 17.4196  15635.6  124.481
 17.4616  15329.3  123.179
 17.5036  15129.7  122.736
 17.5456  15133.7  123.397
 17.5876  15167.1  122.58
 17.6296  14927.4  121.43
 17.6716  14969.1  122.164
 17.7136  14822.1  121.712
 17.7556  14949.3  122.518
 17.7976  14770.4  121.528
 17.8396  14695.6  120.721
 17.8816  14809.3  121.728
 17.9236  14549.4  120.47
 17.9656  14789.9  121.991
 18.0076  14845.4  121.8
 18.0496  14734  120.477
 18.0916  14541.8  120.146
 18.1336  14701.3  120.98
 18.1756  14894.3  121.29
 18.2176  14666.4  120.588
 18.2596  14866.4  121.144
 18.3016  14974.6  121.835
 18.3436  14979.9  121.871
 18.3856  14625.3  120.749
 18.4276  14681.5  120.46
 18.4696  14491.8  119.779
 18.5116  14666.7  120.783
 18.5536  14602.7  120.876
 18.5956  14361.4  119.425
 18.6376  14327.6  119.691
 18.6796  14388  119.268
 18.7216  14455.1  120.032
 18.7636  14043.9  118.313
 18.8056  14227  119.008
 18.8476  14122.6  119.196
 18.8896  14154.3  118.671
 18.9316  14313.5  119.32
 18.9736  14129.7  118.249
 19.0156  14033.1  118.25
 19.0576  14043.3  117.164
 19.0996  14124.4  118.209
 19.1416  13784.5  117.17
 19.1836  13927.8  117.372
 19.2256  13946.9  117.758
 19.2676  13979.4  117.899
 19.3096  14160.9  118.904
 19.3516  13899.8  117.766
 19.3936  13836.5  117.395
 19.4356  13917.5  117.62
 19.4776  13909  117.674
 19.5196  13899.7  117.489
 19.5616  13692.2  116.857
 19.6036  14036.2  117.811
 19.6456  13909.5  117.402
 19.6876  13962.7  117.269
 19.7296  14012  117.94
 19.7716  13851.5  117.418
 19.8136  14090.3  118.64
 19.8556  14285.2  118.929
 19.8976  14170.1  118.515
 19.9396  14252  118.428
 19.9816  14416.4  119.351
 20.0236  14454.7  119.734
 20.0656  14675.7  120.636
 20.1076  14327.3  119.67
 20.1496  14282.1  119.48
 20.1916  13987.1  117.76
 20.2336  13919.6  117.404
 20.2756  13680.2  116.821
 20.3176  13571.5  116.105
 20.3596  13594.7  116.175
 20.4016  13509.8  115.619
 20.4436  13510  116.078
 20.4856  13291.9  115.035
 20.5276  13353.3  115.757
 20.5696  13310.5  115.033
 20.6116  13237  114.983
 20.6536  13420.7  115.252
 20.6956  13184.4  114.393
 20.7376  13232.5  114.823
 20.7796  13233.1  114.519
 20.8216  13341.6  114.691
 20.8636  13094.5  114
 20.9056  13090.3  113.926
 20.9476  13007.5  113.413
 20.9896  13225.6  114.22
 21.0316  13284.7  114.367
 21.0736  13026.2  113.765
 21.1156  13132.8  114.389
 21.1576  13146  114.502
 21.1996  13104.6  114.301
 21.2416  12920  113.331
 21.2836  13000.4  113.638
 21.3256  12938.8  113.505
 21.3676  12989.8  113.227
 21.4096  12908.1  113.18
 21.4516  12855.6  112.829
 21.4936  12791.7  112.797
 21.5356  12875.8  113.113
 21.5776  12928.5  113.181
 21.6196  12685.6  112.141
 21.6616  12701.1  112.305
 21.7036  12795.6  112.504
 21.7456  12890.6  112.993
 21.7876  12733.5  112.053
 21.8296  12682.7  111.687
 21.8716  12733.9  112.144
 21.9136  12858.7  112.891
 21.9556  12572.2  111.303
 21.9976  12589.1  111.39
 22.0396  12679.3  112.037
 22.0816  12729.2  112.802
 22.1236  12701.2  112.134
 22.1656  12662.2  112.441
 22.2076  12663.2  111.56
 22.2496  12802.7  112.199
 22.2916  12776.6  111.966
 22.3336  12624.1  112.021
 22.3756  12571.7  111.51
 22.4176  12562.2  111.324
 22.4596  12363.3  111.021
 22.5016  12619.9  111.663
 22.5436  12777.2  112.348
 22.5856  12604.3  111.721
 22.6276  12594  111.811
 22.6696  12517.6  111.819
 22.7116  12508.8  111.299
 22.7536  12652.6  111.912
 22.7956  12602.5  111.021
 22.8376  12537.8  111.257
 22.8796  12525.9  111.004
 22.9216  12798.4  112.757
 22.9636  12731.8  111.611
 23.0056  12419.7  110.369
 23.0476  12737.1  112.345
 23.0896  12892.6  112.399
 23.1316  12667.9  111.851
 23.1736  12573.9  114.392
 23.2156  12723.9  112.431
 23.2576  12549.8  111.801
 23.2996  12637.3  111.964
 23.3416  12527.2  112.005
 23.3836  12582.7  111.482
 23.4256  12494  111.215
 23.4676  12539.8  111.108
 23.5096  12463.9  111.443
 23.5516  12412.2  110.498
 23.5936  12538.9  111.968
 23.6356  12746.1  112.545
 23.6776  12508.4  111.7
 23.7196  12358.2  110.617
 23.7616  12634.9  111.758
 23.8036  12599.9  111.657
 23.8456  12467.6  110.479
 23.8876  12245.6  109.998
 23.9296  12133.6  109.974
 23.9716  12320.9  110.017
 24.0136  12474  111.603
 24.0556  12066.6  109.5
 24.0976  12058.2  109.271
 24.1396  12138.7  112.26
 24.1816  12238.4  111.153
 24.2236  12129.5  110.272
 24.2656  11901.2  108.705
 24.3076  11932.7  109.102
 24.3496  12043.9  109.495
 24.3916  11957.4  109.153
 24.4336  11805.7  108.666
 24.4756  11788.9  108.464
 24.5176  11748  107.922
 24.5596  11669.2  107.686
 24.6016  11563.4  107.478
 24.6436  11690.8  107.569
 24.6856  11633.8  107.063
 24.7276  11594.6  107.192
 24.7696  11496.3  106.854
 24.8116  11469.6  106.9
 24.8536  11358.6  106.381
 24.8956  11251.5  105.626
 24.9376  11378.8  106.161
 24.9796  11316.2  106.217
 25.0216  11091.3  105.275
 25.0636  11316.8  105.989
 25.1056  11131.4  105.816
 25.1476  11224.6  107.903
 25.1896  11256.2  106.541
 25.2316  11274.4  105.895
 25.2736  11280  105.578
 25.3156  11077.7  104.703
 25.3576  11192.4  105.66
 25.3996  11106.8  105.244
 25.4416  11031.4  104.87
 25.4836  10894.1  104.728
 25.5256  11067  104.927
 25.5676  11158.2  105.086
 25.6096  11087.6  105.33
 25.6516  11098.1  104.873
 25.6936  10898.2  104.241
 25.7356  10848.6  104.135
 25.7776  10971.2  104.325
 25.8196  10818.1  103.831
 25.8616  10903.2  104.153
 25.9036  11035.9  104.263
 25.9456  10933.9  104.37
 25.9876  10756.5  103.589
 26.0296  10954  104.046
 26.0716  10855.1  104.005
 26.1136  10921  104.255
 26.1556  10955  103.796
 26.1976  10835.5  104.157
 26.2396  10864.5  103.443
 26.2816  10909.2  104.279
 26.3236  10866.6  104.224
 26.3656  10689.3  103.104
 26.4076  10891.8  104.282
 26.4496  11317.6  105.819
 26.4916  10933.3  103.981
 26.5336  10943.5  104.429
 26.5756  10944.3  104.232
 26.6176  10792.3  103.538
 26.6596  10702  103.414
 26.7016  10663.9  102.985
 26.7436  10583.4  102.731
 26.7856  10509.4  102.347
 26.8276  10586.1  102.678
 26.8696  10618.1  102.709
 26.9116  10711.7  103.101
 26.9536  10453.1  101.895
 26.9956  10538.8  102.34
 27.0376  10437.2  102.065
 27.0796  10560.4  102.398
 27.1216  10434.1  101.862
 27.1636  10288.1  101.309
 27.2056  10377.5  101.629
 27.2476  10381.2  101.643
 27.2896  10454  102.11
 27.3316  10300.8  101.078
 27.3736  10337.5  101.523
 27.4156  10183.9  100.616
 27.4576  10249  101.161
 27.4996  10213.3  100.587
 27.5416  10280.4  101.231
 27.5836  10295.5  101.123
 27.6256  10544.1  102.487
 27.6676  10370.1  101.671
 27.7096  10292  101.149
 27.7516  10058.2  100.059
 27.7936  10083.9  100.45
 27.8356  10081.6  100.058
 27.8776  10113.5  100.264
 27.9196  10049.1  99.7854
 27.9616  10278.8  101.125
 28.0036  10086.4  100.143
 28.0456  10125.7  100.461
 28.0876  9976.8  99.8124
 28.1296  10152.3  100.527
 28.1716  10004.7  99.8048
 28.2136  10108.5  100.285
 28.2556  9938.7  99.5611
 28.2976  10015.1  99.9219
 28.3396  9976.32  99.4922
 28.3816  10001.2  99.6398
 28.4236  9894  99.2537
 28.4656  9901.78  99.3318
 28.5076  9980.16  99.3519
 28.5496  9945.51  99.4489
 28.5916  9926  99.1605
 28.6336  9772.39  98.7311
 28.6756  9925.95  98.702
 28.7176  9789.31  98.564
 28.7596  9693.1  97.9742
 28.8016  9857.58  98.8387
 28.8436  9628.88  97.9261
 28.8856  9761.61  98.4511
 28.9276  9723.03  98.4995
 28.9696  9636.7  97.726
 29.0116  9721.85  98.3381
 29.0536  9578.2  97.8065
 29.0956  9707.39  98.1841
 29.1376  9653.48  97.8712
 29.1796  9612.5  97.7108
 29.2216  9643.74  97.7146
 29.2636  9668.7  97.9192
 29.3056  9648.48  97.6028
 29.3476  9606  97.9078
 29.3896  9786.03  98.9107
 29.4316  9760.79  98.1212
 29.4736  9680.66  97.7801
 29.5156  9724.72  97.9158
 29.5576  9657.21  98.3254
 29.5996  9592.99  97.2571
 29.6416  9565.94  97.2381
 29.6836  9668.1  97.6826
 29.7256  9670.91  98.2648
 29.7676  9602.61  97.5773
 29.8096  9623.02  97.6247
 29.8516  9390.45  96.7653
 29.8936  9615.29  98.0123
 29.9356  9681.91  98.1052
 29.9776  9471.24  97.1851
 30.0196  9556.91  97.0094
 30.0616  9436.49  96.7702
 30.1036  9523.82  97.041
 30.1456  9447.32  96.8811
 30.1876  9463.43  96.9463
 30.2296  9453.52  96.8422
 30.2716  9615.02  97.3016
 30.3136  9564.63  97.9068
 30.3556  9566.73  97.9376
 30.3976  9318.36  98.1622
 30.4396  9613.89  97.0403
 30.4816  9614.73  96.6379
 30.5236  9329.16  95.2191
 30.5656  9367.39  96.0548
 30.6076  9451.7  95.9124
 30.6496  9396.44  96.0201
 30.6916  9373.78  95.9897
 30.7336  9345.21  96.0017
 30.7756  9340.24  96.0678
 30.8176  9351.48  96.0414
 30.8596  9389.8  96.0075
 30.9016  9318.16  95.9801
 30.9436  9487.2  96.5984
 30.9856  9454.65  96.5473
 31.0276  9307.36  95.3937
 31.0696  9271.05  95.7847
 31.1116  9290.35  95.8595
 31.1536  9304.29  95.8097
 31.1956  9221.7  95.4719
 31.2376  9116.08  94.9339
 31.2796  9233.49  95.0821
 31.3216  9348.94  95.6229
 31.3636  9245.14  95.7781
 31.4056  9318.05  97.4754
 31.4476  9261.55  95.0728
 31.4896  9212.6  95.3164
 31.5316  9288.04  95.1067
 31.5736  9256.56  94.7732
 31.6156  9164.69  94.3203
 31.6576  9319.66  95.2045
 31.6996  9181.79  94.1783
 31.7416  9033.41  94.4646
 31.7836  9221.14  94.4562
 31.8256  8976.58  93.4605
 31.8676  9189.11  94.5525
 31.9096  9071.34  94.3053
 31.9516  9070.75  94.4625
 31.9936  8905.81  93.421
 32.0356  8995.64  93.9628
 32.0776  9069.7  94.2337
 32.1196  9153.56  94.7561
 32.1616  9124.04  94.0666
 32.2036  8969.68  93.7766
 32.2456  9114.65  94.9073
 32.2876  9093.46  94.2924
 32.3296  8930.99  93.4134
 32.3716  8948.7  93.5961
 32.4136  8974.34  93.9464
 32.4556  9127.98  94.128
 32.4976  9148.34  94.1428
 32.5396  8997.12  93.4323
 32.5816  8913.25  93.1154
 32.6236  8957.03  93.4147
 32.6656  9017.83  94.2712
 32.7076  8828.8  92.9309
 32.7496  8955.5  93.2711
 32.7916  9017.2  93.5499
 32.8336  8918.28  93.1225
 32.8756  9054.38  93.5632
 32.9176  8857.35  93.0098
 32.9596  8843.67  93.0172
 33.0016  8865.61  92.9263
 33.0436  9115.64  94.1304
 33.0856  8883.44  93.2588
 33.1276  8780.77  92.4569
 33.1696  8799.55  92.4002
 33.2116  8901.64  93.1621
 33.2536  8978.77  93.5674
 33.2956  8830.78  92.8711
 33.3376  8743.07  92.1528
 33.3796  8942.26  93.4041
 33.4216  8970.84  93.143
 33.4636  8873.58  92.7882
 33.5056  8717.16  92.2014
 33.5476  8688.86  92.0523
 33.5896  8938.72  93.1316
 33.6316  8680.1  92.097
 33.6736  8592.81  91.8669
 33.7156  8687.92  92.1411
 33.7576  8769.7  92.4802
 33.7996  8837.32  92.5995
 33.8416  8558.9  91.3131
 33.8836  8670.83  91.8243
 33.9256  8737.6  92.1067
 33.9676  8778.61  92.2185
 34.0096  8557.26  91.3583
 34.0516  8717.7  91.845
 34.0936  8610.54  91.4475
 34.1356  8707.51  91.7957
 34.1776  8561.73  91.0407
 34.2196  8615.79  91.5054
 34.2616  8615.34  91.6344
 34.3036  8515.81  91.3568
 34.3456  8531.27  91.1949
 34.3876  8539.12  91.2044
 34.4296  8486.44  90.6131
 34.4716  8665.45  91.6601
 34.5136  8547.36  91.2872
 34.5556  8578.11  91.7019
 34.5976  8655.16  91.9163
 34.6396  8521.43  90.9149
 34.6816  8469.22  90.7541
 34.7236  8464.58  90.5114
 34.7656  8593.77  91.3942
 34.8076  8497.28  91.2055
 34.8496  8457.51  90.8408
 34.8916  8458.45  90.7275
 34.9336  8604.46  91.4599
 34.9756  8511.78  90.8896
 35.0176  8466.99  91.1675
 35.0596  8417.78  90.7483
 35.1016  8398.98  90.4137
 35.1436  8615.9  91.2531
 35.1856  8455.63  90.5343
 35.2276  8473.93  90.8009
 35.2696  8391.86  90.5473
 35.3116  8543.08  91.4505
 35.3536  8448.68  90.6673
 35.3956  8399.94  90.1079
 35.4376  8380.07  90.5615
 35.4796  8363.8  90.5311
 35.5216  8346.48  90.3905
 35.5636  8187  90.2615
 35.6056  8417.52  90.5413
 35.6476  8468.49  90.7105
 35.6896  8466.13  90.7914
 35.7316  8358.3  90.177
 35.7736  8352.79  90.3491
 35.8156  8310.75  90.1232
 35.8576  8377.21  90.7316
 35.8996  8520.73  91.4684
 35.9416  8598.52  91.353
 35.9836  8216.96  89.6813
 36.0256  8342.03  90.3772
 36.0676  8344.5  90.1525
 36.1096  8190.48  89.4527
 36.1516  8295.01  89.913
 36.1936  8286.02  89.7159
 36.2356  8277.61  90.3065
 36.2776  8327.35  90.0577
 36.3196  8284.42  89.4975
 36.3616  8279.09  89.5461
 36.4036  8299.2  89.7562
 36.4456  8371.53  90.3675
 36.4876  8205.56  89.3986
 36.5296  8313.99  90.0337
 36.5716  8209.9  90.0068
 36.6136  8500.95  90.5822
 36.6556  8390.42  90.1901
 36.6976  8270.74  90.0468
 36.7396  8237.51  89.5985
 36.7816  8177.52  89.6435
 36.8236  8236.64  89.8907
 36.8656  8150.93  89.4934
 36.9076  8152.29  89.3778
 36.9496  8225.8  89.7667
 36.9916  8257.23  89.5688
 37.0336  8432.47  90.833
 37.0756  8288.41  89.8445
 37.1176  8168.31  89.46
 37.1596  8096.25  89.069
 37.2016  8148.78  89.5828
 37.2436  8208.08  89.2276
 37.2856  8147.62  89.1478
 37.3276  8139.88  88.6305
 37.3696  8033.47  88.7581
 37.4116  8107  89.0707
 37.4536  8090.21  88.8479
 37.4956  7936.05  88.245
 37.5376  8158.96  90.8069
 37.5796  7986.21  89.8262
 37.6216  7907.2  87.6708
 37.6636  8002.77  88.1013
 37.7056  8058.26  88.5941
 37.7476  8066.78  88.1812
 37.7896  7991.34  88.2457
 37.8316  7929.16  88.092
 37.8736  7980.85  87.8961
 37.9156  8012.34  88.0762
 37.9576  7941.12  87.5626
 37.9996  7745.74  86.214
 38.0416  7931.35  88.0486
 38.0836  8179.71  89.3137
 38.1256  7928.08  87.8876
 38.1676  7852.59  87.6082
 38.2096  7944.79  87.7502
 38.2516  8040.52  88.4714
 38.2936  8008.56  88.1057
 38.3356  8073.09  88.373
 38.3776  7838.34  87.3473
 38.4196  7988.49  88.0327
 38.4616  7975.92  88.1972
 38.5036  8030.33  88.3481
 38.5456  7872.73  88.2955
 38.5876  7946.48  88.7441
 38.6296  7886.24  87.3936
 38.6716  7826.56  86.8552
 38.7136  7885.72  87.1274
 38.7556  7734.86  86.7845
 38.7976  7810.8  87.148
 38.8396  7853.08  87.8382
 38.8816  7843.2  87.5638
 38.9236  7706.33  86.611
 38.9656  7915.74  87.6932
 39.0076  7826.47  86.6092
 39.0496  7851.52  87.2847
 39.0916  7815.23  86.73
 39.1336  7780.59  86.9469
 39.1756  7798.23  87.1151
 39.2176  7872.37  88.0534
 39.2596  7815.41  87.6601
 39.3016  7776.51  87.0111
 39.3436  7858.27  87.8986
 39.3856  7837.73  87.2341
 39.4276  7710.23  87.0061
 39.4696  7865.51  87.5104
 39.5116  7780.69  87.5493
 39.5536  7932.17  88.8153
 39.5956  8026.09  88.4317
 39.6376  7968.14  88.119
 39.6796  7876.69  87.3465
 39.7216  7843.12  87.2626
 39.7636  7902.52  88.1613
 39.8056  7872.14  87.7726
 39.8476  7740.81  87.2872
 39.8896  7808.5  87.3051
 39.9316  7910.23  88.1264
 39.9736  7999.9  88.1861
 40.0156  7839.81  87.13
 40.0576  7853.53  87.5621
 40.0996  7910.75  87.068
 40.1416  7946.93  88.0552
 40.1836  7921.83  87.8065
 40.2256  7920.67  87.8495
 40.2676  7864.39  87.6431
 40.3096  7870.71  87.6021
 40.3516  7951.82  88.158
 40.3936  7974.94  87.8487
 40.4356  7839.28  87.2867
 40.4776  7904.97  88.0677
 40.5196  7902.71  88.1805
 40.5616  7946.78  88.0716
 40.6036  7859.34  87.8374
 40.6456  7977.67  88.1007
 40.6876  8096.77  88.7445
 40.7296  7979.41  88.2353
 40.7716  7942.14  88.156
 40.8136  7905.81  87.8962
 40.8556  7924.18  88.1381
 40.8976  7974.25  88.3353
 40.9396  7797.32  87.6969
 40.9816  8069.42  88.4925
 41.0236  7965.24  87.6964
 41.0656  8021.18  88.5494
 41.1076  8014.57  88.2749
 41.1496  7996.17  88.0893
 41.1916  7963.2  88.2275
 41.2336  7840.06  87.5385
 41.2756  7749.3  86.6317
 41.3176  7883.65  88.0023
 41.3596  7923.39  87.9514
 41.4016  7905.01  88.101
 41.4436  8004.23  88.4418
 41.4856  8007.25  88.6212
 41.5276  7829.95  87.651
 41.5696  7873.49  87.5326
 41.6116  7851.01  87.804
 41.6536  7948.12  88.2005
 41.6956  7936.88  88.1905
 41.7376  7941.08  88.2435
 41.7796  7819.69  87.4463
 41.8216  7781.56  87.4701
 41.8636  7944.95  88.3198
 41.9056  7729.14  86.9046
 41.9476  7947.43  88.3597
 41.9896  7894.86  87.7351
 42.0316  7930.93  88.0139
 42.0736  7818.25  87.5047
 42.1156  7799.7  87.228
 42.1576  7885.7  87.8111
 42.1996  7848.58  87.7428
 42.2416  7891.32  87.4771
 42.2836  7846.19  87.4283
 42.3256  7799.44  87.2847
 42.3676  7774.63  86.9545
 42.4096  7896.07  87.581
 42.4516  7834.43  87.3965
 42.4936  7780.55  87.1035
 42.5356  7762.51  87.123
 42.5776  7885.11  87.7613
 42.6196  7894.54  87.863
 42.6616  7658.97  86.715
 42.7036  7815.89  86.984
 42.7456  7803.53  87.273
 42.7876  7768.84  87.1753
 42.8296  7675.14  86.4779
 42.8716  7732.34  86.9631
 42.9136  7710.77  86.6322
 42.9556  7809.49  87.317
 42.9976  7870.49  87.6153
 43.0396  7691.72  86.3531
 43.0816  7757.84  87.0999
 43.1236  7708.18  86.8807
 43.1656  7701.06  86.6722
 43.2076  7668.56  86.5922
 43.2496  7633.04  86.2051
 43.2916  7639.28  86.6039
 43.3336  7650.2  86.5044
 43.3756  7662.98  86.3322
 43.4176  7680.35  86.5131
 43.4596  7685.43  86.3976
 43.5016  7764.24  87.2478
 43.5436  7679.65  86.6595
 43.5856  7657.85  86.5722
 43.6276  7608.15  86.1853
 43.6696  7583.96  86.2584
 43.7116  7740.95  86.6926
 43.7536  7678.03  86.8295
 43.7956  7468.33  86.8261
 43.8376  7634.64  86.3054
 43.8796  7609.21  86.2422
 43.9216  7647.66  86.3786
 43.9636  7639.38  86.4377
 44.0056  7522.58  86.0074
 44.0476  7464.59  85.4267
 44.0896  7490.4  85.7984
 44.1316  7703.16  86.5278
 44.1736  7442.38  85.1643
 44.2156  7589.55  85.8688
 44.2576  7498.6  85.672
 44.2996  7614.34  86.3037
 44.3416  7541.31  85.65
 44.3836  7382.07  85.0647
 44.4256  7469.12  85.21
 44.4676  7279.43  84.2732
 44.5096  7512.69  85.7592
 44.5516  7434.5  85.2716
 44.5936  7346.91  84.7242
 44.6356  7448.76  85.0509
 44.6776  7461.02  85.439
 44.7196  7468.35  85.787
 44.7616  7377.23  86.5804
 44.8036  7316.63  84.6634
 44.8456  7419.17  85.468
 44.8876  7444.24  85.565
 44.9296  7515.86  85.325
 44.9716  7387.92  85.0312
 45.0136  7365.04  84.8285
 45.0556  7386.21  84.9249
 45.0976  7397.89  85.1582
 45.1396  7314.67  84.4401
 45.1816  7350.43  84.5689
 45.2236  7483.75  85.238
 45.2656  7264.68  84.4638
 45.3076  7417.83  85.148
 45.3496  7243.46  84.4355
 45.3916  7275.41  84.8909
 45.4336  7260.79  84.6543
 45.4756  7272.23  84.5791
 45.5176  7324  84.5013
 45.5596  7510.94  85.6885
 45.6016  7263.35  84.6786
 45.6436  7273.65  83.9315
 45.6856  7246.71  84.4244
 45.7276  7211.67  85.5173
 45.7696  7268.1  85.519
 45.8116  7260.65  84.9234
 45.8536  7078.72  83.7487
 45.8956  7379.55  84.8661
 45.9376  7232.78  83.4905
 45.9796  7227.31  84.1337
 46.0216  7346.5  85.1641
 46.0636  7348.57  84.3329
 46.1056  7312.87  84.11
 46.1476  7170.95  83.8725
 46.1896  7275.37  84.6317
 46.2316  7255.9  84.3881
 46.2736  7168.92  84.2432
 46.3156  7176.61  83.8759
 46.3576  7213.88  84.2982
 46.3996  7166.28  84.1758
 46.4416  7225.15  84.106
 46.4836  7201.27  84.312
 46.5256  7226.22  84.4019
 46.5676  7150.71  84.0718
 46.6096  7321.97  85.0032
 46.6516  7298.8  83.9224
 46.6936  7241.81  84.0812
 46.7356  7249.07  84.2222
 46.7776  6989.64  83.5817
 46.8196  7096.27  83.762
 46.8616  7034.63  83.3383
 46.9036  6988.03  82.732
 46.9456  7023.7  82.5823
 46.9876  7130  83.2963
 47.0296  7078.91  83.5834
 47.0716  7046.95  83.31
 47.1136  7100.65  83.3073
 47.1556  7053.66  82.9005
 47.1976  7106.12  83.2856
 47.2396  7045.76  83.326
 47.2816  7031.18  82.9441
 47.3236  7078.58  83.5932
 47.3656  7097.82  83.6318
 47.4076  6977.43  82.7213
 47.4496  7018  83.0605
 47.4916  7016.56  83.2435
 47.5336  7105.59  83.5903
 47.5756  7198.31  84.2466
 47.6176  7060.57  83.327
 47.6596  6981.92  82.5894
 47.7016  7072.33  82.9417
 47.7436  7022.4  82.9744
 47.7856  7033.37  83.0736
 47.8276  6909.83  82.3772
 47.8696  6933.57  82.6118
 47.9116  7007.52  82.7624
 47.9536  6965.69  82.4598
 47.9956  6930.59  82.9488
 48.0376  6910.88  82.6094
 48.0796  6933.87  82.8664
 48.1216  7017.4  83.1929
 48.1636  7078.84  83.1393
 48.2056  7057.31  83.27
 48.2476  6968.01  83.0334
 48.2896  7026.44  83.3004
 48.3316  6945.32  82.7603
 48.3736  6934.06  82.7204
 48.4156  6876.45  82.3368
 48.4576  6870.96  82.4838
 48.4996  6983.9  82.6216
 48.5416  6941.06  82.694
 48.5836  6898.89  82.1205
 48.6256  7005.01  82.9598
 48.6676  6898.4  82.8215
 48.7096  6935.17  82.3194
 48.7516  6861.9  82.0339
 48.7936  6790.03  81.7583
 48.8356  6915.98  82.4684
 48.8776  6886.36  82.8471
 48.9196  7037.37  83.1307
 48.9616  6889.24  82.6194
 49.0036  6943.35  83.2982
 49.0456  6865.48  82.8022
 49.0876  6839.52  82.1921
 49.1296  6699.77  81.5108
 49.1716  6758.27  81.9565
 49.2136  6790.36  81.8539
 49.2556  6809.49  82.005
 49.2976  6872.44  82.4513
 49.3396  6851.86  82.3873
 49.3816  6856.34  81.9958
 49.4236  6838.93  82.1563
 49.4656  6727.2  81.5065
 49.5076  6831.33  81.8851
 49.5496  6737.89  81.3881
 49.5916  6781.23  81.5673
 49.6336  6767.5  81.6847
 49.6756  6838.23  82.3438
 49.7176  6760.27  81.8118
 49.7596  6738.56  81.4533
 49.8016  6866.92  82.1435
 49.8436  6717.81  81.5358
 49.8856  6747.72  81.7305
 49.9276  6687.82  81.4528
 49.9696  6802.28  82.1412
 50.0116  6758.02  81.9983
 50.0536  6752.17  81.9097
 50.0956  6659.03  81.413
 50.1376  6749.59  81.674
 50.1796  6627.59  81.1929
 50.2216  6696.4  81.5984
 50.2636  6696.66  81.2345
 50.3056  6676.76  81.2812
 50.3476  6697.8  81.4349
 50.3896  6651.9  81.1237
 50.4316  6703.56  81.2773
 50.4736  6624.53  81.0095
 50.5156  6697.76  81.4467
 50.5576  6693.27  81.1841
 50.5996  6656.86  81.2396
 50.6416  6714.35  81.5232
 50.6836  6671.19  81.3167
 50.7256  6688.51  81.3561
 50.7676  6696.92  81.7143
 50.8096  6570.8  80.4926
 50.8516  6695.96  81.6638
 50.8936  6527.33  80.407
 50.9356  6695.85  81.5475
 50.9776  6646.92  81.3985
 51.0196  6531.55  80.8034
 51.0616  6475.08  79.7998
 51.1036  6759.51  81.8904
 51.1456  6622.03  80.9688
 51.1876  6568.9  79.9921
 51.2296  6503.8  80.2232
 51.2716  6489.78  79.842
 51.3136  6516.85  80.4518
 51.3556  6436.27  79.595
 51.3976  6470.19  79.9506
 51.4396  6374.66  79.6599
 51.4816  6401.37  79.671
 51.5236  6561  80.7512
 51.5656  6507.26  80.0329
 51.6076  6476.16  79.9222
 51.6496  6523.15  80.3979
 51.6916  6391.62  79.9329
 51.7336  6498.62  80.6862
 51.7756  6533.52  80.6085
 51.8176  6333.14  79.4618
 51.8596  6499.55  80.5168
 51.9016  6506.26  80.1732
 51.9436  6443.34  81.2093
 51.9856  6442.19  81.6439
 52.0276  6529.34  80.7176
 52.0696  6518.32  80.7158
 52.1116  6508.06  80.7606
 52.1536  6363.25  79.7547
 52.1956  6475.59  79.92
 52.2376  6633.03  81.0642
 52.2796  6565.68  80.4561
 52.3216  6285.08  79.3969
 52.3636  6345.5  79.3654
 52.4056  6420.24  79.6856
 52.4476  6354.22  79.6359
 52.4896  6359.62  79.7235
 52.5316  6359.6  79.7629
 52.5736  6495.42  80.341
 52.6156  6381.58  80.0082
 52.6576  6561.51  80.5694
 52.6996  6112.19  78.7072
 52.7416  6337.9  80.0676
 52.7836  6329.34  79.8265
 52.8256  6469.67  79.9352
 52.8676  6296.04  79.4313
 52.9096  6381.25  80.0457
 52.9516  6292.95  79.8478
 52.9936  6288.98  80.2077
 53.0356  6318.84  79.4227
 53.0776  6246.83  79.223
 53.1196  6206.94  79.0945
 53.1616  6277.96  79.5931
 53.2036  6156.31  78.7728
 53.2456  6248.99  79.4655
 53.2876  6307.97  79.5476
 53.3296  6341.85  80.084
 53.3716  6345.93  79.8608
 53.4136  6249.87  79.3987
 53.4556  6172.72  78.9353
 53.4976  6127.05  78.4966
 53.5396  6193.73  79.3041
 53.5816  6252.23  79.3186
 53.6236  6162.61  79.0835
 53.6656  6261.69  79.3524
 53.7076  6273.85  79.3902
 53.7496  6262.5  79.4391
 53.7916  6317.44  79.9072
 53.8336  6026.74  77.9477
 53.8756  6104.08  78.9855
 53.9176  6246.84  79.2573
 53.9596  6181.75  79.5954
 54.0016  6154.84  78.7597
 54.0436  6217.85  79.3805
 54.0856  6383.56  79.8511
 54.1276  6200.22  78.8989
 54.1696  6148.62  78.7378
 54.2116  6176.38  78.6776
 54.2536  6278.13  79.1412
 54.2956  6174.52  78.5289
 54.3376  6112.36  78.6078
 54.3796  6238.41  79.3146
 54.4216  6298.02  79.5517
 54.4636  6126.49  78.608
 54.5056  6251.71  79.2289
 54.5476  6160.55  78.9739
 54.5896  6153.54  78.7629
 54.6316  6205.68  78.9591
 54.6736  6254.44  79.3428
 54.7156  6166.14  78.8001
 54.7576  6127.15  78.5465
 54.7996  6249.08  79.46
 54.8416  6108.17  78.6065
 54.8836  6165.17  79.0872
 54.9256  6112.67  78.5005
 54.9676  6292.66  79.4999
 55.0096  6179.63  78.8621
 55.0516  6151.39  78.9009
 55.0936  6163.54  78.6227
 55.1356  6146.74  78.5533
 55.1776  6106.27  78.5639
 55.2196  6089.82  78.2399
 55.2616  6116.58  78.6273
 55.3036  6102.61  78.6902
 55.3456  6165.58  79.2403
 55.3876  6211.01  79.2808
 55.4296  6174.42  79.0141
 55.4716  6160.77  78.9651
 55.5136  6178.06  78.8362
 55.5556  6151.73  78.7458
 55.5976  6055.5  78.1798
 55.6396  6071.71  78.2361
 55.6816  6135.45  78.5217
 55.7236  6261.94  79.3659
 55.7656  6105.44  78.1307
 55.8076  6191.91  78.6613
 55.8496  6109.03  78.4451
 55.8916  6096.92  78.5775
 55.9336  6039.49  78.0239
 55.9756  6067.29  78.0899
 56.0176  6036.64  78.0503
 56.0596  6059.08  78.1817
 56.1016  6071.63  78.2703
 56.1436  6073.9  78.5451
 56.1856  6101.92  78.4604
 56.2276  6111.8  78.5918
 56.2696  6067.67  78.2743
 56.3116  6045.69  78.5353
 56.3536  6041.25  78.1647
 56.3956  6049.11  78.2085
 56.4376  6069.17  78.3664
 56.4796  6145.71  78.666
 56.5216  5990.36  78.0241
 56.5636  6115.27  78.4339
 56.6056  6012.07  78.0031
 56.6476  6058.4  77.9326
 56.6896  6095.86  78.6162
 56.7316  6067.72  78.3502
 56.7736  6043.49  78.1607
 56.8156  6115.6  78.6506
 56.8576  6075.31  78.3279
 56.8996  6065.22  78.2055
 56.9416  6075.96  78.5707
 56.9836  6019.56  77.7286
 57.0256  6045.16  78.2059
 57.0676  6089.72  78.6248
 57.1096  6081.15  78.3547
 57.1516  6062.53  78.2964
 57.1936  6008.53  77.6995
 57.2356  6085.95  78.5128
 57.2776  6101.77  78.5756
 57.3196  6153.95  79.2806
 57.3616  6052.96  78.123
 57.4036  6047.66  78.1491
 57.4456  6045.99  78.1049
 57.4876  6054.17  78.0186
 57.5296  5900.84  77.3568
 57.5716  6076.93  78.4918
 57.6136  6032.66  78.0269
 57.6556  6078.69  78.4637
 57.6976  6113.03  78.4957
 57.7396  5955.04  77.8496
 57.7816  6017.76  78.6147
 57.8236  6039.9  78.6005
 57.8656  6044.49  78.2416
 57.9076  6026.7  78.1622
 57.9496  5908.25  77.7258
 57.9916  6013.6  77.9358
 58.0336  5999.22  78.1151
 58.0756  6028.2  77.9492
 58.1176  6051.13  78.0853
 58.1596  5939.74  77.9294
 58.2016  6085.7  78.0981
 58.2436  6003.95  77.9834
 58.2856  6002.98  77.8965
 58.3276  6083.37  78.7868
 58.3696  6024.73  78.1593
 58.4116  5988.92  77.7917
 58.4536  6011.35  77.8267
 58.4956  6081.13  78.4559
 58.5376  6155.36  78.504
 58.5796  6023.73  78.0801
 58.6216  6065.47  78.1646
 58.6636  6101.5  78.6086
 58.7056  6008.04  77.8651
 58.7476  5874.82  77.4366
 58.7896  6002.55  77.9192
 58.8316  6029.74  78.0859
 58.8736  6000.58  77.9097
 58.9156  5994.72  77.9183
 58.9576  6080.21  78.7896
 58.9996  6132.29  78.371
 59.0416  6120.41  78.6465
 59.0836  5996.27  77.7839
 59.1256  5905.75  77.8827
 59.1676  6057.48  79.1758
 59.2096  6047.04  78.425
 59.2516  6178.74  78.8507
 59.2936  6143.81  78.9584
 59.3356  6116.61  78.6604
 59.3776  6022.37  78.2208
 59.4196  6003.63  78.0353
 59.4616  6058.81  78.2527
 59.5036  5944.59  77.5467
 59.5456  6124.01  78.3995
 59.5876  6157.48  78.8063
 59.6296  6043.7  78.1441
 59.6716  6061.41  78.3166
 59.7136  6178.82  79.0596
 59.7556  5934.8  77.6179
 59.7976  6013.72  77.875
 59.8396  6243.7  79.2427
 59.8816  6170.34  79.3271
 59.9236  5941.56  77.4891
 59.9656  6087.21  78.6943
 60.0076  6133.91  78.3485
 60.0496  6004.24  77.5407
 60.0916  6203.27  78.7112
 60.1336  5841.4  77.4697
 60.1756  6115.31  80.4567
 60.1996  6167.71  83.0605