File: docs/examples/XRD/IS17_D/Data/IS17_D/17_Da_f00120.xye
# /beamlines/bl04/projects/cycle2025-II/20250340211-lsimonelli/DATA/IS17_D/17_Da_f00120.xye : mythproc.py merge -s 0.006 -l 0.5 -f /beamlines/bl04/inhouse/ff/FlatField/ff_20Nov2024rod8mm60s_17keV.raw -b True -c true -o xye /beamlines/bl04/projects/cycle2025-II/20250340211-lsimonelli/DATA/IS17_D/17_Da_00120.dat
# IsMon = [6783007, 6785912, 6784008]  IsPos = [-1.4999, -2.4884, -3.4988]
# Wave = 0.4962  CalPath /beamlines/bl04/projects/cycle2025-II/20250340211-lsimonelli/DATA/Align/Si_Pos1_25keV_f00001.cal
# Date = 2025-09-25_02:59:59 Dt = 4.8000  Bin = 0.0060  <imon> = 6784309 +/- 1205 (Min/Max) 6783007 / 6785912
# icurr 252.5157  mocoIn 1.7223E-05  mocoOut 0.8076  i15 7.10454e+06  imon 6.78431e+06  i7 5.0000  iEMpd_timer 4.8000  iEMpd_1 3.5042E-08  iEMpd_2 7.9100E-08  iEMpd_3 1.6545E-08  iEMpd_4 4.6853E-08  iEMhp_timer 4.8000  iEMhp_1 4.9327E-06  iEMhp_2 -2.4419E-08  iEMhp_3 -2.4580E-08  iEMhp_4 -2.1215E-08
#      9776
 1.5856  40909.7  207.71
 1.6276  48601.1  222.511
 1.6696  55189  236.276
 1.7116  63853.5  254.645
 1.7536  72308.7  269.826
 1.7956  77571.1  280.17
 1.8376  73971  274.025
 1.8796  61997  249.024
 1.9216  49955  224.424
 1.9636  42203.2  205.433
 2.0056  38426.5  195.266
 2.0476  35197.6  188.93
 2.0896  34040  184.708
 2.1316  33186.6  181.501
 2.1736  31796.2  179.068
 2.2156  32357.1  179.191
 2.2576  30652.3  175.032
 2.2996  29534  172.44
 2.3416  30154.6  172.852
 2.3836  29680.8  171.593
 2.4256  28666.8  169.186
 2.4676  28366.4  168.059
 2.5096  27954.2  166.888
 2.5516  27620.6  169.705
 2.5936  27733.8  166.628
 2.6356  26866.8  164.694
 2.6776  26997.2  163.972
 2.7196  26675.9  163.517
 2.7616  26454.9  162.614
 2.8036  26080.4  161.632
 2.8456  26338.2  163.05
 2.8876  25672.7  160.85
 2.9296  25432.4  160.223
 2.9716  25185.3  158.935
 3.0136  25027.9  158.504
 3.0556  24876.4  158.418
 3.0976  24888.2  157.389
 3.1396  24477.3  156.806
 3.1816  24245.7  155.988
 3.2236  24016.5  155.249
 3.2656  24136.3  154.662
 3.3076  23694.9  154.7
 3.3496  24313.5  155.63
 3.3916  24546  156.203
 3.4336  25241.6  158.987
 3.4756  25317.8  159.157
 3.5176  26099.2  161.387
 3.5596  26028.3  163.622
 3.6016  26290.9  162.033
 3.6436  25385.6  160.324
 3.6856  24943.2  157.215
 3.7276  23976.4  155.227
 3.7696  23782.5  154.8
 3.8116  23256.1  152.962
 3.8536  23371.8  153.275
 3.8956  23338.3  152.987
 3.9376  23203.3  152.795
 3.9796  23242.1  152.43
 4.0216  23283.5  151.593
 4.0636  23234.5  152.922
 4.1056  23225.2  152.521
 4.1476  23429.7  153.519
 4.1896  23638.3  154.059
 4.2316  23842.4  154.547
 4.2736  24314.3  155.854
 4.3156  24637  157.113
 4.3576  25290  159.111
 4.3996  25548.7  160.177
 4.4416  26128.5  161.57
 4.4836  26493.3  162.84
 4.5256  26922.9  164.78
 4.5676  26919.4  165.027
 4.6096  27309.3  164.861
 4.6516  27931.9  166.44
 4.6936  28106  167.777
 4.7356  28108.1  167.612
 4.7776  28075  167.342
 4.8196  27754.1  167.038
 4.8616  27360.5  165.325
 4.9036  27014.4  164.024
 4.9456  27086.5  164.899
 4.9876  26436.9  162.808
 5.0296  26637  163.243
 5.0716  26546.5  163.748
 5.1136  26741.3  164.049
 5.1556  27072.9  164.521
 5.1976  27390.2  165.482
 5.2396  27510.5  165.538
 5.2816  27487.5  165.935
 5.3236  27607.3  165.998
 5.3656  27075.4  165.317
 5.4076  27015.9  165.289
 5.4496  27085.7  164.974
 5.4916  27153.3  164.942
 5.5336  27242.6  165.217
 5.5756  26894  164.193
 5.6176  27218  164.601
 5.6596  27316.8  165.884
 5.7016  27560.1  165.88
 5.7436  27660.3  166.459
 5.7856  27706.9  166.657
 5.8276  28002.8  167.262
 5.8696  28277.9  168.257
 5.9116  28235.3  168.74
 5.9536  28208.6  168.414
 5.9956  28701.5  169.241
 6.0376  28539.9  169.399
 6.0796  28953  170.449
 6.1216  29011  170.825
 6.1636  28965.5  169.745
 6.2056  29133.3  170.91
 6.2476  29244  171.109
 6.2896  29522.3  171.599
 6.3316  29391  171.395
 6.3736  29463.3  171.497
 6.4156  29550.4  171.645
 6.4576  29884.3  172.212
 6.4996  29934.9  172.84
 6.5416  30122.1  173.522
 6.5836  30103.9  173.702
 6.6256  30347.2  173.957
 6.6676  30798  174.809
 6.7096  30418.6  174.587
 6.7516  31221.3  176.523
 6.7936  31113.2  175.641
 6.8356  31357.7  176.409
 6.8776  31629.2  177.983
 6.9196  31753.9  178.74
 6.9616  31984.6  178.82
 7.0036  32451.5  179.774
 7.0456  32499  179.191
 7.0876  32398.6  180.623
 7.1296  32621.2  180.368
 7.1716  32441.2  179.405
 7.2136  32267.7  178.702
 7.2556  32544.4  179.628
 7.2976  32516.9  180.057
 7.3396  32442  180.06
 7.3816  32308.9  179.914
 7.4236  32772  180.477
 7.4656  32877.5  180.248
 7.5076  33049.7  180.853
 7.5496  32957.5  181.15
 7.5916  33073.2  181.493
 7.6336  33370.9  182.208
 7.6756  33515.8  182.45
 7.7176  33974.2  184.002
 7.7596  33776.4  184.734
 7.8016  34227.3  188.177
 7.8436  34865.8  186.53
 7.8856  34951  186.37
 7.9276  35576.7  188.433
 7.9696  35885.5  189.561
 8.0116  36728.2  190.278
 8.0536  37121.3  191.564
 8.0956  36875.8  192.117
 8.1376  37378.5  192.892
 8.1796  37564.4  193.916
 8.2216  38358.7  194.677
 8.2636  38770.3  195.97
 8.3056  38186.6  195.279
 8.3476  39175.2  197.1
 8.3896  38856.1  196.376
 8.4316  39248.6  197.533
 8.4736  39179.7  196.813
 8.5156  38910.6  196.415
 8.5576  38398  196.105
 8.5996  38754.7  195.87
 8.6416  38289.2  195.965
 8.6836  38037.7  195.162
 8.7256  38833  196.613
 8.7676  38202.1  197.972
 8.8096  37848.5  194.335
 8.8516  38121.4  194.638
 8.8936  37225.4  192.231
 8.9356  37334.7  192.859
 8.9776  37915.2  194.451
 9.0196  37064.3  191.93
 9.0616  37465  192.424
 9.1036  37235  193.047
 9.1456  37285.6  192.521
 9.1876  37200.1  192.251
 9.2296  37270.4  191.826
 9.2716  36552.4  190.027
 9.3136  36651.3  190.272
 9.3556  36888.5  190.865
 9.3976  35526  187.848
 9.4396  36170  189.432
 9.4816  35506.2  187.548
 9.5236  35259.6  186.805
 9.5656  35493.5  187.747
 9.6076  35134.6  187.334
 9.6496  34761.1  186.262
 9.6916  34977.1  186.811
 9.7336  34762.5  186.012
 9.7756  35083.2  188.144
 9.8176  34113.7  185.006
 9.8596  34245.6  183.789
 9.9016  33574.5  181.971
 9.9436  33446.9  181.535
 9.9856  32996.1  180.544
 10.0276  32685.4  180.804
 10.0696  32975.5  180.632
 10.1116  32044.6  178.328
 10.1536  31970.2  178.29
 10.1956  31256.6  175.881
 10.2376  30795.4  174.092
 10.2796  31032.8  174.882
 10.3216  30940.6  174.896
 10.3636  30580.3  173.903
 10.4056  30173.5  173.144
 10.4476  30505.8  173.715
 10.4896  30349.4  172.717
 10.5316  29676.3  171.5
 10.5736  29446.5  171.253
 10.6156  29021.7  169.782
 10.6576  29272.6  169.064
 10.6996  29040.8  169.054
 10.7416  28728.2  168.399
 10.7836  28889.9  169.564
 10.8256  28348.1  168.406
 10.8676  28490.3  168.349
 10.9096  28345.2  167.973
 10.9516  27774.3  165.19
 10.9936  27978.5  166
 11.0356  27780.7  166.051
 11.0776  27588.6  164.778
 11.1196  26971.4  163.682
 11.1616  27138.6  163.867
 11.2036  26913.7  163.039
 11.2456  27112.3  164.356
 11.2876  26989.6  163.709
 11.3296  26962.5  163.525
 11.3716  27012.7  163.371
 11.4136  27238.1  164.962
 11.4556  27315.3  164.859
 11.4976  27857  165.43
 11.5396  28315.4  166.959
 11.5816  28303.7  167.399
 11.6236  27613.5  165.563
 11.6656  27102.3  163.172
 11.7076  26509  162.226
 11.7496  26144.8  165.077
 11.7916  26128.6  160.311
 11.8336  25943  160.641
 11.8756  25609.1  159.129
 11.9176  25758.1  159.243
 11.9596  25374.9  158.246
 12.0016  25249.5  158.658
 12.0436  25201.3  157.919
 12.0856  25045.6  157.965
 12.1276  25103.2  158.058
 12.1696  24866  156.441
 12.2116  25318.1  157.846
 12.2536  24822.6  157.142
 12.2956  24976.5  156.949
 12.3376  24725.8  156.371
 12.3796  24810.9  157.099
 12.4216  24551.7  155.499
 12.4636  24534.5  156.373
 12.5056  24820.9  156.541
 12.5476  24969.8  156.529
 12.5896  24792  156.608
 12.6316  24428.5  155.62
 12.6736  24417.3  156.072
 12.7156  24310.2  155.59
 12.7576  24684  157.023
 12.7996  24841.4  156.152
 12.8416  24683.2  156.719
 12.8836  24822.9  156.988
 12.9256  25325.1  157.562
 12.9676  25330.5  158.013
 13.0096  24937.3  157.897
 13.0516  25217.4  157.801
 13.0936  25338.4  158.584
 13.1356  25668.6  158.58
 13.1776  25129.6  157.91
 13.2196  25380  158.346
 13.2616  25493.7  159.014
 13.3036  25568.2  159.219
 13.3456  25216.2  158.475
 13.3876  25341.4  158.153
 13.4296  25237.5  157.979
 13.4716  25193.6  157.444
 13.5136  25307.2  157.954
 13.5556  25215.5  158.284
 13.5976  25475.4  159.253
 13.6396  25559.9  158.867
 13.6816  25057  157.8
 13.7236  25830.3  159.851
 13.7656  24867.8  157.387
 13.8076  25337.9  157.633
 13.8496  24758.3  156.424
 13.8916  24990.4  158.177
 13.9336  24889.5  157.066
 13.9756  24589.3  155.456
 14.0176  24691.4  156.476
 14.0596  24704.1  156.486
 14.1016  24533.9  156.345
 14.1436  24332.6  154.824
 14.1856  24078.6  154.31
 14.2276  23574  153.171
 14.2696  23820.4  153.814
 14.3116  23744.4  153.458
 14.3536  23243.2  152.019
 14.3956  23342.6  152.058
 14.4376  23477  152.272
 14.4796  23335.9  151.804
 14.5216  22967.2  151.414
 14.5636  22691.3  150.062
 14.6056  23067.8  150.87
 14.6476  22991.3  149.837
 14.6896  22502.2  148.779
 14.7316  22156  148.678
 14.7736  22085.4  147.573
 14.8156  21869.3  146.888
 14.8576  21793.7  146.483
 14.8996  21406.8  146.399
 14.9416  21055.3  145.186
 14.9836  21115.6  145.354
 15.0256  20951.5  143.701
 15.0676  20911.1  143.883
 15.1096  20865.7  143.457
 15.1516  20500.5  142.762
 15.1936  20351  141.662
 15.2356  20030.2  140.823
 15.2776  20091.1  140.617
 15.3196  19654.2  140.094
 15.3616  19655.2  139.853
 15.4036  19645.3  139.656
 15.4456  19928.2  140.314
 15.4876  19374.5  138.028
 15.5296  19235.8  137.815
 15.5716  19124.3  137.016
 15.6136  19092  137.235
 15.6556  18963.4  135.999
 15.6976  18756.9  135.548
 15.7396  18756  135.951
 15.7816  18722.6  135.329
 15.8236  18285.2  134.448
 15.8656  18443.1  134.809
 15.9076  18107.9  133.406
 15.9496  17949.3  135.638
 15.9916  18031.7  136.394
 16.0336  17711.9  132.05
 16.0756  17939.6  133.201
 16.1176  17642.6  132.176
 16.1596  17140  131.459
 16.2016  17565.5  131.807
 16.2436  17271.5  131.088
 16.2856  17223.4  130.449
 16.3276  16848.3  129.437
 16.3696  17204.1  130.617
 16.4116  17204.8  131.083
 16.4536  17265.9  131.096
 16.4956  16957.1  129.659
 16.5376  16973.6  129.909
 16.5796  16797.2  128.589
 16.6216  16976.4  129.58
 16.6636  16905.4  129.46
 16.7056  16919.8  129.382
 16.7476  17018  129.28
 16.7896  16887.1  129.543
 16.8316  16998.8  129.941
 16.8736  16784.9  129.382
 16.9156  16880.6  130.088
 16.9576  16749.4  130.386
 16.9996  16707.4  130.719
 17.0416  16876.8  129.691
 17.0836  16637  128.525
 17.1256  16513.8  128.063
 17.1676  16426.2  127.719
 17.2096  16366.6  127.36
 17.2516  16395.8  127.253
 17.2936  16240.6  126.973
 17.3356  15904.3  125.661
 17.3776  15947  126.017
 17.4196  16320.4  127.173
 17.4616  15766.9  124.916
 17.5036  15664.9  124.88
 17.5456  15514.9  124.931
 17.5876  15591.4  124.272
 17.6296  15643.9  124.289
 17.6716  15314.8  123.549
 17.7136  15293.3  123.62
 17.7556  15465.8  124.609
 17.7976  15313.6  123.733
 17.8396  15119  122.437
 17.8816  15241.6  123.479
 17.9236  14986.7  122.257
 17.9656  15130.5  123.386
 18.0076  15213.8  123.3
 18.0496  15084.6  121.9
 18.0916  15039.5  122.268
 18.1336  15098.9  122.6
 18.1756  15228.3  122.641
 18.2176  14899.7  121.549
 18.2596  14898.8  121.274
 18.3016  14971.7  121.834
 18.3436  14978.1  121.858
 18.3856  14735.2  121.01
 18.4276  15059.2  121.995
 18.4696  14694.2  120.613
 18.5116  14857.6  121.569
 18.5536  15024.1  122.613
 18.5956  14681  120.753
 18.6376  14558.8  120.65
 18.6796  14722.1  120.645
 18.7216  14849.2  121.655
 18.7636  14520.4  120.293
 18.8056  14492  120.118
 18.8476  14427.4  120.484
 18.8896  14584.2  120.457
 18.9316  14717.9  120.995
 18.9736  14527.1  119.901
 19.0156  14412.1  119.83
 19.0576  14380.3  118.561
 19.0996  14527.1  119.88
 19.1416  14416.7  119.823
 19.1836  14471.4  119.642
 19.2256  14328.6  119.265
 19.2676  14464.4  119.921
 19.3096  14523.4  120.417
 19.3516  14281.5  119.367
 19.3936  14469.5  120.049
 19.4356  14417.7  119.708
 19.4776  14380.4  119.65
 19.5196  14403.3  119.597
 19.5616  14325  119.529
 19.6036  14242  118.674
 19.6456  14427.5  119.567
 19.6876  14522.2  119.597
 19.7296  14335.5  119.285
 19.7716  14402  119.729
 19.8136  14491.1  120.315
 19.8556  14585.8  120.169
 19.8976  14545.7  120.076
 19.9396  14622.9  119.966
 19.9816  14946.1  121.526
 20.0236  15264.5  123.043
 20.0656  15344.4  123.356
 20.1076  15113  122.905
 20.1496  14993.7  122.426
 20.1916  14629.4  120.433
 20.2336  14596.3  120.222
 20.2756  14171.8  118.9
 20.3176  14058.7  118.17
 20.3596  14059.5  118.149
 20.4016  14101.2  118.125
 20.4436  14051.2  118.476
 20.4856  13814.3  117.272
 20.5276  13713.3  117.299
 20.5696  13779.1  117.038
 20.6116  13686.4  116.92
 20.6536  13738.1  116.641
 20.6956  13668.2  116.463
 20.7376  13657.9  116.661
 20.7796  13737.6  116.683
 20.8216  13796.5  116.638
 20.8636  13510.6  115.786
 20.9056  13548.9  115.904
 20.9476  13372.3  114.988
 20.9896  13624.7  115.931
 21.0316  13678.8  116.056
 21.0736  13524.7  115.924
 21.1156  13626.4  116.522
 21.1576  13516.6  116.099
 21.1996  13515  116.076
 21.2416  13372.8  115.294
 21.2836  13490.1  115.753
 21.3256  13144.5  114.349
 21.3676  13488.5  115.38
 21.4096  13414.7  115.379
 21.4516  13230.2  114.463
 21.4936  13140.8  114.326
 21.5356  13371.3  115.272
 21.5776  13258.7  114.62
 21.6196  13191.2  114.361
 21.6616  13202.1  114.493
 21.7036  13205.2  114.29
 21.7456  13261  114.604
 21.7876  13091  113.613
 21.8296  13163  113.783
 21.8716  13150.5  113.959
 21.9136  13297.9  114.804
 21.9556  13093.3  113.585
 21.9976  12937.2  112.915
 22.0396  12951.1  113.243
 22.0816  12989.6  113.956
 22.1236  13031.5  113.588
 22.1656  13139  114.18
 22.2076  13174.6  113.793
 22.2496  13139  113.664
 22.2916  13137.4  113.535
 22.3336  13067.8  113.971
 22.3756  13180.6  114.185
 22.4176  13078.1  113.589
 22.4596  12916.2  113.486
 22.5016  12918.3  112.985
 22.5436  13202.6  114.099
 22.5856  13095.9  113.886
 22.6276  12983.1  113.531
 22.6696  13117.4  114.476
 22.7116  12951.9  113.256
 22.7536  13169.8  114.182
 22.7956  13102.1  113.201
 22.8376  12931.3  112.997
 22.8796  13024  113.197
 22.9216  13028.5  113.776
 22.9636  12992.8  112.755
 23.0056  12965.2  112.77
 23.0476  13123.4  114.041
 23.0896  13205.1  113.757
 23.1316  13176.7  114.081
 23.1736  13023.1  116.41
 23.2156  13230.9  114.668
 23.2576  13063.6  114.062
 23.2996  13100.2  114.01
 23.3416  12871.4  113.533
 23.3836  12930  113.015
 23.4256  13046.3  113.639
 23.4676  12878.5  112.603
 23.5096  12898.7  113.373
 23.5516  12883.5  112.58
 23.5936  13013.6  114.072
 23.6356  13006.5  113.691
 23.6776  12985.6  113.824
 23.7196  12770.8  112.438
 23.7616  13058.8  113.628
 23.8036  12862.4  112.808
 23.8456  12913.2  112.594
 23.8876  12696.4  112.002
 23.9296  12591.1  112.035
 23.9716  12720  111.781
 24.0136  12767  112.904
 24.0556  12597.5  111.882
 24.0976  12437.3  110.975
 24.1396  12445  113.676
 24.1816  12381.7  111.802
 24.2236  12481.7  111.852
 24.2656  12302.4  110.517
 24.3076  12246.5  110.513
 24.3496  12350.5  110.871
 24.3916  12363.8  110.984
 24.4336  12196.9  110.44
 24.4756  11983.9  109.34
 24.5176  12167.2  109.821
 24.5596  11953.7  108.981
 24.6016  11938.1  109.199
 24.6436  11861.8  108.34
 24.6856  11939.9  108.453
 24.7276  11890.6  108.545
 24.7696  11878.1  108.606
 24.8116  11885.1  108.818
 24.8536  11755.8  108.219
 24.8956  11587.9  107.185
 24.9376  11649.7  107.408
 24.9796  11593.9  107.508
 25.0216  11579.3  107.553
 25.0636  11577.2  107.187
 25.1056  11464.5  107.38
 25.1476  11630.2  109.835
 25.1896  11587.2  108.095
 25.2316  11723.1  107.983
 25.2736  11548.6  106.826
 25.3156  11531.5  106.83
 25.3576  11463.3  106.937
 25.3996  11517  107.167
 25.4416  11430.1  106.745
 25.4836  11314.9  106.737
 25.5256  11339.5  106.211
 25.5676  11426.6  106.341
 25.6096  11211.6  105.916
 25.6516  11496.7  106.743
 25.6936  11228.3  105.805
 25.7356  11227.5  105.941
 25.7776  11329.5  106.022
 25.8196  11130.8  105.316
 25.8616  11311.5  106.093
 25.9036  11248.6  105.263
 25.9456  11209.6  105.682
 25.9876  11137.9  105.408
 26.0296  11301.4  105.684
 26.0716  11120.6  105.253
 26.1136  11253.2  105.829
 26.1556  11241.3  105.146
 26.1976  11170.2  105.745
 26.2396  11312.5  105.558
 26.2816  11159.8  105.46
 26.3236  11251.4  106.057
 26.3656  11151.8  105.309
 26.4076  11167.7  105.599
 26.4496  11612.4  107.13
 26.4916  11353.3  105.96
 26.5336  11196.3  105.548
 26.5756  11717.9  107.804
 26.6176  11252.2  105.72
 26.6596  10965  104.672
 26.7016  10908.9  104.159
 26.7436  10937.5  104.432
 26.7856  10867.9  104.082
 26.8276  10995.9  104.646
 26.8696  10854.4  103.848
 26.9116  10883.2  103.923
 26.9536  10843  103.776
 26.9956  10844.2  103.818
 27.0376  10798.7  103.814
 27.0796  10857.9  103.828
 27.1216  10747.4  103.378
 27.1636  10668.2  103.162
 27.2056  10617.1  102.794
 27.2476  10615.9  102.791
 27.2896  10694.1  103.279
 27.3316  10798.6  103.493
 27.3736  10625.6  102.925
 27.4156  10594.3  102.617
 27.4576  10600.7  102.883
 27.4996  10599.5  102.47
 27.5416  10609.2  102.837
 27.5836  10656.4  102.878
 27.6256  10959.8  104.484
 27.6676  10755.1  103.54
 27.7096  10469.3  102.027
 27.7516  10514.1  102.394
 27.7936  10434.9  102.18
 27.8356  10572.7  102.459
 27.8776  10451.1  101.92
 27.9196  10322.3  101.14
 27.9616  10361.1  101.517
 28.0036  10350.3  101.446
 28.0456  10432.6  101.979
 28.0876  10329.7  101.563
 28.1296  10258.8  101.055
 28.1716  10221.8  100.885
 28.2136  10405.3  101.749
 28.2556  10189  100.8
 28.2976  10138.7  100.543
 28.3396  10344.5  101.313
 28.3816  10323.7  101.232
 28.4236  10223.1  100.89
 28.4656  10082  100.231
 28.5076  10227.4  100.583
 28.5496  10259.5  101.006
 28.5916  10187.6  100.455
 28.6336  10059.9  100.17
 28.6756  10233.6  100.221
 28.7176  10187.1  100.548
 28.7596  10124.7  100.136
 28.8016  10151.1  100.295
 28.8436  9920.08  99.3975
 28.8856  10142.6  100.356
 28.9276  10025.3  100.015
 28.9696  10136.7  100.223
 29.0116  10056.1  100.015
 29.0536  9963.77  99.755
 29.0956  9998.42  99.6493
 29.1376  9994.92  99.5893
 29.1796  9955.4  99.4346
 29.2216  9877.22  98.8867
 29.2636  10036.1  99.751
 29.3056  9995.48  99.344
 29.3476  9894.33  99.3632
 29.3896  10085.4  100.419
 29.4316  9993.68  99.2902
 29.4736  10028.1  99.5256
 29.5156  9912.84  98.8658
 29.5576  9903.07  99.5711
 29.5996  9987.98  99.2451
 29.6416  9890.1  98.8705
 29.6836  9953.69  99.1173
 29.7256  9953.93  99.6912
 29.7676  9946.72  99.3196
 29.8096  10021  99.6216
 29.8516  9668.3  98.1931
 29.8936  9818.1  99.0463
 29.9356  10123  100.321
 29.9776  9769.04  98.7072
 30.0196  9792.32  98.1992
 30.0616  9786.65  98.5552
 30.1036  9830.07  98.5825
 30.1456  9808.13  98.7246
 30.1876  9757.05  98.4415
 30.2296  9733.52  98.2749
 30.2716  9905.99  98.765
 30.3136  9894.01  99.5805
 30.3556  9806.74  99.1556
 30.3976  9650.46  99.9072
 30.4396  9841.02  98.1801
 30.4816  9891.39  98.023
 30.5236  9754.84  97.3637
 30.5656  9723.55  97.8634
 30.6076  9784.6  97.5998
 30.6496  9728.64  97.7046
 30.6916  9686.26  97.5866
 30.7336  9660.94  97.6126
 30.7756  9753.49  98.1717
 30.8176  9743.04  98.0339
 30.8596  9794.86  98.0597
 30.9016  9724.67  98.0524
 30.9436  9545.54  96.9001
 30.9856  9731.63  97.948
 31.0276  9689.47  97.3331
 31.0696  9534.18  97.1345
 31.1116  9450.29  96.6824
 31.1536  9566.63  97.158
 31.1956  9646.49  97.6531
 31.2376  9445.54  96.6392
 31.2796  9490.86  96.4038
 31.3216  9575.17  96.7769
 31.3636  9619.51  97.6931
 31.4056  9635.92  99.1154
 31.4476  9442.09  95.9827
 31.4896  9408.04  96.32
 31.5316  9479.05  96.0697
 31.5736  9536.56  96.1862
 31.6156  9559.73  96.3226
 31.6576  9499.23  96.1038
 31.6996  9530.48  95.937
 31.7416  9294.35  95.8059
 31.7836  9507.82  95.9056
 31.8256  9334.58  95.304
 31.8676  9383.42  95.5476
 31.9096  9360.8  95.7899
 31.9516  9215.55  95.1986
 31.9936  9318.33  95.5536
 32.0356  9478.5  96.4428
 32.0776  9344.51  95.6427
 32.1196  9413.37  96.0769
 32.1616  9455.09  95.7498
 32.2036  9254.1  95.2424
 32.2456  9289.69  95.8076
 32.2876  9379.74  95.7551
 32.3296  9214.66  94.878
 32.3716  9251.4  95.1638
 32.4136  9363.12  95.97
 32.4556  9455.74  95.8006
 32.4976  9323.17  95.0344
 32.5396  9343.68  95.2157
 32.5816  9168.25  94.4337
 32.6236  9322.28  95.2989
 32.6656  9296.16  95.7073
 32.7076  9220.27  94.9713
 32.7496  9290.13  94.9917
 32.7916  9320.23  95.103
 32.8336  9276.13  94.9802
 32.8756  9267.96  94.6547
 32.9176  9145.42  94.5138
 32.9596  9129.61  94.5117
 33.0016  9150.75  94.4092
 33.0436  9228.23  94.9838
 33.0856  9103.33  94.405
 33.1276  9036.22  93.7919
 33.1696  9243.55  94.7012
 33.2116  9256.43  94.9988
 33.2536  9145.26  94.429
 33.2956  9258.32  95.0936
 33.3376  9135.56  94.2012
 33.3796  9151.59  94.4935
 33.4216  9248.02  94.5775
 33.4636  9133.15  94.1328
 33.5056  9069.02  94.0478
 33.5476  9006.2  93.7152
 33.5896  9229.17  94.6306
 33.6316  8984.38  93.697
 33.6736  8910.01  93.5543
 33.7156  8947.24  93.7873
 33.7576  9137.07  94.3887
 33.7996  9177.65  94.3699
 33.8416  8922.54  93.2336
 33.8836  9012.43  93.4712
 33.9256  9032.49  93.6435
 33.9676  9116.66  93.9719
 34.0096  9024.67  93.8197
 34.0516  8900.38  92.8071
 34.0936  8902.56  93.0862
 34.1356  8972.19  93.1875
 34.1776  8969.71  93.1814
 34.2196  8917.71  93.0932
 34.2616  8776.85  92.4874
 34.3036  8838.19  93.0675
 34.3456  8851.4  92.8889
 34.3876  8906.36  93.1411
 34.4296  8983.13  93.2245
 34.4716  9066.55  93.8047
 34.5136  8937.6  93.3459
 34.5556  8822.16  92.9938
 34.5976  8858.06  92.9862
 34.6396  8789.76  92.3415
 34.6816  8824.3  92.6346
 34.7236  8729.02  91.9169
 34.7656  8828.95  92.6402
 34.8076  8829.34  92.9681
 34.8496  8846.93  92.9128
 34.8916  8689.05  91.9544
 34.9336  8935.01  93.2081
 34.9756  8775.63  92.2951
 35.0176  8909.7  93.5386
 35.0596  8704.25  92.2798
 35.1016  8760.2  92.3319
 35.1436  8918.42  92.8396
 35.1856  8812.86  92.426
 35.2276  8835.5  92.7182
 35.2696  8844.84  92.9671
 35.3116  8763.92  92.6347
 35.3536  8666.18  91.8218
 35.3956  8692.12  91.666
 35.4376  8672.14  92.1187
 35.4796  8685.84  92.2581
 35.5216  8713.69  92.3599
 35.5636  8484.37  91.8851
 35.6056  8702.88  92.0651
 35.6476  8789.31  92.4154
 35.6896  8713.44  92.1015
 35.7316  8616.16  91.5584
 35.7736  8651.98  91.9527
 35.8156  8626.52  91.8149
 35.8576  8739.43  92.6782
 35.8996  8749.37  92.6919
 35.9416  8571.75  91.2461
 35.9836  8607.72  91.7804
 36.0256  8637.05  91.9668
 36.0676  8658.18  91.8315
 36.1096  8600.03  91.6648
 36.1516  8601.79  91.5559
 36.1936  8619.57  91.5007
 36.2356  8585.82  91.9665
 36.2776  8625.77  91.6592
 36.3196  8611.99  91.2455
 36.3616  8597.92  91.308
 36.4036  8606.23  91.4087
 36.4456  8511.57  91.1131
 36.4876  8458.5  90.7748
 36.5296  8574.47  91.4287
 36.5716  8517.21  91.9139
 36.6136  8641.16  91.3329
 36.6556  8577.05  91.1993
 36.6976  8396.06  90.7314
 36.7396  8528.4  91.1689
 36.7816  8442.76  91.0899
 36.8236  8469.81  91.1512
 36.8656  8476.04  91.2696
 36.9076  8505.79  91.2981
 36.9496  8433.14  90.8981
 36.9916  8347.61  90.0608
 37.0336  8586.85  91.6667
 37.0756  8427.39  90.5999
 37.1176  8390.21  90.6715
 37.1596  8409.89  90.7831
 37.2016  8457.28  91.2702
 37.2436  8508.13  90.8448
 37.2856  8413.16  90.5971
 37.3276  8491.74  90.3598
 37.3696  8359.39  90.5453
 37.4116  8412.06  90.7392
 37.4536  8217.96  89.5522
 37.4956  8296.95  90.0307
 37.5376  8485.94  92.6378
 37.5796  8324.06  91.7041
 37.6216  8308.02  89.8643
 37.6636  8203.54  89.197
 37.7056  8292.54  89.8746
 37.7476  8375.11  89.8418
 37.7896  8201.46  89.4138
 37.8316  8129.68  89.1983
 37.8736  8330.31  89.8037
 37.9156  8254.16  89.3977
 37.9576  8389.42  90.0038
 37.9996  8180.86  88.6037
 38.0416  8169.84  89.3621
 38.0836  8369.82  90.3463
 38.1256  8261.99  89.7238
 38.1676  8110.74  89.0361
 38.2096  8137.12  88.8031
 38.2516  8418.54  90.528
 38.2936  8252.81  89.4379
 38.3356  8435.39  90.3379
 38.3776  8109.03  88.8463
 38.4196  8316.03  89.8208
 38.4616  8128.61  89.0397
 38.5036  8296.87  89.8004
 38.5456  8161.23  89.9028
 38.5876  8264.19  90.4964
 38.6296  8113.6  88.6349
 38.6716  8122.68  88.4778
 38.7136  8137.84  88.5031
 38.7556  8055.19  88.5551
 38.7976  7984.28  88.1043
 38.8396  8041.18  88.877
 38.8816  8047.16  88.6864
 38.9236  8064.9  88.5954
 38.9656  8102.16  88.7095
 39.0076  8217.12  88.735
 39.0496  8119.28  88.7547
 39.0916  8111.11  88.3493
 39.1336  8113.84  88.7862
 39.1756  8038.91  88.4429
 39.2176  8135.94  89.5095
 39.2596  8065.03  89.0398
 39.3016  8070.09  88.6391
 39.3436  8015.61  88.7628
 39.3856  8190.24  89.1668
 39.4276  8184.71  89.638
 39.4696  8109.12  88.8438
 39.5116  8118.56  89.4208
 39.5536  8207.73  90.3459
 39.5956  8181.51  89.2852
 39.6376  8207.47  89.4342
 39.6796  8109.76  88.6331
 39.7216  8169.18  89.063
 39.7636  8178.96  89.6957
 39.8056  8137.34  89.2449
 39.8476  8044.05  88.9846
 39.8896  8016.89  88.4616
 39.9316  8154.23  89.4726
 39.9736  8192.26  89.2373
 40.0156  8220.43  89.2153
 40.0576  8128.86  89.0796
 40.0996  8121.07  88.2166
 40.1416  8113.77  88.9738
 40.1836  8139.81  89.01
 40.2256  8296.8  89.9075
 40.2676  8182.04  89.3947
 40.3096  8166.04  89.2294
 40.3516  8239.93  89.7383
 40.3936  8281.74  89.5204
 40.4356  8124.61  88.8601
 40.4776  8251.09  89.9757
 40.5196  8180.56  89.7179
 40.5616  8264.25  89.8095
 40.6036  8105.25  89.2001
 40.6456  8233.31  89.5088
 40.6876  8224.55  89.4426
 40.7296  8197.34  89.4306
 40.7716  8246.32  89.8335
 40.8136  8054.27  88.7161
 40.8556  8187.8  89.5875
 40.8976  8170.64  89.4135
 40.9396  8189.26  89.8722
 40.9816  8210.99  89.2638
 41.0236  8281.01  89.4229
 41.0656  8266.83  89.8957
 41.1076  8257.72  89.6083
 41.1496  8299.5  89.7425
 41.1916  8265.04  89.884
 41.2336  8098.58  88.9699
 41.2756  8166.23  88.9374
 41.3176  8151.72  89.4822
 41.3596  8127.17  89.0755
 41.4016  8235.85  89.9325
 41.4436  8226.72  89.6645
 41.4856  8195.93  89.6643
 41.5276  8105.62  89.1844
 41.5696  8161.62  89.1202
 41.6116  8104.1  89.2036
 41.6536  8119.9  89.1466
 41.6956  8071.58  88.9371
 41.7376  8104.33  89.1407
 41.7796  8069.61  88.8342
 41.8216  8263.25  90.1369
 41.8636  8106.49  89.2138
 41.9056  7986.09  88.3399
 41.9476  8123.77  89.3357
 41.9896  8139.36  89.0761
 42.0316  8184.47  89.4064
 42.0736  8054.81  88.8157
 42.1156  8122.41  89.0212
 42.1576  8055.98  88.754
 42.1996  8176.6  89.5649
 42.2416  8090.09  88.661
 42.2836  8051.08  88.5627
 42.3256  8003.75  88.4174
 42.3676  8072.03  88.5998
 42.4096  8163.66  89.0569
 42.4516  8050.87  88.534
 42.4936  8096.65  88.8541
 42.5356  8001.74  88.4657
 42.5776  8112.23  89.0068
 42.6196  8155.47  89.3023
 42.6616  7881.34  87.9653
 42.7036  8054.23  88.3005
 42.7456  8073.77  88.7643
 42.7876  7998.18  88.4498
 42.8296  7983.5  88.2052
 42.8716  7914.96  87.9827
 42.9136  7973.42  88.0931
 42.9556  7994.94  88.3474
 42.9976  8096.87  88.8697
 43.0396  7974.03  87.919
 43.0816  7875.92  87.749
 43.1236  7931.97  88.1336
 43.1656  8020.07  88.4491
 43.2076  7955.09  88.1951
 43.2496  7970.72  88.0883
 43.2916  7899.09  88.0665
 43.3336  7980.68  88.3544
 43.3756  7988.96  88.1476
 43.4176  7828.13  87.3394
 43.4596  7790.4  86.9865
 43.5016  7925.28  88.1481
 43.5436  7892.81  87.8647
 43.5856  7840.41  87.5973
 43.6276  7777.26  87.1393
 43.6696  7880.18  87.9777
 43.7116  7916.05  87.6679
 43.7536  7987.04  88.5564
 43.7956  7688.23  88.0729
 43.8376  7760.75  87.0191
 43.8796  7624.94  86.3385
 43.9216  7821.07  87.3585
 43.9636  7839.97  87.5737
 44.0056  7839.32  87.8058
 44.0476  7775.28  87.0758
 44.0896  7789.32  87.4987
 44.1316  7778.1  86.9527
 44.1736  7747.49  86.9096
 44.2156  7777.58  86.9275
 44.2576  7754.58  87.1294
 44.2996  7817.05  87.4463
 44.3416  7767.6  86.9305
 44.3836  7622.02  86.442
 44.4256  7743.99  86.7712
 44.4676  7550.14  85.8342
 44.5096  7578.84  86.1393
 44.5516  7746.5  87.0504
 44.5936  7612.5  86.2498
 44.6356  7667.33  86.2951
 44.6776  7707.57  86.8391
 44.7196  7601.88  86.5577
 44.7616  7735.31  88.6544
 44.8036  7569.53  86.1275
 44.8456  7678.93  86.952
 44.8876  7691.89  86.8678
 44.9296  7693.81  86.3288
 44.9716  7679.6  86.6919
 45.0136  7669.03  86.5579
 45.0556  7564.87  85.9458
 45.0976  7537.66  85.9504
 45.1396  7496.3  85.4737
 45.1816  7537.8  85.6478
 45.2236  7725.22  86.6071
 45.2656  7524.14  85.9769
 45.3076  7464.06  85.4081
 45.3496  7580.6  86.3805
 45.3916  7523.62  86.3289
 45.4336  7609.68  86.666
 45.4756  7593.27  86.4234
 45.5176  7529.52  85.6752
 45.5596  7644.34  86.4445
 45.6016  7435.7  85.681
 45.6436  7497.29  85.2118
 45.6856  7296.66  84.7046
 45.7276  7482.16  87.1135
 45.7696  7498.99  86.869
 45.8116  7579.69  86.7641
 45.8536  7405.96  85.6615
 45.8956  7561.81  85.9007
 45.9376  7570.49  85.4118
 45.9796  7497.01  85.6797
 46.0216  7604.74  86.6437
 46.0636  7575.7  85.6193
 46.1056  7615.65  85.8256
 46.1476  7440.9  85.4291
 46.1896  7430.99  85.5217
 46.2316  7379.84  85.101
 46.2736  7289.33  84.9392
 46.3156  7561.53  86.0933
 46.3576  7461.89  85.7281
 46.3996  7483.67  86.0135
 46.4416  7539.4  85.905
 46.4836  7462.27  85.8253
 46.5256  7453.76  85.7134
 46.5676  7412.1  85.5876
 46.6096  7450.69  85.743
 46.6516  7605.01  85.6499
 46.6936  7491.14  85.5017
 46.7356  7610.26  86.2931
 46.7776  7488.43  86.451
 46.8196  7407.18  85.57
 46.8616  7241.64  84.5643
 46.9036  7258.82  84.3195
 46.9456  7371.26  84.6051
 46.9876  7250.37  83.9917
 47.0296  7351.44  85.2713
 47.0716  7246.59  84.4804
 47.1136  7355.24  84.7923
 47.1556  7420.7  85.0307
 47.1976  7433.98  85.1811
 47.2396  7292.87  84.7772
 47.2816  7292.47  84.4693
 47.3236  7319.4  85.0046
 47.3656  7316.23  84.906
 47.4076  7345.79  84.8782
 47.4496  7209.68  84.1784
 47.4916  7279.92  84.7763
 47.5336  7326.3  84.8726
 47.5756  7266.69  84.6407
 47.6176  7139.8  83.8072
 47.6596  7215.51  83.9539
 47.7016  7354.03  84.577
 47.7436  7233.24  84.2136
 47.7856  7261.13  84.4112
 47.8276  7192.97  84.0613
 47.8696  7314.07  84.8564
 47.9116  7253.16  84.2059
 47.9536  7167.65  83.6521
 47.9956  7169.84  84.3707
 48.0376  7141.55  83.9767
 48.0796  7264.94  84.827
 48.1216  7365.18  85.2172
 48.1636  7427.16  85.1576
 48.2056  7339.74  84.9199
 48.2476  7355.83  85.3275
 48.2896  7222.8  84.4519
 48.3316  7169.94  84.087
 48.3736  7143.43  83.9574
 48.4156  7128.64  83.7212
 48.4576  7136.94  84.0661
 48.4996  7176.04  83.7523
 48.5416  7262.53  84.5844
 48.5836  7202.52  83.9101
 48.6256  7256.12  84.43
 48.6676  7136.8  84.244
 48.7096  7182.76  83.7859
 48.7516  7252.55  84.3345
 48.7936  7047.68  83.2005
 48.8356  7104.73  83.5873
 48.8776  7055.75  83.869
 48.9196  7217.77  84.187
 48.9616  7081.78  83.7761
 49.0036  7034.09  83.8375
 49.0456  6997.24  83.5888
 49.0876  7124.72  83.8903
 49.1296  6918.26  82.8238
 49.1716  6945.08  82.8565
 49.2136  7017.59  83.2217
 49.2556  7054.73  83.4699
 49.2976  7089.35  83.7465
 49.3396  7070.27  83.6893
 49.3816  7137.09  83.5036
 49.4236  7109.05  83.7644
 49.4656  7065.67  83.533
 49.5076  7029.99  83.0681
 49.5496  7078.71  83.4198
 49.5916  7072.98  83.3069
 49.6336  7002.57  83.0829
 49.6756  7036.67  83.5309
 49.7176  7028.74  83.422
 49.7596  7030.35  83.1985
 49.8016  7103.18  83.5468
 49.8436  6997.18  83.2143
 49.8856  6932.54  82.8404
 49.9276  6951.84  83.0475
 49.9696  7002.4  83.3374
 50.0116  6995.61  83.4318
 50.0536  6929.61  82.9831
 50.0956  6926.74  83.0374
 50.1376  6984.52  83.0845
 50.1796  6921.02  82.9722
 50.2216  6984  83.3477
 50.2636  7018  83.1615
 50.3056  6858.71  82.3842
 50.3476  6928.63  82.8217
 50.3896  6877.98  82.4913
 50.4316  6930.93  82.6469
 50.4736  6803.09  82.0986
 50.5156  6931.38  82.8605
 50.5576  6956.03  82.7677
 50.5996  6825.24  82.2607
 50.6416  6869.1  82.4517
 50.6836  6817.76  82.2075
 50.7256  6923.91  82.7673
 50.7676  6859.02  82.6972
 50.8096  6868.06  82.2935
 50.8516  6941.77  83.1489
 50.8936  6849.61  82.3692
 50.9356  6850.57  82.4836
 50.9776  6886.39  82.8504
 51.0196  6926.5  83.2225
 51.0616  6838.51  82.0115
 51.1036  6807.18  82.1832
 51.1456  6825.34  82.2054
 51.1876  6737.15  81.0195
 51.2296  6803.39  82.0462
 51.2716  6709.69  81.1911
 51.3136  6846.07  82.4686
 51.3556  6774.58  81.6636
 51.3976  6683.59  81.2663
 51.4396  6709.96  81.7295
 51.4816  6689.89  81.4612
 51.5236  6779.1  82.0897
 51.5656  6724.35  81.3611
 51.6076  6732.85  81.4928
 51.6496  6820.98  82.2196
 51.6916  6773.18  82.2859
 51.7336  6712.12  82.0099
 51.7756  6778.14  82.1021
 51.8176  6602.62  81.143
 51.8596  6719.3  81.8714
 51.9016  6910.93  82.6302
 51.9436  6780.47  83.3152
 51.9856  6588.77  82.5664
 52.0276  6796.79  82.3543
 52.0696  6764.21  82.2205
 52.1116  6763.31  82.3328
 52.1536  6681.08  81.7173
 52.1956  6741.51  81.5407
 52.2376  6910.28  82.7383
 52.2796  6781.76  81.762
 52.3216  6593.51  81.3238
 52.3636  6585.57  80.8547
 52.4056  6563.91  80.5691
 52.4476  6563.96  80.945
 52.4896  6720.32  81.9546
 52.5316  6586.13  81.1758
 52.5736  6673.74  81.4439
 52.6156  6656.06  81.7014
 52.6576  6688.76  81.356
 52.6996  6402.07  80.5545
 52.7416  6637.57  81.8753
 52.7836  6640.37  81.7735
 52.8256  6716.25  81.4514
 52.8676  6525.01  80.864
 52.9096  6628.45  81.5791
 52.9516  6655.2  82.1181
 52.9936  6453.99  81.2545
 53.0356  6515.24  80.6408
 53.0776  6511.7  80.8799
 53.1196  6479.42  80.8062
 53.1616  6545.06  81.2622
 53.2036  6390.38  80.2445
 53.2456  6464.33  80.8153
 53.2876  6440.37  80.372
 53.3296  6477.57  80.9302
 53.3716  6551.25  81.1369
 53.4136  6544.74  81.2447
 53.4556  6433.54  80.5799
 53.4976  6333.58  79.7998
 53.5396  6369.23  80.4146
 53.5816  6488.02  80.7971
 53.6236  6306.94  79.9984
 53.6656  6463.15  80.6135
 53.7076  6346.93  79.8449
 53.7496  6441.64  80.5603
 53.7916  6597.36  81.6517
 53.8336  6484.99  80.855
 53.8756  6413.92  80.9609
 53.9176  6583.18  81.3568
 53.9596  6536.94  81.8533
 54.0016  6386.99  80.2343
 54.0436  6428.11  80.7134
 54.0856  6443.11  80.2291
 54.1276  6420.72  80.2936
 54.1696  6442.99  80.603
 54.2116  6442.02  80.353
 54.2536  6432.54  80.1086
 54.2956  6456.84  80.3014
 54.3376  6414.18  80.5245
 54.3796  6449.87  80.6434
 54.4216  6494.54  80.97
 54.4636  6426.32  80.5026
 54.5056  6482.95  80.6807
 54.5476  6440.34  80.7454
 54.5896  6387.08  80.2538
 54.6316  6432.73  80.3888
 54.6736  6451.58  80.5828
 54.7156  6364.82  80.0604
 54.7576  6338.05  79.8861
 54.7996  6414  80.5003
 54.8416  6437.31  80.697
 54.8836  6318.16  80.0622
 54.9256  6384.22  80.2229
 54.9676  6474.03  80.647
 55.0096  6448.68  80.5528
 55.0516  6358.2  80.2224
 55.0936  6484.99  80.632
 55.1356  6353.32  79.8609
 55.1776  6342.95  80.0681
 55.2196  6383.44  80.1055
 55.2616  6378.33  80.2888
 55.3036  6242.4  79.5822
 55.3456  6369.8  80.5427
 55.3876  6380.64  80.3517
 55.4296  6371.77  80.2753
 55.4716  6382.97  80.3799
 55.5136  6439.85  80.4859
 55.5556  6344.49  79.9662
 55.5976  6363.82  80.1468
 55.6396  6319.54  79.8141
 55.6816  6393.38  80.1556
 55.7236  6365.75  80.0244
 55.7656  6315.41  79.4639
 55.8076  6399.62  79.9732
 55.8496  6308.51  79.7253
 55.8916  6325.93  80.0391
 55.9336  6334.77  79.9121
 55.9756  6347.56  79.882
 56.0176  6268.12  79.5329
 56.0596  6353.35  80.0532
 56.1016  6396.02  80.336
 56.1436  6243.19  79.6215
 56.1856  6289.5  79.668
 56.2276  6321.13  79.9267
 56.2696  6294.05  79.7261
 56.3116  6272.32  79.9838
 56.3536  6362.07  80.2142
 56.3956  6353.35  80.1519
 56.4376  6210.89  79.2799
 56.4796  6353.41  79.9873
 56.5216  6314.16  80.1206
 56.5636  6326.12  79.7772
 56.6056  6296.32  79.822
 56.6476  6347.71  79.7715
 56.6896  6252.7  79.6193
 56.7316  6300.17  79.8345
 56.7736  6466.09  80.8749
 56.8156  6384.24  80.3483
 56.8576  6403.23  80.4206
 56.8996  6320.2  79.8326
 56.9416  6306.46  80.0495
 56.9836  6210.44  78.9528
 57.0256  6283.2  79.7353
 57.0676  6317.48  80.0744
 57.1096  6334.12  79.9659
 57.1516  6354.33  80.1544
 57.1936  6234.95  79.1497
 57.2356  6265.58  79.6633
 57.2776  6275.1  79.6825
 57.3196  6339.68  80.4688
 57.3616  6310.12  79.7654
 57.4036  6283.87  79.6608
 57.4456  6237.13  79.3293
 57.4876  6290.73  79.5291
 57.5296  6216.84  79.3988
 57.5716  6245.76  79.5735
 57.6136  6245.21  79.3901
 57.6556  6387.66  80.4288
 57.6976  6229.65  79.2511
 57.7396  6208.23  79.4919
 57.7816  6125.15  79.315
 57.8236  6211.97  79.6693
 57.8656  6339.54  80.1343
 57.9076  6265.61  79.6936
 57.9496  6196.07  79.6038
 57.9916  6292.63  79.7233
 58.0336  6205.83  79.4504
 58.0756  6243.67  79.3257
 58.1176  6282.7  79.5689
 58.1596  6174.66  79.4579
 58.2016  6349.18  79.7807
 58.2436  6291.99  79.8379
 58.2856  6251.05  79.4973
 58.3276  6194.5  79.5109
 58.3696  6271.05  79.7416
 58.4116  6230.01  79.3477
 58.4536  6378.86  80.1687
 58.4956  6249.77  79.5417
 58.5376  6361.12  79.8097
 58.5796  6296.97  79.8346
 58.6216  6311.52  79.7322
 58.6636  6289.4  79.82
 58.7056  6221.4  79.2418
 58.7476  6188.38  79.4811
 58.7896  6154.68  78.9056
 58.8316  6247.71  79.493
 58.8736  6340.06  80.089
 58.9156  6256.82  79.6041
 58.9576  6312.66  80.2859
 58.9996  6360.11  79.8129
 59.0416  6440.74  80.6938
 59.0836  6352.43  80.0637
 59.1256  6071.43  78.9716
 59.1676  6190.37  80.0502
 59.2096  6364.56  80.471
 59.2516  6273.19  79.4642
 59.2936  6285.75  79.8784
 59.3356  6296.53  79.8221
 59.3776  6340.25  80.2719
 59.4196  6223.67  79.465
 59.4616  6248.77  79.4831
 59.5036  6179.41  79.0757
 59.5456  6377.05  80.016
 59.5876  6367.67  80.1534
 59.6296  6387.07  80.3466
 59.6716  6296.59  79.8346
 59.7136  6371.61  80.2968
 59.7556  6292.3  79.9348
 59.7976  6007.78  77.8495
 59.8396  6327.28  79.7845
 59.8816  6285.24  80.0753
 59.9236  6461.9  80.8244
 59.9656  6199.85  79.4326
 60.0076  6503.57  80.6882
 60.0496  6192.84  79.2474
 60.0916  6429.56  80.1472
 60.1336  6130.4  79.3761
 60.1756  6311.89  81.7532
 60.1996  0.0000000E+00  0.0000000E+00