File: docs/examples/XRD/IS17_D/Data/IS17_D/17_Db_f00122.xye
# /beamlines/bl04/projects/cycle2025-II/20250340211-lsimonelli/DATA/IS17_D/17_Db_f00122.xye : mythproc.py merge -s 0.006 -l 0.5 -f /beamlines/bl04/inhouse/ff/FlatField/ff_20Nov2024rod8mm60s_17keV.raw -b True -c true -o xye /beamlines/bl04/projects/cycle2025-II/20250340211-lsimonelli/DATA/IS17_D/17_Db_00122.dat
# IsMon = [6770723, 6772238, 6770809]  IsPos = [-1.4999, -2.4884, -3.4988]
# Wave = 0.4962  CalPath /beamlines/bl04/projects/cycle2025-II/20250340211-lsimonelli/DATA/Align/Si_Pos1_25keV_f00001.cal
# Date = 2025-09-25_03:43:51 Dt = 4.8000  Bin = 0.0060  <imon> = 6771257 +/- 695 (Min/Max) 6770723 / 6772238
# icurr 251.6638  mocoIn 1.7178E-05  mocoOut 0.8053  i15 7.09242e+06  imon 6.77126e+06  i7 4.3333  iEMpd_timer 4.8000  iEMpd_1 3.4874E-08  iEMpd_2 7.9463E-08  iEMpd_3 1.8176E-08  iEMpd_4 4.7868E-08  iEMhp_timer 4.8000  iEMhp_1 4.9168E-06  iEMhp_2 -2.4747E-08  iEMhp_3 -2.5602E-08  iEMhp_4 -2.1903E-08
#      9776
 1.5856  44883  217.551
 1.6276  51708.2  229.5
 1.6696  57242.5  240.618
 1.7116  64366.3  255.651
 1.7536  72099.9  269.421
 1.7956  76208.4  277.682
 1.8376  73257.2  272.684
 1.8796  63228.3  251.476
 1.9216  51856.2  228.642
 1.9636  45084.6  212.318
 2.0056  41037.2  201.778
 2.0476  38200  196.812
 2.0896  36978.3  192.504
 2.1316  35747.3  188.363
 2.1736  34256.5  185.856
 2.2156  34935  186.181
 2.2576  33398.3  182.693
 2.2996  32334.3  180.419
 2.3416  32640  179.824
 2.3836  32152.8  178.586
 2.4256  31294.1  176.76
 2.4676  30426.7  174.045
 2.5096  30566.4  174.502
 2.5516  29290.3  174.724
 2.5936  29059.6  170.555
 2.6356  28705.3  170.228
 2.6776  28603.5  168.801
 2.7196  28057.1  167.677
 2.7616  27721  166.457
 2.8036  27396.9  165.643
 2.8456  27393  166.283
 2.8876  26822.6  164.409
 2.9296  26686.3  164.116
 2.9716  26339.1  162.531
 3.0136  26322.3  162.546
 3.0556  26013.2  161.979
 3.0976  25907.8  160.553
 3.1396  25618.7  160.385
 3.1816  25425.4  159.721
 3.2236  25210.3  159.034
 3.2656  25036.5  157.517
 3.3076  25053.9  159.068
 3.3496  25023.9  157.88
 3.3916  25511.5  159.229
 3.4336  25963.9  161.233
 3.4756  26321.4  162.282
 3.5176  26973.2  164.042
 3.5596  26747.9  165.835
 3.6016  26689  163.245
 3.6436  25917.7  161.99
 3.6856  25587.3  159.237
 3.7276  24503.3  156.91
 3.7696  24209.9  156.18
 3.8116  24090.9  155.675
 3.8536  24225.1  156.043
 3.8956  23887.7  154.769
 3.9376  23994.2  155.383
 3.9796  23859.4  154.429
 4.0216  23992.3  153.882
 4.0636  24037.8  155.52
 4.1056  23734.6  154.181
 4.1476  24199.4  156.004
 4.1896  24142.6  155.684
 4.2316  24363.5  156.22
 4.2736  24845.3  157.547
 4.3156  25008.5  158.301
 4.3576  25838  160.79
 4.3996  25978.7  161.521
 4.4416  26485.1  162.657
 4.4836  26711.5  163.517
 4.5256  27394.4  166.211
 4.5676  27127.3  165.656
 4.6096  27898.6  166.631
 4.6516  28332.3  167.618
 4.6936  28266.2  168.26
 4.7356  28495.9  168.761
 4.7776  28180  167.646
 4.8196  28143  168.194
 4.8616  27476.3  165.676
 4.9036  27477.8  165.41
 4.9456  27241.7  165.36
 4.9876  26555.2  163.163
 5.0296  26902.5  164.064
 5.0716  26596  163.891
 5.1136  26826.6  164.316
 5.1556  27116.9  164.653
 5.1976  27566.8  166.01
 5.2396  27671.2  166.01
 5.2816  27685.7  166.53
 5.3236  27724.6  166.332
 5.3656  27157.4  165.568
 5.4076  27068.1  165.428
 5.4496  26999.8  164.72
 5.4916  27189  165.046
 5.5336  27168.4  164.992
 5.5756  27210.8  165.139
 5.6176  27331.1  164.937
 5.6596  27635.2  166.852
 5.7016  27604.5  166.01
 5.7436  27775.6  166.805
 5.7856  27583.3  166.294
 5.8276  27895.2  166.942
 5.8696  28127.8  167.814
 5.9116  28316.3  168.986
 5.9536  28369.7  168.884
 5.9956  28573  168.87
 6.0376  28610.4  169.607
 6.0796  28852.1  170.148
 6.1216  28694  169.882
 6.1636  29083.3  170.067
 6.2056  28949.7  170.367
 6.2476  29060.7  170.57
 6.2896  29407  171.252
 6.3316  29386.9  171.37
 6.3736  29428.7  171.38
 6.4156  29763.8  172.24
 6.4576  29494.5  171.081
 6.4996  29485.2  171.533
 6.5416  29796.9  172.571
 6.5836  29715.6  172.573
 6.6256  29716.7  172.133
 6.6676  30324.8  173.454
 6.7096  30475.4  174.748
 6.7516  30579.8  174.704
 6.7936  30902.4  175.013
 6.8356  30946.2  175.235
 6.8776  31154.1  176.637
 6.9196  31135.2  176.984
 6.9616  31539.4  177.561
 7.0036  32133.8  178.883
 7.0456  32079.9  178.028
 7.0876  31821  179.001
 7.1296  32102.2  178.914
 7.1716  32106.7  178.467
 7.2136  31828  177.465
 7.2556  32121.4  178.438
 7.2976  32203.9  179.173
 7.3396  31997.5  178.818
 7.3816  32007.1  179.066
 7.4236  32332  179.257
 7.4656  32375  178.831
 7.5076  32515.6  179.371
 7.5496  32379.5  179.544
 7.5916  32720.4  180.525
 7.6336  33047.3  181.315
 7.6756  33122.7  181.361
 7.7176  33620.8  183.049
 7.7596  33445.8  183.808
 7.8016  34045.9  187.706
 7.8436  33839.8  183.767
 7.8856  33891.2  183.516
 7.9276  34458.7  185.45
 7.9696  34823.5  186.732
 8.0116  35498.3  187.08
 8.0536  35716.7  187.899
 8.0956  35635.2  188.864
 8.1376  36267.8  190.009
 8.1796  36524  191.203
 8.2216  37285.1  191.93
 8.2636  37574  192.93
 8.3056  37179  192.687
 8.3476  37873.9  193.794
 8.3896  37544.1  193.033
 8.4316  37946.1  194.234
 8.4736  37425.6  192.368
 8.5156  37226.6  192.129
 8.5576  37443.2  193.657
 8.5996  37229.3  191.983
 8.6416  37048.6  192.773
 8.6836  36770.6  191.889
 8.7256  37428.7  193.034
 8.7676  37308.2  195.672
 8.8096  37467.8  193.37
 8.8516  37666.7  193.451
 8.8936  37046.6  191.801
 8.9356  37406.6  193.066
 8.9776  37400.2  193.126
 9.0196  37424.9  192.862
 9.0616  36998  191.258
 9.1036  36537.7  191.241
 9.1456  36586.5  190.688
 9.1876  36707.2  190.949
 9.2296  36346.4  189.447
 9.2716  36250.7  189.233
 9.3136  36326.3  189.428
 9.3556  36243.2  189.185
 9.3976  35532.2  187.837
 9.4396  35631.5  188.01
 9.4816  35253.2  186.865
 9.5236  35105.4  186.358
 9.5656  34843.7  186.035
 9.6076  34410.1  185.404
 9.6496  34440.1  185.36
 9.6916  34008.3  184.156
 9.7336  34244.3  184.587
 9.7756  34007  185.213
 9.8176  33988.4  184.649
 9.8596  34069.5  183.29
 9.9016  33435.7  181.554
 9.9436  33221.1  180.897
 9.9856  33035.6  180.67
 10.0276  32870.2  181.313
 10.0696  32724.8  179.929
 10.1116  31813.5  177.678
 10.1536  31646  177.354
 10.1956  31385.6  176.239
 10.2376  31415.1  175.828
 10.2796  30940.1  174.606
 10.3216  30751.9  174.357
 10.3636  30556.1  173.833
 10.4056  29834.4  172.168
 10.4476  30197  172.806
 10.4896  30293.3  172.546
 10.5316  29648.7  171.424
 10.5736  29454.2  171.272
 10.6156  29407.2  170.894
 10.6576  29438.6  169.54
 10.6996  28678  168.034
 10.7416  28587.2  167.982
 10.7836  28199.7  167.517
 10.8256  27952  167.213
 10.8676  27987.3  166.848
 10.9096  27797.3  166.317
 10.9516  27442.2  164.19
 10.9936  27608  164.902
 11.0356  27449.7  165.037
 11.0776  27289.4  163.885
 11.1196  26641.8  162.694
 11.1616  26545.1  162.064
 11.2036  26477  161.711
 11.2456  26504.8  162.503
 11.2876  27024.8  163.803
 11.3296  26379.7  161.761
 11.3716  26719.2  162.486
 11.4136  26710.8  163.353
 11.4556  27046.5  164.033
 11.4976  27527.7  164.452
 11.5396  27660.7  165.021
 11.5816  27563.1  165.19
 11.6236  26651.6  162.657
 11.6656  26827.5  162.336
 11.7076  25750.1  159.883
 11.7496  25513.8  163.184
 11.7916  25693.3  158.947
 11.8336  25146  158.144
 11.8756  24919.2  156.979
 11.9176  24933.5  156.693
 11.9596  25163.3  157.586
 12.0016  24851.6  157.382
 12.0436  25024.3  157.371
 12.0856  24606.5  156.569
 12.1276  24618.5  156.549
 12.1696  24483.4  155.225
 12.2116  24475.3  155.202
 12.2536  24338.6  155.591
 12.2956  24244.7  154.628
 12.3376  24454.8  155.505
 12.3796  24237.8  155.302
 12.4216  24324.7  154.769
 12.4636  23965.6  154.561
 12.5056  24200.8  154.574
 12.5476  24520.9  155.096
 12.5896  24140.3  154.545
 12.6316  24154.7  154.743
 12.6736  24028.9  154.83
 12.7156  24330  155.631
 12.7576  23989.5  154.789
 12.7996  24290.8  154.392
 12.8416  24089  154.814
 12.8836  24325.9  155.4
 12.9256  24618.9  155.36
 12.9676  24682.3  155.963
 13.0096  24860  157.656
 13.0516  24781.7  156.432
 13.0936  25089.5  157.809
 13.1356  25233  157.205
 13.1776  24760.5  156.756
 13.2196  24898.1  156.829
 13.2616  24585.2  156.158
 13.3036  24942.7  157.249
 13.3456  24496.3  156.178
 13.3876  25026.3  157.131
 13.4296  24760.1  156.467
 13.4716  24805.2  156.234
 13.5136  24864.1  156.542
 13.5556  24708.9  156.69
 13.5976  24982.8  157.73
 13.6396  24792.4  156.479
 13.6816  25099.1  157.914
 13.7236  25087.1  157.466
 13.7656  26762.2  163.087
 13.8076  27461.1  163.905
 13.8496  27019  163.202
 13.8916  25145.4  158.588
 13.9336  24479.9  155.747
 13.9756  24629.7  155.586
 14.0176  24111.1  154.633
 14.0596  24130.9  154.608
 14.1016  24037.2  154.752
 14.1436  24127.7  154.164
 14.1856  23631.4  152.859
 14.2276  23414.4  152.651
 14.2696  23449.4  152.61
 14.3116  22943.2  150.863
 14.3536  22926.4  150.97
 14.3956  22495.9  149.269
 14.4376  23089.4  151.014
 14.4796  22798.7  150.06
 14.5216  22422.3  149.611
 14.5636  22269.7  148.669
 14.6056  22602.9  149.328
 14.6476  22530.5  148.323
 14.6896  22013.8  147.16
 14.7316  21667.1  147.042
 14.7736  21462.3  145.481
 14.8156  21374.4  145.206
 14.8576  21383.6  145.094
 14.8996  20916.9  144.706
 14.9416  20498  143.255
 14.9836  20456.9  143.103
 15.0256  19895.3  140.036
 15.0676  20067.4  140.953
 15.1096  19836.3  139.876
 15.1516  19559.9  139.455
 15.1936  19400.3  138.317
 15.2356  19321.2  138.313
 15.2776  19130.8  137.221
 15.3196  18749.7  136.835
 15.3616  18871.4  137.039
 15.4036  18780.3  136.569
 15.4456  19105.5  137.391
 15.4876  18738.3  135.746
 15.5296  18445.7  134.965
 15.5716  18060.4  133.158
 15.6136  18154  133.826
 15.6556  18254.9  133.44
 15.6976  18126.9  133.265
 15.7396  17798.4  132.439
 15.7816  17888.2  132.284
 15.8236  17431.1  131.273
 15.8656  17931.4  132.934
 15.9076  17566.7  131.401
 15.9496  18224.5  136.682
 15.9916  17729  135.198
 16.0336  17926.2  132.802
 16.0756  17840.6  132.806
 16.1176  17569.5  131.886
 16.1596  17085.3  131.221
 16.2016  17191.9  130.4
 16.2436  17186.4  130.757
 16.2856  17120.5  130.023
 16.3276  16788.7  129.192
 16.3696  17095.1  130.195
 16.4116  16829.3  129.628
 16.4536  17096.9  130.459
 16.4956  17003.1  129.83
 16.5376  16901.7  129.628
 16.5796  16686.9  128.164
 16.6216  16667.6  128.355
 16.6636  16543.2  128.071
 16.7056  16771.7  128.811
 16.7476  16762.2  128.299
 16.7896  16661.7  128.665
 16.8316  16600.7  128.408
 16.8736  16868.4  129.696
 16.9156  16804  129.781
 16.9576  16422.6  129.088
 16.9996  16454.9  129.691
 17.0416  16556.1  128.46
 17.0836  16645.7  128.568
 17.1256  16355.5  127.447
 17.1676  16501.7  127.976
 17.2096  16285.2  127.034
 17.2516  16249.7  126.675
 17.2936  16234.3  126.971
 17.3356  16087.4  126.388
 17.3776  15841.8  125.599
 17.4196  15885.8  125.471
 17.4616  15826.5  125.14
 17.5036  15436.2  123.958
 17.5456  15484.7  124.79
 17.5876  15347.5  123.278
 17.6296  15405.6  123.349
 17.6716  15476.1  124.213
 17.7136  15416.5  124.108
 17.7556  15305.3  123.949
 17.7976  15204.6  123.279
 17.8396  14992  121.918
 17.8816  15127.4  123.028
 17.9236  15133.1  122.842
 17.9656  14963.7  122.677
 18.0076  14872.3  121.894
 18.0496  14807.3  120.769
 18.0916  14916.1  121.761
 18.1336  14834.2  121.512
 18.1756  15172.3  122.442
 18.2176  14588.5  120.277
 18.2596  14655.9  120.278
 18.3016  14783.8  121.069
 18.3436  14641  120.48
 18.3856  14620.5  120.528
 18.4276  14600.4  120.134
 18.4696  14443.4  119.569
 18.5116  14555  120.307
 18.5536  14556.9  120.679
 18.5956  14265.5  119.02
 18.6376  14351.1  119.784
 18.6796  14318.8  118.964
 18.7216  14480.5  120.131
 18.7636  14455.5  120.029
 18.8056  14292.2  119.273
 18.8476  14171.1  119.402
 18.8896  14219.4  118.93
 18.9316  14195  118.819
 18.9736  14242.7  118.711
 19.0156  14153.1  118.754
 19.0576  14417.6  118.691
 19.0996  14415.3  119.409
 19.1416  14249.7  119.118
 19.1836  14270.7  118.809
 19.2256  13988.5  117.848
 19.2676  14102.9  118.415
 19.3096  14076.8  118.551
 19.3516  14034.2  118.328
 19.3936  13925.1  117.758
 19.4356  14342.6  119.397
 19.4776  14212.6  118.949
 19.5196  14155.4  118.56
 19.5616  14046.2  118.361
 19.6036  13991.8  117.633
 19.6456  14059.5  118.025
 19.6876  14044.2  117.593
 19.7296  14305.9  119.159
 19.7716  14035.4  118.2
 19.8136  14348.2  119.713
 19.8556  14482.7  119.748
 19.8976  14430.8  119.582
 19.9396  14557.3  119.696
 19.9816  14708  120.568
 20.0236  14945  121.731
 20.0656  15017  122.026
 20.1076  14835.7  121.772
 20.1496  14521  120.471
 20.1916  14437.4  119.632
 20.2336  14069  118.021
 20.2756  13971.7  118.053
 20.3176  13859.3  117.321
 20.3596  13665  116.483
 20.4016  13885.2  117.206
 20.4436  13587.4  116.507
 20.4856  13784.5  117.144
 20.5276  13354.1  115.762
 20.5696  13685.7  116.628
 20.6116  13511.2  116.159
 20.6536  13381.1  115.116
 20.6956  13416.5  115.398
 20.7376  13268  114.97
 20.7796  13381.9  115.157
 20.8216  13485.4  115.31
 20.8636  13384.1  115.254
 20.9056  13263.5  114.673
 20.9476  13371.6  114.978
 20.9896  13403.2  114.98
 21.0316  13181.8  113.924
 21.0736  13079.9  113.991
 21.1156  13114.6  114.311
 21.1576  13223.9  114.818
 21.1996  13165.9  114.567
 21.2416  13245.1  114.73
 21.2836  13029.3  113.761
 21.3256  13246.6  114.788
 21.3676  13130.5  113.818
 21.4096  13011.6  113.626
 21.4516  13067.8  113.74
 21.4936  12887.6  113.221
 21.5356  13038.5  113.827
 21.5776  13172.1  114.232
 21.6196  12814.5  112.718
 21.6616  12889.9  113.137
 21.7036  12958.1  113.202
 21.7456  13008.1  113.501
 21.7876  12840.2  112.522
 21.8296  12816.7  112.267
 21.8716  12921.6  112.949
 21.9136  13053.4  113.734
 21.9556  12803.1  112.317
 21.9976  12845.5  112.531
 22.0396  12806.9  112.614
 22.0816  12660.8  112.492
 22.1236  12810.8  112.62
 22.1656  12773  112.599
 22.2076  12580.6  111.204
 22.2496  12619  111.397
 22.2916  12355.5  110.119
 22.3336  12466  111.324
 22.3756  12452.2  110.986
 22.4176  12440.3  110.788
 22.4596  12246.4  110.508
 22.5016  12527.2  111.266
 22.5436  12616.2  111.54
 22.5856  12644.4  111.908
 22.6276  12843.8  112.918
 22.6696  12471.1  111.624
 22.7116  12490.1  111.223
 22.7536  12515.8  111.314
 22.7956  12568.5  110.88
 22.8376  12345.3  110.412
 22.8796  12493.1  110.87
 22.9216  12371.6  110.869
 22.9636  12390.3  110.111
 23.0056  12525.2  110.838
 23.0476  12544.1  111.498
 23.0896  12850.9  112.227
 23.1316  12615.6  111.629
 23.1736  12669.8  114.823
 23.2156  12890.6  113.176
 23.2576  13099.4  114.221
 23.2996  12712.4  112.301
 23.3416  12922.1  113.758
 23.3836  12764.6  112.288
 23.4256  12866.7  112.856
 23.4676  12821.6  112.342
 23.5096  12730.8  112.608
 23.5516  12804.7  112.233
 23.5936  12775.3  113.02
 23.6356  12893  113.2
 23.6776  12614.4  112.187
 23.7196  12514.8  111.314
 23.7616  12680.7  111.968
 23.8036  12840.2  112.723
 23.8456  12467.3  110.624
 23.8876  12625.1  111.685
 23.9296  12402.5  111.187
 23.9716  12475.6  110.715
 24.0136  12566.7  112.028
 24.0556  12487.5  111.392
 24.0976  12222.8  110.019
 24.1396  12224.5  112.635
 24.1816  12387.1  111.804
 24.2236  12467.9  111.779
 24.2656  12227.5  110.169
 24.3076  12289.1  110.714
 24.3496  12098.6  109.732
 24.3916  12226.6  110.367
 24.4336  12260.4  110.72
 24.4756  12172.5  110.209
 24.5176  12021.5  109.145
 24.5596  11980.2  109.092
 24.6016  11827.9  108.682
 24.6436  12035.7  109.138
 24.6856  11895.3  108.245
 24.7276  11701.9  107.682
 24.7696  11769.2  108.103
 24.8116  11743  108.155
 24.8536  11656.7  107.768
 24.8956  11704.8  107.717
 24.9376  11586.9  107.103
 24.9796  11487.1  107.001
 25.0216  11575  107.528
 25.0636  11550.5  107.063
 25.1056  11420.9  107.164
 25.1476  11399.9  108.72
 25.1896  11459.6  107.491
 25.2316  11256.2  105.806
 25.2736  11331.7  105.812
 25.3156  11376.8  106.1
 25.3576  11177.8  105.601
 25.3996  11375.5  106.521
 25.4416  11326  106.256
 25.4836  11016.1  105.317
 25.5256  11200.2  105.544
 25.5676  11194.5  105.248
 25.6096  11107  105.421
 25.6516  11110.7  104.933
 25.6936  11094  105.175
 25.7356  11201.9  105.822
 25.7776  11151  105.178
 25.8196  10887.7  104.165
 25.8616  10929.6  104.299
 25.9036  11085.6  104.48
 25.9456  11056.9  104.951
 25.9876  10920.7  104.37
 26.0296  11006.2  104.293
 26.0716  11174.6  105.519
 26.1136  11087.9  105.038
 26.1556  11193  104.917
 26.1976  10950.2  104.705
 26.2396  10846.2  103.361
 26.2816  10991.7  104.669
 26.3236  10985.6  104.782
 26.3656  11164.6  105.361
 26.4076  10942.9  104.512
 26.4496  11074.6  104.742
 26.4916  11215  105.291
 26.5336  11360.8  106.315
 26.5756  11594.7  107.281
 26.6176  11181.4  105.372
 26.6596  11024.3  104.934
 26.7016  10933.6  104.269
 26.7436  11020.1  104.807
 26.7856  10844.4  103.964
 26.8276  10699.7  103.23
 26.8696  10843.2  103.79
 26.9116  10769.6  103.379
 26.9536  10624  102.726
 26.9956  10585.6  102.568
 27.0376  10649  103.102
 27.0796  10666.9  102.915
 27.1216  10687.4  103.073
 27.1636  10292  101.32
 27.2056  10534.6  102.384
 27.2476  10595.6  102.668
 27.2896  10458.5  102.117
 27.3316  10391.7  101.512
 27.3736  10304.9  101.36
 27.4156  10452.4  101.922
 27.4576  10441.8  102.095
 27.4996  10481.5  101.892
 27.5416  10429.5  101.946
 27.5836  10412.4  101.699
 27.6256  10329  101.475
 27.6676  10259.3  101.121
 27.7096  10381.6  101.598
 27.7516  10337.6  101.527
 27.7936  10510.6  102.527
 27.8356  10547.2  102.322
 27.8776  10473.6  102.006
 27.9196  10269  100.872
 27.9616  10328.3  101.362
 28.0036  10118.8  100.295
 28.0456  10131  100.496
 28.0876  10045.3  100.153
 28.1296  10113.2  100.325
 28.1716  10241  100.975
 28.2136  10257  101.021
 28.2556  10088.2  100.305
 28.2976  10140.4  100.549
 28.3396  10090.7  100.062
 28.3816  10043.4  99.8408
 28.4236  9983.63  99.704
 28.4656  10010.8  99.8715
 28.5076  9907.53  98.98
 28.5496  10058.3  99.9987
 28.5916  10116  100.101
 28.6336  9994.72  99.8435
 28.6756  10067.6  99.3963
 28.7176  9946.24  99.3522
 28.7596  9847  98.7496
 28.8016  9908.16  99.0916
 28.8436  9722.02  98.3918
 28.8856  9937.28  99.3294
 28.9276  9885.47  99.3188
 28.9696  9774.64  98.4087
 29.0116  9889.54  99.1709
 29.0536  9757.41  98.7243
 29.0956  9834.64  98.8109
 29.1376  9828.93  98.7501
 29.1796  9811.97  98.7178
 29.2216  9728.49  98.1409
 29.2636  9840.68  98.7767
 29.3056  9747.81  98.0886
 29.3476  9786.45  98.8195
 29.3896  9797.07  98.9851
 29.4316  9560.03  97.1129
 29.4736  9574.88  97.2545
 29.5156  9620.44  97.4042
 29.5576  9538.77  97.721
 29.5996  9596.67  97.2844
 29.6416  9579.32  97.3128
 29.6836  9515.88  96.9184
 29.7256  9429.98  97.0417
 29.7676  9450.4  96.8126
 29.8096  9629.73  97.6673
 29.8516  9280.8  96.2108
 29.8936  9471.06  97.2812
 29.9356  9508.05  97.228
 29.9776  9334.52  96.4894
 30.0196  9453.04  96.4842
 30.0616  9362.06  96.3959
 30.1036  9489.55  96.8735
 30.1456  9359.13  96.4408
 30.1876  9396.33  96.6069
 30.2296  9319.33  96.1636
 30.2716  9428.07  96.3582
 30.3136  9492.9  97.5486
 30.3556  9572.64  97.9546
 30.3976  9497.73  99.0696
 30.4396  9748.54  97.7089
 30.4816  9716.96  97.1484
 30.5236  9767.6  97.404
 30.5656  9709.06  97.7698
 30.6076  9630.99  96.7779
 30.6496  9595.95  97.0294
 30.6916  9333.27  95.7767
 30.7336  9520.79  96.8676
 30.7756  9620.4  97.472
 30.8176  9548.28  97.0233
 30.8596  9521.13  96.6507
 30.9016  9686.1  97.845
 30.9436  9593.65  97.1029
 30.9856  9660.19  97.5723
 31.0276  9489.12  96.3256
 31.0696  9313.61  95.9879
 31.1116  9319.3  95.979
 31.1536  9312.16  95.8391
 31.1956  9369.71  96.2223
 31.2376  9157.61  95.148
 31.2796  9449.85  96.1878
 31.3216  9467.24  96.205
 31.3636  9459.06  96.8598
 31.4056  9331.78  97.508
 31.4476  9373.71  95.6304
 31.4896  9549.9  97.0401
 31.5316  9416.63  95.758
 31.5736  9582.37  96.4297
 31.6156  9463.8  95.8389
 31.6576  9538.17  96.2949
 31.6996  9462.1  95.5693
 31.7416  9316.42  95.9246
 31.7836  9549.3  96.0906
 31.8256  9416.1  95.7016
 31.8676  9447.44  95.8588
 31.9096  9323.55  95.5917
 31.9516  9153.27  94.879
 31.9936  9208.5  94.9829
 32.0356  9365.64  95.8446
 32.0776  9463.07  96.2407
 32.1196  9342  95.7268
 32.1616  9507.17  96.0101
 32.2036  9274.84  95.341
 32.2456  9066.69  94.6414
 32.2876  9485.5  96.2931
 32.3296  9158.9  94.5852
 32.3716  9049.14  94.1285
 32.4136  9157.13  94.8967
 32.4556  9301.84  95.0197
 32.4976  9130.29  94.0547
 32.5396  9040.54  93.647
 32.5816  9032.37  93.7386
 32.6236  8969.24  93.4666
 32.6656  9223.04  95.3357
 32.7076  9104.39  94.3661
 32.7496  8998.83  93.4887
 32.7916  9151.79  94.2404
 32.8336  9128.92  94.2194
 32.8756  9136.12  93.9714
 32.9176  8992.8  93.7222
 32.9596  9018.66  93.9329
 33.0016  9092.35  94.0851
 33.0436  9082.83  94.214
 33.0856  8932.51  93.5239
 33.1276  8861.86  92.8763
 33.1696  8991.7  93.3819
 33.2116  9096.98  94.1704
 33.2536  9153.2  94.4519
 33.2956  9017.5  93.8311
 33.3376  8983.41  93.3985
 33.3796  9005.69  93.7339
 33.4216  8969.48  93.13
 33.4636  9100.38  93.9687
 33.5056  8951.13  93.44
 33.5476  8945.86  93.3785
 33.5896  9026.56  93.6006
 33.6316  8944.39  93.4853
 33.6736  8811.63  93.0364
 33.7156  8816.1  93.0951
 33.7576  8836.43  92.8396
 33.7996  8998.93  93.4529
 33.8416  8753.66  92.3541
 33.8836  8761.9  92.1724
 33.9256  8998.61  93.4679
 33.9676  8925.81  92.9776
 34.0096  8758.9  92.4238
 34.0516  8789.07  92.2194
 34.0936  8777.35  92.43
 34.1356  8815.51  92.3668
 34.1776  8681.41  91.6681
 34.2196  8793.48  92.4398
 34.2616  8672.46  91.9356
 34.3036  8771.44  92.702
 34.3456  8679.19  91.9638
 34.3876  8786.44  92.5134
 34.4296  8737.88  91.9419
 34.4716  8802.49  92.4347
 34.5136  8700.83  92.0983
 34.5556  8595.46  91.7947
 34.5976  8790.88  92.6377
 34.6396  8737.25  92.0636
 34.6816  8714.69  92.0504
 34.7236  8714.37  91.8173
 34.7656  8713.07  92.0262
 34.8076  8593.3  91.7262
 34.8496  8567.7  91.4412
 34.8916  8667.31  91.8332
 34.9336  8646.63  91.7023
 34.9756  8642.68  91.5994
 35.0176  8679.4  92.3276
 35.0596  8786.34  92.7186
 35.1016  8738.59  92.2149
 35.1436  8833.42  92.4014
 35.1856  8700.68  91.8223
 35.2276  8603.72  91.49
 35.2696  8625.96  91.803
 35.3116  8563.87  91.5612
 35.3536  8584  91.3853
 35.3956  8483.42  90.5493
 35.4376  8572.53  91.6014
 35.4796  8529.95  91.4074
 35.5216  8562.06  91.5534
 35.5636  8293.42  90.8366
 35.6056  8461.27  90.7716
 35.6476  8547.84  91.1291
 35.6896  8592.1  91.4618
 35.7316  8426.52  90.5494
 35.7736  8518.51  91.234
 35.8156  8543.66  91.3713
 35.8576  8505.32  91.4128
 35.8996  8587.13  91.8236
 35.9416  8492.61  90.82
 35.9836  8507.82  91.2325
 36.0256  8589.87  91.7049
 36.0676  8616.34  91.5809
 36.1096  8550.5  91.3916
 36.1516  8586.42  91.4703
 36.1936  8584.09  91.2931
 36.2356  8573.25  91.8949
 36.2776  8425.05  90.5855
 36.3196  8451.8  90.3863
 36.3616  8485.64  90.6976
 36.4036  8504.31  90.8636
 36.4456  8511.16  91.1067
 36.4876  8276.31  89.7884
 36.5296  8423.03  90.6183
 36.5716  8359.54  91.0547
 36.6136  8340.77  89.7338
 36.6556  8285.53  89.6391
 36.6976  8175.19  89.528
 36.7396  8231.66  89.5703
 36.7816  8122.15  89.347
 36.8236  8137  89.347
 36.8656  8188.16  89.6978
 36.9076  8130.77  89.2627
 36.9496  8054.47  88.8372
 36.9916  8219.26  89.3675
 37.0336  8197.53  89.5685
 37.0756  8142.37  89.057
 37.1176  8120.7  89.205
 37.1596  8055.42  88.8547
 37.2016  8051.17  89.0526
 37.2436  8172.19  89.0345
 37.2856  8095.34  88.8662
 37.3276  8095.58  88.2299
 37.3696  8148.76  89.3954
 37.4116  8151.93  89.3263
 37.4536  8086.46  88.8334
 37.4956  7866.92  87.6625
 37.5376  8209.3  91.1474
 37.5796  8177.25  90.8961
 37.6216  8183.35  89.1923
 37.6636  8176.46  89.0364
 37.7056  8276.32  89.7708
 37.7476  8265.25  89.2525
 37.7896  8169.23  89.2487
 37.8316  8088.75  88.9622
 37.8736  8232.67  89.2737
 37.9156  8274.57  89.4948
 37.9576  8153.79  88.7501
 37.9996  7867.26  86.8921
 38.0416  8098.99  88.968
 38.0836  8313.79  90.0461
 38.1256  8229.79  89.5608
 38.1676  7998.91  88.4153
 38.2096  8261.04  89.4665
 38.2516  8066.83  88.6248
 38.2936  8268.63  89.5197
 38.3356  8148.28  88.7976
 38.3776  8072.82  88.633
 38.4196  8157.39  88.9597
 38.4616  8101.83  88.8978
 38.5036  8079.7  88.6164
 38.5456  7931.93  88.6301
 38.5876  8035.83  89.2261
 38.6296  8112.99  88.6174
 38.6716  8131.23  88.5195
 38.7136  7960.39  87.5299
 38.7556  7950.93  87.9853
 38.7976  8164.45  89.0713
 38.8396  8009.83  88.7002
 38.8816  8026.15  88.5808
 38.9236  8011.66  88.2916
 38.9656  8098.18  88.6663
 39.0076  8065.89  87.9031
 39.0496  8212.81  89.2662
 39.0916  8191.63  88.79
 39.1336  8032.61  88.3362
 39.1756  8062.6  88.5593
 39.2176  7986.17  88.6745
 39.2596  7990.79  88.6276
 39.3016  7934.01  87.8975
 39.3436  8040.65  88.8972
 39.3856  8126.57  88.8111
 39.4276  8154.93  89.4823
 39.4696  8093.85  88.7573
 39.5116  8097.97  89.302
 39.5536  8112.98  89.8204
 39.5956  8076.55  88.7022
 39.6376  7979.06  88.176
 39.6796  7978.05  87.9083
 39.7216  8018.76  88.2348
 39.7636  7960.54  88.476
 39.8056  8081.97  88.9369
 39.8476  7865.07  87.9871
 39.8896  8031.05  88.542
 39.9316  7984.71  88.5272
 39.9736  8052.93  88.4803
 40.0156  7855.76  87.222
 40.0576  7992.91  88.3327
 40.0996  7994.07  87.521
 40.1416  8064.6  88.7084
 40.1836  8084.09  88.7081
 40.2256  8008.54  88.3188
 40.2676  7985.71  88.305
 40.3096  8177.23  89.2801
 40.3516  8057.94  88.7459
 40.3936  8221.15  89.1824
 40.4356  7909.7  87.6822
 40.4776  7971.28  88.4279
 40.5196  8058.49  89.0397
 40.5616  8224.65  89.584
 40.6036  8015.59  88.7043
 40.6456  8048.89  88.4915
 40.6876  8143.85  89.004
 40.7296  7975.95  88.2186
 40.7716  8093.15  88.9769
 40.8136  8039.64  88.6354
 40.8556  8088.06  89.032
 40.8976  8046.41  88.7275
 40.9396  8048.22  89.0801
 40.9816  8044.3  88.3437
 41.0236  7994.65  87.8639
 41.0656  8036.22  88.6287
 41.1076  7990.09  88.1456
 41.1496  8154.5  88.955
 41.1916  8008.08  88.4579
 41.2336  8067.3  88.7901
 41.2756  8022.46  88.1448
 41.3176  8020.91  88.7506
 41.3596  8041.57  88.6048
 41.4016  8035.38  88.8332
 41.4436  8146.86  89.2236
 41.4856  7982.22  88.4877
 41.5276  8000.46  88.6041
 41.5696  8043.5  88.4633
 41.6116  8034.54  88.8115
 41.6536  8065.2  88.8337
 41.6956  8167.16  89.4569
 41.7376  8032.06  88.7397
 41.7796  7989.78  88.3977
 41.8216  8102.49  89.245
 41.8636  7913.19  88.1446
 41.9056  7895.98  87.8422
 41.9476  8034.64  88.8422
 41.9896  8127.6  89.0191
 42.0316  8051.22  88.6861
 42.0736  8196.03  89.5801
 42.1156  7937.79  87.9884
 42.1576  7982.67  88.3514
 42.1996  8168.1  89.5102
 42.2416  7968.29  87.9856
 42.2836  7968.05  88.105
 42.3256  7951.45  88.1273
 42.3676  8054.57  88.4901
 42.4096  7959.14  87.9401
 42.4516  8120.25  88.8987
 42.4936  7916.02  87.8535
 42.5356  7905.08  87.9276
 42.5776  7948.74  88.106
 42.6196  7992.56  88.4033
 42.6616  7761.42  87.2923
 42.7036  7977.03  87.869
 42.7456  7992.37  88.3107
 42.7876  7909.36  87.9479
 42.8296  7812.5  87.2496
 42.8716  7812.49  87.4116
 42.9136  7901.5  87.688
 42.9556  7882.05  87.7189
 42.9976  7949.79  88.0557
 43.0396  7917.81  87.6048
 43.0816  7886.96  87.8278
 43.1236  7868.65  87.7701
 43.1656  7811.1  87.2777
 43.2076  7897.48  87.8737
 43.2496  7901.26  87.7099
 43.2916  7852.06  87.7989
 43.3336  7912.11  87.9627
 43.3756  7857.41  87.4189
 43.4176  7815.57  87.2666
 43.4596  7818.33  87.1347
 43.5016  7824.86  87.5752
 43.5436  7875.77  87.7679
 43.5856  7802.54  87.387
 43.6276  7846.28  87.5216
 43.6696  7808.4  87.5653
 43.7116  7934.21  87.7611
 43.7536  7896.75  88.0477
 43.7956  7759.89  88.5105
 43.8376  7643.34  86.3616
 43.8796  7636.93  86.4084
 43.9216  7650.79  86.4055
 43.9636  7702  86.806
 44.0056  7690.96  86.9738
 44.0476  7606.86  86.1292
 44.0896  7552.38  86.158
 44.1316  7665.5  86.3245
 44.1736  7622.21  86.2083
 44.2156  7636.5  86.1374
 44.2576  7583.1  86.1615
 44.2996  7659.85  86.5688
 44.3416  7574.51  85.8468
 44.3836  7556.18  86.0721
 44.4256  7573.14  85.8124
 44.4676  7576.53  85.9817
 44.5096  7603.34  86.2825
 44.5516  7525.69  85.8029
 44.5936  7544.01  85.8625
 44.6356  7678.33  86.3594
 44.6776  7555.13  85.9797
 44.7196  7525.44  86.1219
 44.7616  7659.52  88.2214
 44.8036  7535.31  85.934
 44.8456  7688.52  87.0074
 44.8876  7742.4  87.1539
 44.9296  7986.27  87.9409
 44.9716  7802.05  87.3528
 45.0136  7919.33  87.9552
 45.0556  7861.16  87.6089
 45.0976  7672.69  86.7103
 45.1396  7679.02  86.4755
 45.1816  7672.7  86.3992
 45.2236  7745.67  86.7196
 45.2656  7673.32  86.8166
 45.3076  7690.49  86.689
 45.3496  7571.05  86.3264
 45.3916  7679.91  87.2182
 45.4336  7652.92  86.9054
 45.4756  7681.84  86.9185
 45.5176  7669.03  86.4635
 45.5596  7754.02  87.056
 45.6016  7574.64  86.4754
 45.6436  7728.45  86.509
 45.6856  7673.6  86.8685
 45.7276  7513.15  87.2672
 45.7696  7680.27  87.909
 45.8116  7591.77  86.8233
 45.8536  7599.92  86.768
 45.8956  7562.14  85.9005
 45.9376  7644.18  85.8233
 45.9796  7625.03  86.405
 46.0216  7808.69  87.7886
 46.0636  7791.9  86.8046
 46.1056  7631.41  85.9149
 46.1476  7580.12  86.2221
 46.1896  7764.02  87.413
 46.2316  7660.32  86.6777
 46.2736  7588.23  86.664
 46.3156  7531.81  85.92
 46.3576  7679.62  86.9585
 46.3996  7662.63  87.0338
 46.4416  7627.47  86.3933
 46.4836  7555.94  86.3581
 46.5256  7672  86.9569
 46.5676  7530.51  86.2661
 46.6096  7556.32  86.33
 46.6516  7756.5  86.5032
 46.6936  7629.19  86.2923
 46.7356  7760.17  87.1351
 46.7776  7602.69  87.1085
 46.8196  7580.63  86.5669
 46.8616  7388.47  85.4147
 46.9036  7405.86  85.1615
 46.9456  7449.94  85.0538
 46.9876  7537.5  85.6179
 47.0296  7507.76  86.1649
 47.0716  7509.61  86.0012
 47.1136  7543.13  85.8656
 47.1556  7511.22  85.5383
 47.1976  7596.65  86.1148
 47.2396  7513.22  86.0412
 47.2816  7465.38  85.4675
 47.3236  7473.58  85.8929
 47.3656  7537.8  86.1815
 47.4076  7522.07  85.898
 47.4496  7540.75  86.0974
 47.4916  7465.54  85.8699
 47.5336  7408.88  85.3504
 47.5756  7614.61  86.6505
 47.6176  7451.94  85.6072
 47.6596  7440.44  85.2503
 47.7016  7591.34  85.9195
 47.7436  7552.68  86.0489
 47.7856  7602.04  86.3678
 47.8276  7471.78  85.6729
 47.8696  7497.75  85.9068
 47.9116  7536.79  85.8359
 47.9536  7547.26  85.8379
 47.9956  7447.24  85.9875
 48.0376  7392.43  85.4378
 48.0796  7522.94  86.3205
 48.1216  7507.69  86.0518
 48.1636  7512.74  85.6371
 48.2056  7398.29  85.2572
 48.2476  7662.63  87.0748
 48.2896  7438.07  85.7041
 48.3316  7544.61  86.2683
 48.3736  7485.18  85.9408
 48.4156  7414.73  85.3913
 48.4576  7468.43  85.9904
 48.4996  7575.53  86.0509
 48.5416  7530.25  86.1266
 48.5836  7454.22  85.3619
 48.6256  7525.45  85.9867
 48.6676  7431.94  85.969
 48.7096  7578.31  86.0616
 48.7516  7458.7  85.5286
 48.7936  7367.44  85.066
 48.8356  7529.14  86.0467
 48.8776  7455.22  86.2051
 48.9196  7568.65  86.2059
 48.9616  7403.5  85.6572
 49.0036  7453.06  86.294
 49.0456  7453.91  86.2817
 49.0876  7416.97  85.5833
 49.1296  7343.09  85.335
 49.1716  7301.57  84.9666
 49.2136  7403.64  85.4712
 49.2556  7424.98  85.6325
 49.2976  7509.73  86.1947
 49.3396  7392.17  85.5673
 49.3816  7504.21  85.624
 49.4236  7514.28  86.1197
 49.4656  7376.22  85.3467
 49.5076  7486.8  85.7286
 49.5496  7355.33  85.0316
 49.5916  7389.93  85.1425
 49.6336  7363.34  85.2047
 49.6756  7440.71  85.8873
 49.7176  7317.72  85.1158
 49.7596  7418.53  85.4666
 49.8016  7532.04  86.0304
 49.8436  7302.87  85.0158
 49.8856  7348.32  85.2865
 49.9276  7323.14  85.2399
 49.9696  7421.66  85.7976
 50.0116  7438.17  86.0295
 50.0536  7366.61  85.5546
 50.0956  7320.98  85.3603
 50.1376  7357.2  85.259
 50.1796  7310.56  85.2723
 50.2216  7361.63  85.5602
 50.2636  7316.09  84.9092
 50.3056  7314.75  85.0747
 50.3476  7260.08  84.7761
 50.3896  7296.52  84.9673
 50.4316  7401.23  85.397
 50.4736  7194.2  84.4197
 50.5156  7390.27  85.5453
 50.5576  7323.43  84.9162
 50.5996  7290.92  85.0214
 50.6416  7430.49  85.7521
 50.6836  7309.52  85.1009
 50.7256  7364.34  85.3461
 50.7676  7394.49  85.8578
 50.8096  7280.29  84.7134
 50.8516  7254.68  84.9951
 50.8936  7252.05  84.759
 50.9356  7360.44  85.4916
 50.9776  7249.1  85.0144
 51.0196  7020.39  83.7871
 51.0616  7165.68  83.9555
 51.1036  7174.05  84.3734
 51.1456  7256.07  84.7616
 51.1876  7124.75  83.3138
 51.2296  7188.23  84.337
 51.2716  7096.87  83.5051
 51.3136  7112.72  84.068
 51.3556  7108.65  83.6569
 51.3976  7128.27  83.9209
 51.4396  6992.59  83.4395
 51.4816  7148.67  84.213
 51.5236  7119.82  84.1281
 51.5656  7099.02  83.5982
 51.6076  7295.38  84.8316
 51.6496  7071.34  83.7165
 51.6916  7081.11  84.1374
 51.7336  6991.28  83.6988
 51.7756  7134.97  84.2274
 51.8176  7055.98  83.8779
 51.8596  7028.42  83.7338
 51.9016  7204.15  84.3708
 51.9436  7156.73  85.6226
 51.9856  7250.52  86.6002
 52.0276  7283.08  85.2418
 52.0696  7168.7  84.6397
 52.1116  7099.11  84.351
 52.1536  7213.71  84.9093
 52.1956  7141.74  83.9406
 52.2376  7293.11  84.996
 52.2796  7137.74  83.9026
 52.3216  7014.14  83.855
 52.3636  7133.63  84.1297
 52.4056  7086.25  83.7249
 52.4476  7034.64  83.7821
 52.4896  7009.19  83.6846
 52.5316  7080.43  84.1476
 52.5736  7059.6  83.7472
 52.6156  7224.39  85.1286
 52.6576  7075.88  83.6751
 52.6996  6952.19  83.945
 52.7416  7036.17  84.2938
 52.7836  7095.59  84.541
 52.8256  7193.97  84.3109
 52.8676  6956.07  83.4838
 52.9096  7109.59  84.4818
 52.9516  7045.36  84.492
 52.9936  7038.41  84.8385
 53.0356  7156.13  84.5105
 53.0776  7128.45  84.6267
 53.1196  6924.82  83.5278
 53.1616  7063.06  84.4141
 53.2036  6882.52  83.2876
 53.2456  6975.45  83.9505
 53.2876  7026.67  83.9421
 53.3296  7075.72  84.5695
 53.3716  7205.04  85.088
 53.4136  7151.04  84.9106
 53.4556  6886.03  83.3627
 53.4976  6991.25  83.8258
 53.5396  6942.51  83.9424
 53.5816  7046.5  84.1923
 53.6236  6992.16  84.2316
 53.6656  7062.23  84.2495
 53.7076  7091.53  84.3748
 53.7496  7087.73  84.4913
 53.7916  7085.55  84.6179
 53.8336  7006.81  84.0352
 53.8756  6944.94  84.2199
 53.9176  6947.57  83.5646
 53.9596  6695.81  82.8111
 54.0016  6746.48  82.4475
 54.0436  6626.25  81.9323
 54.0856  6753.68  82.121
 54.1276  6760.69  82.3811
 54.1696  6717.89  82.269
 54.2116  6840.73  82.7671
 54.2536  6698.45  81.7018
 54.2956  6735.36  81.9826
 54.3376  6757.65  82.6122
 54.3796  6611.28  81.6176
 54.4216  6798.93  82.8413
 54.4636  6654.13  81.9051
 54.5056  6789.65  82.533
 54.5476  6760.69  82.714
 54.5896  6766.09  82.5762
 54.6316  6761.62  82.397
 54.6736  6756.45  82.4398
 54.7156  6708.08  82.1844
 54.7576  6634.62  81.6929
 54.7996  6703.24  82.2842
 54.8416  6711.55  82.396
 54.8836  6675.79  82.2498
 54.9256  6620.79  81.6758
 54.9676  6602.14  81.4247
 55.0096  6717.99  82.1563
 55.0516  6577.72  81.5403
 55.0936  6695.63  81.9387
 55.1356  6516.36  80.876
 55.1776  6708.08  82.2943
 55.2196  6635.37  81.6239
 55.2616  6711.43  82.3296
 55.3036  6582.82  81.7201
 55.3456  6431.29  80.9047
 55.3876  6595.1  81.6562
 55.4296  6492.98  81.017
 55.4716  6486.51  80.9992
 55.5136  6597.53  81.4426
 55.5556  6692.7  82.0662
 55.5976  6601.38  81.6227
 55.6396  6680.74  82.0447
 55.6816  6558.51  81.1473
 55.7236  6420.9  80.362
 55.7656  6550.74  80.8874
 55.8076  6569.36  81.0034
 55.8496  6418.85  80.4029
 55.8916  6496.26  81.0837
 55.9336  6614.05  81.6356
 55.9756  6437.3  80.4233
 56.0176  6433.72  80.539
 56.0596  6490.39  80.8933
 56.1016  6404.77  80.3686
 56.1436  6428.69  80.7897
 56.1856  6382.13  80.242
 56.2276  6680.86  82.1418
 56.2696  6549.1  81.308
 56.3116  6472.39  81.2117
 56.3536  6545.71  81.3269
 56.3956  6397.64  80.3713
 56.4376  6427.45  80.633
 56.4796  6341.5  79.8929
 56.5216  6402.89  80.649
 56.5636  6372.97  80.0373
 56.6056  6552.07  81.3988
 56.6476  6486.14  80.589
 56.6896  6650.36  82.0749
 56.7316  6446.52  80.7401
 56.7736  6382.97  80.333
 56.8156  6435.13  80.6629
 56.8576  6304  79.7856
 56.8996  6428.47  80.4703
 56.9416  6335.83  80.2047
 56.9836  6444.33  80.4039
 57.0256  6284.04  79.7193
 57.0676  6426.17  80.715
 57.1096  6405.97  80.3961
 57.1516  6403.76  80.4286
 57.1936  6449.5  80.4601
 57.2356  6219.73  79.3506
 57.2776  6369.37  80.27
 57.3196  6458.97  81.1642
 57.3616  6343.69  79.9501
 57.4036  6400.95  80.3755
 57.4456  6465.44  80.7414
 57.4876  6363.34  79.9631
 57.5296  6252.36  79.6
 57.5716  6310.13  79.9543
 57.6136  6227.14  79.2776
 57.6556  6257.06  79.5933
 57.6976  6315.15  79.794
 57.7396  6247.99  79.7142
 57.7816  6254.98  80.1309
 57.8236  6265.88  79.9764
 57.8656  6281.76  79.7589
 57.9076  6298.62  79.8679
 57.9496  6245.2  79.8988
 57.9916  6259.14  79.5016
 58.0336  6169.75  79.2132
 58.0756  6288.67  79.6048
 58.1176  6250.24  79.3546
 58.1596  6165.24  79.4021
 58.2016  6030.6  77.7523
 58.2436  6073.19  78.438
 58.2856  5998.87  77.8794
 58.3276  5991.37  78.1848
 58.3696  5982.91  77.8949
 58.4116  5984.38  77.7721
 58.4536  6093.03  78.3496
 58.4956  6000.73  77.9425
 58.5376  6017.46  77.6256
 58.5796  6026.74  78.1092
 58.6216  6086.3  78.3078
 58.6636  6000.82  77.9668
 58.7056  6160.36  78.8543
 58.7476  5975.2  78.1023
 58.7896  5904.37  77.2841
 58.8316  5977.18  77.7545
 58.8736  6072.59  78.3866
 58.9156  6071.68  78.4219
 58.9576  6044.28  78.5702
 58.9996  6107.19  78.2202
 59.0416  6075.55  78.3788
 59.0836  6055.39  78.1612
 59.1256  5992.91  78.4579
 59.1676  6027.86  79.0024
 59.2096  6135.67  79.0116
 59.2516  6150.12  78.6818
 59.2936  6041.54  78.3123
 59.3356  6036.74  78.1589
 59.3776  6070.75  78.5482
 59.4196  5910.85  77.4428
 59.4616  5936.31  77.4712
 59.5036  5853.89  76.9656
 59.5456  6057.43  77.9859
 59.5876  5875.16  76.9921
 59.6296  5921.15  77.3614
 59.6716  5843.22  76.9076
 59.7136  6043.62  78.2036
 59.7556  6002.88  78.0756
 59.7976  6011.88  77.8768
 59.8396  5952.65  77.3873
 59.8816  5941.21  77.8543
 59.9236  5951.57  77.568
 59.9656  5925.75  77.6577
 60.0076  6090.12  78.082
 60.0496  5986.07  77.9139
 60.0916  5990.24  77.3614
 60.1336  5921.31  78.0116
 60.1756  5879.45  78.9039
 60.1996  0.0000000E+00  0.0000000E+00