File: docs/examples/XRD/IS17_D/Data/IS17_D/17_Db_f00076.xye
# /beamlines/bl04/projects/cycle2025-II/20250340211-lsimonelli/DATA/IS17_D/17_Db_f00076.xye : mythproc.py merge -s 0.006 -l 0.5 -f /beamlines/bl04/inhouse/ff/FlatField/ff_20Nov2024rod8mm60s_17keV.raw -b True -c true -o xye /beamlines/bl04/projects/cycle2025-II/20250340211-lsimonelli/DATA/IS17_D/17_Db_00076.dat
# IsMon = [6748895, 6753716, 6754094]  IsPos = [-1.4999, -2.4884, -3.4988]
# Wave = 0.4962  CalPath /beamlines/bl04/projects/cycle2025-II/20250340211-lsimonelli/DATA/Align/Si_Pos1_25keV_f00001.cal
# Date = 2025-09-24_14:53:05 Dt = 4.8000  Bin = 0.0060  <imon> = 6752235 +/- 2367 (Min/Max) 6748895 / 6754094
# icurr 249.5418  mocoIn 1.7015E-05  mocoOut 0.7986  i15 7.07777e+06  imon 6.75224e+06  i7 3.0000  iEMpd_timer 4.8000  iEMpd_1 3.4302E-08  iEMpd_2 7.8343E-08  iEMpd_3 1.5885E-08  iEMpd_4 4.6316E-08  iEMhp_timer 4.8000  iEMhp_1 4.8734E-06  iEMhp_2 -2.5932E-08  iEMhp_3 -2.5266E-08  iEMhp_4 -2.1468E-08
#      9776
 1.5856  42669.9  212.164
 1.6276  49011.7  223.482
 1.6696  54477.6  234.784
 1.7116  61703.9  250.36
 1.7536  69797.3  265.139
 1.7956  73631.2  273.004
 1.8376  71170.2  268.828
 1.8796  60698.2  246.437
 1.9216  49700.2  223.885
 1.9636  42905.1  207.164
 2.0056  39040.2  196.848
 2.0476  36551.2  192.558
 2.0896  34928  187.13
 2.1316  34046.4  183.865
 2.1736  32166.1  180.134
 2.2156  33063.8  181.164
 2.2576  32009.3  178.89
 2.2996  30986.1  176.655
 2.3416  31090.7  175.539
 2.3836  30523  174.037
 2.4256  29496.2  171.642
 2.4676  29167  170.44
 2.5096  29558.7  171.637
 2.5516  36844.7  196.059
 2.5936  179188  422.859
 2.6356  31045.6  177.041
 2.6776  27763.4  166.32
 2.7196  26689  163.549
 2.7616  26565.6  162.967
 2.8036  25950.6  161.222
 2.8456  25978.4  161.95
 2.8876  25217.6  159.413
 2.9296  25015.5  158.902
 2.9716  24711.4  157.442
 3.0136  24409.3  156.54
 3.0556  24674.4  157.77
 3.0976  24478  156.071
 3.1396  24158.8  155.764
 3.1816  23827.6  154.63
 3.2236  23742.5  154.344
 3.2656  23725.7  153.345
 3.3076  23588.8  154.366
 3.3496  23696.7  153.636
 3.3916  23928.8  154.23
 3.4336  24413.1  156.359
 3.4756  24630.6  157.003
 3.5176  25416.5  159.251
 3.5596  25077.3  160.593
 3.6016  25296  158.934
 3.6436  24463.4  157.377
 3.6856  23933.5  154.009
 3.7276  23204.3  152.693
 3.7696  22931.5  151.982
 3.8116  22490.2  150.417
 3.8536  22761.3  151.253
 3.8956  22809  151.228
 3.9376  23468.1  153.67
 3.9796  22719.2  150.694
 4.0216  22589.2  149.308
 4.0636  22511.7  150.504
 4.1056  22453.5  149.958
 4.1476  22889.2  151.734
 4.1896  22904.9  151.634
 4.2316  22991.3  151.756
 4.2736  23414.1  152.943
 4.3156  23778.8  154.353
 4.3576  24390  156.229
 4.3996  24604.6  157.184
 4.4416  25456.5  159.469
 4.4836  26948.2  164.24
 4.5256  26351.1  163.028
 4.5676  26021  162.245
 4.6096  26448.5  162.254
 4.6516  27124.7  164.003
 4.6936  26995.6  164.429
 4.7356  28467  168.679
 4.7776  27166.1  164.603
 4.8196  26878.9  164.384
 4.8616  26178.6  161.717
 4.9036  26325.7  161.92
 4.9456  26488.3  163.064
 4.9876  25792.8  160.803
 5.0296  25784.2  160.621
 5.0716  25451.5  160.313
 5.1136  25602.9  160.519
 5.1556  25958.8  161.092
 5.1976  36169.5  190.142
 5.2396  26628.9  162.856
 5.2816  26653.4  163.404
 5.3236  26410.7  162.342
 5.3656  25851.1  161.538
 5.4076  25461.5  160.451
 5.4496  25545.9  160.218
 5.4916  25879.8  161.021
 5.5336  25932.1  161.189
 5.5756  25920  161.178
 5.6176  25727.1  160.024
 5.6596  26273.3  162.693
 5.7016  26223.1  161.802
 5.7436  26485.7  162.887
 5.7856  26134.5  161.869
 5.8276  26239.6  161.906
 5.8696  26842.1  163.931
 5.9116  26492.6  163.455
 5.9536  26922.6  164.524
 5.9956  27338.7  165.183
 6.0376  27246.4  165.516
 6.0796  27344.7  165.638
 6.1216  27137.1  165.207
 6.1636  27574.7  165.607
 6.2056  27741.9  166.764
 6.2476  27843.2  166.955
 6.2896  27994.3  167.092
 6.3316  28069.2  167.487
 6.3736  27750.2  166.43
 6.4156  28303.7  167.975
 6.4576  28452.8  168.033
 6.4996  28141.7  167.572
 6.5416  28289.8  168.147
 6.5836  28843.5  170.012
 6.6256  28466.8  168.466
 6.6676  28961.1  169.504
 6.7096  29053.4  170.634
 6.7516  29194.3  170.7
 6.7936  30553.4  174.024
 6.8356  31300.3  176.236
 6.8776  30272  174.108
 6.9196  29809.8  173.179
 6.9616  30374.7  174.249
 7.0036  30703.1  174.856
 7.0456  30906.1  174.743
 7.0876  30649  175.674
 7.1296  30680.2  174.91
 7.1716  30526.8  174.023
 7.2136  30463.4  173.615
 7.2556  30748  174.586
 7.2976  30518.5  174.419
 7.3396  30260.3  173.891
 7.3816  30759.8  175.543
 7.4236  30913.2  175.281
 7.4656  31127.7  175.362
 7.5076  31323.4  176.045
 7.5496  30932.3  175.477
 7.5916  31203.2  176.292
 7.6336  32150.7  178.833
 7.6756  31689.2  177.399
 7.7176  32215.2  179.189
 7.7596  32238.1  180.462
 7.8016  38938  200.756
 7.8436  32577.5  180.291
 7.8856  32558.2  179.854
 7.9276  33227.2  182.084
 7.9696  33338.8  182.695
 8.0116  34337.9  183.978
 8.0536  35123.8  186.321
 8.0956  37289.3  193.184
 8.1376  34904.4  186.385
 8.1796  35205.6  187.71
 8.2216  36233.8  189.184
 8.2636  37897.1  193.738
 8.3056  36255.2  190.255
 8.3476  39430.9  197.721
 8.3896  37377.3  192.586
 8.4316  36409.7  190.24
 8.4736  36319.2  189.481
 8.5156  36319.4  189.756
 8.5576  36196.6  190.386
 8.5996  36039.2  188.87
 8.6416  35919.4  189.797
 8.6836  35787.6  189.283
 8.7256  36527.4  190.683
 8.7676  39693.9  201.821
 8.8096  40941.2  202.133
 8.8516  36941.2  191.579
 8.8936  38936.2  196.639
 8.9356  36562.5  190.889
 8.9776  36495.4  190.781
 9.0196  36245.4  189.816
 9.0616  36488.5  189.941
 9.1036  39974.4  200.038
 9.1456  35643.8  188.215
 9.1876  35554.3  187.923
 9.2296  35118.2  186.209
 9.2716  34644.4  185
 9.3136  34696.8  185.133
 9.3556  35187  186.416
 9.3976  33976.7  183.703
 9.4396  33983.9  183.614
 9.4816  34110.7  183.828
 9.5236  33675.3  182.52
 9.5656  33466.7  182.324
 9.6076  32735.8  180.83
 9.6496  32836  180.991
 9.6916  32506.5  180.024
 9.7336  33404  182.311
 9.7756  32528.2  181.127
 9.8176  32369.3  180.218
 9.8596  32504.2  179.047
 9.9016  32324.9  178.541
 9.9436  32054  177.703
 9.9856  32506.7  179.234
 10.0276  31038.6  176.2
 10.0696  31486.6  176.51
 10.1116  30906.7  175.129
 10.1536  30584.2  174.375
 10.1956  30064  172.511
 10.2376  29944.2  171.682
 10.2796  29832.7  171.473
 10.3216  29483.2  170.74
 10.3636  29745.5  171.527
 10.4056  33097.8  181.353
 10.4476  33478.2  181.985
 10.4896  39233.8  196.379
 10.5316  33423.9  182.033
 10.5736  29586.8  171.679
 10.6156  29211.6  170.35
 10.6576  36334.8  188.365
 10.6996  29233.6  169.668
 10.7416  28062.9  166.451
 10.7836  29332.4  170.844
 10.8256  27181.4  164.891
 10.8676  26922.4  163.643
 10.9096  27205.6  164.552
 10.9516  26660.9  161.836
 10.9936  27714.3  165.217
 11.0356  27108  164
 11.0776  28974.1  168.865
 11.1196  28488.4  168.239
 11.1616  26114.4  160.747
 11.2036  27551.9  164.957
 11.2456  29819.4  172.369
 11.2876  26084.3  160.947
 11.3296  26036  160.696
 11.3716  26638.3  162.243
 11.4136  26026.5  161.243
 11.4556  26066.1  161.027
 11.4976  27878.9  165.498
 11.5396  27449.6  164.379
 11.5816  25815  159.863
 11.6236  25138.2  157.974
 11.6656  25489.7  158.247
 11.7076  24589.9  156.237
 11.7496  25167.5  162.066
 11.7916  25465  158.234
 11.8336  24054.6  154.668
 11.8756  24878.5  156.853
 11.9176  24345.3  154.83
 11.9596  24386.8  155.146
 12.0016  23655.7  153.557
 12.0436  23929.7  153.901
 12.0856  23564.1  153.211
 12.1276  23698.7  153.594
 12.1696  23632.7  152.508
 12.2116  23951.3  153.525
 12.2536  27013.1  163.918
 12.2956  24088.8  154.121
 12.3376  24200.8  154.704
 12.3796  23743.1  153.71
 12.4216  23723.2  152.845
 12.4636  25790.9  160.339
 12.5056  23400.1  151.992
 12.5476  23466  151.732
 12.5896  23185.9  151.45
 12.6316  23346.2  152.143
 12.6736  23189.2  152.104
 12.7156  23946.5  154.411
 12.7576  23291  152.52
 12.7996  23460.2  151.734
 12.8416  23741.4  153.691
 12.8836  24878.1  157.152
 12.9256  24011.5  153.431
 12.9676  23848.3  153.297
 13.0096  23736  154.057
 13.0516  23807.5  153.32
 13.0936  23923.3  154.11
 13.1356  24045.7  153.464
 13.1776  24237.3  155.09
 13.2196  23796  153.315
 13.2616  23342  152.151
 13.3036  23715.1  153.335
 13.3456  23556.7  153.157
 13.3876  24431.1  155.269
 13.4296  23812.5  153.443
 13.4716  24091.2  153.962
 13.5136  24083  154.077
 13.5556  24120.3  154.81
 13.5976  23915.5  154.326
 13.6396  24354.5  155.084
 13.6816  24099.9  154.742
 13.7236  24669  156.153
 13.7656  26309.7  161.711
 13.8076  28105.3  165.793
 13.8496  26701.3  162.266
 13.8916  24503.1  156.544
 13.9336  23559.7  152.792
 13.9756  23693.5  152.6
 14.0176  23307.6  152.026
 14.0596  24854.4  156.906
 14.1016  23269.2  152.26
 14.1436  23150.4  151.009
 14.1856  22838.5  150.277
 14.2276  23126.5  151.716
 14.2696  23358.5  152.307
 14.3116  22257  148.581
 14.3536  21787  147.177
 14.3956  21835.4  147.057
 14.4376  22200.2  148.08
 14.4796  22025  147.493
 14.5216  21421.5  146.236
 14.5636  22623.1  149.842
 14.6056  21703.9  146.333
 14.6476  21500.7  144.895
 14.6896  21125.9  144.165
 14.7316  20748.3  143.887
 14.7736  20612.7  142.567
 14.8156  20455.6  142.053
 14.8576  20651  142.584
 14.8996  20516.4  143.314
 14.9416  19783.6  140.738
 14.9836  19895.7  141.121
 15.0256  19307.7  137.939
 15.0676  19225.3  137.949
 15.1096  18997.9  136.877
 15.1516  18662.1  136.204
 15.1936  18485.2  135
 15.2356  18789.4  136.382
 15.2776  18599  135.285
 15.3196  18329.8  135.28
 15.3616  18045.8  133.989
 15.4036  18224.9  134.513
 15.4456  18537.5  135.319
 15.4876  17890.3  132.626
 15.5296  17891  132.908
 15.5716  17446.2  130.859
 15.6136  17440.4  131.159
 15.6556  20439.5  141.183
 15.6976  18077.3  133.071
 15.7396  17685  132
 15.7816  17873.2  132.217
 15.8236  16957.7  129.458
 15.8656  17087.7  129.755
 15.9076  16924  128.957
 15.9496  18490.4  137.683
 15.9916  17190.8  133.155
 16.0336  17353.9  130.68
 16.0756  17464  131.417
 16.1176  16948.8  129.539
 16.1596  16624.7  129.456
 16.2016  16569.7  128.014
 16.2436  16731.8  129.021
 16.2856  16642  128.196
 16.3276  16041.8  126.297
 16.3696  16277.5  127.044
 16.4116  16074.2  126.683
 16.4536  16373.1  127.664
 16.4956  17276.4  130.872
 16.5376  16333.2  127.437
 16.5796  16295.3  126.657
 16.6216  16265.2  126.806
 16.6636  16247.5  126.918
 16.7056  16199.7  126.599
 16.7476  16108.3  125.778
 16.7896  15987  126.032
 16.8316  16082.4  126.393
 16.8736  16600  128.668
 16.9156  16404.4  128.225
 16.9576  15765.5  126.489
 16.9996  16117.9  128.363
 17.0416  15890.9  125.856
 17.0836  15768.9  125.141
 17.1256  15513.5  124.134
 17.1676  16378.2  127.51
 17.2096  16076.9  126.224
 17.2516  15838.6  125.079
 17.2936  15330.2  123.396
 17.3356  15265.1  123.127
 17.3776  15054.3  122.454
 17.4196  15162.6  122.588
 17.4616  15337.7  123.209
 17.5036  16054.3  126.416
 17.5456  14869.7  122.284
 17.5876  14868.7  121.357
 17.6296  14892.3  121.283
 17.6716  15325.6  123.617
 17.7136  16402  128.025
 17.7556  14786.3  121.837
 17.7976  15145.3  123.044
 17.8396  15070.7  122.246
 17.8816  14471.9  120.34
 17.9236  14500.7  120.243
 17.9656  14646  121.372
 18.0076  15470.1  124.326
 18.0496  15944.8  125.325
 18.0916  22602.5  149.795
 18.1336  18443.8  135.507
 18.1756  15561.6  123.996
 18.2176  16420.1  127.604
 18.2596  14578  119.958
 18.3016  15474.4  123.865
 18.3436  15870.5  125.436
 18.3856  15170.6  122.775
 18.4276  14505.4  119.744
 18.4696  14891.1  121.408
 18.5116  14765.9  121.166
 18.5536  14339.6  119.77
 18.5956  14388.3  119.536
 18.6376  14711.3  121.278
 18.6796  14345.8  119.083
 18.7216  14559.4  120.451
 18.7636  14343.9  119.575
 18.8056  13778.4  117.107
 18.8476  13585.1  116.897
 18.8896  13731.8  116.869
 18.9316  14069.8  118.285
 18.9736  13811.6  116.902
 19.0156  14384.5  119.718
 19.0576  14568.8  119.32
 19.0996  14069.9  117.964
 19.1416  14202.2  118.926
 19.1836  13668.8  116.277
 19.2256  13484.9  115.708
 19.2676  13576  116.182
 19.3096  13516.7  116.164
 19.3516  13704.7  116.938
 19.3936  13924.3  117.762
 19.4356  13993.2  117.942
 19.4776  13692.4  116.751
 19.5196  13512.9  115.834
 19.5616  13809.5  117.357
 19.6036  13603.7  115.981
 19.6456  13737.6  116.669
 19.6876  14377.1  118.975
 19.7296  13812.6  117.095
 19.7716  13526.9  116.038
 19.8136  14062.8  118.522
 19.8556  14336  119.14
 19.8976  14541.7  120.042
 19.9396  14291.8  118.598
 19.9816  14418.1  119.368
 20.0236  14991.1  121.915
 20.0656  13710.5  116.591
 20.1076  13593.7  116.574
 20.1496  13360.6  115.552
 20.1916  13717.2  116.615
 20.2336  13527.7  115.727
 20.2756  13261.9  115.011
 20.3176  13005.5  113.649
 20.3596  13073.6  113.929
 20.4016  13333.5  114.85
 20.4436  13132.1  114.536
 20.4856  13097.7  114.196
 20.5276  13066.5  114.508
 20.5696  12950.5  113.461
 20.6116  13026.9  114.06
 20.6536  12894.1  113.008
 20.6956  12861.8  112.989
 20.7376  12857.1  113.172
 20.7796  12752.5  112.415
 20.8216  13090.2  113.609
 20.8636  13436.2  115.485
 20.9056  14391.8  119.455
 20.9476  13249.4  114.46
 20.9896  14361.7  119.023
 21.0316  12983.9  113.064
 21.0736  13264.2  114.806
 21.1156  13638.7  116.57
 21.1576  13132  114.434
 21.1996  12952.7  113.637
 21.2416  12758.4  112.608
 21.2836  13091.8  114.036
 21.3256  12919.7  113.371
 21.3676  12877  112.718
 21.4096  13354.8  115.118
 21.4516  12736.8  112.285
 21.4936  12532.9  111.654
 21.5356  12735.3  112.491
 21.5776  12704.6  112.196
 21.6196  12870.2  112.962
 21.6616  12909.1  113.218
 21.7036  12665  111.911
 21.7456  12468.6  111.116
 21.7876  12426  110.695
 21.8296  12310.6  110.031
 21.8716  12486  111.033
 21.9136  12675.7  112.076
 21.9556  12946.6  112.942
 21.9976  12712  111.94
 22.0396  12469.7  111.122
 22.0816  12407.1  111.351
 22.1236  12867.3  112.872
 22.1656  12651.9  112.058
 22.2076  12376.2  110.274
 22.2496  12152.6  109.31
 22.2916  12239.3  109.589
 22.3336  12345.3  110.775
 22.3756  12278.9  110.202
 22.4176  12042  108.985
 22.4596  11948.5  109.142
 22.5016  12149.1  109.565
 22.5436  12229.6  109.803
 22.5856  12477.2  111.152
 22.6276  12304.9  110.509
 22.6696  11987.1  109.426
 22.7116  12090.8  109.419
 22.7536  12108.1  109.475
 22.7956  12274.8  109.564
 22.8376  11988.5  108.789
 22.8796  12206.3  109.577
 22.9216  12042.9  109.378
 22.9636  12022.5  108.455
 23.0056  12060.5  108.76
 23.0476  12247.4  110.161
 23.0896  12423.1  110.331
 23.1316  12423.3  110.766
 23.1736  12345.5  113.347
 23.2156  12271.2  110.422
 23.2576  12576  111.929
 23.2996  12172.7  109.885
 23.3416  12487.5  111.837
 23.3836  12332  110.364
 23.4256  12518  111.328
 23.4676  12586.3  111.317
 23.5096  12453.2  111.38
 23.5516  12351.7  110.223
 23.5936  12565.2  112.091
 23.6356  12582.6  111.83
 23.6776  12281.1  110.692
 23.7196  12152.6  109.686
 23.7616  12481.9  111.084
 23.8036  12596.6  111.66
 23.8456  12060.9  108.807
 23.8876  12181.6  109.714
 23.9296  12116.1  109.896
 23.9716  12244.9  109.689
 24.0136  12251.8  110.618
 24.0556  12053.5  109.437
 24.0976  11932.9  108.708
 24.1396  11857.4  110.935
 24.1816  12111.5  110.556
 24.2236  11949.5  109.436
 24.2656  12195.9  110.032
 24.3076  12120  109.963
 24.3496  12213.8  110.258
 24.3916  12173.1  110.135
 24.4336  12040.9  109.728
 24.4756  12095.4  109.868
 24.5176  11715.1  107.755
 24.5596  11734.2  107.962
 24.6016  11724.2  108.219
 24.6436  12006.6  109.023
 24.6856  11783.8  107.731
 24.7276  11704.8  107.702
 24.7696  11757  108.051
 24.8116  11596.4  107.483
 24.8536  11703.9  107.994
 24.8956  11400  106.308
 24.9376  11531.7  106.865
 24.9796  11542  107.274
 25.0216  11522.3  107.299
 25.0636  11630.2  107.442
 25.1056  11260.2  106.412
 25.1476  11099.8  107.269
 25.1896  11066  105.634
 25.2316  11360.2  106.298
 25.2736  11277.8  105.554
 25.3156  11076  104.691
 25.3576  10958.4  104.558
 25.3996  11039.1  104.933
 25.4416  11131.1  105.34
 25.4836  10919.4  104.853
 25.5256  10950.7  104.367
 25.5676  11244.3  105.478
 25.6096  10831.5  104.101
 25.6516  11008.6  104.451
 25.6936  10999  104.729
 25.7356  10887.9  104.327
 25.7776  11066  104.778
 25.8196  10873.1  104.098
 25.8616  10777.6  103.566
 25.9036  11255.4  105.286
 25.9456  10826.5  103.854
 25.9876  10709  103.354
 26.0296  10897.2  103.777
 26.0716  10853  103.995
 26.1136  11189.7  105.521
 26.1556  11210.6  104.993
 26.1976  10719.5  103.596
 26.2396  10842.6  103.338
 26.2816  10848.7  103.985
 26.3236  10924.3  104.495
 26.3656  10888.7  104.054
 26.4076  10690.5  103.306
 26.4496  10939.2  104.092
 26.4916  10958.4  104.065
 26.5336  11491.8  106.926
 26.5756  11590.1  107.263
 26.6176  11177.7  105.351
 26.6596  10796.2  103.855
 26.7016  10555  102.448
 26.7436  10686.9  103.221
 26.7856  10410.9  101.864
 26.8276  10434.1  101.941
 26.8696  10475.2  102.007
 26.9116  10546.4  102.298
 26.9536  10343.5  101.356
 26.9956  10276.8  101.061
 27.0376  10267.5  101.246
 27.0796  10443  101.824
 27.1216  10654.8  102.92
 27.1636  10276.6  101.236
 27.2056  10495  102.194
 27.2476  10363.8  101.546
 27.2896  10142.4  100.57
 27.3316  10211.4  100.63
 27.3736  10135.1  100.52
 27.4156  10319  101.274
 27.4576  10397.2  101.857
 27.4996  10485.6  101.919
 27.5416  10306.8  101.347
 27.5836  10220.5  100.755
 27.6256  10303.5  101.342
 27.6676  10127.4  100.463
 27.7096  10297.3  101.19
 27.7516  10940.5  104.449
 27.7936  11093.5  105.337
 27.8356  10792.6  103.494
 27.8776  10544.7  102.366
 27.9196  10417.3  101.601
 27.9616  10440.6  101.917
 28.0036  10268.3  101.018
 28.0456  9973.4  99.7017
 28.0876  9993.88  99.8903
 28.1296  10040.6  99.9596
 28.1716  10145.3  100.506
 28.2136  10039  99.9419
 28.2556  9866.93  99.2034
 28.2976  10048.2  100.096
 28.3396  10040.6  99.8139
 28.3816  9929.93  99.2659
 28.4236  10107.7  100.31
 28.4656  9856.29  99.1015
 28.5076  9662.76  97.7693
 28.5496  9811.04  98.7703
 28.5916  9816.23  98.6072
 28.6336  9754.02  98.6367
 28.6756  9917.7  98.6519
 28.7176  9801.11  98.6226
 28.7596  9691.89  97.972
 28.8016  9667.57  97.8794
 28.8436  9659.37  98.0776
 28.8856  9673.6  98.0052
 28.9276  9794.61  98.8576
 28.9696  9695.51  98.0222
 29.0116  9472.1  97.0656
 29.0536  9462.49  97.2197
 29.0956  9821.77  98.747
 29.1376  9652.62  97.8573
 29.1796  9639.39  97.8462
 29.2216  9523.68  97.0968
 29.2636  9558.56  97.3518
 29.3056  9525.35  96.9633
 29.3476  9560.32  97.6695
 29.3896  9605.21  98.0085
 29.4316  9529.88  96.9515
 29.4736  9315.09  95.9139
 29.5156  9338.89  95.9605
 29.5576  9380.98  96.901
 29.5996  9303.24  95.7756
 29.6416  9211.11  95.4165
 29.6836  9390.15  96.2674
 29.7256  9235.32  96.0248
 29.7676  9306.02  96.0561
 29.8096  9401.28  96.4912
 29.8516  9076.87  95.1357
 29.8936  9238.71  96.0725
 29.9356  9303.1  96.1625
 29.9776  9336.71  96.4807
 30.0196  9330.46  95.8562
 30.0616  9457.32  96.8755
 30.1036  9180.42  95.2753
 30.1456  9072.72  94.941
 30.1876  9134.19  95.2436
 30.2296  9032.2  94.6583
 30.2716  9266.73  95.5216
 30.3136  9287.5  96.4774
 30.3556  9480.04  97.4848
 30.3976  9490.52  99.0492
 30.4396  9699.31  97.467
 30.4816  9490.49  96.0153
 30.5236  9666.54  96.8941
 30.5656  9339.55  95.8804
 30.6076  9485.43  96.0582
 30.6496  9421.84  96.1202
 30.6916  9208.12  95.1366
 30.7336  9465.17  96.591
 30.7756  9571.82  97.2197
 30.8176  9376.75  96.1499
 30.8596  9332.61  95.6749
 30.9016  9295.81  95.8513
 30.9436  9432.36  96.2929
 30.9856  9503.69  96.7812
 31.0276  9181.58  94.7582
 31.0696  9199.74  95.4004
 31.1116  9370.65  96.2621
 31.1536  9310.76  95.8318
 31.1956  9348.91  96.0978
 31.2376  9061.14  94.635
 31.2796  9292.74  95.3886
 31.3216  9205.61  94.8553
 31.3636  9177.12  95.4096
 31.4056  9277.86  97.2558
 31.4476  9266.75  95.0987
 31.4896  9398.28  96.2696
 31.5316  9410.61  95.7304
 31.5736  10148.6  99.2455
 31.6156  9867.1  97.8673
 31.6576  9549.64  96.3408
 31.6996  9450.9  95.5204
 31.7416  9438.81  96.5597
 31.7836  9503  95.8731
 31.8256  9273.27  94.9814
 31.8676  9514.16  96.1933
 31.9096  9121.37  94.5593
 31.9516  9033  94.267
 31.9936  9010.69  93.9638
 32.0356  9249.08  95.2617
 32.0776  9282.92  95.3251
 32.1196  9220.01  95.1077
 32.1616  9203.51  94.4728
 32.2036  9169.83  94.8142
 32.2456  9032.92  94.4775
 32.2876  9186.57  94.775
 32.3296  9154.6  94.5749
 32.3716  8981.66  93.7808
 32.4136  8810.07  93.0826
 32.4556  9098.84  93.9765
 32.4976  9100.14  93.8933
 32.5396  8924.21  93.0488
 32.5816  8864.3  92.8662
 32.6236  8912.82  93.1813
 32.6656  8987.53  94.1079
 32.7076  8790.22  92.7303
 32.7496  8862.69  92.7806
 32.7916  8914.69  93.0166
 32.8336  8741.31  92.1945
 32.8756  8898.32  92.7538
 32.9176  8831.75  92.8815
 32.9596  8822.59  92.908
 33.0016  9004.39  93.6325
 33.0436  8815.87  92.812
 33.0856  8732.77  92.4665
 33.1276  8705.55  92.052
 33.1696  8872.61  92.771
 33.2116  8883.03  93.0585
 33.2536  8915.84  93.225
 33.2956  8881.9  93.1245
 33.3376  8810.26  92.4915
 33.3796  8864.16  92.997
 33.4216  8670.52  91.5645
 33.4636  8710.56  91.9302
 33.5056  8633.96  91.7681
 33.5476  8727.54  92.2479
 33.5896  8678.24  91.7762
 33.6316  8657.26  91.9749
 33.6736  8519.39  91.484
 33.7156  8625.34  92.0797
 33.7576  8737.96  92.3219
 33.7996  8680.84  91.7822
 33.8416  8476.43  90.881
 33.8836  8615.34  91.3934
 33.9256  8760.26  92.2276
 33.9676  8691.12  91.7514
 34.0096  8645.44  91.8241
 34.0516  8450.94  90.4278
 34.0936  8602.08  91.5059
 34.1356  8571.97  91.0836
 34.1776  8452.58  90.4418
 34.2196  8488.03  90.8091
 34.2616  8416.83  90.5708
 34.3036  8607.85  91.8439
 34.3456  8436.88  90.6864
 34.3876  8582.58  91.4348
 34.4296  8546.97  90.9275
 34.4716  8531  91.0023
 34.5136  8478.23  90.8827
 34.5556  8395.57  90.7119
 34.5976  8581.2  91.5213
 34.6396  8455.41  90.5661
 34.6816  8627.4  91.5818
 34.7236  8539.82  90.9028
 34.7656  8501.7  90.91
 34.8076  8407.34  90.7304
 34.8496  8429.8  90.6944
 34.8916  8358.42  90.1749
 34.9336  8589.28  91.3928
 34.9756  8596.47  91.3565
 35.0176  8529.29  91.5259
 35.0596  8519.67  91.3021
 35.1016  8484.97  90.8713
 35.1436  8549.07  90.9046
 35.1856  8428.44  90.3588
 35.2276  8506.62  90.9711
 35.2696  8444.34  90.8093
 35.3116  8425.46  90.8226
 35.3536  8413.95  90.466
 35.3956  8360.96  89.9021
 35.4376  8482.51  91.1212
 35.4796  8577.14  91.6714
 35.5216  8370.69  90.5204
 35.5636  8130.55  89.9269
 35.6056  8324.3  90.0285
 35.6476  8418.84  90.4412
 35.6896  8486.43  90.898
 35.7316  8477.79  90.8261
 35.7736  8304.39  90.0828
 35.8156  8394.94  90.5785
 35.8576  8327.91  90.4557
 35.8996  8386.75  90.7433
 35.9416  8236.82  89.4351
 35.9836  8394.53  90.64
 36.0256  8458.18  90.9915
 36.0676  8432  90.5987
 36.1096  8395.29  90.5591
 36.1516  8498.02  90.9924
 36.1936  8388.32  90.2427
 36.2356  8328.74  90.5768
 36.2776  8270.74  89.7379
 36.3196  8347.22  89.8265
 36.3616  8231.66  89.3327
 36.4036  8268.94  89.5994
 36.4456  8281.96  89.8785
 36.4876  8233.31  89.5534
 36.5296  8234.87  89.6046
 36.5716  8268.6  90.564
 36.6136  8321.6  89.6186
 36.6556  8240.35  89.3798
 36.6976  8033.59  88.7445
 36.7396  8039.24  88.5107
 36.7816  8006.88  88.7018
 36.8236  8067.22  88.9485
 36.8656  7996.29  88.64
 36.9076  7941.73  88.2135
 36.9496  7881.89  87.8674
 36.9916  7969.72  87.9909
 37.0336  8133.27  89.2014
 37.0756  8150.16  89.0882
 37.1176  7872.69  87.8247
 37.1596  7883.95  87.8953
 37.2016  7830.37  87.8075
 37.2436  8054.09  88.3792
 37.2856  7956.05  88.0917
 37.3276  8049.08  87.9659
 37.3696  7896.11  87.997
 37.4116  7935.8  88.126
 37.4536  7887.11  87.7241
 37.4956  7865.08  87.6461
 37.5376  8038.79  90.1908
 37.5796  8023.77  90.0344
 37.6216  7979.27  88.075
 37.6636  8145.93  88.8769
 37.7056  8030.97  88.4369
 37.7476  8164.78  88.7159
 37.7896  7962.59  88.1074
 37.8316  7907.3  87.9642
 37.8736  7961.61  87.7903
 37.9156  7994.89  87.9712
 37.9576  7983.36  87.8191
 37.9996  7961.66  87.4123
 38.0416  7860.75  87.6573
 38.0836  8128.62  89.0373
 38.1256  8037.25  88.5106
 38.1676  7996.37  88.3964
 38.2096  8300.3  89.6787
 38.2516  8050.3  88.5307
 38.2936  8054  88.3587
 38.3356  7899.46  87.4248
 38.3776  7967.35  88.0541
 38.4196  7981.78  87.9817
 38.4616  8056.98  88.6493
 38.5036  8008.61  88.231
 38.5456  7843.15  88.1277
 38.5876  7909.76  88.5226
 38.6296  8015.46  88.099
 38.6716  7909.74  87.3101
 38.7136  7883.76  87.1154
 38.7556  7875.94  87.5753
 38.7976  7900.57  87.6253
 38.8396  7946.53  88.3549
 38.8816  7871.54  87.7309
 38.9236  7803.25  87.1466
 38.9656  7823.62  87.1632
 39.0076  7952.5  87.2923
 39.0496  8085.63  88.5832
 39.0916  7902.82  87.2183
 39.1336  7910.05  87.663
 39.1756  7910.42  87.721
 39.2176  7874.26  88.059
 39.2596  7947.18  88.3895
 39.3016  7932.47  87.8969
 39.3436  7857.03  87.8807
 39.3856  7959.45  87.8898
 39.4276  8005.43  88.6699
 39.4696  7829.61  87.3095
 39.5116  7887.48  88.145
 39.5536  7961.28  88.9691
 39.5956  7948.83  88.004
 39.6376  7804.79  87.2051
 39.6796  7887.43  87.405
 39.7216  7860.17  87.3546
 39.7636  7929.17  88.2956
 39.8056  7837.5  87.5817
 39.8476  7766.76  87.4368
 39.8896  7884.66  87.7304
 39.9316  7724.91  87.0824
 39.9736  7768.18  86.9007
 40.0156  7801.28  86.9179
 40.0576  7853.32  87.552
 40.0996  7970.87  87.3938
 40.1416  7819.92  87.3534
 40.1836  7894.61  87.6615
 40.2256  7851.7  87.4572
 40.2676  7817.42  87.3707
 40.3096  7970  88.144
 40.3516  7932.7  88.0411
 40.3936  7974.18  87.8318
 40.4356  7839.16  87.292
 40.4776  7820.45  87.5855
 40.5196  7958.34  88.4853
 40.5616  7959.01  88.1356
 40.6036  7892.02  88.0095
 40.6456  7815.46  87.1989
 40.6876  7914.31  87.7382
 40.7296  7809.19  87.279
 40.7716  7852.62  87.6465
 40.8136  7904.31  87.8759
 40.8556  8044.31  88.7985
 40.8976  7928.77  88.0722
 40.9396  7863.59  88.0582
 40.9816  7923.26  87.6803
 41.0236  7853.22  87.0778
 41.0656  7936.92  88.0785
 41.1076  7888.65  87.5815
 41.1496  7921.36  87.6711
 41.1916  7886.02  87.7853
 41.2336  7858.13  87.6402
 41.2756  7887.04  87.4037
 41.3176  7920.33  88.1973
 41.3596  7901.82  87.8274
 41.4016  7806.57  87.5537
 41.4436  7952.86  88.1546
 41.4856  7859.48  87.7948
 41.5276  7776.15  87.3497
 41.5696  7781.55  87.0147
 41.6116  7875.26  87.9362
 41.6536  7923.31  88.0574
 41.6956  7995.57  88.5205
 41.7376  7800.79  87.4575
 41.7796  7795.33  87.3087
 41.8216  7880.93  88.0206
 41.8636  7874.17  87.9242
 41.9056  7668.17  86.566
 41.9476  7891.88  88.0531
 41.9896  7939.77  87.9866
 42.0316  7957.52  88.1666
 42.0736  7979.13  88.3946
 42.1156  7820.99  87.3445
 42.1576  7897.81  87.8788
 42.1996  7853.51  87.7563
 42.2416  7865.6  87.4178
 42.2836  7860.5  87.5117
 42.3256  7870.52  87.6747
 42.3676  7964.23  87.998
 42.4096  7852.61  87.3522
 42.4516  7793.62  87.0958
 42.4936  7889.02  87.703
 42.5356  7760.1  87.1187
 42.5776  7876.34  87.7003
 42.6196  7857.29  87.654
 42.6616  7710.26  87.004
 42.7036  7861.68  87.2356
 42.7456  7827.45  87.3999
 42.7876  7763.44  87.1203
 42.8296  7762.45  86.9661
 42.8716  7725.68  86.9254
 42.9136  7703.4  86.5839
 42.9556  7748.52  86.9729
 42.9976  7805.09  87.2557
 43.0396  7650.84  86.1216
 43.0816  7696.4  86.7603
 43.1236  7661.67  86.6121
 43.1656  7689.9  86.6019
 43.2076  7703.7  86.7837
 43.2496  7727.84  86.744
 43.2916  7685.3  86.8619
 43.3336  7735.7  86.9786
 43.3756  7722.36  86.6583
 43.4176  7758.06  86.9415
 43.4596  7603.74  85.9318
 43.5016  7688.24  86.8123
 43.5436  7678.38  86.661
 43.5856  7686.31  86.7345
 43.6276  7678.24  86.5809
 43.6696  7603.64  86.4047
 43.7116  7708.07  86.5017
 43.7536  7745.73  87.2138
 43.7956  7552.99  87.3239
 43.8376  7529.75  85.71
 43.8796  7582.22  86.089
 43.9216  7521.75  85.6642
 43.9636  7561.71  86.0013
 44.0056  7485.6  85.7959
 44.0476  7550.42  85.7985
 44.0896  7379.23  85.1581
 44.1316  7518.29  85.4813
 44.1736  7500.28  85.5046
 44.2156  7617.13  86.0257
 44.2576  7542.16  85.9201
 44.2996  7475.48  85.5149
 44.3416  7467.03  85.2256
 44.3836  7272.19  84.4314
 44.4256  7390.45  84.7604
 44.4676  7394.85  84.9338
 44.5096  7373.11  84.9581
 44.5516  7254.46  84.2403
 44.5936  7311.32  84.5181
 44.6356  7461.65  85.1226
 44.6776  7488.71  85.5922
 44.7196  7482.69  85.8645
 44.7616  7437.02  86.9248
 44.8036  7437.73  85.3739
 44.8456  7625.14  86.6494
 44.8876  7437.05  85.4183
 44.9296  7729.55  86.5217
 44.9716  7558.41  85.9867
 45.0136  7511.53  85.6596
 45.0556  7632.03  86.3301
 45.0976  7457.47  85.4935
 45.1396  7439.59  85.1538
 45.1816  7437.74  85.0747
 45.2236  7579.53  85.7847
 45.2656  7478.31  85.7011
 45.3076  7602.33  86.1822
 45.3496  7549.99  86.1994
 45.3916  7514.07  86.2728
 45.4336  7500.62  86.0396
 45.4756  7353.86  85.0428
 45.5176  7609.51  86.1328
 45.5596  7634.87  86.398
 45.6016  7440.44  85.7043
 45.6436  7632.54  85.9665
 45.6856  7403.95  85.3242
 45.7276  7389  86.5522
 45.7696  7447.98  86.5747
 45.8116  7379.22  85.5995
 45.8536  7376.25  85.4875
 45.8956  7471.18  85.3909
 45.9376  7614.35  85.664
 45.9796  7504.08  85.7263
 46.0216  7542.51  86.2925
 46.0636  7519.63  85.2897
 46.1056  7404.16  84.6319
 46.1476  7487.94  85.697
 46.1896  7479.82  85.7981
 46.2316  7528.41  85.9473
 46.2736  7264.21  84.8009
 46.3156  7497.04  85.7263
 46.3576  7364.01  85.1632
 46.3996  7401.06  85.5361
 46.4416  7410.47  85.1721
 46.4836  7423.46  85.5946
 46.5256  7487.27  85.9061
 46.5676  7470.74  85.9314
 46.6096  7378.45  85.3328
 46.6516  7440.75  84.7296
 46.6936  7545.83  85.8255
 46.7356  7545.02  85.9276
 46.7776  7431.23  86.1198
 46.8196  7429.77  85.6999
 46.8616  7272.44  84.7325
 46.9036  7305.67  84.5812
 46.9456  7362.8  84.5522
 46.9876  7286.59  84.2047
 47.0296  7337.54  85.1871
 47.0716  7303.95  84.8156
 47.1136  7338.35  84.6932
 47.1556  7306.95  84.3811
 47.1976  7462.27  85.3517
 47.2396  7308.89  84.8709
 47.2816  7337.5  84.7305
 47.3236  7307.47  84.9283
 47.3656  7362.55  85.18
 47.4076  7360.36  84.9683
 47.4496  7310.99  84.7814
 47.4916  7320.6  85.0275
 47.5336  7381.18  85.1887
 47.5756  7359.27  85.1737
 47.6176  7143.06  83.8159
 47.6596  7261.48  84.2232
 47.7016  7463.89  85.1947
 47.7436  7319.89  84.7169
 47.7856  7375.79  85.0737
 47.8276  7324.28  84.8074
 47.8696  7308.05  84.8113
 47.9116  7362.57  84.8394
 47.9536  7406.49  85.0302
 47.9956  7295.28  85.1057
 48.0376  7202.25  84.3299
 48.0796  7407.09  85.6584
 48.1216  7335.98  85.0578
 48.1636  7396.56  84.9811
 48.2056  7391.14  85.2141
 48.2476  7510.16  86.2161
 48.2896  7292.6  84.8589
 48.3316  7372.15  85.2569
 48.3736  7348.34  85.153
 48.4156  7318.38  84.8286
 48.4576  7313.92  85.1011
 48.4996  7458.09  85.3775
 48.5416  7408.05  85.43
 48.5836  7408.78  85.1023
 48.6256  7473.05  85.6853
 48.6676  7334.65  85.406
 48.7096  7390.77  84.9862
 48.7516  7275.62  84.4728
 48.7936  7187.76  84.0195
 48.8356  7334.31  84.9263
 48.8776  7295.45  85.2708
 48.9196  7448.68  85.5301
 48.9616  7395.81  85.6091
 49.0036  7318.46  85.5236
 49.0456  7232.12  84.9932
 49.0876  7394.08  85.4665
 49.1296  7291.04  85.0262
 49.1716  7252.2  84.6694
 49.2136  7294.58  84.8492
 49.2556  7374.98  85.3335
 49.2976  7246.94  84.6743
 49.3396  7239.66  84.6757
 49.3816  7378.04  84.9089
 49.4236  7386.06  85.3932
 49.4656  7243.35  84.572
 49.5076  7191.18  84.0188
 49.5496  7266.18  84.5215
 49.5916  7344.85  84.8842
 49.6336  7176.56  84.1222
 49.6756  7233.02  84.6926
 49.7176  7327.5  85.1708
 49.7596  7216.49  84.2939
 49.8016  7327.25  84.8517
 49.8436  7149.97  84.1196
 49.8856  7256.73  84.7487
 49.9276  7219.76  84.6345
 49.9696  7233.05  84.6881
 50.0116  7291.51  85.1673
 50.0536  7248.94  84.8695
 50.0956  7201.13  84.6626
 50.1376  7233.45  84.5453
 50.1796  7150.59  84.3292
 50.2216  7148.32  84.3156
 50.2636  7081.65  83.5347
 50.3056  7157.76  84.1604
 50.3476  7127.38  83.9984
 50.3896  7153.03  84.1241
 50.4316  7175.24  84.086
 50.4736  7004.83  83.3039
 50.5156  7233.01  84.6356
 50.5576  7169.45  84.0124
 50.5996  7144.06  84.1598
 50.6416  7151.08  84.1224
 50.6836  7178.37  84.3505
 50.7256  7265.03  84.7865
 50.7676  7233.78  84.9214
 50.8096  7078.19  83.5306
 50.8516  7086.85  84.0015
 50.8936  6991.55  83.2126
 50.9356  7210.37  84.621
 50.9776  7168.68  84.5361
 51.0196  6883.16  82.9507
 51.0616  7040.73  83.2131
 51.1036  7100.22  83.9285
 51.1456  7130.41  84.011
 51.1876  7077.57  83.0303
 51.2296  6978.64  83.091
 51.2716  6994.84  82.8915
 51.3136  6984.51  83.2981
 51.3556  6925.16  82.5603
 51.3976  6938.78  82.7952
 51.4396  6754.58  81.9975
 51.4816  6937.32  82.9469
 51.5236  6972.95  83.2501
 51.5656  6881.3  82.2949
 51.6076  6995.25  83.0602
 51.6496  6934.73  82.8935
 51.6916  6944.72  83.3149
 51.7336  6834.76  82.7469
 51.7756  6910.29  82.8945
 51.8176  6824.61  82.4866
 51.8596  6883.64  82.8585
 51.9016  7039.23  83.3909
 51.9436  6847.59  83.7425
 51.9856  7022.27  85.2302
 52.0276  7016.29  83.6716
 52.0696  7174.38  84.6763
 52.1116  6931.57  83.3457
 52.1536  6966.38  83.447
 52.1956  6981.41  82.9869
 52.2376  7223.42  84.5935
 52.2796  6954.57  82.8181
 52.3216  6770.35  82.4038
 52.3636  7068.64  83.7533
 52.4056  6967.65  83.0187
 52.4476  6827.24  82.535
 52.4896  6821.79  82.5506
 52.5316  6950.52  83.3938
 52.5736  6788.26  82.1191
 52.6156  7035.94  84.0175
 52.6576  6962.57  82.9979
 52.6996  6708.73  82.4634
 52.7416  6794.75  82.8261
 52.7836  6908.42  83.4206
 52.8256  6977.67  83.0353
 52.8676  6755.14  82.2784
 52.9096  6949.63  83.5277
 52.9516  6858.26  83.3712
 52.9936  6882.32  83.8863
 53.0356  7021.45  83.7161
 53.0776  6867.94  83.0699
 53.1196  6874.57  83.235
 53.1616  6735.97  82.4386
 53.2036  6759.65  82.5474
 53.2456  6874.35  83.3508
 53.2876  6901.06  83.1909
 53.3296  6856.19  83.2608
 53.3716  6994.65  83.8431
 53.4136  6851.05  83.129
 53.4556  6845.92  83.1284
 53.4976  6846  82.964
 53.5396  6733.87  82.6755
 53.5816  6977.99  83.7943
 53.6236  6880.05  83.5616
 53.6656  6829.31  82.8532
 53.7076  6969.81  83.6551
 53.7496  6917.39  83.4802
 53.7916  6920.45  83.6135
 53.8336  6846.04  83.077
 53.8756  6788.24  83.2672
 53.9176  6824.39  82.8299
 53.9596  6612.6  82.2911
 54.0016  6627.88  81.7203
 54.0436  6455.87  80.8706
 54.0856  6683.99  81.7074
 54.1276  6595.64  81.3663
 54.1696  6608.44  81.6036
 54.2116  6749.38  82.2174
 54.2536  6634.86  81.3321
 54.2956  6583.48  81.0535
 54.3376  6597.14  81.6336
 54.3796  6568.75  81.3627
 54.4216  6545.47  81.2842
 54.4636  6529.74  81.1413
 54.5056  6611.02  81.4423
 54.5476  6555.69  81.441
 54.5896  6544.41  81.2125
 54.6316  6509.45  80.8353
 54.6736  6594.08  81.4392
 54.7156  6481.52  80.7745
 54.7576  6477.03  80.719
 54.7996  6583.24  81.5307
 54.8416  6506.61  81.1212
 54.8836  6549.08  81.4788
 54.9256  6511.61  81.0074
 54.9676  6462.07  80.538
 55.0096  6513.84  80.9174
 55.0516  6377.57  80.2894
 55.0936  6444.22  80.3746
 55.1356  6422.22  80.2761
 55.1776  6592.91  81.5946
 55.2196  6474.44  80.638
 55.2616  6594.27  81.6046
 55.3036  6360.39  80.3106
 55.3456  6262.84  79.837
 55.3876  6447.34  80.7366
 55.4296  6336.4  80.031
 55.4716  6327.94  80.0098
 55.5136  6433.91  80.4321
 55.5556  6679.04  82.005
 55.5976  6444.28  80.6405
 55.6396  6461.24  80.6928
 55.6816  6366.61  79.9585
 55.7236  6325.66  79.753
 55.7656  6444.97  80.225
 55.8076  6310.22  79.3902
 55.8496  6386.24  80.1827
 55.8916  6407.63  80.5159
 55.9336  6428.36  80.4822
 55.9756  6376.24  80.0409
 56.0176  6322.6  79.8499
 56.0596  6354.37  80.0429
 56.1016  6243.15  79.3524
 56.1436  6270.15  79.7795
 56.1856  6264.32  79.4891
 56.2276  6518.01  81.1485
 56.2696  6313.27  79.8196
 56.3116  6345.42  80.4171
 56.3536  6289.18  79.7232
 56.3956  6273.82  79.6013
 56.4376  6290.57  79.7549
 56.4796  6169.09  78.7989
 56.5216  6266.5  79.8012
 56.5636  6251.97  79.2751
 56.6056  6434.86  80.6662
 56.6476  6297.43  79.4036
 56.6896  6421.81  80.6698
 56.7316  6330.69  79.9889
 56.7736  6248.07  79.4555
 56.8156  6293.89  79.7839
 56.8576  6202.6  79.138
 56.8996  6256.86  79.3786
 56.9416  6225.78  79.5058
 56.9836  6360.03  79.8909
 57.0256  6214.48  79.2658
 57.0676  6257.27  79.6571
 57.1096  6256.99  79.4515
 57.1516  6170.53  78.9354
 57.1936  6187.84  78.82
 57.2356  6080.37  78.4466
 57.2776  6266.64  79.6229
 57.3196  6165.8  79.2949
 57.3616  6185.66  78.95
 57.4036  6103.36  78.4736
 57.4456  6273.09  79.5275
 57.4876  6289.74  79.5079
 57.5296  6174.01  79.1052
 57.5716  6190.84  79.2063
 57.6136  6041.78  78.0844
 57.6556  6173.2  79.0494
 57.6976  6106.2  78.4601
 57.7396  6071.09  78.5868
 57.7816  6067.85  78.9317
 57.8236  6147.41  79.2275
 57.8656  6133.19  78.8034
 57.9076  6143.92  78.901
 57.9496  6130.49  79.1754
 57.9916  6155.25  78.8432
 58.0336  6089.75  78.6936
 58.0756  6158.41  78.7787
 58.1176  6146.85  78.7023
 58.1596  6057.02  78.6993
 58.2016  5985.84  77.4557
 58.2436  5914.92  77.3975
 58.2856  5906.85  77.2704
 58.3276  5806.75  76.9708
 58.3696  5828.96  76.881
 58.4116  6025.7  78.032
 58.4536  5968.62  77.5477
 58.4956  5846.01  76.9246
 58.5376  5973.67  77.3327
 58.5796  5851.25  76.9516
 58.6216  5975.91  77.5857
 58.6636  5890.58  77.2385
 58.7056  5853.03  76.8542
 58.7476  5854.7  77.3014
 58.7896  5883.59  77.1428
 58.8316  5961.88  77.6461
 58.8736  5879.83  77.1231
 58.9156  5870.06  77.1026
 58.9576  5900.64  77.6215
 58.9996  5959.89  77.2642
 59.0416  5905.02  77.2663
 59.0836  5928.91  77.3313
 59.1256  5749.36  76.8444
 59.1676  5969.59  78.6137
 59.2096  5801.45  76.8163
 59.2516  6096.38  78.3238
 59.2936  5855.3  77.0826
 59.3356  5797.56  76.5818
 59.3776  5860.13  77.1604
 59.4196  5761.59  76.4464
 59.4616  5939.23  77.4771
 59.5036  5859.17  76.9878
 59.5456  5857.21  76.6731
 59.5876  6018.82  77.9144
 59.6296  5795.49  76.523
 59.6716  5837.27  76.8554
 59.7136  5916.09  77.3609
 59.7556  6013.63  78.1322
 59.7976  5769.99  76.281
 59.8396  5865.15  76.8033
 59.8816  5823.03  77.0628
 59.9236  6070.19  78.3238
 59.9656  5844.71  77.1115
 60.0076  5858.34  76.5687
 60.0496  5872.24  77.1554
 60.0916  6038.23  77.6574
 60.1336  5806.45  77.238
 60.1756  5786.81  78.2664
 60.1996  0.0000000E+00  0.0000000E+00