File: docs/examples/XRD/IS17_D/Data/IS17_D/17_Da_f00013.xye
# /beamlines/bl04/projects/cycle2025-II/20250340211-lsimonelli/DATA/IS17_D/17_Da_f00013.xye : mythproc.py merge -s 0.006 -l 0.5 -f /beamlines/bl04/inhouse/ff/FlatField/ff_20Nov2024rod8mm60s_17keV.raw -b True -c true -o xye /beamlines/bl04/projects/cycle2025-II/20250340211-lsimonelli/DATA/IS17_D/17_Da_00013.dat
# IsMon = [6752080, 6752860, 6751055]  IsPos = [-1.5000, -2.4885, -3.4986]
# Wave = 0.4962  CalPath /beamlines/bl04/projects/cycle2025-II/20250340211-lsimonelli/DATA/Align/Si_Pos1_25keV_f00001.cal
# Date = 2025-09-23_21:09:41 Dt = 4.8000  Bin = 0.0060  <imon> = 6751998 +/- 739 (Min/Max) 6751055 / 6752860
# icurr 250.2091  mocoIn 1.7066E-05  mocoOut 0.8005  i15 7.06964e+06  imon 6.752e+06  i7 4.6667  iEMpd_timer 4.8000  iEMpd_1 3.4456E-08  iEMpd_2 7.8268E-08  iEMpd_3 1.6763E-08  iEMpd_4 4.7728E-08  iEMhp_timer 4.8000  iEMhp_1 4.8888E-06  iEMhp_2 -2.4982E-08  iEMhp_3 -2.4157E-08  iEMhp_4 -2.1525E-08
#      9776
 1.5856  36847.9  197.109
 1.6276  44440.1  212.751
 1.6696  51075.3  227.277
 1.7116  59682.2  246.162
 1.7536  69409.3  264.334
 1.7956  74201.1  273.989
 1.8376  69921.2  266.391
 1.8796  58467.5  241.807
 1.9216  47189  218.101
 1.9636  38952.4  197.841
 2.0056  35061.1  186.5
 2.0476  32501.9  181.533
 2.0896  31161.1  176.707
 2.1316  30476.4  173.915
 2.1736  28502  169.521
 2.2156  29401.4  170.793
 2.2576  27955.5  167.136
 2.2996  26967  164.758
 2.3416  27757.3  165.822
 2.3836  27166.3  164.147
 2.4256  26193.8  161.708
 2.4676  26320.5  161.868
 2.5096  26798.1  163.384
 2.5516  38699.9  200.784
 2.5936  184971  430.316
 2.6356  32660  181.581
 2.6776  25643.1  159.799
 2.7196  24367.5  156.279
 2.7616  24008.3  154.909
 2.8036  23339.2  152.898
 2.8456  23660.4  154.538
 2.8876  22843.9  151.706
 2.9296  22496.3  150.689
 2.9716  22373.4  149.796
 3.0136  21921.6  148.339
 3.0556  22190.1  149.62
 3.0976  22031.6  148.073
 3.1396  22096  148.976
 3.1816  21618.5  147.291
 3.2236  21360.7  146.41
 3.2656  21514  146.02
 3.3076  21511.5  147.399
 3.3496  21635.2  147.043
 3.3916  21934.6  147.655
 3.4336  22400  149.767
 3.4756  22850.3  151.193
 3.5176  23761.2  153.984
 3.5596  23581.3  156.281
 3.6016  23821.2  154.235
 3.6436  22861.2  152.149
 3.6856  22595  149.629
 3.7276  21581.2  147.27
 3.7696  21305.7  146.322
 3.8116  21106.9  145.721
 3.8536  21105.3  145.648
 3.8956  21126.1  145.557
 3.9376  22136.2  149.279
 3.9796  21023.9  144.975
 4.0216  21035.4  144.093
 4.0636  21091.6  145.703
 4.1056  20964.3  144.913
 4.1476  21202.4  146.038
 4.1896  21372.6  146.487
 4.2316  21646.2  147.257
 4.2736  22056.5  148.44
 4.3156  22276.6  149.402
 4.3576  23166.1  152.287
 4.3996  23202  152.454
 4.4416  24092.9  155.149
 4.4836  25763.5  160.585
 4.5256  25180.2  159.357
 4.5676  24900.6  158.718
 4.6096  25096.1  158.389
 4.6516  25983  160.528
 4.6936  26035.8  161.485
 4.7356  27212.9  164.923
 4.7776  26379.1  162.211
 4.8196  25695.5  160.719
 4.8616  25122  158.549
 4.9036  25110.4  158.139
 4.9456  25284.9  159.317
 4.9876  24738.8  157.495
 5.0296  24552.9  156.716
 5.0716  24331.5  156.63
 5.1136  24548.1  157.18
 5.1556  25295.5  159.03
 5.1976  37086.6  192.545
 5.2396  26097.8  161.23
 5.2816  25281.5  159.131
 5.3236  25394.3  159.204
 5.3656  24825.9  158.299
 5.4076  24468.7  157.305
 5.4496  24708.7  157.576
 5.4916  24546.1  156.823
 5.5336  24792.2  157.618
 5.5756  24442.5  156.525
 5.6176  24824.7  157.203
 5.6596  24919.1  158.296
 5.7016  24984.5  157.94
 5.7436  25121.7  158.633
 5.7856  25043.4  158.449
 5.8276  25229.1  158.767
 5.8696  25362.4  159.241
 5.9116  25444.3  160.163
 5.9536  25635.8  160.547
 5.9956  25807.8  160.477
 6.0376  25932.9  161.476
 6.0796  26224.5  162.217
 6.1216  26286  162.608
 6.1636  26477.6  162.294
 6.2056  26609.1  163.342
 6.2476  26805.2  163.641
 6.2896  27163.1  164.6
 6.3316  26651.2  163.205
 6.3736  26957.8  164.042
 6.4156  26967.8  164.026
 6.4576  27526.4  165.278
 6.4996  27525.5  165.743
 6.5416  27488.5  165.762
 6.5836  28128.2  167.906
 6.6256  27738.1  166.313
 6.6676  28152.3  167.131
 6.7096  27869.5  167.109
 6.7516  28379.8  168.298
 6.7936  30090  172.477
 6.8356  30536.4  174.083
 6.8776  29763.3  172.655
 6.9196  29022.1  170.879
 6.9616  29456.7  171.588
 7.0036  29977  172.785
 7.0456  30237.8  172.846
 7.0876  29881.3  173.383
 7.1296  29649  171.957
 7.1716  29871.3  172.151
 7.2136  29522.3  170.93
 7.2556  29811.7  171.923
 7.2976  29972.8  172.871
 7.3396  29633.4  172.093
 7.3816  29995.7  173.354
 7.4236  30054.6  172.835
 7.4656  30516.8  173.657
 7.5076  30749.9  174.449
 7.5496  30449.3  174.122
 7.5916  30398.5  174.006
 7.6336  31285  176.42
 7.6756  30888.9  175.154
 7.7176  31026.8  175.842
 7.7596  31199  177.545
 7.8016  38835.7  200.454
 7.8436  32647.6  180.51
 7.8856  32290.2  179.144
 7.9276  33019.2  181.543
 7.9696  33039.8  181.898
 8.0116  34516.5  184.846
 8.0536  34898.6  185.746
 8.0956  37822.9  194.569
 8.1376  35362  187.626
 8.1796  35146.9  187.58
 8.2216  36395.8  189.636
 8.2636  37470.2  192.668
 8.3056  36377.7  190.604
 8.3476  38773.2  196.093
 8.3896  37522.8  193.436
 8.4316  36708.4  191.044
 8.4736  36673.2  190.421
 8.5156  36135.2  189.295
 8.5576  36016.1  189.938
 8.5996  35996.2  188.777
 8.6416  35713.3  189.264
 8.6836  35813.7  189.38
 8.7256  36734.7  191.233
 8.7676  39706.2  201.835
 8.8096  39514.4  198.565
 8.8516  36358.8  190.13
 8.8936  38741.3  196.091
 8.9356  35480.3  187.998
 8.9776  35616.4  188.465
 9.0196  35009.2  186.528
 9.0616  35864  188.272
 9.1036  38139.5  195.377
 9.1456  35355.4  187.472
 9.1876  34524.8  185.203
 9.2296  34462.8  184.456
 9.2716  33723.8  182.525
 9.3136  33542.3  182.02
 9.3556  34025  183.297
 9.3976  32415.9  179.427
 9.4396  32923.6  180.727
 9.4816  32089.2  178.281
 9.5236  32529.9  179.418
 9.5656  32120  178.589
 9.6076  32250.7  179.481
 9.6496  31836.7  178.25
 9.6916  31848.5  178.261
 9.7336  31896.6  178.176
 9.7756  31829.4  179.157
 9.8176  31400.6  177.496
 9.8596  30969.1  174.77
 9.9016  30641.7  173.838
 9.9436  30866.6  174.225
 9.9856  31196.9  175.552
 10.0276  29913.3  172.963
 10.0696  30098.4  172.566
 10.1116  29856.3  172.13
 10.1536  29149.8  169.763
 10.1956  28756.3  168.7
 10.2376  28298.2  166.867
 10.2796  28383.3  167.246
 10.3216  28238.1  166.938
 10.3636  28527.2  167.961
 10.4056  33334  181.985
 10.4476  33643.8  182.427
 10.4896  39111.9  196.067
 10.5316  34534.4  184.645
 10.5736  28717.3  169.116
 10.6156  28140.7  167.178
 10.6576  35535.2  186.268
 10.6996  28611.4  167.799
 10.7416  27106.9  163.571
 10.7836  28747.9  169.149
 10.8256  26331.2  162.305
 10.8676  26507.1  162.387
 10.9096  26349.9  161.951
 10.9516  25935.6  159.625
 10.9936  27169  163.581
 11.0356  26845.9  163.234
 11.0776  28803.6  168.361
 11.1196  28344  167.786
 11.1616  26082.5  160.646
 11.2036  27744.9  165.541
 11.2456  29676.9  171.957
 11.2876  25397.5  158.803
 11.3296  25654.2  159.512
 11.3716  26125.1  160.7
 11.4136  25207.9  158.693
 11.4556  25746.4  160.055
 11.4976  27454.2  164.23
 11.5396  27399.9  164.229
 11.5816  25046.1  157.454
 11.6236  24442.2  155.982
 11.6656  24498.5  155.129
 11.7076  23744.9  153.529
 11.7496  24429.2  159.581
 11.7916  25052.9  156.977
 11.8336  23791.7  153.862
 11.8756  24571.6  155.877
 11.9176  23784.7  153.273
 11.9596  23289.2  151.598
 12.0016  23378.2  152.666
 12.0436  23162.5  151.403
 12.0856  22863.3  150.928
 12.1276  22961.3  151.168
 12.1696  23064.6  150.669
 12.2116  23824.5  153.123
 12.2536  26549.6  162.475
 12.2956  23883.2  153.477
 12.3376  23500.6  152.446
 12.3796  23169.2  151.826
 12.4216  23612.1  152.491
 12.4636  24637  156.67
 12.5056  22991.5  150.657
 12.5476  22856  149.755
 12.5896  22830.7  150.29
 12.6316  22482  149.289
 12.6736  22797  150.659
 12.7156  22928.1  151.091
 12.7576  22825.7  151.001
 12.7996  23064.6  150.463
 12.8416  23493.2  152.896
 12.8836  24314  155.346
 12.9256  23547.1  151.933
 12.9676  23524.5  152.279
 13.0096  23112  152
 13.0516  23399.4  152.008
 13.0936  23125.1  151.221
 13.1356  23567  151.95
 13.1776  23464.7  152.579
 13.2196  23093.8  151.046
 13.2616  23101  151.371
 13.3036  23105  151.508
 13.3456  23109.1  151.516
 13.3876  23286  151.6
 13.4296  23344.3  151.939
 13.4716  23547.8  152.216
 13.5136  23388.1  151.844
 13.5556  23580.5  153.062
 13.5976  23298.8  152.299
 13.6396  23926.9  153.718
 13.6816  23058.6  151.255
 13.7236  24124  154.478
 13.7656  23862.6  154.171
 13.8076  24798  155.945
 13.8496  23531.3  152.679
 13.8916  23503  153.388
 13.9336  22983.2  150.937
 13.9756  22880.6  149.968
 14.0176  23053.5  151.201
 14.0596  24461.2  155.703
 14.1016  22859.1  150.914
 14.1436  22248.2  148.04
 14.1856  22248  148.328
 14.2276  22388.1  149.261
 14.2696  22593.2  149.795
 14.3116  22149.8  148.213
 14.3536  21348.7  145.688
 14.3956  21613.7  146.322
 14.4376  21613  146.105
 14.4796  21441.3  145.52
 14.5216  20972.5  144.694
 14.5636  21760.1  146.944
 14.6056  21276.8  144.898
 14.6476  20783.5  142.461
 14.6896  20513.9  142.06
 14.7316  20251.6  142.143
 14.7736  20167.3  141.018
 14.8156  20055.5  140.665
 14.8576  20199.8  141.024
 14.8996  20064  141.732
 14.9416  19332.3  139.121
 14.9836  19681.9  140.336
 15.0256  19376  138.196
 15.0676  19073.5  137.423
 15.1096  18800.1  136.18
 15.1516  18581.4  135.924
 15.1936  18620.6  135.513
 15.2356  18647.4  135.883
 15.2776  18669.6  135.556
 15.3196  18268.8  135.073
 15.3616  18240.4  134.732
 15.4036  18156.6  134.278
 15.4456  18657.5  135.551
 15.4876  18035.1  133.178
 15.5296  17830  132.696
 15.5716  17498.5  131.072
 15.6136  17651.7  131.958
 15.6556  20272.2  140.623
 15.6976  18316.1  133.74
 15.7396  17920.3  132.893
 15.7816  17661.2  131.432
 15.8236  17007.7  129.673
 15.8656  17072.1  129.708
 15.9076  17282.5  130.337
 15.9496  17539.6  134.079
 15.9916  16668.5  131.128
 16.0336  16570.8  127.716
 16.0756  16600.1  128.135
 16.1176  16562.5  127.912
 16.1596  16028  127.118
 16.2016  16264.8  126.829
 16.2436  16108.3  126.592
 16.2856  16094.7  126.099
 16.3276  15533  124.281
 16.3696  15822.4  125.254
 16.4116  15466.1  124.281
 16.4536  16011.6  126.25
 16.4956  16672  128.556
 16.5376  15987.4  126.069
 16.5796  15844.6  124.874
 16.6216  15704.3  124.627
 16.6636  15926.9  125.658
 16.7056  15606.4  124.259
 16.7476  15660.3  124.161
 16.7896  15664.3  124.764
 16.8316  15435.9  123.816
 16.8736  16011.4  126.354
 16.9156  15813.2  125.903
 16.9576  15392.3  124.991
 16.9996  15609.7  126.356
 17.0416  15571.1  124.578
 17.0836  15121.6  122.525
 17.1256  15124.3  122.554
 17.1676  15654.7  124.68
 17.2096  15723.5  124.829
 17.2516  15266.8  123.083
 17.2936  14779.4  121.115
 17.3356  14406.3  119.596
 17.3776  14405.6  119.766
 17.4196  14729.1  120.814
 17.4616  14898.1  121.426
 17.5036  15339.5  123.573
 17.5456  14298.3  119.929
 17.5876  14380.5  119.344
 17.6296  14380.1  119.154
 17.6716  14679  120.967
 17.7136  15462.2  124.29
 17.7556  14522.6  120.746
 17.7976  14742.3  121.265
 17.8396  14466.8  119.765
 17.8816  14131.8  118.903
 17.9236  14025.9  118.265
 17.9656  14278.7  120.021
 18.0076  15166  123.107
 18.0496  16135.3  126.076
 18.0916  22491  149.506
 18.1336  19168.9  138.138
 18.1756  16179.9  126.426
 18.2176  16864.2  129.305
 18.2596  14422.4  119.322
 18.3016  15328.1  123.278
 18.3436  15908.5  125.839
 18.3856  14646.6  120.636
 18.4276  14290.2  118.841
 18.4696  14617  120.293
 18.5116  14481.6  120.014
 18.5536  14135.2  118.934
 18.5956  14233.6  118.897
 18.6376  14482.9  120.335
 18.6796  13893.4  117.208
 18.7216  14145.8  118.816
 18.7636  13722.7  116.939
 18.8056  13448.3  115.711
 18.8476  13197.7  114.927
 18.8896  13286.9  114.978
 18.9316  13776.4  116.899
 18.9736  13420  115.239
 19.0156  14305.1  119.366
 19.0576  13994.8  116.958
 19.0996  13845.9  117.036
 19.1416  13642.1  116.556
 19.1836  13329.7  114.827
 19.2256  13041.6  113.779
 19.2676  13254.9  114.801
 19.3096  13339.8  115.411
 19.3516  13356.4  115.267
 19.3936  13562.1  116.293
 19.4356  13310.2  115.009
 19.4776  13375.1  115.394
 19.5196  13304.3  114.94
 19.5616  13426.5  115.718
 19.6036  13390.3  114.928
 19.6456  13523.8  115.761
 19.6876  14009  117.466
 19.7296  13374  115.216
 19.7716  13286.1  114.849
 19.8136  13592.8  116.52
 19.8556  13976.4  117.632
 19.8976  14167.3  118.502
 19.9396  13961.3  117.217
 19.9816  14116.2  118.103
 20.0236  14418.4  119.584
 20.0656  13568.8  116.004
 20.1076  13051.8  114.21
 20.1496  12941.9  113.739
 20.1916  13248.1  114.563
 20.2336  13080.8  113.818
 20.2756  13065.6  114.164
 20.3176  12848.2  112.968
 20.3596  12890.1  113.131
 20.4016  12814.9  112.608
 20.4436  12897  113.518
 20.4856  12658.2  112.255
 20.5276  12728.2  113.01
 20.5696  12803.3  112.913
 20.6116  12766.5  112.923
 20.6536  12596  111.735
 20.6956  12735.7  112.426
 20.7376  12647.7  112.264
 20.7796  12540.6  111.472
 20.8216  12774.7  112.23
 20.8636  13099.2  114.014
 20.9056  14561.3  120.158
 20.9476  13089.6  113.764
 20.9896  14127.2  118.047
 21.0316  12819.5  112.354
 21.0736  13185.3  114.467
 21.1156  13539.7  116.155
 21.1576  12975.1  113.757
 21.1996  12627.2  112.2
 21.2416  12533.8  111.615
 21.2836  12794.8  112.738
 21.3256  12514.8  111.579
 21.3676  12695.2  111.935
 21.4096  13008.1  113.676
 21.4516  12426.4  110.932
 21.4936  12426.6  111.171
 21.5356  12352.3  110.792
 21.5776  12612  111.787
 21.6196  12673.9  112.098
 21.6616  12624  111.955
 21.7036  12469.1  111.058
 21.7456  12194.7  109.899
 21.7876  12052.7  109.015
 21.8296  12144  109.286
 21.8716  12102.5  109.324
 21.9136  12397.3  110.845
 21.9556  12742.9  112.055
 21.9976  12302.5  110.118
 22.0396  12273.4  110.233
 22.0816  12306.6  110.918
 22.1236  12729.9  112.265
 22.1656  12311.7  110.578
 22.2076  12382.6  110.33
 22.2496  12281.5  109.901
 22.2916  12396.5  110.291
 22.3336  12467.5  111.313
 22.3756  12228.9  109.991
 22.4176  12187.5  109.663
 22.4596  12085.8  109.784
 22.5016  12520.5  111.225
 22.5436  12283.1  110.061
 22.5856  12281  110.292
 22.6276  12092.2  109.572
 22.6696  12015.1  109.569
 22.7116  12030.5  109.159
 22.7536  12092.8  109.42
 22.7956  12310.7  109.736
 22.8376  11955  108.657
 22.8796  12175.2  109.453
 22.9216  12222.3  110.206
 22.9636  11966.3  108.215
 23.0056  12041.8  108.688
 23.0476  12222.8  110.065
 23.0896  12431.3  110.382
 23.1316  12451.7  110.898
 23.1736  12110  112.264
 23.2156  12238.1  110.19
 23.2576  12112.7  109.822
 23.2996  12103.8  109.587
 23.3416  12073  109.95
 23.3836  12170.9  109.629
 23.4256  12147.8  109.648
 23.4676  12198.4  109.585
 23.5096  12044.5  109.552
 23.5516  11837.3  107.908
 23.5936  12282.1  110.801
 23.6356  12409.2  111.045
 23.6776  12002.3  109.751
 23.7196  11824  108.4
 23.7616  12146.8  109.584
 23.8036  12084.3  109.34
 23.8456  12017.5  108.618
 23.8876  11756.4  107.768
 23.9296  11904.7  108.935
 23.9716  12004.4  108.593
 24.0136  11909.2  109.046
 24.0556  11774.8  108.16
 24.0976  11758.3  107.902
 24.1396  11633.2  109.916
 24.1816  11724.1  109.115
 24.2236  11653.3  108.075
 24.2656  11822.8  108.337
 24.3076  11848  108.703
 24.3496  11961.7  109.113
 24.3916  11837.6  108.595
 24.4336  11702.4  108.18
 24.4756  11705.1  108.061
 24.5176  11416.8  106.377
 24.5596  11218.3  105.76
 24.6016  11255.4  106.028
 24.6436  11365.5  106.044
 24.6856  11573.1  106.772
 24.7276  11494.6  106.723
 24.7696  11296.2  105.908
 24.8116  11432.4  106.723
 24.8536  11358  106.374
 24.8956  11159  105.179
 24.9376  11234.8  105.711
 24.9796  11104.8  105.212
 25.0216  10981.7  104.738
 25.0636  11318  105.983
 25.1056  10950.4  104.665
 25.1476  10918.9  106.426
 25.1896  10935.8  105.015
 25.2316  11021  104.591
 25.2736  11022.5  104.371
 25.3156  10751.7  103.152
 25.3576  10753.5  103.57
 25.3996  10910.1  104.307
 25.4416  11032.3  104.869
 25.4836  10737.5  103.979
 25.5256  10814.3  103.719
 25.5676  10997.6  104.323
 25.6096  10683.3  103.389
 25.6516  10860  103.739
 25.6936  10661.3  103.103
 25.7356  10703.1  103.434
 25.7776  10856.4  103.856
 25.8196  10778  103.641
 25.8616  10792.2  103.628
 25.9036  11028.8  104.23
 25.9456  10688.3  103.192
 25.9876  10466.6  102.048
 26.0296  10773.6  103.27
 26.0716  10681.9  103.165
 26.1136  10914.7  104.224
 26.1556  10973.2  103.793
 26.1976  10650.3  103.26
 26.2396  10730  103.054
 26.2816  10552  102.546
 26.3236  10675.5  103.229
 26.3656  10574.5  102.541
 26.4076  10745.7  103.578
 26.4496  10993.6  104.29
 26.4916  10774.3  103.218
 26.5336  10621.2  102.8
 26.5756  11030.2  104.625
 26.6176  10694.1  103.069
 26.6596  10382.7  101.858
 26.7016  10317.6  101.344
 26.7436  10182.9  100.764
 26.7856  10113.7  100.4
 26.8276  10309.1  101.326
 26.8696  10226.1  100.798
 26.9116  10297.6  101.085
 26.9536  10244.8  100.871
 26.9956  10239.5  100.882
 27.0376  10020.2  100.004
 27.0796  10298.2  101.167
 27.1216  10277.2  101.088
 27.1636  10104.3  100.4
 27.2056  10286.8  101.184
 27.2476  10223  100.871
 27.2896  10072.2  100.159
 27.3316  9948.56  99.3307
 27.3736  9874.92  99.224
 27.4156  9905.2  99.2223
 27.4576  10010.2  99.9748
 27.4996  10053.5  99.7882
 27.5416  10148.7  100.58
 27.5836  10071.4  100.011
 27.6256  10275.6  101.193
 27.6676  10215.1  100.911
 27.7096  10097.1  100.193
 27.7516  10811.2  103.83
 27.7936  10633.1  103.144
 27.8356  10347  101.368
 27.8776  10246.9  100.916
 27.9196  10089.5  99.9893
 27.9616  10472.6  102.068
 28.0036  10152.1  100.462
 28.0456  9961.71  99.6479
 28.0876  9867.14  99.2662
 28.1296  9999.03  99.7647
 28.1716  9980.41  99.6789
 28.2136  9858.77  99.036
 28.2556  9757.94  98.639
 28.2976  9751.47  98.6042
 28.3396  9922.93  99.2687
 28.3816  9744.79  98.3536
 28.4236  10095.9  100.266
 28.4656  9616.85  97.8908
 28.5076  9594.05  97.4185
 28.5496  9513.06  97.2631
 28.5916  9581.87  97.4211
 28.6336  9516.41  97.4257
 28.6756  9596.3  97.0509
 28.7176  9581.96  97.5161
 28.7596  9369.1  96.3282
 28.8016  9430.94  96.7611
 28.8436  9492.75  97.2337
 28.8856  9543.42  97.3444
 28.9276  9643.54  98.0965
 28.9696  9499.79  97.0287
 29.0116  9414.01  96.7593
 29.0536  9318.31  96.4706
 29.0956  9478.38  97.0194
 29.1376  9617.57  97.6865
 29.1796  9379.67  96.5177
 29.2216  9416.11  96.552
 29.2636  9330.11  96.1037
 29.3056  9333.2  95.9949
 29.3476  9316.9  96.4248
 29.3896  9472.5  97.324
 29.4316  9433.99  96.4747
 29.4736  9282.58  95.762
 29.5156  9542.1  97.0106
 29.5576  9426.86  97.1521
 29.5996  9482.02  96.7033
 29.6416  9330.63  96.0429
 29.6836  9399.1  96.3256
 29.7256  9371.68  96.7425
 29.7676  9360.62  96.3537
 29.8096  9292.7  95.9431
 29.8516  9102.79  95.2792
 29.8936  9250.89  96.1441
 29.9356  9389.21  96.6174
 29.9776  9316.41  96.3974
 30.0196  9459.06  96.5201
 30.0616  9438.07  96.7875
 30.1036  9221.4  95.4964
 30.1456  9099.21  95.1152
 30.1876  9109.15  95.1206
 30.2296  9170.86  95.397
 30.2716  9241.61  95.4032
 30.3136  9181.85  95.6837
 30.3556  9192  96.0008
 30.3976  9257.92  97.8443
 30.4396  9318.28  95.5274
 30.4816  9246.08  94.765
 30.5236  9263.93  94.8776
 30.5656  9029.02  94.3041
 30.6076  9237.37  95.1636
 30.6496  9162.63  94.8184
 30.6916  9078.4  94.4737
 30.7336  9104.95  94.7595
 30.7756  9154.51  95.327
 30.8176  9193.7  95.227
 30.8596  9087.91  94.4553
 30.9016  9071.51  94.2348
 30.9436  9141.7  94.8252
 30.9856  9112.64  94.7719
 31.0276  9054.35  94.0862
 31.0696  9020.71  94.3493
 31.1116  9101.72  94.8802
 31.1536  9221.92  95.3933
 31.1956  9120.24  94.9491
 31.2376  8849.75  93.5441
 31.2796  8897.93  93.3414
 31.3216  8936.32  93.4885
 31.3636  8983.24  94.4068
 31.4056  8931.37  95.4351
 31.4476  8942.84  93.4125
 31.4896  8870.67  93.5268
 31.5316  9170.4  94.537
 31.5736  9823.44  97.6101
 31.6156  9789.14  97.4675
 31.6576  9277.54  94.9874
 31.6996  9276.82  94.6455
 31.7416  9107.16  94.7035
 31.7836  9050.41  93.5681
 31.8256  8907.84  93.1707
 31.8676  9090.25  94.0386
 31.9096  8921.94  93.3795
 31.9516  8769.91  92.8723
 31.9936  8882.41  93.2929
 32.0356  8901.24  93.4544
 32.0776  8874.73  93.2056
 32.1196  8870.72  93.1852
 32.1616  8731.23  92.0082
 32.2036  8683.74  92.255
 32.2456  8831.79  93.4142
 32.2876  8828.97  92.7378
 32.3296  8737.4  92.3805
 32.3716  8839.17  93.03
 32.4136  8795.93  93.0187
 32.4556  8864.8  92.8182
 32.4976  8894.57  92.8694
 32.5396  8724.16  92.0035
 32.5816  8777.5  92.2937
 32.6236  8783.57  92.5023
 32.6656  8767.34  92.9463
 32.7076  8643.1  91.949
 32.7496  8584.47  91.3144
 32.7916  8699.25  91.8873
 32.8336  8752.05  92.2564
 32.8756  8627.28  91.4135
 32.9176  8764.48  92.519
 32.9596  8832.42  92.956
 33.0016  8662.95  91.8598
 33.0436  8781.42  92.6596
 33.0856  8642.09  91.9833
 33.1276  8569.75  91.3429
 33.1696  8750.2  92.1478
 33.2116  8626.94  91.7057
 33.2536  8675.53  91.9662
 33.2956  8584.02  91.5654
 33.3376  8581.87  91.3555
 33.3796  8709.89  92.176
 33.4216  8590.26  91.1559
 33.4636  8560.06  91.1274
 33.5056  8620.94  91.5367
 33.5476  8507.14  91.0784
 33.5896  8654.7  91.6104
 33.6316  8499.23  91.1201
 33.6736  8422.8  90.9506
 33.7156  8443.3  91.1071
 33.7576  8471.58  90.8885
 33.7996  8577.09  91.2266
 33.8416  8378.65  90.3498
 33.8836  8541.21  90.9983
 33.9256  8542.76  91.0714
 33.9676  8583.07  91.1773
 34.0096  8303.16  89.9875
 34.0516  8351.34  89.8993
 34.0936  8399.58  90.4101
 34.1356  8375.44  90.0343
 34.1776  8359.33  89.9563
 34.2196  8228.91  89.4292
 34.2616  8292.49  89.9667
 34.3036  8344.82  90.4315
 34.3456  8360.36  90.2766
 34.3876  8397.87  90.5316
 34.4296  8368.38  89.9739
 34.4716  8421.59  90.4145
 34.5136  8366.27  90.3089
 34.5556  8362.3  90.5384
 34.5976  8425.02  90.7133
 34.6396  8286.09  89.6567
 34.6816  8379.29  90.2659
 34.7236  8338.58  89.8369
 34.7656  8278.97  89.7094
 34.8076  8308.18  90.1767
 34.8496  8281.57  89.8977
 34.8916  8275.3  89.7377
 34.9336  8440.2  90.5924
 34.9756  8501.43  90.8307
 35.0176  8353.66  90.5705
 35.0596  8206.16  89.5973
 35.1016  8210.51  89.392
 35.1436  8291.05  89.5223
 35.1856  8299.99  89.691
 35.2276  8351.36  90.1484
 35.2696  8261.2  89.847
 35.3116  8256.61  89.9135
 35.3536  8186.03  89.2764
 35.3956  8205.48  89.0645
 35.4376  8137.58  89.235
 35.4796  8415.95  90.8131
 35.5216  8217.55  89.6181
 35.5636  8008.38  89.2712
 35.6056  8213.38  89.4364
 35.6476  8179.62  89.1498
 35.6896  8236.81  89.623
 35.7316  8134.17  88.9608
 35.7736  8164.89  89.3277
 35.8156  8106.28  89.0075
 35.8576  8090.34  89.1639
 35.8996  8272.82  90.1309
 35.9416  8205.73  89.2566
 35.9836  8149.85  89.4046
 36.0256  8170.71  89.4498
 36.0676  8154.77  88.9071
 36.1096  7952.26  88.1441
 36.1516  8113.36  88.9213
 36.1936  8149.09  88.9675
 36.2356  8047.16  89.0399
 36.2776  8050.8  88.5424
 36.3196  8120.75  88.6074
 36.3616  8136.04  88.8193
 36.4036  8058.51  88.4423
 36.4456  8038.72  88.5424
 36.4876  8025.22  88.4136
 36.5296  8056.28  88.6202
 36.5716  8179.61  90.0798
 36.6136  8447.29  90.3074
 36.6556  8504.42  90.8194
 36.6976  8227.91  89.8221
 36.7396  8234.92  89.6855
 36.7816  8159.17  89.5527
 36.8236  8043.91  88.8411
 36.8656  7965.92  88.4793
 36.9076  7985.98  88.5968
 36.9496  7986.2  88.6116
 36.9916  7889.87  87.5625
 37.0336  8172.29  89.4334
 37.0756  8071.15  88.6685
 37.1176  7916.84  88.1747
 37.1596  7804.75  87.4615
 37.2016  7953.01  88.4598
 37.2436  8102.95  88.6647
 37.2856  7941.41  88.0291
 37.3276  8077.41  88.1265
 37.3696  7888.06  87.9591
 37.4116  7982.25  88.3935
 37.4536  7863.84  87.606
 37.4956  7890.94  87.7942
 37.5376  7858.37  89.1511
 37.5796  7832.41  88.9584
 37.6216  7718.55  86.6157
 37.6636  7799.68  86.9662
 37.7056  7881.69  87.6165
 37.7476  7965.92  87.6197
 37.7896  7732.96  86.8154
 37.8316  7611.7  86.3055
 37.8736  7850.22  87.1819
 37.9156  7764.8  86.7043
 37.9576  7949.5  87.7713
 37.9996  7579.52  85.2835
 38.0416  7788.73  87.2513
 38.0836  7912.89  87.8504
 38.1256  7825.74  87.324
 38.1676  7693.93  86.7171
 38.2096  8043.12  88.2852
 38.2516  7990.61  88.101
 38.2936  7823.84  87.0786
 38.3356  8036.02  88.171
 38.3776  7845.98  87.3908
 38.4196  7940.45  87.7726
 38.4616  7856.21  87.5349
 38.5036  7925.97  87.7662
 38.5456  7767.84  87.7144
 38.5876  7893.95  88.4445
 38.6296  7767.08  86.7226
 38.6716  7686.64  86.0652
 38.7136  7636.29  85.7291
 38.7556  7705.94  86.6161
 38.7976  7730.63  86.6944
 38.8396  7650.03  86.6858
 38.8816  7605.79  86.2231
 38.9236  7630.82  86.1765
 38.9656  7711.29  86.5442
 39.0076  7677.7  85.7727
 39.0496  7699.77  86.4302
 39.0916  7717.96  86.1769
 39.1336  7554.46  85.6683
 39.1756  7668.57  86.3797
 39.2176  7642.96  86.755
 39.2596  7565.83  86.2383
 39.3016  7703.27  86.5964
 39.3436  7684.7  86.9131
 39.3856  7668.76  86.2808
 39.4276  7646.42  86.6381
 39.4696  7711.81  86.6411
 39.5116  7583.59  86.4139
 39.5536  7785.49  87.9879
 39.5956  7761.66  86.9599
 39.6376  7666.41  86.2697
 39.6796  7676.21  86.2294
 39.7216  7656.87  86.2235
 39.7636  7737.17  87.2371
 39.8056  7729.39  86.9711
 39.8476  7669.18  86.8745
 39.8896  7583.93  86.0302
 39.9316  7609.69  86.4252
 39.9736  7777.29  86.9482
 40.0156  7682.1  86.2509
 40.0576  7703.6  86.7212
 40.0996  7847.44  86.7114
 40.1416  7772.01  87.073
 40.1836  7738.99  86.7902
 40.2256  7723.93  86.7485
 40.2676  7720.05  86.8987
 40.3096  7756.05  86.9545
 40.3516  7710.93  86.8954
 40.3936  7774.55  86.7374
 40.4356  7729.07  86.6712
 40.4776  7795.71  87.2915
 40.5196  7781.18  87.5002
 40.5616  7766.01  87.0605
 40.6036  7772.75  87.3504
 40.6456  7719.99  86.6682
 40.6876  7895.68  87.6373
 40.7296  7829.72  87.4053
 40.7716  7766.62  87.1776
 40.8136  7623.13  86.3108
 40.8556  7654.37  86.6201
 40.8976  7750.65  87.0845
 40.9396  7635.86  86.7811
 40.9816  7864.36  87.3586
 41.0236  7803.25  86.8033
 41.0656  7853.87  87.6172
 41.1076  7727.24  86.6836
 41.1496  7836.65  87.2057
 41.1916  7838.09  87.5361
 41.2336  7720.09  86.8632
 41.2756  7686.76  86.2894
 41.3176  7703.93  86.9872
 41.3596  7723.32  86.8254
 41.4016  7756.85  87.2751
 41.4436  7799.23  87.3056
 41.4856  7788.57  87.4028
 41.5276  7807.74  87.5309
 41.5696  7703.15  86.5675
 41.6116  7741.45  87.1826
 41.6536  7741.49  87.0463
 41.6956  7774.8  87.2137
 41.7376  7651.59  86.621
 41.7796  7818.8  87.4888
 41.8216  7736.04  87.2143
 41.8636  7776.66  87.382
 41.9056  7760.92  87.0839
 41.9476  7734.03  87.1693
 41.9896  7763.07  86.9975
 42.0316  7712.91  86.787
 42.0736  7814.18  87.5078
 42.1156  7637.81  86.3243
 42.1576  7675.92  86.6303
 42.1996  7821.15  87.5919
 42.2416  7734.85  86.6945
 42.2836  7618.01  86.151
 42.3256  7628.2  86.3204
 42.3676  7661.08  86.3088
 42.4096  7601.28  85.9395
 42.4516  7649.66  86.2974
 42.4936  7574.21  85.9379
 42.5356  7703.38  86.8038
 42.5776  7690.97  86.6721
 42.6196  7657.62  86.4576
 42.6616  7502.58  85.8232
 42.7036  7700.13  86.3371
 42.7456  7629.11  86.2876
 42.7876  7680.92  86.6795
 42.8296  7635.8  86.3242
 42.8716  7548.21  85.9206
 42.9136  7521.04  85.5158
 42.9556  7579.2  86.0185
 42.9976  7565.71  85.9068
 43.0396  7593.48  85.8014
 43.0816  7603.55  86.2253
 43.1236  7517.3  85.7985
 43.1656  7588.02  86.0311
 43.2076  7496.75  85.6138
 43.2496  7482.74  85.3523
 43.2916  7568.1  86.2
 43.3336  7616.23  86.3141
 43.3756  7525.64  85.5505
 43.4176  7451.33  85.2126
 43.4596  7423.86  84.9155
 43.5016  7522.25  85.875
 43.5436  7345.88  84.7681
 43.5856  7537.73  85.893
 43.6276  7348.34  84.7045
 43.6696  7456.53  85.4635
 43.7116  7506.48  85.3698
 43.7536  7546.68  86.0835
 43.7956  7288.77  85.7593
 43.8376  7359.87  84.748
 43.8796  7345.93  84.7481
 43.9216  7410.53  85.0326
 43.9636  7482.67  85.5609
 44.0056  7368.46  85.1324
 44.0476  7383.24  84.8565
 44.0896  7302.94  84.7257
 44.1316  7403.69  84.9781
 44.1736  7335.89  84.5758
 44.2156  7410.93  84.8478
 44.2576  7342.86  84.7881
 44.2996  7359.23  84.8515
 44.3416  7302.42  84.2961
 44.3836  7341.83  84.8386
 44.4256  7136.91  83.3045
 44.4676  7348.87  84.6851
 44.5096  7365.3  84.9239
 44.5516  7248.03  84.2044
 44.5936  7105.3  83.3312
 44.6356  7347.85  84.4778
 44.6776  7350.16  84.8063
 44.7196  7328.12  84.947
 44.7616  7237.74  85.7517
 44.8036  7212.33  84.2658
 44.8456  7203.22  84.2104
 44.8876  7254.83  84.3672
 44.9296  7266.18  83.9
 44.9716  7240.51  84.1697
 45.0136  7288.67  84.3848
 45.0556  7411.11  85.1738
 45.0976  7068.75  83.2425
 45.1396  7219.08  83.8871
 45.1816  7191.27  83.4859
 45.2236  7303.12  84.2041
 45.2656  7244.5  84.3618
 45.3076  7071.53  83.1337
 45.3496  7134.87  83.7994
 45.3916  7049.68  83.562
 45.4336  7109.18  83.752
 45.4756  7168.92  83.9739
 45.5176  7232.66  83.9664
 45.5596  7262.15  84.2606
 45.6016  7171.42  84.1413
 45.6436  7162.49  83.2799
 45.6856  7114.32  83.6443
 45.7276  6990.35  84.7001
 45.7696  7161.24  84.8894
 45.8116  7136.75  84.1915
 45.8536  7113.01  83.9465
 45.8956  7056.83  82.9827
 45.9376  7117.12  82.8114
 45.9796  7150.41  83.6865
 46.0216  7230.29  84.4802
 46.0636  7224.91  83.6071
 46.1056  7091.14  82.8161
 46.1476  7122.36  83.5794
 46.1896  7132.02  83.7833
 46.2316  7038.18  83.1054
 46.2736  7011.19  83.1501
 46.3156  7121.37  83.5472
 46.3576  7121.92  83.7506
 46.3996  7010.97  83.2508
 46.4416  7189.48  83.8642
 46.4836  6982.43  83.0181
 46.5256  7013.86  83.1377
 46.5676  7183.02  84.2523
 46.6096  6981.36  82.9876
 46.6516  7180.33  83.2286
 46.6936  7187.27  83.7495
 46.7356  7172.36  83.7683
 46.7776  7025.95  83.7376
 46.8196  6995.65  83.3014
 46.8616  6881.92  82.4311
 46.9036  6876.59  82.0685
 46.9456  6931.48  82.0444
 46.9876  7064  82.9074
 47.0296  6894.67  82.5796
 47.0716  6804.77  81.8646
 47.1136  6954.9  82.4495
 47.1556  6929.07  82.1664
 47.1976  6965.94  82.54
 47.2396  6914.38  82.5454
 47.2816  6871.52  81.9968
 47.3236  6860.34  82.2921
 47.3656  6927.17  82.6246
 47.4076  6916.67  82.2963
 47.4496  6820.79  81.8881
 47.4916  6822.04  82.0813
 47.5336  6852.6  82.0776
 47.5756  6848.07  82.1398
 47.6176  6812.21  81.856
 47.6596  6772.9  81.3383
 47.7016  6959.02  82.2648
 47.7436  6877.92  82.1132
 47.7856  6971.47  82.6954
 47.8276  6718.32  81.2333
 47.8696  6941.38  82.6596
 47.9116  6908.92  82.1825
 47.9536  6885.06  81.9865
 47.9956  6787.43  82.0879
 48.0376  6792.15  81.8934
 48.0796  6884.4  82.5713
 48.1216  6849.41  82.1931
 48.1636  6990.11  82.6105
 48.2056  6892.92  82.2955
 48.2476  6908.66  82.6914
 48.2896  6826.7  82.1102
 48.3316  6784.5  81.7996
 48.3736  6751.77  81.6272
 48.4156  6728.54  81.341
 48.4576  6768.1  81.8649
 48.4996  6848.05  81.8148
 48.5416  6886.84  82.3644
 48.5836  6783.12  81.4236
 48.6256  6817.44  81.8247
 48.6676  6819.24  82.3472
 48.7096  6815.98  81.6161
 48.7516  6789.8  81.6019
 48.7936  6702.21  81.1358
 48.8356  6770.36  81.5931
 48.8776  6801.32  82.2587
 48.9196  6884.13  82.2213
 48.9616  6709.51  81.5437
 49.0036  6784.56  82.3344
 49.0456  6705.18  81.8344
 49.0876  6715.5  81.547
 49.1296  6706.02  81.5411
 49.1716  6678.16  81.2468
 49.2136  6730.87  81.4853
 49.2556  6868.47  82.3598
 49.2976  6709.52  81.4693
 49.3396  6677.87  81.3324
 49.3816  6743.02  81.1696
 49.4236  6654.57  81.0464
 49.4656  6586.47  80.6541
 49.5076  6676.1  80.9534
 49.5496  6666.16  80.8357
 49.5916  6805.73  81.7099
 49.6336  6662.57  81.0417
 49.6756  6704.25  81.5314
 49.7176  6659.47  81.1995
 49.7596  6727.65  81.5626
 49.8016  6766.41  81.5474
 49.8436  6585.82  80.7346
 49.8856  6657.11  81.1754
 49.9276  6558.96  80.671
 49.9696  6664.52  81.3042
 50.0116  6622.5  81.1691
 50.0536  6554.32  80.7048
 50.0956  6534.39  80.6507
 50.1376  6557.56  80.5001
 50.1796  6494.22  80.3705
 50.2216  6536.01  80.6274
 50.2636  6571.02  80.4662
 50.3056  6504.33  80.2276
 50.3476  6557.71  80.5623
 50.3896  6576.12  80.6625
 50.4316  6480.65  79.9135
 50.4736  6460.98  80.0082
 50.5156  6559.31  80.6067
 50.5576  6635.56  80.8267
 50.5996  6518.16  80.3909
 50.6416  6474.91  80.052
 50.6836  6538.46  80.5018
 50.7256  6572.26  80.6333
 50.7676  6595.78  81.0521
 50.8096  6510.94  80.1177
 50.8516  6448.77  80.1386
 50.8936  6378.81  79.4924
 50.9356  6518.91  80.466
 50.9776  6544.52  80.7717
 51.0196  6374.56  79.844
 51.0616  6441.5  79.6015
 51.1036  6429.89  79.8783
 51.1456  6373.41  79.4404
 51.1876  6457.14  79.323
 51.2296  6426.01  79.749
 51.2716  6460.86  79.6773
 51.3136  6314.73  79.211
 51.3556  6426.99  79.5489
 51.3976  6403.78  79.548
 51.4396  6266.67  78.9878
 51.4816  6243.3  78.702
 51.5236  6356.74  79.4871
 51.5656  6427.88  79.5507
 51.6076  6432.35  79.6576
 51.6496  6423.45  79.7921
 51.6916  6360.33  79.7373
 51.7336  6332.78  79.6576
 51.7756  6438.5  80.0263
 51.8176  6297.55  79.2396
 51.8596  6310.24  79.3412
 51.9016  6480.51  80.0195
 51.9436  6353.44  80.6265
 51.9856  6217.36  80.2054
 52.0276  6340.39  79.5409
 52.0696  6349.49  79.6585
 52.1116  6384.37  79.9937
 52.1536  6428.56  80.1113
 52.1956  6392.15  79.4145
 52.2376  6421.4  79.7608
 52.2796  6381.22  79.3162
 52.3216  6212.3  78.93
 52.3636  6200.41  78.4524
 52.4056  6312.75  79.0204
 52.4476  6258.6  79.0345
 52.4896  6115.11  78.1734
 52.5316  6374.32  79.8528
 52.5736  6275.39  78.973
 52.6156  6209.47  78.9242
 52.6576  6348.89  79.2582
 52.6996  6097.83  78.61
 52.7416  6262.1  79.5217
 52.7836  6342.36  79.8882
 52.8256  6304.32  78.9184
 52.8676  6055.99  77.9022
 52.9096  6306.05  79.5723
 52.9516  6246.95  79.5585
 52.9936  6204.65  79.6695
 53.0356  6151.63  78.348
 53.0776  6036.63  77.893
 53.1196  6186.02  78.9533
 53.1616  6099.91  78.4482
 53.2036  6001.63  77.7695
 53.2456  6006.38  77.9045
 53.2876  6059.06  77.9528
 53.3296  6078.98  78.3986
 53.3716  6154.41  78.6383
 53.4136  6100.44  78.4309
 53.4556  6033.38  78.0329
 53.4976  5927.68  77.2
 53.5396  6077.16  78.549
 53.5816  6054.57  78.0435
 53.6236  6059.83  78.4122
 53.6656  6172.61  78.7749
 53.7076  6155.68  78.6296
 53.7496  6147.3  78.6945
 53.7916  6079.41  78.3817
 53.8336  6050.65  78.094
 53.8756  5973.76  78.1318
 53.9176  6140  78.5732
 53.9596  6116.33  79.1747
 54.0016  6055.44  78.1248
 54.0436  6064.29  78.3962
 54.0856  6125.79  78.2271
 54.1276  6090.71  78.1972
 54.1696  6036.92  78.0209
 54.2116  6064.2  77.958
 54.2536  6055.75  77.7246
 54.2956  6044.39  77.693
 54.3376  6043.9  78.167
 54.3796  5997.52  77.7677
 54.4216  6176.02  78.952
 54.4636  6006.03  77.8311
 54.5056  6121.7  78.3989
 54.5476  6023.85  78.0928
 54.5896  6059.51  78.1614
 54.6316  6028.95  77.8261
 54.6736  6130.49  78.4982
 54.7156  6055.39  78.0889
 54.7576  5958.83  77.4615
 54.7996  6029.05  78.0656
 54.8416  5964.5  77.6797
 54.8836  5952.91  77.7143
 54.9256  6042.74  78.0522
 54.9676  6060.36  78.0244
 55.0096  6014.82  77.8011
 55.0516  6078.9  78.3778
 55.0936  6015.08  77.6629
 55.1356  6013.29  77.6998
 55.1776  6000.19  77.8745
 55.2196  6056.61  78.0278
 55.2616  6003.98  77.8944
 55.3036  5879.76  77.2397
 55.3456  5960.97  77.9203
 55.3876  5973.21  77.7487
 55.4296  6096.61  78.5256
 55.4716  6001.47  77.9415
 55.5136  6026.14  77.8604
 55.5556  6006.69  77.8074
 55.5976  5996.97  77.7971
 55.6396  5940.95  77.3101
 55.6816  6049.42  77.9684
 55.7236  5949.28  77.4541
 55.7656  6000.83  77.4584
 55.8076  6042.63  77.7128
 55.8496  5910.61  77.2734
 55.8916  6011.24  77.9865
 55.9336  5973.51  77.5964
 55.9756  5970.83  77.4756
 56.0176  5920.75  77.2953
 56.0596  5990.84  77.7373
 56.1016  5985.86  77.7465
 56.1436  5977.49  77.916
 56.1856  5978.19  77.6708
 56.2276  5961.22  77.613
 56.2696  5959.71  77.5759
 56.3116  5908.33  77.6294
 56.3536  5826.44  76.7656
 56.3956  5947.23  77.5471
 56.4376  6004.38  77.9499
 56.4796  6074.03  78.2013
 56.5216  5855.48  77.1481
 56.5636  6022.39  77.8395
 56.6056  5915.64  77.3707
 56.6476  6029.08  77.7425
 56.6896  5937.27  77.5816
 56.7316  5905.59  77.29
 56.7736  5933.29  77.4682
 56.8156  5923.81  77.4069
 56.8576  5929.05  77.3782
 56.8996  5958.04  77.5072
 56.9416  5967.52  77.7311
 56.9836  5787.41  76.2115
 57.0256  5881.64  77.1431
 57.0676  5846.59  77.0331
 57.1096  5999.68  77.8278
 57.1516  5999.84  77.8535
 57.1936  6027.7  77.8232
 57.2356  5927.05  77.4843
 57.2776  5895.85  77.2373
 57.3196  5936.44  77.864
 57.3616  5940.4  77.3937
 57.4036  5986.43  77.7521
 57.4456  5898.68  77.1451
 57.4876  5997.6  77.6537
 57.5296  5867.94  77.0416
 57.5716  5902.86  77.3524
 57.6136  5901.28  77.1742
 57.6556  5890.67  77.2355
 57.6976  5990.04  77.7072
 57.7396  5824.24  76.9894
 57.7816  5856.72  77.555
 57.8236  5884.72  77.5379
 57.8656  5904.9  77.3386
 57.9076  5854.15  77.039
 57.9496  5859.4  77.4076
 57.9916  5908.07  77.2103
 58.0336  5902.32  77.4794
 58.0756  5990.3  77.6601
 58.1176  5934.83  77.3356
 58.1596  5875.73  77.5043
 58.2016  5979.23  77.4394
 58.2436  5954.52  77.6696
 58.2856  5950.98  77.5693
 58.3276  5827.47  77.1205
 58.3696  5855.48  77.056
 58.4116  5892.64  77.1753
 58.4536  5899.58  77.1038
 58.4956  5993.72  77.9007
 58.5376  5810.03  76.2777
 58.5796  5904.88  77.3167
 58.6216  6009.44  77.8051
 58.6636  5968.92  77.7613
 58.7056  5907.62  77.2208
 58.7476  5789.51  76.8802
 58.7896  5791.1  76.5436
 58.8316  5917.06  77.3638
 58.8736  5944.43  77.5536
 58.9156  5847.46  76.96
 58.9576  6016  78.2632
 58.9996  6022.41  77.6669
 59.0416  6144.19  78.8161
 59.0836  5935.26  77.3923
 59.1256  5883.43  77.4369
 59.1676  5945.87  78.4587
 59.2096  5945.41  77.7798
 59.2516  6007.49  77.7669
 59.2936  6097.17  78.6748
 59.3356  5941.31  77.5415
 59.3776  5968.85  77.889
 59.4196  5911.03  77.4479
 59.4616  5960.49  77.6317
 59.5036  5860.62  77.0134
 59.5456  6066.85  78.0494
 59.5876  6016.36  77.9147
 59.6296  5904.77  77.2572
 59.6716  6143.04  78.859
 59.7136  6016.39  78.0301
 59.7556  5920.59  77.5415
 59.7976  5912.18  77.2313
 59.8396  5889.46  76.9783
 59.8816  5920.47  77.7204
 59.9236  6117.23  78.643
 59.9656  5921.82  77.6348
 60.0076  5830.8  76.4044
 60.0496  5895.59  77.3217
 60.0916  6142.85  78.3436
 60.1336  5941.21  78.1454
 60.1756  5879.89  78.9097
 60.1996  0.0000000E+00  0.0000000E+00