File: docs/examples/XRD/IS17_D/Data/IS17_D/17_Da_f00073.xye
# /beamlines/bl04/projects/cycle2025-II/20250340211-lsimonelli/DATA/IS17_D/17_Da_f00073.xye : mythproc.py merge -s 0.006 -l 0.5 -f /beamlines/bl04/inhouse/ff/FlatField/ff_20Nov2024rod8mm60s_17keV.raw -b True -c true -o xye /beamlines/bl04/projects/cycle2025-II/20250340211-lsimonelli/DATA/IS17_D/17_Da_00073.dat
# IsMon = [6756534, 6756321, 6755743]  IsPos = [-1.4999, -2.4884, -3.4988]
# Wave = 0.4962  CalPath /beamlines/bl04/projects/cycle2025-II/20250340211-lsimonelli/DATA/Align/Si_Pos1_25keV_f00001.cal
# Date = 2025-09-24_13:52:41 Dt = 4.8000  Bin = 0.0060  <imon> = 6756199 +/- 334 (Min/Max) 6755743 / 6756534
# icurr 249.6810  mocoIn 1.7030E-05  mocoOut 0.7986  i15 7.07378e+06  imon 6.7562e+06  i7 6.0000  iEMpd_timer 4.8000  iEMpd_1 3.3330E-08  iEMpd_2 7.8702E-08  iEMpd_3 1.5377E-08  iEMpd_4 4.7359E-08  iEMhp_timer 4.8000  iEMhp_1 4.8771E-06  iEMhp_2 -2.5258E-08  iEMhp_3 -2.4511E-08  iEMhp_4 -2.1793E-08
#      9776
 1.5856  39066.6  202.953
 1.6276  46116.3  216.722
 1.6696  52306.4  229.995
 1.7116  60720  248.288
 1.7536  70187.4  265.806
 1.7956  75129  275.692
 1.8376  71237.9  268.883
 1.8796  59676.4  244.284
 1.9216  48142.6  220.289
 1.9636  40018.4  200.02
 2.0056  36075.8  189.176
 2.0476  33806.4  185.137
 2.0896  32438.2  180.288
 2.1316  31275.3  176.176
 2.1736  29557.1  172.627
 2.2156  29809.5  171.971
 2.2576  29143  170.647
 2.2996  28173.9  168.402
 2.3416  28389.6  167.697
 2.3836  27783.3  165.998
 2.4256  26836.9  163.678
 2.4676  26312.4  161.841
 2.5096  27354.2  165.068
 2.5516  33359.5  186.522
 2.5936  144411  380.228
 2.6356  29117.4  171.454
 2.6776  25805.9  160.303
 2.7196  24956.5  158.157
 2.7616  24938.1  157.882
 2.8036  24294.8  155.999
 2.8456  24244.4  156.437
 2.8876  23818  154.935
 2.9296  23385.9  153.645
 2.9716  23287.8  152.828
 3.0136  22800.6  151.286
 3.0556  23165.2  152.877
 3.0976  22923.7  151.038
 3.1396  22708.6  151.028
 3.1816  22503.9  150.285
 3.2236  22400.5  149.935
 3.2656  22417.2  149.054
 3.3076  22199.4  149.74
 3.3496  22431.3  149.49
 3.3916  22933.4  150.982
 3.4336  23382.9  153.02
 3.4756  23639.9  153.788
 3.5176  24495.4  156.347
 3.5596  24511.5  158.778
 3.6016  24746.3  157.201
 3.6436  23682.6  154.857
 3.6856  23181.9  151.553
 3.7276  22435.2  150.158
 3.7696  22186.1  149.514
 3.8116  21842.4  148.237
 3.8536  21949.7  148.534
 3.8956  21919.2  148.262
 3.9376  22899.4  151.789
 3.9796  21661.2  147.156
 4.0216  21832.4  146.792
 4.0636  21870.8  148.365
 4.1056  21963.2  148.328
 4.1476  22151.3  149.267
 4.1896  22276.6  149.556
 4.2316  22354.9  149.649
 4.2736  22931.8  151.353
 4.3156  23186.7  152.424
 4.3576  23844  154.494
 4.3996  24174.9  155.811
 4.4416  24609.2  156.802
 4.4836  26250.4  162.099
 4.5256  25839.1  161.426
 4.5676  25802  161.565
 4.6096  26067.1  161.071
 4.6516  26790.4  163.004
 4.6936  26795.9  163.824
 4.7356  27760.3  166.573
 4.7776  26855.6  163.672
 4.8196  26283.6  162.55
 4.8616  25939.2  160.977
 4.9036  25741.7  160.111
 4.9456  25997.1  161.546
 4.9876  25196.6  158.944
 5.0296  25227.5  158.862
 5.0716  25248.4  159.691
 5.1136  25439.9  160.007
 5.1556  25799.2  160.606
 5.1976  35634.9  188.736
 5.2396  26418.6  162.221
 5.2816  26143.9  161.822
 5.3236  26329.3  162.108
 5.3656  25622.5  160.818
 5.4076  25498.9  160.578
 5.4496  25588.7  160.358
 5.4916  25619.6  160.216
 5.5336  25660.4  160.351
 5.5756  25424.5  159.634
 5.6176  25562.7  159.519
 5.6596  25714.1  160.94
 5.7016  26132  161.527
 5.7436  26218.9  162.059
 5.7856  25956.7  161.309
 5.8276  26594.7  163.007
 5.8696  26647  163.334
 5.9116  26467.2  163.376
 5.9536  26711.3  163.878
 5.9956  27164.5  164.64
 6.0376  27022.3  164.833
 6.0796  27569.4  166.329
 6.1216  27519.7  166.38
 6.1636  27715.1  166.039
 6.2056  27712.9  166.696
 6.2476  27862.4  167.016
 6.2896  28057.1  167.286
 6.3316  27828.6  166.77
 6.3736  27961.9  167.069
 6.4156  28059.6  167.253
 6.4576  28598.3  168.465
 6.4996  28381  168.302
 6.5416  28371.3  168.4
 6.5836  29167.6  170.98
 6.6256  28667.5  169.072
 6.6676  29108.6  169.947
 6.7096  29138.4  170.871
 6.7516  29421.7  171.365
 6.7936  30628.7  174.264
 6.8356  31436.6  176.629
 6.8776  30756  175.513
 6.9196  30203.7  174.324
 6.9616  30413.5  174.379
 7.0036  30986.3  175.667
 7.0456  31018.1  175.062
 7.0876  31010.2  176.712
 7.1296  31002.7  175.837
 7.1716  30748.3  174.655
 7.2136  30601.6  174.025
 7.2556  30905.7  175.049
 7.2976  30803  175.249
 7.3396  30809.8  175.476
 7.3816  30808.8  175.688
 7.4236  31063.6  175.712
 7.4656  31247.8  175.724
 7.5076  31704.6  177.136
 7.5496  31445.9  176.947
 7.5916  31859.2  178.126
 7.6336  32265.5  179.161
 7.6756  32033.5  178.371
 7.7176  32451  179.835
 7.7596  32400.5  180.935
 7.8016  38239.4  198.896
 7.8436  33420.1  182.635
 7.8856  33698.1  183.004
 7.9276  34143.6  184.607
 7.9696  34391.1  185.584
 8.0116  35183.6  186.252
 8.0536  35799.5  188.135
 8.0956  39018.2  197.626
 8.1376  36161.3  189.736
 8.1796  35959.8  189.746
 8.2216  37287.4  191.952
 8.2636  38854.1  196.193
 8.3056  37475.9  193.46
 8.3476  39894.3  198.911
 8.3896  38775.7  196.187
 8.4316  37520  193.145
 8.4736  37671.9  193.001
 8.5156  37395.8  192.572
 8.5576  37474.8  193.754
 8.5996  37134.4  191.744
 8.6416  37125.3  192.981
 8.6836  37142.4  192.855
 8.7256  37854.9  194.132
 8.7676  40429.9  203.652
 8.8096  40263.2  200.433
 8.8516  37181.9  192.217
 8.8936  39520.3  198.069
 8.9356  36319  190.202
 8.9776  36828.1  191.643
 9.0196  36158.5  189.558
 9.0616  36765.7  190.607
 9.1036  39245.6  198.178
 9.1456  36585.2  190.694
 9.1876  35925.7  188.919
 9.2296  35950  188.389
 9.2716  35005.7  185.96
 9.3136  35203.2  186.461
 9.3556  35624.5  187.554
 9.3976  33920.2  183.54
 9.4396  34332.2  184.546
 9.4816  33929.6  183.319
 9.5236  34073  183.623
 9.5656  33939.2  183.579
 9.6076  33602.8  183.206
 9.6496  33495.1  182.829
 9.6916  33583.3  183.046
 9.7336  33420.1  182.376
 9.7756  33679.9  184.343
 9.8176  32596.6  180.847
 9.8596  32601.9  179.319
 9.9016  32270.4  178.401
 9.9436  32302.7  178.403
 9.9856  32415.9  178.934
 10.0276  31317.3  176.982
 10.0696  31679.8  177.044
 10.1116  30956  175.274
 10.1536  30855.2  175.153
 10.1956  30270.8  173.083
 10.2376  29900.4  171.533
 10.2796  29869.2  171.571
 10.3216  29869.2  171.838
 10.3636  29703.8  171.393
 10.4056  33176.3  181.557
 10.4476  33225.8  181.294
 10.4896  37672.8  192.43
 10.5316  35086.1  186.489
 10.5736  29955.3  172.725
 10.6156  29320.3  170.647
 10.6576  35595.9  186.432
 10.6996  29212.5  169.565
 10.7416  28303.7  167.135
 10.7836  29635  171.742
 10.8256  27464.9  165.762
 10.8676  27755  166.17
 10.9096  27831.4  166.439
 10.9516  27301.9  163.776
 10.9936  28156.3  166.519
 11.0356  27883.6  166.359
 11.0776  29299.1  169.815
 11.1196  29165.5  170.195
 11.1616  27003.2  163.461
 11.2036  28217.9  166.949
 11.2456  29928.6  172.687
 11.2876  26342.8  161.736
 11.3296  26672.6  162.642
 11.3716  27077.4  163.564
 11.4136  26620  163.081
 11.4556  27072.5  164.125
 11.4976  28331.1  166.834
 11.5396  28083.5  166.26
 11.5816  26048.9  160.589
 11.6236  25703.4  159.74
 11.6656  25775.2  159.124
 11.7076  25080.9  157.797
 11.7496  25553.8  163.207
 11.7916  26029.8  160.007
 11.8336  24807.9  157.088
 11.8756  25238.6  157.976
 11.9176  24947  156.709
 11.9596  24305.4  154.873
 12.0016  24363.4  155.85
 12.0436  24109.4  154.457
 12.0856  23998  154.627
 12.1276  24004.6  154.564
 12.1696  24135.1  154.123
 12.2116  24660.9  155.789
 12.2536  27340  164.917
 12.2956  24738  156.2
 12.3376  24297.1  155.009
 12.3796  24094.3  154.824
 12.4216  24344.4  154.841
 12.4636  25619.9  159.787
 12.5056  23986.3  153.888
 12.5476  23923.8  153.216
 12.5896  23979.8  154.022
 12.6316  23778.4  153.531
 12.6736  23666.4  153.655
 12.7156  23879.1  154.198
 12.7576  23589.3  153.507
 12.7996  24011.1  153.52
 12.8416  24441  155.947
 12.8836  25153.3  158.033
 12.9256  24787.3  155.881
 12.9676  24515.4  155.453
 13.0096  24045.1  155.041
 13.0516  24243.9  154.722
 13.0936  24034.8  154.449
 13.1356  24530.7  155.026
 13.1776  24477.1  155.836
 13.2196  24114.1  154.346
 13.2616  24201.6  154.932
 13.3036  24143  154.714
 13.3456  24266.9  155.468
 13.3876  24514.6  155.549
 13.4296  24362.7  155.217
 13.4716  24555.4  155.441
 13.5136  24348.7  154.934
 13.5556  24453.2  155.879
 13.5976  24277.1  155.458
 13.6396  24892.3  156.788
 13.6816  24293.3  155.375
 13.7236  25060.9  157.458
 13.7656  24640.2  156.664
 13.8076  25410.8  157.858
 13.8496  24301.5  154.969
 13.8916  24400.2  156.295
 13.9336  23996.9  154.229
 13.9756  23821  153.022
 14.0176  24056.2  154.455
 14.0596  25027.5  157.506
 14.1016  23589.8  153.303
 14.1436  23133.7  150.955
 14.1856  23056.9  151.002
 14.2276  23254.8  152.128
 14.2696  23511.4  152.804
 14.3116  22876.4  150.639
 14.3536  22333.3  149.006
 14.3956  22360.5  148.833
 14.4376  22468.8  148.971
 14.4796  22502.6  149.074
 14.5216  22021.7  148.267
 14.5636  22668.4  149.986
 14.6056  22102.6  147.681
 14.6476  21760.2  145.769
 14.6896  21500.2  145.436
 14.7316  20970.7  144.639
 14.7736  20977.3  143.831
 14.8156  20790.9  143.219
 14.8576  20922.9  143.529
 14.8996  20721.2  144.034
 14.9416  20265.9  142.451
 14.9836  20478.9  143.152
 15.0256  20078  140.679
 15.0676  20030.9  140.83
 15.1096  19717.7  139.464
 15.1516  19495.4  139.226
 15.1936  19602.5  139.042
 15.2356  19443  138.753
 15.2776  19336.3  137.958
 15.3196  19196.5  138.46
 15.3616  18855.8  136.985
 15.4036  18781.8  136.571
 15.4456  19249.6  137.914
 15.4876  18719.7  135.684
 15.5296  18700.9  135.9
 15.5716  18239.5  133.812
 15.6136  18133.1  133.747
 15.6556  21084.9  143.416
 15.6976  18624.8  135.084
 15.7396  18498.9  135.02
 15.7816  18379.7  134.09
 15.8236  17992.9  133.376
 15.8656  17917  132.883
 15.9076  17876.3  132.557
 15.9496  18482  137.637
 15.9916  17411.7  134.027
 16.0336  17040.6  129.513
 16.0756  17330.1  130.919
 16.1176  17008.5  129.765
 16.1596  16760.3  129.982
 16.2016  16979  129.582
 16.2436  16660.3  128.745
 16.2856  16781.1  128.755
 16.3276  16226.9  127.022
 16.3696  16555.5  128.122
 16.4116  16283.2  127.517
 16.4536  16498.3  128.139
 16.4956  17224  130.662
 16.5376  16467.3  127.951
 16.5796  16420  127.124
 16.6216  16232.4  126.701
 16.6636  16381.1  127.431
 16.7056  16204.9  126.613
 16.7476  16309.4  126.554
 16.7896  16350.8  127.464
 16.8316  16145.5  126.626
 16.8736  16552.6  128.47
 16.9156  16328.3  127.93
 16.9576  16036  127.579
 16.9996  16193.9  128.697
 17.0416  15979.8  126.204
 17.0836  15802.7  125.256
 17.1256  15527.6  124.18
 17.1676  16417.5  127.683
 17.2096  16082.2  126.246
 17.2516  15851.3  125.122
 17.2936  15681  124.766
 17.3356  14991.3  121.998
 17.3776  15106.3  122.654
 17.4196  15307.5  123.166
 17.4616  15449  123.651
 17.5036  16096.9  126.585
 17.5456  14814  122.076
 17.5876  14837  121.227
 17.6296  14952.2  121.519
 17.6716  15207.8  123.12
 17.7136  15889  125.992
 17.7556  14985.4  122.657
 17.7976  15283.9  123.612
 17.8396  15112.9  122.409
 17.8816  14859.5  121.93
 17.9236  14590.5  120.628
 17.9656  15060.1  123.101
 18.0076  15580.6  124.779
 18.0496  16235.1  126.465
 18.0916  21256.1  145.353
 18.1336  18291.7  134.947
 18.1756  16050.7  125.924
 18.2176  16230.8  126.867
 18.2596  14862.9  121.132
 18.3016  15483  123.899
 18.3436  16097  126.332
 18.3856  15095.7  122.478
 18.4276  14830  121.063
 18.4696  15037.8  122.01
 18.5116  14976.4  122.053
 18.5536  14730.5  121.406
 18.5956  14842.6  121.414
 18.6376  14744.3  121.424
 18.6796  14622.6  120.233
 18.7216  14782.5  121.382
 18.7636  14323.3  119.476
 18.8056  14041  118.233
 18.8476  13960.1  118.516
 18.8896  14014.6  118.082
 18.9316  14263.5  119.116
 18.9736  13960.7  117.541
 19.0156  14556.5  120.432
 19.0576  14451.5  118.849
 19.0996  14167.5  118.392
 19.1416  14178.7  118.825
 19.1836  13845.7  117.031
 19.2256  13674.3  116.513
 19.2676  13929.8  117.687
 19.3096  13957.7  118.054
 19.3516  13893.5  117.741
 19.3936  13888.5  117.619
 19.4356  13963.1  117.799
 19.4776  14064.9  118.333
 19.5196  13821.6  117.155
 19.5616  14006.8  118.196
 19.6036  13994.6  117.641
 19.6456  14031.4  117.916
 19.6876  14554.7  119.734
 19.7296  13988.8  117.836
 19.7716  13997.9  118.039
 19.8136  14228.1  119.215
 19.8556  14634.5  120.376
 19.8976  14797.6  121.111
 19.9396  14506.6  119.485
 19.9816  14530.4  119.827
 20.0236  14891.1  121.528
 20.0656  14037.2  117.987
 20.1076  13615.2  116.656
 20.1496  13567.6  116.458
 20.1916  13554.4  115.919
 20.2336  13658.2  116.299
 20.2756  13396.5  115.603
 20.3176  13380.5  115.284
 20.3596  13355.9  115.159
 20.4016  13441.1  115.328
 20.4436  13484.3  116.066
 20.4856  13232.3  114.769
 20.5276  13351.4  115.747
 20.5696  13340.1  115.158
 20.6116  13316.1  115.325
 20.6536  13244.8  114.526
 20.6956  13085.4  113.956
 20.7376  13269.1  114.993
 20.7796  13120.4  114.031
 20.8216  13314.6  114.581
 20.8636  13516  115.807
 20.9056  14605.1  120.333
 20.9476  13416.2  115.177
 20.9896  14266.6  118.633
 21.0316  13312.3  114.49
 21.0736  13487  115.763
 21.1156  13906.8  117.72
 21.1576  13289.4  115.123
 21.1996  13107.2  114.313
 21.2416  12864.4  113.074
 21.2836  13152.2  114.3
 21.3256  13006.1  113.749
 21.3676  13180.3  114.054
 21.4096  13473.4  115.633
 21.4516  12942.6  113.212
 21.4936  12844.9  113.037
 21.5356  13092  114.058
 21.5776  13006.9  113.523
 21.6196  13108.9  114.006
 21.6616  13036.1  113.764
 21.7036  12828.2  112.644
 21.7456  12695.4  112.134
 21.7876  12634.9  111.618
 21.8296  12513  110.937
 21.8716  12681.1  111.908
 21.9136  12879.7  112.984
 21.9556  13059  113.434
 21.9976  12884.3  112.683
 22.0396  12716.2  112.205
 22.0816  12760.2  112.947
 22.1236  13205.4  114.339
 22.1656  12833.6  112.843
 22.2076  12635.7  111.452
 22.2496  12683.4  111.687
 22.2916  12843.1  112.264
 22.3336  12911.8  113.301
 22.3756  12666.9  111.943
 22.4176  12657.8  111.757
 22.4596  12460  111.47
 22.5016  12748.7  112.246
 22.5436  12798.7  112.347
 22.5856  12721.9  112.252
 22.6276  12530.2  111.542
 22.6696  12606.1  112.229
 22.7116  12563  111.548
 22.7536  12604.2  111.71
 22.7956  12550.2  110.801
 22.8376  12571.4  111.422
 22.8796  12486.4  110.844
 22.9216  12594  111.868
 22.9636  12509.5  110.646
 23.0056  12702  111.629
 23.0476  12822.4  112.733
 23.0896  12744.2  111.764
 23.1316  12945.6  113.085
 23.1736  12452.6  113.837
 23.2156  12486.8  111.38
 23.2576  12599.6  112.014
 23.2996  12519.7  111.447
 23.3416  12484.4  111.808
 23.3836  12508.6  111.154
 23.4256  12493.7  111.201
 23.4676  12599.8  111.368
 23.5096  12581.4  111.964
 23.5516  12463  110.719
 23.5936  12652.3  112.461
 23.6356  12814.2  112.847
 23.6776  12444  111.418
 23.7196  12396.5  110.784
 23.7616  12513.7  111.221
 23.8036  12590.6  111.597
 23.8456  12521.4  110.869
 23.8876  12153.1  109.572
 23.9296  12172.9  110.153
 23.9716  12301  109.915
 24.0136  12272.3  110.689
 24.0556  12189  110.051
 24.0976  12098.7  109.446
 24.1396  12099.8  112.107
 24.1816  12071.8  110.39
 24.2236  12183.4  110.508
 24.2656  12145.4  109.805
 24.3076  12202.1  110.307
 24.3496  12267.8  110.504
 24.3916  12064.7  109.629
 24.4336  11961.4  109.366
 24.4756  11984.5  109.347
 24.5176  11725  107.807
 24.5596  11624.5  107.471
 24.6016  11613.9  107.706
 24.6436  11783  107.968
 24.6856  11756.5  107.617
 24.7276  11844.7  108.338
 24.7696  11794.4  108.221
 24.8116  11671.7  107.837
 24.8536  11651.7  107.739
 24.8956  11528.2  106.908
 24.9376  11529  106.851
 24.9796  11518.2  107.155
 25.0216  11515.9  107.256
 25.0636  11520.1  106.926
 25.1056  11186.4  106.069
 25.1476  11229.8  107.928
 25.1896  11401.8  107.229
 25.2316  11475.5  106.834
 25.2736  11517.3  106.685
 25.3156  11175.4  105.165
 25.3576  11190  105.651
 25.3996  11215.1  105.757
 25.4416  11269  105.99
 25.4836  11176.9  106.085
 25.5256  11057.2  104.88
 25.5676  11367.4  106.065
 25.6096  11040.2  105.103
 25.6516  11125.5  105.008
 25.6936  11109.5  105.239
 25.7356  11016  104.935
 25.7776  11090.5  104.895
 25.8196  11090.6  105.125
 25.8616  11063  104.922
 25.9036  11323.6  105.613
 25.9456  10914.2  104.283
 25.9876  10794.6  103.77
 26.0296  11028  104.397
 26.0716  10993.9  104.656
 26.1136  11182.9  105.499
 26.1556  11212.2  105.011
 26.1976  10915.7  104.534
 26.2396  11034.3  104.253
 26.2816  10987.5  104.647
 26.3236  11090.1  105.291
 26.3656  10874.8  103.987
 26.4076  10851.9  104.095
 26.4496  11298.2  105.696
 26.4916  11014.9  104.364
 26.5336  10880.5  104.047
 26.5756  11158.9  105.239
 26.6176  11086.1  104.943
 26.6596  10709.1  103.45
 26.7016  10705.1  103.187
 26.7436  10596  102.785
 26.7856  10520.6  102.405
 26.8276  10571.1  102.605
 26.8696  10655.4  102.888
 26.9116  10602.6  102.568
 26.9536  10465.7  101.948
 26.9956  10533.3  102.316
 27.0376  10474.7  102.248
 27.0796  10618.6  102.678
 27.1216  10713.2  103.209
 27.1636  10500.2  102.344
 27.2056  10505.4  102.254
 27.2476  10445.3  101.96
 27.2896  10428.4  101.991
 27.3316  10334.1  101.237
 27.3736  10333.2  101.501
 27.4156  10222.2  100.798
 27.4576  10491.1  102.348
 27.4996  10463.1  101.802
 27.5416  10406.5  101.849
 27.5836  10458.5  101.918
 27.6256  10550.6  102.521
 27.6676  10517.1  102.393
 27.7096  10418.1  101.777
 27.7516  10962.5  104.557
 27.7936  10793  103.913
 27.8356  10747.6  103.305
 27.8776  10510.4  102.204
 27.9196  10390.2  101.468
 27.9616  10582  102.601
 28.0036  10345.9  101.422
 28.0456  10227.4  100.972
 28.0876  10259.3  101.216
 28.1296  10225.5  100.89
 28.1716  10120.5  100.379
 28.2136  10199.6  100.735
 28.2556  10098.4  100.352
 28.2976  10067.4  100.189
 28.3396  10294.5  101.065
 28.3816  10203.2  100.641
 28.4236  10403.4  101.782
 28.4656  9895.49  99.2994
 28.5076  9901.53  98.9667
 28.5496  9957.89  99.5111
 28.5916  9945.02  99.2549
 28.6336  9912.28  99.4277
 28.6756  10076.8  99.4504
 28.7176  9956.26  99.3946
 28.7596  9720.86  98.1194
 28.8016  9872.32  98.9158
 28.8436  9777.93  98.6816
 28.8856  9934.92  99.3194
 28.9276  9920.69  99.4965
 28.9696  9696.91  98.0296
 29.0116  9647.75  97.9632
 29.0536  9603.74  97.9359
 29.0956  9925.37  99.278
 29.1376  9876.16  98.9972
 29.1796  9703.75  98.1734
 29.2216  9660.82  97.8001
 29.2636  9682.37  97.9827
 29.3056  9593.61  97.3257
 29.3476  9683.12  98.2944
 29.3896  9848.73  99.2285
 29.4316  9817.03  98.4143
 29.4736  9713.53  97.9583
 29.5156  9796.08  98.2851
 29.5576  9760.23  98.8574
 29.5996  9817.83  98.4019
 29.6416  9707.47  97.9617
 29.6836  9698.9  97.8513
 29.7256  9737.77  98.6156
 29.7676  9732.36  98.2461
 29.8096  9619.69  97.6164
 29.8516  9430.53  96.9822
 29.8936  9680.11  98.3533
 29.9356  9566.13  97.5283
 29.9776  9639.43  98.0551
 30.0196  9742.4  97.9554
 30.0616  9771.71  98.4855
 30.1036  9541.59  97.142
 30.1456  9550.04  97.4219
 30.1876  9559.57  97.445
 30.2296  9511.12  97.1491
 30.2716  9511.17  96.7867
 30.3136  9700.67  98.6076
 30.3556  9498.97  97.5907
 30.3976  9530.64  99.2819
 30.4396  9702.61  97.4787
 30.4816  9525.51  96.1887
 30.5236  9458.87  95.8695
 30.5656  9531.38  96.8892
 30.6076  9490.83  96.113
 30.6496  9508.43  96.5865
 30.6916  9470.28  96.4892
 30.7336  9460.8  96.5909
 30.7756  9395.79  96.349
 30.8176  9407.94  96.3264
 30.8596  9442.82  96.2784
 30.9016  9319.78  95.9851
 30.9436  9440.8  96.361
 30.9856  9385.11  96.1784
 31.0276  9221.3  94.9525
 31.0696  9311.6  95.9893
 31.1116  9329.43  96.0572
 31.1536  9396.78  96.2894
 31.1956  9303.08  95.8897
 31.2376  9221.41  95.4848
 31.2796  9339.42  95.625
 31.3216  9280.93  95.2715
 31.3636  9273.53  95.921
 31.4056  9321.35  97.4894
 31.4476  9264.96  95.0832
 31.4896  9292.17  95.7181
 31.5316  9581.48  96.593
 31.5736  10114.2  99.0429
 31.6156  9952.2  98.2738
 31.6576  9544.43  96.3463
 31.6996  9600.17  96.295
 31.7416  9429.17  96.5047
 31.7836  9350.98  95.1109
 31.8256  9326.38  95.2566
 31.8676  9489.01  96.0833
 31.9096  9136.85  94.6351
 31.9516  8968.69  93.9173
 31.9936  9157.92  94.7314
 32.0356  9242.94  95.2366
 32.0776  9207.57  94.9388
 32.1196  9238.23  95.1834
 32.1616  9202.38  94.4604
 32.2036  9050.93  94.1861
 32.2456  9119.56  94.9257
 32.2876  8992.21  93.7571
 32.3296  9054.38  94.0487
 32.3716  9138.65  94.5899
 32.4136  9148.81  94.8616
 32.4556  9300.38  95.0125
 32.4976  9208.65  94.4538
 32.5396  9032.7  93.6164
 32.5816  9025.27  93.6946
 32.6236  9004.54  93.6576
 32.6656  9251.38  95.4829
 32.7076  9004.89  93.8522
 32.7496  8953.75  93.2483
 32.7916  8977.97  93.3447
 32.8336  9061.08  93.8755
 32.8756  9074.42  93.6608
 32.9176  9021.19  93.8673
 32.9596  9051.25  94.1
 33.0016  9003.9  93.6521
 33.0436  9007.15  93.8427
 33.0856  8860.77  93.1382
 33.1276  8925.9  93.2069
 33.1696  9069.44  93.7987
 33.2116  8999.26  93.6708
 33.2536  9011.7  93.7337
 33.2956  8937.05  93.4297
 33.3376  8886.79  92.9062
 33.3796  8976.91  93.5855
 33.4216  8900.82  92.7856
 33.4636  8838.62  92.6063
 33.5056  8840.37  92.8588
 33.5476  8825.16  92.7638
 33.5896  8928.55  93.0791
 33.6316  8707.43  92.2345
 33.6736  8667.1  92.2563
 33.7156  8703.37  92.4975
 33.7576  8773.74  92.4913
 33.7996  8958.89  93.2382
 33.8416  8670.7  91.9103
 33.8836  8872.14  92.748
 33.9256  8693.11  91.862
 33.9676  8901.79  92.8611
 34.0096  8640.75  91.7952
 34.0516  8592.37  91.1846
 34.0936  8664.57  91.8197
 34.1356  8808.79  92.329
 34.1776  8586.8  91.1709
 34.2196  8560.03  91.2091
 34.2616  8592.4  91.5161
 34.3036  8473.53  91.1257
 34.3456  8637.72  91.7628
 34.3876  8623.83  91.6417
 34.4296  8613.09  91.2793
 34.4716  8846.06  92.6641
 34.5136  8671.33  91.9408
 34.5556  8586.26  91.7464
 34.5976  8733.42  92.3318
 34.6396  8698.56  91.8566
 34.6816  8778.46  92.3911
 34.7236  8665.57  91.5827
 34.7656  8757.03  92.2586
 34.8076  8544.66  91.4566
 34.8496  8593.59  91.5704
 34.8916  8552.52  91.2329
 34.9336  8690.21  91.9279
 34.9756  8670.56  91.7361
 35.0176  8556.49  91.6547
 35.0596  8506.37  91.2141
 35.1016  8491.36  90.9102
 35.1436  8531.04  90.8075
 35.1856  8448.86  90.4937
 35.2276  8575.15  91.3428
 35.2696  8519.42  91.2403
 35.3116  8534.38  91.4117
 35.3536  8339.91  90.0799
 35.3956  8480.81  90.545
 35.4376  8496.03  91.1882
 35.4796  8519.76  91.372
 35.5216  8491.32  91.1728
 35.5636  8323.59  91.0121
 35.6056  8506.14  91.0181
 35.6476  8590.93  91.3647
 35.6896  8535.66  91.1625
 35.7316  8340.38  90.088
 35.7736  8407.37  90.6448
 35.8156  8382  90.5075
 35.8576  8447.12  91.1065
 35.8996  8582.12  91.7944
 35.9416  8695.57  91.8556
 35.9836  8391.19  90.629
 36.0256  8542.15  91.4599
 36.0676  8529.9  91.1514
 36.1096  8296.58  90.0311
 36.1516  8460.05  90.7993
 36.1936  8395.38  90.3017
 36.2356  8338.85  90.6274
 36.2776  8392.34  90.4075
 36.3196  8376.55  89.9875
 36.3616  8366.64  90.0735
 36.4036  8382.78  90.2063
 36.4456  8445.32  90.7613
 36.4876  8255.25  89.6725
 36.5296  8403.33  90.5125
 36.5716  8460.95  91.617
 36.6136  8523.36  90.7093
 36.6556  8701.09  91.8616
 36.6976  8422.73  90.8813
 36.7396  8418.72  90.5874
 36.7816  8451.23  91.1422
 36.8236  8312.96  90.3111
 36.8656  8323.1  90.4398
 36.9076  8302.2  90.2049
 36.9496  8130.1  89.253
 36.9916  8224.32  89.401
 37.0336  8437.52  90.8694
 37.0756  8328.47  90.0716
 37.1176  8198.84  89.6376
 37.1596  8224.14  89.7783
 37.2016  8251.46  90.158
 37.2436  8297.79  89.724
 37.2856  8243.06  89.6863
 37.3276  8336.19  89.533
 37.3696  8193.36  89.6494
 37.4116  8232.35  89.7691
 37.4536  8127.95  89.0608
 37.4956  8107.13  88.9902
 37.5376  8152.31  90.805
 37.5796  8080.07  90.3531
 37.6216  8022.3  88.2971
 37.6636  8031.98  88.2543
 37.7056  8096.19  88.797
 37.7476  8103.35  88.3656
 37.7896  7986.56  88.2328
 37.8316  7943.26  88.16
 37.8736  8144.1  88.7936
 37.9156  7988.14  87.9403
 37.9576  8186.11  88.9032
 37.9996  8068.91  87.9855
 38.0416  7966.88  88.2405
 38.0836  8259.95  89.7523
 38.1256  8250.52  89.6626
 38.1676  8032.65  88.6024
 38.2096  8151.45  88.8757
 38.2516  8026.88  88.4024
 38.2936  8100.86  88.6047
 38.3356  8107.72  88.5684
 38.3776  7944.96  87.938
 38.4196  8119.53  88.7529
 38.4616  8049.76  88.6025
 38.5036  8174.91  89.1298
 38.5456  8058.47  89.3351
 38.5876  8046.08  89.2974
 38.6296  7880.88  87.3555
 38.6716  7913.31  87.3302
 38.7136  7952.78  87.4887
 38.7556  7805.85  87.1771
 38.7976  8040.5  88.4162
 38.8396  7736.75  87.1778
 38.8816  7835.2  87.5113
 38.9236  8024.06  88.3678
 38.9656  7847.44  87.3062
 39.0076  7952.44  87.2949
 39.0496  8010.52  88.153
 39.0916  7957.89  87.5096
 39.1336  7880.58  87.4986
 39.1756  7878.53  87.5545
 39.2176  7857.92  87.9689
 39.2596  7845.73  87.8197
 39.3016  7822.33  87.2619
 39.3436  7821.56  87.6836
 39.3856  7965.77  87.9373
 39.4276  7890.4  88.0103
 39.4696  7863.12  87.4898
 39.5116  7952.83  88.4951
 39.5536  8100.08  89.7518
 39.5956  8071.61  88.6841
 39.6376  7996.08  88.2774
 39.6796  7989.8  87.9787
 39.7216  7941.01  87.8057
 39.7636  7933.99  88.3401
 39.8056  7921.47  88.0432
 39.8476  7862.56  87.9748
 39.8896  7883.58  87.7185
 39.9316  7905.47  88.0993
 39.9736  8016.7  88.2773
 40.0156  7964.4  87.8216
 40.0576  7846.32  87.5182
 40.0996  7980.45  87.4486
 40.1416  7968.16  88.1742
 40.1836  8001.13  88.2404
 40.2256  8059.44  88.6148
 40.2676  7991.36  88.3442
 40.3096  7996.71  88.2964
 40.3516  8090.2  88.9225
 40.3936  8013.36  88.0583
 40.4356  7964.52  87.9894
 40.4776  8062.04  88.9389
 40.5196  7990.99  88.6683
 40.5616  8106.14  88.9445
 40.6036  7978.08  88.4966
 40.6456  8002.62  88.2427
 40.6876  8145.34  89.011
 40.7296  8030.59  88.5169
 40.7716  7943.41  88.1563
 40.8136  7909.39  87.9169
 40.8556  7927.02  88.1494
 40.8976  7921.27  88.0407
 40.9396  7976.2  88.6934
 40.9816  8020.43  88.2208
 41.0236  8151.43  88.7205
 41.0656  8088.38  88.9136
 41.1076  8031.21  88.375
 41.1496  8004.8  88.1374
 41.1916  7892.23  87.839
 41.2336  7882.11  87.7676
 41.2756  7920.32  87.589
 41.3176  7970.5  88.479
 41.3596  8020.16  88.4855
 41.4016  7925.89  88.2254
 41.4436  7986.84  88.348
 41.4856  8022.82  88.7146
 41.5276  7922.93  88.175
 41.5696  7914.82  87.7622
 41.6116  7882.63  87.9745
 41.6536  7955.8  88.241
 41.6956  7967.78  88.3604
 41.7376  7893.07  87.9799
 41.7796  7858.63  87.6676
 41.8216  8071.31  89.0835
 41.8636  8011.3  88.6932
 41.9056  7914.79  87.9402
 41.9476  7998.98  88.643
 41.9896  7980.76  88.2046
 42.0316  8040  88.6218
 42.0736  7921.06  88.0718
 42.1156  7855.93  87.5483
 42.1576  7903.45  87.9123
 42.1996  8015.69  88.6752
 42.2416  7954.14  87.9165
 42.2836  7795.78  87.1461
 42.3256  7848.4  87.5583
 42.3676  7870.83  87.4862
 42.4096  7881.86  87.5117
 42.4516  7907.07  87.7356
 42.4936  7802.68  87.227
 42.5356  7922.02  88.0258
 42.5776  8005.98  88.4302
 42.6196  7888.07  87.8314
 42.6616  7735.6  87.149
 42.7036  7832.97  87.0782
 42.7456  7834.26  87.4368
 42.7876  7874.82  87.7617
 42.8296  7915.9  87.8265
 42.8716  7678.52  86.6582
 42.9136  7775.11  86.9937
 42.9556  7866.39  87.6292
 42.9976  7902.84  87.8017
 43.0396  7736.85  86.6054
 43.0816  7801.91  87.3367
 43.1236  7823.63  87.5299
 43.1656  7695.65  86.6402
 43.2076  7678.81  86.6475
 43.2496  7821.61  87.2671
 43.2916  7782.29  87.4122
 43.3336  7856.1  87.6623
 43.3756  7691.98  86.4956
 43.4176  7740.45  86.852
 43.4596  7728.52  86.6408
 43.5016  7706.36  86.9188
 43.5436  7638.73  86.4379
 43.5856  7702.25  86.8271
 43.6276  7712.25  86.7757
 43.6696  7643.81  86.6472
 43.7116  7752  86.754
 43.7536  7806.53  87.5499
 43.7956  7571.71  87.4043
 43.8376  7740.94  86.9167
 43.8796  7595.15  86.1748
 43.9216  7639.66  86.3442
 43.9636  7695.39  86.7691
 44.0056  7680.27  86.9084
 44.0476  7635.55  86.2933
 44.0896  7462.81  85.6485
 44.1316  7645.91  86.2169
 44.1736  7574.86  85.9436
 44.2156  7661.32  86.2801
 44.2576  7619.36  86.3697
 44.2996  7587.24  86.1585
 44.3416  7636.84  86.2032
 44.3836  7432.24  85.3589
 44.4256  7511.75  85.4628
 44.4676  7632.58  86.3062
 44.5096  7559.92  86.0387
 44.5516  7442.39  85.3316
 44.5936  7474.52  85.4669
 44.6356  7640.45  86.1489
 44.6776  7499.94  85.6701
 44.7196  7607.18  86.592
 44.7616  7443.99  86.9678
 44.8036  7397.32  85.1371
 44.8456  7468.77  85.7495
 44.8876  7424.82  85.3484
 44.9296  7552.97  85.5352
 44.9716  7545.98  85.9231
 45.0136  7517  85.6957
 45.0556  7552.77  85.8706
 45.0976  7435.12  85.3626
 45.1396  7397.77  84.8999
 45.1816  7430.05  85.0353
 45.2236  7413.58  84.8329
 45.2656  7450.68  85.5531
 45.3076  7309.8  84.5152
 45.3496  7412.18  85.414
 45.3916  7413.08  85.6878
 45.4336  7308.84  84.928
 45.4756  7357.1  85.0677
 45.5176  7389.68  84.871
 45.5596  7407.98  85.1007
 45.6016  7237.71  84.5258
 45.6436  7420.01  84.7699
 45.6856  7286.37  84.652
 45.7276  7274.23  85.8929
 45.7696  7292.73  85.6677
 45.8116  7330.45  85.3319
 45.8536  7326  85.1966
 45.8956  7339.54  84.626
 45.9376  7340.52  84.1039
 45.9796  7297.26  84.5299
 46.0216  7381.45  85.364
 46.0636  7345.19  84.2989
 46.1056  7343.65  84.2791
 46.1476  7440.53  85.4278
 46.1896  7348.17  85.0457
 46.2316  7377.66  85.0882
 46.2736  7138.38  84.0533
 46.3156  7388.24  85.1
 46.3576  7297.03  84.7738
 46.3996  7317.18  85.0503
 46.4416  7398.76  85.0947
 46.4836  7118.87  83.8269
 46.5256  7385.92  85.3163
 46.5676  7284.83  84.8443
 46.6096  7261.52  84.6477
 46.6516  7290.07  83.8619
 46.6936  7322.81  84.54
 46.7356  7362.48  84.8788
 46.7776  7239.15  85.002
 46.8196  7238.6  84.5901
 46.8616  7093.42  83.6888
 46.9036  7073.35  83.2347
 46.9456  7135.09  83.2447
 46.9876  7134.51  83.3192
 47.0296  7101.06  83.8018
 47.0716  7024.98  83.1783
 47.1136  7108.26  83.3579
 47.1556  7181.46  83.643
 47.1976  7256.19  84.1589
 47.2396  7113.96  83.7267
 47.2816  7104.19  83.3771
 47.3236  7112.89  83.7876
 47.3656  7102.79  83.6594
 47.4076  7084.08  83.361
 47.4496  7017.72  83.0655
 47.4916  7049.96  83.4342
 47.5336  7164.34  83.9313
 47.5756  7093.42  83.633
 47.6176  7020.52  83.0946
 47.6596  7016.69  82.7925
 47.7016  7192.44  83.6455
 47.7436  7165.88  83.818
 47.7856  7103.11  83.4745
 47.8276  7070.59  83.3391
 47.8696  7034.43  83.2064
 47.9116  7128.41  83.4773
 47.9536  7072.2  83.0891
 47.9956  7036.72  83.582
 48.0376  6957.51  82.8881
 48.0796  7079.29  83.7338
 48.1216  7107.24  83.7239
 48.1636  7171.09  83.6728
 48.2056  7145.49  83.7896
 48.2476  7183.98  84.3164
 48.2896  7090.55  83.6845
 48.3316  7012.82  83.1637
 48.3736  7006.98  83.1548
 48.4156  6989.8  82.9017
 48.4576  6934.72  82.8666
 48.4996  6998.57  82.707
 48.5416  7042.44  83.2883
 48.5836  7029.28  82.8907
 48.6256  7049.05  83.2139
 48.6676  6971.57  83.2592
 48.7096  7022.3  82.8419
 48.7516  7057.19  83.1926
 48.7936  6893.68  82.2887
 48.8356  6922.32  82.5039
 48.8776  6883.43  82.8319
 48.9196  7079.53  83.3723
 48.9616  6956.93  83.0315
 49.0036  6967.3  83.4339
 49.0456  6926.9  83.1582
 49.0876  7038.08  83.3716
 49.1296  6874.45  82.5696
 49.1716  6809.91  82.054
 49.2136  7013.07  83.1968
 49.2556  7011.42  83.2096
 49.2976  6929.71  82.7957
 49.3396  6907.13  82.7181
 49.3816  6986.83  82.6224
 49.4236  6847.65  82.2151
 49.4656  6813.39  82.0326
 49.5076  6795.81  81.6753
 49.5496  6931.4  82.5527
 49.5916  6916.76  82.3768
 49.6336  6884.32  82.3828
 49.6756  6892.04  82.6666
 49.7176  6840.48  82.2942
 49.7596  6927.43  82.5845
 49.8016  6896.18  82.3157
 49.8436  6792.29  81.9925
 49.8856  6845.15  82.3127
 49.9276  6783.37  82.038
 49.9696  6822.34  82.2587
 50.0116  6763.58  82.0289
 50.0536  6803.15  82.2211
 50.0956  6724.24  81.8131
 50.1376  6811.37  82.0341
 50.1796  6685.88  81.5505
 50.2216  6738.4  81.8666
 50.2636  6775.91  81.7134
 50.3056  6761.94  81.8023
 50.3476  6851.18  82.3612
 50.3896  6749.71  81.7188
 50.4316  6865.57  82.2555
 50.4736  6697.7  81.4605
 50.5156  6746.57  81.7549
 50.5576  6742.17  81.4862
 50.5996  6713.07  81.5832
 50.6416  6701.31  81.44
 50.6836  6770.34  81.9158
 50.7256  6677.75  81.2787
 50.7676  6734.45  81.937
 50.8096  6668.87  81.0831
 50.8516  6631.35  81.2668
 50.8936  6649.33  81.1611
 50.9356  6682.83  81.47
 50.9776  6745.33  82.0006
 51.0196  6645.99  81.5262
 51.0616  6723.82  81.3261
 51.1036  6703.11  81.5585
 51.1456  6598.64  80.8325
 51.1876  6592.81  80.1509
 51.2296  6729.35  81.6078
 51.2716  6645.61  80.8023
 51.3136  6573.25  80.8097
 51.3556  6613.5  80.6931
 51.3976  6610.17  80.8227
 51.4396  6493.47  80.3995
 51.4816  6558.56  80.6636
 51.5236  6561.88  80.7692
 51.5656  6482.88  79.8924
 51.6076  6591.96  80.6391
 51.6496  6638.4  81.1147
 51.6916  6525.54  80.7708
 51.7336  6606.63  81.3658
 51.7756  6690.97  81.5807
 51.8176  6494.34  80.473
 51.8596  6572.16  80.9741
 51.9016  6822.6  82.1085
 51.9436  6632.5  82.3793
 51.9856  6455.03  81.7194
 52.0276  6487.37  80.4548
 52.0696  6488.36  80.5205
 52.1116  6422.59  80.2336
 52.1536  6525.88  80.756
 52.1956  6560.23  80.4447
 52.2376  6610.02  80.9201
 52.2796  6500.34  80.0469
 52.3216  6527.48  80.9132
 52.3636  6525.38  80.48
 52.4056  6480.36  80.0588
 52.4476  6509.16  80.5984
 52.4896  6510.35  80.6603
 52.5316  6421.52  80.1506
 52.5736  6495.59  80.3401
 52.6156  6567.09  81.1592
 52.6576  6558.07  80.5461
 52.6996  6349.75  80.2137
 52.7416  6495.13  80.976
 52.7836  6414.88  80.3568
 52.8256  6487.47  80.0445
 52.8676  6291.47  79.3917
 52.9096  6464.13  80.5606
 52.9516  6543.32  81.4263
 52.9936  6398.2  80.9027
 53.0356  6292.8  79.252
 53.0776  6360.33  79.9345
 53.1196  6270.01  79.4892
 53.1616  6300.85  79.7312
 53.2036  6291.23  79.6174
 53.2456  6333.34  79.9899
 53.2876  6189.65  78.7913
 53.3296  6234.85  79.3981
 53.3716  6347.33  79.8612
 53.4136  6340.08  79.9596
 53.4556  6275.28  79.5803
 53.4976  6370.98  80.0365
 53.5396  6283.13  79.8703
 53.5816  6287.89  79.5364
 53.6236  6041.33  78.2953
 53.6656  6264.17  79.3601
 53.7076  6350  79.8627
 53.7496  6262.14  79.4238
 53.7916  6394.29  80.3897
 53.8336  6192.24  79.0051
 53.8756  6179.75  79.4671
 53.9176  6251.14  79.2834
 53.9596  6287.38  80.2748
 54.0016  6272.52  79.5128
 54.0436  6271.23  79.7238
 54.0856  6345.82  79.6171
 54.1276  6242.63  79.1626
 54.1696  6275.35  79.5429
 54.2116  6247.59  79.1275
 54.2536  6251.75  78.974
 54.2956  6330.31  79.5116
 54.3376  6247.77  79.4709
 54.3796  6293.01  79.6627
 54.4216  6287.04  79.6626
 54.4636  6273.09  79.5423
 54.5056  6297.32  79.5163
 54.5476  6282.42  79.7522
 54.5896  6319.19  79.824
 54.6316  6286.9  79.4732
 54.6736  6232.78  79.2034
 54.7156  6223.99  79.167
 54.7576  6157.14  78.7411
 54.7996  6222.34  79.2899
 54.8416  6276.28  79.68
 54.8836  6169.07  79.1108
 54.9256  6334.11  79.914
 54.9676  6249.33  79.2387
 55.0096  6305.58  79.6597
 55.0516  6257.78  79.5914
 55.0936  6254.52  79.1957
 55.1356  6195.53  78.8707
 55.1776  6194.06  79.1215
 55.2196  6176.97  78.7995
 55.2616  6209.26  79.2151
 55.3036  6170.78  79.1306
 55.3456  6230.89  79.6533
 55.3876  6215.03  79.3084
 55.4296  6192.95  79.144
 55.4716  6178.52  79.0797
 55.5136  6245.46  79.269
 55.5556  6261.7  79.4415
 55.5976  6157.91  78.8319
 55.6396  6168.04  78.8513
 55.6816  6072.93  78.1215
 55.7236  6244.47  79.2525
 55.7656  6256.61  79.0928
 55.8076  6252.14  79.0448
 55.8496  6185.28  78.9355
 55.8916  6163.71  79.0045
 55.9336  6164.59  78.8274
 55.9756  6240.22  79.2043
 56.0176  6145.72  78.7505
 56.0596  6238.2  79.3264
 56.1016  6208.56  79.1493
 56.1436  6131.28  78.9173
 56.1856  6270.92  79.5499
 56.2276  6149.56  78.8255
 56.2696  6148.23  78.797
 56.3116  6109.72  78.9446
 56.3536  6160.97  78.9381
 56.3956  6163.74  78.947
 56.4376  6149.32  78.8855
 56.4796  6156.39  78.7351
 56.5216  6095.2  78.707
 56.5636  6182.63  78.8679
 56.6056  6038.05  78.1645
 56.6476  6111.16  78.2731
 56.6896  6166.77  79.0677
 56.7316  6144.58  78.8369
 56.7736  6144.31  78.8352
 56.8156  6239.74  79.4418
 56.8576  6076.78  78.345
 56.8996  6074.39  78.2665
 56.9416  6174.6  79.2084
 56.9836  6069.22  78.0478
 57.0256  6057.28  78.2858
 57.0676  6152.41  79.0232
 57.1096  6190.83  79.0562
 57.1516  6233.61  79.3968
 57.1936  6174.24  78.7635
 57.2356  6187.84  79.1705
 57.2776  6133.91  78.7784
 57.3196  6146.38  79.2274
 57.3616  6127.86  78.6055
 57.4036  6072.72  78.3105
 57.4456  6055.09  78.1604
 57.4876  6159.89  78.6959
 57.5296  6054.1  78.3517
 57.5716  6011.81  78.0722
 57.6136  6181.27  78.9815
 57.6556  6116.93  78.7097
 57.6976  6139.17  78.6827
 57.7396  5972.44  77.9674
 57.7816  5983.54  78.388
 57.8236  6033.76  78.5162
 57.8656  6095.52  78.5769
 57.9076  6100.42  78.6258
 57.9496  6043.73  78.6199
 57.9916  6108.87  78.5551
 58.0336  6076.13  78.616
 58.0756  6119.6  78.5405
 58.1176  6126.68  78.5739
 58.1596  6041.97  78.595
 58.2016  6193.2  78.7977
 58.2436  6263.16  79.6595
 58.2856  6033.97  78.1074
 58.3276  6104.08  78.932
 58.3696  6032.29  78.216
 58.4116  5971.05  77.6851
 58.4536  6124.07  78.5601
 58.4956  6016.87  78.0487
 58.5376  6144.74  78.4455
 58.5796  6193.86  79.187
 58.6216  6232.78  79.241
 58.6636  6182.58  79.1422
 58.7056  6146.78  78.7696
 58.7476  6127.37  79.0882
 58.7896  6075.16  78.3963
 58.8316  6029.71  78.099
 58.8736  6251.87  79.5349
 58.9156  6019.96  78.0886
 58.9576  6164.01  79.3422
 58.9996  6321.83  79.5803
 59.0416  6294.78  79.7757
 59.0836  6175.29  78.9444
 59.1256  5965.08  78.2831
 59.1676  6091.49  79.4028
 59.2096  6098.33  78.7708
 59.2516  6226.63  79.1697
 59.2936  6234.66  79.5541
 59.3356  6052.56  78.2613
 59.3776  6264.62  79.7926
 59.4196  6026  78.194
 59.4616  5985.78  77.7934
 59.5036  5974.37  77.7546
 59.5456  6423.02  80.3049
 59.5876  6346.01  80.0179
 59.6296  6118.07  78.6374
 59.6716  6100.12  78.5801
 59.7136  6152.35  78.904
 59.7556  6232.37  79.5541
 59.7976  5965.29  77.5746
 59.8396  6214.1  79.0686
 59.8816  6174.5  79.3681
 59.9236  6198.9  79.1634
 59.9656  6061.92  78.545
 60.0076  6174.04  78.6183
 60.0496  6143.95  78.9338
 60.0916  6393.67  79.9241
 60.1336  6130.54  79.3779
 60.1756  6108.97  80.4293
 60.1996  0.0000000E+00  0.0000000E+00