File: docs/examples/XRD/IS17_D/Data/IS17_D/17_Da_f00070.xye
# /beamlines/bl04/projects/cycle2025-II/20250340211-lsimonelli/DATA/IS17_D/17_Da_f00070.xye : mythproc.py merge -s 0.006 -l 0.5 -f /beamlines/bl04/inhouse/ff/FlatField/ff_20Nov2024rod8mm60s_17keV.raw -b True -c true -o xye /beamlines/bl04/projects/cycle2025-II/20250340211-lsimonelli/DATA/IS17_D/17_Da_00070.dat
# IsMon = [6780545, 6784289, 6784293]  IsPos = [-1.4999, -2.4884, -3.4988]
# Wave = 0.4962  CalPath /beamlines/bl04/projects/cycle2025-II/20250340211-lsimonelli/DATA/Align/Si_Pos1_25keV_f00001.cal
# Date = 2025-09-24_13:02:53 Dt = 4.8000  Bin = 0.0060  <imon> = 6783042 +/- 1766 (Min/Max) 6780545 / 6784293
# icurr 251.8092  mocoIn 1.7184E-05  mocoOut 0.8059  i15 7.10032e+06  imon 6.78304e+06  i7 5.6667  iEMpd_timer 4.8000  iEMpd_1 3.3313E-08  iEMpd_2 7.9009E-08  iEMpd_3 1.6009E-08  iEMpd_4 4.7158E-08  iEMhp_timer 4.8000  iEMhp_1 4.9199E-06  iEMhp_2 -2.5312E-08  iEMhp_3 -2.4885E-08  iEMhp_4 -2.0426E-08
#      9776
 1.5856  39547.8  204.242
 1.6276  46371.3  217.366
 1.6696  53505.3  232.665
 1.7116  62100.1  251.146
 1.7536  71314.8  267.989
 1.7956  75707.3  276.808
 1.8376  71680.6  269.773
 1.8796  60355.5  245.727
 1.9216  48721.4  221.656
 1.9636  40786.8  201.973
 2.0056  36570.8  190.509
 2.0476  34077.1  185.915
 2.0896  32422.8  180.283
 2.1316  31708.7  177.429
 2.1736  30301.7  174.824
 2.2156  30370.5  173.618
 2.2576  29552.4  171.879
 2.2996  28661.7  169.889
 2.3416  28724.4  168.717
 2.3836  28320.4  167.63
 2.4256  27568.5  165.929
 2.4676  27371.5  165.1
 2.5096  27341.6  165.064
 2.5516  33132.8  185.864
 2.5936  121637  348.982
 2.6356  29074.3  171.337
 2.6776  26165.2  161.441
 2.7196  25423  159.637
 2.7616  25021.1  158.156
 2.8036  24676.9  157.233
 2.8456  24814.2  158.274
 2.8876  24156.1  156.034
 2.9296  23647.3  154.509
 2.9716  23723.2  154.26
 3.0136  23405  153.288
 3.0556  23214.7  153.046
 3.0976  23369.4  152.519
 3.1396  22982.5  151.951
 3.1816  22894  151.591
 3.2236  22390.8  149.907
 3.2656  22849.7  150.489
 3.3076  22698.4  151.422
 3.3496  22878.1  150.973
 3.3916  23289  152.159
 3.4336  23749.8  154.225
 3.4756  24096.7  155.282
 3.5176  24808.4  157.35
 3.5596  24832.7  159.838
 3.6016  24943.4  157.826
 3.6436  24148.4  156.37
 3.6856  23604.1  152.924
 3.7276  22805.8  151.388
 3.7696  22601.6  150.901
 3.8116  22183.6  149.39
 3.8536  22279  149.648
 3.8956  22247.5  149.37
 3.9376  22792.7  151.441
 3.9796  22140.2  148.774
 4.0216  22290.1  148.328
 4.0636  22115.4  149.197
 4.1056  22119.9  148.852
 4.1476  22280.7  149.71
 4.1896  22573.6  150.549
 4.2316  22746.7  150.953
 4.2736  23240.9  152.375
 4.3156  23502.6  153.453
 4.3576  24057.3  155.183
 4.3996  24606.8  157.2
 4.4416  25150.5  158.516
 4.4836  26192.3  161.912
 4.5256  26074.5  162.17
 4.5676  26060.1  162.371
 4.6096  26309.5  161.821
 4.6516  27059.4  163.819
 4.6936  27071.5  164.656
 4.7356  27875.2  166.918
 4.7776  27214  164.754
 4.8196  26719.3  163.902
 4.8616  26446  162.539
 4.9036  26084  161.181
 4.9456  26296.7  162.472
 4.9876  25723.3  160.595
 5.0296  25671.5  160.253
 5.0716  25486.4  160.44
 5.1136  25795.5  161.123
 5.1556  26162.3  161.73
 5.1976  33681.4  183.5
 5.2396  26860.4  163.571
 5.2816  26514  162.974
 5.3236  26377.4  162.256
 5.3656  26106.3  162.332
 5.4076  25636.3  161.011
 5.4496  26009.2  161.664
 5.4916  25953.3  161.256
 5.5336  26029  161.494
 5.5756  25859.9  161.007
 5.6176  25976.7  160.81
 5.6596  26222.2  162.531
 5.7016  26398.2  162.344
 5.7436  26503.4  162.937
 5.7856  26407.1  162.693
 5.8276  26856.5  163.803
 5.8696  27015.2  164.457
 5.9116  26972  164.923
 5.9536  27055.3  164.939
 5.9956  27464.7  165.545
 6.0376  27689.5  166.856
 6.0796  27913.8  167.365
 6.1216  27807  167.24
 6.1636  28080.3  167.135
 6.2056  28056.4  167.718
 6.2476  28171.6  167.941
 6.2896  28569.8  168.804
 6.3316  28232.9  167.984
 6.3736  28486.7  168.63
 6.4156  28440.1  168.392
 6.4576  28769.5  168.97
 6.4996  28933.6  169.919
 6.5416  28699.9  169.375
 6.5836  29300.9  171.361
 6.6256  28956.9  169.928
 6.6676  29528.9  171.168
 6.7096  29458.4  171.817
 6.7516  29836.2  172.566
 6.7936  30792.1  174.733
 6.8356  31352.5  176.394
 6.8776  31169.9  176.683
 6.9196  30555.1  175.336
 6.9616  30958  175.927
 7.0036  31373.6  176.763
 7.0456  31652.2  176.842
 7.0876  31263.4  177.432
 7.1296  31233.7  176.489
 7.1716  31240.2  176.051
 7.2136  31009.6  175.183
 7.2556  31292.9  176.142
 7.2976  31365.5  176.842
 7.3396  31122  176.361
 7.3816  31334.5  177.179
 7.4236  31545  177.068
 7.4656  31826.3  177.343
 7.5076  32099.5  178.235
 7.5496  31848  178.069
 7.5916  32158.7  178.964
 7.6336  32792.7  180.621
 7.6756  32588.5  179.908
 7.7176  32937.7  181.169
 7.7596  32879.7  182.265
 7.8016  37327.9  196.524
 7.8436  33895.1  183.909
 7.8856  33918.5  183.585
 7.9276  34667.6  185.997
 7.9696  34823.3  186.726
 8.0116  35845.8  187.975
 8.0536  36165.4  189.075
 8.0956  38250.3  195.654
 8.1376  36463.6  190.507
 8.1796  36840.8  192.034
 8.2216  37820.7  193.3
 8.2636  38812.3  196.068
 8.3056  37835.9  194.366
 8.3476  39665.3  198.321
 8.3896  38913.1  196.513
 8.4316  37958.6  194.251
 8.4736  38399  194.835
 8.5156  38033.8  194.187
 8.5576  37757.3  194.463
 8.5996  37551.1  192.79
 8.6416  37349.7  193.54
 8.6836  37417.3  193.547
 8.7256  38349  195.366
 8.7676  40044.9  202.684
 8.8096  40062.8  199.937
 8.8516  37694  193.544
 8.8936  39431.5  197.838
 8.9356  36830.2  191.558
 8.9776  36917.3  191.877
 9.0196  36752.9  191.115
 9.0616  37180.5  191.689
 9.1036  39246.2  198.196
 9.1456  36855.5  191.396
 9.1876  36124.9  189.449
 9.2296  36447.1  189.684
 9.2716  35453.7  187.152
 9.3136  35936.2  188.396
 9.3556  36057.4  188.701
 9.3976  34325.8  184.648
 9.4396  34963.6  186.248
 9.4816  34204.2  184.076
 9.5236  34518.1  184.823
 9.5656  34088.4  183.993
 9.6076  34172.3  184.748
 9.6496  33878.1  183.878
 9.6916  33782.4  183.584
 9.7336  33712.8  183.18
 9.7756  34247  185.878
 9.8176  33024.6  182.042
 9.8596  33077.3  180.631
 9.9016  32612.5  179.355
 9.9436  32633.2  179.322
 9.9856  32675.3  179.667
 10.0276  31828.6  178.434
 10.0696  31943.2  177.788
 10.1116  31423.5  176.601
 10.1536  31059.5  175.742
 10.1956  30465.5  173.654
 10.2376  30230.9  172.5
 10.2796  30190.6  172.503
 10.3216  30061.9  172.405
 10.3636  30241.1  172.948
 10.4056  32690.7  180.219
 10.4476  32771.2  180.059
 10.4896  36495.6  189.411
 10.5316  34206.2  184.148
 10.5736  29868.5  172.486
 10.6156  29511.6  171.222
 10.6576  33973.9  182.147
 10.6996  29302.3  169.821
 10.7416  28411.6  167.473
 10.7836  29655.4  171.798
 10.8256  27945.7  167.207
 10.8676  28071  167.111
 10.9096  27745.4  166.185
 10.9516  27601.4  164.671
 10.9936  28272.2  166.87
 11.0356  27921.1  166.471
 11.0776  29047.7  169.081
 11.1196  28755.5  169.004
 11.1616  27158.7  163.925
 11.2036  28205.5  166.908
 11.2456  29514.9  171.49
 11.2876  26799.7  163.136
 11.3296  26860.6  163.214
 11.3716  27382.9  164.489
 11.4136  26791.6  163.608
 11.4556  27425.5  165.185
 11.4976  28461.4  167.206
 11.5396  28456  167.361
 11.5816  26369.9  161.58
 11.6236  26015.4  160.703
 11.6656  25847.8  159.357
 11.7076  25478.2  159.038
 11.7496  25777.7  163.935
 11.7916  25998.9  159.913
 11.8336  25132.5  158.104
 11.8756  25438.3  158.6
 11.9176  25147.3  157.332
 11.9596  24686.3  156.089
 12.0016  24552.9  156.453
 12.0436  24552.3  155.877
 12.0856  24419  155.975
 12.1276  24242.2  155.33
 12.1696  24260.4  154.523
 12.2116  24994.2  156.836
 12.2536  26972.2  163.805
 12.2956  24947.3  156.853
 12.3376  24588.1  155.944
 12.3796  24321.9  155.549
 12.4216  24507.8  155.358
 12.4636  25297.2  158.778
 12.5056  24191.2  154.54
 12.5476  24259  154.285
 12.5896  24221.8  154.796
 12.6316  23877.5  153.858
 12.6736  23881.9  154.345
 12.7156  24123.4  154.993
 12.7576  23959  154.693
 12.7996  24447.3  154.908
 12.8416  24547.4  156.289
 12.8836  25368.4  158.699
 12.9256  24900.9  156.246
 12.9676  24817.8  156.403
 13.0096  24399.2  156.184
 13.0516  24847.1  156.639
 13.0936  24520.6  156.011
 13.1356  24903.8  156.199
 13.1776  24806.7  156.881
 13.2196  24377.5  155.185
 13.2616  24562.4  156.077
 13.3036  24464.4  155.742
 13.3456  24497.8  156.197
 13.3876  24712.9  156.183
 13.4296  24650.7  156.131
 13.4716  24887.6  156.49
 13.5136  24718.8  156.107
 13.5556  24696.9  156.649
 13.5976  24602.8  156.49
 13.6396  25046.2  157.265
 13.6816  24714.4  156.719
 13.7236  25289  158.168
 13.7656  24845.9  157.323
 13.8076  25430.3  157.921
 13.8496  24543.6  155.75
 13.8916  24485.1  156.566
 13.9336  24398.2  155.512
 13.9756  24157.4  154.093
 14.0176  24284.1  155.171
 14.0596  24989.6  157.386
 14.1016  23870.1  154.213
 14.1436  23436.6  151.951
 14.1856  23408.9  152.149
 14.2276  23466.8  152.824
 14.2696  23768.2  153.639
 14.3116  23275.7  151.934
 14.3536  22608.8  149.924
 14.3956  22647.1  149.78
 14.4376  22721  149.807
 14.4796  22540.9  149.202
 14.5216  22240.1  149.001
 14.5636  22617  149.821
 14.6056  22411.8  148.707
 14.6476  22232.7  147.345
 14.6896  21776.2  146.36
 14.7316  21521.2  146.534
 14.7736  21476.1  145.524
 14.8156  21180.6  144.554
 14.8576  21177.3  144.397
 14.8996  21026.4  145.092
 14.9416  20456.2  143.095
 14.9836  20607.3  143.595
 15.0256  20359.1  141.643
 15.0676  20075  140.969
 15.1096  20339.5  141.632
 15.1516  19794.5  140.279
 15.1936  19760  139.585
 15.2356  19534.3  139.064
 15.2776  19485.4  138.472
 15.3196  19415.2  139.233
 15.3616  19203.1  138.225
 15.4036  18946.4  137.151
 15.4456  19435.7  138.565
 15.4876  19099.9  137.037
 15.5296  18820.1  136.314
 15.5716  18580.2  135.05
 15.6136  18534.5  135.212
 15.6556  20707.1  142.109
 15.6976  18752.3  135.531
 15.7396  18730.9  135.849
 15.7816  18605.5  134.901
 15.8236  17911.6  133.058
 15.8656  18021.4  133.253
 15.9076  17884.4  132.575
 15.9496  18362.9  137.195
 15.9916  17577.3  134.658
 16.0336  17102.9  129.762
 16.0756  17535.2  131.699
 16.1176  17213.5  130.557
 16.1596  16958.8  130.759
 16.2016  17245.8  130.594
 16.2436  16943.9  129.842
 16.2856  16972.7  129.494
 16.3276  16474.2  127.99
 16.3696  16941.2  129.608
 16.4116  16485.3  128.313
 16.4536  16719.4  129.002
 16.4956  17371.1  131.234
 16.5376  16741.4  129.007
 16.5796  16571.1  127.711
 16.6216  16574  128.033
 16.6636  16689.9  128.631
 16.7056  16667.6  128.415
 16.7476  16669.2  127.947
 16.7896  16572.5  128.326
 16.8316  16512.8  128.061
 16.8736  16720.9  129.13
 16.9156  16497.8  128.6
 16.9576  16137.8  127.982
 16.9996  16404.7  129.528
 17.0416  16277.5  127.38
 17.0836  16173.4  126.733
 17.1256  15900.6  125.672
 17.1676  16403.5  127.639
 17.2096  16091.3  126.29
 17.2516  16012.5  125.76
 17.2936  15812.8  125.306
 17.3356  15329.5  123.38
 17.3776  15356.1  123.671
 17.4196  15381.7  123.464
 17.4616  15633  124.392
 17.5036  16172.6  126.886
 17.5456  15239.7  123.825
 17.5876  15341.8  123.279
 17.6296  15070  122.005
 17.6716  15200.9  123.109
 17.7136  15771.7  125.548
 17.7556  15173.5  123.432
 17.7976  15246.8  123.47
 17.8396  15101.8  122.374
 17.8816  15072.7  122.803
 17.9236  14887.1  121.857
 17.9656  15088.2  123.213
 18.0076  15656.2  125.084
 18.0496  16056.1  125.764
 18.0916  19658.8  139.761
 18.1336  17652.4  132.566
 18.1756  15964.4  125.577
 18.2176  16139.3  126.506
 18.2596  15086.4  122.038
 18.3016  15579.6  124.282
 18.3436  16016.7  126.011
 18.3856  15124.8  122.595
 18.4276  14912.6  121.397
 18.4696  15032.7  121.994
 18.5116  15074.9  122.453
 18.5536  14878.7  122.01
 18.5956  14826.2  121.346
 18.6376  14905.7  122.08
 18.6796  14730.7  120.68
 18.7216  15022.9  122.366
 18.7636  14443.1  119.981
 18.8056  14220  118.983
 18.8476  14125.7  119.214
 18.8896  14070.7  118.319
 18.9316  14551.9  120.31
 18.9736  14236.6  118.697
 19.0156  14531.4  120.329
 19.0576  14593.8  119.437
 19.0996  14450.1  119.565
 19.1416  14134.7  118.649
 19.1836  14142.6  118.278
 19.2256  13910.2  117.514
 19.2676  14127.3  118.523
 19.3096  14167  118.932
 19.3516  13955.3  118.001
 19.3936  14102.6  118.52
 19.4356  14202.3  118.816
 19.4776  13938.1  117.795
 19.5196  13948.5  117.688
 19.5616  14123.3  118.68
 19.6036  14033.5  117.803
 19.6456  14158.4  118.447
 19.6876  14615.8  119.981
 19.7296  14083.1  118.236
 19.7716  14123.9  118.567
 19.8136  14432.5  120.074
 19.8556  14838.5  121.21
 19.8976  14980.8  121.858
 19.9396  14780.5  120.606
 19.9816  14888.8  121.291
 20.0236  14851.8  121.368
 20.0656  14242.7  118.845
 20.1076  13820.9  117.54
 20.1496  13735.1  117.175
 20.1916  13815.5  117.036
 20.2336  13849.4  117.109
 20.2756  13507.2  116.08
 20.3176  13515.7  115.865
 20.3596  13488.7  115.723
 20.4016  13682.8  116.358
 20.4436  13613.1  116.608
 20.4856  13455.2  115.737
 20.5276  13371.3  115.836
 20.5696  13386.8  115.361
 20.6116  13412.8  115.745
 20.6536  13269.1  114.632
 20.6956  13301.6  114.9
 20.7376  13374.4  115.44
 20.7796  13205.3  114.392
 20.8216  13450.1  115.161
 20.8636  13614.3  116.235
 20.9056  14363.7  119.342
 20.9476  13554.2  115.764
 20.9896  14235.1  118.498
 21.0316  13571.7  115.593
 21.0736  13684.8  116.614
 21.1156  13826  117.372
 21.1576  13462.9  115.873
 21.1996  13130.2  114.414
 21.2416  13068  113.978
 21.2836  13326.2  115.05
 21.3256  13154.3  114.401
 21.3676  13180.6  114.056
 21.4096  13370  115.187
 21.4516  13078.7  113.805
 21.4936  12935.6  113.434
 21.5356  13089.1  114.044
 21.5776  13297.4  114.786
 21.6196  13157.4  114.204
 21.6616  13044.4  113.802
 21.7036  13104.9  113.854
 21.7456  12886  112.968
 21.7876  12804.5  112.364
 21.8296  12872.7  112.516
 21.8716  12881.4  112.786
 21.9136  13048  113.721
 21.9556  13167.7  113.903
 21.9976  12853  112.557
 22.0396  12822.7  112.674
 22.0816  12876.8  113.454
 22.1236  13215.7  114.387
 22.1656  13071.6  113.886
 22.2076  12996.8  113.02
 22.2496  12721.6  111.844
 22.2916  12963.5  112.784
 22.3336  12797.8  112.79
 22.3756  12955.8  113.2
 22.4176  12809.6  112.417
 22.4596  12591.7  112.045
 22.5016  12927.2  113.007
 22.5436  12919.7  112.864
 22.5856  12766.1  112.438
 22.6276  12645.9  112.043
 22.6696  12720.7  112.723
 22.7116  12618.1  111.784
 22.7536  12804.2  112.58
 22.7956  12808.1  111.925
 22.8376  12679.4  111.882
 22.8796  12663.4  111.605
 22.9216  12777.9  112.67
 22.9636  12860.4  112.176
 23.0056  12792.7  112.014
 23.0476  12872  112.935
 23.0896  13177.5  113.635
 23.1316  13099.8  113.742
 23.1736  12730.6  115.102
 23.2156  12811.3  112.823
 23.2576  12670.1  112.337
 23.2996  12715.6  112.318
 23.3416  12479.1  111.786
 23.3836  12745.8  112.206
 23.4256  12689.7  112.077
 23.4676  12725.6  111.932
 23.5096  12666.4  112.346
 23.5516  12645.1  111.527
 23.5936  12693  112.651
 23.6356  12961.8  113.494
 23.6776  12541.5  111.855
 23.7196  12484.6  111.179
 23.7616  12772.2  112.359
 23.8036  12609.4  111.687
 23.8456  12478.3  110.682
 23.8876  12315.6  110.315
 23.9296  12371.6  111.052
 23.9716  12439.6  110.532
 24.0136  12422.8  111.369
 24.0556  12270.4  110.42
 24.0976  12346.3  110.561
 24.1396  12196.2  112.542
 24.1816  12339.3  111.613
 24.2236  12195.7  110.568
 24.2656  12175.7  109.951
 24.3076  12123.2  109.965
 24.3496  12395.4  111.079
 24.3916  12318.8  110.789
 24.4336  12196.3  110.448
 24.4756  11908.5  109.002
 24.5176  11900.1  108.615
 24.5596  11841.5  108.476
 24.6016  11679.3  108.014
 24.6436  11948.3  108.747
 24.6856  11887.5  108.22
 24.7276  12012.8  109.105
 24.7696  11802.7  108.267
 24.8116  11903.7  108.906
 24.8536  11603.8  107.525
 24.8956  11508.8  106.823
 24.9376  11717.6  107.728
 24.9796  11606.4  107.571
 25.0216  11504.3  107.211
 25.0636  11511.2  106.893
 25.1056  11257.4  106.412
 25.1476  11519.8  109.342
 25.1896  11444.9  107.43
 25.2316  11500.5  106.955
 25.2736  11496.6  106.586
 25.3156  11371.8  106.085
 25.3576  11339.7  106.361
 25.3996  11317  106.228
 25.4416  11296.1  106.115
 25.4836  11194.5  106.166
 25.5256  11329.4  106.163
 25.5676  11397.6  106.202
 25.6096  11181  105.77
 25.6516  11245.4  105.568
 25.6936  11134.1  105.368
 25.7356  11129.1  105.474
 25.7776  11199  105.409
 25.8196  11134.6  105.339
 25.8616  11171.4  105.431
 25.9036  11397.6  105.959
 25.9456  11121.5  105.263
 25.9876  11059.9  105.037
 26.0296  11240.8  105.394
 26.0716  10962.2  104.515
 26.1136  11186.7  105.511
 26.1556  11435.1  106.045
 26.1976  11040.8  105.137
 26.2396  11068.8  104.414
 26.2816  11046.9  104.924
 26.3236  11093  105.304
 26.3656  11004.6  104.614
 26.4076  11125.5  105.393
 26.4496  11496.7  106.599
 26.4916  11085.2  104.695
 26.5336  10976.5  104.508
 26.5756  11167.9  105.283
 26.6176  11167.4  105.32
 26.6596  10915.2  104.435
 26.7016  10777.6  103.532
 26.7436  10691.2  103.251
 26.7856  10639.3  102.98
 26.8276  10613.9  102.813
 26.8696  10720.5  103.199
 26.9116  10632.4  102.72
 26.9536  10618.1  102.692
 26.9956  10637.6  102.822
 27.0376  10625.9  102.98
 27.0796  10684.5  102.999
 27.1216  10583.7  102.588
 27.1636  10557.7  102.625
 27.2056  10542.9  102.436
 27.2476  10627.3  102.847
 27.2896  10550.3  102.579
 27.3316  10542.2  102.257
 27.3736  10539.6  102.508
 27.4156  10372.1  101.536
 27.4576  10565.9  102.713
 27.4996  10480.4  101.893
 27.5416  10446.8  102.046
 27.5836  10467.1  101.956
 27.6256  10689.1  103.187
 27.6676  10679.4  103.174
 27.7096  10536.7  102.355
 27.7516  10981.8  104.639
 27.7936  10764  103.781
 27.8356  10725.6  103.205
 27.8776  10478  102.048
 27.9196  10386.7  101.449
 27.9616  10597.3  102.676
 28.0036  10463.4  101.994
 28.0456  10354.6  101.586
 28.0876  10151.9  100.687
 28.1296  10209.5  100.811
 28.1716  10276.6  101.155
 28.2136  10282.9  101.144
 28.2556  10214.2  100.93
 28.2976  10081.6  100.257
 28.3396  10269.1  100.942
 28.3816  10234  100.793
 28.4236  10254.4  101.043
 28.4656  10043.2  100.037
 28.5076  9994.76  99.4188
 28.5496  9981.55  99.6284
 28.5916  10052.3  99.7872
 28.6336  9868.94  99.2155
 28.6756  10183.2  99.9697
 28.7176  9965.36  99.4447
 28.7596  9885.32  98.9468
 28.8016  9962.87  99.364
 28.8436  9855.5  99.0746
 28.8856  9997.34  99.6312
 28.9276  10004.7  99.9175
 28.9696  9853.29  98.8105
 29.0116  9926.82  99.3705
 29.0536  9843.44  99.1558
 29.0956  9937.36  99.3396
 29.1376  9829.28  98.7594
 29.1796  9835.07  98.8377
 29.2216  9809.08  98.5475
 29.2636  9720.22  98.1724
 29.3056  9791.21  98.3198
 29.3476  9851.18  99.1509
 29.3896  9850.81  99.2395
 29.4316  9887.32  98.7568
 29.4736  9795.19  98.3583
 29.5156  9946.09  99.0307
 29.5576  9838.28  99.2428
 29.5996  9811.23  98.358
 29.6416  9814.35  98.4824
 29.6836  9801.7  98.3555
 29.7256  9709.91  98.4631
 29.7676  9890.53  99.0311
 29.8096  9711.07  98.0656
 29.8516  9621.78  97.9558
 29.8936  9641.9  98.1471
 29.9356  9873.36  99.0717
 29.9776  9781.18  98.7636
 30.0196  9764.22  98.0549
 30.0616  9651.82  97.8671
 30.1036  9731.22  98.0956
 30.1456  9682.34  98.0822
 30.1876  9605.41  97.6673
 30.2296  9613.9  97.6589
 30.2716  9642.71  97.4435
 30.3136  9708.04  98.6392
 30.3556  9702.21  98.629
 30.3976  9579.39  99.5299
 30.4396  9723.72  97.5955
 30.4816  9714.88  97.1415
 30.5236  9657.57  96.8819
 30.5656  9654.58  97.5164
 30.6076  9562.15  96.4797
 30.6496  9647.23  97.2946
 30.6916  9528.03  96.7811
 30.7336  9587.05  97.2353
 30.7756  9520.33  96.9914
 30.8176  9558.93  97.102
 30.8596  9648.99  97.3252
 30.9016  9548.7  97.1623
 30.9436  9466.57  96.4961
 30.9856  9564.91  97.1074
 31.0276  9471.44  96.2378
 31.0696  9481.37  96.8651
 31.1116  9576.3  97.3253
 31.1536  9492.86  96.7768
 31.1956  9408.37  96.4336
 31.2376  9353.17  96.1595
 31.2796  9461  96.2507
 31.3216  9439.55  96.0843
 31.3636  9459.25  96.8785
 31.4056  9447.38  98.1463
 31.4476  9238.83  94.9449
 31.4896  9193.9  95.2236
 31.5316  9592.97  96.6549
 31.5736  10058.5  98.7783
 31.6156  9768.91  97.3738
 31.6576  9653.42  96.898
 31.6996  9497.85  95.7845
 31.7416  9473.57  96.7256
 31.7836  9382.12  95.266
 31.8256  9229.22  94.7706
 31.8676  9313.36  95.1889
 31.9096  9210.49  95.022
 31.9516  9276.03  95.5154
 31.9936  9234  95.126
 32.0356  9333.93  95.706
 32.0776  9399.3  95.9274
 32.1196  9224.66  95.117
 32.1616  9377.78  95.3628
 32.2036  9145.26  94.6872
 32.2456  9144.06  95.0573
 32.2876  9174.92  94.7147
 32.3296  9078.59  94.1805
 32.3716  9156.41  94.6845
 32.4136  9304.75  95.6625
 32.4556  9219.87  94.5977
 32.4976  9340.63  95.1257
 32.5396  9298.63  94.9842
 32.5816  9030.87  93.728
 32.6236  9085.71  94.076
 32.6656  9278.19  95.6192
 32.7076  9037.08  94.0251
 32.7496  9137.49  94.2072
 32.7916  9234.38  94.6688
 32.8336  9110.79  94.1289
 32.8756  9160.85  94.1093
 32.9176  9136.87  94.4738
 32.9596  9093.69  94.3228
 33.0016  9125.08  94.28
 33.0436  9195  94.8133
 33.0856  9003.84  93.892
 33.1276  8967.11  93.4281
 33.1696  9227.01  94.6199
 33.2116  9120.21  94.2977
 33.2536  8990.9  93.6296
 33.2956  9027.65  93.9002
 33.3376  8931.73  93.1414
 33.3796  8976.99  93.5821
 33.4216  9084.43  93.7274
 33.4636  8999.77  93.4448
 33.5056  8918.16  93.2597
 33.5476  8900.8  93.1649
 33.5896  9047.64  93.6954
 33.6316  8796.34  92.7107
 33.6736  8848  93.2208
 33.7156  8845  93.2521
 33.7576  8972  93.5389
 33.7996  9101.71  93.9688
 33.8416  8797.28  92.579
 33.8836  8909.29  92.9396
 33.9256  8798.37  92.4245
 33.9676  8958.12  93.1547
 34.0096  8696.44  92.101
 34.0516  8756.62  92.0548
 34.0936  8652.31  91.7608
 34.1356  8960.2  93.1201
 34.1776  8778.64  92.1884
 34.2196  8855.66  92.7679
 34.2616  8724.82  92.2166
 34.3036  8677.54  92.2181
 34.3456  8655.03  91.8537
 34.3876  8648.86  91.7873
 34.4296  8639.19  91.4241
 34.4716  8855.09  92.7012
 34.5136  8794.65  92.5982
 34.5556  8774.08  92.7453
 34.5976  8821.22  92.7959
 34.6396  8779.76  92.2861
 34.6816  8693.57  91.9466
 34.7236  8804.96  92.3128
 34.7656  8736.77  92.1458
 34.8076  8650.68  92.0122
 34.8496  8742.68  92.3619
 34.8916  8601.71  91.4934
 34.9336  8831.89  92.6707
 34.9756  8750.36  92.161
 35.0176  8589.57  91.8419
 35.0596  8665.19  92.0703
 35.1016  8685.62  91.9451
 35.1436  8716.02  91.781
 35.1856  8595.84  91.2787
 35.2276  8584.14  91.3873
 35.2696  8650.65  91.941
 35.3116  8631.05  91.93
 35.3536  8546.31  91.1893
 35.3956  8543.76  90.88
 35.4376  8587.9  91.6638
 35.4796  8579.58  91.6925
 35.5216  8535.77  91.4134
 35.5636  8377.26  91.3027
 35.6056  8573.21  91.37
 35.6476  8599.99  91.4165
 35.6896  8550.36  91.2386
 35.7316  8511.48  91.0026
 35.7736  8386.31  90.5304
 35.8156  8484.7  91.0567
 35.8576  8543.12  91.6196
 35.8996  8688.31  92.3602
 35.9416  8953.28  93.1958
 35.9836  8454.28  90.9652
 36.0256  8515.23  91.3144
 36.0676  8519.44  91.0947
 36.1096  8334.03  90.2297
 36.1516  8453  90.764
 36.1936  8415.74  90.412
 36.2356  8432  91.134
 36.2776  8479.61  90.8782
 36.3196  8404.52  90.1366
 36.3616  8491.38  90.7395
 36.4036  8405.45  90.3319
 36.4456  8453.19  90.8003
 36.4876  8295.06  89.8887
 36.5296  8545.05  91.2681
 36.5716  8466.66  91.6452
 36.6136  8678.12  91.5161
 36.6556  8655.52  91.6104
 36.6976  8465.82  91.104
 36.7396  8533.54  91.1921
 36.7816  8410.58  90.9124
 36.8236  8516.36  91.4013
 36.8656  8357.06  90.6234
 36.9076  8299.55  90.1819
 36.9496  8262.91  89.9711
 36.9916  8424.3  90.4718
 37.0336  8536.3  91.391
 37.0756  8401.92  90.4589
 37.1176  8214.48  89.7131
 37.1596  8383.63  90.6376
 37.2016  8274.76  90.2759
 37.2436  8316.47  89.8162
 37.2856  8250.18  89.7131
 37.3276  8350.18  89.6003
 37.3696  8233.32  89.8577
 37.4116  8336.71  90.3242
 37.4536  8161.12  89.2374
 37.4956  8213.59  89.5686
 37.5376  8218.99  91.1644
 37.5796  8249.36  91.281
 37.6216  8174.39  89.1406
 37.6636  8156.82  88.9443
 37.7056  8109.63  88.8743
 37.7476  8204.09  88.9288
 37.7896  8207.92  89.4505
 37.8316  8041.94  88.7173
 37.8736  8192.69  89.0588
 37.9156  8113.81  88.6324
 37.9576  8183.55  88.8944
 37.9996  8068.14  87.9892
 38.0416  8185.01  89.4426
 38.0836  8268.13  89.7971
 38.1256  8172.1  89.2156
 38.1676  8157.18  89.2922
 38.2096  8224.03  89.2802
 38.2516  8281.82  89.793
 38.2936  8144.4  88.8492
 38.3356  8266.59  89.4263
 38.3776  8100.12  88.7963
 38.4196  8194.4  89.1595
 38.4616  8213.32  89.4902
 38.5036  8259.73  89.6001
 38.5456  8018.59  89.1145
 38.5876  8067.24  89.412
 38.6296  7966.03  87.8288
 38.6716  8007.9  87.8478
 38.7136  8035.37  87.9476
 38.7556  7957.74  88.0251
 38.7976  8004.29  88.2187
 38.8396  7970.17  88.4869
 38.8816  7976.66  88.2999
 38.9236  7987  88.1719
 38.9656  7932.91  87.7862
 39.0076  8050.99  87.8403
 39.0496  8091.76  88.6067
 39.0916  8078.06  88.1663
 39.1336  7984.21  88.0776
 39.1756  7979.23  88.1182
 39.2176  7945.22  88.459
 39.2596  8146.61  89.4957
 39.3016  8015.23  88.3386
 39.3436  7805.25  87.5988
 39.3856  8131.57  88.8535
 39.4276  8110.08  89.2408
 39.4696  7876.84  87.5672
 39.5116  7948.53  88.4867
 39.5536  8065.66  89.5607
 39.5956  8187.45  89.3157
 39.6376  8095.47  88.8144
 39.6796  7973.88  87.8858
 39.7216  8055.33  88.4386
 39.7636  8085.07  89.1685
 39.8056  8067.83  88.8596
 39.8476  8023.24  88.8667
 39.8896  7971.18  88.2104
 39.9316  8047.28  88.8835
 39.9736  8101.3  88.7417
 40.0156  7858.05  87.227
 40.0576  7971.16  88.2153
 40.0996  8134.18  88.2847
 40.1416  7993.15  88.3103
 40.1836  8071.38  88.6319
 40.2256  8203.24  89.4021
 40.2676  8023.14  88.5227
 40.3096  8042.4  88.5512
 40.3516  8123.91  89.1042
 40.3936  8128.64  88.6912
 40.4356  7993.84  88.1413
 40.4776  8008.28  88.641
 40.5196  8154.4  89.5695
 40.5616  8066.79  88.7322
 40.6036  8086.73  89.0946
 40.6456  8132.42  88.956
 40.6876  8207.43  89.343
 40.7296  8107.58  88.9397
 40.7716  8175.14  89.4429
 40.8136  8019.35  88.5259
 40.8556  8090.63  89.0549
 40.8976  8136.41  89.226
 40.9396  7951.67  88.5602
 40.9816  8091.82  88.6109
 41.0236  8121.83  88.5526
 41.0656  8127.53  89.1315
 41.1076  8161.76  89.0844
 41.1496  8013.53  88.1859
 41.1916  8102.97  89.0003
 41.2336  8002.72  88.4431
 41.2756  8001.36  88.0356
 41.3176  8031.66  88.8228
 41.3596  8039.72  88.5915
 41.4016  8028.64  88.7921
 41.4436  8177.9  89.3991
 41.4856  8086.05  89.0534
 41.5276  8072.69  89.0043
 41.5696  8046  88.4855
 41.6116  7949  88.3495
 41.6536  8174.94  89.4483
 41.6956  8124.19  89.2328
 41.7376  7948.9  88.2899
 41.7796  8013.07  88.5226
 41.8216  8036.68  88.8921
 41.8636  8078.56  89.0609
 41.9056  7896.83  87.847
 41.9476  8093.31  89.1728
 41.9896  7957.12  88.0831
 42.0316  8050.17  88.6765
 42.0736  7975.34  88.379
 42.1156  8016.24  88.4368
 42.1576  8075.36  88.8537
 42.1996  7967.07  88.4063
 42.2416  8051.94  88.4502
 42.2836  7927.58  87.8794
 42.3256  7809.08  87.3391
 42.3676  7991.32  88.1531
 42.4096  7943.74  87.8502
 42.4516  7982.31  88.1594
 42.4936  7862.42  87.5591
 42.5356  7931.95  88.0748
 42.5776  8007.43  88.4378
 42.6196  8086.13  88.922
 42.6616  7864.91  87.8704
 42.7036  7995.9  87.9796
 42.7456  7969.62  88.192
 42.7876  7930.58  88.0697
 42.8296  7884.75  87.6571
 42.8716  7814.82  87.4237
 42.9136  7882.71  87.5915
 42.9556  7916.47  87.9106
 42.9976  8093.85  88.854
 43.0396  7952.81  87.8082
 43.0816  7922.99  88.0233
 43.1236  7785.51  87.3164
 43.1656  7724.85  86.8013
 43.2076  7841.58  87.5623
 43.2496  7872.68  87.548
 43.2916  7813.58  87.5862
 43.3336  7757  87.108
 43.3756  7807.15  87.1422
 43.4176  7808.36  87.2321
 43.4596  7740.31  86.7052
 43.5016  7797.66  87.4336
 43.5436  7783.18  87.2497
 43.5856  7785.88  87.2846
 43.6276  7836.19  87.4627
 43.6696  7681.74  86.8588
 43.7116  7855.71  87.3323
 43.7536  7841.86  87.7461
 43.7956  7599.62  87.5715
 43.8376  7795.17  87.2138
 43.8796  7710.27  86.8167
 43.9216  7759.72  87.0127
 43.9636  7750.96  87.0721
 44.0056  7697.62  87.0037
 44.0476  7705.76  86.6798
 44.0896  7640.17  86.6528
 44.1316  7656.14  86.2655
 44.1736  7696.71  86.6166
 44.2156  7660.76  86.2739
 44.2576  7676.91  86.6872
 44.2996  7650.82  86.5104
 44.3416  7583.74  85.8872
 44.3836  7568.86  86.1337
 44.4256  7533.41  85.5772
 44.4676  7565.44  85.9167
 44.5096  7613.98  86.3366
 44.5516  7639.07  86.4409
 44.5936  7436.32  85.2335
 44.6356  7548.68  85.621
 44.6776  7607.5  86.2738
 44.7196  7471.22  85.8045
 44.7616  7578.3  87.7525
 44.8036  7441.86  85.3956
 44.8456  7555.98  86.2421
 44.8876  7523.07  85.9118
 44.9296  7580.84  85.6992
 44.9716  7533.68  85.8656
 45.0136  7598.71  86.1524
 45.0556  7557.76  85.9084
 45.0976  7655.45  86.6163
 45.1396  7382.33  84.8328
 45.1816  7515.99  85.5172
 45.2236  7476.18  85.1961
 45.2656  7459.05  85.5944
 45.3076  7383.81  84.9518
 45.3496  7481.33  85.8173
 45.3916  7516.33  86.2861
 45.4336  7476.5  85.9043
 45.4756  7392.34  85.2708
 45.5176  7408.15  84.9838
 45.5596  7548.5  85.901
 45.6016  7465.35  85.8501
 45.6436  7441.64  84.8964
 45.6856  7382.51  85.2069
 45.7276  7236.88  85.657
 45.7696  7439.69  86.5231
 45.8116  7415.46  85.825
 45.8536  7216.88  84.5651
 45.8956  7440.39  85.2136
 45.9376  7437.93  84.6651
 45.9796  7393.41  85.093
 46.0216  7338.23  85.1215
 46.0636  7398.1  84.6114
 46.1056  7371.9  84.4471
 46.1476  7390.84  85.1468
 46.1896  7505.49  85.953
 46.2316  7380.35  85.1069
 46.2736  7280.79  84.8957
 46.3156  7204.09  84.0373
 46.3576  7311.31  84.8633
 46.3996  7353.08  85.2619
 46.4416  7399.99  85.1079
 46.4836  7268.87  84.7027
 46.5256  7369.69  85.2332
 46.5676  7401.56  85.5318
 46.6096  7326.02  85.0308
 46.6516  7414.13  84.5803
 46.6936  7396.36  84.9716
 46.7356  7383.13  85.0044
 46.7776  7173.71  84.6174
 46.8196  7251.98  84.6743
 46.8616  7178.35  84.1821
 46.9036  7161.76  83.7465
 46.9456  7249.94  83.9082
 46.9876  7177.78  83.57
 47.0296  7288  84.9012
 47.0716  7136.72  83.8366
 47.1136  7218.34  83.9965
 47.1556  7204.05  83.7787
 47.1976  7212.42  83.9037
 47.2396  7219.65  84.3495
 47.2816  7118.89  83.4539
 47.3236  7205.48  84.3332
 47.3656  7269.96  84.6395
 47.4076  7148.4  83.7292
 47.4496  7169.19  83.9504
 47.4916  7113.39  83.8092
 47.5336  7210.16  84.1974
 47.5756  7162.86  84.0373
 47.6176  7188.68  84.0871
 47.6596  7129.76  83.4569
 47.7016  7320.37  84.3824
 47.7436  7143.6  83.6907
 47.7856  7233.24  84.2429
 47.8276  7132.52  83.7039
 47.8696  7150.43  83.8913
 47.9116  7219.51  84.0113
 47.9536  7080.77  83.138
 47.9956  7048.75  83.6557
 48.0376  7044.72  83.4069
 48.0796  7138.89  84.0852
 48.1216  7233.38  84.4569
 48.1636  7322.16  84.5548
 48.2056  7146.22  83.7918
 48.2476  7233.51  84.6139
 48.2896  7126.61  83.8896
 48.3316  7124.03  83.8244
 48.3736  6984.74  83.016
 48.4156  7040.94  83.208
 48.4576  7091.98  83.8015
 48.4996  7115.9  83.4006
 48.5416  7161.06  83.9935
 48.5836  7155.58  83.6371
 48.6256  7102  83.5272
 48.6676  7128.55  84.1961
 48.7096  7056.89  83.0362
 48.7516  7073.4  83.2872
 48.7936  7003.66  82.938
 48.8356  7020.99  83.0917
 48.8776  7046.76  83.8058
 48.9196  7194.39  84.0605
 48.9616  7054.44  83.6102
 49.0036  7082.32  84.129
 49.0456  6987.41  83.5395
 49.0876  7064.56  83.5299
 49.1296  6926.98  82.8704
 49.1716  6944.93  82.8566
 49.2136  7074.11  83.548
 49.2556  7009.16  83.1969
 49.2976  6933.01  82.8188
 49.3396  6960.3  83.0276
 49.3816  7095.86  83.275
 49.4236  7112.23  83.7914
 49.4656  6862.6  82.323
 49.5076  6981.45  82.7829
 49.5496  6949.17  82.6508
 49.5916  6973.01  82.7149
 49.6336  6962.6  82.8582
 49.6756  6956.92  83.056
 49.7176  6892.41  82.6083
 49.7596  6943.03  82.6818
 49.8016  6926.61  82.5087
 49.8436  6846.91  82.32
 49.8856  6865.89  82.4434
 49.9276  6925.76  82.8966
 49.9696  6873.32  82.567
 50.0116  6895.7  82.8234
 50.0536  6903.74  82.8228
 50.0956  6838.61  82.5085
 50.1376  6855.62  82.3109
 50.1796  6824.38  82.3904
 50.2216  6854.28  82.5616
 50.2636  6795.85  81.8341
 50.3056  6791.14  81.9776
 50.3476  6894.76  82.6242
 50.3896  6788.48  81.9565
 50.4316  6817.36  81.964
 50.4736  6852.97  82.398
 50.5156  6896.19  82.6396
 50.5576  6765.07  81.6201
 50.5996  6739.06  81.7428
 50.6416  6717.7  81.5411
 50.6836  6796.42  82.0707
 50.7256  6817.64  82.1352
 50.7676  6811.26  82.4105
 50.8096  6782.57  81.7752
 50.8516  6794.57  82.2589
 50.8936  6678.15  81.3305
 50.9356  6721.67  81.7034
 50.9776  6806.49  82.3693
 51.0196  6641.4  81.4893
 51.0616  6714.45  81.2668
 51.1036  6796.82  82.109
 51.1456  6782.74  81.9458
 51.1876  6814.58  81.4818
 51.2296  6778.42  81.8976
 51.2716  6654.96  80.8512
 51.3136  6723.76  81.723
 51.3556  6680.5  81.0897
 51.3976  6672.73  81.1934
 51.4396  6538.29  80.6727
 51.4816  6598.35  80.9012
 51.5236  6742.83  81.8663
 51.5656  6640.99  80.8521
 51.6076  6644.51  80.9518
 51.6496  6624.34  81.02
 51.6916  6533.73  80.8157
 51.7336  6679.14  81.8016
 51.7756  6731.28  81.8183
 51.8176  6543.18  80.7655
 51.8596  6466.41  80.3102
 51.9016  6771.1  81.7893
 51.9436  6545.05  81.8651
 51.9856  6517.1  82.1169
 52.0276  6522.47  80.6758
 52.0696  6575.27  81.0634
 52.1116  6593.76  81.2847
 52.1536  6593.7  81.1836
 52.1956  6718.32  81.4057
 52.2376  6680.85  81.3534
 52.2796  6600.14  80.6636
 52.3216  6535.07  80.9554
 52.3636  6645.48  81.2201
 52.4056  6549.46  80.4899
 52.4476  6533.34  80.7552
 52.4896  6492.96  80.5554
 52.5316  6471.69  80.4717
 52.5736  6563.7  80.7609
 52.6156  6586.52  81.2789
 52.6576  6625.5  80.9683
 52.6996  6403.3  80.5617
 52.7416  6582.35  81.5191
 52.7836  6528.31  81.0761
 52.8256  6505.03  80.1496
 52.8676  6317.16  79.5652
 52.9096  6576.94  81.2606
 52.9516  6500.75  81.1538
 52.9936  6476.95  81.3993
 53.0356  6524.46  80.7026
 53.0776  6361.75  79.9469
 53.1196  6290.26  79.622
 53.1616  6315.26  79.8248
 53.2036  6340.62  79.9407
 53.2456  6315.57  79.8885
 53.2876  6312.46  79.5711
 53.3296  6450.47  80.7656
 53.3716  6350.25  79.887
 53.4136  6396.34  80.3205
 53.4556  6291.76  79.6872
 53.4976  6357.99  79.9602
 53.5396  6335.63  80.2046
 53.5816  6290.41  79.5615
 53.6236  6300.26  79.9612
 53.6656  6492.33  80.7969
 53.7076  6466.66  80.599
 53.7496  6414.5  80.396
 53.7916  6428.53  80.6061
 53.8336  6320.62  79.8298
 53.8756  6203.91  79.6283
 53.9176  6325.05  79.7463
 53.9596  6447.72  81.2869
 54.0016  6317.56  79.7985
 54.0436  6307.22  79.9434
 54.0856  6410.44  80.0254
 54.1276  6412.63  80.243
 54.1696  6356.13  80.0535
 54.2116  6358.4  79.8319
 54.2536  6320.96  79.4105
 54.2956  6376.66  79.7985
 54.3376  6297.57  79.7828
 54.3796  6333.1  79.9124
 54.4216  6411  80.4409
 54.4636  6355.69  80.0542
 54.5056  6361.71  79.9205
 54.5476  6343.84  80.1418
 54.5896  6344.97  79.9863
 54.6316  6388.47  80.1112
 54.6736  6253.94  79.3389
 54.7156  6305.21  79.6805
 54.7576  6239.69  79.2655
 54.7996  6405.63  80.4472
 54.8416  6343.86  80.1111
 54.8836  6210.64  79.3822
 54.9256  6203.74  79.0885
 54.9676  6322.52  79.6951
 55.0096  6320.08  79.7489
 55.0516  6271.5  79.6757
 55.0936  6292.88  79.4369
 55.1356  6318.66  79.6425
 55.1776  6260.68  79.5507
 55.2196  6310.18  79.6436
 55.2616  6370.15  80.2371
 55.3036  6236.41  79.5487
 55.3456  6272.01  79.9217
 55.3876  6293.89  79.8013
 55.4296  6263.59  79.5863
 55.4716  6337.17  80.0909
 55.5136  6334.17  79.8215
 55.5556  6196.91  79.0334
 55.5976  6214.66  79.1976
 55.6396  6163.77  78.8271
 55.6816  6147.88  78.6014
 55.7236  6303.63  79.626
 55.7656  6266.6  79.1559
 55.8076  6294.38  79.3128
 55.8496  6266.78  79.4582
 55.8916  6276.48  79.7229
 55.9336  6212.01  79.1332
 55.9756  6274.95  79.4207
 56.0176  6282.39  79.6234
 56.0596  6258.66  79.45
 56.1016  6299.93  79.7193
 56.1436  6171.79  79.1737
 56.1856  6229.31  79.2834
 56.2276  6288.65  79.7163
 56.2696  6226.52  79.2961
 56.3116  6150.03  79.2092
 56.3536  6267.43  79.6174
 56.3956  6260.71  79.5655
 56.4376  6206.95  79.2556
 56.4796  6274.46  79.486
 56.5216  6221.45  79.5178
 56.5636  6297.48  79.5942
 56.6056  6164.23  78.9825
 56.6476  6206.11  78.8716
 56.6896  6167.36  79.078
 56.7316  6135.64  78.7773
 56.7736  6239.34  79.4415
 56.8156  6192.23  79.1434
 56.8576  6199.56  79.1265
 56.8996  6158.75  78.805
 56.9416  6144.72  79.0161
 56.9836  6109.49  78.3099
 57.0256  6138.53  78.8084
 57.0676  6115.42  78.7831
 57.1096  6249.7  79.4327
 57.1516  6255.65  79.535
 57.1936  6180.46  78.8013
 57.2356  6208.34  79.2993
 57.2776  6202.75  79.2185
 57.3196  6175.62  79.4126
 57.3616  6156.09  78.7853
 57.4036  6275.06  79.603
 57.4456  6137.24  78.6891
 57.4876  6233.93  79.1638
 57.5296  6170.22  79.1035
 57.5716  6112.06  78.7071
 57.6136  6156.07  78.819
 57.6556  6131.89  78.7971
 57.6976  6148.66  78.7307
 57.7396  6132.48  78.9995
 57.7816  6112.03  79.2295
 57.8236  6051.34  78.6256
 57.8656  6176.04  79.0957
 57.9076  6136.2  78.8698
 57.9496  6087.28  78.9037
 57.9916  6156.97  78.8618
 58.0336  6148.92  79.0924
 58.0756  6068.88  78.2111
 58.1176  6170.02  78.8523
 58.1596  6058.3  78.7041
 58.2016  6219.98  78.958
 58.2436  6174.72  79.0867
 58.2856  6171.59  78.9855
 58.3276  6175.31  79.3828
 58.3696  6165.65  79.0704
 58.4116  6178.01  79.0123
 58.4536  6219.59  79.1582
 58.4956  6048.62  78.2439
 58.5376  6239.08  79.0353
 58.5796  6087.58  78.4945
 58.6216  6217.14  79.1311
 58.6636  6189.93  79.1804
 58.7056  6152.26  78.794
 58.7476  6090.83  78.8487
 58.7896  6257.29  79.5561
 58.8316  6113.17  78.6293
 58.8736  6249.6  79.5086
 58.9156  6144.32  78.8812
 58.9576  6280.18  80.0664
 58.9996  6359.72  79.7978
 59.0416  6410.11  80.4809
 59.0836  6189.4  79.0275
 59.1256  6145.82  79.4513
 59.1676  6185.44  80.0252
 59.2096  6386.69  80.6015
 59.2516  6284.66  79.5278
 59.2936  6255.75  79.6785
 59.3356  6274.34  79.6722
 59.3776  6336.83  80.241
 59.4196  6206.03  79.3437
 59.4616  6079.21  78.3884
 59.5036  6153.72  78.9031
 59.5456  6343.73  79.7976
 59.5876  6295.86  79.691
 59.6296  6237.22  79.3894
 59.6716  6181.55  79.0929
 59.7136  6215.02  79.2949
 59.7556  6191.41  79.2823
 59.7976  6057.95  78.1649
 59.8396  6391.43  80.1787
 59.8816  6216.12  79.6251
 59.9236  6076.68  78.3692
 59.9656  6211.19  79.4963
 60.0076  6418.19  80.1476
 60.0496  6194.41  79.2484
 60.0916  6356.03  79.6785
 60.1336  6108.56  79.2255
 60.1756  6164.09  80.7811
 60.1996  0.0000000E+00  0.0000000E+00