File: docs/examples/XRD/IS17_D/Data/IS17_D/17_Da_f00052.xye
# /beamlines/bl04/projects/cycle2025-II/20250340211-lsimonelli/DATA/IS17_D/17_Da_f00052.xye : mythproc.py merge -s 0.006 -l 0.5 -f /beamlines/bl04/inhouse/ff/FlatField/ff_20Nov2024rod8mm60s_17keV.raw -b True -c true -o xye /beamlines/bl04/projects/cycle2025-II/20250340211-lsimonelli/DATA/IS17_D/17_Da_00052.dat
# IsMon = [6784446, 6785599, 6786682]  IsPos = [-1.4999, -2.4885, -3.4988]
# Wave = 0.4962  CalPath /beamlines/bl04/projects/cycle2025-II/20250340211-lsimonelli/DATA/Align/Si_Pos1_25keV_f00001.cal
# Date = 2025-09-24_08:02:26 Dt = 4.8000  Bin = 0.0060  <imon> = 6785576 +/- 913 (Min/Max) 6784446 / 6786682
# icurr 251.9930  mocoIn 1.7205E-05  mocoOut 0.8062  i15 7.10156e+06  imon 6.78558e+06  i7 4.6667  iEMpd_timer 4.8000  iEMpd_1 3.5707E-08  iEMpd_2 7.9147E-08  iEMpd_3 1.8227E-08  iEMpd_4 4.8926E-08  iEMhp_timer 4.8000  iEMhp_1 4.9252E-06  iEMhp_2 -2.5145E-08  iEMhp_3 -2.4452E-08  iEMhp_4 -2.2494E-08
#      9776
 1.5856  41659.9  209.603
 1.6276  48447.6  222.156
 1.6696  55186.6  236.268
 1.7116  63594.7  254.125
 1.7536  73014.3  271.136
 1.7956  78359.9  281.588
 1.8376  73860.8  273.817
 1.8796  62676.1  250.388
 1.9216  50559  225.774
 1.9636  42400.7  205.911
 2.0056  38411.4  195.225
 2.0476  35687.9  190.239
 2.0896  34623  186.281
 2.1316  33391.3  182.058
 2.1736  31883.7  179.312
 2.2156  32318  179.08
 2.2576  31064.6  176.203
 2.2996  30115.5  174.127
 2.3416  30391.5  173.527
 2.3836  29733.5  171.743
 2.4256  29008.7  170.19
 2.4676  28653  168.904
 2.5096  28393.3  168.192
 2.5516  27738.7  170.092
 2.5936  27731.1  166.628
 2.6356  27268.9  165.931
 2.6776  27180.8  164.54
 2.7196  26865.4  164.105
 2.7616  26526.4  162.841
 2.8036  26269.1  162.22
 2.8456  26475.9  163.485
 2.8876  25743.4  161.058
 2.9296  25445.1  160.275
 2.9716  25220.8  159.054
 3.0136  25050.1  158.583
 3.0556  24817.9  158.243
 3.0976  24909.3  157.455
 3.1396  24598.6  157.19
 3.1816  24523.7  156.889
 3.2236  24068.4  155.422
 3.2656  24329.2  155.29
 3.3076  23925.1  155.46
 3.3496  24347.2  155.997
 3.3916  24523  156.137
 3.4336  25082.4  158.493
 3.4756  25271.5  159.015
 3.5176  26215.7  161.752
 3.5596  26125.5  163.919
 3.6016  26408.6  162.395
 3.6436  25431.1  160.475
 3.6856  24966.2  157.278
 3.7276  24011.7  155.345
 3.7696  23860.1  155.043
 3.8116  23569.6  153.986
 3.8536  23446.3  153.516
 3.8956  23358.9  153.054
 3.9376  23343.2  153.261
 3.9796  23365.7  152.836
 4.0216  23428.3  152.064
 4.0636  23248.6  152.968
 4.1056  23330.2  152.872
 4.1476  23576.1  153.999
 4.1896  23968.9  155.133
 4.2316  23920.8  154.794
 4.2736  24175.8  155.406
 4.3156  24615  157.045
 4.3576  25203.6  158.84
 4.3996  25553.2  160.193
 4.4416  25880.4  160.8
 4.4836  26573.9  163.091
 4.5256  26987.5  164.981
 4.5676  26896.3  164.956
 4.6096  27372.2  165.058
 4.6516  27938  166.457
 4.6936  27925.6  167.235
 4.7356  28093.4  167.57
 4.7776  28067.3  167.319
 4.8196  27493  166.253
 4.8616  27338.2  165.389
 4.9036  26963.7  163.872
 4.9456  26903.1  164.337
 4.9876  26471.2  162.916
 5.0296  26791.3  163.708
 5.0716  26639.2  163.888
 5.1136  26724.3  163.997
 5.1556  27060.6  164.485
 5.1976  27496.5  165.803
 5.2396  27586.5  165.765
 5.2816  27560.4  166.156
 5.3236  27611.9  166.009
 5.3656  27041  165.21
 5.4076  26978.4  165.171
 5.4496  26857.7  164.284
 5.4916  27082.1  164.726
 5.5336  27170.9  165.003
 5.5756  26931.2  164.302
 5.6176  27093.2  164.227
 5.6596  27169.1  165.442
 5.7016  27163.2  164.683
 5.7436  27437.3  165.784
 5.7856  27311.1  165.461
 5.8276  27772  166.574
 5.8696  27875.3  167.056
 5.9116  28052.4  168.198
 5.9536  28005.3  167.806
 5.9956  28511.8  168.68
 6.0376  28358.4  168.861
 6.0796  28699.3  169.701
 6.1216  28779.5  170.142
 6.1636  29019.5  169.901
 6.2056  29014.7  170.562
 6.2476  28830  169.894
 6.2896  29424.3  171.313
 6.3316  29208.7  170.86
 6.3736  29462.5  171.492
 6.4156  29518.6  171.551
 6.4576  29790.2  171.942
 6.4996  29966.2  172.931
 6.5416  29847.9  172.731
 6.5836  30171.6  173.899
 6.6256  30107.8  173.272
 6.6676  30555.2  174.119
 6.7096  30545  174.952
 6.7516  30877  175.548
 6.7936  31050.4  175.458
 6.8356  31227.5  176.042
 6.8776  31627.7  177.977
 6.9196  31639.5  178.419
 6.9616  32023.3  178.906
 7.0036  32413.2  179.669
 7.0456  32520.3  179.252
 7.0876  32339.4  180.456
 7.1296  32448.9  179.89
 7.1716  32327.1  179.087
 7.2136  32167.7  178.423
 7.2556  32549.4  179.643
 7.2976  32482.2  179.961
 7.3396  32363.6  179.849
 7.3816  32292.4  179.868
 7.4236  32440.2  179.563
 7.4656  32896.8  180.295
 7.5076  33102.8  181
 7.5496  32894.8  180.973
 7.5916  32959.2  181.185
 7.6336  33244.1  181.861
 7.6756  33519.7  182.46
 7.7176  33840.4  183.646
 7.7596  33658.5  184.412
 7.8016  33953.2  187.416
 7.8436  34355.1  185.162
 7.8856  34857.6  186.119
 7.9276  35428.3  188.032
 7.9696  35527.8  188.615
 8.0116  36427.2  189.507
 8.0536  36984  191.211
 8.0956  36694.1  191.653
 8.1376  37069.7  192.095
 8.1796  37377.4  193.441
 8.2216  38278.8  194.474
 8.2636  38319.1  194.829
 8.3056  38354.6  195.701
 8.3476  39015.8  196.698
 8.3896  38884.4  196.448
 8.4316  38535.8  195.733
 8.4736  39021.4  196.421
 8.5156  38710.6  195.918
 8.5576  38138.8  195.452
 8.5996  38388.9  194.943
 8.6416  38294  195.988
 8.6836  37985.8  195.018
 8.7256  38590.3  196.008
 8.7676  37967.9  197.359
 8.8096  37804.2  194.205
 8.8516  37591.4  193.272
 8.8936  37201.9  192.155
 8.9356  37074  192.174
 8.9776  37317.7  192.911
 9.0196  36985.2  191.711
 9.0616  37550.6  192.641
 9.1036  36693.5  191.628
 9.1456  37068.2  191.946
 9.1876  37142.1  192.088
 9.2296  36992.5  191.093
 9.2716  36231  189.183
 9.3136  36491.5  189.846
 9.3556  36688.5  190.339
 9.3976  35016.9  186.488
 9.4396  35784.8  188.41
 9.4816  35127.2  186.535
 9.5236  35338.9  187.001
 9.5656  35005.6  186.448
 9.6076  34759.8  186.326
 9.6496  34649.8  185.953
 9.6916  34673.9  185.985
 9.7336  34560.1  185.46
 9.7756  34699  187.193
 9.8176  33999.4  184.709
 9.8596  33863.3  182.77
 9.9016  33274.8  181.165
 9.9436  32938.2  180.161
 9.9856  32444.7  179.039
 10.0276  32430.1  180.107
 10.0696  32728.5  179.961
 10.1116  31442.7  176.655
 10.1536  31656  177.421
 10.1956  31209.5  175.762
 10.2376  30610.7  173.576
 10.2796  30740.8  174.067
 10.3216  30613  173.979
 10.3636  30613.8  174.012
 10.4056  29995.1  172.639
 10.4476  29825  171.775
 10.4896  30231.5  172.391
 10.5316  29120.7  169.907
 10.5736  29250.3  170.69
 10.6156  28855.5  169.302
 10.6576  29203  168.871
 10.6996  28715.9  168.12
 10.7416  28288.4  167.113
 10.7836  28462  168.308
 10.8256  28028.4  167.454
 10.8676  28019.7  166.963
 10.9096  27734.3  166.148
 10.9516  27588  164.633
 10.9936  27636.9  164.978
 11.0356  27405.7  164.926
 11.0776  27417.4  164.269
 11.1196  26778.9  163.1
 11.1616  26558.8  162.11
 11.2036  26558.2  161.965
 11.2456  26665.9  162.997
 11.2876  26729.7  162.926
 11.3296  26155.7  161.064
 11.3716  26624.7  162.189
 11.4136  26542.2  162.84
 11.4556  26717.5  163.041
 11.4976  26914.5  162.605
 11.5396  27432.2  164.336
 11.5816  27864  166.094
 11.6236  27541.6  165.576
 11.6656  27115.5  163.214
 11.7076  26630.5  162.597
 11.7496  25998.4  164.612
 11.7916  26055  160.083
 11.8336  25631.2  159.699
 11.8756  25383  158.427
 11.9176  25463.6  158.333
 11.9596  25190.1  157.675
 12.0016  25171.6  158.413
 12.0436  24985.8  157.244
 12.0856  24835.5  157.303
 12.1276  24912.8  157.467
 12.1696  24854.6  156.408
 12.2116  25094.6  157.149
 12.2536  24588  156.394
 12.2956  24794.5  156.378
 12.3376  24532.2  155.762
 12.3796  24714.7  156.796
 12.4216  24751.4  156.13
 12.4636  24156.1  155.155
 12.5056  24637  155.955
 12.5476  24743.5  155.818
 12.5896  24688.8  156.283
 12.6316  24249.9  155.051
 12.6736  24342.2  155.834
 12.7156  24249.7  155.397
 12.7576  24362.4  156.008
 12.7996  24700.7  155.709
 12.8416  24406.1  155.835
 12.8836  24725.4  156.679
 12.9256  24970.9  156.458
 12.9676  25137.5  157.407
 13.0096  24858.8  157.652
 13.0516  25031.1  157.213
 13.0936  25076.5  157.768
 13.1356  25523.3  158.13
 13.1776  25326.2  158.524
 13.2196  25213.4  157.826
 13.2616  25183.4  158.042
 13.3036  25424.2  158.767
 13.3456  25452.3  159.006
 13.3876  25102.1  157.404
 13.4296  25143.5  157.684
 13.4716  25434.3  158.193
 13.5136  25240.9  157.755
 13.5556  24995.3  157.596
 13.5976  25314.3  158.744
 13.6396  25274.9  157.984
 13.6816  24947.6  157.458
 13.7236  25733.7  159.554
 13.7656  25014.3  157.852
 13.8076  25106  156.91
 13.8496  24848.8  156.71
 13.8916  24863.8  157.775
 13.9336  24779.3  156.719
 13.9756  24750.5  155.976
 14.0176  24532.8  155.975
 14.0596  24578.2  156.084
 14.1016  24368.4  155.812
 14.1436  24184.8  154.355
 14.1856  23764  153.301
 14.2276  23681.9  153.521
 14.2696  23797.2  153.735
 14.3116  23464.7  152.557
 14.3536  23095.2  151.529
 14.3956  23173.9  151.514
 14.4376  23346.7  151.855
 14.4796  23170.7  151.273
 14.5216  22741.8  150.669
 14.5636  22503.3  149.442
 14.6056  22766.6  149.884
 14.6476  22647.9  148.716
 14.6896  22292.6  148.089
 14.7316  22120.2  148.564
 14.7736  22046.4  147.444
 14.8156  21677.2  146.24
 14.8576  21742.3  146.31
 14.8996  21248.3  145.854
 14.9416  21038.4  145.119
 14.9836  21093.9  145.282
 15.0256  20662.1  142.707
 15.0676  20732.6  143.268
 15.1096  20548.6  142.366
 15.1516  20405  142.433
 15.1936  20266.9  141.37
 15.2356  19977.5  140.639
 15.2776  20000  140.295
 15.3196  19758.1  140.464
 15.3616  19519  139.361
 15.4036  19592.5  139.482
 15.4456  19781.2  139.797
 15.4876  19484.3  138.42
 15.5296  19165.6  137.57
 15.5716  18977.8  136.493
 15.6136  18834.5  136.305
 15.6556  18906.1  135.795
 15.6976  19074.1  136.476
 15.7396  18555.2  135.212
 15.7816  18309.2  133.82
 15.8236  18443.5  135.02
 15.8656  18470.8  134.914
 15.9076  17939  132.782
 15.9496  17929.4  135.56
 15.9916  17865.5  135.779
 16.0336  17665.4  131.87
 16.0756  17826.7  132.782
 16.1176  17712.9  132.43
 16.1596  17330.3  132.178
 16.2016  17460.1  131.404
 16.2436  17317.3  131.256
 16.2856  17197.3  130.335
 16.3276  16837  129.389
 16.3696  17135.1  130.347
 16.4116  16862.8  129.768
 16.4536  16976.7  129.994
 16.4956  16931.5  129.556
 16.5376  17071.5  130.278
 16.5796  16790.4  128.549
 16.6216  16806.5  128.919
 16.6636  16783.9  128.982
 16.7056  16879.4  129.217
 16.7476  16889.2  128.783
 16.7896  16683.3  128.752
 16.8316  16768.9  129.047
 16.8736  16647.2  128.844
 16.9156  16705.5  129.403
 16.9576  16573.7  129.703
 16.9996  16647.1  130.481
 17.0416  16589.9  128.597
 17.0836  16708.3  128.811
 17.1256  16491.8  127.982
 17.1676  16538.8  128.16
 17.2096  16232.1  126.838
 17.2516  15973.7  125.604
 17.2936  16322.7  127.302
 17.3356  15882.6  125.583
 17.3776  15846.1  125.628
 17.4196  16063.6  126.175
 17.4616  15767.8  124.927
 17.5036  15501.4  124.236
 17.5456  15331.7  124.197
 17.5876  15527.4  124.024
 17.6296  15344.3  123.103
 17.6716  15262  123.353
 17.7136  15002.9  122.444
 17.7556  15002.4  122.734
 17.7976  15255.6  123.366
 17.8396  15089.7  122.324
 17.8816  15044.4  122.694
 17.9236  15033.9  122.455
 17.9656  14980.9  122.939
 18.0076  15016.7  122.496
 18.0496  14814.8  120.807
 18.0916  14882  121.618
 18.1336  14745  121.159
 18.1756  14906.7  121.344
 18.2176  14584.8  120.26
 18.2596  14690.8  120.428
 18.3016  14824.5  121.232
 18.3436  14755.4  121.185
 18.3856  14480.9  119.958
 18.4276  14584.9  120.056
 18.4696  14572  120.108
 18.5116  14659.6  120.754
 18.5536  14628.3  120.982
 18.5956  14441.7  119.761
 18.6376  14400.6  120
 18.6796  14400.8  119.313
 18.7216  14591.7  120.676
 18.7636  14296.5  119.367
 18.8056  14465.7  120.009
 18.8476  14239.5  119.692
 18.8896  14361.9  119.536
 18.9316  14498.4  119.92
 18.9736  14178.6  118.455
 19.0156  14253  119.174
 19.0576  14307.8  118.259
 19.0996  14427.2  119.47
 19.1416  14108.2  118.535
 19.1836  14258.5  118.762
 19.2256  14106  118.332
 19.2676  14211.1  118.872
 19.3096  14351.1  119.702
 19.3516  14198.2  119.023
 19.3936  14077.3  118.412
 19.4356  14199.9  118.8
 19.4776  14155.8  118.713
 19.5196  14201.4  118.752
 19.5616  14009.1  118.207
 19.6036  14181.4  118.417
 19.6456  14150.5  118.413
 19.6876  14257.5  118.501
 19.7296  14084.7  118.239
 19.7716  14196.8  118.724
 19.8136  14204.1  119.118
 19.8556  14472.6  119.705
 19.8976  14376.9  119.375
 19.9396  14494.3  119.437
 19.9816  14640.1  120.274
 20.0236  14968.7  121.843
 20.0656  15125.4  122.471
 20.1076  15166.8  123.124
 20.1496  15188.7  123.218
 20.1916  15169  122.634
 20.2336  14697.4  120.65
 20.2756  14589.1  120.639
 20.3176  14068.6  118.212
 20.3596  14142.1  118.498
 20.4016  14042  117.877
 20.4436  13910.6  117.895
 20.4856  13839.4  117.375
 20.5276  13743.3  117.434
 20.5696  13743.9  116.889
 20.6116  13726.9  117.09
 20.6536  13753.2  116.757
 20.6956  13649  116.383
 20.7376  13583.5  116.342
 20.7796  13526.4  115.785
 20.8216  13811.6  116.695
 20.8636  13508.4  115.785
 20.9056  13476.9  115.598
 20.9476  13454.9  115.347
 20.9896  13646  116.023
 21.0316  13492  115.258
 21.0736  13424.5  115.498
 21.1156  13366.5  115.409
 21.1576  13384.8  115.537
 21.1996  13306.7  115.178
 21.2416  13346.5  115.183
 21.2836  13364.4  115.222
 21.3256  13157.9  114.415
 21.3676  13392.3  114.968
 21.4096  13233.4  114.593
 21.4516  13086.3  113.835
 21.4936  12953  113.502
 21.5356  13256.4  114.774
 21.5776  13364.4  115.076
 21.6196  13151  114.19
 21.6616  13088.3  114.003
 21.7036  13055.6  113.638
 21.7456  13224.6  114.446
 21.7876  13068.2  113.515
 21.8296  12932.3  112.779
 21.8716  13034.6  113.46
 21.9136  13180.7  114.296
 21.9556  12992.1  113.146
 21.9976  13004  113.213
 22.0396  12821.8  112.671
 22.0816  12955.4  113.803
 22.1236  13100.2  113.877
 22.1656  13075.5  113.958
 22.2076  12968.7  112.903
 22.2496  12910.5  112.679
 22.2916  12988.1  112.901
 22.3336  13001.5  113.669
 22.3756  13043.4  113.588
 22.4176  12814.7  112.44
 22.4596  12768.7  112.833
 22.5016  13108.3  113.8
 22.5436  12991  113.177
 22.5856  13063.7  113.747
 22.6276  12937.9  113.337
 22.6696  12968.8  113.819
 22.7116  12888.6  112.984
 22.7536  13157.7  114.131
 22.7956  12922.3  112.432
 22.8376  12834.9  112.575
 22.8796  12898.1  112.649
 22.9216  13110.8  114.131
 22.9636  12863.9  112.194
 23.0056  12873.7  112.37
 23.0476  12894.5  113.042
 23.0896  13153.2  113.536
 23.1316  12976.3  113.212
 23.1736  12748.4  115.186
 23.2156  13213.8  114.568
 23.2576  13075.1  114.109
 23.2996  13098.5  113.994
 23.3416  13033.2  114.234
 23.3836  12950.8  113.097
 23.4256  12914.8  113.058
 23.4676  12848.4  112.456
 23.5096  12965.2  113.659
 23.5516  12865.3  112.497
 23.5936  12824.5  113.234
 23.6356  12997.7  113.652
 23.6776  12938.9  113.609
 23.7196  12800.1  112.57
 23.7616  13081.9  113.721
 23.8036  12835.9  112.694
 23.8456  12771.3  111.968
 23.8876  12582.4  111.496
 23.9296  12634.9  112.221
 23.9716  12538.6  110.978
 24.0136  12661  112.424
 24.0556  12680  112.242
 24.0976  12387.6  110.742
 24.1396  12455.2  113.742
 24.1816  12444.3  112.416
 24.2236  12316.6  111.118
 24.2656  12237.9  110.232
 24.3076  12174.2  110.197
 24.3496  12309.9  110.698
 24.3916  12292.5  110.672
 24.4336  12090.2  109.966
 24.4756  12107.6  109.905
 24.5176  12046.8  109.282
 24.5596  11992.9  109.166
 24.6016  11899.6  109.026
 24.6436  12014  109.036
 24.6856  11932.9  108.427
 24.7276  11865.6  108.439
 24.7696  11894.4  108.687
 24.8116  11802.4  108.448
 24.8536  11740.2  108.154
 24.8956  11724.5  107.821
 24.9376  11601.2  107.191
 24.9796  11475.8  106.964
 25.0216  11524.8  107.304
 25.0636  11637.8  107.477
 25.1056  11554  107.525
 25.1476  11590  109.658
 25.1896  11474.8  107.573
 25.2316  11493.5  106.923
 25.2736  11555  106.861
 25.3156  11435.9  106.383
 25.3576  11394.1  106.616
 25.3996  11493.1  107.06
 25.4416  11457.7  106.878
 25.4836  11201.3  106.195
 25.5256  11363.4  106.321
 25.5676  11388.7  106.167
 25.6096  11247.7  106.086
 25.6516  11391.2  106.251
 25.6936  11225.1  105.791
 25.7356  11193.8  105.779
 25.7776  11349.9  106.114
 25.8196  11044.7  104.914
 25.8616  11164.6  105.401
 25.9036  11183.5  104.959
 25.9456  11108.2  105.205
 25.9876  11060.4  105.042
 26.0296  11235.9  105.469
 26.0716  11049.5  104.924
 26.1136  11185.7  105.509
 26.1556  11209.1  104.992
 26.1976  11040.6  105.133
 26.2396  11143.6  105.026
 26.2816  11165.2  105.481
 26.3236  11018.6  104.954
 26.3656  11075.2  104.947
 26.4076  11223.6  105.859
 26.4496  11587.3  107.054
 26.4916  11302.5  105.716
 26.5336  11124.5  105.21
 26.5756  11231.3  105.582
 26.6176  11064.1  104.835
 26.6596  10905.5  104.391
 26.7016  10858  103.917
 26.7436  10884.7  104.181
 26.7856  10687.4  103.213
 26.8276  10797.4  103.7
 26.8696  11019.9  104.636
 26.9116  10744.5  103.26
 26.9536  10766.2  103.406
 26.9956  10785.7  103.531
 27.0376  10702.1  103.356
 27.0796  10845.8  103.851
 27.1216  10665.1  102.98
 27.1636  10562.6  102.651
 27.2056  10701  103.201
 27.2476  10592.9  102.677
 27.2896  10584.9  102.749
 27.3316  10667.3  102.858
 27.3736  10693.9  103.258
 27.4156  10447.3  101.902
 27.4576  10419.2  101.999
 27.4996  10336.5  101.187
 27.5416  10570.3  102.645
 27.5836  10540.8  102.317
 27.6256  10754.5  103.514
 27.6676  10645.1  103.013
 27.7096  10449  101.931
 27.7516  10407.5  101.869
 27.7936  10360.4  101.814
 27.8356  10535.5  102.284
 27.8776  10368.7  101.521
 27.9196  10345.8  101.251
 27.9616  10180.7  100.631
 28.0036  10278.6  101.085
 28.0456  10295.6  101.305
 28.0876  10279.7  101.32
 28.1296  10167.3  100.603
 28.1716  10188.7  100.722
 28.2136  10252.6  100.999
 28.2556  10178.2  100.748
 28.2976  10204.6  100.871
 28.3396  10295  101.108
 28.3816  10269.5  100.967
 28.4236  10250.9  101.031
 28.4656  10088  100.261
 28.5076  10186.6  100.38
 28.5496  10069.8  100.068
 28.5916  10199.6  100.518
 28.6336  10161.4  100.675
 28.6756  10154.7  99.8344
 28.7176  10088.3  100.061
 28.7596  9988.51  99.461
 28.8016  10111.2  100.104
 28.8436  9912.16  99.3538
 28.8856  10086.7  100.077
 28.9276  10007.8  99.9319
 28.9696  9850.05  98.7986
 29.0116  9847.29  98.9633
 29.0536  9871.14  99.2882
 29.0956  10017.3  99.7406
 29.1376  9955.71  99.3964
 29.1796  9833.47  98.8302
 29.2216  9999.8  99.5003
 29.2636  9898.27  98.9861
 29.3056  9893.3  98.8336
 29.3476  9939.99  99.5973
 29.3896  9973.96  99.8557
 29.4316  10188.8  100.256
 29.4736  9911.44  98.9454
 29.5156  10084.8  99.7016
 29.5576  9853.58  99.3261
 29.5996  9919.13  98.9018
 29.6416  9846.86  98.6617
 29.6836  9957.7  99.1428
 29.7256  9892.04  99.3885
 29.7676  9913.58  99.151
 29.8096  9816.66  98.6083
 29.8516  9615.57  97.9263
 29.8936  9761.86  98.7634
 29.9356  9989.52  99.6561
 29.9776  9667.04  98.1845
 30.0196  9659.9  97.5336
 30.0616  9830.1  98.7714
 30.1036  9821.77  98.5546
 30.1456  9707.32  98.2134
 30.1876  9751.49  98.4176
 30.2296  9719.31  98.1994
 30.2716  9716.6  97.8209
 30.3136  9853.17  99.3773
 30.3556  9691.85  98.5746
 30.3976  9580.4  99.5159
 30.4396  9697.49  97.4565
 30.4816  9679.53  96.9639
 30.5236  9673.29  96.9514
 30.5656  9601  97.2421
 30.6076  9643.95  96.8884
 30.6496  9721.55  97.6644
 30.6916  9597.92  97.1334
 30.7336  9585.61  97.2248
 30.7756  9643.4  97.6064
 30.8176  9709.64  97.8598
 30.8596  9677.5  97.4607
 30.9016  9636.99  97.6056
 30.9436  9745.65  97.9006
 30.9856  9673.44  97.6443
 31.0276  9650.09  97.1367
 31.0696  9491.44  96.9105
 31.1116  9534.61  97.1078
 31.1536  9542.42  97.0215
 31.1956  9449.29  96.6441
 31.2376  9423.44  96.5196
 31.2796  9478.74  96.3354
 31.3216  9467.59  96.2238
 31.3636  9531.39  97.2448
 31.4056  9624.72  99.058
 31.4476  9378.39  95.6662
 31.4896  9480.25  96.6944
 31.5316  9268.41  95.0519
 31.5736  9484.08  95.925
 31.6156  9473.59  95.8895
 31.6576  9502.15  96.1374
 31.6996  9541.44  95.9997
 31.7416  9322.79  95.9562
 31.7836  9434.7  95.5397
 31.8256  9332.64  95.3732
 31.8676  9448.51  95.8799
 31.9096  9310.36  95.5338
 31.9516  9155.22  94.8941
 31.9936  9183.85  94.8709
 32.0356  9341.67  95.7498
 32.0776  9415.03  96.0069
 32.1196  9429.68  96.1649
 32.1616  9352.4  95.2325
 32.2036  9368.31  95.8287
 32.2456  9324.5  95.9919
 32.2876  9216.85  94.76
 32.3296  9198.63  94.7995
 32.3716  9112.67  94.4634
 32.4136  9345  95.8734
 32.4556  9284.05  94.9877
 32.4976  9362.77  95.2352
 32.5396  9176.76  94.359
 32.5816  9176.21  94.4778
 32.6236  9281.79  95.0927
 32.6656  9389.82  96.1936
 32.7076  9147.93  94.5986
 32.7496  9108.86  94.0657
 32.7916  9221.57  94.5997
 32.8336  9280.4  94.9999
 32.8756  9236.98  94.4933
 32.9176  9021.75  93.8749
 32.9596  9074.9  94.2228
 33.0016  9240.86  94.8724
 33.0436  9231.65  94.9972
 33.0856  9031.87  94.0413
 33.1276  9001.97  93.6154
 33.1696  9234.04  94.6513
 33.2116  9160.01  94.4945
 33.2536  9137.82  94.3907
 33.2956  9113  94.3453
 33.3376  8972.24  93.3522
 33.3796  9123.38  94.3426
 33.4216  9193.37  94.2961
 33.4636  9108.19  94.0043
 33.5056  9016.22  93.7746
 33.5476  9003.46  93.7001
 33.5896  9095.17  93.9216
 33.6316  8957.91  93.5544
 33.6736  8948.88  93.7449
 33.7156  8975.66  93.9318
 33.7576  9109.61  94.2543
 33.7996  9091.05  93.9202
 33.8416  8968.67  93.4723
 33.8836  8967.63  93.2409
 33.9256  8962.33  93.2796
 33.9676  9026.78  93.5032
 34.0096  8779  92.5354
 34.0516  8903.01  92.819
 34.0936  8903.69  93.0934
 34.1356  8943.51  93.0383
 34.1776  8900.9  92.8196
 34.2196  8887.08  92.9346
 34.2616  8816.15  92.7008
 34.3036  8818.34  92.9639
 34.3456  8736.65  92.2875
 34.3876  8763.58  92.3911
 34.4296  8827.44  92.4184
 34.4716  8936.16  93.131
 34.5136  8846.37  92.8628
 34.5556  8790.19  92.8258
 34.5976  8825.02  92.8154
 34.6396  8791.94  92.3464
 34.6816  8770.84  92.3551
 34.7236  8873.18  92.6732
 34.7656  8874.49  92.8682
 34.8076  8683.9  92.1984
 34.8496  8779.95  92.5614
 34.8916  8647.24  91.7293
 34.9336  8810.52  92.5631
 34.9756  8690.25  91.8393
 35.0176  8865.66  93.3014
 35.0596  8699.51  92.2432
 35.1016  8726.57  92.1612
 35.1436  8827.67  92.3735
 35.1856  8731.06  91.9895
 35.2276  8733.99  92.1857
 35.2696  8742.58  92.4246
 35.3116  8747.94  92.5446
 35.3536  8634.6  91.6587
 35.3956  8614.27  91.2542
 35.4376  8733.55  92.4413
 35.4796  8646.84  92.0499
 35.5216  8617.38  91.8502
 35.5636  8422.95  91.5521
 35.6056  8642.91  91.745
 35.6476  8627.87  91.5612
 35.6896  8783.13  92.555
 35.7316  8695.05  91.9802
 35.7736  8644  91.9114
 35.8156  8547.54  91.3922
 35.8576  8697.96  92.4449
 35.8996  8681.03  92.3202
 35.9416  9039.76  93.6243
 35.9836  8511.3  91.2668
 36.0256  8638.82  91.9732
 36.0676  8649.55  91.5638
 36.1096  8458.68  90.8992
 36.1516  8554.12  91.3076
 36.1936  8510.17  90.9152
 36.2356  8547.06  91.7624
 36.2776  8497.73  90.9718
 36.3196  8532.31  90.8258
 36.3616  8528.16  90.9359
 36.4036  8529.03  90.9997
 36.4456  8507.91  91.0986
 36.4876  8383.64  90.3717
 36.5296  8474.4  90.9005
 36.5716  8445.18  91.5307
 36.6136  8569.73  90.9559
 36.6556  8632.67  91.4935
 36.6976  8469.03  91.125
 36.7396  8405.08  90.5115
 36.7816  8433.17  91.0386
 36.8236  8530.21  91.4773
 36.8656  8353.48  90.6015
 36.9076  8313.59  90.3882
 36.9496  8320.18  90.2873
 36.9916  8409.06  90.3917
 37.0336  8557.81  91.5078
 37.0756  8515.94  91.0748
 37.1176  8267.83  90.009
 37.1596  8445.49  90.9663
 37.2016  8378.62  90.7962
 37.2436  8473.79  90.6612
 37.2856  8355.32  90.2929
 37.3276  8554.22  90.6923
 37.3696  8160.75  89.4659
 37.4116  8380.28  90.5666
 37.4536  8367.96  90.3659
 37.4956  8309.62  90.092
 37.5376  8406.17  92.2066
 37.5796  8257.25  91.3271
 37.6216  8137.82  88.9334
 37.6636  8143.06  88.8647
 37.7056  8345.23  90.1534
 37.7476  8313.48  89.5141
 37.7896  8231.75  89.5784
 37.8316  8124.71  89.1647
 37.8736  8324.59  89.771
 37.9156  8271.75  89.4866
 37.9576  8225.52  89.1314
 37.9996  8154.23  88.4556
 38.0416  8138.11  89.1845
 38.0836  8327.27  90.11
 38.1256  8207.06  89.4213
 38.1676  8052.96  88.7122
 38.2096  8131.9  88.77
 38.2516  8230.13  89.5082
 38.2936  8187.43  89.0775
 38.3356  8312.46  89.6665
 38.3776  8236.2  89.5349
 38.4196  8141.16  88.8666
 38.4616  8099.35  88.8792
 38.5036  8283.81  89.7204
 38.5456  8109.49  89.6145
 38.5876  8184.48  90.0659
 38.6296  8197.15  89.0942
 38.6716  8062.79  88.1526
 38.7136  8018.85  87.8576
 38.7556  8057.06  88.5736
 38.7976  8051.43  88.4828
 38.8396  7999.82  88.6526
 38.8816  7989.99  88.3813
 38.9236  8033.33  88.4266
 38.9656  8047.15  88.4153
 39.0076  8091.21  88.055
 39.0496  8057.03  88.4125
 39.0916  8076.71  88.1602
 39.1336  8133.93  88.8958
 39.1756  7979.16  88.1157
 39.2176  8014.41  88.846
 39.2596  8052.57  88.9746
 39.3016  8006.67  88.2868
 39.3436  7855.39  87.8792
 39.3856  8080.64  88.5725
 39.4276  8180.14  89.6106
 39.4696  8132.6  88.9781
 39.5116  8049.65  89.0411
 39.5536  8140.23  89.9748
 39.5956  8191.61  89.3412
 39.6376  8116.67  88.9359
 39.6796  7993.11  87.9993
 39.7216  8158.65  89.0028
 39.7636  8059.45  89.029
 39.8056  8108.86  89.0853
 39.8476  7921.75  88.3061
 39.8896  8080.98  88.8117
 39.9316  7960.77  88.407
 39.9736  8125.65  88.8769
 40.0156  8047.65  88.281
 40.0576  8091.77  88.8836
 40.0996  8112.89  88.1747
 40.1416  8088.26  88.8387
 40.1836  8136.41  88.9902
 40.2256  8075.23  88.6987
 40.2676  8073.51  88.7973
 40.3096  8027.27  88.4655
 40.3516  8191.64  89.4813
 40.3936  8269.54  89.4571
 40.4356  8048.28  88.4447
 40.4776  8364.69  90.5905
 40.5196  8161.15  89.6072
 40.5616  8208.09  89.5038
 40.6036  8083.44  89.0788
 40.6456  8198.49  89.3102
 40.6876  8108.73  88.8078
 40.7296  8220.83  89.5583
 40.7716  8166.11  89.3862
 40.8136  8153.08  89.2627
 40.8556  8086.31  89.0311
 40.8976  8279.12  90.0001
 40.9396  8132.62  89.5605
 40.9816  8165.62  89.0168
 41.0236  8149.09  88.7028
 41.0656  8162.61  89.324
 41.1076  8205.07  89.3253
 41.1496  8174.34  89.0666
 41.1916  8140  89.2066
 41.2336  8072.14  88.8205
 41.2756  8145.5  88.8262
 41.3176  7988.45  88.5811
 41.3596  8144.77  89.1734
 41.4016  8135.26  89.3819
 41.4436  8138.46  89.1847
 41.4856  8095.24  89.1132
 41.5276  8114.05  89.2322
 41.5696  8176.47  89.1823
 41.6116  8076.9  89.0534
 41.6536  8182.68  89.4919
 41.6956  8110.77  89.1533
 41.7376  7978.07  88.4474
 41.7796  8062.71  88.8452
 41.8216  8092.88  89.2015
 41.8636  8105.44  89.2063
 41.9056  8020.73  88.5298
 41.9476  8079.37  89.0849
 41.9896  8083.96  88.7755
 42.0316  8186.23  89.4197
 42.0736  8067.83  88.8863
 42.1156  7954.79  88.0981
 42.1576  8040.36  88.6691
 42.1996  8090.93  89.0942
 42.2416  8068.83  88.5489
 42.2836  7953.14  88.0248
 42.3256  7967.7  88.2213
 42.3676  8016.4  88.2949
 42.4096  7986.98  88.0913
 42.4516  7996.06  88.2259
 42.4936  7935.52  87.9663
 42.5356  7946.02  88.1538
 42.5776  8082.63  88.8513
 42.6196  8074.5  88.863
 42.6616  7882.5  87.971
 42.7036  8122.45  88.6704
 42.7456  7989.37  88.3009
 42.7876  8004.6  88.4866
 42.8296  8031.56  88.4684
 42.8716  7881.06  87.7968
 42.9136  7927.87  87.8446
 42.9556  8054.01  88.6752
 42.9976  7995.8  88.3183
 43.0396  7993.39  88.0283
 43.0816  7913.31  87.971
 43.1236  7961.1  88.2956
 43.1656  7927.05  87.9264
 43.2076  7919.96  87.9959
 43.2496  7925.94  87.8441
 43.2916  7875.62  87.9328
 43.3336  7910.4  87.9657
 43.3756  7919.5  87.7676
 43.4176  7760.46  86.963
 43.4596  7824.44  87.1734
 43.5016  7771.3  87.2838
 43.5436  8009.88  88.5147
 43.5856  7823.72  87.5
 43.6276  7797.33  87.2486
 43.6696  7847.21  87.6752
 43.7116  7878.72  87.459
 43.7536  7963.12  88.4254
 43.7956  7771.59  88.5476
 43.8376  7840.83  87.4732
 43.8796  7685.28  86.6796
 43.9216  7849.9  87.5197
 43.9636  7844.3  87.5967
 44.0056  7819.33  87.6949
 44.0476  7889.07  87.7063
 44.0896  7741.51  87.2305
 44.1316  7793.48  87.186
 44.1736  7756.52  86.9546
 44.2156  7805.45  87.0821
 44.2576  7832.98  87.5677
 44.2996  7787.55  87.2791
 44.3416  7766.06  86.9212
 44.3836  7531.92  85.92
 44.4256  7645.83  86.2169
 44.4676  7554.7  85.8606
 44.5096  7630.17  86.4335
 44.5516  7567.31  86.0414
 44.5936  7549.28  85.891
 44.6356  7682.41  86.3803
 44.6776  7701.79  86.8126
 44.7196  7623.52  86.6763
 44.7616  7700.84  88.4578
 44.8036  7549.14  86.0066
 44.8456  7753.05  87.3662
 44.8876  7640.02  86.5731
 44.9296  7662.48  86.1477
 44.9716  7612.82  86.3077
 45.0136  7615.2  86.2469
 45.0556  7610.71  86.2002
 45.0976  7586.59  86.2166
 45.1396  7430.58  85.097
 45.1816  7434.17  85.0519
 45.2236  7655.64  86.2091
 45.2656  7540.05  86.0569
 45.3076  7506.29  85.6514
 45.3496  7511.78  85.9871
 45.3916  7525.75  86.3361
 45.4336  7476.23  85.8945
 45.4756  7540.05  86.1125
 45.5176  7627.4  86.2274
 45.5596  7562.65  85.9767
 45.6016  7468.65  85.865
 45.6436  7666.26  86.1521
 45.6856  7494.31  85.8526
 45.7276  7442.51  86.8718
 45.7696  7466.21  86.6727
 45.8116  7596.5  86.862
 45.8536  7370.92  85.4579
 45.8956  7517.82  85.6575
 45.9376  7565.59  85.3883
 45.9796  7528.72  85.8815
 46.0216  7519.58  86.1659
 46.0636  7713.09  86.3951
 46.1056  7455.04  84.9215
 46.1476  7494.63  85.742
 46.1896  7520.85  86.0447
 46.2316  7509.39  85.8497
 46.2736  7361.86  85.3649
 46.3156  7467.15  85.5581
 46.3576  7378.91  85.2558
 46.3996  7380.79  85.4222
 46.4416  7501.32  85.6932
 46.4836  7345.14  85.1536
 46.5256  7444.05  85.6568
 46.5676  7284.98  84.855
 46.6096  7389.27  85.3917
 46.6516  7600.57  85.637
 46.6936  7389.46  84.9275
 46.7356  7516.09  85.7602
 46.7776  7370.94  85.7657
 46.8196  7339.15  85.1798
 46.8616  7151.89  84.0339
 46.9036  7278.05  84.4292
 46.9456  7314.72  84.2795
 46.9876  7334.49  84.4807
 47.0296  7276.88  84.8316
 47.0716  7315  84.8787
 47.1136  7260.86  84.243
 47.1556  7302.46  84.3535
 47.1976  7387.57  84.9174
 47.2396  7309.19  84.8691
 47.2816  7175.86  83.7948
 47.3236  7284.66  84.8022
 47.3656  7332.77  85.0087
 47.4076  7200.02  84.0365
 47.4496  7267.27  84.5178
 47.4916  7185.7  84.243
 47.5336  7282.5  84.6168
 47.5756  7338.94  85.0614
 47.6176  7096.38  83.5474
 47.6596  7217.98  83.9702
 47.7016  7320.26  84.3841
 47.7436  7290.44  84.5489
 47.7856  7321.04  84.748
 47.8276  7175.09  83.9497
 47.8696  7185.16  84.0906
 47.9116  7241.6  84.1397
 47.9536  7134.6  83.4531
 47.9956  7048.46  83.6538
 48.0376  7117.31  83.8351
 48.0796  7323.7  85.1679
 48.1216  7313.25  84.9286
 48.1636  7354.24  84.7381
 48.2056  7271.18  84.5234
 48.2476  7280.68  84.8886
 48.2896  7276.12  84.7726
 48.3316  7183.36  84.165
 48.3736  7084.38  83.6121
 48.4156  7056.82  83.2977
 48.4576  7051.61  83.5593
 48.4996  7252.83  84.1935
 48.5416  7232.65  84.4088
 48.5836  7093.89  83.2732
 48.6256  7161.95  83.8816
 48.6676  7137.46  84.2423
 48.7096  7019.25  82.8147
 48.7516  7101.73  83.4541
 48.7936  6963.2  82.6981
 48.8356  7069.42  83.3794
 48.8776  7140.73  84.2847
 48.9196  7244.15  84.3441
 48.9616  7120.68  84.0068
 49.0036  7016.57  83.736
 49.0456  7063.17  83.9752
 49.0876  7093.65  83.805
 49.1296  6961.52  83.0877
 49.1716  6918.49  82.696
 49.2136  7025.63  83.2682
 49.2556  7161.7  84.1028
 49.2976  7099.24  83.8045
 49.3396  6952.91  82.9852
 49.3816  7225.59  84.0274
 49.4236  6991.74  83.0797
 49.4656  6860.52  82.3059
 49.5076  6976.14  82.75
 49.5496  7045.64  83.2305
 49.5916  7004.93  82.9073
 49.6336  6962.16  82.8526
 49.6756  7078.03  83.7728
 49.7176  7036.92  83.4693
 49.7596  6997.77  83.0056
 49.8016  7059.02  83.288
 49.8436  6915.05  82.7247
 49.8856  6943.4  82.9069
 49.9276  6912.94  82.8207
 49.9696  6955.41  83.0526
 50.0116  7010.04  83.5119
 50.0536  6924.27  82.9475
 50.0956  6927.12  83.041
 50.1376  6863.56  82.3542
 50.1796  6795.78  82.2162
 50.2216  6967.65  83.2347
 50.2636  6882.06  82.3526
 50.3056  6836.81  82.2527
 50.3476  6861.49  82.4181
 50.3896  6879.74  82.4995
 50.4316  6890.26  82.4035
 50.4736  6845.05  82.3518
 50.5156  6880.28  82.5521
 50.5576  6897.31  82.4186
 50.5996  6825.13  82.2597
 50.6416  6769.25  81.855
 50.6836  6831.85  82.288
 50.7256  6894.11  82.5941
 50.7676  6898.51  82.8943
 50.8096  6878.58  82.3482
 50.8516  6844.46  82.561
 50.8936  6835.01  82.2849
 50.9356  6805.35  82.2137
 50.9776  6940.25  83.1781
 51.0196  6650.59  81.5495
 51.0616  6759.1  81.5409
 51.1036  6831.57  82.3281
 51.1456  6852.84  82.3732
 51.1876  6829.52  81.5743
 51.2296  6868.25  82.4459
 51.2716  6763.55  81.5133
 51.3136  6697.01  81.5705
 51.3556  6719.88  81.3358
 51.3976  6741.21  81.6165
 51.4396  6593.73  81.0209
 51.4816  6685.33  81.4266
 51.5236  6733.18  81.8053
 51.5656  6697.98  81.2023
 51.6076  6765.4  81.6929
 51.6496  6669.54  81.3006
 51.6916  6583.84  81.1268
 51.7336  6757.35  82.2822
 51.7756  6724.44  81.7801
 51.8176  6774.8  82.1891
 51.8596  6685.58  81.6646
 51.9016  6779.39  81.8427
 51.9436  6624.94  82.3637
 51.9856  6545.58  82.2876
 52.0276  6741.35  82.0061
 52.0696  6665.2  81.6143
 52.1116  6670.87  81.7668
 52.1536  6551.99  80.9173
 52.1956  6722.05  81.4335
 52.2376  6791.99  82.0185
 52.2796  6720.46  81.389
 52.3216  6555.54  81.083
 52.3636  6683.66  81.4494
 52.4056  6577.35  80.6554
 52.4476  6565.74  80.9507
 52.4896  6555.38  80.9384
 52.5316  6522.31  80.7814
 52.5736  6570.81  80.803
 52.6156  6658.32  81.7257
 52.6576  6615.23  80.8991
 52.6996  6396.93  80.52
 52.7416  6640.18  81.8777
 52.7836  6610.47  81.5779
 52.8256  6671.5  81.1736
 52.8676  6593.16  81.2746
 52.9096  6479.61  80.6598
 52.9516  6542.04  81.4222
 52.9936  6503.18  81.5592
 53.0356  6521.62  80.6839
 53.0776  6491.48  80.7821
 53.1196  6420.95  80.4446
 53.1616  6343.52  80.0054
 53.2036  6327.41  79.8593
 53.2456  6388.59  80.3509
 53.2876  6451.82  80.4459
 53.3296  6443.3  80.7193
 53.3716  6442.09  80.4534
 53.4136  6362.52  80.1089
 53.4556  6481.28  80.884
 53.4976  6416.32  80.324
 53.5396  6433.12  80.8207
 53.5816  6494.54  80.8413
 53.6236  6426.35  80.7578
 53.6656  6401.87  80.23
 53.7076  6458.19  80.5454
 53.7496  6414.71  80.3929
 53.7916  6337.99  80.0365
 53.8336  6330.22  79.8863
 53.8756  6274.45  80.0779
 53.9176  6535.03  81.0648
 53.9596  6317.06  80.4627
 54.0016  6392.38  80.2688
 54.0436  6458.29  80.8982
 54.0856  6505.3  80.6176
 54.1276  6367.93  79.9569
 54.1696  6390.08  80.2715
 54.2116  6367.17  79.8828
 54.2536  6390.81  79.8479
 54.2956  6409.26  80.0082
 54.3376  6407.73  80.4844
 54.3796  6435.32  80.5575
 54.4216  6553.16  81.3427
 54.4636  6418.67  80.4593
 54.5056  6397.61  80.1458
 54.5476  6350.36  80.1839
 54.5896  6355.95  80.0552
 54.6316  6493.13  80.7661
 54.6736  6445.44  80.4941
 54.7156  6423.1  80.4298
 54.7576  6371.3  80.1002
 54.7996  6423.37  80.558
 54.8416  6366.77  80.2543
 54.8836  6248.43  79.6199
 54.9256  6333.97  79.9114
 54.9676  6391.77  80.1303
 55.0096  6338.7  79.8707
 55.0516  6382.06  80.3096
 55.0936  6387.75  80.039
 55.1356  6339.16  79.7764
 55.1776  6290.69  79.7396
 55.2196  6409.51  80.2691
 55.2616  6394.36  80.39
 55.3036  6302.36  79.9687
 55.3456  6396.95  80.7166
 55.3876  6297.63  79.833
 55.4296  6347.93  80.1234
 55.4716  6421.72  80.626
 55.5136  6369.38  80.0517
 55.5556  6297.22  79.669
 55.5976  6293.79  79.7073
 55.6396  6288.7  79.6114
 55.6816  6305.15  79.5979
 55.7236  6426.58  80.401
 55.7656  6314.97  79.4609
 55.8076  6418.18  80.0879
 55.8496  6207.17  79.0762
 55.8916  6293.88  79.8034
 55.9336  6276.36  79.5437
 55.9756  6288.53  79.506
 56.0176  6253.61  79.4412
 56.0596  6237.59  79.3201
 56.1016  6334.05  79.9687
 56.1436  6278.74  79.8579
 56.1856  6346.11  80.0264
 56.2276  6299.88  79.7913
 56.2696  6286.06  79.6722
 56.3116  6241.49  79.794
 56.3536  6277.45  79.6783
 56.3956  6238.59  79.4246
 56.4376  6325.29  80.0056
 56.4796  6307.88  79.6942
 56.5216  6289.49  79.9578
 56.5636  6332.59  79.8176
 56.6056  6279.39  79.716
 56.6476  6314.24  79.5622
 56.6896  6295.3  79.8941
 56.7316  6306.64  79.8756
 56.7736  6387  80.3788
 56.8156  6303.48  79.8452
 56.8576  6276.53  79.6208
 56.8996  6290.13  79.645
 56.9416  6281.64  79.8995
 56.9836  6215.31  78.9828
 57.0256  6159.35  78.9446
 57.0676  6263.92  79.737
 57.1096  6341.48  80.0131
 57.1516  6254.32  79.488
 57.1936  6235.61  79.1519
 57.2356  6273.06  79.714
 57.2776  6268.58  79.6434
 57.3196  6288.31  80.1414
 57.3616  6276.77  79.5543
 57.4036  6198.98  79.1216
 57.4456  6277.12  79.5832
 57.4876  6357.63  79.9519
 57.5296  6195.3  79.1626
 57.5716  6290.13  79.8558
 57.6136  6305.07  79.7646
 57.6556  6142.76  78.8653
 57.6976  6306.74  79.7381
 57.7396  6177.6  79.293
 57.7816  6246.3  80.0992
 57.8236  6191.51  79.5403
 57.8656  6254.14  79.5937
 57.9076  6240.76  79.5362
 57.9496  6188.35  79.5543
 57.9916  6248.93  79.4498
 58.0336  6269.73  79.8652
 58.0756  6224.79  79.2027
 58.1176  6199.44  79.0407
 58.1596  6156.16  79.3381
 58.2016  6379.06  79.966
 58.2436  6241.53  79.5168
 58.2856  6231.07  79.3689
 58.3276  6249.64  79.862
 58.3696  6185.49  79.1988
 58.4116  6309.18  79.852
 58.4536  6302.39  79.6897
 58.4956  6092.45  78.5361
 58.5376  6257.13  79.1509
 58.5796  6246.19  79.5112
 58.6216  6147.77  78.7049
 58.6636  6312.13  79.9622
 58.7056  6276.18  79.5883
 58.7476  6131.2  79.1134
 58.7896  6246.55  79.4917
 58.8316  6243.34  79.4685
 58.8736  6166.48  78.9839
 58.9156  6239.31  79.4918
 58.9576  6383.15  80.7276
 58.9996  6353.52  79.7645
 59.0416  6324.85  79.9597
 59.0836  6197.64  79.0818
 59.1256  6160.56  79.5515
 59.1676  6187.31  80.0215
 59.2096  6370.12  80.4977
 59.2516  6362.28  80.0182
 59.2936  6238.15  79.5672
 59.3356  6201.36  79.2083
 59.3776  6300.56  80.012
 59.4196  6194.89  79.2737
 59.4616  6381.98  80.3175
 59.5036  6191.92  79.1483
 59.5456  6388.68  80.0806
 59.5876  6182.02  78.9681
 59.6296  6236.36  79.3848
 59.6716  6221.2  79.347
 59.7136  6341.63  80.0994
 59.7556  6156.1  79.0567
 59.7976  6310.82  79.7805
 59.8396  6321.99  79.7429
 59.8816  6224.45  79.6783
 59.9236  6329.02  79.9807
 59.9656  6232.47  79.6328
 60.0076  6212.57  78.8541
 60.0496  6269.04  79.7245
 60.0916  6455.24  80.2988
 60.1336  6086.32  79.082
 60.1756  6117.95  80.4791
 60.1996  0.0000000E+00  0.0000000E+00