File: docs/examples/XRD/IS17_D/Data/IS17_D/17_Da_f00005.xye
# /beamlines/bl04/projects/cycle2025-II/20250340211-lsimonelli/DATA/IS17_D/17_Da_f00005.xye : mythproc.py merge -s 0.006 -l 0.5 -f /beamlines/bl04/inhouse/ff/FlatField/ff_20Nov2024rod8mm60s_17keV.raw -b True -c true -o xye /beamlines/bl04/projects/cycle2025-II/20250340211-lsimonelli/DATA/IS17_D/17_Da_00005.dat
# IsMon = [6785682, 6787489, 6790037]  IsPos = [-1.5000, -2.4885, -3.4988]
# Wave = 0.4962  CalPath /beamlines/bl04/projects/cycle2025-II/20250340211-lsimonelli/DATA/Align/Si_Pos1_25keV_f00001.cal
# Date = 2025-09-23_18:57:26 Dt = 4.8000  Bin = 0.0060  <imon> = 6787736 +/- 1786 (Min/Max) 6785682 / 6790037
# icurr 253.2008  mocoIn 1.7277E-05  mocoOut 0.8103  i15 7.09459e+06  imon 6.78774e+06  i7 3.6667  iEMpd_timer 4.8000  iEMpd_1 3.5071E-08  iEMpd_2 7.8109E-08  iEMpd_3 1.5490E-08  iEMpd_4 4.7878E-08  iEMhp_timer 4.8000  iEMhp_1 4.9464E-06  iEMhp_2 -2.4584E-08  iEMhp_3 -2.3261E-08  iEMhp_4 -2.0764E-08
#      9776
 1.5856  39602.2  204.375
 1.6276  47238.4  219.381
 1.6696  54258.4  234.289
 1.7116  62947.3  252.845
 1.7536  72898  270.938
 1.7956  77312.8  279.719
 1.8376  73474.6  273.119
 1.8796  61450.3  247.945
 1.9216  49173.7  222.675
 1.9636  41752.9  204.862
 2.0056  37124  191.938
 2.0476  34657.9  187.487
 2.0896  33395.9  182.962
 2.1316  32125.9  178.587
 2.1736  30421.7  175.164
 2.2156  30713.3  174.589
 2.2576  29799  172.586
 2.2996  28602.2  169.707
 2.3416  28995.8  169.502
 2.3836  28075.5  166.898
 2.4256  27299.2  165.111
 2.4676  27009  163.998
 2.5096  26706.1  163.129
 2.5516  26069.4  164.908
 2.5936  26063.9  161.55
 2.6356  25510.5  160.5
 2.6776  25616.1  159.734
 2.7196  25379.2  159.508
 2.7616  25138  158.529
 2.8036  24862.8  157.828
 2.8456  24692.4  157.893
 2.8876  23974.8  155.435
 2.9296  23662.1  154.565
 2.9716  23573.2  153.779
 3.0136  23464.6  153.488
 3.0556  23565.4  154.21
 3.0976  23438.6  152.748
 3.1396  23058.9  152.208
 3.1816  22860.7  151.486
 3.2236  22657  150.81
 3.2656  22847.9  150.496
 3.3076  22772.9  151.676
 3.3496  23152.7  152.127
 3.3916  23301.1  152.205
 3.4336  23696.1  154.058
 3.4756  24037.8  155.092
 3.5176  25079  158.21
 3.5596  24806.2  160.277
 3.6016  25167.1  158.532
 3.6436  24040.9  156.027
 3.6856  23818.9  153.614
 3.7276  22759.6  151.24
 3.7696  22704.7  151.049
 3.8116  22179.5  149.374
 3.8536  22261.5  149.584
 3.8956  22445  150.03
 3.9376  22286.9  149.75
 3.9796  22401.1  149.649
 4.0216  22282.9  148.304
 4.0636  22222.8  149.558
 4.1056  22262.7  149.333
 4.1476  22517.9  150.501
 4.1896  22737.7  151.096
 4.2316  22919.6  151.525
 4.2736  23353.7  152.745
 4.3156  23705.3  154.108
 4.3576  24383.2  156.231
 4.3996  24495.1  156.846
 4.4416  24868.9  157.627
 4.4836  25576.4  159.999
 4.5256  25937  161.74
 4.5676  25907.2  161.894
 4.6096  26464.9  162.653
 4.6516  26825.6  163.107
 4.6936  27228.5  165.133
 4.7356  27262.5  165.07
 4.7776  27296.2  165.002
 4.8196  26788  164.105
 4.8616  26380.9  162.47
 4.9036  25862.8  160.493
 4.9456  25992.7  161.532
 4.9876  25498.7  159.895
 5.0296  25777.1  160.593
 5.0716  25536.8  160.451
 5.1136  25743.1  160.957
 5.1556  26174.4  161.767
 5.1976  26255.3  162.021
 5.2396  26591.8  162.748
 5.2816  26602.6  163.239
 5.3236  26632.8  163.041
 5.3656  26227  162.703
 5.4076  25825.9  161.605
 5.4496  25987.7  161.597
 5.4916  26171.2  161.931
 5.5336  26014.9  161.451
 5.5756  25823.5  160.896
 5.6176  26005.2  160.896
 5.6596  26307.2  162.644
 5.7016  26382.8  162.299
 5.7436  26548.7  163.079
 5.7856  26355  162.543
 5.8276  26748.5  163.474
 5.8696  26875.5  163.929
 5.9116  26777.7  164.325
 5.9536  26917  164.515
 5.9956  27222  164.818
 6.0376  27334.2  165.78
 6.0796  27649.8  166.566
 6.1216  27598  166.612
 6.1636  27836  166.404
 6.2056  27956.5  167.418
 6.2476  28163.9  167.742
 6.2896  28162.2  167.6
 6.3316  28041.3  167.411
 6.3736  28297.9  168.07
 6.4156  28127.7  167.514
 6.4576  28712  168.802
 6.4996  28818.9  169.586
 6.5416  28516.1  168.833
 6.5836  28810.5  169.924
 6.6256  28875.1  169.688
 6.6676  29657.8  171.542
 6.7096  29385.5  171.603
 6.7516  29940.9  172.863
 6.7936  29944.9  172.31
 6.8356  30204.9  173.137
 6.8776  30406  174.505
 6.9196  30285.6  174.558
 6.9616  30798.5  175.451
 7.0036  31397.2  176.828
 7.0456  31375.9  176.066
 7.0876  31224.1  177.245
 7.1296  31304.5  176.689
 7.1716  31153.1  175.803
 7.2136  30925.8  174.946
 7.2556  31210.1  175.908
 7.2976  31303  176.665
 7.3396  30939.5  175.848
 7.3816  30948  176.082
 7.4236  31477.1  176.876
 7.4656  31641.2  176.826
 7.5076  31817.7  177.452
 7.5496  31674.5  177.578
 7.5916  31750.2  177.829
 7.6336  32062.5  178.599
 7.6756  32007.7  178.298
 7.7176  32599.9  180.248
 7.7596  32529  181.291
 7.8016  32908.4  184.506
 7.8436  33699.7  183.382
 7.8856  33675.4  182.929
 7.9276  34470.9  185.466
 7.9696  34462.9  185.761
 8.0116  35264.6  186.449
 8.0536  35425.8  187.133
 8.0956  35243.9  187.82
 8.1376  35892.4  189.012
 8.1796  36141.6  190.214
 8.2216  36939.1  191.032
 8.2636  36876  191.116
 8.3056  36715.4  191.464
 8.3476  37647.1  193.21
 8.3896  37377.5  192.593
 8.4316  37332.2  192.645
 8.4736  37557.7  192.685
 8.5156  37308  192.33
 8.5576  37006.5  192.527
 8.5996  37141.4  191.743
 8.6416  36682.4  191.815
 8.6836  36601.1  191.424
 8.7256  37439.5  193.055
 8.7676  36375.2  193.18
 8.8096  36515.1  190.867
 8.8516  35937.2  189.027
 8.8936  35878.4  188.704
 8.9356  35931.9  189.202
 8.9776  36140.5  189.84
 9.0196  35848.8  188.747
 9.0616  35732.9  187.922
 9.1036  35156.2  187.572
 9.1456  35295.7  187.292
 9.1876  35414.5  187.567
 9.2296  35485.4  187.147
 9.2716  34667.5  185.057
 9.3136  34815.6  185.428
 9.3556  35113.3  186.202
 9.3976  33823.1  183.282
 9.4396  34324.6  184.521
 9.4816  33736.3  182.809
 9.5236  33993.3  183.398
 9.5656  33370.6  182.04
 9.6076  33438.8  182.737
 9.6496  33176.3  181.954
 9.6916  33275.7  182.188
 9.7336  33123.4  181.562
 9.7756  33169.3  182.89
 9.8176  32677.6  181.09
 9.8596  32273.8  178.43
 9.9016  32112.2  177.981
 9.9436  31756  176.739
 9.9856  31458.7  176.293
 10.0276  30837.1  175.639
 10.0696  31327.6  176.076
 10.1116  30670.5  174.48
 10.1536  30023.2  172.309
 10.1956  29972.9  172.253
 10.2376  29538.3  170.509
 10.2796  29641.4  170.934
 10.3216  29845.1  171.637
 10.3636  29258.1  170.122
 10.4056  28808.4  169.187
 10.4476  28855.6  168.967
 10.4896  28794.6  168.252
 10.5316  28172.1  166.799
 10.5736  27941.4  166.835
 10.6156  27802.7  166.19
 10.6576  27738.2  164.59
 10.6996  27420.2  164.291
 10.7416  27339.5  164.282
 10.7836  27374.7  165.063
 10.8256  27037.7  164.468
 10.8676  27230.6  164.594
 10.9096  26636.9  162.828
 10.9516  26666.2  161.859
 10.9936  26560.5  161.734
 11.0356  26591.5  162.457
 11.0776  26149.1  160.423
 11.1196  25803.3  160.094
 11.1616  25819.1  159.837
 11.2036  25752.6  159.486
 11.2456  25726.2  160.107
 11.2876  25688.7  159.723
 11.3296  25429  158.814
 11.3716  25907.6  160.019
 11.4136  26011.7  161.203
 11.4556  26432.3  162.163
 11.4976  26742.4  162.088
 11.5396  26751  162.283
 11.5816  26062.5  160.625
 11.6236  25818.5  160.32
 11.6656  25465.2  158.167
 11.7076  25050.4  157.699
 11.7496  24705.7  160.471
 11.7916  24686  155.823
 11.8336  24305  155.507
 11.8756  24212.1  154.727
 11.9176  24445  155.126
 11.9596  24173.3  154.46
 12.0016  24008  154.706
 12.0436  24157.2  154.614
 12.0856  23695.3  153.647
 12.1276  23834.4  154.019
 12.1696  23893.6  153.352
 12.2116  24041.4  153.816
 12.2536  23435.2  152.654
 12.2956  23818.6  153.261
 12.3376  23442.4  152.26
 12.3796  23745.9  153.701
 12.4216  23660.3  152.648
 12.4636  23341.7  152.512
 12.5056  23585.1  152.588
 12.5476  23707.3  152.52
 12.5896  23638.7  152.92
 12.6316  23295.9  151.974
 12.6736  23257.6  152.317
 12.7156  23207.2  152.023
 12.7576  23296.8  152.549
 12.7996  23634.7  152.31
 12.8416  23389.2  152.557
 12.8836  23821  153.785
 12.9256  24097.4  153.691
 12.9676  24173.1  154.357
 13.0096  23677  153.858
 13.0516  23961.9  153.822
 13.0936  24261.1  154.893
 13.1356  24377.3  154.539
 13.1776  23986.7  154.276
 13.2196  24032.1  154.08
 13.2616  23967.6  154.173
 13.3036  24116.8  154.8
 13.3456  24151.7  154.888
 13.3876  23991.4  153.886
 13.4296  23733.4  153.198
 13.4716  24126  154.069
 13.5136  24147.7  154.297
 13.5556  24147.3  154.9
 13.5976  24210.9  155.239
 13.6396  24220.6  154.644
 13.6816  23624  153.1
 13.7236  24420.5  155.426
 13.7656  24005.9  154.64
 13.8076  24051.5  153.581
 13.8496  23696.5  153.215
 13.8916  23764.4  154.239
 13.9336  23686  153.214
 13.9756  23451.3  151.821
 14.0176  23462.6  152.524
 14.0596  23548.2  152.769
 14.1016  23394.4  152.672
 14.1436  23093.5  150.832
 14.1856  22748.2  149.99
 14.2276  22540.9  149.78
 14.2696  22706.8  150.167
 14.3116  22534.6  149.493
 14.3536  22103.2  148.24
 14.3956  22059.1  147.825
 14.4376  22309.2  148.442
 14.4796  22161  147.94
 14.5216  21803.6  147.528
 14.5636  21707.8  146.76
 14.6056  21904.5  147.019
 14.6476  21709.8  145.604
 14.6896  21524  145.512
 14.7316  21053.9  144.929
 14.7736  20940.2  143.697
 14.8156  20776.8  143.173
 14.8576  20635  142.536
 14.8996  20131  141.97
 14.9416  19985.7  141.453
 14.9836  20123.2  141.894
 15.0256  19717  139.399
 15.0676  19874.8  140.269
 15.1096  19840.2  139.886
 15.1516  19405.4  138.899
 15.1936  19286.9  137.905
 15.2356  18934.2  136.913
 15.2776  19087.6  137.051
 15.3196  18767.1  136.892
 15.3616  18604  136.05
 15.4036  18434.4  135.292
 15.4456  18963.6  136.873
 15.4876  18318.1  134.207
 15.5296  18232.1  134.178
 15.5716  18124.6  133.377
 15.6136  18020.4  133.328
 15.6556  17971.4  132.392
 15.6976  18030.2  132.686
 15.7396  17689.1  132.015
 15.7816  17628  131.307
 15.8236  17463.9  131.382
 15.8656  17631.5  131.809
 15.9076  17071.8  129.53
 15.9496  17187  132.727
 15.9916  17071.8  132.71
 16.0336  16982.8  129.296
 16.0756  16854.7  129.11
 16.1176  17054.4  129.781
 16.1596  16434.3  128.714
 16.2016  16754.5  128.713
 16.2436  16416.6  127.798
 16.2856  16424.1  127.375
 16.3276  16128.1  126.632
 16.3696  16579.8  128.21
 16.4116  16144.2  126.982
 16.4536  16354.6  127.582
 16.4956  16092.6  126.303
 16.5376  16221.9  126.985
 16.5796  16089.1  125.837
 16.6216  16242.2  126.737
 16.6636  16097.7  126.319
 16.7056  16161  126.444
 16.7476  16149.8  125.934
 16.7896  16071.7  126.37
 16.8316  15964.5  125.914
 16.8736  15973.5  126.213
 16.9156  16057.2  126.867
 16.9576  15933.8  127.172
 16.9996  15826.9  127.231
 17.0416  15956.9  126.124
 17.0836  15788  125.22
 17.1256  15583.2  124.417
 17.1676  15591.8  124.447
 17.2096  15626.8  124.458
 17.2516  15216.2  122.891
 17.2936  15326  123.348
 17.3356  14989.8  122.011
 17.3776  15153.9  122.856
 17.4196  15306.4  123.165
 17.4616  15081.1  122.183
 17.5036  14839  121.556
 17.5456  14857.2  122.266
 17.5876  14732.5  120.813
 17.6296  14903.7  121.321
 17.6716  14692  121.033
 17.7136  14510.3  120.422
 17.7556  14583.9  121.016
 17.7976  14468.4  120.144
 17.8396  14309.7  119.127
 17.8816  14312.9  119.671
 17.9236  14304.6  119.454
 17.9656  14321.9  120.207
 18.0076  14407.8  119.991
 18.0496  14371.6  118.986
 18.0916  14250.2  119.009
 18.1336  14247.1  119.095
 18.1756  14451.7  119.483
 18.2176  14120.7  118.332
 18.2596  14096.2  117.967
 18.3016  14340.3  119.229
 18.3436  14260.2  119.136
 18.3856  14020.6  118.039
 18.4276  14086  117.984
 18.4696  14068  118
 18.5116  14090.5  118.388
 18.5536  14110  118.821
 18.5956  13973.6  117.803
 18.6376  13876.1  117.796
 18.6796  13704.6  116.405
 18.7216  14156.2  118.855
 18.7636  13819.2  117.351
 18.8056  13876.8  117.54
 18.8476  13809.9  117.869
 18.8896  13767.7  117.035
 18.9316  13993.9  117.815
 18.9736  13878.5  117.194
 19.0156  13760.9  117.093
 19.0576  13758.9  115.972
 19.0996  13973.7  117.578
 19.1416  13693.7  116.781
 19.1836  13687.4  116.359
 19.2256  13419.7  115.416
 19.2676  13641.3  116.462
 19.3096  13788.9  117.333
 19.3516  13606  116.342
 19.3936  13603.6  116.406
 19.4356  13637  116.427
 19.4776  13685.2  116.722
 19.5196  13647.9  116.417
 19.5616  13611.9  116.512
 19.6036  13749  116.597
 19.6456  13689.2  116.468
 19.6876  13722.6  116.258
 19.7296  13665.8  116.472
 19.7716  13768.8  116.916
 19.8136  13944.2  118.023
 19.8556  14142.3  118.333
 19.8976  14188.6  118.593
 19.9396  14357  118.871
 19.9816  14542.2  119.87
 20.0236  14443.6  119.688
 20.0656  14299.2  119.08
 20.1076  13896.7  117.855
 20.1496  13882.8  117.801
 20.1916  13784.8  116.86
 20.2336  13660.6  116.307
 20.2756  13447.6  115.823
 20.3176  13411.8  115.419
 20.3596  13385.5  115.279
 20.4016  13214.5  114.351
 20.4436  13395.4  115.692
 20.4856  13227.8  114.755
 20.5276  13072.6  114.532
 20.5696  13125.7  114.332
 20.6116  13044.1  114.143
 20.6536  13194.4  114.366
 20.6956  13143.5  114.216
 20.7376  13051.9  114.041
 20.7796  12972.4  113.389
 20.8216  13118.7  113.729
 20.8636  12835.7  112.86
 20.9056  12832.8  112.8
 20.9476  12704.6  112.082
 20.9896  13184.5  114.036
 21.0316  13049.8  113.351
 21.0736  12896.4  113.195
 21.1156  12820.8  113.019
 21.1576  12883.6  113.347
 21.1996  12798.8  112.956
 21.2416  12690.8  112.319
 21.2836  12881.4  113.118
 21.3256  12654.9  112.202
 21.3676  12784.9  112.33
 21.4096  12753.8  112.553
 21.4516  12559.1  111.52
 21.4936  12448.1  111.272
 21.5356  12738.9  112.508
 21.5776  12731.8  112.316
 21.6196  12519.8  111.414
 21.6616  12498.7  111.407
 21.7036  12542.4  111.382
 21.7456  12505.9  111.294
 21.7876  12551.6  111.248
 21.8296  12375.1  110.324
 21.8716  12417.8  110.741
 21.9136  12695.3  112.173
 21.9556  12399.8  110.537
 21.9976  12394.7  110.53
 22.0396  12305.5  110.383
 22.0816  12460  111.6
 22.1236  12556.1  111.495
 22.1656  12334.2  110.677
 22.2076  12464.6  110.686
 22.2496  12458.5  110.686
 22.2916  12651.8  111.423
 22.3336  12397.4  110.994
 22.3756  12563.5  111.475
 22.4176  12353.4  110.398
 22.4596  12231.1  110.427
 22.5016  12403  110.689
 22.5436  12491.6  110.972
 22.5856  12523.7  111.367
 22.6276  12281.7  110.425
 22.6696  12300.3  110.846
 22.7116  12336.3  110.535
 22.7536  12475.7  111.129
 22.7956  12349.6  109.91
 22.8376  12266.5  110.049
 22.8796  12415.7  110.513
 22.9216  12500.3  111.437
 22.9636  12389.5  110.101
 23.0056  12454.1  110.525
 23.0476  12633  111.889
 23.0896  12849.1  112.213
 23.1316  12472.4  110.989
 23.1736  12383.2  113.522
 23.2156  12497.4  111.431
 23.2576  12313.5  110.742
 23.2996  12559.5  111.617
 23.3416  12214.5  110.597
 23.3836  12282.7  110.146
 23.4256  12411.6  110.835
 23.4676  12429.6  110.613
 23.5096  12329.1  110.833
 23.5516  12186.1  109.485
 23.5936  12285.1  110.805
 23.6356  12543.7  111.646
 23.6776  12448.3  111.431
 23.7196  12159.1  109.926
 23.7616  12539  111.327
 23.8036  12412.4  110.808
 23.8456  12375.4  110.213
 23.8876  12178.6  109.692
 23.9296  12184.9  110.191
 23.9716  12215.9  109.524
 24.0136  12200.7  110.355
 24.0556  12137.2  109.812
 24.0976  12138.2  109.624
 24.1396  11914.4  111.204
 24.1816  12010.1  110.444
 24.2236  11811.9  108.818
 24.2656  11780  108.153
 24.3076  11812.1  108.53
 24.3496  11743.7  108.126
 24.3916  11740.7  108.164
 24.4336  11716.2  108.256
 24.4756  11577.9  107.488
 24.5176  11517.7  106.861
 24.5596  11368.3  106.484
 24.6016  11398.8  106.715
 24.6436  11454.1  106.472
 24.6856  11500.7  106.45
 24.7276  11433.7  106.448
 24.7696  11169.1  105.324
 24.8116  11339.2  106.296
 24.8536  11146.5  105.393
 24.8956  11213.4  105.449
 24.9376  11040  104.809
 24.9796  11117.4  105.281
 25.0216  10987.2  104.778
 25.0636  11007.6  104.531
 25.1056  10963.3  104.746
 25.1476  11131.4  107.435
 25.1896  11079.5  105.704
 25.2316  11112.3  105.128
 25.2736  11042.2  104.46
 25.3156  11047.8  104.557
 25.3576  10869.1  104.126
 25.3996  11024.1  104.847
 25.4416  10950.9  104.486
 25.4836  10798  104.272
 25.5256  10905.8  104.159
 25.5676  10943.9  104.073
 25.6096  10885.7  104.363
 25.6516  10864.3  103.763
 25.6936  10761.9  103.589
 25.7356  10843.4  104.107
 25.7776  10916.1  104.14
 25.8196  10745.3  103.478
 25.8616  10859  103.943
 25.9036  10911  103.671
 25.9456  10765.2  103.568
 25.9876  10738.7  103.368
 26.0296  10901.9  103.882
 26.0716  10730.6  103.398
 26.1136  10783.9  103.599
 26.1556  10818.8  103.147
 26.1976  10753.6  103.756
 26.2396  10753.1  103.167
 26.2816  10686.9  103.207
 26.3236  10759.6  103.715
 26.3656  10711.8  103.208
 26.4076  10820.2  103.939
 26.4496  11022.6  104.421
 26.4916  10772.7  103.212
 26.5336  10689.4  103.131
 26.5756  11043.2  104.684
 26.6176  10576.5  102.496
 26.6596  10532.8  102.581
 26.7016  10464.2  102.018
 26.7436  10375.5  101.714
 26.7856  10347.7  101.561
 26.8276  10419.7  101.868
 26.8696  10380.9  101.557
 26.9116  10447.6  101.821
 26.9536  10399.3  101.632
 26.9956  10371.9  101.53
 27.0376  10293.4  101.36
 27.0796  10408.8  101.737
 27.1216  10211.6  100.768
 27.1636  10307  101.402
 27.2056  10143.3  100.474
 27.2476  10142.7  100.473
 27.2896  10287.4  101.296
 27.3316  10191.6  100.535
 27.3736  10318.9  101.43
 27.4156  10115  100.267
 27.4576  10105.4  100.45
 27.4996  10072.4  99.8886
 27.5416  10150.4  100.588
 27.5836  10129.9  100.301
 27.6256  10356  101.581
 27.6676  10265  101.152
 27.7096  10088.9  100.153
 27.7516  10069.1  100.198
 27.7936  9997.6  100.014
 27.8356  10004.4  99.6773
 27.8776  9907.59  99.2358
 27.9196  9948.16  99.2824
 27.9616  9988.21  99.6754
 28.0036  9939.63  99.3984
 28.0456  9922.15  99.4485
 28.0876  9837.31  99.1153
 28.1296  9897.78  99.2614
 28.1716  9923.95  99.406
 28.2136  9825.2  98.8708
 28.2556  9880.77  99.2698
 28.2976  9772.28  98.7113
 28.3396  9924.44  99.2725
 28.3816  9911.5  99.1913
 28.4236  9795.6  98.7583
 28.4656  9660.9  98.1145
 28.5076  9609.17  97.4952
 28.5496  9836.66  98.9024
 28.5916  9939.41  99.2258
 28.6336  9681.3  98.2674
 28.6756  9855.82  98.3542
 28.7176  9717.59  98.2042
 28.7596  9673.77  97.8819
 28.8016  9769.52  98.4
 28.8436  9546.52  97.508
 28.8856  9672.51  97.9988
 28.9276  9645.06  98.1037
 28.9696  9598.41  97.528
 29.0116  9619.78  97.8169
 29.0536  9478.43  97.2956
 29.0956  9524.18  97.2562
 29.1376  9531.73  97.2559
 29.1796  9421.82  96.7403
 29.2216  9595.16  97.465
 29.2636  9493.42  96.9447
 29.3056  9425.73  96.471
 29.3476  9542.04  97.5821
 29.3896  9591.14  97.9252
 29.4316  9593.78  97.2812
 29.4736  9587.63  97.3105
 29.5156  9609.31  97.3412
 29.5576  9422.74  97.1291
 29.5996  9470.38  96.6367
 29.6416  9585.41  97.34
 29.6836  9458.95  96.6238
 29.7256  9646.61  98.1431
 29.7676  9387.16  96.4742
 29.8096  9438.9  96.6827
 29.8516  9371.35  96.6693
 29.8936  9453.86  97.1891
 29.9356  9340.56  96.3633
 29.9776  9358.07  96.6051
 30.0196  9288.16  95.6336
 30.0616  9325.74  96.2015
 30.1036  9463.06  96.7389
 30.1456  9405.71  96.671
 30.1876  9426.94  96.7648
 30.2296  9332.1  96.2156
 30.2716  9397.28  96.1953
 30.3136  9539.84  97.7766
 30.3556  9420.85  97.1867
 30.3976  9284.83  97.9918
 30.4396  9345.75  95.6739
 30.4816  9371.4  95.4022
 30.5236  9365.14  95.3939
 30.5656  9314.01  95.7768
 30.6076  9342.94  95.7019
 30.6496  9393.65  96.0021
 30.6916  9295.63  95.5817
 30.7336  9237.84  95.4443
 30.7756  9292.36  95.8177
 30.8176  9194.61  95.2278
 30.8596  9388.18  95.9924
 30.9016  9253.56  95.1799
 30.9436  9150.8  94.8688
 30.9856  9218.55  95.3245
 31.0276  9196.86  94.8269
 31.0696  9102.57  94.902
 31.1116  9170.13  95.2308
 31.1536  9238.77  95.4703
 31.1956  9060.24  94.6315
 31.2376  9027.71  94.467
 31.2796  9190.83  94.8578
 31.3216  9212.43  94.9188
 31.3636  9114.1  95.0961
 31.4056  9078.55  96.219
 31.4476  9077.13  94.122
 31.4896  9122.07  94.8488
 31.5316  9222.82  94.8239
 31.5736  9234.15  94.6464
 31.6156  8959.91  93.261
 31.6576  9149.54  94.3424
 31.6996  9185.66  94.2017
 31.7416  8956.05  93.9209
 31.7836  9055.23  93.6042
 31.8256  8909.71  93.184
 31.8676  9061.05  93.9008
 31.9096  8874.8  93.1395
 31.9516  8702.34  92.518
 31.9936  8920.92  93.5028
 32.0356  9013.72  94.0585
 32.0776  9007.65  93.9121
 32.1196  9035.66  94.065
 32.1616  8852.92  92.6561
 32.2036  8921.68  93.5217
 32.2456  8941.29  94.0021
 32.2876  8870.85  92.9662
 32.3296  8773.18  92.5863
 32.3716  8849.17  93.0802
 32.4136  8858.7  93.3361
 32.4556  8933.39  93.1818
 32.4976  8856.1  92.6606
 32.5396  8870.25  92.7681
 32.5816  8718.07  92.0916
 32.6236  8876.51  92.9952
 32.6656  8949.02  93.9058
 32.7076  8796.97  92.763
 32.7496  8844.24  92.6883
 32.7916  8820.58  92.5177
 32.8336  8823.9  92.6357
 32.8756  8962.8  93.079
 32.9176  8787.83  92.6452
 32.9596  8776.09  92.6606
 33.0016  8777.72  92.4645
 33.0436  8904.12  93.3006
 33.0856  8812.03  92.8814
 33.1276  8584.67  91.4253
 33.1696  8757.57  92.1781
 33.2116  8854.09  92.9119
 33.2536  8826.29  92.7699
 33.2956  8837.47  92.906
 33.3376  8734.73  92.1826
 33.3796  8791.86  92.6134
 33.4216  8822.48  92.3743
 33.4636  8746.76  92.1186
 33.5056  8643.39  91.8127
 33.5476  8599.33  91.5738
 33.5896  8700.69  91.8493
 33.6316  8579.53  91.5518
 33.6736  8597.01  91.8816
 33.7156  8546.13  91.6572
 33.7576  8617.01  91.6779
 33.7996  8665.68  91.6966
 33.8416  8496.79  90.9733
 33.8836  8640.66  91.5284
 33.9256  8554.68  91.1389
 33.9676  8726.98  91.9455
 34.0096  8505.57  91.0843
 34.0516  8655.01  91.5186
 34.0936  8548.85  91.2201
 34.1356  8614.03  91.3041
 34.1776  8559.73  91.0316
 34.2196  8435.71  90.5459
 34.2616  8454.53  90.777
 34.3036  8445.38  90.9789
 34.3456  8592.46  91.5185
 34.3876  8527.54  91.2284
 34.4296  8435.45  90.3268
 34.4716  8497.63  90.8174
 34.5136  8488.52  90.9677
 34.5556  8503.42  91.3041
 34.5976  8540.04  91.3364
 34.6396  8424.33  90.3941
 34.6816  8439.53  90.5866
 34.7236  8521.9  90.8199
 34.7656  8447.41  90.6102
 34.8076  8348.7  90.4032
 34.8496  8517.08  91.1657
 34.8916  8470.19  90.7883
 34.9336  8480.1  90.8026
 34.9756  8670.56  91.7477
 35.0176  8460.02  91.1525
 35.0596  8368.94  90.4809
 35.1016  8526.88  91.0979
 35.1436  8448.66  90.3681
 35.1856  8311.99  89.7543
 35.2276  8345.08  90.1107
 35.2696  8383.29  90.5074
 35.3116  8339.01  90.3596
 35.3536  8172.42  89.2065
 35.3956  8223.58  89.1606
 35.4376  8324.67  90.2512
 35.4796  8336.82  90.3833
 35.5216  8350.59  90.4163
 35.5636  8190.98  90.284
 35.6056  8315.7  89.991
 35.6476  8417.81  90.4367
 35.6896  8387.52  90.4446
 35.7316  8144.12  89.0194
 35.7736  8161.7  89.3105
 35.8156  8301.28  90.0683
 35.8576  8286.31  90.2321
 35.8996  8365.74  90.6325
 35.9416  8461.76  90.6532
 35.9836  8262.73  90.0265
 36.0256  8272.21  90.0008
 36.0676  8308.59  89.734
 36.1096  8202.15  89.5177
 36.1516  8240.86  89.6128
 36.1936  8243.03  89.4752
 36.2356  8201.39  89.8866
 36.2776  8298.57  89.8893
 36.3196  8245.15  89.2837
 36.3616  8208.91  89.2147
 36.4036  8219.86  89.3272
 36.4456  8142.87  89.1129
 36.4876  8065.91  88.6394
 36.5296  8142.5  89.0928
 36.5716  8143.52  89.8795
 36.6136  8267.55  89.3301
 36.6556  8353.81  89.999
 36.6976  8193.27  89.627
 36.7396  8190.15  89.3452
 36.7816  8134.22  89.4078
 36.8236  8102.45  89.1579
 36.8656  8169.68  89.5967
 36.9076  8181.08  89.6656
 36.9496  8157.97  89.3978
 36.9916  8038.06  88.3741
 37.0336  8201.48  89.5813
 37.0756  8198.04  89.3562
 37.1176  8143.82  89.3285
 37.1596  8047.75  88.8043
 37.2016  8021.72  88.838
 37.2436  8178.85  89.0707
 37.2856  8026.39  88.4849
 37.3276  8151.69  88.5287
 37.3696  8081.72  89.0313
 37.4116  8135.53  89.2255
 37.4536  8072.94  88.7562
 37.4956  7926.72  87.9752
 37.5376  8071.32  90.3286
 37.5796  8029.1  90.0572
 37.6216  7803.34  87.0838
 37.6636  7847.2  87.2349
 37.7056  7874.99  87.5724
 37.7476  7973.6  87.6654
 37.7896  7972.08  88.1398
 37.8316  7649.73  86.5214
 37.8736  7982.45  87.9033
 37.9156  7904.49  87.4774
 37.9576  8009.52  87.9507
 37.9996  7840.56  86.7348
 38.0416  7883.24  87.7748
 38.0836  7901.88  87.7847
 38.1256  7908.35  87.7626
 38.1676  7682.22  86.6499
 38.2096  7841.85  87.1746
 38.2516  8031.36  88.4174
 38.2936  7946.63  87.7608
 38.3356  7997.94  87.9411
 38.3776  7779.2  87.0124
 38.4196  7889.04  87.4774
 38.4616  7787.61  87.1457
 38.5036  8004.45  88.1963
 38.5456  7813.58  87.9654
 38.5876  7941.51  88.7153
 38.6296  7640.74  86.0257
 38.6716  7820.21  86.8216
 38.7136  7750.39  86.3788
 38.7556  7707.76  86.6348
 38.7976  7784.32  87.0061
 38.8396  7690.87  86.9274
 38.8816  7669.08  86.5737
 38.9236  7823.98  87.27
 38.9656  7818.12  87.1517
 39.0076  7821  86.5791
 39.0496  7829.43  87.1597
 39.0916  7820.32  86.7523
 39.1336  7707.18  86.5397
 39.1756  7749.55  86.8449
 39.2176  7698.07  87.0775
 39.2596  7776.47  87.4419
 39.3016  7773.54  86.9984
 39.3436  7684.99  86.9252
 39.3856  7800.96  87.0319
 39.4276  7748.49  87.2308
 39.4696  7802.43  87.151
 39.5116  7713.92  87.1667
 39.5536  7807.88  88.1177
 39.5956  7720.36  86.7331
 39.6376  7827.47  87.3332
 39.6796  7784.17  86.839
 39.7216  7909.89  87.6319
 39.7636  7862.53  87.9359
 39.8056  7801.26  87.3751
 39.8476  7642.46  86.7321
 39.8896  7816.11  87.3505
 39.9316  7766.87  87.3202
 39.9736  7897.04  87.6218
 40.0156  7847.28  87.1653
 40.0576  7890.6  87.7699
 40.0996  7918.53  87.1102
 40.1416  7845.93  87.496
 40.1836  7866.69  87.4951
 40.2256  7732.53  86.7992
 40.2676  7804.74  87.3696
 40.3096  7847.59  87.4661
 40.3516  7892.41  87.8295
 40.3936  7929.72  87.5997
 40.4356  7773.27  86.9173
 40.4776  7880.14  87.7645
 40.5196  7848.86  87.8785
 40.5616  7851.75  87.5425
 40.6036  7739.81  87.1623
 40.6456  7919.81  87.7745
 40.6876  7839.61  87.3196
 40.7296  7862.41  87.5852
 40.7716  7875.67  87.793
 40.8136  7776.61  87.1773
 40.8556  7806.65  87.4801
 40.8976  7815.52  87.4505
 40.9396  7764.94  87.5128
 40.9816  7890.14  87.5031
 41.0236  7885.97  87.2593
 41.0656  7959.85  88.2005
 41.1076  7997.83  88.182
 41.1496  7952.22  87.8467
 41.1916  7832.6  87.5044
 41.2336  7862.54  87.66
 41.2756  7774.99  86.781
 41.3176  7803.11  87.5502
 41.3596  7874.48  87.6763
 41.4016  7842.86  87.7543
 41.4436  7909.55  87.9212
 41.4856  7859.48  87.7981
 41.5276  7802.64  87.501
 41.5696  7907.73  87.7043
 41.6116  7713.77  87.0324
 41.6536  7791.13  87.3257
 41.6956  7796.98  87.3365
 41.7376  7872.99  87.8662
 41.7796  7693.87  86.7893
 41.8216  7787.18  87.5018
 41.8636  7876.17  87.9359
 41.9056  7777.14  87.1768
 41.9476  7909.8  88.149
 41.9896  7742.84  86.8854
 42.0316  7844.09  87.5289
 42.0736  7856.94  87.7469
 42.1156  7696.31  86.6547
 42.1576  7766.76  87.1472
 42.1996  7825.47  87.616
 42.2416  7845.85  87.3134
 42.2836  7788.57  87.1115
 42.3256  7653.4  86.4633
 42.3676  7796.77  87.0764
 42.4096  7739.66  86.7188
 42.4516  7788.15  87.0781
 42.4936  7705.34  86.6813
 42.5356  7736.88  86.9874
 42.5776  7713.9  86.8003
 42.6196  7848.48  87.612
 42.6616  7613.14  86.451
 42.7036  7676.95  86.2043
 42.7456  7698.46  86.6835
 42.7876  7704.79  86.8132
 42.8296  7669.62  86.4482
 42.8716  7656.54  86.535
 42.9136  7621.95  86.0871
 42.9556  7716.51  86.7928
 42.9976  7802.7  87.2458
 43.0396  7700.05  86.4
 43.0816  7629.88  86.3736
 43.1236  7688.79  86.7712
 43.1656  7635.64  86.3024
 43.2076  7596.73  86.1833
 43.2496  7599.76  86.0163
 43.2916  7634.52  86.5789
 43.3336  7690.84  86.736
 43.3756  7568.08  85.8017
 43.4176  7533.37  85.6812
 43.4596  7590.58  85.8588
 43.5016  7633.81  86.5109
 43.5436  7684.99  86.6964
 43.5856  7601.2  86.2483
 43.6276  7518.38  85.6765
 43.6696  7632.26  86.4639
 43.7116  7534.51  85.5284
 43.7536  7651.52  86.6804
 43.7956  7477.55  86.858
 43.8376  7626.33  86.266
 43.8796  7522.09  85.7511
 43.9216  7607.13  86.1522
 43.9636  7520.86  85.7694
 44.0056  7577.07  86.3219
 44.0476  7543.44  85.7595
 44.0896  7379.19  85.1566
 44.1316  7464.64  85.3264
 44.1736  7476.07  85.3652
 44.2156  7556.92  85.6834
 44.2576  7518.83  85.7917
 44.2996  7556.28  85.9724
 44.3416  7554.14  85.7197
 44.3836  7467.16  85.5594
 44.4256  7277.38  84.1084
 44.4676  7371.6  84.8102
 44.5096  7435.56  85.3206
 44.5516  7344.55  84.7607
 44.5936  7256.75  84.2067
 44.6356  7510.61  85.4037
 44.6776  7378.69  84.9679
 44.7196  7454.3  85.7069
 44.7616  7368.7  86.5305
 44.8036  7340.45  85.0096
 44.8456  7266.25  84.5739
 44.8876  7321.9  84.7515
 44.9296  7450.1  84.9493
 44.9716  7376.85  84.9559
 45.0136  7412.12  85.0956
 45.0556  7273.63  84.3771
 45.0976  7248.63  84.2769
 45.1396  7195.29  83.7241
 45.1816  7315.92  84.3738
 45.2236  7376.23  84.6225
 45.2656  7200.59  84.0967
 45.3076  7344.7  84.7209
 45.3496  7238.46  84.4002
 45.3916  7275.98  84.8904
 45.4336  7304.58  84.9072
 45.4756  7227.37  84.3165
 45.5176  7296.15  84.3359
 45.5596  7334.29  84.6726
 45.6016  7163.21  84.0908
 45.6436  7294.47  84.0458
 45.6856  7255.63  84.4663
 45.7276  7177.67  85.3099
 45.7696  7175.02  84.967
 45.8116  7234.33  84.7769
 45.8536  7024.94  83.4348
 45.8956  7254.83  84.1477
 45.9376  7210.18  83.3621
 45.9796  7245.76  84.256
 46.0216  7214.49  84.4003
 46.0636  7313.36  84.1191
 46.1056  7330.03  84.2101
 46.1476  7151.98  83.7635
 46.1896  7234.91  84.3971
 46.2316  7219.07  84.1705
 46.2736  7160.26  84.0309
 46.3156  7245.26  84.2816
 46.3576  7161.03  83.9894
 46.3996  7080.31  83.6741
 46.4416  7256.49  84.2588
 46.4836  7159.07  84.0706
 46.5256  7064.56  83.4537
 46.5676  7134.08  83.9747
 46.6096  7178.38  84.1703
 46.6516  7072.66  82.6123
 46.6936  7212.14  83.907
 46.7356  7234.81  84.1359
 46.7776  7065.38  83.9701
 46.8196  7139.85  84.1589
 46.8616  6976.85  82.9958
 46.9036  7021.61  82.9304
 46.9456  7040.53  82.6828
 46.9876  7075.64  82.9778
 47.0296  7047.15  83.4839
 47.0716  7063.6  83.4052
 47.1136  7057.82  83.0514
 47.1556  7064.68  82.9649
 47.1976  7102.08  83.3382
 47.2396  7075.1  83.4971
 47.2816  7065.18  83.1433
 47.3236  7005.89  83.1546
 47.3656  7122.36  83.7808
 47.4076  7077.84  83.2455
 47.4496  6933.47  82.5609
 47.4916  7051.53  83.4507
 47.5336  7051.5  83.2694
 47.5756  7026.98  83.2319
 47.6176  7023.89  83.1175
 47.6596  7005.44  82.7274
 47.7016  7052.64  82.829
 47.7436  7056.66  83.1808
 47.7856  7059.64  83.2228
 47.8276  6911.2  82.391
 47.8696  6954.65  82.7326
 47.9116  6979.94  82.6033
 47.9536  6934.2  82.2746
 47.9956  6856.86  82.5062
 48.0376  6870.1  82.3686
 48.0796  7049.96  83.5632
 48.1216  7048.3  83.3776
 48.1636  7098.12  83.2508
 48.2056  6981.64  82.8231
 48.2476  6969.13  83.0551
 48.2896  6954.9  82.8804
 48.3316  6992.5  83.0416
 48.3736  6890.81  82.4594
 48.4156  6762.14  81.541
 48.4576  6783.65  81.9587
 48.4996  6977.37  82.586
 48.5416  6950.07  82.7424
 48.5836  6915.36  82.2119
 48.6256  6956.04  82.6587
 48.6676  6963.8  83.2137
 48.7096  6895.05  82.0886
 48.7516  6839.89  81.9038
 48.7936  6706.99  81.162
 48.8356  6927.7  82.5369
 48.8776  6990.25  83.3999
 48.9196  6946.25  82.5888
 48.9616  6823.4  82.2288
 49.0036  6841.87  82.6844
 49.0456  6802.82  82.4319
 49.0876  6837.31  82.2856
 49.1296  6730.49  81.6921
 49.1716  6752.09  81.6894
 49.2136  6862.65  82.289
 49.2556  6853.89  82.2683
 49.2976  6808.67  82.0705
 49.3396  6873.73  82.5091
 49.3816  6879.65  81.9935
 49.4236  6667.2  81.1291
 49.4656  6734.64  81.5506
 49.5076  6802.85  81.7157
 49.5496  6671.34  80.9908
 49.5916  6756.01  81.4199
 49.6336  6808.82  81.9183
 49.6756  6817.52  82.215
 49.7176  6683.75  81.3475
 49.7596  6746.78  81.5012
 49.8016  6783.04  81.6338
 49.8436  6680.19  81.3106
 49.8856  6709.63  81.4997
 49.9276  6503.55  80.3322
 49.9696  6739.91  81.7618
 50.0116  6679.59  81.5036
 50.0536  6754.25  81.9239
 50.0956  6683.73  81.5674
 50.1376  6728.44  81.5428
 50.1796  6573.58  80.8617
 50.2216  6703.28  81.6464
 50.2636  6702.4  81.2684
 50.3056  6575.14  80.6624
 50.3476  6699.93  81.4436
 50.3896  6615.93  80.9048
 50.4316  6730.69  81.4413
 50.4736  6535.65  80.4687
 50.5156  6767.71  81.872
 50.5576  6811.77  81.9028
 50.5996  6527.28  80.4472
 50.6416  6573.81  80.6602
 50.6836  6564.79  80.6676
 50.7256  6610.6  80.8783
 50.7676  6739.09  81.9257
 50.8096  6607.58  80.7134
 50.8516  6518.64  80.5743
 50.8936  6616.26  80.9598
 50.9356  6659.65  81.3279
 50.9776  6570.96  80.9281
 51.0196  6441.67  80.2559
 51.0616  6500.22  79.9632
 51.1036  6639.71  81.1594
 51.1456  6533.54  80.4312
 51.1876  6614.66  80.2777
 51.2296  6568.36  80.6228
 51.2716  6478.5  79.7748
 51.3136  6538.17  80.5922
 51.3556  6575.88  80.4531
 51.3976  6419.65  79.6433
 51.4396  6358.37  79.5501
 51.4816  6528.97  80.4793
 51.5236  6502.05  80.3912
 51.5656  6432.51  79.5743
 51.6076  6475.33  79.9202
 51.6496  6479.95  80.1309
 51.6916  6357.51  79.7205
 51.7336  6451.41  80.3938
 51.7756  6466.6  80.1968
 51.8176  6405.65  79.9185
 51.8596  6441.77  80.1603
 51.9016  6550.24  80.4452
 51.9436  6370.88  80.7596
 51.9856  6406.96  81.4184
 52.0276  6573.9  80.9885
 52.0696  6439.53  80.2189
 52.1116  6490.02  80.6444
 52.1536  6429.86  80.113
 52.1956  6591.96  80.6303
 52.2376  6481.23  80.1247
 52.2796  6511.19  80.1256
 52.3216  6338.59  79.7286
 52.3636  6330.37  79.2671
 52.4056  6346.02  79.2257
 52.4476  6246.3  78.9559
 52.4896  6299.69  79.3415
 52.5316  6400.26  80.0236
 52.5736  6381.16  79.6284
 52.6156  6308.49  79.542
 52.6576  6437.23  79.7977
 52.6996  6145.37  78.9156
 52.7416  6357.4  80.1083
 52.7836  6432.18  80.462
 52.8256  6358.49  79.2575
 52.8676  6149.91  78.4939
 52.9096  6290.96  79.4749
 52.9516  6329.27  80.0786
 52.9936  6263.55  80.0485
 53.0356  6294.33  79.2688
 53.0776  6200.34  78.9532
 53.1196  6161.41  78.8026
 53.1616  6263.41  79.5022
 53.2036  6092.56  78.3682
 53.2456  6174.09  78.9874
 53.2876  6164.89  78.6413
 53.3296  6248.25  79.4926
 53.3716  6251.14  79.2597
 53.4136  6231.28  79.2783
 53.4556  6092.47  78.4222
 53.4976  6149.33  78.6387
 53.5396  6107.64  78.7533
 53.5816  6265.39  79.4043
 53.6236  6088.87  78.61
 53.6656  6283.93  79.4956
 53.7076  6291.18  79.4989
 53.7496  6233.63  79.2542
 53.7916  6119.91  78.6541
 53.8336  6077.77  78.2824
 53.8756  6063.5  78.7248
 53.9176  6264.03  79.3641
 53.9596  6153.21  79.4102
 54.0016  6141.76  78.6774
 54.0436  6108.69  78.6727
 54.0856  6212.26  78.7802
 54.1276  6156.23  78.6154
 54.1696  6158.57  78.7998
 54.2116  6112.33  78.2671
 54.2536  6151.13  78.3365
 54.2956  6240.25  78.9463
 54.3376  6138.45  78.7763
 54.3796  6212.07  79.1445
 54.4216  6275.73  79.5908
 54.4636  6219.82  79.2034
 54.5056  6202.27  78.9151
 54.5476  6052.34  78.28
 54.5896  6222.2  79.2026
 54.6316  6178.1  78.7835
 54.6736  6180.52  78.8202
 54.7156  6164.38  78.7914
 54.7576  6007.14  77.777
 54.7996  6217.59  79.2776
 54.8416  6129.22  78.7432
 54.8836  6066.69  78.4562
 54.9256  6114.09  78.5076
 54.9676  6187.41  78.8381
 55.0096  6159.36  78.7249
 55.0516  6146.55  78.8111
 55.0936  6099.13  78.2016
 55.1356  6017.83  77.7274
 55.1776  6136.28  78.754
 55.2196  6170.99  78.7548
 55.2616  6181.14  79.0392
 55.3036  6096.48  78.649
 55.3456  6070.18  78.6226
 55.3876  6107.46  78.618
 55.4296  6103.72  78.5655
 55.4716  6088.11  78.5015
 55.5136  6093.21  78.2952
 55.5556  6048.66  78.0814
 55.5976  6185.22  79.0131
 55.6396  6082.21  78.221
 55.6816  6130.06  78.4873
 55.7236  6141.45  78.6017
 55.7656  6223.93  78.8854
 55.8076  6189.26  78.647
 55.8496  5985.83  77.7677
 55.8916  6096.86  78.5422
 55.9336  6015.91  77.8696
 55.9756  6068.74  78.107
 56.0176  6111.36  78.5269
 56.0596  6024.41  77.9536
 56.1016  6067.26  78.2658
 56.1436  6028.15  78.2468
 56.1856  6106.82  78.4948
 56.2276  5998.61  77.8566
 56.2696  6093.36  78.441
 56.3116  6038.41  78.4832
 56.3536  6112.83  78.6291
 56.3956  6082.52  78.4238
 56.4376  6082.11  78.4523
 56.4796  6094.12  78.3355
 56.5216  6083.42  78.6336
 56.5636  6055.29  78.0499
 56.6056  6087.12  78.4831
 56.6476  6092.31  78.1471
 56.6896  6077.77  78.5022
 56.7316  6065.26  78.3262
 56.7736  6108.48  78.6012
 56.8156  6116.06  78.6496
 56.8576  6025.54  78.0066
 56.8996  6050.21  78.1083
 56.9416  5999.05  78.0752
 56.9836  6018.91  77.7242
 57.0256  5992.17  77.8649
 57.0676  5980.7  77.9148
 57.1096  5970.74  77.6404
 57.1516  6040.2  78.1165
 57.1936  6059.08  78.0254
 57.2356  6008.33  78.0114
 57.2776  6007.25  77.9578
 57.3196  6066.75  78.7086
 57.3616  6039.08  78.0332
 57.4036  6047.7  78.1494
 57.4456  5979.88  77.6759
 57.4876  6052.77  78.0058
 57.5296  5976.99  77.7554
 57.5716  6045.98  78.2802
 57.6136  6020.53  77.9412
 57.6556  6009.37  78.0144
 57.6976  6061.5  78.1584
 57.7396  5886.51  77.3965
 57.7816  5900.7  77.8489
 57.8236  5997.08  78.2793
 57.8656  6003.24  77.9817
 57.9076  6015.85  78.0947
 57.9496  5995.79  78.3022
 57.9916  6037.46  78.0884
 58.0336  5993.54  78.0828
 58.0756  6032.38  77.9293
 58.1176  5984.52  77.6571
 58.1596  6002.49  78.3457
 58.2016  6083.55  78.0873
 58.2436  6007.97  78.0106
 58.2856  6020.61  78.0104
 58.3276  5966.14  78.0294
 58.3696  5927.25  77.5237
 58.4116  6009.99  77.9334
 58.4536  6133.35  78.6157
 58.4956  5984.67  77.8323
 58.5376  6013.82  77.598
 58.5796  5991.9  77.8738
 58.6216  5993.29  77.7033
 58.6636  6083.34  78.4955
 58.7056  6064.82  78.2333
 58.7476  6062.05  78.6633
 58.7896  5861.89  77.004
 58.8316  6001.88  77.9117
 58.8736  6080.03  78.4165
 58.9156  5966.11  77.7335
 58.9576  6137.09  79.1559
 58.9996  6105.53  78.1927
 59.0416  6144.84  78.8098
 59.0836  6085.62  78.3633
 59.1256  5935.8  78.0843
 59.1676  5968.24  78.6079
 59.2096  6120.41  78.8973
 59.2516  6024.48  77.8581
 59.2936  6068.64  78.4718
 59.3356  6162.72  78.9542
 59.3776  6151.9  79.0554
 59.4196  6020.78  78.1439
 59.4616  6099.04  78.51
 59.5036  5982.85  77.7939
 59.5456  6163.51  78.6499
 59.5876  6196.79  79.0554
 59.6296  5955.35  77.5688
 59.6716  5946.53  77.5688
 59.7136  6098.48  78.5418
 59.7556  6020.14  78.172
 59.7976  5901.42  77.1425
 59.8396  5954.21  77.3818
 59.8816  6023.11  78.373
 59.9236  6150.89  78.8402
 59.9656  5973.01  77.9511
 60.0076  6197.5  78.7515
 60.0496  6035.15  78.2169
 60.0916  6103.89  78.076
 60.1336  5988.95  78.44
 60.1756  6021.52  79.8353
 60.1996  0.0000000E+00  0.0000000E+00