File: docs/examples/XRD/IS17_D/Data/IS17_D/17_Db_f00055.xye
# /beamlines/bl04/projects/cycle2025-II/20250340211-lsimonelli/DATA/IS17_D/17_Db_f00055.xye : mythproc.py merge -s 0.006 -l 0.5 -f /beamlines/bl04/inhouse/ff/FlatField/ff_20Nov2024rod8mm60s_17keV.raw -b True -c true -o xye /beamlines/bl04/projects/cycle2025-II/20250340211-lsimonelli/DATA/IS17_D/17_Db_00055.dat
# IsMon = [6784432, 6784400, 6786146]  IsPos = [-1.4999, -2.4885, -3.4988]
# Wave = 0.4962  CalPath /beamlines/bl04/projects/cycle2025-II/20250340211-lsimonelli/DATA/Align/Si_Pos1_25keV_f00001.cal
# Date = 2025-09-24_09:00:11 Dt = 4.8000  Bin = 0.0060  <imon> = 6784993 +/- 816 (Min/Max) 6784400 / 6786146
# icurr 252.5782  mocoIn 1.7228E-05  mocoOut 0.8086  i15 7.10673e+06  imon 6.78499e+06  i7 4.6667  iEMpd_timer 4.8000  iEMpd_1 3.5162E-08  iEMpd_2 7.7534E-08  iEMpd_3 1.7376E-08  iEMpd_4 4.7307E-08  iEMhp_timer 4.8000  iEMhp_1 4.9347E-06  iEMhp_2 -2.4516E-08  iEMhp_3 -2.4010E-08  iEMhp_4 -2.0828E-08
#      9776
 1.5856  44959  217.736
 1.6276  51475.6  228.984
 1.6696  57281.3  240.7
 1.7116  64328.2  255.575
 1.7536  72577  270.311
 1.7956  76641.1  278.471
 1.8376  72977.6  272.164
 1.8796  63078.4  251.179
 1.9216  52506.2  230.071
 1.9636  45062.4  212.266
 2.0056  41034.3  201.771
 2.0476  38473.4  197.516
 2.0896  37291.8  193.319
 2.1316  36147.5  189.415
 2.1736  34468.9  186.432
 2.2156  34677  185.493
 2.2576  33594.5  183.231
 2.2996  32315.6  180.367
 2.3416  32957.1  180.693
 2.3836  32056.1  178.318
 2.4256  30915.6  175.688
 2.4676  30921.1  175.454
 2.5096  30594.6  174.582
 2.5516  29191.7  174.437
 2.5936  29245.9  171.106
 2.6356  28582.4  169.872
 2.6776  28388.5  168.176
 2.7196  28031.8  167.615
 2.7616  27984.5  167.254
 2.8036  27559.6  166.151
 2.8456  27665.8  167.122
 2.8876  27201.7  165.546
 2.9296  26450.8  163.405
 2.9716  26377.7  162.659
 3.0136  25890.3  161.219
 3.0556  26142.8  162.403
 3.0976  26095.5  161.143
 3.1396  25664.8  160.53
 3.1816  25412  159.686
 3.2236  25237.2  159.121
 3.2656  25024.3  157.494
 3.3076  24995  158.888
 3.3496  25333.8  159.105
 3.3916  25488.8  159.169
 3.4336  26037  161.47
 3.4756  26268.2  162.125
 3.5176  26995.4  164.123
 3.5596  26600.6  165.386
 3.6016  26746.2  163.416
 3.6436  25867.5  161.838
 3.6856  25521.9  159.037
 3.7276  24494.5  156.892
 3.7696  24281.6  156.404
 3.8116  23927.9  155.15
 3.8536  24231.5  156.058
 3.8956  24212.2  155.806
 3.9376  23997.9  155.393
 3.9796  23751.7  154.084
 4.0216  23982.3  153.854
 4.0636  23754.3  154.595
 4.1056  23732.6  154.184
 4.1476  24283.3  156.271
 4.1896  24254  156.029
 4.2316  24315.7  156.053
 4.2736  24613.6  156.812
 4.3156  24815.8  157.685
 4.3576  25854.6  160.851
 4.3996  25978.5  161.518
 4.4416  26395.2  162.386
 4.4836  26863  163.983
 4.5256  27600.6  166.841
 4.5676  27239.4  166
 4.6096  27926.2  166.714
 4.6516  28111.9  166.96
 4.6936  28020.3  167.524
 4.7356  28354  168.339
 4.7776  28364.4  168.198
 4.8196  28267.6  168.569
 4.8616  27544.6  166.018
 4.9036  27564.9  165.68
 4.9456  27441.7  165.963
 4.9876  26784.6  163.866
 5.0296  26979.7  164.302
 5.0716  26810.1  164.404
 5.1136  26975.2  164.768
 5.1556  27066.8  164.496
 5.1976  27770.4  166.618
 5.2396  27657.8  165.974
 5.2816  27676.7  166.505
 5.3236  27802.3  166.57
 5.3656  27214.4  165.742
 5.4076  26902.3  164.932
 5.4496  26918.8  164.475
 5.4916  27314.3  165.427
 5.5336  27205.4  165.105
 5.5756  27184.5  165.057
 5.6176  27242.1  164.669
 5.6596  27546.5  166.579
 5.7016  27498.3  165.691
 5.7436  27725.1  166.654
 5.7856  27469  165.95
 5.8276  27546.9  165.895
 5.8696  28071  167.642
 5.9116  27847.5  167.577
 5.9536  28402  168.979
 5.9956  28538.7  168.769
 6.0376  28464.3  169.176
 6.0796  28658.5  169.571
 6.1216  28606.7  169.625
 6.1636  28763.6  169.14
 6.2056  28635.1  169.443
 6.2476  29084.6  170.636
 6.2896  29477.7  171.463
 6.3316  29368.9  171.32
 6.3736  29299  171.008
 6.4156  29324.1  170.959
 6.4576  29547.8  171.238
 6.4996  29454.3  171.446
 6.5416  29690  172.255
 6.5836  29714.3  172.569
 6.6256  30020.7  173.008
 6.6676  30420.8  173.729
 6.7096  30307.5  174.265
 6.7516  30695.1  175.03
 6.7936  30924  175.075
 6.8356  30960  175.277
 6.8776  31133.6  176.574
 6.9196  31129.3  176.964
 6.9616  31562  177.604
 7.0036  32162.5  178.963
 7.0456  32190.8  178.337
 7.0876  32108.6  179.804
 7.1296  32137.6  179.021
 7.1716  32096.7  178.438
 7.2136  31759  177.273
 7.2556  32193.3  178.636
 7.2976  32168.2  179.065
 7.3396  32043.8  178.952
 7.3816  32052.8  179.19
 7.4236  32122.5  178.678
 7.4656  32345.5  178.749
 7.5076  32761  180.052
 7.5496  32364.6  179.496
 7.5916  32702.6  180.477
 7.6336  32945.3  181.032
 7.6756  33229.6  181.653
 7.7176  33601.7  183.006
 7.7596  33353.3  183.553
 7.8016  33990.4  187.547
 7.8436  33840.8  183.772
 7.8856  34228.8  184.433
 7.9276  34569  185.739
 7.9696  34778.8  186.615
 8.0116  35602.9  187.355
 8.0536  35762.6  188.025
 8.0956  35680.2  188.992
 8.1376  36298  190.088
 8.1796  36581.2  191.371
 8.2216  37099.4  191.454
 8.2636  37062.6  191.612
 8.3056  36972.4  192.145
 8.3476  37909.9  193.888
 8.3896  37524.1  192.978
 8.4316  37613.2  193.38
 8.4736  37788.2  193.297
 8.5156  37164.3  191.97
 8.5576  37275.7  193.228
 8.5996  37325.7  192.231
 8.6416  37123  192.975
 8.6836  36631.1  191.517
 8.7256  37517  193.271
 8.7676  37191.8  195.364
 8.8096  37575.5  193.634
 8.8516  37475.8  192.944
 8.8936  37011.5  191.702
 8.9356  37237.1  192.62
 8.9776  37010.9  192.117
 9.0196  37324.5  192.591
 9.0616  36862.2  190.896
 9.1036  36432.7  190.954
 9.1456  36329.7  190.012
 9.1876  36749.3  191.055
 9.2296  36236.1  189.145
 9.2716  35683.7  187.738
 9.3136  36059.9  188.722
 9.3556  36259.3  189.215
 9.3976  35254.8  187.1
 9.4396  35388.3  187.359
 9.4816  34903.7  185.929
 9.5236  34877.3  185.755
 9.5656  34701.1  185.643
 9.6076  33777.1  183.676
 9.6496  34206  184.719
 9.6916  34013.6  184.164
 9.7336  34153.8  184.31
 9.7756  33890.1  184.977
 9.8176  33738.2  183.983
 9.8596  33745.1  182.432
 9.9016  32949.9  180.256
 9.9436  33020.1  180.36
 9.9856  32857.5  180.193
 10.0276  32258.2  179.624
 10.0696  32672.4  179.8
 10.1116  31738.6  177.474
 10.1536  31719  177.567
 10.1956  31124.2  175.513
 10.2376  31038.5  174.781
 10.2796  30895  174.488
 10.3216  30497.7  173.652
 10.3636  30226.7  172.903
 10.4056  29678.1  171.731
 10.4476  29834.7  171.786
 10.4896  30166.5  172.181
 10.5316  29275.8  170.356
 10.5736  29002.5  169.967
 10.6156  28778.5  169.062
 10.6576  29107  168.58
 10.6996  28340  167.051
 10.7416  28465.1  167.631
 10.7836  27948.3  166.771
 10.8256  27623.1  166.225
 10.8676  27638.5  165.815
 10.9096  27515.4  165.477
 10.9516  27125.5  163.243
 10.9936  27199.9  163.677
 11.0356  27055.8  163.846
 11.0776  26908.9  162.74
 11.1196  26422.7  162.027
 11.1616  26085.6  160.664
 11.2036  26331.9  161.262
 11.2456  26040.7  161.083
 11.2876  26386.3  161.871
 11.3296  25742.8  159.798
 11.3716  26474.3  161.733
 11.4136  26314.4  162.13
 11.4556  26350.4  161.901
 11.4976  26973  162.783
 11.5396  27205.8  163.664
 11.5816  27656.1  165.468
 11.6236  26927.6  163.721
 11.6656  26740.5  162.069
 11.7076  25705.6  159.738
 11.7496  25368.8  162.711
 11.7916  25524.8  158.432
 11.8336  24891.6  157.369
 11.8756  24841.3  156.734
 11.9176  24886.7  156.547
 11.9596  24856.5  156.624
 12.0016  24722.9  156.987
 12.0436  24975.7  157.22
 12.0856  24574.3  156.463
 12.1276  24338.1  155.656
 12.1696  24340.9  154.776
 12.2116  24184.8  154.277
 12.2536  24269.3  155.368
 12.2956  23944.7  153.671
 12.3376  24308.1  155.044
 12.3796  24244.7  155.32
 12.4216  24471.6  155.23
 12.4636  23972.2  154.583
 12.5056  24188.3  154.538
 12.5476  24317.8  154.456
 12.5896  24007.2  154.119
 12.6316  23987.3  154.209
 12.6736  23754.4  153.941
 12.7156  24129.8  154.986
 12.7576  23801.5  154.181
 12.7996  24288  154.387
 12.8416  23979.3  154.454
 12.8836  24237.4  155.122
 12.9256  24541.8  155.11
 12.9676  24480.8  155.33
 13.0096  24665.7  157.04
 13.0516  24772.3  156.393
 13.0936  25004.7  157.54
 13.1356  25128.5  156.888
 13.1776  24634.8  156.355
 13.2196  24945.6  156.977
 13.2616  24489.6  155.853
 13.3036  24961.6  157.311
 13.3456  24510.4  156.026
 13.3876  24964.3  156.94
 13.4296  24509.9  155.677
 13.4716  24742.1  156.032
 13.5136  24728.4  156.109
 13.5556  24493.8  156.014
 13.5976  24844.7  157.294
 13.6396  24872.1  156.732
 13.6816  24741.7  156.793
 13.7236  25192.8  157.792
 13.7656  26794.2  163.209
 13.8076  27300.7  163.343
 13.8496  26911.2  162.863
 13.8916  25171  158.673
 13.9336  24237.5  154.96
 13.9756  24553.5  155.352
 14.0176  24114.6  154.641
 14.0596  24079.2  154.456
 14.1016  23994.1  154.612
 14.1436  24220.2  154.456
 14.1856  23332.9  151.893
 14.2276  23458.8  152.795
 14.2696  23238  151.923
 14.3116  22909.8  150.754
 14.3536  22504.9  149.578
 14.3956  22637.7  149.742
 14.4376  22893.9  150.371
 14.4796  22784.9  150.015
 14.5216  22140.7  148.662
 14.5636  22115  148.149
 14.6056  22465.4  148.869
 14.6476  22371.7  147.803
 14.6896  21959.6  146.98
 14.7316  21536.2  146.596
 14.7736  21330.7  145.033
 14.8156  21188.8  144.575
 14.8576  21154.2  144.315
 14.8996  20784.5  144.247
 14.9416  20466.8  143.156
 14.9836  20482.4  143.189
 15.0256  19971.1  140.303
 15.0676  19903.3  140.376
 15.1096  19746.9  139.564
 15.1516  19605.1  139.619
 15.1936  19465.2  138.549
 15.2356  19235.6  138.005
 15.2776  19002.7  136.759
 15.3196  18657.9  136.5
 15.3616  18529.2  135.786
 15.4036  18683  136.212
 15.4456  18747.9  136.098
 15.4876  18445.4  134.682
 15.5296  18311.6  134.479
 15.5716  17971.8  132.828
 15.6136  18111.3  133.665
 15.6556  18010  132.542
 15.6976  18034  132.709
 15.7396  17782.1  132.371
 15.7816  17880.3  132.256
 15.8236  17449.3  131.337
 15.8656  17560.4  131.551
 15.9076  17319.5  130.466
 15.9496  18189.7  136.555
 15.9916  17846.4  135.664
 16.0336  17965.5  132.951
 16.0756  17556.3  131.747
 16.1176  17508.9  131.656
 16.1596  17130.3  131.393
 16.2016  17080.2  129.967
 16.2436  17068.7  130.303
 16.2856  16997.3  129.531
 16.3276  16828.3  129.334
 16.3696  16988.7  129.777
 16.4116  16740.5  129.27
 16.4536  16940.5  129.85
 16.4956  16946.7  129.61
 16.5376  16833.7  129.364
 16.5796  16726.1  128.312
 16.6216  16940.2  129.395
 16.6636  16438.9  127.658
 16.7056  16673.2  128.426
 16.7476  16499.7  127.285
 16.7896  16539.2  128.187
 16.8316  16717.9  128.856
 16.8736  16809.9  129.466
 16.9156  16478.6  128.516
 16.9576  16485.3  129.343
 16.9996  16503.6  129.898
 17.0416  16569.7  128.519
 17.0836  16519.9  128.087
 17.1256  16360.5  127.474
 17.1676  16473.2  127.871
 17.2096  16234.9  126.849
 17.2516  16065.1  125.955
 17.2936  16152.1  126.658
 17.3356  15855.1  125.476
 17.3776  15913.2  125.893
 17.4196  15656  124.57
 17.4616  15729.6  124.773
 17.5036  15390.5  123.786
 17.5456  15512.4  124.909
 17.5876  15393.1  123.467
 17.6296  15353.7  123.148
 17.6716  15321.8  123.6
 17.7136  15343.8  123.814
 17.7556  15016.4  122.787
 17.7976  14822.5  121.589
 17.8396  15066.2  122.208
 17.8816  14889  122.065
 17.9236  14707.6  121.118
 17.9656  14810.3  122.214
 18.0076  14747.5  121.375
 18.0496  14733.8  120.462
 18.0916  14628.3  120.577
 18.1336  14568.1  120.422
 18.1756  14793.7  120.905
 18.2176  14495.7  119.886
 18.2596  14466.6  119.499
 18.3016  14714  120.776
 18.3436  14787.3  121.321
 18.3856  14504.9  120.057
 18.4276  14453  119.527
 18.4696  14444.5  119.569
 18.5116  14583  120.421
 18.5536  14311  119.656
 18.5956  14226.2  118.862
 18.6376  14171.8  119.038
 18.6796  14216.9  118.538
 18.7216  14376.2  119.765
 18.7636  14311.6  119.433
 18.8056  14139.9  118.636
 18.8476  13970.7  118.548
 18.8896  14202.5  118.861
 18.9316  14209.4  118.714
 18.9736  14134.2  118.261
 19.0156  13947.7  117.895
 19.0576  14196  117.772
 19.0996  14248.9  118.72
 19.1416  14123.8  118.593
 19.1836  14030.4  117.8
 19.2256  13852.5  117.276
 19.2676  13922.5  117.654
 19.3096  13993.4  118.203
 19.3516  13783.3  117.271
 19.3936  13852.3  117.458
 19.4356  14243.7  118.987
 19.4776  14101.7  118.481
 19.5196  13930.9  117.621
 19.5616  13856.6  117.554
 19.6036  13722.3  116.487
 19.6456  13999.1  117.778
 19.6876  13927.7  117.115
 19.7296  14071.1  118.174
 19.7716  13932  117.621
 19.8136  14261.7  119.351
 19.8556  14217.6  118.642
 19.8976  14258.3  118.867
 19.9396  14402.6  119.057
 19.9816  14442  119.471
 20.0236  14776.3  121.046
 20.0656  14873.3  121.442
 20.1076  15005.7  122.471
 20.1496  14697.2  121.2
 20.1916  14495  119.871
 20.2336  14303.7  119.003
 20.2756  14064.1  118.426
 20.3176  13812.6  117.114
 20.3596  13771.4  116.93
 20.4016  13828.6  116.977
 20.4436  13494.4  116.123
 20.4856  13696.6  116.771
 20.5276  13477.3  116.296
 20.5696  13575.6  116.166
 20.6116  13627.8  116.67
 20.6536  13268.9  114.681
 20.6956  13368.9  115.196
 20.7376  13285.1  115.045
 20.7796  13290  114.757
 20.8216  13365.9  114.797
 20.8636  13406.9  115.353
 20.9056  13175  114.29
 20.9476  13317.3  114.75
 20.9896  13253.9  114.338
 21.0316  13162.5  113.847
 21.0736  13193.5  114.499
 21.1156  13036.8  113.978
 21.1576  13273.2  115.044
 21.1996  12991.6  113.805
 21.2416  13212.9  114.594
 21.2836  13116.9  114.153
 21.3256  13070.9  114.026
 21.3676  13085.3  113.618
 21.4096  12967.2  113.432
 21.4516  13053.3  113.666
 21.4936  12737.6  112.566
 21.5356  13045.1  113.858
 21.5776  13104.9  113.947
 21.6196  12878.3  113
 21.6616  12984.1  113.549
 21.7036  12908.3  112.984
 21.7456  12917.2  113.107
 21.7876  12872.1  112.666
 21.8296  12842.5  112.379
 21.8716  12770.3  112.293
 21.9136  12897.4  113.045
 21.9556  12716  111.938
 21.9976  12675.5  111.78
 22.0396  12552.9  111.493
 22.0816  12593.2  112.197
 22.1236  12726  112.242
 22.1656  12686.5  112.264
 22.2076  12591.3  111.251
 22.2496  12561.2  111.147
 22.2916  12644.1  111.396
 22.3336  12535.4  111.617
 22.3756  12521.2  111.295
 22.4176  12417.4  110.686
 22.4596  12252  110.529
 22.5016  12439  110.879
 22.5436  12647.8  111.675
 22.5856  12576.7  111.609
 22.6276  12864.8  113.018
 22.6696  12645.3  112.405
 22.7116  12414.2  110.887
 22.7536  12395  110.775
 22.7956  12510.3  110.626
 22.8376  12317.2  110.281
 22.8796  12410.2  110.501
 22.9216  12368.3  110.855
 22.9636  12304.5  109.731
 23.0056  12390  110.242
 23.0476  12393.6  110.826
 23.0896  12678  111.469
 23.1316  12581.7  111.48
 23.1736  12677.8  114.862
 23.2156  12923.1  113.31
 23.2576  13010.3  113.831
 23.2996  12667.8  112.09
 23.3416  12919.8  113.741
 23.3836  12899.3  112.874
 23.4256  12971.9  113.313
 23.4676  12752.3  112.039
 23.5096  12769.8  112.779
 23.5516  12632.6  111.457
 23.5936  12873.4  113.446
 23.6356  12819.7  112.871
 23.6776  12690.4  112.516
 23.7196  12402  110.801
 23.7616  12611.5  111.655
 23.8036  12817.5  112.618
 23.8456  12607  111.242
 23.8876  12580.8  111.485
 23.9296  12436.8  111.337
 23.9716  12550.3  111.04
 24.0136  12631.4  112.31
 24.0556  12442.2  111.174
 24.0976  12298.5  110.352
 24.1396  12260.3  112.81
 24.1816  12373.7  112.069
 24.2236  12455.8  111.732
 24.2656  12261.2  110.328
 24.3076  12303.4  110.789
 24.3496  12114  109.806
 24.3916  12174  110.137
 24.4336  12186.1  110.397
 24.4756  12123.3  109.993
 24.5176  12031.6  109.196
 24.5596  12067.4  109.485
 24.6016  11843.4  108.762
 24.6436  11913  108.586
 24.6856  11727.5  107.488
 24.7276  11775.1  108.024
 24.7696  11692.4  107.758
 24.8116  11667.7  107.816
 24.8536  11572.6  107.385
 24.8956  11704.3  107.718
 24.9376  11555.5  106.963
 24.9796  11530.3  107.197
 25.0216  11416.7  106.798
 25.0636  11469.6  106.692
 25.1056  11310.3  106.383
 25.1476  11325  108.361
 25.1896  11332.9  106.897
 25.2316  11161.2  105.361
 25.2736  11371.7  106.002
 25.3156  11227.4  105.407
 25.3576  11180.1  105.61
 25.3996  11289.7  106.114
 25.4416  11334.2  106.301
 25.4836  11123.9  105.823
 25.5256  11182.8  105.471
 25.5676  11127  104.934
 25.6096  10978.7  104.81
 25.6516  11210.4  105.408
 25.6936  11217.9  105.761
 25.7356  11008.9  104.904
 25.7776  11111.9  104.99
 25.8196  10966.8  104.538
 25.8616  10872.2  104.021
 25.9036  11104.5  104.581
 25.9456  10915.2  104.28
 25.9876  10911.2  104.322
 26.0296  11149.1  105.049
 26.0716  10982.3  104.606
 26.1136  10895.1  104.122
 26.1556  10979.7  103.908
 26.1976  10864.5  104.295
 26.2396  10873.2  103.743
 26.2816  10912.5  104.289
 26.3236  11074.7  105.218
 26.3656  11137.9  105.234
 26.4076  10932.8  104.465
 26.4496  11142.5  105.051
 26.4916  11232.9  105.376
 26.5336  11506.5  106.997
 26.5756  11758.9  108.037
 26.6176  11050.2  104.76
 26.6596  10828.5  104.007
 26.7016  10932.2  104.262
 26.7436  10979.6  104.618
 26.7856  10756.4  103.54
 26.8276  10724.4  103.348
 26.8696  10865.4  103.896
 26.9116  10661.1  102.861
 26.9536  10566.8  102.443
 26.9956  10416.1  101.747
 27.0376  10576.9  102.752
 27.0796  10553.9  102.441
 27.1216  10634.6  102.82
 27.1636  10488.2  102.284
 27.2056  10447.7  101.963
 27.2476  10500.1  102.193
 27.2896  10409  101.889
 27.3316  10341.7  101.27
 27.3736  10280.3  101.242
 27.4156  10450.9  101.906
 27.4576  10392.2  101.844
 27.4996  10519.9  102.08
 27.5416  10339.5  101.509
 27.5836  10341.2  101.348
 27.6256  10321.4  101.436
 27.6676  10288.7  101.263
 27.7096  10375.6  101.571
 27.7516  10217.8  100.94
 27.7936  10552.4  102.73
 27.8356  10465  101.908
 27.8776  10501  102.148
 27.9196  10109.9  100.091
 27.9616  10376.9  101.604
 28.0036  10200.5  100.696
 28.0456  10141.6  100.546
 28.0876  10081.4  100.333
 28.1296  10162.3  100.564
 28.1716  10271.3  101.128
 28.2136  10137.1  100.426
 28.2556  10048.2  100.103
 28.2976  10025.9  99.9855
 28.3396  9937.71  99.3391
 28.3816  10076.9  99.995
 28.4236  10003.3  99.7903
 28.4656  9880.41  99.2187
 28.5076  10050.5  99.7045
 28.5496  9955.26  99.4778
 28.5916  10002.6  99.5403
 28.6336  10029  100.006
 28.6756  9903.36  98.5788
 28.7176  9960.61  99.4254
 28.7596  9805.72  98.5437
 28.8016  9892.38  99.0148
 28.8436  9822.54  98.8934
 28.8856  9910.36  99.197
 28.9276  9939.83  99.5848
 28.9696  9844.79  98.7719
 29.0116  9868.64  99.0625
 29.0536  9762.23  98.7477
 29.0956  9815.26  98.7178
 29.1376  9770.51  98.4604
 29.1796  9807.64  98.6971
 29.2216  9678.86  97.8866
 29.2636  9986.22  99.4236
 29.3056  9657.99  97.6315
 29.3476  9812.73  98.9468
 29.3896  9826.59  99.1343
 29.4316  9612.15  97.3789
 29.4736  9528.45  97.0138
 29.5156  9674.26  97.6791
 29.5576  9443.36  97.2383
 29.5996  9613.93  97.3704
 29.6416  9567.51  97.2554
 29.6836  9472.78  96.7007
 29.7256  9460.27  97.1947
 29.7676  9564.44  97.3841
 29.8096  9366.72  96.3242
 29.8516  9440.67  97.0327
 29.8936  9432.42  97.0835
 29.9356  9532.64  97.3534
 29.9776  9450.84  97.0877
 30.0196  9413.32  96.2928
 30.0616  9277.93  95.9616
 30.1036  9355.58  96.1888
 30.1456  9287.2  96.0662
 30.1876  9362.39  96.4343
 30.2296  9338.24  96.2556
 30.2716  9416.16  96.2989
 30.3136  9415.64  97.1495
 30.3556  9626.12  98.2321
 30.3976  9431.33  98.7244
 30.4396  9670.15  97.3137
 30.4816  9663.7  96.8823
 30.5236  9739.11  97.2531
 30.5656  9496.97  96.7058
 30.6076  9551.25  96.3726
 30.6496  9598.14  97.0289
 30.6916  9403.95  96.1345
 30.7336  9527.14  96.9048
 30.7756  9534.3  97.0354
 30.8176  9608.11  97.3288
 30.8596  9515.58  96.6212
 30.9016  9497.45  96.8857
 30.9436  9546.5  96.8698
 30.9856  9674.94  97.6409
 31.0276  9370.7  95.7237
 31.0696  9438.16  96.623
 31.1116  9476.73  96.8037
 31.1536  9426.81  96.4067
 31.1956  9286.86  95.7891
 31.2376  9051.07  94.5848
 31.2796  9276.42  95.2852
 31.3216  9511.52  96.4096
 31.3636  9451.77  96.8218
 31.4056  9362.7  97.6436
 31.4476  9433.7  95.9494
 31.4896  9269.63  95.6117
 31.5316  9372.71  95.5865
 31.5736  9430.39  95.6662
 31.6156  9430.58  95.6711
 31.6576  9466.35  95.9296
 31.6996  9460.55  95.543
 31.7416  9302.36  95.8504
 31.7836  9344.06  95.0679
 31.8256  9338.1  95.3845
 31.8676  9520.77  96.2133
 31.9096  9280.54  95.3743
 31.9516  9066.75  94.4368
 31.9936  9176.74  94.8298
 32.0356  9307.88  95.5517
 32.0776  9348.81  95.6485
 32.1196  9301.7  95.5254
 32.1616  9393.27  95.4391
 32.2036  9373.41  95.8469
 32.2456  9242.84  95.5635
 32.2876  9273.7  95.0527
 32.3296  9219.81  94.9056
 32.3716  9010.36  93.9335
 32.4136  9120.62  94.7004
 32.4556  9120.14  94.1491
 32.4976  9116.49  93.9771
 32.5396  9011.77  93.5033
 32.5816  9072.09  93.9396
 32.6236  8998.11  93.6189
 32.6656  9219.4  95.3122
 32.7076  9021.3  93.9361
 32.7496  8969.76  93.3472
 32.7916  9139.67  94.1836
 32.8336  9025.6  93.6854
 32.8756  9121.23  93.9058
 32.9176  8863.15  93.0449
 32.9596  8979.91  93.7278
 33.0016  8932.52  93.2475
 33.0436  8986.91  93.6981
 33.0856  8953.1  93.6295
 33.1276  8793.37  92.5291
 33.1696  8942.19  93.1296
 33.2116  9063.67  93.9963
 33.2536  9021.74  93.7711
 33.2956  9061.41  94.0669
 33.3376  8933.8  93.1418
 33.3796  8899.26  93.1822
 33.4216  8887.65  92.7063
 33.4636  8981.96  93.3495
 33.5056  8788.6  92.5898
 33.5476  8921.07  93.2631
 33.5896  9039.08  93.6438
 33.6316  8951.55  93.518
 33.6736  8770.85  92.8193
 33.7156  8814.3  93.0779
 33.7576  8935.67  93.3607
 33.7996  8850.58  92.675
 33.8416  8729.12  92.2252
 33.8836  8696.53  91.8274
 33.9256  8906.24  92.9843
 33.9676  8711.06  91.8513
 34.0096  8814.39  92.7168
 34.0516  8783.92  92.1931
 34.0936  8789.24  92.4917
 34.1356  8821.12  92.3999
 34.1776  8674.2  91.6215
 34.2196  8687.51  91.8727
 34.2616  8673.01  91.94
 34.3036  8804.46  92.8839
 34.3456  8656.65  91.8548
 34.3876  8830.28  92.7431
 34.4296  8657.62  91.5215
 34.4716  8751.36  92.1631
 34.5136  8675.51  91.9538
 34.5556  8534.46  91.4638
 34.5976  8748.13  92.4116
 34.6396  8621.24  91.4463
 34.6816  8717.76  92.0652
 34.7236  8730.88  91.9126
 34.7656  8597.11  91.4116
 34.8076  8460.85  91.0171
 34.8496  8461.27  90.8695
 34.8916  8662.75  91.8053
 34.9336  8657.82  91.7624
 34.9756  8616.98  91.4659
 35.0176  8657.41  92.206
 35.0596  8791.52  92.7449
 35.1016  8710.28  92.0627
 35.1436  8840.88  92.4414
 35.1856  8742.48  92.0419
 35.2276  8639.02  91.6802
 35.2696  8583.94  91.5789
 35.3116  8444.88  90.9291
 35.3536  8569.77  91.3092
 35.3956  8555.52  90.9312
 35.4376  8595.9  91.7246
 35.4796  8645.32  92.0234
 35.5216  8491.66  91.1625
 35.5636  8358.89  91.195
 35.6056  8464.07  90.7788
 35.6476  8524.29  91.0089
 35.6896  8660.1  91.8983
 35.7316  8389.75  90.354
 35.7736  8397.92  90.5908
 35.8156  8523.78  91.26
 35.8576  8556.34  91.689
 35.8996  8545.87  91.6006
 35.9416  8493.81  90.8249
 35.9836  8508.97  91.2415
 36.0256  8704.83  92.3046
 36.0676  8694.94  91.7895
 36.1096  8543.6  91.3509
 36.1516  8560.6  91.329
 36.1936  8452.15  90.5796
 36.2356  8415.72  91.0538
 36.2776  8351.33  90.1757
 36.3196  8547.89  90.8971
 36.3616  8491.4  90.729
 36.4036  8380.63  90.1997
 36.4456  8460.55  90.8491
 36.4876  8344  90.1526
 36.5296  8393.95  90.4655
 36.5716  8489.8  91.7572
 36.6136  8400.11  90.0557
 36.6556  8250.42  89.4459
 36.6976  8198.97  89.662
 36.7396  8243.79  89.6418
 36.7816  8099.29  89.2202
 36.8236  8241.11  89.9204
 36.8656  8194  89.7374
 36.9076  7987.12  88.6015
 36.9496  8096.24  89.0646
 36.9916  8052.87  88.4572
 37.0336  8214.56  89.6534
 37.0756  8304.52  89.9392
 37.1176  7982.47  88.444
 37.1596  8076.33  88.9703
 37.2016  8109.24  89.3276
 37.2436  8100.73  88.6426
 37.2856  8034.05  88.5393
 37.3276  8102.26  88.2658
 37.3696  8044.14  88.8303
 37.4116  8129.56  89.2001
 37.4536  8180.32  89.3467
 37.4956  7896.06  87.8217
 37.5376  8185.39  91.0142
 37.5796  8264.49  91.381
 37.6216  8014.86  88.2648
 37.6636  8227.76  89.3087
 37.7056  8284.07  89.8085
 37.7476  8303.35  89.4541
 37.7896  8053.86  88.6086
 37.8316  8103.06  89.0326
 37.8736  8210.78  89.1432
 37.9156  8187.92  89.0237
 37.9576  8136.65  88.6503
 37.9996  8074.59  88.014
 38.0416  7977.58  88.2981
 38.0836  8169.77  89.2583
 38.1256  8111.65  88.9118
 38.1676  7967.98  88.2313
 38.2096  8184.53  89.0354
 38.2516  8063.94  88.5984
 38.2936  8344.7  89.928
 38.3356  8118.88  88.6292
 38.3776  8096.09  88.7548
 38.4196  8076.86  88.5071
 38.4616  7996.58  88.312
 38.5036  8048.07  88.441
 38.5456  8021.32  89.1256
 38.5876  8018.52  89.1358
 38.6296  8083.86  88.458
 38.6716  8111.62  88.4155
 38.7136  8143.06  88.5343
 38.7556  8038.76  88.4721
 38.7976  8098.49  88.7167
 38.8396  7989.81  88.5926
 38.8816  8031.85  88.6175
 38.9236  8092.76  88.7421
 38.9656  8022.3  88.2627
 39.0076  8042.36  87.7719
 39.0496  8154.24  88.9502
 39.0916  8048.86  88.0176
 39.1336  8006.96  88.1814
 39.1756  7964.35  88.0187
 39.2176  7887.06  88.1266
 39.2596  8016.05  88.7737
 39.3016  8013.78  88.337
 39.3436  7891.77  88.0803
 39.3856  8087.19  88.5926
 39.4276  8162.22  89.5265
 39.4696  8010.96  88.3136
 39.5116  8077.66  89.1988
 39.5536  8060.89  89.5154
 39.5956  8097.07  88.8211
 39.6376  8058.75  88.6119
 39.6796  7950.18  87.7533
 39.7216  8062.76  88.4743
 39.7636  8055.12  89.001
 39.8056  8071.84  88.8805
 39.8476  7905.62  88.2139
 39.8896  8055.72  88.6722
 39.9316  7972.53  88.4643
 39.9736  8100.34  88.74
 40.0156  7897.9  87.4555
 40.0576  7917.04  87.9084
 40.0996  7940.82  87.2326
 40.1416  8006.43  88.3906
 40.1836  8007.79  88.2828
 40.2256  7994.08  88.2507
 40.2676  8014.31  88.4622
 40.3096  8015.19  88.3938
 40.3516  8036.76  88.6307
 40.3936  8059.65  88.3038
 40.4356  7966.46  88.0011
 40.4776  8122.18  89.2664
 40.5196  7974.84  88.5768
 40.5616  8129.39  89.0673
 40.6036  7918.4  88.1627
 40.6456  7996.39  88.2038
 40.6876  8053.29  88.5049
 40.7296  7974.36  88.2067
 40.7716  8057.57  88.776
 40.8136  8026.41  88.5607
 40.8556  8065.27  88.9114
 40.8976  8040.48  88.6905
 40.9396  8051.25  89.0975
 40.9816  8084.87  88.5766
 41.0236  8010.37  87.9472
 41.0656  8075.4  88.8458
 41.1076  8021.32  88.3202
 41.1496  8054.89  88.4065
 41.1916  7964.57  88.2197
 41.2336  8099.94  88.9705
 41.2756  8022.64  88.1536
 41.3176  8107.85  89.2292
 41.3596  8171.71  89.3159
 41.4016  7989.45  88.5772
 41.4436  8022.06  88.5377
 41.4856  7937.44  88.2399
 41.5276  8013.06  88.6733
 41.5696  8100.65  88.7706
 41.6116  8179.04  89.6093
 41.6536  8042.32  88.7014
 41.6956  8056.63  88.8551
 41.7376  7873.99  87.8642
 41.7796  7952.32  88.2323
 41.8216  7928.28  88.2823
 41.8636  7925.86  88.2146
 41.9056  7899.38  87.8593
 41.9476  8053.04  88.9446
 41.9896  8077.29  88.7456
 42.0316  7982.74  88.3059
 42.0736  8100  89.059
 42.1156  7888.72  87.7117
 42.1576  7916.14  87.9822
 42.1996  8051.36  88.8574
 42.2416  7998.28  88.1577
 42.2836  7845.37  87.4238
 42.3256  7944.73  88.0829
 42.3676  8106.11  88.7669
 42.4096  7948.2  87.8761
 42.4516  7964.25  88.0381
 42.4936  7861.18  87.5381
 42.5356  7866.19  87.7134
 42.5776  7928.28  87.9919
 42.6196  7970.15  88.2841
 42.6616  7841.92  87.7423
 42.7036  7889.23  87.3873
 42.7456  8091.1  88.8597
 42.7876  7947.78  88.1478
 42.8296  7947.28  87.9941
 42.8716  7892.7  87.8534
 42.9136  7887.58  87.6168
 42.9556  7965.99  88.1834
 42.9976  7967.9  88.1592
 43.0396  7856.65  87.2753
 43.0816  7886.26  87.8231
 43.1236  7907.3  87.9844
 43.1656  7908.18  87.8114
 43.2076  7889.21  87.8203
 43.2496  7828.72  87.304
 43.2916  7782  87.4066
 43.3336  7853.35  87.6384
 43.3756  7891.62  87.6078
 43.4176  7752.12  86.9126
 43.4596  7814.35  87.1143
 43.5016  7956.57  88.3125
 43.5436  7735.85  86.9852
 43.5856  7710.37  86.8712
 43.6276  7745.02  86.9577
 43.6696  7793.64  87.3738
 43.7116  7879.23  87.4595
 43.7536  7855.88  87.8298
 43.7956  7704.5  88.1943
 43.8376  7567.23  85.9359
 43.8796  7696.11  86.7404
 43.9216  7658.84  86.4516
 43.9636  7756.17  87.1077
 44.0056  7680.45  86.9145
 44.0476  7673.83  86.5038
 44.0896  7619.85  86.5441
 44.1316  7658.2  86.421
 44.1736  7585.13  85.988
 44.2156  7655.06  86.2456
 44.2576  7721.72  86.9475
 44.2996  7607.84  86.2742
 44.3416  7744.22  86.8036
 44.3836  7599.03  86.3132
 44.4256  7543.77  85.6408
 44.4676  7559.68  85.8906
 44.5096  7702.93  86.8462
 44.5516  7530.84  85.8353
 44.5936  7578.62  86.06
 44.6356  7559.3  85.6872
 44.6776  7566.03  86.0418
 44.7196  7593.39  86.5067
 44.7616  7585.7  87.7966
 44.8036  7630.22  86.4672
 44.8456  7754.73  87.3765
 44.8876  7800.25  87.4767
 44.9296  7784.99  86.8301
 44.9716  7718.14  86.891
 45.0136  7728.38  86.8809
 45.0556  7777.69  87.1335
 45.0976  7673.92  86.7218
 45.1396  7593.88  86.0163
 45.1816  7718.74  86.6575
 45.2236  7739.49  86.6798
 45.2656  7657.21  86.7181
 45.3076  7634.66  86.3627
 45.3496  7601.78  86.4894
 45.3916  7720.74  87.4442
 45.4336  7626.38  86.7509
 45.4756  7678.45  86.8972
 45.5176  7706.08  86.6692
 45.5596  7794.93  87.2887
 45.6016  7584.63  86.5236
 45.6436  7660.57  86.1138
 45.6856  7616.67  86.5267
 45.7276  7473.93  87.048
 45.7696  7618.33  87.5616
 45.8116  7593.6  86.8462
 45.8536  7488.7  86.1297
 45.8956  7594.44  86.0874
 45.9376  7722.36  86.2672
 45.9796  7728.97  87.0088
 46.0216  7682.08  87.0875
 46.0636  7782.68  86.7672
 46.1056  7583.12  85.6465
 46.1476  7609.65  86.393
 46.1896  7596.8  86.4729
 46.2316  7534.07  85.976
 46.2736  7546.53  86.4301
 46.3156  7538.21  85.963
 46.3576  7611.05  86.5847
 46.3996  7541.11  86.3463
 46.4416  7562.85  86.0411
 46.4836  7495.43  86.0181
 46.5256  7586.68  86.4733
 46.5676  7578.15  86.5449
 46.6096  7628.3  86.7579
 46.6516  7597.9  85.617
 46.6936  7516.2  85.6518
 46.7356  7618.12  86.3347
 46.7776  7523.97  86.6587
 46.8196  7519.27  86.2197
 46.8616  7392.62  85.4342
 46.9036  7343.71  84.8017
 46.9456  7481.75  85.2395
 46.9876  7542.07  85.6655
 47.0296  7473.28  85.9699
 47.0716  7469.02  85.7685
 47.1136  7498  85.6083
 47.1556  7557.83  85.8025
 47.1976  7594.39  86.0975
 47.2396  7540.55  86.2016
 47.2816  7408.94  85.1472
 47.3236  7483.27  85.9486
 47.3656  7535.58  86.1766
 47.4076  7515.91  85.8619
 47.4496  7403.02  85.3085
 47.4916  7402.83  85.5025
 47.5336  7545.85  86.1299
 47.5756  7584.27  86.472
 47.6176  7458.16  85.6536
 47.6596  7376.49  84.8862
 47.7016  7654.2  86.2838
 47.7436  7509.23  85.8143
 47.7856  7539.64  86.0106
 47.8276  7427.34  85.4166
 47.8696  7504.65  85.9412
 47.9116  7513.86  85.7043
 47.9536  7425.04  85.1391
 47.9956  7384.52  85.6239
 48.0376  7310.18  84.9633
 48.0796  7444.7  85.8724
 48.1216  7447.24  85.7028
 48.1636  7548.61  85.843
 48.2056  7589.45  86.3533
 48.2476  7659.2  87.0686
 48.2896  7527.88  86.2256
 48.3316  7506.05  86.036
 48.3736  7498.87  86.0248
 48.4156  7455.24  85.6187
 48.4576  7473.94  86.0285
 48.4996  7549.37  85.9006
 48.5416  7563.07  86.3112
 48.5836  7493.98  85.5852
 48.6256  7553.59  86.1297
 48.6676  7346.75  85.4656
 48.7096  7553.33  85.9119
 48.7516  7463.01  85.5556
 48.7936  7339.36  84.9054
 48.8356  7424.03  85.4409
 48.8776  7555.27  86.6879
 48.9196  7507.91  85.8646
 48.9616  7402.81  85.6561
 49.0036  7462.04  86.3527
 49.0456  7354.23  85.7072
 49.0876  7382.61  85.4961
 49.1296  7305.42  85.1164
 49.1716  7249.61  84.6562
 49.2136  7486.22  85.9415
 49.2556  7331.64  85.0818
 49.2976  7446.03  85.818
 49.3396  7375.98  85.4695
 49.3816  7476.65  85.4648
 49.4236  7426.47  85.6204
 49.4656  7344.05  85.1664
 49.5076  7405.24  85.261
 49.5496  7362.27  85.0809
 49.5916  7464.99  85.5808
 49.6336  7449.65  85.694
 49.6756  7447.23  85.933
 49.7176  7388.99  85.5299
 49.7596  7364.3  85.1482
 49.8016  7487.45  85.7693
 49.8436  7327.93  85.1668
 49.8856  7365.77  85.3653
 49.9276  7272.9  84.9503
 49.9696  7363.23  85.4514
 50.0116  7339.39  85.4522
 50.0536  7338.16  85.3845
 50.0956  7362.01  85.6019
 50.1376  7356.45  85.2531
 50.1796  7338.33  85.4342
 50.2216  7322.27  85.3227
 50.2636  7243.6  84.4821
 50.3056  7276.64  84.856
 50.3476  7435.47  85.7986
 50.3896  7260.87  84.7586
 50.4316  7354.48  85.1321
 50.4736  7309.16  85.0928
 50.5156  7238.77  84.6703
 50.5576  7376.56  85.2226
 50.5996  7350.53  85.3647
 50.6416  7348.1  85.2796
 50.6836  7311.34  85.1289
 50.7256  7363.57  85.3555
 50.7676  7383.36  85.7584
 50.8096  7245.29  84.491
 50.8516  7234.86  84.8747
 50.8936  7200.45  84.4529
 50.9356  7280.25  85.0259
 50.9776  7265.86  85.1055
 51.0196  7112.14  84.3259
 51.0616  7150.76  83.8714
 51.1036  7259.11  84.8718
 51.1456  7191.39  84.3837
 51.1876  7262.65  84.1192
 51.2296  7051.59  83.5394
 51.2716  7012.65  83.0063
 51.3136  7141.58  84.2364
 51.3556  7067.31  83.4125
 51.3976  7183.75  84.2505
 51.4396  6941.21  83.1314
 51.4816  7124.99  84.0767
 51.5236  7043.93  83.6845
 51.5656  7087.86  83.5319
 51.6076  7114.66  83.7689
 51.6496  6989.36  83.2269
 51.6916  7064.82  84.0451
 51.7336  7111.12  84.4097
 51.7756  7014.86  83.5191
 51.8176  6984.74  83.4607
 51.8596  6981.71  83.4569
 51.9016  7144.4  84.0201
 51.9436  7120.02  85.4087
 51.9856  7173.97  86.1406
 52.0276  7174.53  84.5961
 52.0696  7170.34  84.6358
 52.1116  7117.59  84.4568
 52.1536  7260.11  85.1776
 52.1956  7085.02  83.5986
 52.2376  7245.66  84.7078
 52.2796  7170.61  84.0915
 52.3216  7035.19  83.9963
 52.3636  7090.03  83.8677
 52.4056  6972.01  83.042
 52.4476  6966.47  83.3745
 52.4896  6891.17  82.9606
 52.5316  7173.28  84.7038
 52.5736  6961.57  83.1586
 52.6156  7167.69  84.7924
 52.6576  7034.32  83.4243
 52.6996  6920.05  83.7447
 52.7416  6952.67  83.7891
 52.7836  7079.49  84.4404
 52.8256  7120.66  83.8722
 52.8676  6903.36  83.1668
 52.9096  7111.22  84.4852
 52.9516  7053.71  84.5497
 52.9936  7053.59  84.9207
 53.0356  7102.23  84.194
 53.0776  7151.48  84.792
 53.1196  7044.08  84.2453
 53.1616  6975.06  83.8898
 53.2036  6975.11  83.8484
 53.2456  6952.05  83.8193
 53.2876  7190.84  84.9267
 53.3296  7090.57  84.6684
 53.3716  7030.32  84.0505
 53.4136  7059.48  84.3837
 53.4556  6989.9  83.9894
 53.4976  6972.87  83.7276
 53.5396  6889.78  83.626
 53.5816  7028.01  84.0829
 53.6236  7027.98  84.4546
 53.6656  7045.12  84.1526
 53.7076  7118.16  84.5398
 53.7496  6985.61  83.8842
 53.7916  6929.87  83.6902
 53.8336  7005.25  84.0303
 53.8756  6891.86  83.9038
 53.9176  6883.57  83.173
 53.9596  6736.72  83.0568
 54.0016  6766.63  82.5671
 54.0436  6624.03  81.9158
 54.0856  6769.82  82.2313
 54.1276  6814.77  82.6936
 54.1696  6730.25  82.3451
 54.2116  6997.99  83.7206
 54.2536  6776.54  82.1936
 54.2956  6753.5  82.0995
 54.3376  6703.06  82.2832
 54.3796  6686.83  82.0747
 54.4216  6791.79  82.7901
 54.4636  6695.28  82.1641
 54.5056  6725.06  82.1449
 54.5476  6693.32  82.2932
 54.5896  6704.25  82.1973
 54.6316  6787  82.5408
 54.6736  6734.17  82.2617
 54.7156  6709.28  82.18
 54.7576  6559.23  81.2241
 54.7996  6762.69  82.6192
 54.8416  6718.23  82.4241
 54.8836  6667.26  82.2162
 54.9256  6578.04  81.4217
 54.9676  6548.04  81.0913
 55.0096  6720.19  82.2052
 55.0516  6594.78  81.5966
 55.0936  6649.09  81.65
 55.1356  6516.87  80.8786
 55.1776  6726.71  82.4108
 55.2196  6693.11  81.9884
 55.2616  6739.07  82.4894
 55.3036  6538.77  81.4389
 55.3456  6390.18  80.6433
 55.3876  6681.66  82.191
 55.4296  6430.36  80.6334
 55.4716  6522.94  81.232
 55.5136  6526.85  81.0064
 55.5556  6703.31  82.1616
 55.5976  6508.31  81.034
 55.6396  6598.04  81.5418
 55.6816  6542.26  81.0534
 55.7236  6499.52  80.8466
 55.7656  6577.46  81.0638
 55.8076  6488.43  80.5031
 55.8496  6416.95  80.3603
 55.8916  6573.23  81.5374
 55.9336  6668.21  81.9654
 55.9756  6552.48  81.1165
 56.0176  6462.2  80.7245
 56.0596  6453.98  80.6719
 56.1016  6324.82  79.9055
 56.1436  6455.2  80.9491
 56.1856  6467.14  80.7654
 56.2276  6605.03  81.6789
 56.2696  6523.9  81.154
 56.3116  6540.56  81.6393
 56.3536  6391.02  80.3762
 56.3956  6438.73  80.6482
 56.4376  6418.39  80.5684
 56.4796  6387.51  80.1784
 56.5216  6304.78  80.0376
 56.5636  6380.41  80.0719
 56.6056  6561.95  81.4475
 56.6476  6419.38  80.177
 56.6896  6574.42  81.5955
 56.7316  6442.39  80.7028
 56.7736  6490.32  81.006
 56.8156  6395.57  80.4225
 56.8576  6293.93  79.7237
 56.8996  6451.37  80.6138
 56.9416  6393.94  80.5622
 56.9836  6419.24  80.2533
 57.0256  6317.59  79.9274
 57.0676  6390.31  80.4976
 57.1096  6408.13  80.3965
 57.1516  6285.61  79.6534
 57.1936  6306.76  79.5743
 57.2356  6266.34  79.6389
 57.2776  6335.94  80.0567
 57.3196  6379.67  80.6706
 57.3616  6299.23  79.6547
 57.4036  6338.92  79.9636
 57.4456  6502.12  80.9677
 57.4876  6327.99  79.7517
 57.5296  6258.55  79.5384
 57.5716  6246.52  79.5548
 57.6136  6297.6  79.7261
 57.6556  6332.76  80.0767
 57.6976  6327.18  79.865
 57.7396  6196.46  79.3901
 57.7816  6202.45  79.7996
 57.8236  6235.87  79.7829
 57.8656  6331.19  80.0731
 57.9076  6264.26  79.6657
 57.9496  6274.27  80.0923
 57.9916  6325.92  79.922
 58.0336  6287.48  79.9601
 58.0756  6339.81  79.9174
 58.1176  6285.3  79.5711
 58.1596  6180.18  79.4992
 58.2016  6041.46  77.822
 58.2436  5961.11  77.7066
 58.2856  6100.19  78.5312
 58.3276  6157.91  79.2747
 58.3696  6008.83  78.0639
 58.4116  6147.61  78.8255
 58.4536  6097.85  78.3916
 58.4956  6039.98  78.1983
 58.5376  6139.51  78.4024
 58.5796  5990.48  77.8693
 58.6216  6020.14  77.8838
 58.6636  6014.78  78.0574
 58.7056  6055.75  78.1817
 58.7476  5936.08  77.8389
 58.7896  5947.36  77.5651
 58.8316  6021.22  78.0389
 58.8736  6094.03  78.5248
 58.9156  6078.17  78.4661
 58.9576  6020.02  78.4056
 58.9996  6035.06  77.7589
 59.0416  6068.92  78.3379
 59.0836  6037.96  78.0542
 59.1256  6010.92  78.5808
 59.1676  5988.33  78.745
 59.2096  6087.05  78.6886
 59.2516  6091.06  78.2938
 59.2936  5903.2  77.4013
 59.3356  5977.01  77.7621
 59.3776  6067.35  78.5169
 59.4196  6021  78.153
 59.4616  6091.17  78.466
 59.5036  5953.28  77.6073
 59.5456  6114.76  78.3448
 59.5876  5947.11  77.453
 59.6296  5908.87  77.2721
 59.6716  5972.23  77.7428
 59.7136  6065.91  78.3385
 59.7556  5844.9  77.0323
 59.7976  5898.45  77.1296
 59.8396  6022.8  77.8328
 59.8816  5912.87  77.6592
 59.9236  6007.53  77.9226
 59.9656  5907.2  77.5271
 60.0076  5936.86  77.0842
 60.0496  5909.59  77.4055
 60.0916  6021.85  77.5561
 60.1336  5845.98  77.5046
 60.1756  5844.07  78.6568
 60.1996  0.0000000E+00  0.0000000E+00