File: docs/examples/XRD/IS17_D/Data/IS17_D/17_Da_f00026.xye
# /beamlines/bl04/projects/cycle2025-II/20250340211-lsimonelli/DATA/IS17_D/17_Da_f00026.xye : mythproc.py merge -s 0.006 -l 0.5 -f /beamlines/bl04/inhouse/ff/FlatField/ff_20Nov2024rod8mm60s_17keV.raw -b True -c true -o xye /beamlines/bl04/projects/cycle2025-II/20250340211-lsimonelli/DATA/IS17_D/17_Da_00026.dat
# IsMon = [6763021, 6766223, 6763205]  IsPos = [-1.4999, -2.4885, -3.4988]
# Wave = 0.4962  CalPath /beamlines/bl04/projects/cycle2025-II/20250340211-lsimonelli/DATA/Align/Si_Pos1_25keV_f00001.cal
# Date = 2025-09-24_00:47:53 Dt = 4.8000  Bin = 0.0060  <imon> = 6764150 +/- 1468 (Min/Max) 6763021 / 6766223
# icurr 250.6766  mocoIn 1.7096E-05  mocoOut 0.8022  i15 7.07675e+06  imon 6.76415e+06  i7 5.3333  iEMpd_timer 4.8000  iEMpd_1 3.5669E-08  iEMpd_2 7.8261E-08  iEMpd_3 1.6929E-08  iEMpd_4 4.8431E-08  iEMhp_timer 4.8000  iEMhp_1 4.8975E-06  iEMhp_2 -2.4554E-08  iEMhp_3 -2.4802E-08  iEMhp_4 -2.2253E-08
#      9776
 1.5856  39812.1  204.902
 1.6276  47181.9  219.235
 1.6696  53135.5  231.836
 1.7116  62450.1  251.828
 1.7536  71173.3  267.696
 1.7956  76088.5  277.476
 1.8376  72473.3  271.233
 1.8796  60156.9  245.3
 1.9216  48530  221.197
 1.9636  40616.1  201.531
 2.0056  36483.8  190.263
 2.0476  33592.8  184.571
 2.0896  32499.1  180.477
 2.1316  31667  177.295
 2.1736  29921.6  173.707
 2.2156  30302.9  173.407
 2.2576  29461.3  171.596
 2.2996  28512.9  169.43
 2.3416  28645.1  168.468
 2.3836  27842.7  166.193
 2.4256  27221.4  164.864
 2.4676  26656.7  162.914
 2.5096  26567  162.692
 2.5516  26072.7  164.895
 2.5936  30257.8  174.009
 2.6356  25741  161.202
 2.6776  25087.2  158.073
 2.7196  25055.8  158.47
 2.7616  25036.6  158.191
 2.8036  24497.9  156.65
 2.8456  24522.7  157.329
 2.8876  24301.2  156.47
 2.9296  23770.5  154.9
 2.9716  23461.2  153.394
 3.0136  23242.3  152.741
 3.0556  23325.1  153.4
 3.0976  23240.1  152.082
 3.1396  23197.2  152.648
 3.1816  22685.5  150.882
 3.2236  22773.3  151.167
 3.2656  22606.2  149.676
 3.3076  22459  150.61
 3.3496  22766.1  150.839
 3.3916  23033.1  151.308
 3.4336  23629.9  153.823
 3.4756  23901.7  154.632
 3.5176  24658.8  156.852
 3.5596  24756.3  159.578
 3.6016  24738.5  157.177
 3.6436  23787  155.195
 3.6856  23506.2  152.618
 3.7276  22724  151.114
 3.7696  22505.7  150.586
 3.8116  22081.6  149.045
 3.8536  22136.8  149.173
 3.8956  22179.7  149.142
 3.9376  21975  148.693
 3.9796  22027.6  148.396
 4.0216  22090.2  147.654
 4.0636  22030.1  148.904
 4.1056  22221.4  149.192
 4.1476  22199.1  149.433
 4.1896  22409.6  150.001
 4.2316  22706.9  150.827
 4.2736  23173.8  152.154
 4.3156  23333.8  152.904
 4.3576  23872.1  154.585
 4.3996  24559.8  157.045
 4.4416  24808.4  157.435
 4.4836  25433.4  159.55
 4.5256  25768.8  161.212
 4.5676  25828.7  161.649
 4.6096  26272.6  161.7
 4.6516  26663.4  162.615
 4.6936  26828.8  163.924
 4.7356  27044.6  164.41
 4.7776  27099.3  164.41
 4.8196  26670  163.743
 4.8616  26198.7  161.908
 4.9036  26046.5  161.062
 4.9456  26014.8  161.602
 4.9876  25288.3  159.232
 5.0296  25618.4  160.087
 5.0716  25697.5  160.959
 5.1136  25610.6  160.547
 5.1556  26065.5  161.433
 5.1976  26707.4  163.406
 5.2396  26708.8  163.106
 5.2816  26591.2  163.206
 5.3236  26687.4  163.206
 5.3656  26301.3  162.933
 5.4076  26001  162.152
 5.4496  26041.7  161.77
 5.4916  26303  162.339
 5.5336  26132.1  161.816
 5.5756  25963.6  161.324
 5.6176  26083.3  161.136
 5.6596  26255.3  162.632
 5.7016  26445.3  162.491
 5.7436  26722.8  163.611
 5.7856  26656.7  163.472
 5.8276  26824.7  163.708
 5.8696  27000.5  164.413
 5.9116  27103.3  165.326
 5.9536  27103.3  165.081
 5.9956  27477.4  165.59
 6.0376  27558.6  166.464
 6.0796  27934.8  167.425
 6.1216  27828.3  167.308
 6.1636  27997.2  166.886
 6.2056  27917.8  167.304
 6.2476  28074.6  167.651
 6.2896  28436.5  168.412
 6.3316  28231.1  167.976
 6.3736  28477.1  168.6
 6.4156  28455.5  168.435
 6.4576  28711.5  168.8
 6.4996  28798.2  169.529
 6.5416  28639.6  169.198
 6.5836  28840.8  170.019
 6.6256  29054  170.212
 6.6676  29498.2  171.081
 6.7096  29221.1  171.119
 6.7516  29665.2  172.07
 6.7936  29714.1  171.653
 6.8356  29909.5  172.286
 6.8776  30283.9  174.157
 6.9196  30127.4  174.103
 6.9616  30595.1  174.871
 7.0036  30926  175.499
 7.0456  31341.4  175.971
 7.0876  30780.6  176.056
 7.1296  30865.1  175.447
 7.1716  30959.9  175.262
 7.2136  30614.5  174.063
 7.2556  30690.3  174.438
 7.2976  30841  175.356
 7.3396  30837.6  175.544
 7.3816  30652.9  175.241
 7.4236  30986.7  175.494
 7.4656  31068.8  175.223
 7.5076  31474.5  176.492
 7.5496  31136.1  176.075
 7.5916  31100.3  175.999
 7.6336  31688.2  177.555
 7.6756  31688.8  177.406
 7.7176  32050.1  178.714
 7.7596  31821.1  179.309
 7.8016  32492.1  183.334
 7.8436  32931.6  181.284
 7.8856  33113.1  181.399
 7.9276  33527.6  182.929
 7.9696  33826.5  184.044
 8.0116  34763.8  185.125
 8.0536  34698.9  185.211
 8.0956  35037.5  187.265
 8.1376  35532.6  188.069
 8.1796  35368.8  188.164
 8.2216  36257.3  189.269
 8.2636  36470.2  190.071
 8.3056  36214.7  190.174
 8.3476  36982.5  191.504
 8.3896  36567.1  190.508
 8.4316  36712.7  191.047
 8.4736  37098.5  191.517
 8.5156  36496  190.23
 8.5576  36318.4  190.728
 8.5996  36031.9  188.867
 8.6416  36011.8  190.045
 8.6836  35784.8  189.292
 8.7256  36209.5  189.849
 8.7676  35710  191.396
 8.8096  35809.3  189.028
 8.8516  35487.4  187.8
 8.8936  35176.7  186.864
 8.9356  35009.2  186.77
 8.9776  35199.7  187.368
 9.0196  34949.8  186.375
 9.0616  35249.7  186.651
 9.1036  34640.8  186.208
 9.1456  34948.3  186.392
 9.1876  34859.8  186.107
 9.2296  34754.3  185.247
 9.2716  34026.2  183.353
 9.3136  34236.1  183.889
 9.3556  34090.9  183.489
 9.3976  32967.9  180.955
 9.4396  33342.8  181.878
 9.4816  32749.9  180.116
 9.5236  33002.6  180.727
 9.5656  32683.4  180.16
 9.6076  32766.1  180.921
 9.6496  32520.8  180.161
 9.6916  32522.1  180.141
 9.7336  32161.1  178.921
 9.7756  32679.9  181.663
 9.8176  31783.5  178.573
 9.8596  31656.5  176.7
 9.9016  31326.9  175.771
 9.9436  31237.3  175.434
 9.9856  30697.3  174.127
 10.0276  30347.3  174.208
 10.0696  30582.9  173.947
 10.1116  29957.3  172.42
 10.1536  29793  172.108
 10.1956  29185.5  169.954
 10.2376  28949.2  168.786
 10.2796  29299  169.923
 10.3216  28838.8  168.849
 10.3636  28765.9  168.665
 10.4056  28664  168.751
 10.4476  28761  168.67
 10.4896  28834.4  168.348
 10.5316  28501.1  168.071
 10.5736  28118.4  167.343
 10.6156  27728.3  165.954
 10.6576  28187.3  165.893
 10.6996  27672.4  165.028
 10.7416  27416.3  164.502
 10.7836  27432.4  165.232
 10.8256  26770  163.651
 10.8676  26991.5  163.865
 10.9096  26592.6  162.699
 10.9516  26423.6  161.122
 10.9936  26511.6  161.591
 11.0356  26134  161.055
 11.0776  26061.6  160.151
 11.1196  25546.6  159.282
 11.1616  25459.4  158.711
 11.2036  25638.8  159.134
 11.2456  25612.9  159.747
 11.2876  25347.1  158.653
 11.3296  25124.9  157.853
 11.3716  25502.8  158.742
 11.4136  25504.5  159.626
 11.4556  25657.2  159.778
 11.4976  26266.2  160.631
 11.5396  26278.3  160.835
 11.5816  25749.2  159.668
 11.6236  25308.9  158.728
 11.6656  24986.1  156.671
 11.7076  24315.4  155.361
 11.7496  24524.8  159.909
 11.7916  24429.5  155.01
 11.8336  24093.3  154.835
 11.8756  23819.2  153.472
 11.9176  24048.8  153.862
 11.9596  23640.5  152.734
 12.0016  23666.6  153.605
 12.0436  23579.9  152.758
 12.0856  23149.2  151.868
 12.1276  23601.6  153.264
 12.1696  23563.1  152.286
 12.2116  23836.7  153.162
 12.2536  23500.6  152.898
 12.2956  23384  151.864
 12.3376  23082.7  151.088
 12.3796  23248.2  152.074
 12.4216  23359.6  151.675
 12.4636  23252.1  152.217
 12.5056  23283.4  151.607
 12.5476  23519.9  151.915
 12.5896  23287.2  151.781
 12.6316  22927.1  150.761
 12.6736  23147.8  151.961
 12.7156  22910.6  151.045
 12.7576  23193.1  152.213
 12.7996  23133  150.685
 12.8416  23137.8  151.735
 12.8836  23468.7  152.646
 12.9256  23682.2  152.365
 12.9676  23705  152.858
 13.0096  23415.1  153.004
 13.0516  23705.1  152.995
 13.0936  23669.6  153.278
 13.1356  23851.9  152.865
 13.1776  23881.9  153.935
 13.2196  23674.1  152.93
 13.2616  23686.5  153.273
 13.3036  23774.6  153.524
 13.3456  23583.2  153.066
 13.3876  23665.1  152.829
 13.4296  23719.2  153.152
 13.4716  23825.4  153.105
 13.5136  23690.7  152.829
 13.5556  23763  153.655
 13.5976  23717.4  153.663
 13.6396  23827.7  153.39
 13.6816  23368  152.386
 13.7236  24312.9  155.074
 13.7656  23486.4  152.956
 13.8076  23900.3  153.096
 13.8496  23433.6  152.183
 13.8916  23400.3  153.049
 13.9336  23368.4  152.188
 13.9756  23372  151.569
 14.0176  23306.1  152.022
 14.0596  23449.8  152.453
 14.1016  23019.3  151.443
 14.1436  22626.8  149.298
 14.1856  22555.4  149.343
 14.2276  22215  148.69
 14.2696  22578.1  149.751
 14.3116  22254.7  148.563
 14.3536  21817.9  147.277
 14.3956  21834.6  147.062
 14.4376  22050.3  147.575
 14.4796  21833.7  146.839
 14.5216  21410.8  146.199
 14.5636  21438.9  145.86
 14.6056  21630.3  146.1
 14.6476  21400.8  144.566
 14.6896  21188.2  144.373
 14.7316  20765.5  143.932
 14.7736  20622.4  142.6
 14.8156  20558.5  142.417
 14.8576  20635  142.536
 14.8996  20043  141.655
 14.9416  19684.7  140.389
 14.9836  19987.7  141.432
 15.0256  19747.3  139.511
 15.0676  19661.2  139.518
 15.1096  19677.8  139.317
 15.1516  19037.6  137.572
 15.1936  19204.4  137.615
 15.2356  18927.9  136.894
 15.2776  18811.7  136.065
 15.3196  18600.6  136.285
 15.3616  18435.1  135.444
 15.4036  18279.9  134.727
 15.4456  18656.4  135.765
 15.4876  18229.5  133.888
 15.5296  18145.6  133.856
 15.5716  17901.4  132.561
 15.6136  17871.3  132.768
 15.6556  18013.2  132.545
 15.6976  17833.2  131.957
 15.7396  17677.9  131.988
 15.7816  17564.6  131.062
 15.8236  17342.8  130.941
 15.8656  17400.8  130.948
 15.9076  16914.3  128.932
 15.9496  17120.7  132.469
 15.9916  17056.4  132.651
 16.0336  16765.5  128.476
 16.0756  16866.8  129.167
 16.1176  16747.3  128.779
 16.1596  16245.3  127.986
 16.2016  16501.4  127.758
 16.2436  16239  127.107
 16.2856  16484.1  127.621
 16.3276  15868.5  125.622
 16.3696  16352.8  127.346
 16.4116  16036.6  126.559
 16.4536  16286.5  127.328
 16.4956  15978.7  125.861
 16.5376  16029.9  126.245
 16.5796  16020.3  125.57
 16.6216  15989.9  125.757
 16.6636  15796.7  125.149
 16.7056  15925.7  125.528
 16.7476  16246.1  126.316
 16.7896  15876.8  125.611
 16.8316  15839.4  125.418
 16.8736  15783.2  125.457
 16.9156  15755.8  125.681
 16.9576  15641.7  125.998
 16.9996  15732.6  126.848
 17.0416  15830.5  125.605
 17.0836  15713.5  124.9
 17.1256  15606.1  124.493
 17.1676  15502  124.068
 17.2096  15436.2  123.684
 17.2516  15109.2  122.153
 17.2936  15014.2  122.086
 17.3356  14862.7  121.481
 17.3776  14890.7  121.774
 17.4196  15051.8  122.128
 17.4616  14959.9  121.677
 17.5036  14789.3  121.336
 17.5456  14612.5  121.241
 17.5876  14598.4  120.245
 17.6296  14586.2  120.019
 17.6716  14482.1  120.142
 17.7136  14261.7  119.376
 17.7556  14448.7  120.439
 17.7976  14449.9  120.052
 17.8396  14227.1  118.769
 17.8816  14368.9  119.893
 17.9236  14207.9  119.033
 17.9656  14334.2  120.258
 18.0076  14498  120.368
 18.0496  14436.2  119.252
 18.0916  14594.9  120.441
 18.1336  14585.5  120.499
 18.1756  14581.4  119.997
 18.2176  14383.8  119.429
 18.2596  14353.2  119.035
 18.3016  14550.1  120.095
 18.3436  14683.2  120.892
 18.3856  14321.3  119.291
 18.4276  14333.9  119.023
 18.4696  14287.3  118.93
 18.5116  14345.9  119.453
 18.5536  14321.1  119.712
 18.5956  14081.2  118.252
 18.6376  13961.1  118.15
 18.6796  14029.9  117.768
 18.7216  14043.9  118.389
 18.7636  13843.7  117.456
 18.8056  13770.7  117.09
 18.8476  13750.6  117.624
 18.8896  13761.9  117.015
 18.9316  13944.9  117.608
 18.9736  13644.8  116.198
 19.0156  13612.3  116.456
 19.0576  13739.9  115.89
 19.0996  13842  117.018
 19.1416  13404.6  115.54
 19.1836  13626.3  116.1
 19.2256  13435.4  115.489
 19.2676  13625.3  116.398
 19.3096  13644.3  116.716
 19.3516  13434.8  115.78
 19.3936  13514.4  116.02
 19.4356  13558.6  116.085
 19.4776  13564.5  116.202
 19.5196  13546.6  115.984
 19.5616  13475.6  115.928
 19.6036  13579.3  115.881
 19.6456  13673.5  116.401
 19.6876  13563.1  115.58
 19.7296  13630.3  116.318
 19.7716  13555.6  116.014
 19.8136  13721.6  117.077
 19.8556  13867.7  117.171
 19.8976  13785.5  116.896
 19.9396  13833.2  116.677
 19.9816  14041.6  117.791
 20.0236  14192.1  118.642
 20.0656  14143.9  118.435
 20.1076  13751.1  117.234
 20.1496  13707.7  117.056
 20.1916  13478.5  115.596
 20.2336  13420.9  115.287
 20.2756  13293.2  115.154
 20.3176  13217.4  114.579
 20.3596  13191.9  114.444
 20.4016  13225.2  114.393
 20.4436  13097.9  114.404
 20.4856  12990.5  113.722
 20.5276  13005.5  114.233
 20.5696  12947.2  113.449
 20.6116  12954.7  113.755
 20.6536  12899.2  113.078
 20.6956  12855.7  112.96
 20.7376  12859.9  113.201
 20.7796  12723  112.293
 20.8216  12946.2  112.985
 20.8636  12836.9  112.863
 20.9056  12945.5  113.297
 20.9476  12678.8  111.965
 20.9896  13001.8  113.251
 21.0316  12930.2  112.835
 21.0736  12672.4  112.215
 21.1156  12801.3  112.943
 21.1576  12813.3  113.046
 21.1996  12691.9  112.487
 21.2416  12696.3  112.341
 21.2836  12815.7  112.823
 21.3256  12562.4  111.793
 21.3676  12705.2  111.979
 21.4096  12591.1  111.781
 21.4516  12561.4  111.531
 21.4936  12384.4  110.983
 21.5356  12612.3  111.95
 21.5776  12627.4  111.856
 21.6196  12536.8  111.49
 21.6616  12385  110.895
 21.7036  12431.3  110.891
 21.7456  12503.5  111.284
 21.7876  12438.4  110.744
 21.8296  12434.5  110.588
 21.8716  12371.1  110.533
 21.9136  12467.3  111.159
 21.9556  12498.2  110.975
 21.9976  12342.8  110.3
 22.0396  12245.8  110.114
 22.0816  12276.7  110.783
 22.1236  12406  110.824
 22.1656  12310.4  110.572
 22.2076  12431.5  110.541
 22.2496  12356.3  110.229
 22.2916  12333.3  110.016
 22.3336  12442.5  111.2
 22.3756  12334.7  110.46
 22.4176  12230.1  109.85
 22.4596  12202.3  110.308
 22.5016  12476.9  111.017
 22.5436  12457.4  110.833
 22.5856  12301.9  110.376
 22.6276  12211  110.101
 22.6696  12258.6  110.653
 22.7116  12265.9  110.215
 22.7536  12266  110.195
 22.7956  12388.8  110.079
 22.8376  12219.3  109.848
 22.8796  12218.7  109.644
 22.9216  12392.4  110.965
 22.9636  12192  109.226
 23.0056  12326  109.959
 23.0476  12333.7  110.555
 23.0896  12574  111.009
 23.1316  12333.2  110.37
 23.1736  12231.6  112.823
 23.2156  12398.4  110.997
 23.2576  12248.3  110.447
 23.2996  12249.4  110.246
 23.3416  12115.3  110.144
 23.3836  12172.7  109.659
 23.4256  12360  110.612
 23.4676  12253.9  109.833
 23.5096  12251.1  110.49
 23.5516  12134.2  109.258
 23.5936  12302.9  110.906
 23.6356  12310.5  110.612
 23.6776  12209.4  110.377
 23.7196  12108.7  109.497
 23.7616  12257.5  110.078
 23.8036  12309  110.349
 23.8456  12276.7  109.787
 23.8876  11954.4  108.682
 23.9296  11996.9  109.351
 23.9716  12019.9  108.664
 24.0136  12131.8  110.067
 24.0556  12070.8  109.522
 24.0976  11774.7  107.979
 24.1396  11883.4  111.09
 24.1816  11926.5  110.052
 24.2236  11840.1  108.938
 24.2656  11702.9  107.787
 24.3076  11632.5  107.709
 24.3496  11621.8  107.545
 24.3916  11683  107.877
 24.4336  11539  107.422
 24.4756  11500.7  107.112
 24.5176  11484.5  106.693
 24.5596  11327.8  106.088
 24.6016  11333.9  106.397
 24.6436  11411.5  106.266
 24.6856  11327.8  105.635
 24.7276  11231.4  105.489
 24.7696  11250.2  105.693
 24.8116  11131.2  105.309
 24.8536  11196.9  105.611
 24.8956  11184.6  105.301
 24.9376  11007  104.401
 24.9796  11009.7  104.761
 25.0216  10886.6  104.287
 25.0636  11041  104.674
 25.1056  11128.7  105.512
 25.1476  10993.9  106.774
 25.1896  11050  105.559
 25.2316  11025.2  104.726
 25.2736  10923  103.9
 25.3156  10833.3  103.545
 25.3576  10783.2  103.718
 25.3996  10895.4  104.235
 25.4416  10755.1  103.545
 25.4836  10651  103.56
 25.5256  10834.2  103.816
 25.5676  10884.3  103.785
 25.6096  10518.9  102.588
 25.6516  10825.4  103.57
 25.6936  10677  103.177
 25.7356  10732.2  103.571
 25.7776  10733.3  103.196
 25.8196  10496.2  102.271
 25.8616  10759.1  103.465
 25.9036  10742.6  102.87
 25.9456  10674.1  103.126
 25.9876  10618.6  102.922
 26.0296  10785.6  103.334
 26.0716  10582.3  102.682
 26.1136  10647.3  102.93
 26.1556  10728.1  102.713
 26.1976  10409.5  102.084
 26.2396  10571.6  102.296
 26.2816  10571.9  102.645
 26.3236  10499.6  102.446
 26.3656  10482.3  102.099
 26.4076  10670.8  103.215
 26.4496  10987  104.235
 26.4916  10664  102.688
 26.5336  10587.5  102.639
 26.5756  10862.7  103.81
 26.6176  10534.2  102.295
 26.6596  10358.9  101.744
 26.7016  10331.3  101.365
 26.7436  10331.8  101.498
 26.7856  10372.9  101.684
 26.8276  10287.4  101.216
 26.8696  10267.9  101
 26.9116  10354.9  101.366
 26.9536  10108.3  100.196
 26.9956  10298.4  101.169
 27.0376  10198.9  100.897
 27.0796  10214.5  100.787
 27.1216  10198.3  100.702
 27.1636  10093.5  100.345
 27.2056  10132  100.418
 27.2476  10092.9  100.228
 27.2896  10184.6  100.79
 27.3316  10089.2  100.032
 27.3736  10054.6  100.123
 27.4156  10027  99.8326
 27.4576  10035.1  100.099
 27.4996  10041.4  99.7359
 27.5416  10050.7  100.089
 27.5836  10019.7  99.7599
 27.6256  10332.5  101.47
 27.6676  10149.6  100.584
 27.7096  9994.34  99.6846
 27.7516  9910.19  99.4103
 27.7936  9926.05  99.6561
 27.8356  9949.81  99.3924
 27.8776  9910.46  99.2502
 27.9196  9818.49  98.6356
 27.9616  9772.53  98.5979
 28.0036  9831.34  98.8647
 28.0456  9922.75  99.4543
 28.0876  9803.23  98.9415
 28.1296  9787.58  98.7079
 28.1716  9745.32  98.501
 28.2136  9837.01  98.931
 28.2556  9646.21  98.0826
 28.2976  9834.74  99.0239
 28.3396  9794.01  98.6135
 28.3816  9714.94  98.2021
 28.4236  9717.9  98.3681
 28.4656  9677.9  98.2013
 28.5076  9642.11  97.6584
 28.5496  9741.54  98.4228
 28.5916  9688.28  97.9664
 28.6336  9563.79  97.6684
 28.6756  9654.97  97.3467
 28.7176  9664.52  97.9376
 28.7596  9505.85  97.0284
 28.8016  9636.43  97.7243
 28.8436  9425.9  96.8891
 28.8856  9714.43  98.2119
 28.9276  9716.97  98.4648
 28.9696  9510.04  97.0755
 29.0116  9475.47  97.0889
 29.0536  9433.68  97.0709
 29.0956  9509.1  97.1777
 29.1376  9365.36  96.3996
 29.1796  9328.72  96.2542
 29.2216  9479.22  96.8736
 29.2636  9446.77  96.7018
 29.3056  9446.62  96.578
 29.3476  9438.76  97.0512
 29.3896  9545.82  97.7023
 29.4316  9448.58  96.5439
 29.4736  9442.75  96.5823
 29.5156  9436.7  96.4656
 29.5576  9384.37  96.9251
 29.5996  9348.36  96.0143
 29.6416  9330.57  96.0365
 29.6836  9318.34  95.906
 29.7256  9378.22  96.7725
 29.7676  9347.96  96.2861
 29.8096  9371.71  96.3471
 29.8516  9280.06  96.2049
 29.8936  9299.69  96.3941
 29.9356  9425.04  96.8007
 29.9776  9196.79  95.7707
 30.0196  9263.36  95.5073
 30.0616  9229.21  95.7056
 30.1036  9222.28  95.4921
 30.1456  9253.48  95.8954
 30.1876  9136.29  95.2564
 30.2296  9104.44  95.049
 30.2716  9208.9  95.231
 30.3136  9379.5  96.9536
 30.3556  9291.47  96.5174
 30.3976  9250.85  97.8098
 30.4396  9295.4  95.4226
 30.4816  9189.18  94.4821
 30.5236  9262.11  94.8679
 30.5656  9275.38  95.5861
 30.6076  9330.06  95.3039
 30.6496  9205.41  95.0401
 30.6916  9194.13  95.0779
 30.7336  9128.57  94.8865
 30.7756  9185.78  95.2721
 30.8176  9073.61  94.6076
 30.8596  9121.43  94.6319
 30.9016  9085.5  94.7794
 30.9436  9122.77  94.7296
 30.9856  9139.95  94.9197
 31.0276  9007.01  93.8538
 31.0696  9026.19  94.515
 31.1116  8911.62  93.8883
 31.1536  9095.17  94.7389
 31.1956  9032.75  94.4973
 31.2376  8909.86  93.862
 31.2796  8968.57  93.713
 31.3216  9000.85  93.8304
 31.3636  9114.48  95.0944
 31.4056  8997.89  95.7886
 31.4476  9064.64  94.0478
 31.4896  8924.57  93.8079
 31.5316  8991.18  93.612
 31.5736  9230.25  94.6296
 31.6156  8970.25  93.304
 31.6576  9173.69  94.4461
 31.6996  8934.09  92.8852
 31.7416  8842.95  93.4518
 31.7836  8976.75  93.1841
 31.8256  8916.56  93.2151
 31.8676  8972.51  93.4297
 31.9096  8787.68  92.8082
 31.9516  8766.46  92.8496
 31.9936  8824.87  92.9833
 32.0356  8862.15  93.2458
 32.0776  8833.29  92.9859
 32.1196  8942.01  93.6467
 32.1616  8795.68  92.3479
 32.2036  8739.66  92.5557
 32.2456  8857.56  93.5499
 32.2876  8757.04  92.3563
 32.3296  8720.62  92.2974
 32.3716  8744.09  92.5267
 32.4136  8772.78  92.8961
 32.4556  8808.87  92.5245
 32.4976  8874.99  92.7243
 32.5396  8619.65  91.4475
 32.5816  8704.44  92.0189
 32.6236  8620.09  91.643
 32.6656  8915.22  93.7267
 32.7076  8620.5  91.8311
 32.7496  8719.62  92.0295
 32.7916  8803.81  92.4369
 32.8336  8737.49  92.1775
 32.8756  8831.41  92.3964
 32.9176  8584.15  91.568
 32.9596  8621.65  91.8378
 33.0016  8756.42  92.3512
 33.0436  8807.19  92.7945
 33.0856  8532.71  91.4032
 33.1276  8662.39  91.8331
 33.1696  8687.11  91.8036
 33.2116  8744.28  92.3304
 33.2536  8714.64  92.1784
 33.2956  8627.11  91.7962
 33.3376  8484.56  90.7842
 33.3796  8676.88  92.0074
 33.4216  8726.47  91.8784
 33.4636  8745.95  92.1194
 33.5056  8518.59  91.142
 33.5476  8495.24  91.0161
 33.5896  8673.18  91.703
 33.6316  8421.99  90.7085
 33.6736  8449.35  91.0871
 33.7156  8442.47  91.1016
 33.7576  8669.21  91.9416
 33.7996  8584.28  91.2719
 33.8416  8330.83  90.0905
 33.8836  8467.36  90.6057
 33.9256  8440.83  90.5223
 33.9676  8551.32  91.0087
 34.0096  8357.74  90.2883
 34.0516  8346.74  89.8742
 34.0936  8459.69  90.7424
 34.1356  8663.43  91.5643
 34.1776  8447.41  90.431
 34.2196  8373.12  90.2092
 34.2616  8365.28  90.2959
 34.3036  8302.09  90.1994
 34.3456  8316.06  90.0356
 34.3876  8368.1  90.2853
 34.4296  8284.97  89.521
 34.4716  8411.32  90.3497
 34.5136  8364.89  90.3096
 34.5556  8333.41  90.3797
 34.5976  8443.5  90.7857
 34.6396  8331.49  89.8939
 34.6816  8383.65  90.2931
 34.7236  8279.53  89.5165
 34.7656  8327.26  89.9701
 34.8076  8287.33  90.0678
 34.8496  8340.76  90.2185
 34.8916  8397.92  90.3999
 34.9336  8432.49  90.5536
 34.9756  8540.8  91.0117
 35.0176  8367.11  90.6379
 35.0596  8358.5  90.4248
 35.1016  8258.13  89.6532
 35.1436  8444.38  90.3473
 35.1856  8153.41  88.895
 35.2276  8266.71  89.6824
 35.2696  8229.6  89.6691
 35.3116  8292.8  90.1095
 35.3536  8152.74  89.0629
 35.3956  8136.43  88.6797
 35.4376  8137.58  89.2373
 35.4796  8184.75  89.554
 35.5216  8234.01  89.7822
 35.5636  7867.83  88.4847
 35.6056  8230.44  89.5326
 35.6476  8142.06  88.9465
 35.6896  8252.91  89.7118
 35.7316  8080.04  88.663
 35.7736  8078.78  88.8557
 35.8156  8142.18  89.1932
 35.8576  8182.05  89.6642
 35.8996  8253.44  90.0216
 35.9416  8229.51  89.402
 35.9836  8136.61  89.2368
 36.0256  8170.16  89.4415
 36.0676  8214.46  89.2299
 36.1096  8053.09  88.7012
 36.1516  8093.85  88.8163
 36.1936  8092.66  88.6561
 36.2356  8127.44  89.4796
 36.2776  8041.34  88.501
 36.3196  8113.6  88.5686
 36.3616  8076.67  88.4964
 36.4036  8066.05  88.4907
 36.4456  8131.83  89.0604
 36.4876  8004.15  88.301
 36.5296  8056.11  88.625
 36.5716  8053.26  89.382
 36.6136  8217.01  89.0653
 36.6556  8137.11  88.8304
 36.6976  8097.44  89.1042
 36.7396  8010.42  88.3581
 36.7816  8112.95  89.2948
 36.8236  7987.83  88.5219
 36.8656  8018.89  88.7729
 36.9076  8045.84  88.9247
 36.9496  8057.51  88.8503
 36.9916  7965.64  87.9789
 37.0336  8130.97  89.2045
 37.0756  8077.14  88.6972
 37.1176  7917.91  88.0822
 37.1596  7916.78  88.0824
 37.2016  7871.46  88.0016
 37.2436  7959.04  87.8675
 37.2856  8019.97  88.4517
 37.3276  8006.1  87.7353
 37.3696  7859.45  87.795
 37.4116  7983.69  88.3989
 37.4536  7863.18  87.5971
 37.4956  7825.65  87.4387
 37.5376  7870.58  89.2092
 37.5796  7850.4  89.0449
 37.6216  7837.42  87.2723
 37.6636  7797.98  86.965
 37.7056  7860.03  87.501
 37.7476  7807.2  86.7415
 37.7896  7792.67  87.1586
 37.8316  7677.81  86.6823
 37.8736  7975.39  87.8717
 37.9156  7804.84  86.932
 37.9576  7739.51  86.4442
 37.9996  7717.93  86.0609
 38.0416  7658.88  86.5258
 38.0836  7851.96  87.5137
 38.1256  7782.75  87.0886
 38.1676  7734.63  86.9521
 38.2096  7751.61  86.6767
 38.2516  7931.73  87.8826
 38.2936  7856.12  87.2579
 38.3356  7969.12  87.8014
 38.3776  7719.31  86.6864
 38.4196  7897.21  87.5316
 38.4616  7760.02  87.001
 38.5036  7864.16  87.422
 38.5456  7748.82  87.6061
 38.5876  7805.95  87.9558
 38.6296  7579.24  85.6649
 38.6716  7671.96  85.9826
 38.7136  7625.05  85.667
 38.7556  7632.84  86.2048
 38.7976  7664.1  86.3216
 38.8396  7648.93  86.6801
 38.8816  7688.03  86.6846
 38.9236  7624.46  86.1403
 38.9656  7748.47  86.752
 39.0076  7713.69  85.9736
 39.0496  7602.19  85.8812
 39.0916  7708.96  86.1209
 39.1336  7622.8  86.0551
 39.1756  7518.63  85.5282
 39.2176  7690.22  87.0191
 39.2596  7568.37  86.2547
 39.3016  7575.78  85.8788
 39.3436  7547.1  86.1304
 39.3856  7588.54  85.828
 39.4276  7720.19  87.0591
 39.4696  7691.25  86.5256
 39.5116  7687.46  87.0111
 39.5536  7842  88.3112
 39.5956  7820.96  87.2923
 39.6376  7666.89  86.4405
 39.6796  7624.43  85.9396
 39.7216  7745.84  86.7198
 39.7636  7751.47  87.3237
 39.8056  7696.37  86.7907
 39.8476  7624.33  86.6332
 39.8896  7709.5  86.7401
 39.9316  7674.19  86.7983
 39.9736  7739.58  86.739
 40.0156  7741.73  86.5728
 40.0576  7730.15  86.8694
 40.0996  7823.97  86.5825
 40.1416  7823.87  87.3714
 40.1836  7756.35  86.8839
 40.2256  7681.49  86.5118
 40.2676  7658.06  86.4861
 40.3096  7811.53  87.2648
 40.3516  7872.3  87.7133
 40.3936  7776.4  86.7487
 40.4356  7728.21  86.6605
 40.4776  7787.83  87.4131
 40.5196  7774.07  87.4589
 40.5616  7783.11  87.1548
 40.6036  7751.82  87.2343
 40.6456  7779.96  86.9948
 40.6876  7867.21  87.4775
 40.7296  7832.05  87.4184
 40.7716  7796.44  87.3463
 40.8136  7728.66  86.8997
 40.8556  7672.47  86.7246
 40.8976  7739.34  87.0226
 40.9396  7709.04  87.1971
 40.9816  7774.72  86.8619
 41.0236  7853.8  87.085
 41.0656  7751.34  87.0428
 41.1076  7832.99  87.2758
 41.1496  7688.26  86.3775
 41.1916  7719.59  86.8693
 41.2336  7645.35  86.4433
 41.2756  7627.35  85.9534
 41.3176  7672.8  86.8131
 41.3596  7740.17  86.9175
 41.4016  7746.04  87.2111
 41.4436  7818.72  87.4104
 41.4856  7794.39  87.4368
 41.5276  7702.55  86.9407
 41.5696  7709.81  86.5942
 41.6116  7750.97  87.2409
 41.6536  7773.25  87.2242
 41.6956  7709.42  86.9193
 41.7376  7730.09  87.0621
 41.7796  7679.62  86.7068
 41.8216  7736.74  87.2178
 41.8636  7757.6  87.2745
 41.9056  7645.36  86.4342
 41.9476  7765.85  87.349
 41.9896  7731.45  86.8161
 42.0316  7677.88  86.5985
 42.0736  7679.23  86.7202
 42.1156  7647.46  86.3786
 42.1576  7684.74  86.6837
 42.1996  7729.29  87.0805
 42.2416  7711.14  86.5578
 42.2836  7631.29  86.2237
 42.3256  7549.64  85.8746
 42.3676  7603.48  85.9899
 42.4096  7716.71  86.5901
 42.4516  7687.75  86.5097
 42.4936  7632.78  86.2719
 42.5356  7580.68  86.1089
 42.5776  7662.69  86.5111
 42.6196  7637.5  86.4221
 42.6616  7627.98  86.5367
 42.7036  7648.89  86.0496
 42.7456  7626.92  86.2778
 42.7876  7604.2  86.2439
 42.8296  7587.02  85.9805
 42.8716  7494.16  85.6124
 42.9136  7588.47  85.9427
 42.9556  7580.51  86.0278
 42.9976  7580.75  85.9904
 43.0396  7620.29  85.9522
 43.0816  7563.91  85.9943
 43.1236  7613.22  86.3436
 43.1656  7532.6  85.7182
 43.2076  7523.18  85.7693
 43.2496  7550.27  85.7297
 43.2916  7474.32  85.6642
 43.3336  7490.42  85.5962
 43.3756  7509.86  85.4646
 43.4176  7363.97  84.713
 43.4596  7477.7  85.2232
 43.5016  7457.24  85.5044
 43.5436  7442.9  85.3178
 43.5856  7449.5  85.3852
 43.6276  7438.36  85.2174
 43.6696  7483.66  85.6149
 43.7116  7427.53  84.9195
 43.7536  7497.03  85.7934
 43.7956  7325.21  85.9906
 43.8376  7379.25  84.8571
 43.8796  7466.88  85.4386
 43.9216  7357.69  84.73
 43.9636  7445.17  85.3467
 44.0056  7487.19  85.8116
 44.0476  7366.84  84.758
 44.0896  7338.73  84.931
 44.1316  7414.15  85.0288
 44.1736  7347.07  84.6357
 44.2156  7289.37  84.1427
 44.2576  7394.13  85.0811
 44.2996  7443.87  85.3367
 44.3416  7343.44  84.5211
 44.3836  7160.67  83.7849
 44.4256  7282.1  84.1466
 44.4676  7285.59  84.3137
 44.5096  7363.4  84.9045
 44.5516  7370.45  84.9007
 44.5936  7176.17  83.7419
 44.6356  7293.36  84.1646
 44.6776  7338.74  84.7329
 44.7196  7277.13  84.6901
 44.7616  7270.45  85.9458
 44.8036  7165.09  83.7968
 44.8456  7403.33  85.3666
 44.8876  7186.38  83.9732
 44.9296  7391.51  84.6193
 44.9716  7244.32  84.1926
 45.0136  7262.61  84.2394
 45.0556  7271.26  84.2615
 45.0976  7159.36  83.7759
 45.1396  7233.85  83.9735
 45.1816  7099.38  83.1238
 45.2236  7189.43  83.5433
 45.2656  7156.35  83.85
 45.3076  7172.72  83.7407
 45.3496  7062.96  83.3884
 45.3916  7014.73  83.358
 45.4336  7135.49  83.9133
 45.4756  7094.31  83.5278
 45.5176  7138.88  83.4243
 45.5596  7139.02  83.5468
 45.6016  6980.73  83.0183
 45.6436  7051.35  82.639
 45.6856  7082.26  83.4447
 45.7276  7040.2  84.4987
 45.7696  7147.19  84.8027
 45.8116  7256.93  84.8969
 45.8536  7005.35  83.3096
 45.8956  7183.67  83.7218
 45.9376  7183.03  83.1949
 45.9796  7116.42  83.4888
 46.0216  7122.76  83.851
 46.0636  7219.41  83.5724
 46.1056  7042.6  82.5309
 46.1476  7063.74  83.2319
 46.1896  7091.96  83.549
 46.2316  7125.09  83.612
 46.2736  7002.3  83.2495
 46.3156  7032.35  83.0241
 46.3576  7075.17  83.4744
 46.3996  7090.85  83.7251
 46.4416  7057.36  83.1102
 46.4836  6845.87  82.2011
 46.5256  7084.27  83.5595
 46.5676  6933.48  82.7751
 46.6096  7009.67  83.1634
 46.6516  7118.94  82.8732
 46.6936  7053.47  82.967
 46.7356  7182.8  83.8293
 46.7776  6899.46  82.9723
 46.8196  6955.52  82.9161
 46.8616  6852.9  82.2524
 46.9036  6860.46  81.9683
 46.9456  6942.67  82.1153
 46.9876  7006.24  82.5649
 47.0296  7021.91  83.3374
 47.0716  6904.34  82.4591
 47.1136  6911.77  82.1955
 47.1556  6952.92  82.3037
 47.1976  7013.34  82.7411
 47.2396  6852.43  82.169
 47.2816  6826.52  81.7227
 47.3236  6931.97  82.726
 47.3656  6867.76  82.2658
 47.4076  6864.45  82.0509
 47.4496  6828.12  81.9274
 47.4916  6838.04  82.1795
 47.5336  7029.69  83.1414
 47.5756  6897.26  82.4614
 47.6176  6777.12  81.641
 47.6596  6926.1  82.2486
 47.7016  6948.22  82.2137
 47.7436  6971.27  82.6782
 47.7856  6954.81  82.6007
 47.8276  6781.48  81.605
 47.8696  6825.37  81.968
 47.9116  6951.5  82.4362
 47.9536  6842.83  81.7361
 47.9956  6705.89  81.5946
 48.0376  6812.99  82.0184
 48.0796  6918.26  82.7801
 48.1216  6797.86  81.8812
 48.1636  6960.67  82.4394
 48.2056  6893.73  82.2992
 48.2476  6834.34  82.2467
 48.2896  6888.55  82.4827
 48.3316  6807.51  81.9402
 48.3736  6665.23  81.1021
 48.4156  6725.13  81.3168
 48.4576  6722.67  81.5904
 48.4996  6830.97  81.7112
 48.5416  6851.41  82.1509
 48.5836  6779.37  81.3983
 48.6256  6753.91  81.4532
 48.6676  6747.43  81.9184
 48.7096  6838.6  81.7517
 48.7516  6794.16  81.6315
 48.7936  6632.89  80.7144
 48.8356  6753.17  81.4932
 48.8776  6832.93  82.4521
 48.9196  6838.04  81.9455
 48.9616  6684.28  81.3851
 49.0036  6719.33  81.9403
 49.0456  6676.03  81.6457
 49.0876  6696.84  81.4299
 49.1296  6567.9  80.7075
 49.1716  6590.87  80.7194
 49.2136  6746.3  81.5939
 49.2556  6803.42  81.9678
 49.2976  6729.03  81.5871
 49.3396  6624.41  81.0059
 49.3816  6726.06  81.0686
 49.4236  6714.93  81.4168
 49.4656  6680.7  81.2269
 49.5076  6700.91  81.0997
 49.5496  6646.55  80.8347
 49.5916  6736.02  81.2962
 49.6336  6583.21  80.5593
 49.6756  6699.2  81.5035
 49.7176  6627.89  81.0074
 49.7596  6639.44  80.8528
 49.8016  6780.43  81.6283
 49.8436  6597.25  80.8053
 49.8856  6609.81  80.8892
 49.9276  6554.36  80.6409
 49.9696  6578.82  80.7798
 50.0116  6639.65  81.2775
 50.0536  6611.76  81.0462
 50.0956  6582.58  80.9491
 50.1376  6600.89  80.7668
 50.1796  6372.14  79.6131
 50.2216  6521.87  80.5382
 50.2636  6514.98  80.12
 50.3056  6485.7  80.1116
 50.3476  6482.61  80.1158
 50.3896  6474.62  80.0377
 50.4316  6588.6  80.5796
 50.4736  6534.71  80.462
 50.5156  6471.9  80.0702
 50.5576  6524.39  80.1483
 50.5996  6527  80.444
 50.6416  6442.37  79.8531
 50.6836  6488.51  80.1936
 50.7256  6496.84  80.1692
 50.7676  6546.51  80.7433
 50.8096  6517.29  80.1599
 50.8516  6446.68  80.118
 50.8936  6403.12  79.6475
 50.9356  6476.85  80.2056
 50.9776  6580.81  80.9993
 51.0196  6377.15  79.8547
 51.0616  6334.32  78.9319
 51.1036  6472.32  80.1352
 51.1456  6408.1  79.6494
 51.1876  6500.46  79.5859
 51.2296  6462.19  79.9715
 51.2716  6473.88  79.7529
 51.3136  6408.26  79.7919
 51.3556  6371.08  79.2003
 51.3976  6312.84  78.9807
 51.4396  6298.67  79.1862
 51.4816  6450.99  79.9994
 51.5236  6316.41  79.2378
 51.5656  6400.93  79.3817
 51.6076  6403.88  79.4743
 51.6496  6363.51  79.4172
 51.6916  6296.21  79.3297
 51.7336  6430.49  80.269
 51.7756  6371.58  79.605
 51.8176  6325.34  79.4192
 51.8596  6295.59  79.2444
 51.9016  6434.86  79.7356
 51.9436  6271.57  80.1334
 51.9856  6348.36  81.0389
 52.0276  6416.13  80.0185
 52.0696  6315.88  79.4522
 52.1116  6342.67  79.7384
 52.1536  6270.12  79.1671
 52.1956  6389.37  79.3932
 52.2376  6405.92  79.6677
 52.2796  6434.29  79.6573
 52.3216  6224.7  79.0184
 52.3636  6219.09  78.5741
 52.4056  6227.36  78.4787
 52.4476  6237.17  78.9044
 52.4896  6290.74  79.2929
 52.5316  6264.94  79.1738
 52.5736  6325.1  79.2836
 52.6156  6277.27  79.3478
 52.6576  6361.11  79.3423
 52.6996  6039.93  78.2416
 52.7416  6300.77  79.7717
 52.7836  6387.02  80.1663
 52.8256  6357.16  79.2504
 52.8676  6095.31  78.1548
 52.9096  6290.07  79.4759
 52.9516  6182.58  79.1496
 52.9936  6166.24  79.4198
 53.0356  6152.53  78.3624
 53.0776  6096.82  78.2803
 53.1196  6073.79  78.2341
 53.1616  6154.4  78.7979
 53.2036  6060.17  78.1416
 53.2456  6036.3  78.0937
 53.2876  6188.45  78.7825
 53.3296  6113.36  78.6172
 53.3716  6162.43  78.6893
 53.4136  5945.71  77.4321
 53.4556  6069.14  78.2645
 53.4976  5983.9  77.5654
 53.5396  6135.56  78.9234
 53.5816  6146.92  78.6355
 53.6236  6064.74  78.4415
 53.6656  6027.95  77.8459
 53.7076  6017.23  77.7424
 53.7496  6095.98  78.3642
 53.7916  6046.4  78.1699
 53.8336  5982.53  77.6584
 53.8756  5983.76  78.1962
 53.9176  6079.13  78.1746
 53.9596  6134.27  79.2936
 54.0016  6084.35  78.3096
 54.0436  6053.45  78.3286
 54.0856  6065.4  77.8366
 54.1276  6092.6  78.2147
 54.1696  6063.51  78.191
 54.2116  6082.83  78.0797
 54.2536  6062.93  77.7707
 54.2956  6106.85  78.0944
 54.3376  6080.54  78.3984
 54.3796  6082.62  78.3107
 54.4216  6034.52  78.0398
 54.4636  6081.01  78.3076
 54.5056  6077.48  78.1194
 54.5476  6037.59  78.177
 54.5896  6064.15  78.1912
 54.6316  6020.2  77.7657
 54.6736  6055.39  78.0124
 54.7156  6043.83  78.0184
 54.7576  5986  77.6366
 54.7996  6059.15  78.2389
 54.8416  6075.16  78.397
 54.8836  5960.45  77.7624
 54.9256  6087.56  78.3421
 54.9676  6068.34  78.0782
 55.0096  6032.38  77.9133
 55.0516  5990.62  77.804
 55.0936  6008.3  77.6236
 55.1356  5958.52  77.3429
 55.1776  6040  78.1346
 55.2196  6099.78  78.3057
 55.2616  5946.52  77.5217
 55.3036  5921.68  77.5164
 55.3456  6012.91  78.2577
 55.3876  6003.98  77.95
 55.4296  5982.34  77.7842
 55.4716  5978.81  77.7944
 55.5136  6053.14  78.0366
 55.5556  6039.87  78.0235
 55.5976  5949.36  77.4934
 55.6396  5961.43  77.5202
 55.6816  6043.68  77.9317
 55.7236  6049.46  78.0086
 55.7656  6096.21  78.0709
 55.8076  6067.23  77.8696
 55.8496  6022.99  77.8976
 55.8916  5922.07  77.4081
 55.9336  5924.13  77.2784
 55.9756  6005.81  77.7001
 56.0176  5949.1  77.4826
 56.0596  5903.73  77.1615
 56.1016  6014.11  77.9274
 56.1436  5929.8  77.6049
 56.1856  5931.52  77.3621
 56.2276  5956.99  77.5905
 56.2696  5951.24  77.5234
 56.3116  5888.73  77.5054
 56.3536  5936.82  77.4895
 56.3956  5913.77  77.3284
 56.4376  5912.21  77.348
 56.4796  6020.18  77.8582
 56.5216  5899.22  77.4304
 56.5636  6016.52  77.7989
 56.6056  5909.18  77.3288
 56.6476  5953.99  77.2587
 56.6896  5934.46  77.5643
 56.7316  5938.23  77.495
 56.7736  5896.26  77.2295
 56.8156  6035.93  78.1409
 56.8576  5847.93  76.8514
 56.8996  5928.98  77.3253
 56.9416  5940.51  77.6965
 56.9836  5840.92  76.5675
 57.0256  5891.42  77.2097
 57.0676  5949.74  77.7083
 57.1096  5919.1  77.2993
 57.1516  5945.66  77.5023
 57.1936  5870.77  76.8026
 57.2356  5915.07  77.4043
 57.2776  5917.94  77.375
 57.3196  5921.08  77.7592
 57.3616  5907.55  77.179
 57.4036  5891.53  77.1339
 57.4456  5928.85  77.3458
 57.4876  5989.2  77.5917
 57.5296  5898.99  77.2475
 57.5716  5836.99  76.9253
 57.6136  5921.45  77.3022
 57.6556  5984.88  77.847
 57.6976  5950  77.4351
 57.7396  5808.12  76.8831
 57.7816  5836.18  77.4224
 57.8236  5868.82  77.4388
 57.8656  5915.33  77.4071
 57.9076  5846.29  76.9844
 57.9496  5827.84  77.2024
 57.9916  5837.05  76.7853
 58.0336  5866.72  77.2536
 58.0756  5878.4  76.9566
 58.1176  5966.07  77.542
 58.1596  5795.31  76.9665
 58.2016  6069.56  78.0014
 58.2436  5849.79  76.9806
 58.2856  5882.44  77.1174
 58.3276  5822.15  77.0839
 58.3696  5887.36  77.2634
 58.4116  5904.63  77.2479
 58.4536  5896.01  77.0731
 58.4956  5845.96  76.9301
 58.5376  5991.3  77.4556
 58.5796  5852.6  76.9724
 58.6216  5842.42  76.7214
 58.6636  5924.63  77.4748
 58.7056  5999.7  77.817
 58.7476  5818.05  77.0661
 58.7896  5832.87  76.8143
 58.8316  5939.58  77.5066
 58.8736  5945.33  77.5483
 58.9156  5941.32  77.5618
 58.9576  6053.45  78.6221
 58.9996  6019.46  77.6511
 59.0416  6120.79  78.6695
 59.0836  5851.89  76.8461
 59.1256  5893.9  77.8067
 59.1676  5886.86  78.0602
 59.2096  6000.46  78.139
 59.2516  5993.58  77.6768
 59.2936  5964.15  77.8119
 59.3356  5929.44  77.464
 59.3776  6001.32  78.1006
 59.4196  5934.77  77.6025
 59.4616  5875.41  77.0757
 59.5036  5987.75  77.8435
 59.5456  6016.04  77.7219
 59.5876  5931.11  77.3607
 59.6296  5850.34  76.9003
 59.6716  5839.7  76.8873
 59.7136  5979.82  77.7926
 59.7556  5840.8  77.0172
 59.7976  5995.46  77.7733
 59.8396  5803.96  76.4175
 59.8816  5938.54  77.8374
 59.9236  6104.37  78.5603
 59.9656  5944.46  77.7816
 60.0076  6056.59  77.8697
 60.0496  5962.07  77.7605
 60.0916  6169.88  78.5157
 60.1336  5792.32  77.16
 60.1756  5931.84  79.2575
 60.1996  0.0000000E+00  0.0000000E+00