File: docs/examples/XRD/IS17_D/Data/IS17_D/17_Da_f00097.xye
# /beamlines/bl04/projects/cycle2025-II/20250340211-lsimonelli/DATA/IS17_D/17_Da_f00097.xye : mythproc.py merge -s 0.006 -l 0.5 -f /beamlines/bl04/inhouse/ff/FlatField/ff_20Nov2024rod8mm60s_17keV.raw -b True -c true -o xye /beamlines/bl04/projects/cycle2025-II/20250340211-lsimonelli/DATA/IS17_D/17_Da_00097.dat
# IsMon = [6748867, 6747312, 6747438]  IsPos = [-1.5000, -2.4884, -3.4988]
# Wave = 0.4962  CalPath /beamlines/bl04/projects/cycle2025-II/20250340211-lsimonelli/DATA/Align/Si_Pos1_25keV_f00001.cal
# Date = 2025-09-24_20:35:45 Dt = 4.8000  Bin = 0.0060  <imon> = 6747872 +/- 705 (Min/Max) 6747312 / 6748867
# icurr 248.8512  mocoIn 1.6975E-05  mocoOut 0.7966  i15 7.06552e+06  imon 6.74787e+06  i7 8.0000  iEMpd_timer 4.8000  iEMpd_1 3.5900E-08  iEMpd_2 7.7829E-08  iEMpd_3 1.7346E-08  iEMpd_4 4.7361E-08  iEMhp_timer 4.8000  iEMhp_1 4.8626E-06  iEMhp_2 -2.5254E-08  iEMhp_3 -2.5237E-08  iEMhp_4 -2.1021E-08
#      9776
 1.5856  40197.9  205.86
 1.6276  47979.9  221.047
 1.6696  54019.5  233.72
 1.7116  62560.5  252.01
 1.7536  71578  268.413
 1.7956  76329.1  277.871
 1.8376  72827.8  271.853
 1.8796  61069.1  247.106
 1.9216  49100  222.458
 1.9636  41448.6  204.068
 2.0056  37444.9  192.723
 2.0476  34535.8  187.114
 2.0896  33345  182.782
 2.1316  32213.2  178.789
 2.1736  30645  175.767
 2.2156  31611.5  177.084
 2.2576  30211.3  173.739
 2.2996  29193.3  171.413
 2.3416  29244.9  170.195
 2.3836  28658.6  168.584
 2.4256  28124.2  167.549
 2.4676  27481  165.387
 2.5096  27734  166.201
 2.5516  26676.1  166.799
 2.5936  26838.2  163.914
 2.6356  26133.5  162.431
 2.6776  26059.6  161.105
 2.7196  25770.4  160.717
 2.7616  25777.2  160.516
 2.8036  25537.2  159.941
 2.8456  25591.9  160.723
 2.8876  25033.1  158.84
 2.9296  24398.8  156.937
 2.9716  24331.6  156.215
 3.0136  24024  155.292
 3.0556  24168.1  156.154
 3.0976  24073.6  154.786
 3.1396  23769  154.523
 3.1816  23658.7  154.09
 3.2236  23529.7  153.66
 3.2656  23373.9  152.207
 3.3076  23131.7  152.851
 3.3496  23498.1  153.006
 3.3916  23881.6  154.073
 3.4336  24172.8  155.583
 3.4756  24476.1  156.473
 3.5176  25705.6  160.154
 3.5596  25246.8  161.699
 3.6016  25315.2  158.998
 3.6436  24675.3  158.073
 3.6856  24306.2  155.183
 3.7276  23302.4  153.034
 3.7696  23263.1  152.891
 3.8116  22698.5  151.112
 3.8536  22769.5  151.28
 3.8956  22945  151.692
 3.9376  22681.6  151.069
 3.9796  22510.9  150.015
 4.0216  22752.4  149.86
 4.0636  22689.7  151.121
 4.1056  22772.7  151.034
 4.1476  22730.6  151.208
 4.1896  23073.6  152.203
 4.2316  23170  152.349
 4.2736  23630  153.643
 4.3156  23903.1  154.758
 4.3576  24695.8  157.231
 4.3996  24898.1  158.13
 4.4416  25268.5  158.888
 4.4836  25838.3  160.825
 4.5256  26301.5  162.863
 4.5676  26226.5  162.889
 4.6096  26503.8  162.775
 4.6516  27279.5  164.482
 4.6936  27549.3  166.112
 4.7356  27538.3  165.906
 4.7776  27456.9  165.497
 4.8196  27158.4  165.232
 4.8616  26762.7  163.515
 4.9036  26406.3  162.161
 4.9456  26408.3  162.82
 4.9876  25865.2  161.038
 5.0296  26062.9  161.47
 5.0716  25945.1  161.882
 5.1136  26269.6  162.594
 5.1556  26414.9  162.515
 5.1976  26859  163.862
 5.2396  27113.4  164.339
 5.2816  26823.3  163.908
 5.3236  26953.4  164.019
 5.3656  26395  163.226
 5.4076  26421.4  163.458
 5.4496  26458.2  163.065
 5.4916  26665.1  163.453
 5.5336  26544.4  163.094
 5.5756  26276.7  162.29
 5.6176  26536  162.528
 5.6596  26689.7  163.82
 5.7016  26952.8  164.044
 5.7436  27183.8  165.016
 5.7856  26877.9  164.143
 5.8276  27375.9  165.386
 5.8696  27422.6  165.579
 5.9116  27327.6  166.007
 5.9536  27585  166.535
 5.9956  27763.6  166.447
 6.0376  28086.4  168.049
 6.0796  28271.9  168.434
 6.1216  28160.4  168.308
 6.1636  28409.4  168.108
 6.2056  28363.3  168.644
 6.2476  28721.5  169.385
 6.2896  28832.9  169.579
 6.3316  28627.5  169.142
 6.3736  28777.5  169.486
 6.4156  28702.1  169.218
 6.4576  29133.2  170.034
 6.4996  29370.4  171.212
 6.5416  29194.2  170.827
 6.5836  29219.2  171.135
 6.6256  29263.8  170.824
 6.6676  29645.2  171.505
 6.7096  29716.3  172.555
 6.7516  30140.2  173.44
 6.7936  30250.2  173.185
 6.8356  30306.8  173.426
 6.8776  30549.4  174.923
 6.9196  30617.8  175.513
 6.9616  31098.6  176.335
 7.0036  31402.5  176.846
 7.0456  31595.8  176.684
 7.0876  31605.1  178.312
 7.1296  31394  176.941
 7.1716  31357  176.375
 7.2136  31077.4  175.375
 7.2556  31437.5  176.546
 7.2976  31480.3  177.164
 7.3396  31276.9  176.803
 7.3816  31350.7  177.226
 7.4236  31468.3  176.852
 7.4656  31476.9  176.369
 7.5076  31965.9  177.865
 7.5496  31816.2  177.986
 7.5916  31643.1  177.524
 7.6336  32258.2  179.143
 7.6756  32514.7  179.706
 7.7176  32685.8  180.486
 7.7596  32686.7  181.723
 7.8016  32906.1  184.486
 7.8436  33598.2  183.124
 7.8856  33526.9  182.545
 7.9276  34166  184.67
 7.9696  34271.2  185.26
 8.0116  35281.2  186.517
 8.0536  35726.6  187.948
 8.0956  35246.4  187.848
 8.1376  35828.4  188.862
 8.1796  36059  190.013
 8.2216  37093.9  191.458
 8.2636  36726.3  190.748
 8.3056  36984.2  192.192
 8.3476  37632.9  193.191
 8.3896  36903.7  191.397
 8.4316  37513.7  193.134
 8.4736  37642.9  192.93
 8.5156  37153.1  191.949
 8.5576  37115.1  192.819
 8.5996  36851  191.014
 8.6416  36856.9  192.285
 8.6836  36464.6  191.093
 8.7256  37031.6  192.012
 8.7676  36287.7  192.952
 8.8096  36195.9  190.018
 8.8516  36128.2  189.516
 8.8936  35904.6  188.762
 8.9356  35614.4  188.348
 8.9776  35968.1  189.382
 9.0196  35621  188.136
 9.0616  35834.7  188.173
 9.1036  35314.2  187.989
 9.1456  35578.1  188.048
 9.1876  35293.2  187.242
 9.2296  35474.1  187.131
 9.2716  34844.8  185.523
 9.3136  34784.4  185.344
 9.3556  35149.9  186.301
 9.3976  33554.5  182.538
 9.4396  34434.3  184.816
 9.4816  33720.1  182.744
 9.5236  33843.7  182.999
 9.5656  33756.6  183.085
 9.6076  33528.3  182.995
 9.6496  33318.2  182.341
 9.6916  33004.2  181.458
 9.7336  33110.6  181.524
 9.7756  33076.2  182.537
 9.8176  32506.5  180.598
 9.8596  32439  178.873
 9.9016  32160.8  178.098
 9.9436  31898.4  177.123
 9.9856  31574.1  176.594
 10.0276  31155.3  176.523
 10.0696  31345.6  176.106
 10.1116  30499.3  173.97
 10.1536  30105.1  172.521
 10.1956  29985.8  172.268
 10.2376  29537.5  170.489
 10.2796  29440.6  170.334
 10.3216  29663.8  171.11
 10.3636  29006.1  169.366
 10.4056  29018.1  169.792
 10.4476  28778.1  168.724
 10.4896  29091.6  169.1
 10.5316  28322.5  167.218
 10.5736  28103  167.291
 10.6156  27929.5  166.547
 10.6576  28112.7  165.679
 10.6996  27652.9  164.97
 10.7416  27362.9  164.335
 10.7836  27682  165.986
 10.8256  27207.8  164.985
 10.8676  27242.8  164.632
 10.9096  26773  163.243
 10.9516  26712.9  162.001
 10.9936  26763.3  162.35
 11.0356  26621.5  162.551
 11.0776  26664.2  161.991
 11.1196  25905.6  160.415
 11.1616  25836.6  159.894
 11.2036  25939.1  160.061
 11.2456  25960.5  160.829
 11.2876  25667.5  159.645
 11.3296  25538.2  159.149
 11.3716  25917.9  160.063
 11.4136  25972.2  161.084
 11.4556  25857.5  160.4
 11.4976  26253.9  160.595
 11.5396  26414  161.254
 11.5816  26781.3  162.819
 11.6236  26441.5  162.021
 11.6656  25914.3  159.55
 11.7076  25284.4  158.435
 11.7496  24987.9  161.415
 11.7916  24943.9  156.632
 11.8336  24551.5  156.274
 11.8756  24490  155.617
 11.9176  24559.6  155.499
 11.9596  24245.9  154.677
 12.0016  24126.9  155.09
 12.0436  24335.5  155.185
 12.0856  24000.4  154.634
 12.1276  23703.2  153.583
 12.1696  23914.5  153.417
 12.2116  24116.1  154.062
 12.2536  23620.6  153.254
 12.2956  23847.6  153.365
 12.3376  23558  152.629
 12.3796  23801.6  153.87
 12.4216  23693.6  152.752
 12.4636  23434.9  152.816
 12.5056  23750.9  153.125
 12.5476  23745.8  152.643
 12.5896  23674.8  153.043
 12.6316  23369.7  152.203
 12.6736  23328  152.543
 12.7156  23404.8  152.662
 12.7576  23352.4  152.732
 12.7996  23919.6  153.226
 12.8416  23500.1  152.917
 12.8836  23978  154.298
 12.9256  24190.1  153.988
 12.9676  24263.5  154.655
 13.0096  23892  154.537
 13.0516  24226.5  154.666
 13.0936  24108  154.414
 13.1356  24498.7  154.924
 13.1776  24295.9  155.26
 13.2196  24282.1  154.879
 13.2616  24256.6  155.113
 13.3036  24154.3  154.912
 13.3456  24165.8  155.143
 13.3876  24132.9  154.327
 13.4296  24142.3  154.512
 13.4716  24386.9  154.903
 13.5136  24203.2  154.471
 13.5556  24339.6  155.518
 13.5976  24486.1  156.122
 13.6396  24502.8  155.555
 13.6816  23962.5  154.183
 13.7236  24673.2  156.24
 13.7656  24070  154.836
 13.8076  24245.6  154.197
 13.8496  23986.4  154.149
 13.8916  24046.3  155.156
 13.9336  24056  154.422
 13.9756  23895.3  153.257
 14.0176  23803.4  153.637
 14.0596  23657.7  153.135
 14.1016  23517.3  153.065
 14.1436  23422.6  151.894
 14.1856  23047.7  150.966
 14.2276  22643.6  150.113
 14.2696  23091.7  151.44
 14.3116  22702.5  150.067
 14.3536  22293.2  148.876
 14.3956  22360.7  148.832
 14.4376  22391.2  148.709
 14.4796  22433.8  148.843
 14.5216  21945.2  148.007
 14.5636  21769  146.984
 14.6056  21996.9  147.326
 14.6476  22074.1  146.821
 14.6896  21612.2  145.813
 14.7316  21192.6  145.396
 14.7736  21112.6  144.29
 14.8156  21009.8  143.976
 14.8576  20911.4  143.483
 14.8996  20452.2  143.098
 14.9416  19987.2  141.46
 14.9836  20431.7  142.986
 15.0256  20076  140.678
 15.0676  20168.6  141.316
 15.1096  19859  139.966
 15.1516  19579  139.529
 15.1936  19691.6  139.36
 15.2356  19417  138.663
 15.2776  19356.5  138.033
 15.3196  18829.4  137.134
 15.3616  19045.1  137.673
 15.4036  18785.9  136.588
 15.4456  19078  137.302
 15.4876  18862.2  136.201
 15.5296  18577.9  135.457
 15.5716  18426.2  134.501
 15.6136  18231.9  134.109
 15.6556  18275.2  133.522
 15.6976  18122.6  133.255
 15.7396  18191.6  133.897
 15.7816  17851.4  132.153
 15.8236  17634.5  132.041
 15.8656  17561.2  131.556
 15.9076  17609.6  131.569
 15.9496  17233.9  132.9
 15.9916  17497.6  134.363
 16.0336  17140.6  129.889
 16.0756  17014.9  129.719
 16.1176  17180.1  130.269
 16.1596  16590.8  129.325
 16.2016  17005.2  129.678
 16.2436  16772.1  129.169
 16.2856  16621.3  128.138
 16.3276  16342.2  127.469
 16.3696  16623.6  128.381
 16.4116  16364.5  127.835
 16.4536  16565.3  128.404
 16.4956  16252.5  126.914
 16.5376  16348.9  127.486
 16.5796  16166.1  126.13
 16.6216  16197.4  126.563
 16.6636  16114.4  126.394
 16.7056  16099.5  126.201
 16.7476  16131.5  125.857
 16.7896  16081.1  126.406
 16.8316  16247.6  127.009
 16.8736  15963.6  126.161
 16.9156  16161  127.272
 16.9576  16022  127.522
 16.9996  16021.9  128.001
 17.0416  16083  126.614
 17.0836  16001.8  126.048
 17.1256  15823.7  125.361
 17.1676  15782.6  125.195
 17.2096  15532.7  124.069
 17.2516  15631.5  124.539
 17.2936  15497.6  124.031
 17.3356  15276  123.139
 17.3776  15469.8  124.121
 17.4196  15472.2  123.83
 17.4616  15228.3  122.766
 17.5036  15058.6  122.444
 17.5456  15025.6  122.945
 17.5876  14926  121.591
 17.6296  14878.6  121.2
 17.6716  14738.9  121.209
 17.7136  14569  120.65
 17.7556  14675.4  121.382
 17.7976  14807.3  121.67
 17.8396  14695.2  120.708
 17.8816  14602.5  120.872
 17.9236  14420.6  119.924
 17.9656  14666.6  121.481
 18.0076  14605.7  120.809
 18.0496  14606.9  119.957
 18.0916  14396.4  119.614
 18.1336  14541.2  120.31
 18.1756  14718.5  120.565
 18.2176  14316.6  119.14
 18.2596  14304.7  118.838
 18.3016  14506.7  119.92
 18.3436  14563.4  120.163
 18.3856  14273.7  119.093
 18.4276  14373.4  119.179
 18.4696  14308.2  119.014
 18.5116  14272.8  119.152
 18.5536  14425.2  120.144
 18.5956  14143.9  118.523
 18.6376  14132.3  118.878
 18.6796  13882  117.149
 18.7216  14231.5  119.104
 18.7636  13995.7  118.097
 18.8056  13935.8  117.791
 18.8476  13997.2  118.671
 18.8896  13955.3  117.833
 18.9316  14055.5  118.244
 18.9736  13883  117.214
 19.0156  13853.1  117.492
 19.0576  13709.4  115.758
 19.0996  13979.3  117.593
 19.1416  13766.9  117.086
 19.1836  13834.3  116.981
 19.2256  13745.5  116.816
 19.2676  13925.6  117.671
 19.3096  13883.9  117.74
 19.3516  13840.9  117.337
 19.3936  13727.1  116.935
 19.4356  13761  116.947
 19.4776  13818.3  117.289
 19.5196  13783.2  116.991
 19.5616  13859.8  117.571
 19.6036  13823.3  116.914
 19.6456  13892.7  117.318
 19.6876  13818.8  116.669
 19.7296  13763.5  116.88
 19.7716  13763.7  117.043
 19.8136  13849.3  117.617
 19.8556  13939  117.479
 19.8976  13969.3  117.671
 19.9396  14107  117.83
 19.9816  14276.3  118.783
 20.0236  14495.9  119.905
 20.0656  14604.6  120.348
 20.1076  14476.9  120.287
 20.1496  14607.8  120.84
 20.1916  14210  118.651
 20.2336  14002.7  117.761
 20.2756  13801.2  117.336
 20.3176  13643.4  116.411
 20.3596  13586  116.143
 20.4016  13526.5  115.693
 20.4436  13623.3  116.657
 20.4856  13247.6  114.834
 20.5276  13342.8  115.71
 20.5696  13493.7  115.919
 20.6116  13237.4  114.989
 20.6536  13220.1  114.42
 20.6956  13054.3  113.828
 20.7376  13201.1  114.696
 20.7796  12951.2  113.291
 20.8216  13300  114.509
 20.8636  12941.4  113.323
 20.9056  12988  113.478
 20.9476  12856.7  112.745
 20.9896  13160.8  113.944
 21.0316  13226.2  114.125
 21.0736  12957.8  113.472
 21.1156  12980  113.73
 21.1576  12988.9  113.811
 21.1996  13040.7  114.022
 21.2416  12771.2  112.669
 21.2836  12899.9  113.201
 21.3256  12729.4  112.526
 21.3676  12914.8  112.901
 21.4096  12858.5  113.021
 21.4516  12777.6  112.488
 21.4936  12479.8  111.419
 21.5356  12847.2  112.987
 21.5776  12935.4  113.209
 21.6196  12798.2  112.635
 21.6616  12517.3  111.486
 21.7036  12684.9  112.014
 21.7456  12751.9  112.379
 21.7876  12648.3  111.674
 21.8296  12491.7  110.839
 21.8716  12680  111.903
 21.9136  12727.2  112.313
 21.9556  12598.3  111.418
 21.9976  12514.7  111.056
 22.0396  12596.1  111.674
 22.0816  12540.2  111.964
 22.1236  12628.6  111.809
 22.1656  12646.1  112.018
 22.2076  12804.7  112.198
 22.2496  12557.4  111.135
 22.2916  12658  111.45
 22.3336  12528.6  111.61
 22.3756  12536.2  111.368
 22.4176  12578.6  111.411
 22.4596  12323.9  110.861
 22.5016  12599.1  111.588
 22.5436  12535.9  111.186
 22.5856  12483.3  111.199
 22.6276  12424.2  111.072
 22.6696  12473.1  111.637
 22.7116  12431.2  110.967
 22.7536  12512.1  111.305
 22.7956  12430.3  110.271
 22.8376  12413  110.717
 22.8796  12428.4  110.587
 22.9216  12585.7  111.832
 22.9636  12607.3  111.08
 23.0056  12500.3  110.742
 23.0476  12553.1  111.546
 23.0896  12868.9  112.305
 23.1316  12651.3  111.795
 23.1736  12518.1  114.144
 23.2156  12722.2  112.423
 23.2576  12597.7  112.003
 23.2996  12638.2  111.973
 23.3416  12421.5  111.514
 23.3836  12435.9  110.826
 23.4256  12462.2  111.052
 23.4676  12499.7  110.925
 23.5096  12355.8  110.953
 23.5516  12356.8  110.242
 23.5936  12528.3  111.902
 23.6356  12484.6  111.383
 23.6776  12514  111.731
 23.7196  12195.9  110.092
 23.7616  12463.5  111.001
 23.8036  12470  111.063
 23.8456  12408  110.366
 23.8876  12231.7  109.915
 23.9296  12146.4  110.027
 23.9716  12268.5  109.779
 24.0136  12315.6  110.889
 24.0556  12187  110.034
 24.0976  12030.6  109.141
 24.1396  11923.4  111.286
 24.1816  12128.3  110.651
 24.2236  11967.5  109.524
 24.2656  11831.7  108.381
 24.3076  11762.8  108.313
 24.3496  11946.2  109.046
 24.3916  11764.7  108.252
 24.4336  11704.9  108.193
 24.4756  11739  108.227
 24.5176  11642.8  107.428
 24.5596  11465.1  106.92
 24.6016  11611.1  107.692
 24.6436  11510.1  106.718
 24.6856  11655.7  107.155
 24.7276  11428.2  106.417
 24.7696  11374.7  106.277
 24.8116  11343.2  106.313
 24.8536  11293.7  106.076
 24.8956  11333  105.998
 24.9376  11155.1  105.339
 24.9796  11081.3  105.103
 25.0216  11042.7  105.026
 25.0636  11151.9  105.203
 25.1056  10995  105.158
 25.1476  11201.5  107.805
 25.1896  11179.1  106.178
 25.2316  11217.2  105.629
 25.2736  11113  104.797
 25.3156  11044.3  104.544
 25.3576  11003  104.763
 25.3996  11035.8  104.907
 25.4416  10973.7  104.594
 25.4836  10855  104.545
 25.5256  10956.3  104.401
 25.5676  11047.8  104.568
 25.6096  10929.8  104.574
 25.6516  10949.4  104.175
 25.6936  10817.6  103.853
 25.7356  10956.7  104.65
 25.7776  11034  104.705
 25.8196  10692.2  103.225
 25.8616  10821.9  103.769
 25.9036  10929.8  103.756
 25.9456  10771.2  103.595
 25.9876  10709.2  103.219
 26.0296  10957.3  104.065
 26.0716  10707.2  103.281
 26.1136  10914.6  104.222
 26.1556  10876.3  103.423
 26.1976  10770.7  103.844
 26.2396  10746.4  102.889
 26.2816  10705.5  103.295
 26.3236  10826.7  104.035
 26.3656  10822.9  103.738
 26.4076  10813  103.907
 26.4496  11291.9  105.645
 26.4916  10876.1  103.708
 26.5336  10727.9  103.318
 26.5756  10909.9  104.061
 26.6176  10695.7  103.079
 26.6596  10573.5  102.789
 26.7016  10576.3  102.565
 26.7436  10426  101.954
 26.7856  10489.8  102.254
 26.8276  10476.9  102.152
 26.8696  10519  102.229
 26.9116  10498.7  102.061
 26.9536  10471.7  101.984
 26.9956  10391.6  101.63
 27.0376  10353.2  101.646
 27.0796  10471.1  101.968
 27.1216  10303.1  101.214
 27.1636  10249.7  101.118
 27.2056  10311.7  101.306
 27.2476  10341.6  101.453
 27.2896  10304.9  101.387
 27.3316  10388.2  101.5
 27.3736  10292.8  101.309
 27.4156  10157.8  100.481
 27.4576  10258.2  101.208
 27.4996  10238.2  100.702
 27.5416  10051.1  100.095
 27.5836  10176.4  100.537
 27.6256  10374.2  101.675
 27.6676  10363  101.64
 27.7096  10149.2  100.445
 27.7516  10119.2  100.456
 27.7936  9970.69  99.8766
 27.8356  10236.2  100.823
 27.8776  10004.7  99.716
 27.9196  10077.1  99.9282
 27.9616  10046.4  99.9707
 28.0036  10087.4  100.143
 28.0456  10024.1  99.9668
 28.0876  9888.43  99.3733
 28.1296  9999.67  99.77
 28.1716  10055.6  100.053
 28.2136  9939.92  99.4466
 28.2556  9855.92  99.137
 28.2976  9805.3  98.875
 28.3396  9986.49  99.5455
 28.3816  9911.29  99.1905
 28.4236  9810.86  98.8387
 28.4656  9750.4  98.5676
 28.5076  9779.65  98.3537
 28.5496  9726.83  98.3476
 28.5916  9912.62  99.0937
 28.6336  9631.57  98.0067
 28.6756  9896.23  98.5554
 28.7176  9730.38  98.2705
 28.7596  9750.44  98.2668
 28.8016  9818.79  98.6472
 28.8436  9651.78  98.0369
 28.8856  9673.5  98.0073
 28.9276  9794.93  98.8626
 28.9696  9526.78  97.1637
 29.0116  9589.9  97.6718
 29.0536  9592.15  97.8796
 29.0956  9664.89  97.963
 29.1376  9586.83  97.5361
 29.1796  9517.05  97.2196
 29.2216  9625.13  97.6148
 29.2636  9590.77  97.5116
 29.3056  9531.13  97.0093
 29.3476  9473.13  97.2285
 29.3896  9649.1  98.2201
 29.4316  9654.87  97.5994
 29.4736  9610.08  97.438
 29.5156  9675.02  97.6758
 29.5576  9603.26  98.0633
 29.5996  9552.67  97.0638
 29.6416  9501.83  96.9261
 29.6836  9713.97  97.9278
 29.7256  9504.55  97.4283
 29.7676  9519.55  97.1686
 29.8096  9510.61  97.0668
 29.8516  9428.85  96.9746
 29.8936  9506.81  97.4723
 29.9356  9542.05  97.4078
 29.9776  9373.26  96.6893
 30.0196  9333.3  95.8724
 30.0616  9506.2  97.1411
 30.1036  9532.26  97.0973
 30.1456  9530.94  97.3263
 30.1876  9345.42  96.3536
 30.2296  9412.89  96.6485
 30.2716  9407.73  96.261
 30.3136  9516.98  97.677
 30.3556  9346.72  96.8048
 30.3976  9423.57  98.7184
 30.4396  9394.72  95.916
 30.4816  9382.73  95.4603
 30.5236  9369.33  95.4083
 30.5656  9217.18  95.2765
 30.6076  9381.99  95.9063
 30.6496  9419.75  96.1318
 30.6916  9227.89  95.2443
 30.7336  9196.23  95.2283
 30.7756  9271.16  95.7008
 30.8176  9360.07  96.0792
 30.8596  9335.98  95.7234
 30.9016  9314.53  95.4865
 30.9436  9452.34  96.4183
 30.9856  9290.17  95.6925
 31.0276  9255.09  95.1135
 31.0696  9158.67  95.1911
 31.1116  9075.03  94.7372
 31.1536  9281.71  95.6973
 31.1956  9282.92  95.7877
 31.2376  9078.88  94.74
 31.2796  9084.94  94.3087
 31.3216  9204.54  94.8749
 31.3636  9167.33  95.3697
 31.4056  9276.93  97.2522
 31.4476  9188.68  94.6854
 31.4896  9112.9  94.7965
 31.5316  9292.79  95.1265
 31.5736  9255.53  94.7642
 31.6156  9160.83  94.2871
 31.6576  9179.85  94.4779
 31.6996  9262.22  94.58
 31.7416  9020.97  94.2536
 31.7836  9103.63  93.8445
 31.8256  8876.94  92.9329
 31.8676  9145.07  94.3196
 31.9096  8890.24  93.2182
 31.9516  8891.19  93.506
 31.9936  8900.5  93.3921
 32.0356  9129.09  94.6458
 32.0776  9051.8  94.1325
 32.1196  8984.7  93.7869
 32.1616  8979.63  93.3109
 32.2036  8864.83  93.2105
 32.2456  8986.04  94.2279
 32.2876  9094.41  94.2891
 32.3296  8851.71  92.99
 32.3716  8894.36  93.3188
 32.4136  9038.61  94.2884
 32.4556  9083.68  93.8997
 32.4976  8987.13  93.3448
 32.5396  8950.84  93.1913
 32.5816  8812.11  92.5805
 32.6236  8979.73  93.5299
 32.6656  8964.34  93.9828
 32.7076  8897.8  93.2932
 32.7496  8880.41  92.8749
 32.7916  8950.53  93.1961
 32.8336  8930.33  93.191
 32.8756  8879.14  92.6497
 32.9176  8701.93  92.1901
 32.9596  8723.47  92.3786
 33.0016  8742.73  92.2785
 33.0436  8904.16  93.3012
 33.0856  8823.62  92.9453
 33.1276  8677.12  91.9112
 33.1696  8820.91  92.5124
 33.2116  8785.63  92.5532
 33.2536  8892.92  93.1119
 33.2956  8812.84  92.7777
 33.3376  8755.98  92.3016
 33.3796  8857.09  92.9598
 33.4216  8924.93  92.9106
 33.4636  8765.85  92.2274
 33.5056  8689.62  92.0568
 33.5476  8694.21  92.0745
 33.5896  8892.53  92.8957
 33.6316  8617.48  91.7532
 33.6736  8586.15  91.8286
 33.7156  8661.53  92.2765
 33.7576  8772.9  92.4893
 33.7996  8831.58  92.5585
 33.8416  8503.5  91.0193
 33.8836  8684.94  91.7598
 33.9256  8647.17  91.6211
 33.9676  8656  91.5669
 34.0096  8511.38  91.1061
 34.0516  8516.4  90.7831
 34.0936  8699.1  92.0105
 34.1356  8641.96  91.4524
 34.1776  8632.57  91.419
 34.2196  8529.68  91.049
 34.2616  8588.1  91.4923
 34.3036  8539.13  91.4772
 34.3456  8578.42  91.4466
 34.3876  8557.26  91.3851
 34.4296  8529.37  90.8426
 34.4716  8647.66  91.616
 34.5136  8450.38  90.7695
 34.5556  8489.32  91.2315
 34.5976  8558.1  91.4287
 34.6396  8463.44  90.6097
 34.6816  8358.02  90.1521
 34.7236  8467.43  90.5231
 34.7656  8576.19  91.3072
 34.8076  8382.68  90.5903
 34.8496  8440.86  90.7571
 34.8916  8539.81  91.1624
 34.9336  8528.34  91.0687
 34.9756  8502.43  90.8752
 35.0176  8535.73  91.5522
 35.0596  8396.15  90.6249
 35.1016  8469.96  90.7882
 35.1436  8563.16  90.9774
 35.1856  8295.55  89.6694
 35.2276  8451.44  90.6891
 35.2696  8446.16  90.8445
 35.3116  8467.81  91.0596
 35.3536  8293.98  89.8567
 35.3956  8355.92  89.8758
 35.4376  8347.72  90.3757
 35.4796  8411.93  90.7875
 35.5216  8318.92  90.2403
 35.5636  8212.63  90.4025
 35.6056  8331.81  90.0841
 35.6476  8380.14  90.2377
 35.6896  8405  90.4523
 35.7316  8111.87  88.8375
 35.7736  8263.41  89.8648
 35.8156  8264.38  89.8603
 35.8576  8293.41  90.2762
 35.8996  8370.29  90.6461
 35.9416  8434.19  90.4718
 35.9836  8264.41  90.0371
 36.0256  8286.16  90.0691
 36.0676  8296.17  89.8928
 36.1096  8244.69  89.7504
 36.1516  8253.91  89.6915
 36.1936  8327.55  89.936
 36.2356  8240.57  90.1046
 36.2776  8302.61  89.9119
 36.3196  8311.64  89.6429
 36.3616  8296.46  89.6914
 36.4036  8337.55  89.9662
 36.4456  8285.84  89.8997
 36.4876  8100.24  88.8274
 36.5296  8139.24  89.0831
 36.5716  8194.76  90.1624
 36.6136  8314.85  89.5982
 36.6556  8216.4  89.2659
 36.6976  8239.58  89.8899
 36.7396  8157.18  89.1706
 36.7816  8184.09  89.692
 36.8236  8168.66  89.5284
 36.8656  8019.39  88.7787
 36.9076  8069  88.932
 36.9496  8092.35  89.0495
 36.9916  8072.28  88.5729
 37.0336  8127.11  89.1864
 37.0756  8325.74  90.0593
 37.1176  8051.72  88.8299
 37.1596  8071.4  88.9373
 37.2016  8040.68  89.0008
 37.2436  8069.3  88.4792
 37.2856  8080.34  88.7982
 37.3276  8179.53  88.6893
 37.3696  8035.22  88.7798
 37.4116  8115.31  89.1301
 37.4536  8048.91  88.6337
 37.4956  7950.13  88.1234
 37.5376  8058.6  90.2696
 37.5796  8036.75  90.1032
 37.6216  7839.29  87.282
 37.6636  7907.68  87.5656
 37.7056  8001.11  88.2739
 37.7476  7930.08  87.415
 37.7896  8002.12  88.3152
 37.8316  7770.41  87.1936
 37.8736  8140.36  88.7675
 37.9156  8011.48  88.0668
 37.9576  7957.71  87.6626
 37.9996  7845.41  86.7661
 38.0416  7917.08  87.9572
 38.0836  7934.45  87.9618
 38.1256  7928.19  87.8866
 38.1676  7695.86  86.7258
 38.2096  7801.23  86.9438
 38.2516  8053.78  88.5502
 38.2936  7940.57  87.7214
 38.3356  8126.02  88.6581
 38.3776  7792.22  87.0861
 38.4196  7952.14  87.8267
 38.4616  7794.47  87.1849
 38.5036  7924.65  87.7548
 38.5456  7877.22  88.3294
 38.5876  7901.31  88.4934
 38.6296  7766.17  86.715
 38.6716  7735.35  86.3434
 38.7136  7927.98  87.3528
 38.7556  7743.5  86.8285
 38.7976  7784.76  87
 38.8396  7716.91  87.0661
 38.8816  7615.53  86.2605
 38.9236  7675.7  86.4312
 38.9656  7858.8  87.3697
 39.0076  7849.56  86.7289
 39.0496  7744.71  86.6789
 39.0916  7784.48  86.5405
 39.1336  7727.68  86.6475
 39.1756  7801.49  87.1208
 39.2176  7801.2  87.6501
 39.2596  7729.68  87.1664
 39.3016  7769.99  86.9694
 39.3436  7648.67  86.7087
 39.3856  7812.42  87.0856
 39.4276  7749  87.218
 39.4696  7770.63  86.9667
 39.5116  7716.66  87.1709
 39.5536  7885.42  88.5535
 39.5956  7906.64  87.7756
 39.6376  7845.25  87.4389
 39.6796  7783.09  86.8297
 39.7216  7767.63  86.8447
 39.7636  7777.15  87.4643
 39.8056  7799.93  87.3663
 39.8476  7737.9  87.2738
 39.8896  7733.17  86.8752
 39.9316  7749.6  87.2228
 39.9736  7879.99  87.514
 40.0156  7763.41  86.6971
 40.0576  7736.7  86.9104
 40.0996  7973.77  87.4143
 40.1416  7783.15  87.1417
 40.1836  7889.67  87.6245
 40.2256  7822.78  87.303
 40.2676  7786.58  87.2714
 40.3096  7834.33  87.3989
 40.3516  7847.13  87.5765
 40.3936  8055.53  88.2869
 40.4356  7808.52  87.1195
 40.4776  7876.25  87.738
 40.5196  7873.44  88.0129
 40.5616  7894.14  87.7728
 40.6036  7834.7  87.6896
 40.6456  7833.09  87.3003
 40.6876  7989.86  88.1568
 40.7296  7872.87  87.6468
 40.7716  7886.05  87.8482
 40.8136  7801.21  87.3188
 40.8556  7807.29  87.4802
 40.8976  7836.42  87.5642
 40.9396  7770.52  87.5401
 40.9816  7835.91  87.2004
 41.0236  7871.15  87.1793
 41.0656  7989.56  88.3724
 41.1076  8019.91  88.3118
 41.1496  7967.14  87.9283
 41.1916  7777.53  87.1917
 41.2336  7814.87  87.394
 41.2756  7859.15  87.2506
 41.3176  7785.22  87.4449
 41.3596  7767.67  87.0766
 41.4016  7869.15  87.9094
 41.4436  7941.47  88.0977
 41.4856  7836.79  87.6769
 41.5276  7762.76  87.2793
 41.5696  7833.98  87.3144
 41.6116  7812.29  87.5791
 41.6536  7919.59  88.0426
 41.6956  7902.38  87.927
 41.7376  7758.26  87.2228
 41.7796  7781.12  87.2359
 41.8216  7889.95  88.0763
 41.8636  7828.76  87.6758
 41.9056  7736.76  86.9498
 41.9476  7751.37  87.2485
 41.9896  7777.97  87.0755
 42.0316  7808.24  87.3303
 42.0736  7878.78  87.8688
 42.1156  7693.52  86.6381
 42.1576  7789.03  87.2725
 42.1996  7891.02  87.9868
 42.2416  7804.81  87.0886
 42.2836  7681.58  86.51
 42.3256  7756.72  87.0444
 42.3676  7798.33  87.0824
 42.4096  7825.12  87.1997
 42.4516  7738.03  86.7921
 42.4936  7775.53  87.0741
 42.5356  7733.35  86.9731
 42.5776  7800.79  87.2863
 42.6196  7788.51  87.2772
 42.6616  7544.65  86.0652
 42.7036  7675.67  86.1991
 42.7456  7747.95  86.9569
 42.7876  7721.05  86.9072
 42.8296  7719.72  86.7322
 42.8716  7712.87  86.8555
 42.9136  7623.67  86.1014
 42.9556  7818.61  87.3706
 42.9976  7787.94  87.1633
 43.0396  7718.22  86.5024
 43.0816  7608.25  86.2604
 43.1236  7631.87  86.4478
 43.1656  7681.58  86.5614
 43.2076  7588.84  86.1416
 43.2496  7578.21  85.8907
 43.2916  7624.25  86.5209
 43.3336  7635.08  86.4212
 43.3756  7585.52  85.8961
 43.4176  7524.07  85.6281
 43.4596  7552.98  85.6493
 43.5016  7679.86  86.7723
 43.5436  7564.07  86.0142
 43.5856  7478.55  85.5467
 43.6276  7646  86.4007
 43.6696  7543.03  86.0751
 43.7116  7595.91  85.8747
 43.7536  7593.91  86.347
 43.7956  7507.98  87.0373
 43.8376  7546.02  85.8212
 43.8796  7441.02  85.2977
 43.9216  7606.23  86.1571
 43.9636  7574.33  86.085
 44.0056  7556.26  86.2138
 44.0476  7470.55  85.3536
 44.0896  7505.25  85.8958
 44.1316  7656.59  86.2792
 44.1736  7558.13  85.846
 44.2156  7595.41  85.9096
 44.2576  7426.98  85.2764
 44.2996  7419.95  85.2077
 44.3416  7460.33  85.2032
 44.3836  7442.31  85.4224
 44.4256  7430.09  85
 44.4676  7307.91  84.4531
 44.5096  7350.27  84.8338
 44.5516  7340.03  84.7421
 44.5936  7326.26  84.6199
 44.6356  7311.26  84.2735
 44.6776  7378  84.9739
 44.7196  7353.61  85.1375
 44.7616  7312.86  86.1977
 44.8036  7363.42  85.1364
 44.8456  7395.13  85.322
 44.8876  7308.77  84.6772
 44.9296  7521.04  85.3541
 44.9716  7437.82  85.3107
 45.0136  7307.65  84.4888
 45.0556  7378.44  84.9811
 45.0976  7266.23  84.3885
 45.1396  7272.12  84.1909
 45.1816  7229.3  83.8764
 45.2236  7326.98  84.3384
 45.2656  7289.94  84.6227
 45.3076  7248.63  84.1666
 45.3496  7151.48  83.9009
 45.3916  7146.55  84.1311
 45.4336  7333.69  85.069
 45.4756  7126.5  83.7225
 45.5176  7148.82  83.4732
 45.5596  7336.63  84.6851
 45.6016  7298.95  84.8787
 45.6436  7296.52  84.0523
 45.6856  7217.35  84.2471
 45.7276  7186.7  85.3645
 45.7696  7232.42  85.3132
 45.8116  7225.06  84.7138
 45.8536  7176.05  84.3179
 45.8956  7260.17  84.1702
 45.9376  7259.08  83.6362
 45.9796  7155.33  83.7041
 46.0216  7232.95  84.5016
 46.0636  7373.15  84.466
 46.1056  7321.28  84.1512
 46.1476  7252.6  84.3418
 46.1896  7132.76  83.7887
 46.2316  7170.83  83.8871
 46.2736  7196.24  84.239
 46.3156  7256.92  84.3408
 46.3576  7173.24  84.0515
 46.3996  7171.92  84.2049
 46.4416  7097.16  83.3267
 46.4836  7158.11  84.0566
 46.5256  7125.05  83.8005
 46.5676  7059.96  83.5293
 46.6096  7134.6  83.8953
 46.6516  7256.39  83.668
 46.6936  7256.51  84.1512
 46.7356  7197.65  83.9213
 46.7776  7096.98  84.1623
 46.8196  7079.47  83.8033
 46.8616  6975.27  82.991
 46.9036  7006.64  82.8405
 46.9456  7017.26  82.5526
 46.9876  7100.52  83.1178
 47.0296  7040.02  83.4469
 47.0716  6937.55  82.6603
 47.1136  7096.45  83.2842
 47.1556  6973.43  82.4293
 47.1976  7134.76  83.5279
 47.2396  7034.65  83.263
 47.2816  6980.5  82.6426
 47.3236  7074.58  83.5667
 47.3656  6981.34  82.9438
 47.4076  7073.69  83.2212
 47.4496  6978.19  82.8225
 47.4916  7011.53  83.2038
 47.5336  7022.56  83.0934
 47.5756  7073.14  83.5121
 47.6176  6959.27  82.7271
 47.6596  6815.19  81.5952
 47.7016  7132.99  83.296
 47.7436  7038.6  83.0685
 47.7856  7131.77  83.6483
 47.8276  6917.66  82.4299
 47.8696  6896.75  82.3925
 47.9116  7035.76  82.9357
 47.9536  6952.63  82.3848
 47.9956  6938.15  82.9965
 48.0376  6840.21  82.1867
 48.0796  7025.48  83.4066
 48.1216  6979.75  82.969
 48.1636  7091.68  83.2087
 48.2056  6976.99  82.7957
 48.2476  7056.33  83.564
 48.2896  6947.5  82.8358
 48.3316  6888.25  82.4197
 48.3736  6796.63  81.8968
 48.4156  6828.46  81.9469
 48.4576  6865.92  82.4548
 48.4996  6940.43  82.3651
 48.5416  6962.01  82.8126
 48.5836  6978.96  82.5987
 48.6256  6959.12  82.6741
 48.6676  6899.11  82.8296
 48.7096  6881.57  82.0059
 48.7516  6889.18  82.1993
 48.7936  6762.56  81.4994
 48.8356  6932.17  82.5651
 48.8776  6851.81  82.6492
 48.9196  6953.68  82.6286
 48.9616  6759.52  81.8364
 49.0036  6853.86  82.7536
 49.0456  6793.29  82.3727
 49.0876  6857.38  82.2958
 49.1296  6702.27  81.5205
 49.1716  6636.47  80.9969
 49.2136  6930.76  82.6906
 49.2556  6831.29  82.139
 49.2976  6929.44  82.7897
 49.3396  6723.9  81.6091
 49.3816  6878.56  81.9817
 49.4236  6802.93  81.9435
 49.4656  6664.27  81.1309
 49.5076  6740.98  81.3443
 49.5496  6758.12  81.5087
 49.5916  6847.38  81.9659
 49.6336  6767.49  81.6855
 49.6756  6798.8  82.0985
 49.7176  6789.18  81.9869
 49.7596  6662.55  80.9909
 49.8016  6754.01  81.4649
 49.8436  6773.71  81.8812
 49.8856  6660.46  81.1949
 49.9276  6666.62  81.3309
 49.9696  6755.83  81.862
 50.0116  6707.75  81.6949
 50.0536  6697.14  81.5757
 50.0956  6651.49  81.37
 50.1376  6745.83  81.6409
 50.1796  6636.67  81.247
 50.2216  6609.65  81.0771
 50.2636  6615.01  80.7389
 50.3056  6605.71  80.8538
 50.3476  6651  81.1503
 50.3896  6582.5  80.7032
 50.4316  6633.62  80.8511
 50.4736  6517.61  80.3575
 50.5156  6641.64  81.1043
 50.5576  6677.59  81.0931
 50.5996  6602.43  80.9069
 50.6416  6619.58  80.9412
 50.6836  6554.48  80.5995
 50.7256  6761.91  81.7961
 50.7676  6640.91  81.3641
 50.8096  6608.74  80.723
 50.8516  6505.99  80.4963
 50.8936  6475.77  80.1008
 50.9356  6561.09  80.7256
 50.9776  6603.04  81.1334
 51.0196  6521.88  80.7564
 51.0616  6418.35  79.4647
 51.1036  6497.13  80.2917
 51.1456  6651.61  81.1586
 51.1876  6532.09  79.7855
 51.2296  6532.49  80.4109
 51.2716  6532.68  80.1179
 51.3136  6514.08  80.4504
 51.3556  6426.53  79.5398
 51.3976  6415.95  79.6295
 51.4396  6312.8  79.2834
 51.4816  6387.57  79.6062
 51.5236  6532.64  80.5804
 51.5656  6461.38  79.7616
 51.6076  6504.74  80.1093
 51.6496  6559.63  80.6345
 51.6916  6505.06  80.6449
 51.7336  6413.5  80.1673
 51.7756  6514.81  80.504
 51.8176  6414.71  79.9831
 51.8596  6413.95  79.9941
 51.9016  6611.52  80.8253
 51.9436  6473.57  81.3913
 51.9856  6360.12  81.1151
 52.0276  6529.15  80.7066
 52.0696  6392.86  79.9244
 52.1116  6455.65  80.4393
 52.1536  6422.52  80.0624
 52.1956  6367.64  79.2542
 52.2376  6548.43  80.5338
 52.2796  6479.81  79.9371
 52.3216  6313.32  79.5654
 52.3636  6430  79.8872
 52.4056  6399.56  79.5489
 52.4476  6346.67  79.588
 52.4896  6289.17  79.2735
 52.5316  6307.37  79.4224
 52.5736  6316.19  79.2257
 52.6156  6387.95  80.0342
 52.6576  6512.55  80.2709
 52.6996  6308.12  79.956
 52.7416  6318.49  79.8785
 52.7836  6370.73  80.0893
 52.8256  6358.02  79.2407
 52.8676  6229.36  79.0019
 52.9096  6305.06  79.5598
 52.9516  6308.33  79.9474
 52.9936  6259.95  80.0224
 53.0356  6207.4  78.7095
 53.0776  6226.76  79.0886
 53.1196  6268.4  79.4788
 53.1616  6160.52  78.8386
 53.2036  6129.02  78.5905
 53.2456  6198.07  79.1278
 53.2876  6140.3  78.4768
 53.3296  6128.51  78.7178
 53.3716  6226.73  79.0907
 53.4136  6213.15  79.1568
 53.4556  6158.28  78.8366
 53.4976  6232.56  79.1618
 53.5396  6147.94  79.0096
 53.5816  6234.86  79.2032
 53.6236  6157.64  79.0422
 53.6656  6151.98  78.6484
 53.7076  6268.02  79.3442
 53.7496  6226.53  79.199
 53.7916  6275.57  79.6301
 53.8336  6123.64  78.5658
 53.8756  6041  78.5669
 53.9176  6206.22  78.9985
 53.9596  6234.55  79.9305
 54.0016  6192.74  79.0093
 54.0436  6104.33  78.6547
 54.0856  6242.1  78.9624
 54.1276  6231.18  79.093
 54.1696  6123.99  78.5819
 54.2116  6202.33  78.8394
 54.2536  6196.09  78.6186
 54.2956  6221.26  78.8229
 54.3376  6123.95  78.6824
 54.3796  6102.71  78.4468
 54.4216  6244.91  79.4004
 54.4636  6162.84  78.8385
 54.5056  6210.52  78.9648
 54.5476  6038.45  78.1897
 54.5896  6227.71  79.2384
 54.6316  6066.57  78.0692
 54.6736  6183.72  78.8941
 54.7156  6122.29  78.5207
 54.7576  6103.45  78.3963
 54.7996  6132.06  78.7278
 54.8416  6238.9  79.4468
 54.8836  6003.55  78.0396
 54.9256  6133.97  78.6395
 54.9676  6177.36  78.7756
 55.0096  6214.28  79.0761
 55.0516  6122.48  78.7249
 55.0936  6109.32  78.2698
 55.1356  6033.83  77.832
 55.1776  6076.65  78.3664
 55.2196  6122.4  78.4477
 55.2616  6105.8  78.5507
 55.3036  6064.98  78.4466
 55.3456  6117.02  78.9306
 55.3876  6041.63  78.1905
 55.4296  6096.66  78.5165
 55.4716  6066.69  78.3655
 55.5136  6116.22  78.4442
 55.5556  6042.56  78.0348
 55.5976  6063.15  78.2313
 55.6396  6106.73  78.3746
 55.6816  6091.77  78.2364
 55.7236  6085.37  78.2419
 55.7656  6043.65  77.735
 55.8076  6140.55  78.3432
 55.8496  6035.23  78.087
 55.8916  6027.86  78.1329
 55.9336  6072.35  78.2387
 55.9756  6069.34  78.1122
 56.0176  6094.8  78.4261
 56.0596  6074.51  78.2772
 56.1016  6073.8  78.284
 56.1436  6093.07  78.6673
 56.1856  6074.19  78.2904
 56.2276  6024.13  78.0222
 56.2696  5983.13  77.7281
 56.3116  5994.71  78.195
 56.3536  6042.92  78.1778
 56.3956  6108.96  78.595
 56.4376  5973  77.7473
 56.4796  6062.77  78.1344
 56.5216  6011.15  78.1473
 56.5636  6122.1  78.4828
 56.6056  6075.55  78.4053
 56.6476  6021.1  77.6896
 56.6896  6061.13  78.3839
 56.7316  6069.26  78.3541
 56.7736  6063.27  78.3119
 56.8156  6085.08  78.4463
 56.8576  6026.72  78.014
 56.8996  6100.68  78.4367
 56.9416  6041.42  78.3529
 56.9836  5960.67  77.3402
 57.0256  6117.93  78.6774
 57.0676  5978.54  77.8913
 57.1096  5953.15  77.5234
 57.1516  6039.88  78.1517
 57.1936  6011.98  77.7213
 57.2356  6032.88  78.1718
 57.2776  6111.64  78.6371
 57.3196  5937.6  77.8745
 57.3616  5963.16  77.5413
 57.4036  6036.1  78.0749
 57.4456  5912.69  77.2355
 57.4876  6026.11  77.8337
 57.5296  5962.55  77.7584
 57.5716  6002.27  78.007
 57.6136  6044.66  78.1059
 57.6556  5964.88  77.7216
 57.6976  6103.37  78.4455
 57.7396  5976.54  77.992
 57.7816  5903.3  77.8673
 57.8236  6057.68  78.6751
 57.8656  6012.1  78.0384
 57.9076  5997.05  77.966
 57.9496  6021.72  78.4741
 57.9916  5948.06  77.5119
 58.0336  5988.03  78.0455
 58.0756  5967.4  77.5308
 58.1176  6027.18  77.9379
 58.1596  5890.88  77.6078
 58.2016  6026.37  77.7291
 58.2436  6030.13  78.165
 58.2856  6037.83  78.1342
 58.3276  6012.55  78.3384
 58.3696  5990.56  77.9484
 58.4116  6042.6  78.1498
 58.4536  6075.82  78.2531
 58.4956  6003.31  77.9618
 58.5376  6164.83  78.573
 58.5796  5991.13  77.881
 58.6216  6026.04  77.9207
 58.6636  6078.43  78.4773
 58.7056  6056.62  78.1914
 58.7476  5975.23  78.1066
 58.7896  5990.7  77.8542
 58.8316  5876.96  77.1066
 58.8736  6022.48  78.0634
 58.9156  5985.08  77.8637
 58.9576  6008.16  78.3357
 58.9996  6084.04  78.0716
 59.0416  6210.3  79.2497
 59.0836  6116.81  78.5678
 59.1256  5906.96  77.9001
 59.1676  6011.27  78.888
 59.2096  6022.62  78.2802
 59.2516  6236.55  79.2326
 59.2936  6029.71  78.2355
 59.3356  6033.76  78.1395
 59.3776  6041.22  78.3568
 59.4196  5994.03  77.985
 59.4616  5829.46  76.7708
 59.5036  6009.05  77.9788
 59.5456  6134.13  78.478
 59.5876  6084.3  78.3504
 59.6296  5880.57  77.0958
 59.6716  6002.28  77.9473
 59.7136  6029.78  78.1139
 59.7556  6096.43  78.6816
 59.7976  5870.09  76.953
 59.8396  6060.99  78.0883
 59.8816  6052.76  78.5786
 59.9236  6030.7  78.0819
 59.9656  5922.8  77.6383
 60.0076  6086.11  78.0563
 60.0496  6003.79  78.029
 60.0916  5977.21  77.2772
 60.1336  6047.81  78.8403
 60.1756  5924.78  79.2074
 60.1996  0.0000000E+00  0.0000000E+00