File: docs/examples/XRD/IS17_D/Data/IS17_D/17_Db_f00029.xye
# /beamlines/bl04/projects/cycle2025-II/20250340211-lsimonelli/DATA/IS17_D/17_Db_f00029.xye : mythproc.py merge -s 0.006 -l 0.5 -f /beamlines/bl04/inhouse/ff/FlatField/ff_20Nov2024rod8mm60s_17keV.raw -b True -c true -o xye /beamlines/bl04/projects/cycle2025-II/20250340211-lsimonelli/DATA/IS17_D/17_Db_00029.dat
# IsMon = [6767926, 6760626, 6764130]  IsPos = [-1.4999, -2.4885, -3.4986]
# Wave = 0.4962  CalPath /beamlines/bl04/projects/cycle2025-II/20250340211-lsimonelli/DATA/Align/Si_Pos1_25keV_f00001.cal
# Date = 2025-09-24_01:45:41 Dt = 4.8000  Bin = 0.0060  <imon> = 6764227 +/- 2981 (Min/Max) 6760626 / 6767926
# icurr 251.1802  mocoIn 1.7135E-05  mocoOut 0.8038  i15 7.08452e+06  imon 6.76423e+06  i7 5.6667  iEMpd_timer 4.8000  iEMpd_1 3.6250E-08  iEMpd_2 7.7613E-08  iEMpd_3 1.7681E-08  iEMpd_4 4.8570E-08  iEMhp_timer 4.8000  iEMhp_1 4.9079E-06  iEMhp_2 -2.4540E-08  iEMhp_3 -2.3389E-08  iEMhp_4 -2.3293E-08
#      9776
 1.5856  43892.8  215.071
 1.6276  50409  226.528
 1.6696  56060.4  238.046
 1.7116  63461.8  253.769
 1.7536  71586.2  268.375
 1.7956  75644.5  276.567
 1.8376  72305.4  270.822
 1.8796  61952.7  248.849
 1.9216  51174.4  227.063
 1.9636  43864.5  209.359
 2.0056  39317  197.442
 2.0476  37247.6  194.283
 2.0896  35563.8  188.727
 2.1316  34699.8  185.525
 2.1736  33360.8  183.353
 2.2156  33405.1  182.002
 2.2576  32504.2  180.173
 2.2996  31150.5  177.03
 2.3416  31612  176.914
 2.3836  30898.3  175.013
 2.4256  30050.2  173.157
 2.4676  29498  171.315
 2.5096  29341.3  170.915
 2.5516  27978.4  170.753
 2.5936  28160.8  167.901
 2.6356  27546.1  166.746
 2.6776  27369.6  165.118
 2.7196  27035.2  164.597
 2.7616  26934.8  164.079
 2.8036  26248.2  162.138
 2.8456  26570.4  163.773
 2.8876  26079.4  162.085
 2.9296  25493  160.409
 2.9716  25178.1  158.907
 3.0136  25317.8  159.418
 3.0556  25109.5  159.141
 3.0976  25004.4  157.708
 3.1396  24685.3  157.445
 3.1816  24453.8  156.643
 3.2236  24330.5  156.233
 3.2656  24238.1  155.002
 3.3076  23901.5  155.374
 3.3496  24330.2  155.925
 3.3916  24516.6  156.093
 3.4336  24991.7  158.187
 3.4756  25287.3  159.047
 3.5176  26022.5  161.131
 3.5596  25589.5  162.2
 3.6016  25831.5  160.604
 3.6436  24977.9  159.043
 3.6856  24630.6  156.229
 3.7276  23639  154.138
 3.7696  23384.3  153.486
 3.8116  23218.4  152.827
 3.8536  23262.9  152.899
 3.8956  23134.4  152.312
 3.9376  22909.4  151.861
 3.9796  22880.5  151.226
 4.0216  23148.6  151.16
 4.0636  23011.4  152.17
 4.1056  22933.2  151.572
 4.1476  23373.7  153.308
 4.1896  23439.4  153.389
 4.2316  23508.1  153.431
 4.2736  23870  154.425
 4.3156  23941.1  154.881
 4.3576  24886.8  157.809
 4.3996  25039.6  158.376
 4.4416  25720.1  160.298
 4.4836  26114.4  161.694
 4.5256  26589.5  163.741
 4.5676  26561.3  163.92
 4.6096  27037  164.025
 4.6516  27419.9  164.893
 4.6936  27672.5  166.483
 4.7356  27594.2  166.071
 4.7776  27513  165.668
 4.8196  27422.2  166.024
 4.8616  26911.2  164.101
 4.9036  26885  163.604
 4.9456  26661.2  163.592
 4.9876  26148.9  161.908
 5.0296  26335  162.321
 5.0716  26109.6  162.25
 5.1136  26294.4  162.672
 5.1556  26516.6  162.832
 5.1976  27007.8  164.302
 5.2396  27117.9  164.336
 5.2816  27159.4  164.927
 5.3236  27186.5  164.721
 5.3656  26599.6  163.86
 5.4076  26364.6  163.27
 5.4496  26421.2  162.956
 5.4916  26730  163.649
 5.5336  26303.8  162.359
 5.5756  26759.2  163.742
 5.6176  26657.1  162.886
 5.6596  26873.8  164.521
 5.7016  26846.6  163.715
 5.7436  27025.8  164.536
 5.7856  26883.5  164.172
 5.8276  26951.7  164.105
 5.8696  27228  165.106
 5.9116  27029.3  165.074
 5.9536  27565.7  166.451
 5.9956  27675.7  166.197
 6.0376  27684  166.839
 6.0796  28117.4  167.97
 6.1216  27907.6  167.551
 6.1636  28139.2  167.287
 6.2056  27948.1  167.404
 6.2476  28337.1  168.427
 6.2896  28585.2  168.842
 6.3316  28454.9  168.613
 6.3736  28493  168.637
 6.4156  28721.7  169.185
 6.4576  28896.5  169.333
 6.4996  28636.8  169.061
 6.5416  28730.6  169.454
 6.5836  28731.1  169.699
 6.6256  28843.8  169.586
 6.6676  29587.9  171.317
 6.7096  29483.7  171.868
 6.7516  29762.4  172.347
 6.7936  29988.1  172.152
 6.8356  30017.8  172.588
 6.8776  30048.5  173.483
 6.9196  30227.3  174.383
 6.9616  30612.9  174.904
 7.0036  30950.6  175.562
 7.0456  30938  174.833
 7.0876  30842.9  176.221
 7.1296  30896.7  175.521
 7.1716  30848.3  174.913
 7.2136  30633.3  174.104
 7.2556  30856.6  174.89
 7.2976  30750.1  175.072
 7.3396  30574.6  174.804
 7.3816  30583.9  175.032
 7.4236  31012.6  175.558
 7.4656  31184.2  175.511
 7.5076  31257.7  175.87
 7.5496  30896.1  175.379
 7.5916  31145.9  176.131
 7.6336  31654.6  177.447
 7.6756  31799.5  177.708
 7.7176  32274.4  179.346
 7.7596  31981.3  179.729
 7.8016  32569  183.578
 7.8436  32029.8  178.817
 7.8856  32255.8  179.057
 7.9276  32675.5  180.607
 7.9696  32996.7  181.801
 8.0116  34143.3  183.857
 8.0536  34075  183.564
 8.0956  34115.9  184.836
 8.1376  34720.6  185.942
 8.1796  34952  187.095
 8.2216  35568.7  187.493
 8.2636  35530.6  187.64
 8.3056  35375.4  187.974
 8.3476  35770.7  188.368
 8.3896  35582.9  188.378
 8.4316  35899.2  188.952
 8.4736  36218.5  189.269
 8.5156  36048.3  189.095
 8.5576  35438  188.442
 8.5996  35353.3  187.114
 8.6416  35415.8  188.519
 8.6836  34889.9  186.937
 8.7256  35370.7  187.698
 8.7676  35117.6  189.833
 8.8096  35699.4  188.718
 8.8516  35425  187.566
 8.8936  34998.9  186.396
 8.9356  35648  188.432
 8.9776  35555.7  188.272
 9.0196  35412.6  187.564
 9.0616  34926.3  185.795
 9.1036  34399.2  185.522
 9.1456  34256.1  184.492
 9.1876  34727  185.69
 9.2296  34185.3  183.7
 9.2716  33965.4  183.134
 9.3136  34142.4  183.612
 9.3556  34295.8  184.001
 9.3976  33318.2  181.85
 9.4396  33507.7  182.288
 9.4816  33171.1  181.217
 9.5236  32684.3  179.791
 9.5656  32655.1  180.063
 9.6076  31876.4  178.423
 9.6496  32396.5  179.754
 9.6916  32090  178.854
 9.7336  32138.8  178.774
 9.7756  32051.5  179.897
 9.8176  31875.6  178.811
 9.8596  31856.5  177.234
 9.9016  31108.3  175.132
 9.9436  30993  174.733
 9.9856  30801.4  174.454
 10.0276  30538.9  174.762
 10.0696  30783.1  174.509
 10.1116  30001.4  172.546
 10.1536  29852.3  172.264
 10.1956  29375.8  170.511
 10.2376  29314.9  169.833
 10.2796  29203.3  169.627
 10.3216  28883.9  168.981
 10.3636  28723.8  168.538
 10.4056  28305.8  167.716
 10.4476  28521.3  167.948
 10.4896  28656  167.797
 10.5316  28000.5  166.596
 10.5736  28143.7  167.424
 10.6156  28097.6  167.02
 10.6576  27867.1  164.954
 10.6996  27439.6  164.367
 10.7416  27277.5  164.094
 10.7836  26967.5  163.822
 10.8256  26309.8  162.226
 10.8676  26373.1  161.972
 10.9096  26298.1  161.761
 10.9516  26079.5  160.059
 10.9936  25952.4  159.87
 11.0356  25593.5  159.364
 11.0776  25582.4  158.669
 11.1196  25125.6  157.998
 11.1616  25010.3  157.319
 11.2036  25211.1  157.796
 11.2456  25032  157.935
 11.2876  25330.2  158.584
 11.3296  24826.6  156.928
 11.3716  25192.2  157.758
 11.4136  25064.8  158.235
 11.4556  25070.6  157.921
 11.4976  25520.8  158.34
 11.5396  25695.4  159.061
 11.5816  25761.9  159.693
 11.6236  25369.3  158.913
 11.6656  25153.7  157.174
 11.7076  24299.9  155.303
 11.7496  24343.2  159.374
 11.7916  24112.7  153.986
 11.8336  23557.8  153.101
 11.8756  23444.8  152.264
 11.9176  23677.4  152.94
 11.9596  23631.2  152.706
 12.0016  23210.9  152.098
 12.0436  23670.4  153.041
 12.0856  23171.4  151.922
 12.1276  23267.4  152.189
 12.1696  23272.2  151.333
 12.2116  23312  151.478
 12.2536  23003.4  151.257
 12.2956  22952.9  150.46
 12.3376  23022.4  150.87
 12.3796  23093.6  151.587
 12.4216  23041.8  150.632
 12.4636  22741.8  150.56
 12.5056  22681.2  149.644
 12.5476  23176.2  150.795
 12.5896  22738  149.998
 12.6316  22988  150.942
 12.6736  22724.8  150.431
 12.7156  22966.2  151.199
 12.7576  22714.6  150.621
 12.7996  22900.3  149.912
 12.8416  22599  149.948
 12.8836  23135.9  151.54
 12.9256  23492.1  151.758
 12.9676  23260.9  151.412
 13.0096  23573.6  153.511
 13.0516  23567.4  152.547
 13.0936  23567.2  152.936
 13.1356  23839.8  152.794
 13.1776  23473.1  152.626
 13.2196  23686.4  152.958
 13.2616  23219.7  151.766
 13.3036  23653.4  153.131
 13.3456  23388.7  152.416
 13.3876  23709.9  152.924
 13.4296  23321.6  151.856
 13.4716  23644.2  152.528
 13.5136  23393.5  151.838
 13.5556  23185.5  151.793
 13.5976  23609  153.333
 13.6396  23445.3  152.178
 13.6816  23608.9  153.157
 13.7236  23827  153.447
 13.7656  25776.9  160.041
 13.8076  26217.8  160.092
 13.8496  25804.7  159.45
 13.8916  23883.7  154.535
 13.9336  23138.4  151.42
 13.9756  23035.9  150.48
 14.0176  22805.4  150.394
 14.0596  22927.4  150.717
 14.1016  22737.2  150.506
 14.1436  22765.9  149.737
 14.1856  22172.4  148.063
 14.2276  22165.6  148.504
 14.2696  22371.2  149.057
 14.3116  21800.1  147.063
 14.3536  21477.4  146.12
 14.3956  21499.6  145.927
 14.4376  21716.2  146.448
 14.4796  21549  145.885
 14.5216  21326.3  145.904
 14.5636  21098.8  144.703
 14.6056  21432.7  145.396
 14.6476  21148.5  143.698
 14.6896  20887.6  143.347
 14.7316  20515.7  143.077
 14.7736  20521.3  142.267
 14.8156  20283.7  141.449
 14.8576  20224.2  141.104
 14.8996  19884.2  141.074
 14.9416  19544.5  139.889
 14.9836  19503.9  139.727
 15.0256  18901.7  136.517
 15.0676  18980.6  137.105
 15.1096  18913.1  136.608
 15.1516  18396.9  135.273
 15.1936  18360.6  134.58
 15.2356  18434.6  135.122
 15.2776  18168.6  133.746
 15.3196  17806.1  133.367
 15.3616  17757.6  132.946
 15.4036  17754.1  132.798
 15.4456  17893.2  132.751
 15.4876  17549.7  131.392
 15.5296  17417.2  131.176
 15.5716  17299.4  130.339
 15.6136  17342.6  130.83
 15.6556  17315.9  129.983
 15.6976  17290.3  129.964
 15.7396  17083.2  129.765
 15.7816  17043.4  129.142
 15.8236  16696.7  128.489
 15.8656  16770.8  128.58
 15.9076  16550.6  127.56
 15.9496  17272.2  133.052
 15.9916  16946.6  132.165
 16.0336  17198.9  130.042
 16.0756  16765.1  128.74
 16.1176  16757.4  128.784
 16.1596  16437.6  128.703
 16.2016  16177.2  126.477
 16.2436  16313.8  127.377
 16.2856  16307.7  126.87
 16.3276  15963.7  125.952
 16.3696  16018.3  126.002
 16.4116  16032.4  126.476
 16.4536  16367.2  127.617
 16.4956  16114.5  126.359
 16.5376  16041.5  126.263
 16.5796  15917.3  125.153
 16.6216  15900.9  125.347
 16.6636  15743.9  124.923
 16.7056  15921.6  125.478
 16.7476  15659  124.127
 16.7896  15870.6  125.553
 16.8316  15699.8  124.857
 16.8736  15926.6  125.997
 16.9156  15836.3  125.966
 16.9576  15689.5  126.183
 16.9996  15557.9  126.098
 17.0416  15778.5  125.423
 17.0836  15569.2  124.341
 17.1256  15506  124.095
 17.1676  15466.7  123.896
 17.2096  15334  123.268
 17.2516  15375.7  123.229
 17.2936  15263.6  123.118
 17.3356  15079.5  122.349
 17.3776  15079.5  122.547
 17.4196  14984.4  121.874
 17.4616  15060.3  122.082
 17.5036  14636  120.72
 17.5456  14633.6  121.309
 17.5876  14771.5  120.949
 17.6296  14694.8  120.465
 17.6716  14425.1  119.922
 17.7136  14432.1  120.066
 17.7556  14358  120.058
 17.7976  14234  119.155
 17.8396  14162.2  118.491
 17.8816  14310.2  119.674
 17.9236  14223.9  119.097
 17.9656  14152.6  119.472
 18.0076  14270.2  119.383
 18.0496  14122.2  117.946
 18.0916  14170  118.663
 18.1336  13994  118.025
 18.1756  14437.4  119.442
 18.2176  14109.8  118.283
 18.2596  14114.9  118.044
 18.3016  14312.1  119.117
 18.3436  14415.8  119.788
 18.3856  14251.4  118.994
 18.4276  14077.9  117.965
 18.4696  14108.9  118.167
 18.5116  14068.6  118.276
 18.5536  14066.2  118.618
 18.5956  13811.9  117.117
 18.6376  13708.2  117.078
 18.6796  13835.3  116.941
 18.7216  13743  117.102
 18.7636  13769.8  117.143
 18.8056  13521.7  116
 18.8476  13387.8  115.758
 18.8896  13602.3  116.324
 18.9316  13529.5  115.838
 18.9736  13489  115.528
 19.0156  13466.7  115.83
 19.0576  13619.2  115.354
 19.0996  13528.5  115.678
 19.1416  13375.4  115.395
 19.1836  13429.3  115.251
 19.2256  13287.8  114.858
 19.2676  13364  115.273
 19.3096  13331.1  115.381
 19.3516  13354.7  115.434
 19.3936  13268.3  115.025
 19.4356  13354.7  115.207
 19.4776  13363.3  115.34
 19.5196  13522.9  115.873
 19.5616  13218.6  114.824
 19.6036  13396.4  114.963
 19.6456  13412.4  115.279
 19.6876  13308  114.486
 19.7296  13513.2  115.798
 19.7716  13365.3  115.203
 19.8136  13634.5  116.683
 19.8556  13593.1  116.012
 19.8976  13518.4  115.749
 19.9396  13628.7  115.816
 19.9816  13796.6  116.777
 20.0236  13940.3  117.561
 20.0656  14075.8  118.142
 20.1076  14041.2  118.456
 20.1496  13728  117.139
 20.1916  13669.4  116.395
 20.2336  13459.6  115.433
 20.2756  13104.4  114.321
 20.3176  13032.1  113.766
 20.3596  13006.8  113.644
 20.4016  13025.4  113.521
 20.4436  12932  113.677
 20.4856  13063.5  114.028
 20.5276  12795.4  113.314
 20.5696  12935.1  113.374
 20.6116  12753.9  112.865
 20.6536  12614.5  111.829
 20.6956  12677.2  112.172
 20.7376  12511.8  111.654
 20.7796  12717.1  112.25
 20.8216  12722.9  111.999
 20.8636  12692  112.225
 20.9056  12728.7  112.331
 20.9476  12713.8  112.102
 20.9896  12704.9  111.951
 21.0316  12637.1  111.554
 21.0736  12814.8  112.838
 21.1156  12516  111.684
 21.1576  12586.2  112.026
 21.1996  12478.3  111.531
 21.2416  12648.9  112.098
 21.2836  12652.2  112.112
 21.3256  12548.1  111.714
 21.3676  12657.1  111.738
 21.4096  12376  110.814
 21.4516  12560.4  111.509
 21.4936  12167.3  110.013
 21.5356  12438.7  111.179
 21.5776  12478.2  111.188
 21.6196  12217.7  110.059
 21.6616  12153.1  109.85
 21.7036  12314  110.343
 21.7456  12455.2  111.064
 21.7876  12236  109.846
 21.8296  12111.4  109.131
 21.8716  12251.6  109.983
 21.9136  12255.6  110.208
 21.9556  12175.5  109.523
 21.9976  12049.9  108.987
 22.0396  12073.6  109.342
 22.0816  12114.5  110.041
 22.1236  12260.3  110.17
 22.1656  12051.7  109.429
 22.2076  11921.5  108.27
 22.2496  11918.3  108.283
 22.2916  11953.8  108.332
 22.3336  11994.2  109.194
 22.3756  11828.1  108.186
 22.4176  11809.1  107.949
 22.4596  11656.8  107.825
 22.5016  11772.1  107.882
 22.5436  11969.1  108.651
 22.5856  12116.9  109.567
 22.6276  12437.7  111.143
 22.6696  11845.9  108.813
 22.7116  11958  108.852
 22.7536  11839.3  108.281
 22.7956  11821.2  107.554
 22.8376  11738.8  107.674
 22.8796  11837.8  107.94
 22.9216  11989.7  109.159
 22.9636  11873.5  107.807
 23.0056  11789.2  107.554
 23.0476  12010  109.116
 23.0896  12118.8  109
 23.1316  12012.6  108.947
 23.1736  11969.5  111.615
 23.2156  12510.9  111.407
 23.2576  12426.3  111.224
 23.2996  12180.6  109.911
 23.3416  12389.1  111.363
 23.3836  12161.5  109.57
 23.4256  12417.1  110.838
 23.4676  12276.6  109.917
 23.5096  12156  110.03
 23.5516  12281.2  109.886
 23.5936  12236.6  110.593
 23.6356  12391.1  110.954
 23.6776  12177  110.524
 23.7196  12058.4  109.248
 23.7616  12018  108.985
 23.8036  12222.1  109.955
 23.8456  11976.9  108.416
 23.8876  11993.8  108.834
 23.9296  11737  108.147
 23.9716  11999.4  108.562
 24.0136  11970  109.315
 24.0556  11834.1  108.409
 24.0976  11710.2  107.669
 24.1396  11700.8  110.202
 24.1816  11862.5  109.733
 24.2236  11798.4  108.733
 24.2656  11667.9  107.616
 24.3076  11563.4  107.399
 24.3496  11609.4  107.502
 24.3916  11639.5  107.684
 24.4336  11608.5  107.744
 24.4756  11753.5  108.297
 24.5176  11432.7  106.437
 24.5596  11449.2  106.644
 24.6016  11253.7  106.017
 24.6436  11494.1  106.646
 24.6856  11530.8  106.569
 24.7276  11234.7  105.525
 24.7696  11343.3  106.12
 24.8116  11062  104.98
 24.8536  10959.1  104.49
 24.8956  11075.2  104.777
 24.9376  11048.2  104.586
 24.9796  10998.2  104.702
 25.0216  10906.3  104.362
 25.0636  11027.6  104.612
 25.1056  10850  104.203
 25.1476  10925.8  106.442
 25.1896  10874.4  104.714
 25.2316  10756  103.319
 25.2736  10862.5  103.605
 25.3156  10799.2  103.362
 25.3576  10753  103.573
 25.3996  10771.6  103.646
 25.4416  10682.3  103.195
 25.4836  10627.8  103.437
 25.5256  10615.8  102.754
 25.5676  10579.4  102.322
 25.6096  10377.1  101.895
 25.6516  10612.1  102.563
 25.6936  10747.9  103.512
 25.7356  10606.5  102.963
 25.7776  10621.3  102.639
 25.8196  10404.6  101.826
 25.8616  10521.6  102.333
 25.9036  10694.5  102.632
 25.9456  10478.8  102.18
 25.9876  10510.5  102.386
 26.0296  10584.7  102.366
 26.0716  10451.6  102.042
 26.1136  10415.8  101.802
 26.1556  10596.2  101.991
 26.1976  10288.1  101.485
 26.2396  10392.6  101.423
 26.2816  10457.8  102.091
 26.3236  10392.1  101.845
 26.3656  10598.7  102.642
 26.4076  10531.5  102.523
 26.4496  10565.2  102.286
 26.4916  10741.8  103.04
 26.5336  11017.8  104.698
 26.5756  11088.7  104.915
 26.6176  10596.3  102.589
 26.6596  10484.9  102.341
 26.7016  10369.2  101.591
 26.7436  10497.1  102.293
 26.7856  10215.6  100.904
 26.8276  10336.4  101.461
 26.8696  10342.6  101.368
 26.9116  10196.9  100.585
 26.9536  10157.6  100.437
 26.9956  10093.5  100.163
 27.0376  10160.7  100.699
 27.0796  10158.9  100.473
 27.1216  10086.9  100.126
 27.1636  9933.44  99.5292
 27.2056  10072.5  100.117
 27.2476  9935.37  99.4291
 27.2896  9875.35  99.1684
 27.3316  10099.6  100.073
 27.3736  9878.01  99.2439
 27.4156  9987.97  99.6228
 27.4576  9958.85  99.6945
 27.4996  10027.2  99.6478
 27.5416  9934.15  99.4862
 27.5836  10001.3  99.6692
 27.6256  9972.49  99.7004
 27.6676  9828.14  98.9738
 27.7096  9955.91  99.4935
 27.7516  9777.18  98.7495
 27.7936  10204  101.005
 27.8356  10064.2  99.9322
 27.8776  10095.7  100.145
 27.9196  9704.11  98.0581
 27.9616  9872.31  99.1021
 28.0036  9725.6  98.325
 28.0456  9698.77  98.3313
 28.0876  9682.15  98.326
 28.1296  9675.37  98.1297
 28.1716  9807.12  98.8065
 28.2136  9765.93  98.5684
 28.2556  9649.39  98.0887
 28.2976  9569.55  97.683
 28.3396  9645.07  97.8688
 28.3816  9669.32  97.9576
 28.4236  9602.05  97.7794
 28.4656  9482.63  97.2016
 28.5076  9579.65  97.343
 28.5496  9590.28  97.6513
 28.5916  9616.03  97.5979
 28.6336  9535.73  97.5141
 28.6756  9545.74  96.7887
 28.7176  9489.19  97.0445
 28.7596  9445.85  96.7174
 28.8016  9339.73  96.2936
 28.8436  9396.88  96.7305
 28.8856  9503.49  97.1394
 28.9276  9403.81  96.8654
 28.9696  9335.2  96.1766
 29.0116  9443.73  96.9087
 29.0536  9290.79  96.3261
 29.0956  9363.88  96.4219
 29.1376  9395.01  96.5529
 29.1796  9403.99  96.6412
 29.2216  9344.89  96.1798
 29.2636  9399.76  96.4512
 29.3056  9285.37  95.7319
 29.3476  9350.56  96.5907
 29.3896  9334.02  96.6177
 29.4316  9122.96  94.8832
 29.4736  9117.36  94.9103
 29.5156  9130.91  94.9094
 29.5576  9084.86  95.392
 29.5996  9188.95  95.2092
 29.6416  9157.25  95.1628
 29.6836  9164.03  95.1259
 29.7256  9080.01  95.2385
 29.7676  9051.08  94.7543
 29.8096  9086.55  94.8878
 29.8516  8911.89  94.2899
 29.8936  9029.1  95.0012
 29.9356  9007.67  94.6506
 29.9776  8874.27  94.0889
 30.0196  9034.04  94.3457
 30.0616  9101.48  95.0599
 30.1036  9046.06  94.6038
 30.1456  8906.74  94.1139
 30.1876  9000.46  94.5697
 30.2296  8902.41  93.9978
 30.2716  9035.95  94.3487
 30.3136  8991.5  94.6929
 30.3556  9317.18  96.6424
 30.3976  9020.56  96.5491
 30.4396  9401.02  95.9178
 30.4816  9150.62  94.2583
 30.5236  9284.07  94.9167
 30.5656  9130.58  94.8032
 30.6076  9157.53  94.367
 30.6496  9146.92  94.7138
 30.6916  8917.83  93.6009
 30.7336  8985.32  94.1118
 30.7756  9014.89  94.563
 30.8176  9154.09  94.9877
 30.8596  9198.03  94.9611
 30.9016  9172.16  95.1799
 30.9436  9090  94.5293
 30.9856  9240.82  95.3873
 31.0276  9051.14  94.0637
 31.0696  9028.21  94.3616
 31.1116  8860.1  93.5713
 31.1536  8826.65  93.2937
 31.1956  8879.15  93.6549
 31.2376  8809.37  93.3156
 31.2796  9061.39  94.1755
 31.3216  8947.47  93.4939
 31.3636  9010.39  94.5388
 31.4056  9058.47  96.0856
 31.4476  9097.81  94.2161
 31.4896  9112.56  94.7942
 31.5316  8969.5  93.4987
 31.5736  9120.27  94.0773
 31.6156  9013.39  93.5267
 31.6576  9099.06  94.0471
 31.6996  9094.3  93.689
 31.7416  8920.85  93.8686
 31.7836  9019.97  93.4009
 31.8256  8883.56  93.0316
 31.8676  9032.46  93.7063
 31.9096  8909.27  93.4377
 31.9516  8838.58  93.2373
 31.9936  8809.4  92.9194
 32.0356  8942.17  93.6624
 32.0776  8972.85  93.7079
 32.1196  9001.92  93.9694
 32.1616  9013.33  93.4775
 32.2036  8976.51  93.786
 32.2456  8889.9  93.6995
 32.2876  8892.22  93.0797
 32.3296  8741.97  92.4062
 32.3716  8688.6  92.2446
 32.4136  8692.86  92.4567
 32.4556  8741.6  92.1636
 32.4976  8711.63  91.8715
 32.5396  8666.2  91.6919
 32.5816  8686.11  91.8199
 32.6236  8733.91  92.2295
 32.6656  8726.07  92.7215
 32.7076  8644.98  91.9577
 32.7496  8634.77  91.5919
 32.7916  8602.76  91.3764
 32.8336  8674.06  91.8504
 32.8756  8773.52  92.1746
 32.9176  8522.05  91.2345
 32.9596  8552.15  91.4609
 33.0016  8520.16  91.076
 33.0436  8642.89  91.8985
 33.0856  8575.28  91.6343
 33.1276  8365.29  90.2487
 33.1696  8560.58  91.1109
 33.2116  8562.72  91.3729
 33.2536  8716.25  92.1646
 33.2956  8534.59  91.2861
 33.3376  8632.09  91.5114
 33.3796  8578.66  91.4845
 33.4216  8501.62  90.6686
 33.4636  8545.26  91.0557
 33.5056  8407.02  90.4049
 33.5476  8633.33  91.7337
 33.5896  8596.56  91.3224
 33.6316  8516.02  91.2097
 33.6736  8357.1  90.6072
 33.7156  8386.3  90.7932
 33.7576  8517.01  91.1502
 33.7996  8485.23  90.7491
 33.8416  8326.1  90.0684
 33.8836  8295.96  89.6902
 33.9256  8497.15  90.8166
 33.9676  8402.89  90.2156
 34.0096  8363.7  90.3064
 34.0516  8332.13  89.7884
 34.0936  8299.61  89.8779
 34.1356  8447.19  90.4215
 34.1776  8256.27  89.3946
 34.2196  8320.22  89.9194
 34.2616  8264.01  89.8092
 34.3036  8403.62  90.7366
 34.3456  8357.71  90.2542
 34.3876  8413.74  90.5227
 34.4296  8281.5  89.5129
 34.4716  8444.33  90.5384
 34.5136  8358.16  90.262
 34.5556  8197.35  89.6501
 34.5976  8311.55  90.074
 34.6396  8212.33  89.2494
 34.6816  8354.65  90.1223
 34.7236  8300.29  89.6118
 34.7656  8325.8  89.9624
 34.8076  8166.58  89.4213
 34.8496  8193.94  89.4278
 34.8916  8273.09  89.718
 34.9336  8271.6  89.6972
 34.9756  8311.46  89.8302
 35.0176  8322.9  90.4102
 35.0596  8425.88  90.7811
 35.1016  8349.13  90.1381
 35.1436  8456.24  90.4053
 35.1856  8272.78  89.5439
 35.2276  8192.32  89.2832
 35.2696  8248.98  89.7589
 35.3116  8185.28  89.529
 35.3536  8115.75  88.847
 35.3956  8174.54  88.8885
 35.4376  8247.07  89.8338
 35.4796  8173.9  89.4805
 35.5216  8193.2  89.467
 35.5636  7960.7  88.9977
 35.6056  8084.5  88.7264
 35.6476  8131.64  88.8808
 35.6896  8181.71  89.3239
 35.7316  8071.09  88.6158
 35.7736  8200.63  89.5178
 35.8156  8113.93  89.0393
 35.8576  8167.24  89.5624
 35.8996  8142.72  89.4039
 35.9416  8110.58  88.7482
 35.9836  8137.24  89.2258
 36.0256  8300.14  90.1163
 36.0676  8294.78  89.6288
 36.1096  8116.81  89.0277
 36.1516  8258.85  89.7024
 36.1936  8175.25  89.0842
 36.2356  8092.17  89.2795
 36.2776  8021.96  88.3859
 36.3196  8114.38  88.5624
 36.3616  8120.5  88.7265
 36.4036  8031.44  88.3039
 36.4456  8068.83  88.7109
 36.4876  7999.32  88.2646
 36.5296  7986.66  88.2438
 36.5716  8103.14  89.65
 36.6136  7796.3  86.7726
 36.6556  7845.58  87.2362
 36.6976  7878.01  87.9044
 36.7396  7917.01  87.9429
 36.7816  7709.04  87.0588
 36.8236  7801.54  87.5091
 36.8656  7710.95  87.0481
 36.9076  7745.81  87.2649
 36.9496  7650.07  86.7379
 36.9916  7775.09  86.9296
 37.0336  7819.47  87.4878
 37.0756  7648.39  86.3266
 37.1176  7727.7  87.12
 37.1596  7713.43  86.9602
 37.2016  7569.26  86.3173
 37.2436  7738.32  86.6549
 37.2856  7747.79  86.955
 37.3276  7813.32  86.6924
 37.3696  7621.73  86.4719
 37.4116  7717.58  86.9233
 37.4536  7712.61  86.7638
 37.4956  7646.7  86.4413
 37.5376  7902.4  89.4228
 37.5796  7763.01  88.568
 37.6216  7751.28  86.7915
 37.6636  7854.2  87.2483
 37.7056  7710.14  86.6426
 37.7476  7852.22  86.9739
 37.7896  7758.57  86.9667
 37.8316  7729.32  86.9286
 37.8736  7674.2  86.165
 37.9156  7918.17  87.5294
 37.9576  7700.28  86.3759
 37.9996  7777.81  86.3807
 38.0416  7666.76  86.5496
 38.0836  7834.95  87.3933
 38.1256  7816.67  87.2694
 38.1676  7615.67  86.2541
 38.2096  7742.44  86.5836
 38.2516  7921.98  87.7206
 38.2936  7852.51  87.2113
 38.3356  7774.85  86.728
 38.3776  7615.07  86.0658
 38.4196  7664.39  86.2129
 38.4616  7628.74  86.2488
 38.5036  7917.67  87.7054
 38.5456  7629.77  86.9169
 38.5876  7634.74  86.98
 38.6296  7697.31  86.3019
 38.6716  7699.14  86.136
 38.7136  7720.36  86.1983
 38.7556  7593.84  85.9839
 38.7976  7716.03  86.5887
 38.8396  7767.98  87.3467
 38.8816  7525.09  85.7694
 38.9236  7710.08  86.6167
 38.9656  7691.95  86.4246
 39.0076  7754.96  86.1915
 39.0496  7799.33  86.9793
 39.0916  7733.05  86.2677
 39.1336  7604.12  85.9458
 39.1756  7757.41  86.873
 39.2176  7565.64  86.3182
 39.2596  7708.4  87.0511
 39.3016  7695.93  86.5697
 39.3436  7672.08  86.8336
 39.3856  7690  86.371
 39.4276  7843.78  87.7503
 39.4696  7742.63  86.8157
 39.5116  7723.2  87.2033
 39.5536  7766.2  87.8596
 39.5956  7659.53  86.3921
 39.6376  7684.72  86.3698
 39.6796  7659.41  86.1426
 39.7216  7641.95  86.1363
 39.7636  7695.01  86.9861
 39.8056  7660.01  86.58
 39.8476  7495.82  85.8994
 39.8896  7758.29  87.0128
 39.9316  7592.37  86.3321
 39.9736  7663  86.3165
 40.0156  7670.26  86.1875
 40.0576  7567.44  85.9528
 40.0996  7823.86  86.5897
 40.1416  7731.1  86.8537
 40.1836  7754.47  86.8748
 40.2256  7679.15  86.4853
 40.2676  7644.29  86.3934
 40.3096  7660.97  86.4221
 40.3516  7641.63  86.4985
 40.3936  7688.42  86.2452
 40.4356  7636.13  86.1586
 40.4776  7726.91  87.0654
 40.5196  7597.35  86.4541
 40.5616  7746.74  86.9402
 40.6036  7648.09  86.6415
 40.6456  7632.12  86.1683
 40.6876  7733.13  86.7305
 40.7296  7572.41  85.9618
 40.7716  7612.45  86.289
 40.8136  7550.28  85.8976
 40.8556  7655.24  86.613
 40.8976  7754.59  87.0997
 40.9396  7640.98  86.793
 40.9816  7807.54  87.0333
 41.0236  7697.96  86.2152
 41.0656  7771.88  87.1586
 41.1076  7635.59  86.1641
 41.1496  7766.07  86.8024
 41.1916  7658.52  86.5271
 41.2336  7694.03  86.7096
 41.2756  7607.35  85.8377
 41.3176  7705.69  86.9788
 41.3596  7742.81  86.9436
 41.4016  7552.55  86.1217
 41.4436  7620.61  86.2943
 41.4856  7630.17  86.5194
 41.5276  7636.37  86.5629
 41.5696  7777.96  86.9834
 41.6116  7695.41  86.9081
 41.6536  7684.69  86.7148
 41.6956  7753.62  87.1593
 41.7376  7671.49  86.7245
 41.7796  7590.15  86.2049
 41.8216  7666.19  86.8007
 41.8636  7554.06  86.1245
 41.9056  7610.58  86.2384
 41.9476  7672.8  86.8242
 41.9896  7726.03  86.7849
 42.0316  7670.44  86.563
 42.0736  7742.81  87.0628
 42.1156  7711.29  86.7248
 42.1576  7597.31  86.1995
 42.1996  7809.32  87.5136
 42.2416  7568.01  85.7552
 42.2836  7649.71  86.3282
 42.3256  7675.46  86.5761
 42.3676  7726.67  86.6644
 42.4096  7654.97  86.2385
 42.4516  7657.13  86.3197
 42.4936  7589.65  86.0185
 42.5356  7514.64  85.7412
 42.5776  7678.95  86.5997
 42.6196  7656.43  86.4538
 42.6616  7394.49  85.2025
 42.7036  7666.09  86.14
 42.7456  7578.46  85.9907
 42.7876  7640.08  86.4266
 42.8296  7559.65  85.8717
 42.8716  7485.03  85.5589
 42.9136  7589.07  85.9355
 42.9556  7621.04  86.2484
 42.9976  7700.96  86.6731
 43.0396  7493.07  85.2243
 43.0816  7455.79  85.3913
 43.1236  7466.5  85.5052
 43.1656  7457.56  85.2785
 43.2076  7494.95  85.5951
 43.2496  7475.6  85.3127
 43.2916  7459.82  85.5767
 43.3336  7525.98  85.7934
 43.3756  7471.53  85.2435
 43.4176  7403.6  84.9386
 43.4596  7468.33  85.1599
 43.5016  7492  85.689
 43.5436  7485.21  85.5629
 43.5856  7459.41  85.4422
 43.6276  7461.99  85.3471
 43.6696  7420.18  85.2539
 43.7116  7538.44  85.5476
 43.7536  7511.92  85.8838
 43.7956  7250.11  85.5453
 43.8376  7408.41  85.041
 43.8796  7339.99  84.7235
 43.9216  7333.45  84.6074
 43.9636  7274.62  84.3706
 44.0056  7270.99  84.5773
 44.0476  7293.76  84.3456
 44.0896  7316.92  84.8199
 44.1316  7339.04  84.6229
 44.1736  7276.41  84.2421
 44.2156  7394.75  84.781
 44.2576  7209.21  84.0259
 44.2996  7336.3  84.7397
 44.3416  7381.87  84.7541
 44.3836  7242.36  84.2762
 44.4256  7132.92  83.2847
 44.4676  7096.37  83.2273
 44.5096  7337.09  84.772
 44.5516  7264.88  84.3196
 44.5936  7107.04  83.3522
 44.6356  7181.56  83.5303
 44.6776  7249.56  84.2372
 44.7196  7184.32  84.1221
 44.7616  7281.45  86.0233
 44.8036  7256.04  84.3173
 44.8456  7395.14  85.3167
 44.8876  7394.18  85.1514
 44.9296  7480.28  85.1029
 44.9716  7451.25  85.3528
 45.0136  7365.34  84.8096
 45.0556  7480  85.4371
 45.0976  7398.5  85.1373
 45.1396  7255.96  84.0642
 45.1816  7367.08  84.4838
 45.2236  7412.17  84.8171
 45.2656  7271.12  84.4873
 45.3076  7252.82  84.1659
 45.3496  7182.85  84.0756
 45.3916  7310.08  85.0767
 45.4336  7426.18  85.5923
 45.4756  7313.83  84.7977
 45.5176  7364.58  84.708
 45.5596  7315.09  84.5469
 45.6016  7248.73  84.5804
 45.6436  7391.69  84.586
 45.6856  7303.3  84.7181
 45.7276  7214.82  86.0324
 45.7696  7212.52  85.1903
 45.8116  7300.03  85.1502
 45.8536  7269.21  84.8568
 45.8956  7290.11  84.345
 45.9376  7283.2  83.765
 45.9796  7396.5  85.1112
 46.0216  7320.78  84.98
 46.0636  7428.96  84.7651
 46.1056  7350.61  84.3149
 46.1476  7409.21  85.2381
 46.1896  7185.12  84.0941
 46.2316  7386.43  85.129
 46.2736  7089.61  83.7693
 46.3156  7319.66  84.704
 46.3576  7180.95  84.0944
 46.3996  7288.52  84.8782
 46.4416  7303.49  84.5414
 46.4836  7148.4  83.9957
 46.5256  7213.14  84.3173
 46.5676  7116.09  83.852
 46.6096  7211.71  84.3398
 46.6516  7263.52  83.7033
 46.6936  7258.45  84.1705
 46.7356  7414.09  85.1605
 46.7776  7127.75  84.3418
 46.8196  7162.22  84.1425
 46.8616  7088.12  83.6602
 46.9036  7091.36  83.3451
 46.9456  7143.85  83.2885
 46.9876  7157.94  83.4553
 47.0296  7210.43  84.4473
 47.0716  7125.09  83.766
 47.1136  7227.52  84.041
 47.1556  7058.03  82.9316
 47.1976  7223.31  83.9649
 47.2396  7158.82  83.9943
 47.2816  7148.01  83.6393
 47.3236  7128.14  83.8797
 47.3656  7239.18  84.4703
 47.4076  7066.94  83.2556
 47.4496  7144.14  83.7961
 47.4916  7040.52  83.3706
 47.5336  7171.26  83.9669
 47.5756  7145.36  83.89
 47.6176  7078.97  83.4462
 47.6596  7068.63  83.1037
 47.7016  7270.13  84.0918
 47.7436  7154.55  83.7535
 47.7856  7146.57  83.7257
 47.8276  7156.3  83.851
 47.8696  7165.1  83.9638
 47.9116  7260.99  84.2484
 47.9536  7164.64  83.6326
 47.9956  7063.48  83.7409
 48.0376  7056.81  83.4831
 48.0796  7180.46  84.3337
 48.1216  7145.02  83.9513
 48.1636  7286.03  84.3328
 48.2056  7183.03  84.0069
 48.2476  7259.98  84.7572
 48.2896  7200.04  84.316
 48.3316  7287.4  84.7766
 48.3736  7118.52  83.8072
 48.4156  7107.29  83.5998
 48.4576  7086.65  83.7671
 48.4996  7301.72  84.4825
 48.5416  7149.86  83.9145
 48.5836  7051.24  83.0204
 48.6256  7188.53  84.0238
 48.6676  7180.08  84.4951
 48.7096  7178.62  83.7576
 48.7516  7040.79  83.0953
 48.7936  7059.4  83.2754
 48.8356  7154.59  83.873
 48.8776  7064.55  83.8399
 48.9196  7244.83  84.3393
 48.9616  7198.82  84.4626
 49.0036  7187.56  84.7394
 49.0456  7072.88  84.0502
 49.0876  7180.28  84.3176
 49.1296  6974.95  83.1646
 49.1716  6991.17  83.1322
 49.2136  7191.61  84.2396
 49.2556  7147.79  84.015
 49.2976  7068.67  83.6086
 49.3396  6986.35  83.1874
 49.3816  7217.76  83.9657
 49.4236  7143.03  83.9692
 49.4656  6975.53  83.0009
 49.5076  7104.77  83.5099
 49.5496  7099.59  83.4271
 49.5916  7099.36  83.4595
 49.6336  7062.34  83.4536
 49.6756  7137.17  84.1138
 49.7176  6968.7  83.0626
 49.7596  7121.88  83.907
 49.8016  7125.89  83.6734
 49.8436  7048.4  83.5266
 49.8856  7059.68  83.5895
 49.9276  6967.65  83.1517
 49.9696  7098.3  83.9027
 50.0116  7131.53  84.1981
 50.0536  7060.96  83.7611
 50.0956  7001.44  83.4766
 50.1376  7071.65  83.5783
 50.1796  6944.22  83.1059
 50.2216  7036.03  83.6521
 50.2636  6970.4  82.8682
 50.3056  6950.21  82.9351
 50.3476  6996.22  83.2284
 50.3896  6973.09  83.0634
 50.4316  6996.36  83.0299
 50.4736  6922.31  82.8112
 50.5156  6981.74  83.1494
 50.5576  7074.44  83.4477
 50.5996  6995.72  83.2794
 50.6416  6931.92  82.8187
 50.6836  7034.14  83.4923
 50.7256  7071.16  83.6389
 50.7676  7068.6  83.8957
 50.8096  7014.77  83.1593
 50.8516  6910.15  82.9523
 50.8936  6901.01  82.6829
 50.9356  7033.27  83.5736
 50.9776  6933.5  83.1398
 51.0196  6842.18  82.7276
 51.0616  6890.21  82.3459
 51.1036  6930.68  82.9417
 51.1456  6914.57  82.7602
 51.1876  6870.47  81.8087
 51.2296  6813.94  82.1294
 51.2716  6746.54  81.4276
 51.3136  6784.74  82.1199
 51.3556  6848.53  82.1172
 51.3976  6757.52  81.7224
 51.4396  6635.67  81.2949
 51.4816  6753.36  81.8612
 51.5236  6746.14  81.909
 51.5656  6833.11  82.0265
 51.6076  6859.29  82.2733
 51.6496  6746.07  81.7751
 51.6916  6821.38  82.5989
 51.7336  6708.24  81.9955
 51.7756  6801.35  82.256
 51.8176  6687.65  81.662
 51.8596  6642.32  81.4144
 51.9016  6879.35  82.4576
 51.9436  6813.47  83.5423
 51.9856  6848.85  84.153
 52.0276  6901.32  82.9616
 52.0696  6908.59  83.0679
 52.1116  6700.08  81.9396
 52.1536  6892.87  82.9766
 52.1956  6778.54  81.7599
 52.2376  7011.06  83.3217
 52.2796  6990.1  83.017
 52.3216  6857.64  82.9152
 52.3636  6780.14  82.0045
 52.4056  6797.37  81.9847
 52.4476  6763.89  82.1461
 52.4896  6697.44  81.7766
 52.5316  6886.88  82.9886
 52.5736  6673.4  81.4164
 52.6156  6866.88  82.9805
 52.6576  6805.59  82.0472
 52.6996  6551.69  81.4686
 52.7416  6686.47  82.169
 52.7836  6717.34  82.2436
 52.8256  6775.3  81.8051
 52.8676  6668.41  81.7342
 52.9096  6809.97  82.6577
 52.9516  6754.19  82.7205
 52.9936  6714.62  82.8554
 53.0356  6787.37  82.2981
 53.0776  6871.33  83.1028
 53.1196  6806.34  82.8125
 53.1616  6750.97  82.5195
 53.2036  6677.68  82.039
 53.2456  6701.54  82.2916
 53.2876  6745.84  82.2513
 53.3296  6769.06  82.7135
 53.3716  6847.73  82.9384
 53.4136  6778.56  82.6814
 53.4556  6721.87  82.3549
 53.4976  6664.67  81.848
 53.5396  6723.6  82.6235
 53.5816  6797.92  82.7017
 53.6236  6671.1  82.2791
 53.6656  6753.61  82.3653
 53.7076  6805.29  82.6546
 53.7496  6877.17  83.2148
 53.7916  6657.08  82.0227
 53.8336  6783.99  82.6868
 53.8756  6646.14  82.3792
 53.9176  6613.46  81.5428
 53.9596  6550.32  81.9084
 54.0016  6392.72  80.2545
 54.0436  6376.35  80.3756
 54.0856  6535.71  80.7918
 54.1276  6501.53  80.7703
 54.1696  6421.87  80.436
 54.2116  6580.49  81.1619
 54.2536  6470.26  80.3231
 54.2956  6475.4  80.4101
 54.3376  6443.19  80.6819
 54.3796  6360.52  80.0625
 54.4216  6599.6  81.609
 54.4636  6395.04  80.2955
 54.5056  6398.88  80.1088
 54.5476  6370.63  80.2888
 54.5896  6443.46  80.5805
 54.6316  6468.72  80.5786
 54.6736  6420.65  80.3284
 54.7156  6389.05  80.1872
 54.7576  6348.58  79.9186
 54.7996  6383.91  80.2952
 54.8416  6380.12  80.3227
 54.8836  6436.88  80.7555
 54.9256  6397.02  80.2981
 54.9676  6327.43  79.7205
 55.0096  6413.99  80.2786
 55.0516  6244.7  79.4017
 55.0936  6300.53  79.4831
 55.1356  6290.67  79.4651
 55.1776  6433.76  80.5842
 55.2196  6308.38  79.6006
 55.2616  6513.89  81.0878
 55.3036  6281.74  79.8122
 55.3456  6171.32  79.2617
 55.3876  6354.51  80.1388
 55.4296  6215.92  79.2782
 55.4716  6264.63  79.6078
 55.5136  6282.89  79.4795
 55.5556  6377.22  80.1259
 55.5976  6234.52  79.3128
 55.6396  6410.31  80.3486
 55.6816  6242.05  79.1564
 55.7236  6234.79  79.2854
 55.7656  6263.3  79.0815
 55.8076  6168.94  78.5042
 55.8496  6287.5  79.5477
 55.8916  6289.15  79.7237
 55.9336  6337.22  79.8868
 55.9756  6249.76  79.2255
 56.0176  6233.07  79.2683
 56.0596  6186.94  78.9748
 56.1016  6174.12  78.9514
 56.1436  6152.19  79.031
 56.1856  6130.9  78.6495
 56.2276  6242.31  79.3927
 56.2696  6132.88  78.6823
 56.3116  6270.94  79.9301
 56.3536  6163.86  78.9079
 56.3956  6261.64  79.5391
 56.4376  6187.68  79.1163
 56.4796  6055.73  78.0792
 56.5216  6118.76  78.8533
 56.5636  6084.47  78.2137
 56.6056  6150.72  78.8417
 56.6476  6114.79  78.2469
 56.6896  6283.02  79.7574
 56.7316  6112.28  78.6112
 56.7736  6115.87  78.6204
 56.8156  6065.05  78.3189
 56.8576  5955.39  77.5422
 56.8996  6003.58  77.7624
 56.9416  6034.51  78.1489
 56.9836  6213.85  78.9502
 57.0256  6053.13  78.229
 57.0676  6248.48  79.5757
 57.1096  6093.48  78.3769
 57.1516  6030.02  78.0079
 57.1936  6147.09  78.5435
 57.2356  6045.73  78.2251
 57.2776  6125.22  78.7067
 57.3196  6061.05  78.6248
 57.3616  6086.49  78.2855
 57.4036  6089.11  78.3644
 57.4456  6131.02  78.6189
 57.4876  6097.95  78.2818
 57.5296  5962.16  77.6345
 57.5716  5947.98  77.6406
 57.6136  5925.58  77.331
 57.6556  6138.03  78.8226
 57.6976  6041.17  78.0363
 57.7396  6028.37  78.2817
 57.7816  5921.72  77.9664
 57.8236  5928.7  77.7964
 57.8656  5998.17  77.9288
 57.9076  5956.85  77.6719
 57.9496  5851.91  77.3347
 57.9916  5964.09  77.5537
 58.0336  5874.59  77.2856
 58.0756  6098.17  78.3699
 58.1176  5994.06  77.7086
 58.1596  5891.47  77.6185
 58.2016  5752.54  75.968
 58.2436  5856.04  77.0286
 58.2856  5720.5  76.0575
 58.3276  5679.85  76.1404
 58.3696  5713.6  76.1392
 58.4116  5725.5  76.0832
 58.4536  5696.75  75.7817
 58.4956  5761.62  76.3873
 58.5376  5777.89  76.0695
 58.5796  5759.75  76.3674
 58.6216  5721.86  75.939
 58.6636  5763.46  76.417
 58.7056  5735.52  76.0975
 58.7476  5590.56  75.5525
 58.7896  5701.97  75.9613
 58.8316  5832.1  76.8203
 58.8736  5890.73  77.2161
 58.9156  5612.93  75.4158
 58.9576  5641.9  75.8132
 58.9996  5777.37  76.0952
 59.0416  5783.1  76.4822
 59.0836  5758.45  76.2409
 59.1256  5636.93  75.8139
 59.1676  5822.81  77.6602
 59.2096  5720.56  76.29
 59.2516  5813.01  76.4929
 59.2936  5670.8  75.8694
 59.3356  5628.26  75.4663
 59.3776  5574.49  75.2673
 59.4196  5672.33  75.8627
 59.4616  5574.96  75.0744
 59.5036  5705.35  75.9807
 59.5456  5802.13  76.3228
 59.5876  5655.8  75.5392
 59.6296  5655.68  75.6053
 59.6716  5491.19  74.5531
 59.7136  5711.25  76.0208
 59.7556  5610.61  75.4796
 59.7976  5545.63  74.7941
 59.8396  5729.67  75.9221
 59.8816  5746.2  76.5626
 59.9236  5724.73  76.0734
 59.9656  5638.06  75.7474
 60.0076  5581.32  74.7473
 60.0496  5634.81  75.5914
 60.0916  5790.73  76.0603
 60.1336  5618.39  75.9879
 60.1756  5629.82  77.2086
 60.1996  0.0000000E+00  0.0000000E+00