File: docs/examples/XRD/IS17_D/Data/IS17_D/17_Da_f00031.xye
# /beamlines/bl04/projects/cycle2025-II/20250340211-lsimonelli/DATA/IS17_D/17_Da_f00031.xye : mythproc.py merge -s 0.006 -l 0.5 -f /beamlines/bl04/inhouse/ff/FlatField/ff_20Nov2024rod8mm60s_17keV.raw -b True -c true -o xye /beamlines/bl04/projects/cycle2025-II/20250340211-lsimonelli/DATA/IS17_D/17_Da_00031.dat
# IsMon = [6755370, 6759495, 6757141]  IsPos = [-1.5000, -2.4885, -3.4986]
# Wave = 0.4962  CalPath /beamlines/bl04/projects/cycle2025-II/20250340211-lsimonelli/DATA/Align/Si_Pos1_25keV_f00001.cal
# Date = 2025-09-24_02:10:26 Dt = 4.8000  Bin = 0.0060  <imon> = 6757335 +/- 1690 (Min/Max) 6755370 / 6759495
# icurr 250.0901  mocoIn 1.7073E-05  mocoOut 0.8007  i15 7.07047e+06  imon 6.75734e+06  i7 9.6667  iEMpd_timer 4.8000  iEMpd_1 3.5394E-08  iEMpd_2 7.8096E-08  iEMpd_3 1.6299E-08  iEMpd_4 4.8713E-08  iEMhp_timer 4.8000  iEMhp_1 4.8865E-06  iEMhp_2 -2.5609E-08  iEMhp_3 -2.3794E-08  iEMhp_4 -2.0461E-08
#      9776
 1.5856  39800.9  204.886
 1.6276  47376.3  219.7
 1.6696  53428  232.488
 1.7116  62163.3  251.264
 1.7536  71776.3  268.844
 1.7956  76114.2  277.541
 1.8376  73029.3  272.289
 1.8796  60631.6  246.286
 1.9216  48620.4  221.417
 1.9636  41232.8  203.581
 2.0056  36470.2  190.239
 2.0476  33971.8  185.621
 2.0896  32801.6  181.326
 2.1316  31476.4  176.772
 2.1736  29846  173.498
 2.2156  30537.5  174.088
 2.2576  29453.6  171.583
 2.2996  28294.8  168.792
 2.3416  28677.4  168.574
 2.3836  28128.6  167.055
 2.4256  27341  165.236
 2.4676  27097.1  164.264
 2.5096  26611.4  162.839
 2.5516  26024.3  164.741
 2.5936  26053.4  161.501
 2.6356  25380.2  160.074
 2.6776  25528.4  159.456
 2.7196  24936.9  158.097
 2.7616  24960.8  157.954
 2.8036  24681.8  157.239
 2.8456  24570.5  157.486
 2.8876  24213.6  156.193
 2.9296  23765.4  154.888
 2.9716  23594.4  153.832
 3.0136  23346.6  153.088
 3.0556  23362.1  153.522
 3.0976  23440.9  152.748
 3.1396  23137  152.446
 3.1816  22881.7  151.54
 3.2236  22732.3  151.044
 3.2656  22900.7  150.651
 3.3076  22525.3  150.837
 3.3496  22974  151.53
 3.3916  23219.8  151.925
 3.4336  23638.4  153.856
 3.4756  23784.1  154.263
 3.5176  24885.5  157.578
 3.5596  24640.7  159.744
 3.6016  24982.8  157.95
 3.6436  24263.2  156.737
 3.6856  23766  153.456
 3.7276  22834.8  151.486
 3.7696  22636.2  150.824
 3.8116  22155.2  149.296
 3.8536  22168  149.277
 3.8956  22244.8  149.361
 3.9376  22127.9  149.254
 3.9796  22017.2  148.361
 4.0216  22186.4  147.974
 4.0636  22102.9  149.153
 4.1056  22085  148.729
 4.1476  22342.2  149.918
 4.1896  22542.8  150.445
 4.2316  22677.9  150.726
 4.2736  23181.9  152.18
 4.3156  23405  153.141
 4.3576  24116.8  155.373
 4.3996  24464.2  156.543
 4.4416  25072.2  158.269
 4.4836  25472.8  159.673
 4.5256  25927.6  161.709
 4.5676  25819.4  161.619
 4.6096  26462.9  162.647
 4.6516  26852.4  163.193
 4.6936  26982.8  164.389
 4.7356  27240.2  165.006
 4.7776  27054.4  164.272
 4.8196  26817.4  164.199
 4.8616  26359.2  162.408
 4.9036  26016.6  160.969
 4.9456  25935.7  161.355
 4.9876  25485.9  159.854
 5.0296  25815.3  160.702
 5.0716  25656  160.828
 5.1136  25662.3  160.704
 5.1556  26138.9  161.657
 5.1976  26304.9  162.173
 5.2396  26580.9  162.718
 5.2816  26643.5  163.37
 5.3236  26702.3  163.253
 5.3656  26310.8  162.964
 5.4076  25908.3  161.863
 5.4496  26021.3  161.705
 5.4916  26198.8  162.014
 5.5336  26239.2  162.144
 5.5756  26001.1  161.443
 5.6176  26194.6  161.479
 5.6596  26439.3  163.045
 5.7016  26379.6  162.288
 5.7436  26769.6  163.76
 5.7856  26696.4  163.586
 5.8276  26852  163.789
 5.8696  26833  163.799
 5.9116  26930.1  164.766
 5.9536  27245.5  165.515
 5.9956  27654  166.111
 6.0376  27408.6  166.008
 6.0796  27787.5  166.985
 6.1216  27786.5  167.178
 6.1636  28055.8  167.06
 6.2056  27801.8  166.957
 6.2476  28250.7  168.002
 6.2896  28303.2  168.016
 6.3316  28285.6  168.142
 6.3736  28462.9  168.558
 6.4156  28409.7  168.351
 6.4576  28516.9  168.224
 6.4996  28822.7  169.598
 6.5416  28754  169.533
 6.5836  28814.2  169.938
 6.6256  28857.6  169.638
 6.6676  29268  170.409
 6.7096  29220.7  171.118
 6.7516  29653.6  172.037
 6.7936  29788.5  171.617
 6.8356  29980.7  172.493
 6.8776  30321.3  174.262
 6.9196  30315.4  174.646
 6.9616  30810.1  175.483
 7.0036  30943  175.546
 7.0456  31021.4  175.072
 7.0876  31022.8  176.668
 7.1296  30971.2  175.749
 7.1716  30822.5  174.871
 7.2136  30615.5  174.064
 7.2556  30751.2  174.611
 7.2976  30847  175.373
 7.3396  30570.3  174.787
 7.3816  30587.1  175.054
 7.4236  30865  175.149
 7.4656  30936.7  174.845
 7.5076  31347.9  176.137
 7.5496  31186.9  176.215
 7.5916  31221.7  176.341
 7.6336  31453.9  176.896
 7.6756  31591.1  177.134
 7.7176  32070.7  178.773
 7.7596  31869.8  179.445
 7.8016  32213.2  182.558
 7.8436  32637.5  180.469
 7.8856  33055.2  181.244
 7.9276  33601.5  183.123
 7.9696  33511.4  183.179
 8.0116  34760.9  185.482
 8.0536  34842.2  185.585
 8.0956  34544.2  185.935
 8.1376  35014.8  186.688
 8.1796  35168.6  187.621
 8.2216  36131.9  188.938
 8.2636  36240.7  189.465
 8.3056  36290  190.362
 8.3476  36820  191.079
 8.3896  36634.7  191.119
 8.4316  36631.8  190.828
 8.4736  36930.8  191.07
 8.5156  36265.8  189.623
 8.5576  36092.7  190.123
 8.5996  35780.8  188.2
 8.6416  35784.9  189.442
 8.6836  35653.2  188.932
 8.7256  36179.7  189.765
 8.7676  35510.5  190.868
 8.8096  35539.4  188.312
 8.8516  35463.7  187.791
 8.8936  35025.7  186.48
 8.9356  34660.8  185.828
 8.9776  35206.8  187.389
 9.0196  34864.9  186.148
 9.0616  35022  186.059
 9.1036  34419.9  185.611
 9.1456  34574.9  185.389
 9.1876  34330.8  184.685
 9.2296  34581.7  184.777
 9.2716  33890.2  182.986
 9.3136  34179.7  183.749
 9.3556  34230.2  183.857
 9.3976  32807  180.52
 9.4396  33729.8  182.939
 9.4816  32934.1  180.628
 9.5236  32785  180.131
 9.5656  32552.2  179.803
 9.6076  32366.5  179.804
 9.6496  32283.6  179.506
 9.6916  32272.1  179.44
 9.7336  32020.5  178.529
 9.7756  32301.8  180.484
 9.8176  31594.4  178.048
 9.8596  31725.4  176.896
 9.9016  31174.3  175.347
 9.9436  31007.3  174.621
 9.9856  30965.6  174.888
 10.0276  30122  173.568
 10.0696  30624.8  174.075
 10.1116  29724.9  171.752
 10.1536  29233.7  170.018
 10.1956  29405.8  170.593
 10.2376  28808.1  168.383
 10.2796  29169.3  169.551
 10.3216  28937.8  168.991
 10.3636  28619.3  168.23
 10.4056  28361.6  167.864
 10.4476  28467.7  167.812
 10.4896  28585.6  167.624
 10.5316  28100.9  166.578
 10.5736  27854.6  166.556
 10.6156  27718.6  165.927
 10.6576  27857.5  164.927
 10.6996  27304.7  163.923
 10.7416  27090.2  163.522
 10.7836  27290.5  164.803
 10.8256  26614.3  163.176
 10.8676  26577.2  162.6
 10.9096  26321  161.864
 10.9516  26126.4  160.212
 10.9936  26101.5  160.331
 11.0356  26106.7  160.97
 11.0776  25966.5  159.865
 11.1196  25458.9  159.025
 11.1616  25194.6  157.887
 11.2036  25293.8  158.059
 11.2456  25107.2  158.157
 11.2876  25110.2  157.91
 11.3296  25024.9  157.54
 11.3716  25440.7  158.583
 11.4136  25314.7  159.03
 11.4556  25564.6  159.489
 11.4976  25587.4  158.543
 11.5396  26013.4  160.022
 11.5816  26034.9  160.54
 11.6236  25500.3  159.323
 11.6656  25067.3  156.93
 11.7076  24595.9  156.259
 11.7496  24251.1  159.01
 11.7916  24323.3  154.672
 11.8336  24039.5  154.658
 11.8756  23971.7  153.963
 11.9176  23859.8  153.502
 11.9596  23628.4  152.706
 12.0016  23715.1  153.762
 12.0436  23661.9  153.024
 12.0856  23367.7  152.584
 12.1276  23344.5  152.419
 12.1696  23417.9  151.818
 12.2116  23628.7  152.489
 12.2536  23044.9  151.383
 12.2956  23367.3  151.807
 12.3376  23120.3  151.216
 12.3796  23098.4  151.582
 12.4216  23270.7  151.387
 12.4636  22983.5  151.345
 12.5056  23200.8  151.343
 12.5476  23358.7  151.394
 12.5896  23250.7  151.664
 12.6316  22792.8  150.317
 12.6736  23191.1  151.955
 12.7156  22869.7  150.915
 12.7576  22962  151.455
 12.7996  23167.1  150.797
 12.8416  23167.8  151.833
 12.8836  23418.8  152.456
 12.9256  23628.9  152.188
 12.9676  23641.7  152.654
 13.0096  23382.1  152.894
 13.0516  23676.8  152.899
 13.0936  23573.6  152.688
 13.1356  23975.6  153.261
 13.1776  23648.3  153.182
 13.2196  23856.3  153.517
 13.2616  23650.4  153.157
 13.3036  23668.2  153.351
 13.3456  23665.1  153.324
 13.3876  23715.9  152.996
 13.4296  23588.9  152.731
 13.4716  23684.4  152.652
 13.5136  23684.9  152.816
 13.5556  23590  153.088
 13.5976  23916.5  154.301
 13.6396  23832.2  153.405
 13.6816  23243.8  151.868
 13.7236  24180  154.649
 13.7656  23655.7  153.508
 13.8076  23802.8  152.783
 13.8496  23377.1  152.179
 13.8916  23496.4  153.364
 13.9336  23336.5  152.087
 13.9756  23424.2  151.736
 14.0176  23212.1  151.717
 14.0596  23264  151.845
 14.1016  22872  150.957
 14.1436  22666  149.43
 14.1856  22545.1  149.316
 14.2276  22233.2  148.754
 14.2696  22498.9  149.487
 14.3116  22102.3  148.056
 14.3536  21840.6  147.357
 14.3956  21794.6  146.927
 14.4376  22027.6  147.502
 14.4796  21742.3  146.528
 14.5216  21662.8  147.058
 14.5636  21347.3  145.547
 14.6056  21679.9  146.264
 14.6476  21401  144.567
 14.6896  21089.1  144.036
 14.7316  20752.2  143.885
 14.7736  20727.2  142.962
 14.8156  20578.2  142.487
 14.8576  20315.8  141.425
 14.8996  20036.5  141.633
 14.9416  19639.5  140.232
 14.9836  19803.8  140.771
 15.0256  19577.1  138.904
 15.0676  19757.3  139.854
 15.1096  19555.5  138.879
 15.1516  19069.2  137.683
 15.1936  19208.9  137.627
 15.2356  18957.3  136.997
 15.2776  18806  136.043
 15.3196  18707.1  136.673
 15.3616  18509.1  135.711
 15.4036  18514.5  135.587
 15.4456  18633.7  135.457
 15.4876  18241.4  133.927
 15.5296  18064.9  133.554
 15.5716  17951.7  132.743
 15.6136  17832.3  132.621
 15.6556  17890.6  132.089
 15.6976  17996.9  132.562
 15.7396  17682.9  132.002
 15.7816  17487.5  130.788
 15.8236  17216.4  130.455
 15.8656  17381.2  130.871
 15.9076  16956.6  129.092
 15.9496  16956.5  131.838
 15.9916  16866.1  131.926
 16.0336  16892.2  128.963
 16.0756  16721.6  128.608
 16.1176  16811.4  128.869
 16.1596  16214.8  127.864
 16.2016  16481.1  127.678
 16.2436  16341.7  127.509
 16.2856  16315.6  126.967
 16.3276  15961.7  125.99
 16.3696  16267.8  127.016
 16.4116  16010.9  126.463
 16.4536  16105.7  126.62
 16.4956  16015.6  126.013
 16.5376  15942.2  125.895
 16.5796  15740  124.478
 16.6216  15943.7  125.58
 16.6636  15759.9  125.002
 16.7056  15873.7  125.322
 16.7476  15733.4  124.451
 16.7896  15844.7  125.481
 16.8316  15890.5  125.627
 16.8736  15722.5  125.214
 16.9156  15574.2  124.954
 16.9576  15634  125.969
 16.9996  15586.6  126.258
 17.0416  15709.1  125.128
 17.0836  15680.3  124.777
 17.1256  15410.9  123.712
 17.1676  15414.3  123.723
 17.2096  15338.2  123.294
 17.2516  15191.6  122.786
 17.2936  15289.9  123.206
 17.3356  14835.4  121.363
 17.3776  15002.2  122.229
 17.4196  15203.1  122.739
 17.4616  14923.7  121.528
 17.5036  14689.9  120.93
 17.5456  14572.8  121.079
 17.5876  14651.1  120.466
 17.6296  14583.3  119.999
 17.6716  14528.4  120.343
 17.7136  14299.7  119.538
 17.7556  14362.3  120.079
 17.7976  14233.4  119.152
 17.8396  14135.5  118.389
 17.8816  14234.4  119.325
 17.9236  14025.8  118.273
 17.9656  14308.7  120.151
 18.0076  14180.5  119.043
 18.0496  14321.6  118.779
 18.0916  14296.9  119.209
 18.1336  14324.6  119.416
 18.1756  14397.4  119.258
 18.2176  14127.8  118.357
 18.2596  14225.8  118.504
 18.3016  14408.1  119.519
 18.3436  14448.6  119.924
 18.3856  14058.5  118.196
 18.4276  14344.1  119.057
 18.4696  14203.1  118.576
 18.5116  14062.3  118.269
 18.5536  14222.2  119.293
 18.5956  13994.4  117.891
 18.6376  13848.4  117.667
 18.6796  13694.4  116.365
 18.7216  13729.7  117.057
 18.7636  13628.6  116.54
 18.8056  13856.5  117.455
 18.8476  13596  116.655
 18.8896  13627.9  116.443
 18.9316  13900.4  117.42
 18.9736  13621.1  116.1
 19.0156  13627.2  116.508
 19.0576  13558.9  115.124
 19.0996  13645.8  116.19
 19.1416  13386.2  115.462
 19.1836  13524.3  115.665
 19.2256  13558.4  116.008
 19.2676  13444.8  115.623
 19.3096  13639  116.693
 19.3516  13433.2  115.602
 19.3936  13526.3  116.136
 19.4356  13339  115.15
 19.4776  13508.8  115.97
 19.5196  13443  115.541
 19.5616  13590.9  116.425
 19.6036  13543.7  115.586
 19.6456  13429.5  115.35
 19.6876  13671.3  116.038
 19.7296  13548  115.967
 19.7716  13560.8  116.039
 19.8136  13642.8  116.74
 19.8556  13842.2  117.072
 19.8976  13660.9  116.366
 19.9396  13667.6  115.975
 19.9816  13831.2  116.904
 20.0236  13908.1  117.448
 20.0656  14315.2  119.148
 20.1076  14020  118.381
 20.1496  13778  117.354
 20.1916  13669.6  116.371
 20.2336  13586.5  115.993
 20.2756  13508.2  116.082
 20.3176  13257.3  114.751
 20.3596  13238.1  114.643
 20.4016  13169.7  114.157
 20.4436  13194.7  114.82
 20.4856  12907.5  113.354
 20.5276  12986.4  114.143
 20.5696  12941.3  113.523
 20.6116  12816.3  113.144
 20.6536  12900.8  113.085
 20.6956  12808.5  112.741
 20.7376  12860.1  113.198
 20.7796  12786.6  112.568
 20.8216  12941.3  112.958
 20.8636  12759.5  112.523
 20.9056  12814.1  112.719
 20.9476  12652.5  111.852
 20.9896  12753.2  112.162
 21.0316  12876.7  112.602
 21.0736  12757.2  112.587
 21.1156  12749.5  112.71
 21.1576  12719.2  112.626
 21.1996  12620  112.168
 21.2416  12710  112.404
 21.2836  12783.4  112.68
 21.3256  12504.3  111.538
 21.3676  12636.5  111.677
 21.4096  12746.3  112.518
 21.4516  12588.6  111.651
 21.4936  12437.4  111.217
 21.5356  12582.4  111.814
 21.5776  12581.3  111.649
 21.6196  12389.3  110.826
 21.6616  12383.8  110.882
 21.7036  12408.1  110.789
 21.7456  12555.7  111.514
 21.7876  12366.6  110.431
 21.8296  12371.1  110.305
 21.8716  12387.5  110.606
 21.9136  12584.8  111.683
 21.9556  12350.2  110.316
 21.9976  12240.7  109.836
 22.0396  12207.4  109.939
 22.0816  12256.7  110.695
 22.1236  12203  109.912
 22.1656  12339.8  110.698
 22.2076  12291  109.91
 22.2496  12355.8  110.224
 22.2916  12319.5  109.946
 22.3336  12307.4  110.591
 22.3756  12155.3  109.651
 22.4176  12082.7  109.179
 22.4596  12020.1  109.476
 22.5016  12277.6  110.115
 22.5436  12282.5  110.051
 22.5856  12341.8  110.555
 22.6276  12190.1  110.003
 22.6696  12262.1  110.679
 22.7116  12200.8  109.92
 22.7536  12494.7  111.213
 22.7956  12277.3  109.58
 22.8376  12292.4  110.169
 22.8796  12296.5  109.985
 22.9216  12360.1  110.818
 22.9636  12319  109.79
 23.0056  12167.9  109.246
 23.0476  12363.3  110.688
 23.0896  12701.7  111.568
 23.1316  12447.8  110.878
 23.1736  12187.5  112.618
 23.2156  12531.5  111.502
 23.2576  12219.7  110.319
 23.2996  12426.3  111.036
 23.3416  12212.2  110.59
 23.3836  12268.3  110.062
 23.4256  12320.5  110.437
 23.4676  12144.2  109.349
 23.5096  12242.8  110.455
 23.5516  12134.4  109.258
 23.5936  12300  110.892
 23.6356  12399.5  111.014
 23.6776  12137.3  110.374
 23.7196  12073.6  109.553
 23.7616  12318.6  110.353
 23.8036  12196.1  109.857
 23.8456  12271  109.759
 23.8876  12018  108.971
 23.9296  12030.9  109.514
 23.9716  11982.1  108.497
 24.0136  12227.1  110.493
 24.0556  11810.4  108.336
 24.0976  11839.6  108.281
 24.1396  11890.4  111.119
 24.1816  11857.1  109.731
 24.2236  11693.7  108.264
 24.2656  11729.9  107.913
 24.3076  11534.3  107.257
 24.3496  11672.8  107.787
 24.3916  11509.1  107.08
 24.4336  11544.6  107.451
 24.4756  11472.7  106.985
 24.5176  11447.7  106.525
 24.5596  11235.3  105.854
 24.6016  11292.1  106.203
 24.6436  11221.6  105.381
 24.6856  11283.2  105.429
 24.7276  11192.8  105.311
 24.7696  11152.2  105.234
 24.8116  11057.1  104.96
 24.8536  11128.1  105.29
 24.8956  11040.3  104.622
 24.9376  10936.5  104.307
 24.9796  10942.4  104.443
 25.0216  10790.1  103.826
 25.0636  10709.5  103.095
 25.1056  10884  104.347
 25.1476  10969.7  106.673
 25.1896  10881.7  104.75
 25.2316  10862.7  103.833
 25.2736  10891.7  103.748
 25.3156  10773.7  103.26
 25.3576  10710.2  103.368
 25.3996  10812.3  103.847
 25.4416  10874.4  104.12
 25.4836  10635  103.482
 25.5256  10837.2  103.832
 25.5676  10748.5  103.134
 25.6096  10757.9  103.748
 25.6516  10763.2  103.275
 25.6936  10644.5  103.022
 25.7356  10619  103.028
 25.7776  10773.2  103.46
 25.8196  10584.7  102.701
 25.8616  10672.4  103.056
 25.9036  10822.2  103.25
 25.9456  10589.9  102.715
 25.9876  10575.5  102.581
 26.0296  10617.3  102.522
 26.0716  10514.2  102.353
 26.1136  10707.1  103.227
 26.1556  10760.9  102.783
 26.1976  10478.1  102.423
 26.2396  10594.1  102.394
 26.2816  10532.4  102.452
 26.3236  10581.2  102.768
 26.3656  10468.9  102.036
 26.4076  10610.6  102.922
 26.4496  10908.6  103.877
 26.4916  10745.7  103.078
 26.5336  10643.2  102.909
 26.5756  10939.9  104.179
 26.6176  10513.9  102.193
 26.6596  10443.9  102.157
 26.7016  10392.7  101.708
 26.7436  10338.5  101.535
 26.7856  10252.3  101.09
 26.8276  10278.6  101.175
 26.8696  10418.3  101.731
 26.9116  10347.4  101.332
 26.9536  10261  100.957
 26.9956  10219.7  100.78
 27.0376  10068.3  100.239
 27.0796  10288.1  101.111
 27.1216  10151.3  100.47
 27.1636  9975.84  99.7587
 27.2056  10100.6  100.264
 27.2476  10198.8  100.751
 27.2896  10006  99.8291
 27.3316  10145.3  100.308
 27.3736  10097.4  100.33
 27.4156  10025.5  99.8294
 27.4576  10079.5  100.323
 27.4996  10063.3  99.8427
 27.5416  10012.8  99.9028
 27.5836  9918.45  99.2546
 27.6256  10183.3  100.723
 27.6676  10209.1  100.88
 27.7096  9964.84  99.5381
 27.7516  9841.13  99.0576
 27.7936  9845.83  99.2563
 27.8356  9938.4  99.3455
 27.8776  9888.94  99.1417
 27.9196  9774.19  98.4168
 27.9616  9792.12  98.6948
 28.0036  9801.5  98.7163
 28.0456  9864.74  99.1558
 28.0876  9888.38  99.3705
 28.1296  9724.21  98.3837
 28.1716  9789.78  98.7294
 28.2136  9842.15  98.9555
 28.2556  9710.88  98.4102
 28.2976  9604.47  97.8519
 28.3396  9745.71  98.3762
 28.3816  9712.31  98.1887
 28.4236  9712.79  98.3426
 28.4656  9632.52  97.9695
 28.5076  9665.89  97.7865
 28.5496  9688.84  98.1563
 28.5916  9687.34  97.96
 28.6336  9519.48  97.4422
 28.6756  9650.31  97.3195
 28.7176  9589.85  97.5513
 28.7596  9528.41  97.1419
 28.8016  9501.86  97.1223
 28.8436  9421.67  96.8686
 28.8856  9655.43  97.9133
 28.9276  9520.09  97.466
 28.9696  9481.78  96.9326
 29.0116  9450.66  96.9472
 29.0536  9393.01  96.8623
 29.0956  9439.21  96.8212
 29.1376  9426.59  96.7174
 29.1796  9396.44  96.6051
 29.2216  9467.18  96.8118
 29.2636  9412.57  96.53
 29.3056  9377.71  96.2248
 29.3476  9344.61  96.5673
 29.3896  9474.82  97.3246
 29.4316  9424.67  96.4192
 29.4736  9481.44  96.7726
 29.5156  9352.1  96.0278
 29.5576  9356.03  96.7791
 29.5996  9324.97  95.8921
 29.6416  9357.21  96.1676
 29.6836  9414.96  96.3991
 29.7256  9284.86  96.2815
 29.7676  9354.62  96.3128
 29.8096  9364.26  96.3065
 29.8516  9217.39  95.8761
 29.8936  9390.96  96.8658
 29.9356  9365.39  96.4911
 29.9776  9141.57  95.4816
 30.0196  9217.51  95.2721
 30.0616  9177.73  95.4373
 30.1036  9220.44  95.4857
 30.1456  9202.49  95.6464
 30.1876  9190.57  95.5363
 30.2296  9226.5  95.6805
 30.2716  9203.66  95.1985
 30.3136  9225.51  95.9028
 30.3556  9210.63  96.0975
 30.3976  9026.59  96.6195
 30.4396  9171.85  94.7889
 30.4816  9295.3  95.0214
 30.5236  9141.2  94.2561
 30.5656  9200.53  95.2
 30.6076  9200.97  94.9792
 30.6496  9215.01  95.0875
 30.6916  9131.31  94.7504
 30.7336  9047.86  94.4665
 30.7756  9098.57  95.0364
 30.8176  9210.74  95.3203
 30.8596  9073.94  94.3822
 30.9016  9028.78  94.0207
 30.9436  9150.73  94.873
 30.9856  9125.04  94.8491
 31.0276  9054.63  94.0928
 31.0696  8930.43  93.8832
 31.1116  9010.66  94.4104
 31.1536  9086.68  94.6916
 31.1956  9024.21  94.452
 31.2376  9029.79  94.4888
 31.2796  8964.36  93.6925
 31.3216  8879.88  93.1946
 31.3636  9075.66  94.8926
 31.4056  8929.44  95.4126
 31.4476  9049.29  93.9646
 31.4896  8868.83  93.5158
 31.5316  8828.71  92.7662
 31.5736  8994.72  93.4219
 31.6156  8823.86  92.5419
 31.6576  9051.02  93.8225
 31.6996  9201.38  94.2694
 31.7416  8825.54  93.2275
 31.7836  8854.63  92.5514
 31.8256  8868.74  92.9589
 31.8676  9003.32  93.5926
 31.9096  8759.73  92.5232
 31.9516  8835.4  93.2207
 31.9936  8721.31  92.4427
 32.0356  8842.54  93.1538
 32.0776  8882.39  93.2483
 32.1196  8857.05  93.1258
 32.1616  8886.97  92.8292
 32.2036  8766.57  92.7007
 32.2456  8888.4  93.7147
 32.2876  8861.83  92.9094
 32.3296  8661.65  91.9831
 32.3716  8814.8  92.899
 32.4136  8776.07  92.9124
 32.4556  8807.28  92.5172
 32.4976  8828.07  92.5235
 32.5396  8687.85  91.8121
 32.5816  8774.77  92.2814
 32.6236  8840.25  92.8021
 32.6656  8801.65  93.135
 32.7076  8723.92  92.3785
 32.7496  8728  92.0702
 32.7916  8738.35  92.0898
 32.8336  8695.64  91.9562
 32.8756  8563.52  91.0767
 32.9176  8679.95  92.0824
 32.9596  8572.32  91.5807
 33.0016  8732.8  92.2317
 33.0436  8808.58  92.7987
 33.0856  8681.71  92.1983
 33.1276  8586.35  91.4269
 33.1696  8703.17  91.8905
 33.2116  8674.07  91.9541
 33.2536  8657.89  91.8794
 33.2956  8673.62  92.0412
 33.3376  8500.45  90.9227
 33.3796  8608.55  91.6454
 33.4216  8748.57  91.9935
 33.4636  8677.67  91.7599
 33.5056  8585.19  91.3422
 33.5476  8446.81  90.758
 33.5896  8661.14  91.6526
 33.6316  8434.13  90.781
 33.6736  8477  91.2375
 33.7156  8541.5  91.6377
 33.7576  8586.44  91.4973
 33.7996  8643.64  91.5842
 33.8416  8334.65  90.1086
 33.8836  8482.06  90.6796
 33.9256  8461.49  90.6397
 33.9676  8525.5  90.8696
 34.0096  8277.4  89.8511
 34.0516  8358.18  89.9275
 34.0936  8419.5  90.5135
 34.1356  8455.99  90.4666
 34.1776  8453.77  90.4599
 34.2196  8280.2  89.7077
 34.2616  8452.99  90.828
 34.3036  8236.32  89.8458
 34.3456  8287.91  89.883
 34.3876  8417.42  90.6383
 34.4296  8337.04  89.8088
 34.4716  8482.01  90.7258
 34.5136  8384.45  90.4122
 34.5556  8358.76  90.5226
 34.5976  8360.38  90.3709
 34.6396  8262.02  89.5231
 34.6816  8336.04  90.0364
 34.7236  8370.36  90.0069
 34.7656  8409.01  90.3982
 34.8076  8218.74  89.687
 34.8496  8245.02  89.6925
 34.8916  8221.77  89.4432
 34.9336  8437.97  90.5787
 34.9756  8543.74  91.0796
 35.0176  8412.73  90.8829
 35.0596  8290.52  90.062
 35.1016  8288.75  89.8191
 35.1436  8400.27  90.1118
 35.1856  8323.43  89.8243
 35.2276  8291.23  89.8127
 35.2696  8179.43  89.3928
 35.3116  8210.22  89.6599
 35.3536  8186.52  89.2785
 35.3956  8161.9  88.8248
 35.4376  8133.84  89.2251
 35.4796  8220.16  89.7471
 35.5216  8050.98  88.7082
 35.5636  8025.24  89.3653
 35.6056  8193.45  89.3293
 35.6476  8236.83  89.459
 35.6896  8235.57  89.6209
 35.7316  8064.55  88.5818
 35.7736  8165.23  89.3292
 35.8156  8023.07  88.5445
 35.8576  8241.55  89.9937
 35.8996  8205.47  89.7611
 35.9416  8192.59  89.1914
 35.9836  8125.42  89.2747
 36.0256  8263.68  89.9566
 36.0676  8208.9  89.1992
 36.1096  8058.33  88.7273
 36.1516  8093.03  88.8126
 36.1936  8027.15  88.2964
 36.2356  8104.3  89.3521
 36.2776  8040.17  88.4775
 36.3196  8054.39  88.2464
 36.3616  8116.13  88.7144
 36.4036  8063.78  88.4684
 36.4456  8091.89  88.8406
 36.4876  7992.83  88.2305
 36.5296  8022.4  88.4403
 36.5716  8114.72  89.72
 36.6136  8077.37  88.3008
 36.6556  8207.49  89.2102
 36.6976  8032.85  88.7452
 36.7396  8018.51  88.4892
 36.7816  8039.65  88.8877
 36.8236  8052.23  88.8751
 36.8656  8027.21  88.8127
 36.9076  8060.81  89.0039
 36.9496  8014.41  88.7612
 36.9916  8042.3  88.3971
 37.0336  8070.45  88.8685
 37.0756  8001.08  88.2764
 37.1176  7900.04  88.0768
 37.1596  7928.95  88.1423
 37.2016  7888.34  88.0869
 37.2436  7918.47  87.6398
 37.2856  7896.6  87.7681
 37.3276  7990.72  87.6517
 37.3696  7980.35  88.4687
 37.4116  8013.7  88.5634
 37.4536  7880.91  87.6946
 37.4956  7807.94  87.3309
 37.5376  7967.98  89.7598
 37.5796  7845.54  89.0256
 37.6216  7662.05  86.2882
 37.6636  7769.59  86.8031
 37.7056  7889.96  87.6667
 37.7476  7892.05  87.2233
 37.7896  7824.49  87.3177
 37.8316  7618.43  86.3484
 37.8736  7755.04  86.6492
 37.9156  7718.84  86.4519
 37.9576  7803.98  86.967
 37.9996  7781.86  86.4191
 38.0416  7755.63  87.0709
 38.0836  7921.54  87.8959
 38.1256  7688.17  86.5612
 38.1676  7655.77  86.5063
 38.2096  7776.79  86.8127
 38.2516  7871.73  87.4428
 38.2936  7845.48  87.2011
 38.3356  7926.56  87.5702
 38.3776  7657.56  86.3386
 38.4196  7923.46  87.6787
 38.4616  7608.78  86.1532
 38.5036  7821.42  87.1926
 38.5456  7617.29  86.8519
 38.5876  7806.48  87.9536
 38.6296  7699.37  86.346
 38.6716  7688.89  86.0807
 38.7136  7586.55  85.4527
 38.7556  7612.83  86.0927
 38.7976  7552.96  85.6907
 38.8396  7597.78  86.3903
 38.8816  7651.65  86.4856
 38.9236  7697.49  86.552
 38.9656  7628.04  86.0754
 39.0076  7696.95  85.882
 39.0496  7672.64  86.2799
 39.0916  7543.07  85.1955
 39.1336  7528.8  85.5228
 39.1756  7538.58  85.6439
 39.2176  7675.51  86.9388
 39.2596  7765.15  87.3699
 39.3016  7615.74  86.0961
 39.3436  7503.89  85.8867
 39.3856  7687.13  86.385
 39.4276  7634.71  86.5831
 39.4696  7679.73  86.4529
 39.5116  7635.11  86.717
 39.5536  7752.39  87.8004
 39.5956  7765.01  86.98
 39.6376  7622.96  86.0272
 39.6796  7705.17  86.3981
 39.7216  7649.31  86.1778
 39.7636  7758.93  87.3601
 39.8056  7650.8  86.5345
 39.8476  7620.27  86.609
 39.8896  7612.73  86.1977
 39.9316  7602.96  86.3951
 39.9736  7787.25  87.0082
 40.0156  7564.59  85.5832
 40.0576  7637.09  86.3482
 40.0996  7761.42  86.2367
 40.1416  7688.39  86.6057
 40.1836  7723.29  86.7029
 40.2256  7770.97  87.0141
 40.2676  7703.32  86.8027
 40.3096  7761.77  86.9881
 40.3516  7771.86  87.2357
 40.3936  7868.13  87.2571
 40.4356  7651.22  86.2278
 40.4776  7721.16  86.8728
 40.5196  7802.56  87.6181
 40.5616  7791.14  87.1993
 40.6036  7645.9  86.6256
 40.6456  7770.52  86.9521
 40.6876  7777.81  86.9807
 40.7296  7750.09  86.953
 40.7716  7692.67  86.7667
 40.8136  7676.96  86.6154
 40.8556  7720.81  86.9985
 40.8976  7741.25  87.0344
 40.9396  7617.46  86.6784
 40.9816  7770.86  86.8361
 41.0236  7739.73  86.4465
 41.0656  7721.52  86.8788
 41.1076  7714.8  86.6113
 41.1496  7786.38  86.9262
 41.1916  7711.61  86.8226
 41.2336  7695.66  86.7285
 41.2756  7746.9  86.6196
 41.3176  7668.8  86.7904
 41.3596  7774.18  87.1176
 41.4016  7760.7  87.294
 41.4436  7742.32  86.9866
 41.4856  7744.82  87.1558
 41.5276  7604.85  86.3883
 41.5696  7778.18  86.983
 41.6116  7664.54  86.7486
 41.6536  7701.69  86.8227
 41.6956  7836.01  87.5573
 41.7376  7578.47  86.2073
 41.7796  7646.71  86.5199
 41.8216  7703.59  87.0311
 41.8636  7698.42  86.9397
 41.9056  7583.08  86.0766
 41.9476  7745.13  87.2257
 41.9896  7660.04  86.4156
 42.0316  7771.02  87.1254
 42.0736  7654  86.6034
 42.1156  7576.92  85.9798
 42.1576  7681.89  86.664
 42.1996  7605.72  86.3798
 42.2416  7698.17  86.4905
 42.2836  7649.79  86.3299
 42.3256  7583.35  86.0656
 42.3676  7666.79  86.3469
 42.4096  7654.07  86.2374
 42.4516  7573.7  85.87
 42.4936  7527.75  85.6734
 42.5356  7607.17  86.2553
 42.5776  7611.52  86.2196
 42.6196  7579.64  86.0114
 42.6616  7469.1  85.6309
 42.7036  7613.04  85.8469
 42.7456  7508.85  85.6089
 42.7876  7622.25  86.3482
 42.8296  7536.87  85.7602
 42.8716  7480.18  85.5341
 42.9136  7608.57  86.014
 42.9556  7580.05  86.0227
 42.9976  7624.96  86.2436
 43.0396  7496.98  85.2532
 43.0816  7526.12  85.7868
 43.1236  7582.7  86.1711
 43.1656  7565.44  85.9063
 43.2076  7492.22  85.5958
 43.2496  7477.99  85.3207
 43.2916  7534.48  86.0073
 43.3336  7493.29  85.6125
 43.3756  7533.43  85.5928
 43.4176  7389.27  84.8589
 43.4596  7510.72  85.4105
 43.5016  7500.97  85.7552
 43.5436  7478.95  85.5296
 43.5856  7441.81  85.3407
 43.6276  7443.78  85.2509
 43.6696  7404.58  85.1617
 43.7116  7540.77  85.5647
 43.7536  7504.61  85.8378
 43.7956  7408.36  86.4565
 43.8376  7397.05  84.9512
 43.8796  7305.85  84.5094
 43.9216  7411.66  85.0364
 43.9636  7438.51  85.3003
 44.0056  7402.62  85.3218
 44.0476  7405  84.9749
 44.0896  7371.91  85.1199
 44.1316  7340.93  84.6092
 44.1736  7285.07  84.2756
 44.2156  7347.84  84.4803
 44.2576  7419.46  85.2217
 44.2996  7405.5  85.1056
 44.3416  7421.87  84.9766
 44.3836  7117.4  83.5235
 44.4256  7356.17  84.5696
 44.4676  7262.16  84.1788
 44.5096  7342.97  84.7803
 44.5516  7230.08  84.0967
 44.5936  7149.95  83.583
 44.6356  7295.48  84.1742
 44.6776  7312.47  84.5834
 44.7196  7208.57  84.2452
 44.7616  7346.25  86.3894
 44.8036  7157.74  83.9476
 44.8456  7197.53  84.1848
 44.8876  7232.45  84.2386
 44.9296  7348.23  84.3709
 44.9716  7297.41  84.507
 45.0136  7258.24  84.2096
 45.0556  7189.56  83.891
 45.0976  7128.48  83.5926
 45.1396  7116.22  83.2839
 45.1816  7188.56  83.475
 45.2236  7239.86  83.8368
 45.2656  7082.16  83.4128
 45.3076  7116.84  83.4103
 45.3496  7091.77  83.5519
 45.3916  7137.23  84.0847
 45.4336  7148.18  83.9981
 45.4756  7112.74  83.6541
 45.5176  7104.55  83.2263
 45.5596  7280.93  84.3675
 45.6016  7007.61  83.1797
 45.6436  7124.42  83.0688
 45.6856  7027.57  83.1346
 45.7276  6992.44  84.7155
 45.7696  7146.4  84.8031
 45.8116  7061.75  83.7461
 45.8536  7098.14  83.8616
 45.8956  7131.07  83.4192
 45.9376  7029.97  82.3054
 45.9796  7143.99  83.6571
 46.0216  7188.38  84.2434
 46.0636  7172  83.3043
 46.1056  7064.68  82.6629
 46.1476  7220.81  84.157
 46.1896  7055.21  83.3322
 46.2316  7093.38  83.4285
 46.2736  7012.43  83.1618
 46.3156  6968.53  82.6486
 46.3576  7049.86  83.3285
 46.3996  7081.74  83.6692
 46.4416  7085.33  83.2552
 46.4836  7069.38  83.5311
 46.5256  7031.86  83.252
 46.5676  6804.44  82.0039
 46.6096  7082.18  83.5929
 46.6516  7051.71  82.4819
 46.6936  7086.9  83.1637
 46.7356  7058.63  83.1096
 46.7776  6932.23  83.1768
 46.8196  6979.08  83.2025
 46.8616  6873.29  82.3837
 46.9036  6860.17  81.9645
 46.9456  6934.27  82.0649
 46.9876  6971.27  82.3605
 47.0296  6995.37  83.1818
 47.0716  6871.57  82.2662
 47.1136  6937.72  82.3474
 47.1556  6856.53  81.7365
 47.1976  6931.47  82.3289
 47.2396  6827.05  82.0168
 47.2816  6847.44  81.8536
 47.3236  6929.2  82.7042
 47.3656  6854.32  82.1842
 47.4076  6972.55  82.6266
 47.4496  6904.13  82.3909
 47.4916  6832.41  82.1431
 47.5336  6875.62  82.2151
 47.5756  6880.05  82.3243
 47.6176  6793.32  81.7403
 47.6596  6791.14  81.4508
 47.7016  6966.14  82.3169
 47.7436  6908.89  82.2926
 47.7856  6949.53  82.5672
 47.8276  6800.03  81.7219
 47.8696  6827.85  81.9813
 47.9116  6906.91  82.1702
 47.9536  6812.53  81.5522
 47.9956  6709.38  81.6169
 48.0376  6773.28  81.7807
 48.0796  6927.75  82.834
 48.1216  6784.6  81.8013
 48.1636  6918.63  82.1918
 48.2056  6833.41  81.9394
 48.2476  6919.63  82.7537
 48.2896  6835.63  82.1669
 48.3316  6780.93  81.78
 48.3736  6705.94  81.3468
 48.4156  6663.83  80.9456
 48.4576  6795.32  82.0285
 48.4996  6773.07  81.3623
 48.5416  6813.25  81.9275
 48.5836  6773.94  81.3751
 48.6256  6815.21  81.8322
 48.6676  6733.15  81.828
 48.7096  6793.76  81.4784
 48.7516  6738.24  81.2914
 48.7936  6676.69  80.9809
 48.8356  6737.86  81.3998
 48.8776  6666.69  81.4348
 48.9196  6843.55  81.9792
 48.9616  6746.83  81.7611
 49.0036  6672.88  81.6552
 49.0456  6697.89  81.79
 49.0876  6639.81  81.0852
 49.1296  6592.02  80.8514
 49.1716  6614.57  80.8685
 49.2136  6707.82  81.3528
 49.2556  6695.46  81.3189
 49.2976  6713.89  81.4952
 49.3396  6618.03  80.966
 49.3816  6684.98  80.8246
 49.4236  6661.33  81.0878
 49.4656  6629.46  80.9061
 49.5076  6707.89  81.1465
 49.5496  6584.66  80.3395
 49.5916  6633.05  80.6726
 49.6336  6579.22  80.5387
 49.6756  6670.55  81.3167
 49.7176  6553.43  80.5485
 49.7596  6695.28  81.3641
 49.8016  6664.98  80.915
 49.8436  6638.06  81.0521
 49.8856  6635.71  81.042
 49.9276  6572.44  80.7474
 49.9696  6615.51  81.0049
 50.0116  6658.67  81.3832
 50.0536  6697.59  81.5815
 50.0956  6554.53  80.7735
 50.1376  6585.88  80.6698
 50.1796  6521.46  80.5413
 50.2216  6601.55  81.0286
 50.2636  6574.7  80.4933
 50.3056  6537.62  80.4288
 50.3476  6480.47  80.1059
 50.3896  6516.68  80.2965
 50.4316  6452.27  79.7411
 50.4736  6435  79.8418
 50.5156  6610.8  80.9217
 50.5576  6573.73  80.4567
 50.5996  6518.14  80.3892
 50.6416  6501.68  80.2189
 50.6836  6493.67  80.2219
 50.7256  6616.49  80.9149
 50.7676  6555.27  80.8071
 50.8096  6501.88  80.0596
 50.8516  6476.58  80.3126
 50.8936  6434.89  79.8368
 50.9356  6582.72  80.8547
 50.9776  6529.61  80.6781
 51.0196  6383.3  79.8898
 51.0616  6325.53  78.8769
 51.1036  6494.5  80.2714
 51.1456  6415.45  79.6942
 51.1876  6366.31  78.7571
 51.2296  6367.99  79.3814
 51.2716  6393.31  79.2559
 51.3136  6346.42  79.4044
 51.3556  6402.7  79.391
 51.3976  6368.84  79.3258
 51.4396  6228.57  78.7413
 51.4816  6308.89  79.1081
 51.5236  6308.43  79.1727
 51.5656  6289.34  78.6841
 51.6076  6304.83  78.8507
 51.6496  6401.04  79.6468
 51.6916  6357.4  79.7156
 51.7336  6341.78  79.7134
 51.7756  6397.34  79.7612
 51.8176  6334.88  79.4677
 51.8596  6345.59  79.5598
 51.9016  6493.63  80.0972
 51.9436  6281.19  80.1814
 51.9856  6191.24  80.0228
 52.0276  6379.08  79.7874
 52.0696  6257.65  79.0877
 52.1116  6405.89  80.1318
 52.1536  6338.83  79.5549
 52.1956  6464.66  79.8564
 52.2376  6409.48  79.6902
 52.2796  6360.28  79.1925
 52.3216  6246.8  79.158
 52.3636  6287.65  79.0063
 52.4056  6220.01  78.4387
 52.4476  6213.19  78.7522
 52.4896  6119.2  78.2029
 52.5316  6230.84  78.9581
 52.5736  6264.28  78.9008
 52.6156  6232.04  79.0553
 52.6576  6321.52  79.0908
 52.6996  6089.87  78.564
 52.7416  6213  79.2136
 52.7836  6222.23  79.1562
 52.8256  6328.77  79.0679
 52.8676  6110.73  78.2548
 52.9096  6172.43  78.7304
 52.9516  6166.42  79.0476
 52.9936  6144.84  79.2834
 53.0356  6077.35  77.8842
 53.0776  6106.26  78.3479
 53.1196  6043.21  78.0379
 53.1616  6145.12  78.7376
 53.2036  6088.65  78.321
 53.2456  6102.71  78.5259
 53.2876  6162.62  78.618
 53.3296  6018.21  78.0083
 53.3716  6168.9  78.7347
 53.4136  6112.49  78.5164
 53.4556  6090.44  78.3986
 53.4976  5944.47  77.3116
 53.5396  6117.77  78.81
 53.5816  6037.82  77.9436
 53.6236  5973.42  77.8493
 53.6656  6105  78.3423
 53.7076  6129.58  78.46
 53.7496  6155.34  78.751
 53.7916  6035.74  78.1022
 53.8336  6005.3  77.8074
 53.8756  5921.52  77.7902
 53.9176  6001.46  77.6756
 53.9596  6136.09  79.2997
 54.0016  6090.94  78.3505
 54.0436  6089.65  78.5527
 54.0856  6155.04  78.4105
 54.1276  6031.72  77.8237
 54.1696  5999.24  77.7769
 54.2116  6022.03  77.6881
 54.2536  6064.1  77.7797
 54.2956  6027.19  77.5836
 54.3376  6002.49  77.8948
 54.3796  6081.34  78.3062
 54.4216  6092.54  78.4216
 54.4636  6010.85  77.8625
 54.5056  6027.35  77.7933
 54.5476  5979.37  77.8047
 54.5896  6029.25  77.9656
 54.6316  6024.7  77.7963
 54.6736  6042.61  77.9329
 54.7156  6030.7  77.9329
 54.7576  5917.08  77.1888
 54.7996  6015.42  77.9778
 54.8416  5972.07  77.7288
 54.8836  5985  77.9244
 54.9256  5958.01  77.504
 54.9676  6023.41  77.7839
 55.0096  5951.65  77.391
 55.0516  6026.79  78.0412
 55.0936  6017.61  77.6842
 55.1356  5938.7  77.2116
 55.1776  5946.03  77.5195
 55.2196  5933.58  77.2307
 55.2616  6030.15  78.0652
 55.3036  5897.18  77.3456
 55.3456  5937.03  77.7599
 55.3876  5980.25  77.7907
 55.4296  5888.75  77.1734
 55.4716  5999.93  77.929
 55.5136  5982.13  77.5737
 55.5556  5936.13  77.3509
 55.5976  5995.66  77.7941
 55.6396  6115.17  78.4346
 55.6816  5912.38  77.0817
 55.7236  5960.94  77.5271
 55.7656  6040.02  77.7108
 55.8076  6056.72  77.8023
 55.8496  5921.05  77.3468
 55.8916  5983.78  77.8105
 55.9336  5921.56  77.2613
 55.9756  5888.5  76.9404
 56.0176  5995.75  77.7856
 56.0596  5919.36  77.272
 56.1016  5957.53  77.5534
 56.1436  5954.8  77.7728
 56.1856  5930.04  77.3568
 56.2276  5957.79  77.5941
 56.2696  5933.37  77.4077
 56.3116  5891.24  77.5171
 56.3536  5871.07  77.0558
 56.3956  5931.28  77.443
 56.4376  5951.99  77.6047
 56.4796  5992.55  77.6724
 56.5216  5891.17  77.3882
 56.5636  5982.84  77.5808
 56.6056  5890.38  77.2083
 56.6476  5864.27  76.6749
 56.6896  5887.45  77.2632
 56.7316  5981.28  77.7829
 56.7736  6008.69  77.9612
 56.8156  5928.14  77.4338
 56.8576  5953.28  77.5413
 56.8996  5959.53  77.521
 56.9416  6007.97  77.9988
 56.9836  5946.7  77.2601
 57.0256  5879.68  77.13
 57.0676  5882.71  77.2739
 57.1096  5935.83  77.4141
 57.1516  6028.87  78.0432
 57.1936  5967.43  77.4314
 57.2356  5968.66  77.7524
 57.2776  5943.21  77.5505
 57.3196  5875.63  77.4598
 57.3616  5896.6  77.1076
 57.4036  5919.94  77.3197
 57.4456  5832.34  76.7129
 57.4876  5935.01  77.2482
 57.5296  5877.73  77.1046
 57.5716  5774.52  76.5122
 57.6136  5946.87  77.4681
 57.6556  5897.41  77.2756
 57.6976  5970.22  77.5827
 57.7396  5783.68  76.7251
 57.7816  5846.46  77.487
 57.8236  5910.96  77.7151
 57.8656  5882.58  77.1913
 57.9076  5864.59  77.1033
 57.9496  5881.58  77.5561
 57.9916  5866.79  76.9388
 58.0336  5883.91  77.3612
 58.0756  5929.34  77.2565
 58.1176  5898.34  77.0981
 58.1596  5838.43  77.2489
 58.2016  5982.36  77.4548
 58.2436  5964.58  77.7285
 58.2856  5882.01  77.1135
 58.3276  5849.52  77.261
 58.3696  5875.76  77.1805
 58.4116  5888.37  77.1409
 58.4536  5906.69  77.1445
 58.4956  5804.08  76.6508
 58.5376  5882.53  76.7464
 58.5796  5869.67  77.0809
 58.6216  5954.99  77.4447
 58.6636  5904.48  77.338
 58.7056  5820.25  76.6381
 58.7476  5890.87  77.545
 58.7896  5921.52  77.3931
 58.8316  5824.28  76.7497
 58.8736  5895.48  77.2253
 58.9156  5872.19  77.1149
 58.9576  6060.26  78.5416
 58.9996  6004.82  77.5497
 59.0416  6034.66  78.1072
 59.0836  6030.02  78.004
 59.1256  5834.15  77.1165
 59.1676  5773.29  77.312
 59.2096  6041.08  78.3987
 59.2516  6018.75  77.8354
 59.2936  6019.64  78.1687
 59.3356  5720.26  76.0811
 59.3776  5901.27  77.4425
 59.4196  5913.91  77.4617
 59.4616  5874.76  77.0671
 59.5036  5830.89  76.8137
 59.5456  5973.54  77.4425
 59.5876  5975.05  77.6424
 59.6296  5905.1  77.2551
 59.6716  6001.08  77.9381
 59.7136  5979.16  77.784
 59.7556  6014.48  78.1495
 59.7976  5769.76  76.2911
 59.8396  5946.46  77.3456
 59.8816  5981.69  78.1175
 59.9236  5923.65  77.3844
 59.9656  5906.43  77.5293
 60.0076  5879.1  76.716
 60.0496  5811.67  76.7689
 60.0916  5983.01  77.3133
 60.1336  5790.7  77.1449
 60.1756  5869.79  78.8375
 60.1996  0.0000000E+00  0.0000000E+00