File: docs/examples/XRD/IS17_D/Data/IS17_D/17_Db_f00128.xye
# /beamlines/bl04/projects/cycle2025-II/20250340211-lsimonelli/DATA/IS17_D/17_Db_f00128.xye : mythproc.py merge -s 0.006 -l 0.5 -f /beamlines/bl04/inhouse/ff/FlatField/ff_20Nov2024rod8mm60s_17keV.raw -b True -c true -o xye /beamlines/bl04/projects/cycle2025-II/20250340211-lsimonelli/DATA/IS17_D/17_Db_00128.dat
# IsMon = [6770490, 6773209, 6772577]  IsPos = [-1.4999, -2.4884, -3.4988]
# Wave = 0.4962  CalPath /beamlines/bl04/projects/cycle2025-II/20250340211-lsimonelli/DATA/Align/Si_Pos1_25keV_f00001.cal
# Date = 2025-09-25_05:23:11 Dt = 4.8000  Bin = 0.0060  <imon> = 6772092 +/- 1162 (Min/Max) 6770490 / 6773209
# icurr 251.7747  mocoIn 1.7178E-05  mocoOut 0.8060  i15 7.09484e+06  imon 6.77209e+06  i7 4.6667  iEMpd_timer 4.8000  iEMpd_1 3.5649E-08  iEMpd_2 7.7625E-08  iEMpd_3 1.8015E-08  iEMpd_4 4.8577E-08  iEMhp_timer 4.8000  iEMhp_1 4.9194E-06  iEMhp_2 -2.5467E-08  iEMhp_3 -2.3850E-08  iEMhp_4 -2.0709E-08
#      9776
 1.5856  44871.1  217.539
 1.6276  51826.3  229.78
 1.6696  57120  240.38
 1.7116  64335.1  255.609
 1.7536  72190.7  269.612
 1.7956  76032.9  277.385
 1.8376  73447.1  273.059
 1.8796  62919.7  250.874
 1.9216  52132.3  229.268
 1.9636  45191.6  212.586
 2.0056  40934.7  201.542
 2.0476  38172.5  196.757
 2.0896  36790.5  192.03
 2.1316  35677.4  188.193
 2.1736  34238.1  185.821
 2.2156  34672.3  185.495
 2.2576  33458.9  182.873
 2.2996  32034.4  179.595
 2.3416  32337  178.999
 2.3836  31875.5  177.828
 2.4256  30684.9  175.044
 2.4676  30666.6  174.744
 2.5096  30147.5  173.315
 2.5516  28864.6  173.441
 2.5936  31584.4  177.8
 2.6356  28221.2  168.788
 2.6776  28132.1  167.413
 2.7196  27789.6  166.879
 2.7616  27445.9  165.631
 2.8036  27223.8  165.125
 2.8456  27262.8  165.896
 2.8876  26398.4  163.105
 2.9296  26104  162.316
 2.9716  25900.4  161.174
 3.0136  25468.5  159.89
 3.0556  25636.1  160.817
 3.0976  25726  160.002
 3.1396  25202.8  159.083
 3.1816  25104.1  158.712
 3.2236  24856.2  157.923
 3.2656  24814.5  156.822
 3.3076  24812.6  158.305
 3.3496  24696.7  156.847
 3.3916  25236.5  158.38
 3.4336  25806.4  160.751
 3.4756  25956.5  161.161
 3.5176  26504.8  162.611
 3.5596  26419.2  164.831
 3.6016  26553.7  162.833
 3.6436  25669.9  161.209
 3.6856  25274.9  158.264
 3.7276  24323.8  156.336
 3.7696  24184.1  156.087
 3.8116  23875.5  154.982
 3.8536  23910  155.02
 3.8956  23721.2  154.23
 3.9376  23887.4  155.037
 3.9796  23720.8  153.979
 4.0216  23640.4  152.744
 4.0636  23729.6  154.518
 4.1056  23506  153.442
 4.1476  23995.5  155.346
 4.1896  24060.5  155.417
 4.2316  24279.6  155.937
 4.2736  24455.4  156.304
 4.3156  24866.5  157.849
 4.3576  25585.7  160.014
 4.3996  25756.2  160.826
 4.4416  26170  161.692
 4.4836  26645.7  163.318
 4.5256  27143.3  165.452
 4.5676  27216.5  165.926
 4.6096  27742.4  166.162
 4.6516  27843.5  166.16
 4.6936  27921.4  167.231
 4.7356  28324.6  168.257
 4.7776  28136.8  167.523
 4.8196  28109.6  168.105
 4.8616  27293.8  165.125
 4.9036  27220.6  164.643
 4.9456  26890.6  164.293
 4.9876  26493.7  162.975
 5.0296  26919.7  164.116
 5.0716  26697.2  164.193
 5.1136  26655.1  163.792
 5.1556  26951  164.147
 5.1976  27848.6  166.857
 5.2396  27686.6  166.065
 5.2816  27642.6  166.404
 5.3236  27660.4  166.141
 5.3656  27082.7  165.34
 5.4076  26870.8  164.839
 5.4496  26960.6  164.597
 5.4916  27150.5  164.927
 5.5336  26969.2  164.386
 5.5756  27061.5  164.668
 5.6176  27286.3  164.805
 5.6596  27480.1  166.38
 5.7016  27431.2  165.489
 5.7436  27761.5  166.765
 5.7856  27494.3  166.026
 5.8276  27909.6  166.984
 5.8696  27991.2  167.403
 5.9116  27923.6  167.81
 5.9536  28296.7  168.667
 5.9956  28711.6  169.28
 6.0376  28469.9  169.19
 6.0796  28806.3  170.009
 6.1216  28661.3  169.785
 6.1636  28856.5  169.408
 6.2056  28907.3  170.245
 6.2476  29127.2  170.761
 6.2896  29413.7  171.267
 6.3316  29384.4  171.358
 6.3736  29263  170.903
 6.4156  29486  171.438
 6.4576  29544.8  171.224
 6.4996  29444.2  171.41
 6.5416  29714.8  172.332
 6.5836  29481.4  171.887
 6.6256  29934.9  172.76
 6.6676  30292.5  173.355
 6.7096  30463.9  174.717
 6.7516  30702.3  175.052
 6.7936  30690  174.413
 6.8356  30772.3  174.735
 6.8776  31072.9  176.404
 6.9196  31273.2  177.374
 6.9616  31538.5  177.562
 7.0036  32352.7  179.495
 7.0456  31998.3  177.797
 7.0876  31908.1  179.245
 7.1296  31697.2  177.784
 7.1716  32052.8  178.315
 7.2136  31480.1  176.487
 7.2556  32057.8  178.265
 7.2976  31919.3  178.383
 7.3396  31794.7  178.249
 7.3816  31810.4  178.508
 7.4236  32216.3  178.936
 7.4656  32378.9  178.838
 7.5076  32603.4  179.611
 7.5496  32398.3  179.595
 7.5916  32581.1  180.135
 7.6336  33063.6  181.358
 7.6756  32936.9  180.856
 7.7176  33510.7  182.754
 7.7596  33275.1  183.342
 7.8016  34121.7  187.925
 7.8436  33429.1  182.642
 7.8856  34050.3  183.933
 7.9276  34281.9  184.964
 7.9696  34604.8  186.142
 8.0116  35454.7  186.958
 8.0536  35668  187.759
 8.0956  35792.3  189.279
 8.1376  36096.8  189.553
 8.1796  36467.1  191.064
 8.2216  37237.8  191.803
 8.2636  37091.6  191.68
 8.3056  36961.2  192.112
 8.3476  37830.7  193.68
 8.3896  37379.5  192.601
 8.4316  37888.9  194.08
 8.4736  37744.8  193.179
 8.5156  37594.6  193.07
 8.5576  37392.6  193.521
 8.5996  37262.4  192.058
 8.6416  36900.5  192.383
 8.6836  36566.2  191.346
 8.7256  37336.8  192.786
 8.7676  37358.6  195.8
 8.8096  37590.5  193.689
 8.8516  37309.1  192.532
 8.8936  37434.2  192.806
 8.9356  37389.1  193.026
 8.9776  37448.6  193.256
 9.0196  37451.5  192.935
 9.0616  37153.9  191.661
 9.1036  36854.2  192.069
 9.1456  36163.7  189.58
 9.1876  36579.4  190.616
 9.2296  36355.3  189.465
 9.2716  36334.6  189.443
 9.3136  36170.2  189.024
 9.3556  36710.9  190.401
 9.3976  35354.1  187.358
 9.4396  35659.1  188.08
 9.4816  35235.3  186.825
 9.5236  35222.2  186.677
 9.5656  35256.6  187.134
 9.6076  34147.1  184.688
 9.6496  34655.9  185.937
 9.6916  34260.3  184.845
 9.7336  34253.9  184.619
 9.7756  34078.7  185.39
 9.8176  33746  184.001
 9.8596  33961.9  183.005
 9.9016  33558.5  181.915
 9.9436  33212.3  180.88
 9.9856  32897.8  180.299
 10.0276  32413.6  180.048
 10.0696  32659.3  179.764
 10.1116  31883.3  177.874
 10.1536  31901.2  178.074
 10.1956  31373.9  176.215
 10.2376  31109.7  174.977
 10.2796  31199.1  175.338
 10.3216  30933.2  174.877
 10.3636  30757.6  174.414
 10.4056  30240.1  173.341
 10.4476  30458.6  173.574
 10.4896  30578.8  173.363
 10.5316  30069.8  172.647
 10.5736  29894.2  172.556
 10.6156  29665.1  171.647
 10.6576  29630.1  170.088
 10.6996  29421.9  170.205
 10.7416  28824.7  168.68
 10.7836  28523.8  168.479
 10.8256  28011.3  167.385
 10.8676  28113.5  167.232
 10.9096  27945.2  166.762
 10.9516  27531.3  164.459
 10.9936  27706.2  165.195
 11.0356  27560.7  165.366
 11.0776  27528.5  164.601
 11.1196  26934.5  163.586
 11.1616  26782.9  162.793
 11.2036  27039.9  163.42
 11.2456  26907.1  163.737
 11.2876  27234  164.453
 11.3296  26430.7  161.915
 11.3716  27104.1  163.652
 11.4136  27197.4  164.825
 11.4556  27564.4  165.594
 11.4976  28308  166.763
 11.5396  27571.8  164.755
 11.5816  26945.9  163.325
 11.6236  26369.2  161.786
 11.6656  26523.7  161.418
 11.7076  25632  159.507
 11.7496  25488.5  163.093
 11.7916  25387.1  157.995
 11.8336  25210.7  158.343
 11.8756  25047.8  157.384
 11.9176  25281.1  157.776
 11.9596  25137.4  157.507
 12.0016  24768.9  157.125
 12.0436  25087.6  157.576
 12.0856  24454.5  156.082
 12.1276  24465.9  156.063
 12.1696  24387.9  154.919
 12.2116  24557.2  155.455
 12.2536  24502.3  156.115
 12.2956  24176.8  154.407
 12.3376  24459.7  155.523
 12.3796  24265.8  155.391
 12.4216  24331.6  154.785
 12.4636  24124.8  155.068
 12.5056  24357.8  155.076
 12.5476  24437.2  154.844
 12.5896  24065.7  154.298
 12.6316  24228.6  154.982
 12.6736  23949.2  154.572
 12.7156  24311.2  155.577
 12.7576  24229.4  155.564
 12.7996  24398.1  154.735
 12.8416  24034.9  154.638
 12.8836  24425.5  155.718
 12.9256  24933  156.349
 12.9676  24772.7  156.243
 13.0096  24983.5  158.05
 13.0516  24834.3  156.592
 13.0936  25100.4  157.844
 13.1356  24937  156.288
 13.1776  24470  155.832
 13.2196  24759.7  156.389
 13.2616  24598.5  156.198
 13.3036  24703.6  156.493
 13.3456  24535.5  156.307
 13.3876  24988.8  157.022
 13.4296  24684.3  156.223
 13.4716  24823.7  156.292
 13.5136  24802  156.339
 13.5556  24704  156.675
 13.5976  24855.6  157.329
 13.6396  24739.6  156.312
 13.6816  24832  157.079
 13.7236  25280.7  158.076
 13.7656  26930.5  163.616
 13.8076  27377.9  163.584
 13.8496  27159.4  163.652
 13.8916  25034.2  158.255
 13.9336  24471.6  155.717
 13.9756  24356.8  154.732
 14.0176  24077.8  154.522
 14.0596  24294.6  155.147
 14.1016  24022.6  154.701
 14.1436  24066.6  153.972
 14.1856  23322.1  151.862
 14.2276  23431.2  152.705
 14.2696  23420.8  152.517
 14.3116  22795.6  150.372
 14.3536  22648.5  150.052
 14.3956  22664.7  149.828
 14.4376  22919.2  150.458
 14.4796  22776.2  149.985
 14.5216  22423.6  149.614
 14.5636  22219.2  148.495
 14.6056  22582.9  149.263
 14.6476  22228.4  147.324
 14.6896  22071.7  147.353
 14.7316  21712.2  147.2
 14.7736  21542.4  145.748
 14.8156  21318  145.012
 14.8576  21386.8  145.1
 14.8996  21050.7  145.158
 14.9416  20532.6  143.378
 14.9836  20490.6  143.215
 15.0256  19940.3  140.19
 15.0676  19914.8  140.412
 15.1096  19718.7  139.454
 15.1516  19621.8  139.669
 15.1936  19610.7  139.061
 15.2356  19191.6  137.842
 15.2776  19097.6  137.095
 15.3196  18742.6  136.805
 15.3616  18747.1  136.58
 15.4036  18665.3  136.137
 15.4456  19012.6  137.05
 15.4876  18598.9  135.236
 15.5296  18327.5  134.524
 15.5716  18195.5  133.649
 15.6136  18220.7  134.062
 15.6556  18021.5  132.579
 15.6976  18108.8  133.191
 15.7396  18037.1  133.317
 15.7816  17919.2  132.395
 15.8236  17515.8  131.583
 15.8656  17594.1  131.671
 15.9076  17372.9  130.669
 15.9496  18164.7  136.457
 15.9916  17866.9  135.761
 16.0336  17917.6  132.775
 16.0756  17730.4  132.408
 16.1176  17571.3  131.9
 16.1596  17029.4  131.01
 16.2016  17145  130.218
 16.2436  17004.6  130.066
 16.2856  16936.8  129.329
 16.3276  16774.9  129.14
 16.3696  17151.2  130.404
 16.4116  16923.1  129.968
 16.4536  17101.4  130.47
 16.4956  17240.1  130.731
 16.5376  16909.2  129.655
 16.5796  16885.9  128.93
 16.6216  16860.1  129.091
 16.6636  16554.4  128.115
 16.7056  16661.7  128.389
 16.7476  16907.9  128.852
 16.7896  16758.5  129.034
 16.8316  16801  129.179
 16.8736  16944.9  129.996
 16.9156  16642.7  129.155
 16.9576  16425.8  129.107
 16.9996  16426.9  129.578
 17.0416  16712.4  129.065
 17.0836  16481.7  127.934
 17.1256  16314  127.289
 17.1676  16291.9  127.17
 17.2096  16350.2  127.286
 17.2516  16078.1  126.009
 17.2936  16227.3  126.948
 17.3356  15836.2  125.401
 17.3776  15968.5  126.1
 17.4196  15854.4  125.348
 17.4616  15789.4  125.003
 17.5036  15401.5  123.815
 17.5456  15480.7  124.782
 17.5876  15591.2  124.262
 17.6296  15505.3  123.744
 17.6716  15655.5  124.933
 17.7136  15538.1  124.596
 17.7556  15505.3  124.765
 17.7976  15369.2  123.937
 17.8396  15167.8  122.634
 17.8816  15107.9  122.952
 17.9236  15219  123.192
 17.9656  15021  122.913
 18.0076  15118.5  122.899
 18.0496  15123.9  122.045
 18.0916  15261.1  123.155
 18.1336  15040.5  122.36
 18.1756  15367.2  123.227
 18.2176  14850.7  121.351
 18.2596  14799.8  120.864
 18.3016  15046.8  122.138
 18.3436  14987.8  121.903
 18.3856  14879.4  121.591
 18.4276  14777.9  120.862
 18.4696  14660.7  120.466
 18.5116  14761.3  121.156
 18.5536  14774.1  121.576
 18.5956  14425.9  119.697
 18.6376  14378.2  119.892
 18.6796  14608.2  120.165
 18.7216  14581.7  120.545
 18.7636  14573  120.522
 18.8056  14356  119.542
 18.8476  14123.8  119.191
 18.8896  14364.5  119.541
 18.9316  14456.9  119.91
 18.9736  14387.2  119.306
 19.0156  14314.7  119.432
 19.0576  14367.7  118.485
 19.0996  14592  120.14
 19.1416  14364.6  119.6
 19.1836  14260.4  118.763
 19.2256  14159.9  118.57
 19.2676  14203.6  118.838
 19.3096  14221.5  119.162
 19.3516  14077.9  118.519
 19.3936  14103.4  118.515
 19.4356  14314.7  119.286
 19.4776  14323.8  119.413
 19.5196  14308.6  119.199
 19.5616  14112.3  118.642
 19.6036  14056.1  117.897
 19.6456  14066.9  118.058
 19.6876  14092.9  117.804
 19.7296  14397.6  119.545
 19.7716  14268.8  119.18
 19.8136  14530.8  120.469
 19.8556  14684.1  120.567
 19.8976  14817.2  121.184
 19.9396  14922.6  121.187
 19.9816  14855.3  121.169
 20.0236  14860.5  121.383
 20.0656  14571.3  120.192
 20.1076  14379.9  119.889
 20.1496  14072.7  118.593
 20.1916  14116.5  118.304
 20.2336  13823.6  116.989
 20.2756  13810  117.361
 20.3176  13545.5  115.981
 20.3596  13587.9  116.15
 20.4016  13745.4  116.618
 20.4436  13541.9  116.313
 20.4856  13622.8  116.457
 20.5276  13475.6  116.289
 20.5696  13638.7  116.423
 20.6116  13429.9  115.81
 20.6536  13437.9  115.36
 20.6956  13311.3  114.947
 20.7376  13337.2  115.261
 20.7796  13219.2  114.45
 20.8216  13579  115.706
 20.8636  13405.5  115.349
 20.9056  13187.3  114.331
 20.9476  13253.8  114.479
 20.9896  13489.9  115.359
 21.0316  13263.7  114.271
 21.0736  13288.8  114.914
 21.1156  13150.7  114.473
 21.1576  13281.7  115.085
 21.1996  13234.1  114.858
 21.2416  13246.8  114.747
 21.2836  13148.4  114.285
 21.3256  13055.3  113.959
 21.3676  13164.5  113.955
 21.4096  13123.2  114.102
 21.4516  12968.9  113.311
 21.4936  12799.1  112.83
 21.5356  12960.1  113.486
 21.5776  13048.6  113.696
 21.6196  12899.5  113.089
 21.6616  12862.4  113.01
 21.7036  13024.6  113.493
 21.7456  13087.9  113.843
 21.7876  12879.8  112.695
 21.8296  12776.5  112.092
 21.8716  12867.1  112.704
 21.9136  12955.9  113.306
 21.9556  12815.8  112.366
 21.9976  12634.7  111.6
 22.0396  12784.2  112.514
 22.0816  12717  112.747
 22.1236  12840.2  112.747
 22.1656  12873.3  113.039
 22.2076  12544.1  111.037
 22.2496  12490  110.822
 22.2916  12634.2  111.35
 22.3336  12491.8  111.436
 22.3756  12484.1  111.123
 22.4176  12535.5  111.21
 22.4596  12249.5  110.517
 22.5016  12331.3  110.39
 22.5436  12585.2  111.398
 22.5856  12585.2  111.64
 22.6276  12794.2  112.693
 22.6696  12657  112.451
 22.7116  12571.9  111.581
 22.7536  12633  111.83
 22.7956  12604.5  111.036
 22.8376  12319.6  110.291
 22.8796  12528.7  111.021
 22.9216  12666.9  112.178
 22.9636  12511  110.64
 23.0056  12564.4  111.01
 23.0476  12650  111.965
 23.0896  12867.3  112.294
 23.1316  12589.7  111.512
 23.1736  12661  114.788
 23.2156  12638.6  112.066
 23.2576  12956.7  113.604
 23.2996  12669.3  112.11
 23.3416  12721.9  112.874
 23.3836  12712.1  112.053
 23.4256  12926.1  113.111
 23.4676  12621.8  111.471
 23.5096  12747.9  112.688
 23.5516  12664.3  111.614
 23.5936  12886.9  113.515
 23.6356  12940.2  113.409
 23.6776  12702.8  112.574
 23.7196  12474.4  111.136
 23.7616  12698.7  112.048
 23.8036  12784.2  112.483
 23.8456  12696.9  111.636
 23.8876  12541.2  111.314
 23.9296  12456.8  111.43
 23.9716  12436.6  110.537
 24.0136  12524  111.838
 24.0556  12642.7  112.074
 24.0976  12266  110.211
 24.1396  12200.7  112.538
 24.1816  12203.9  110.971
 24.2236  12414.5  111.535
 24.2656  12333.6  110.646
 24.3076  12255.7  110.571
 24.3496  12173.2  110.067
 24.3916  12218.3  110.33
 24.4336  12190.9  110.412
 24.4756  12092.6  109.849
 24.5176  11891.4  108.55
 24.5596  11952  108.952
 24.6016  11899.9  109.017
 24.6436  12226.4  110.007
 24.6856  12012.2  108.783
 24.7276  11870.8  108.456
 24.7696  11860.6  108.521
 24.8116  11735.7  108.128
 24.8536  11640.8  107.698
 24.8956  11645.3  107.443
 24.9376  11483.7  106.629
 24.9796  11458  106.876
 25.0216  11536.7  107.355
 25.0636  11537.9  107.011
 25.1056  11342.4  106.79
 25.1476  11460.7  108.998
 25.1896  11269.8  106.592
 25.2316  11388.7  106.429
 25.2736  11244.4  105.399
 25.3156  11250.1  105.508
 25.3576  11192.7  105.67
 25.3996  11402.4  106.646
 25.4416  11334.9  106.3
 25.4836  11006.4  105.264
 25.5256  11145.9  105.294
 25.5676  11135  104.97
 25.6096  11125.1  105.503
 25.6516  11164.8  105.189
 25.6936  11141.8  105.398
 25.7356  11192.6  105.775
 25.7776  11161.3  105.227
 25.8196  11037.4  104.877
 25.8616  10978.8  104.532
 25.9036  11080.1  104.453
 25.9456  11040  104.877
 25.9876  10966.2  104.586
 26.0296  11088.4  104.679
 26.0716  11150.5  105.403
 26.1136  11140.4  105.293
 26.1556  11092.2  104.438
 26.1976  10946.1  104.684
 26.2396  11063.7  104.383
 26.2816  11021.7  104.805
 26.3236  11103.2  105.349
 26.3656  11086.1  104.986
 26.4076  11041.2  104.985
 26.4496  11158.6  105.13
 26.4916  11199  105.215
 26.5336  11394.9  106.472
 26.5756  11701.3  107.777
 26.6176  11024.4  104.629
 26.6596  11096.4  105.287
 26.7016  10769.4  103.483
 26.7436  11003.2  104.732
 26.7856  10687.1  103.201
 26.8276  10770.6  103.574
 26.8696  10786.4  103.52
 26.9116  10591.1  102.517
 26.9536  10574  102.481
 26.9956  10720.2  103.222
 27.0376  10679.9  103.253
 27.0796  10742.9  103.277
 27.1216  10643.1  102.847
 27.1636  10465.2  102.167
 27.2056  10440.6  101.932
 27.2476  10440.2  101.909
 27.2896  10481.3  102.24
 27.3316  10470.5  101.901
 27.3736  10450.8  102.077
 27.4156  10440.9  101.869
 27.4576  10490.7  102.328
 27.4996  10482.3  101.892
 27.5416  10362.9  101.624
 27.5836  10331.2  101.3
 27.6256  10430.5  101.969
 27.6676  10367.3  101.65
 27.7096  10412  101.745
 27.7516  10368.9  101.68
 27.7936  10632.3  103.118
 27.8356  10502.9  102.095
 27.8776  10529.7  102.294
 27.9196  10143.9  100.256
 27.9616  10331.9  101.386
 28.0036  10261.1  101
 28.0456  10124.7  100.463
 28.0876  10113.8  100.487
 28.1296  10079.2  100.153
 28.1716  10238.2  100.963
 28.2136  10316.5  101.311
 28.2556  10255  101.123
 28.2976  10027.9  99.9929
 28.3396  10021  99.7182
 28.3816  10059.3  99.9196
 28.4236  10015.7  99.8565
 28.4656  9980.02  99.7132
 28.5076  10003.8  99.4769
 28.5496  10016.2  99.7977
 28.5916  10096  100.006
 28.6336  10138.3  100.561
 28.6756  10143.7  99.7693
 28.7176  9941.78  99.3237
 28.7596  9786.24  98.4444
 28.8016  9892.5  99.0098
 28.8436  9771.71  98.6475
 28.8856  10056.1  99.9224
 28.9276  9879.97  99.2869
 28.9696  9901.04  99.0383
 29.0116  9808.61  98.7717
 29.0536  9724.29  98.556
 29.0956  9790.39  98.5872
 29.1376  9800.94  98.6147
 29.1796  9813.23  98.7275
 29.2216  9751.29  98.2556
 29.2636  9773.44  98.4351
 29.3056  9814.91  98.4336
 29.3476  9773.86  98.7479
 29.3896  9822.23  99.1118
 29.4316  9580.5  97.2145
 29.4736  9557.28  97.1593
 29.5156  9748.22  98.042
 29.5576  9578.04  97.9233
 29.5996  9496.57  96.7714
 29.6416  9428.37  96.5399
 29.6836  9535.33  97.0141
 29.7256  9384.53  96.8036
 29.7676  9532.15  97.225
 29.8096  9400.01  96.4911
 29.8516  9434.14  96.9939
 29.8936  9646.8  98.1769
 29.9356  9475.09  97.0554
 29.9776  9440.61  97.0276
 30.0196  9485.05  96.6472
 30.0616  9362.34  96.3932
 30.1036  9589.66  97.3816
 30.1456  9416  96.7254
 30.1876  9448.32  96.872
 30.2296  9211.46  95.6014
 30.2716  9430.3  96.366
 30.3136  9530.58  97.7381
 30.3556  9687.23  98.5306
 30.3976  9558.36  99.3914
 30.4396  9837.63  98.1497
 30.4816  9810.99  97.6214
 30.5236  9739.78  97.2624
 30.5656  9600.74  97.234
 30.6076  9795.18  97.6187
 30.6496  9683.54  97.463
 30.6916  9429.37  96.2707
 30.7336  9650.93  97.5337
 30.7756  9498.39  96.8473
 30.8176  9538.62  96.976
 30.8596  9490.22  96.4852
 30.9016  9584.26  97.3272
 30.9436  9588.9  97.091
 30.9856  9686.56  97.7141
 31.0276  9453.56  96.1516
 31.0696  9435.51  96.6195
 31.1116  9435.66  96.5856
 31.1536  9367.29  96.1178
 31.1956  9430.78  96.5273
 31.2376  9283.64  95.7943
 31.2796  9482.27  96.3542
 31.3216  9361.7  95.6561
 31.3636  9441.61  96.7707
 31.4056  9388.07  97.823
 31.4476  9525.94  96.413
 31.4896  9431.4  96.4389
 31.5316  9434.45  95.8519
 31.5736  9601.97  96.5305
 31.6156  9673.41  96.8952
 31.6576  9607.61  96.63
 31.6996  9677.22  96.6451
 31.7416  9436.41  96.5395
 31.7836  9510.08  95.9131
 31.8256  9415.9  95.6957
 31.8676  9476.81  95.9964
 31.9096  9338.66  95.6752
 31.9516  9321.47  95.7524
 31.9936  9192.26  94.9063
 32.0356  9404.89  96.0455
 32.0776  9395.44  95.8825
 32.1196  9333.05  95.6819
 32.1616  9386.26  95.3885
 32.2036  9359.82  95.7846
 32.2456  9343.17  96.081
 32.2876  9277.45  95.2337
 32.3296  9272.06  95.1727
 32.3716  9039.97  94.077
 32.4136  9071.28  94.4536
 32.4556  9176.43  94.3741
 32.4976  9071.19  93.7475
 32.5396  9103.13  93.976
 32.5816  9126.36  94.223
 32.6236  9083.81  94.058
 32.6656  9228.72  95.3613
 32.7076  9019.11  93.9254
 32.7496  9040.39  93.7057
 32.7916  9183.17  94.3964
 32.8336  9004.08  93.5759
 32.8756  9259.19  94.6096
 32.9176  8950.64  93.5009
 32.9596  9025.7  93.9697
 33.0016  9021.51  93.723
 33.0436  9070.73  94.1511
 33.0856  9035.18  94.0568
 33.1276  8998.51  93.5971
 33.1696  9179.81  94.3637
 33.2116  9033.85  93.8462
 33.2536  9061.85  93.9711
 33.2956  8976.09  93.6249
 33.3376  9014.61  93.5601
 33.3796  9050.22  93.9676
 33.4216  8985.04  93.2142
 33.4636  8956.17  93.2199
 33.5056  8824.55  92.7745
 33.5476  8948.33  93.4066
 33.5896  8980.02  93.3611
 33.6316  8929.77  93.4105
 33.6736  8746.57  92.6941
 33.7156  8763.76  92.8196
 33.7576  8950.6  93.4349
 33.7996  9053.55  93.7273
 33.8416  8665.28  91.8875
 33.8836  8749.39  92.1078
 33.9256  9067.56  93.8241
 33.9676  8893.12  92.8094
 34.0096  8788.23  92.5817
 34.0516  8779.94  92.1737
 34.0936  8716  92.1084
 34.1356  8767.86  92.1134
 34.1776  8747.07  92.0061
 34.2196  8732.67  92.1204
 34.2616  8619.33  91.6526
 34.3036  8688.6  92.2695
 34.3456  8772.66  92.4652
 34.3876  8963.4  93.4417
 34.4296  8796.84  92.2495
 34.4716  8780.8  92.3215
 34.5136  8709.11  92.1315
 34.5556  8585.63  91.7381
 34.5976  8806.2  92.7178
 34.6396  8706  91.8991
 34.6816  8730.18  92.1327
 34.7236  8824.09  92.3968
 34.7656  8775.58  92.3551
 34.8076  8629.24  91.9187
 34.8496  8580.47  91.5048
 34.8916  8594.09  91.4472
 34.9336  8757.98  92.2913
 34.9756  8654.6  91.667
 35.0176  8580.93  91.8047
 35.0596  8722.24  92.375
 35.1016  8717.75  92.1044
 35.1436  8797.78  92.2103
 35.1856  8552.11  91.0308
 35.2276  8557.61  91.2352
 35.2696  8672.5  92.0346
 35.3116  8577.55  91.644
 35.3536  8547.71  91.1819
 35.3956  8603.46  91.1977
 35.4376  8614.25  91.8183
 35.4796  8489.41  91.1859
 35.5216  8581.75  91.6492
 35.5636  8317.97  90.9678
 35.6056  8419.02  90.5446
 35.6476  8566.76  91.2368
 35.6896  8571.31  91.3483
 35.7316  8378.32  90.2894
 35.7736  8416.89  90.6812
 35.8156  8525.81  91.2748
 35.8576  8541.19  91.6047
 35.8996  8565.76  91.7079
 35.9416  8519.6  90.9633
 35.9836  8488.8  91.1371
 36.0256  8786.92  92.7383
 36.0676  8738.75  92.2343
 36.1096  8498.36  91.1073
 36.1516  8616.28  91.6282
 36.1936  8478.82  90.713
 36.2356  8544.75  91.7455
 36.2776  8392.1  90.4005
 36.3196  8411.03  90.1636
 36.3616  8526.68  90.9205
 36.4036  8391.7  90.2589
 36.4456  8448.03  90.7763
 36.4876  8320.13  90.0278
 36.5296  8507.85  91.0708
 36.5716  8344.62  90.9797
 36.6136  8309.34  89.5633
 36.6556  8375.73  90.1219
 36.6976  8137.12  89.3201
 36.7396  8187.85  89.3245
 36.7816  8152.94  89.5129
 36.8236  8216.15  89.7797
 36.8656  8186.51  89.6887
 36.9076  8158.48  89.4151
 36.9496  8226.89  89.7775
 36.9916  8151.1  88.9881
 37.0336  8247.41  89.831
 37.0756  8229.69  89.5271
 37.1176  8108.88  89.1381
 37.1596  8059.3  88.8704
 37.2016  8129.62  89.4837
 37.2436  8125.32  88.7669
 37.2856  8076  88.7537
 37.3276  8153.78  88.5436
 37.3696  8012.11  88.6463
 37.4116  8083.06  88.9453
 37.4536  8011.97  88.4202
 37.4956  8054.19  88.6989
 37.5376  8295.68  91.6303
 37.5796  8130.97  90.6386
 37.6216  8144.09  88.975
 37.6636  8258.74  89.4895
 37.7056  8115.2  88.9015
 37.7476  8374.57  89.8461
 37.7896  8087.86  88.8013
 37.8316  8198.71  89.5628
 37.8736  8260.81  89.421
 37.9156  8181.94  88.9904
 37.9576  8175.5  88.8678
 37.9996  8153.18  88.4565
 38.0416  8108.2  89.0258
 38.0836  8104.82  88.9045
 38.1256  8036.4  88.5048
 38.1676  7863.06  87.6554
 38.2096  8181.89  89.0267
 38.2516  8119.28  88.9055
 38.2936  8185.44  89.0712
 38.3356  8241.05  89.3017
 38.3776  8064.81  88.5873
 38.4196  7981.16  87.9839
 38.4616  8192.84  89.3946
 38.5036  8227.72  89.4276
 38.5456  7886.49  88.3752
 38.5876  8063.76  89.376
 38.6296  8082.24  88.435
 38.6716  8084.17  88.2641
 38.7136  8033.15  87.9275
 38.7556  8118.63  88.9076
 38.7976  8109.26  88.7808
 38.8396  8054.79  88.9318
 38.8816  8059.09  88.7638
 38.9236  8081.49  88.6808
 38.9656  8082.77  88.5883
 39.0076  8093.11  88.0518
 39.0496  8227.74  89.3512
 39.0916  8121.52  88.4122
 39.1336  8071.61  88.5502
 39.1756  8085.75  88.6941
 39.2176  7969.29  88.5834
 39.2596  8149.43  89.5071
 39.3016  8102.32  88.8283
 39.3436  8018.87  88.7791
 39.3856  8095.22  88.6426
 39.4276  8182.15  89.6347
 39.4696  8056.84  88.5634
 39.5116  8087.87  89.2506
 39.5536  8052.2  89.4684
 39.5956  8042.12  88.5194
 39.6376  8010.75  88.3488
 39.6796  7949.41  87.7442
 39.7216  7960.6  87.9182
 39.7636  8013.34  88.774
 39.8056  8037.81  88.6961
 39.8476  7890.79  88.1275
 39.8896  8051.05  88.6468
 39.9316  8038.38  88.8264
 39.9736  8028.64  88.3456
 40.0156  7920.27  87.5807
 40.0576  8026.34  88.5189
 40.0996  8126.85  88.2504
 40.1416  7966.29  88.1659
 40.1836  8138.08  89.0041
 40.2256  8030.75  88.4469
 40.2676  7989.03  88.3194
 40.3096  8108.34  88.8999
 40.3516  8080.81  88.8684
 40.3936  8003.28  87.9929
 40.4356  7981.35  88.081
 40.4776  8061.98  88.9237
 40.5196  8147.72  89.535
 40.5616  8180.3  89.3468
 40.6036  8029.84  88.7815
 40.6456  8038.85  88.436
 40.6876  8159.52  89.0908
 40.7296  8006.18  88.3789
 40.7716  8058.09  88.7827
 40.8136  8011.15  88.4735
 40.8556  8166.2  89.4657
 40.8976  8024.16  88.6084
 40.9396  7977.52  88.6831
 40.9816  8075.43  88.5222
 41.0236  7997.04  87.8723
 41.0656  8012.4  88.4924
 41.1076  8011.88  88.2649
 41.1496  8088.98  88.5944
 41.1916  7947.65  88.1331
 41.2336  7979.34  88.3113
 41.2756  7971.35  87.8703
 41.3176  8100.02  89.1878
 41.3596  8016.4  88.4655
 41.4016  7937.21  88.2866
 41.4436  8141.15  89.1934
 41.4856  7987.43  88.5134
 41.5276  8012.81  88.669
 41.5696  7973.11  88.0827
 41.6116  8022.82  88.7512
 41.6536  8030.17  88.6346
 41.6956  8026.45  88.6892
 41.7376  8005.87  88.5975
 41.7796  7845.3  87.5893
 41.8216  8064.98  89.0339
 41.8636  7978.31  88.5048
 41.9056  7927.54  88.0164
 41.9476  8019.54  88.7637
 41.9896  8064.78  88.6723
 42.0316  8040.06  88.6179
 42.0736  8039.93  88.7243
 42.1156  8045.83  88.5913
 42.1576  8006.38  88.4811
 42.1996  8072.67  88.9799
 42.2416  8053.39  88.4509
 42.2836  7935.76  87.9255
 42.3256  8045.05  88.6326
 42.3676  8074.78  88.5955
 42.4096  8009.49  88.2083
 42.4516  8118.16  88.8957
 42.4936  7830.28  87.3726
 42.5356  7848.44  87.6139
 42.5776  7978.4  88.2755
 42.6196  7924.54  88.0305
 42.6616  7804.9  87.5344
 42.7036  8101.56  88.552
 42.7456  7995.87  88.3342
 42.7876  7883.74  87.8048
 42.8296  7909.35  87.7904
 42.8716  7873.93  87.7502
 42.9136  7921.37  87.8034
 42.9556  7938.14  88.0322
 42.9976  7996.09  88.3118
 43.0396  7949.76  87.7835
 43.0816  7815.37  87.4275
 43.1236  7827.86  87.5407
 43.1656  7926.07  87.9118
 43.2076  7824.82  87.4662
 43.2496  7818.72  87.2482
 43.2916  7900.4  88.0692
 43.3336  7826.38  87.4848
 43.3756  7923.82  87.7893
 43.4176  7831.32  87.3556
 43.4596  7817.82  87.1293
 43.5016  7769.97  87.269
 43.5436  7823.56  87.4745
 43.5856  7754.97  87.1199
 43.6276  7812.53  87.3258
 43.6696  7739.09  87.1773
 43.7116  7936.73  87.7791
 43.7536  7904.37  88.0999
 43.7956  7756.09  88.4839
 43.8376  7691.52  86.628
 43.8796  7691.29  86.7072
 43.9216  7744.72  86.9321
 43.9636  7726.49  86.9371
 44.0056  7702.24  87.0329
 44.0476  7699.05  86.6425
 44.0896  7599.87  86.4274
 44.1316  7744.69  86.7643
 44.1736  7645.69  86.3378
 44.2156  7648.87  86.2076
 44.2576  7798  87.373
 44.2996  7654.73  86.539
 44.3416  7711.69  86.6158
 44.3836  7519.39  85.854
 44.4256  7597.72  85.9467
 44.4676  7425.1  85.1163
 44.5096  7669.14  86.6521
 44.5516  7592.04  86.1756
 44.5936  7551.08  85.8994
 44.6356  7637.03  86.1229
 44.6776  7572.92  86.0769
 44.7196  7610.9  86.6043
 44.7616  7656.83  88.2022
 44.8036  7632.56  86.4837
 44.8456  7742.83  87.3149
 44.8876  7665.06  86.7089
 44.9296  7783.51  86.8194
 44.9716  7856.27  87.6665
 45.0136  7693.75  86.6933
 45.0556  7737.57  86.9199
 45.0976  7639.42  86.5276
 45.1396  7640.18  86.28
 45.1816  7551.74  85.7104
 45.2236  7785.45  86.9416
 45.2656  7563.13  86.1844
 45.3076  7640.54  86.394
 45.3496  7629.82  86.6558
 45.3916  7587.2  86.6909
 45.4336  7780.43  87.6323
 45.4756  7606.21  86.4854
 45.5176  7701.23  86.6477
 45.5596  7766.89  87.1303
 45.6016  7603.73  86.6345
 45.6436  7577.47  85.6633
 45.6856  7623.85  86.5834
 45.7276  7529.84  87.3658
 45.7696  7603.31  87.4733
 45.8116  7647.05  87.1437
 45.8536  7603.43  86.7852
 45.8956  7649.09  86.3966
 45.9376  7667.05  85.9531
 45.9796  7613.84  86.3482
 46.0216  7694.41  87.1506
 46.0636  7730.27  86.4822
 46.1056  7654.65  86.048
 46.1476  7743.2  87.1488
 46.1896  7598.96  86.4802
 46.2316  7630.25  86.5129
 46.2736  7602.29  86.7426
 46.3156  7600.92  86.3194
 46.3576  7579.52  86.3998
 46.3996  7557.49  86.4364
 46.4416  7677.16  86.6821
 46.4836  7512.36  86.1123
 46.5256  7578.45  86.4264
 46.5676  7618.38  86.7631
 46.6096  7596.93  86.5721
 46.6516  7661.43  85.9693
 46.6936  7684.6  86.6079
 46.7356  7609.68  86.2815
 46.7776  7543.47  86.7627
 46.8196  7485.55  86.0245
 46.8616  7492.25  86.0075
 46.9036  7361.47  84.9116
 46.9456  7452.65  85.0766
 46.9876  7549.27  85.7064
 47.0296  7519.8  86.2342
 47.0716  7427.05  85.5269
 47.1136  7490.62  85.5711
 47.1556  7507.84  85.5233
 47.1976  7649.68  86.4204
 47.2396  7518.23  86.0765
 47.2816  7435.6  85.2954
 47.3236  7534.1  86.2373
 47.3656  7482.75  85.8678
 47.4076  7348.84  84.9001
 47.4496  7431.83  85.4776
 47.4916  7427.83  85.6472
 47.5336  7544.91  86.1311
 47.5756  7568.87  86.3897
 47.6176  7414.41  85.3971
 47.6596  7475.08  85.4547
 47.7016  7637.8  86.173
 47.7436  7583.03  86.2246
 47.7856  7628.51  86.5093
 47.8276  7494.11  85.7979
 47.8696  7500.13  85.9198
 47.9116  7548.09  85.901
 47.9536  7494.57  85.5378
 47.9956  7394.56  85.6812
 48.0376  7369.86  85.3103
 48.0796  7524.31  86.3231
 48.1216  7498.85  86.0012
 48.1636  7660.69  86.4843
 48.2056  7662.24  86.766
 48.2476  7549.12  86.4365
 48.2896  7507.46  86.1097
 48.3316  7523.12  86.1394
 48.3736  7540.91  86.2624
 48.4156  7464.1  85.6722
 48.4576  7479.47  86.0552
 48.4996  7529.2  85.7811
 48.5416  7538.01  86.1713
 48.5836  7526.39  85.7659
 48.6256  7501.87  85.8444
 48.6676  7585.15  86.8419
 48.7096  7566.04  85.9841
 48.7516  7421.01  85.3128
 48.7936  7289.79  84.6162
 48.8356  7349.91  85.0161
 48.8776  7456.6  86.2203
 48.9196  7615.97  86.4771
 48.9616  7486.44  86.1332
 49.0036  7474.02  86.4198
 49.0456  7447.26  86.2422
 49.0876  7557.03  86.3909
 49.1296  7364.15  85.4638
 49.1716  7285.78  84.8694
 49.2136  7439.22  85.6721
 49.2556  7432  85.6726
 49.2976  7539.51  86.3605
 49.3396  7287.64  84.9594
 49.3816  7576.83  86.0429
 49.4236  7462.5  85.8268
 49.4656  7281.58  84.7963
 49.5076  7415.65  85.3211
 49.5496  7441.95  85.5329
 49.5916  7395.63  85.1831
 49.6336  7373.02  85.2545
 49.6756  7409.25  85.7048
 49.7176  7324.02  85.1521
 49.7596  7403.21  85.3783
 49.8016  7444.73  85.5284
 49.8436  7392.81  85.5372
 49.8856  7305.42  85.0241
 49.9276  7295.9  85.0826
 49.9696  7392.72  85.6287
 50.0116  7399.31  85.7996
 50.0536  7410.33  85.8082
 50.0956  7310.22  85.3028
 50.1376  7352.71  85.241
 50.1796  7294.19  85.1752
 50.2216  7467.19  86.1627
 50.2636  7310.04  84.8603
 50.3056  7263.46  84.7776
 50.3476  7372.29  85.4367
 50.3896  7357.33  85.318
 50.4316  7337.15  85.0229
 50.4736  7236.66  84.6674
 50.5156  7321.04  85.1493
 50.5576  7287.92  84.7107
 50.5996  7293.77  85.0382
 50.6416  7239.5  84.6488
 50.6836  7311.36  85.1275
 50.7256  7319.36  85.0966
 50.7676  7346.13  85.5805
 50.8096  7370.33  85.2345
 50.8516  7244.13  84.9314
 50.8936  7219.54  84.5603
 50.9356  7407.97  85.7739
 50.9776  7264.67  85.0983
 51.0196  7103.8  84.2805
 51.0616  7191.75  84.106
 51.1036  7161.96  84.2988
 51.1456  7196.6  84.4084
 51.1876  7129.44  83.3446
 51.2296  7218.43  84.5132
 51.2716  7136.13  83.7347
 51.3136  7045.51  83.6659
 51.3556  7160.09  83.9537
 51.3976  7115.52  83.8294
 51.4396  6998.36  83.471
 51.4816  7147.17  84.204
 51.5236  7107.94  84.0586
 51.5656  7039.08  83.238
 51.6076  7176.1  84.131
 51.6496  7113.68  83.9625
 51.6916  7101.12  84.2528
 51.7336  6961.74  83.5131
 51.7756  7038.42  83.6536
 51.8176  6993.03  83.5064
 51.8596  7204.76  84.7767
 51.9016  7189.77  84.2798
 51.9436  7170.42  85.6966
 51.9856  7146.72  85.9837
 52.0276  7208.01  84.8027
 52.0696  7287.98  85.338
 52.1116  7115.49  84.4508
 52.1536  7253.49  85.1442
 52.1956  7130.07  83.8696
 52.2376  7296.51  85.0215
 52.2796  7290.95  84.8004
 52.3216  7009.95  83.8489
 52.3636  7069.61  83.7412
 52.4056  6900.89  82.621
 52.4476  7062.67  83.9517
 52.4896  7109.33  84.2783
 52.5316  7112.42  84.3507
 52.5736  7007.6  83.4348
 52.6156  7200.22  84.9903
 52.6576  7058.24  83.565
 52.6996  6820.54  83.1439
 52.7416  6974.2  83.9203
 52.7836  7170.17  84.9814
 52.8256  7077.72  83.6276
 52.8676  6923.47  83.2956
 52.9096  6984.93  83.7319
 52.9516  7055.35  84.5597
 52.9936  7009.41  84.6643
 53.0356  7082.96  84.0719
 53.0776  7083.48  84.359
 53.1196  7065.23  84.3734
 53.1616  7164.39  85.0155
 53.2036  7030.17  84.1783
 53.2456  7121.25  84.8308
 53.2876  6992.76  83.7419
 53.3296  7083.51  84.614
 53.3716  7114.23  84.5482
 53.4136  7109.06  84.6731
 53.4556  7086.12  84.5674
 53.4976  6977.23  83.7402
 53.5396  6892.54  83.6434
 53.5816  7092.59  84.4744
 53.6236  6989.7  84.2189
 53.6656  6962.27  83.6407
 53.7076  7093.24  84.3826
 53.7496  7078.08  84.4384
 53.7916  7098.9  84.7007
 53.8336  6969.91  83.812
 53.8756  6869.9  83.7538
 53.9176  6944.06  83.52
 53.9596  6763.6  83.2364
 54.0016  6711.7  82.2326
 54.0436  6726.94  82.5512
 54.0856  6885.61  82.933
 54.1276  6812.79  82.6904
 54.1696  6728.71  82.3488
 54.2116  6858.63  82.8769
 54.2536  6775.07  82.1753
 54.2956  6744.08  82.0351
 54.3376  6748.67  82.5664
 54.3796  6654.47  81.8831
 54.4216  6786.02  82.7503
 54.4636  6722.01  82.3255
 54.5056  6679.97  81.8698
 54.5476  6758.98  82.6878
 54.5896  6675.9  82.0316
 54.6316  6718.65  82.1303
 54.6736  6697.19  82.0851
 54.7156  6729.45  82.3109
 54.7576  6514.62  80.9625
 54.7996  6696.81  82.2374
 54.8416  6612.11  81.7641
 54.8836  6739.91  82.6473
 54.9256  6673.51  81.9996
 54.9676  6533.42  80.9968
 55.0096  6611.25  81.51
 55.0516  6461.25  80.8119
 55.0936  6611.99  81.4249
 55.1356  6614.2  81.484
 55.1776  6688.39  82.1824
 55.2196  6607.81  81.4787
 55.2616  6729.53  82.439
 55.3036  6485.5  81.0936
 55.3456  6484.46  81.2395
 55.3876  6586.35  81.5951
 55.4296  6475.83  80.9073
 55.4716  6516.96  81.1889
 55.5136  6466.23  80.6363
 55.5556  6737.61  82.3574
 55.5976  6573.3  81.443
 55.6396  6696.87  82.1448
 55.6816  6584.59  81.3084
 55.7236  6460  80.5854
 55.7656  6676.79  81.666
 55.8076  6518.49  80.7044
 55.8496  6524.78  81.0396
 55.8916  6482.05  80.9944
 55.9336  6591.37  81.4826
 55.9756  6511.35  80.8919
 56.0176  6563.99  81.3622
 56.0596  6555.81  81.3002
 56.1016  6362.34  80.1034
 56.1436  6482.95  81.1117
 56.1856  6412.48  80.4154
 56.2276  6580  81.5209
 56.2696  6494.91  80.9712
 56.3116  6622.49  82.1491
 56.3536  6456.74  80.7649
 56.3956  6479.41  80.8836
 56.4376  6430.89  80.6463
 56.4796  6358.12  79.9983
 56.5216  6461.28  81.0227
 56.5636  6369.26  80.0172
 56.6056  6583.59  81.6012
 56.6476  6439.45  80.2892
 56.6896  6604.87  81.7956
 56.7316  6303.31  79.8048
 56.7736  6420.49  80.5538
 56.8156  6404.72  80.4806
 56.8576  6294.21  79.7168
 56.8996  6416.44  80.4019
 56.9416  6397.66  80.5957
 56.9836  6425.98  80.3054
 57.0256  6310.06  79.8633
 57.0676  6450.1  80.8583
 57.1096  6409.54  80.4213
 57.1516  6323.84  79.9267
 57.1936  6412.65  80.2275
 57.2356  6236.17  79.441
 57.2776  6389.15  80.3848
 57.3196  6423.41  80.9349
 57.3616  6408.2  80.3438
 57.4036  6330.58  79.8976
 57.4456  6434.8  80.5633
 57.4876  6407.43  80.2499
 57.5296  6259.19  79.6269
 57.5716  6258  79.6352
 57.6136  6165.21  78.882
 57.6556  6272.04  79.6815
 57.6976  6278.38  79.5475
 57.7396  6234.35  79.6294
 57.7816  6195.17  79.7598
 57.8236  6237.78  79.8055
 57.8656  6294.58  79.8341
 57.9076  6306.31  79.9221
 57.9496  6284.19  80.1484
 57.9916  6315.01  79.8541
 58.0336  6232.3  79.6064
 58.0756  6265.38  79.4605
 58.1176  6344.45  79.9453
 58.1596  6202.15  79.6387
 58.2016  6139.11  78.4466
 58.2436  6129.36  78.7932
 58.2856  6003.91  77.9078
 58.3276  6073.64  78.7276
 58.3696  6010.45  78.0705
 58.4116  6002.19  77.8844
 58.4536  6055.52  78.1147
 58.4956  5985.11  77.8399
 58.5376  6034.92  77.7347
 58.5796  6014.61  78.0257
 58.6216  6126.42  78.5641
 58.6636  6022.69  78.103
 58.7056  6016.65  77.9259
 58.7476  5913.68  77.6953
 58.7896  5977.9  77.7628
 58.8316  5931.36  77.453
 58.8736  6053.24  78.258
 58.9156  6018.75  78.0767
 58.9576  6009.75  78.3415
 58.9996  6059.52  77.9103
 59.0416  6120.64  78.6694
 59.0836  6015.94  77.9065
 59.1256  5979.8  78.3735
 59.1676  5964.5  78.5862
 59.2096  6066.03  78.5565
 59.2516  6007.22  77.7569
 59.2936  5867.33  77.1696
 59.3356  6089.27  78.4928
 59.3776  5962.66  77.8404
 59.4196  5958.78  77.7501
 59.4616  5915.71  77.3314
 59.5036  5899.9  77.2628
 59.5456  6086.48  78.1673
 59.5876  6123.12  78.5946
 59.6296  5952  77.5573
 59.6716  5881.93  77.1566
 59.7136  6004.25  77.9431
 59.7556  5938.05  77.6475
 59.7976  5823.7  76.6431
 59.8396  5927.97  77.2214
 59.8816  5971.06  78.0406
 59.9236  5921.08  77.3637
 59.9656  5897.48  77.4668
 60.0076  6032.34  77.7054
 60.0496  5999.27  77.9942
 60.0916  6047.47  77.7247
 60.1336  5728.82  76.7278
 60.1756  5923.97  79.1966
 60.1996  0.0000000E+00  0.0000000E+00