File: docs/examples/XRD/IS17_D/Data/IS17_D/17_Db_f00004.xye
# /beamlines/bl04/projects/cycle2025-II/20250340211-lsimonelli/DATA/IS17_D/17_Db_f00004.xye : mythproc.py merge -s 0.006 -l 0.5 -f /beamlines/bl04/inhouse/ff/FlatField/ff_20Nov2024rod8mm60s_17keV.raw -b True -c true -o xye /beamlines/bl04/projects/cycle2025-II/20250340211-lsimonelli/DATA/IS17_D/17_Db_00004.dat
# IsMon = [6753935, 6751631, 6750845]  IsPos = [-1.5000, -2.4885, -3.4988]
# Wave = 0.4962  CalPath /beamlines/bl04/projects/cycle2025-II/20250340211-lsimonelli/DATA/Align/Si_Pos1_25keV_f00001.cal
# Date = 2025-09-23_18:49:08 Dt = 4.8000  Bin = 0.0060  <imon> = 6752137 +/- 1311 (Min/Max) 6750845 / 6753935
# icurr 250.4007  mocoIn 1.7084E-05  mocoOut 0.8016  i15 7.06693e+06  imon 6.75214e+06  i7 4.0000  iEMpd_timer 4.8000  iEMpd_1 3.6446E-08  iEMpd_2 7.9505E-08  iEMpd_3 1.8491E-08  iEMpd_4 4.7471E-08  iEMhp_timer 4.8000  iEMhp_1 4.8928E-06  iEMhp_2 -2.4790E-08  iEMhp_3 -2.3540E-08  iEMhp_4 -2.1416E-08
#      9776
 1.5856  43738.2  214.722
 1.6276  50163  226.006
 1.6696  56494.2  238.999
 1.7116  63864.6  254.608
 1.7536  72308.4  269.763
 1.7956  75842.3  276.967
 1.8376  72889.1  271.951
 1.8796  62421.9  249.819
 1.9216  51158  227.058
 1.9636  44726.8  211.972
 2.0056  40438.5  200.266
 2.0476  37153.5  194.064
 2.0896  35869.1  189.562
 2.1316  35300.8  187.151
 2.1736  33349.3  183.347
 2.2156  33984.8  183.6
 2.2576  32536.9  180.289
 2.2996  31128.4  176.992
 2.3416  31518.1  176.675
 2.3836  31039  175.435
 2.4256  30236.9  173.718
 2.4676  29504.3  171.357
 2.5096  29162.8  170.419
 2.5516  27869.2  170.424
 2.5936  27869.3  167.018
 2.6356  27324.7  166.079
 2.6776  27407.1  165.225
 2.7196  26811.9  163.903
 2.7616  26717.7  163.407
 2.8036  26220.7  162.045
 2.8456  26325.1  163.008
 2.8876  25573  160.493
 2.9296  25168.2  159.38
 2.9716  24972.4  158.254
 3.0136  24873.4  158.001
 3.0556  24882.8  158.422
 3.0976  25120.6  158.089
 3.1396  24620.6  157.222
 3.1816  24276  156.057
 3.2236  24287.5  156.084
 3.2656  24103.3  154.552
 3.3076  23842.2  155.172
 3.3496  24180.2  155.437
 3.3916  24364.6  155.605
 3.4336  24723.2  157.334
 3.4756  25243.6  158.911
 3.5176  26087.5  161.318
 3.5596  25545.4  162.632
 3.6016  25701.1  160.2
 3.6436  24742.5  158.282
 3.6856  24625.4  156.218
 3.7276  23585.8  153.955
 3.7696  23541.5  153.782
 3.8116  23123.9  152.513
 3.8536  23186.9  152.66
 3.8956  23044  152
 3.9376  22797.6  151.461
 3.9796  22840.7  151.097
 4.0216  22870.4  150.238
 4.0636  22963.3  152.013
 4.1056  22652.9  150.638
 4.1476  23100.1  152.415
 4.1896  23084.2  152.228
 4.2316  23410.5  153.119
 4.2736  23831.4  154.296
 4.3156  23898.8  154.748
 4.3576  24874.2  157.774
 4.3996  25037.5  158.565
 4.4416  25349.3  159.139
 4.4836  25757.4  160.576
 4.5256  26432.5  163.251
 4.5676  26441.5  163.554
 4.6096  26783.5  163.633
 4.6516  27118.7  163.979
 4.6936  27308.8  165.39
 4.7356  27461.6  165.672
 4.7776  27314.9  165.066
 4.8196  27274.9  165.572
 4.8616  26642.1  163.276
 4.9036  26415.1  162.174
 4.9456  26324.1  162.553
 4.9876  25678.2  160.45
 5.0296  25832.5  160.773
 5.0716  25727.4  161.052
 5.1136  25900.5  161.455
 5.1556  26187  161.811
 5.1976  26720.6  163.429
 5.2396  26426.2  162.23
 5.2816  26807.6  163.858
 5.3236  26651.8  163.085
 5.3656  26142.9  162.445
 5.4076  25985.7  162.099
 5.4496  25717.7  160.768
 5.4916  26061.4  161.584
 5.5336  25959.7  161.289
 5.5756  26109.1  161.751
 5.6176  26103.3  161.193
 5.6596  26405.6  162.939
 5.7016  26398.7  162.341
 5.7436  26454  162.789
 5.7856  26402.9  162.699
 5.8276  26498.8  162.715
 5.8696  26931.1  164.084
 5.9116  26657.7  163.96
 5.9536  27158.9  165.23
 5.9956  27410.7  165.398
 6.0376  27339.2  165.795
 6.0796  27404.9  165.83
 6.1216  27450.8  166.165
 6.1636  27770  166.18
 6.2056  27567.5  166.26
 6.2476  28085.9  167.494
 6.2896  28065.5  167.303
 6.3316  28186.8  167.825
 6.3736  27985.9  167.128
 6.4156  27946.1  166.955
 6.4576  28516.2  168.218
 6.4996  28388  168.319
 6.5416  28491.4  168.747
 6.5836  28507.6  169.033
 6.6256  28481.4  168.521
 6.6676  29115.8  169.956
 6.7096  29131.3  170.841
 6.7516  29497.3  171.573
 6.7936  29650.1  171.43
 6.8356  29646.5  171.522
 6.8776  29838.8  172.87
 6.9196  30029.3  173.809
 6.9616  30613.4  174.906
 7.0036  31056.6  175.863
 7.0456  31031.9  175.095
 7.0876  31122.2  176.923
 7.1296  30890.6  175.511
 7.1716  30927.8  175.155
 7.2136  30598.7  174.002
 7.2556  30695.7  174.435
 7.2976  30912.6  175.543
 7.3396  30419  174.351
 7.3816  30706.4  175.386
 7.4236  31065.6  175.708
 7.4656  31028.6  175.068
 7.5076  31570.9  176.742
 7.5496  30998.8  175.662
 7.5916  31361.4  176.738
 7.6336  31701.1  177.574
 7.6756  31587.3  177.11
 7.7176  32358.4  179.579
 7.7596  31938.3  179.609
 7.8016  32766.9  184.142
 7.8436  32429.4  179.912
 7.8856  32410.1  179.481
 7.9276  33181.2  181.995
 7.9696  33436.8  182.997
 8.0116  34236.1  183.74
 8.0536  34459.8  184.578
 8.0956  34238.9  185.145
 8.1376  34695.2  185.861
 8.1796  35023.7  187.261
 8.2216  35695.9  187.82
 8.2636  35725  188.139
 8.3056  35540.8  188.409
 8.3476  36218  189.526
 8.3896  35946.7  188.897
 8.4316  35994.5  189.188
 8.4736  36463.5  189.893
 8.5156  35947.4  188.817
 8.5576  35586.6  188.813
 8.5996  35626.6  187.821
 8.6416  35457  188.605
 8.6836  35215.9  187.8
 8.7256  35611.9  188.313
 8.7676  35498.6  190.865
 8.8096  35844.6  189.125
 8.8516  36268.6  189.863
 8.8936  35385.3  187.444
 8.9356  35631.7  188.411
 8.9776  35508.6  188.168
 9.0196  35703.2  188.354
 9.0616  35557.9  187.489
 9.1036  34744.1  186.477
 9.1456  34449.5  185.036
 9.1876  34776.8  185.838
 9.2296  34566.4  184.744
 9.2716  34532  184.675
 9.3136  34399.3  184.324
 9.3556  34705.2  185.11
 9.3976  33604.8  182.662
 9.4396  33794.3  183.085
 9.4816  33583.9  182.366
 9.5236  33242.3  181.345
 9.5656  33214.7  181.62
 9.6076  32326.4  179.699
 9.6496  32630.7  180.422
 9.6916  32329  179.536
 9.7336  32629  180.148
 9.7756  32282.5  180.405
 9.8176  32060.9  179.328
 9.8596  32090  177.87
 9.9016  31781.2  177.019
 9.9436  31106.8  174.881
 9.9856  31007.3  175.03
 10.0276  30698.2  175.214
 10.0696  31223.8  175.752
 10.1116  29990.1  172.498
 10.1536  30215.3  172.808
 10.1956  29644.5  171.274
 10.2376  29571.9  170.577
 10.2796  29481.6  170.425
 10.3216  28898.2  168.873
 10.3636  28875.4  168.979
 10.4056  28164.3  167.286
 10.4476  28600  168.183
 10.4896  28532.6  167.431
 10.5316  28124.1  166.614
 10.5736  27598  165.787
 10.6156  27621.7  165.611
 10.6576  27518.1  163.9
 10.6996  27369  164.149
 10.7416  26838.4  162.759
 10.7836  26511.4  162.419
 10.8256  26149.7  161.728
 10.8676  26289.1  161.717
 10.9096  26067.4  161.056
 10.9516  25848.6  159.349
 10.9936  25721.8  159.166
 11.0356  25767.1  159.901
 11.0776  25580.8  158.668
 11.1196  25115.7  157.967
 11.1616  24863.4  156.853
 11.2036  25002.6  157.144
 11.2456  24757.3  157.055
 11.2876  25233.3  158.278
 11.3296  24704.2  156.538
 11.3716  24979  157.146
 11.4136  25342.4  159.111
 11.4556  25186.7  158.29
 11.4976  25949.7  159.669
 11.5396  26136.2  160.413
 11.5816  26214.6  161.069
 11.6236  25563.7  159.524
 11.6656  25500.9  158.264
 11.7076  24319.5  155.371
 11.7496  24255.7  159.097
 11.7916  24228  154.34
 11.8336  23618.5  153.298
 11.8756  23594  152.747
 11.9176  23753.9  152.944
 11.9596  23844.8  153.396
 12.0016  23482.5  152.988
 12.0436  23719.2  153.216
 12.0856  23153.2  151.859
 12.1276  23264.5  152.18
 12.1696  23183.2  151.051
 12.2116  23161.3  150.984
 12.2536  23247.4  152.019
 12.2956  22865.7  150.173
 12.3376  23091.3  151.101
 12.3796  23207.3  151.962
 12.4216  23170.4  151.047
 12.4636  22857.1  150.941
 12.5056  23066.8  150.91
 12.5476  23197  150.853
 12.5896  22873.9  150.437
 12.6316  22950.9  150.829
 12.6736  22890.9  151.117
 12.7156  22921.5  151.056
 12.7576  23091.8  151.866
 12.7996  22924  149.983
 12.8416  22868.7  150.841
 12.8836  23104.9  151.453
 12.9256  23510.5  151.816
 12.9676  23397.6  151.847
 13.0096  23507.6  153.298
 13.0516  23504.5  152.346
 13.0936  23705.5  153.112
 13.1356  23837.7  152.796
 13.1776  23528.6  152.802
 13.2196  23605.5  152.701
 13.2616  23298.8  152.022
 13.3036  23828.6  153.86
 13.3456  23273.1  152.045
 13.3876  23796.7  153.216
 13.4296  23364.6  151.985
 13.4716  23499  152.063
 13.5136  23523.4  152.267
 13.5556  23460.1  152.673
 13.5976  23792.8  153.925
 13.6396  23602.6  152.683
 13.6816  23680.5  153.266
 13.7236  24114  154.378
 13.7656  25762.9  160.015
 13.8076  26530.6  161.067
 13.8496  25235.4  157.89
 13.8916  23839.8  154.392
 13.9336  23190.4  151.594
 13.9756  23283.7  151.282
 14.0176  22978.6  150.96
 14.0596  23056.8  151.148
 14.1016  22997.3  151.358
 14.1436  23007.1  150.532
 14.1856  22237.9  148.289
 14.2276  22253.6  148.809
 14.2696  22138.9  148.271
 14.3116  21694.4  146.705
 14.3536  21668.5  146.765
 14.3956  21543.4  146.074
 14.4376  21722.7  146.473
 14.4796  21728.9  146.49
 14.5216  21324.2  145.899
 14.5636  21186.7  145.002
 14.6056  21431.5  145.402
 14.6476  21280.8  144.147
 14.6896  20748.4  142.869
 14.7316  20441.4  142.824
 14.7736  20239.1  141.272
 14.8156  20177.1  141.081
 14.8576  20195  141
 14.8996  19789.7  140.748
 14.9416  19386  139.318
 14.9836  19434.9  139.484
 15.0256  18848.5  136.315
 15.0676  18767.2  136.322
 15.1096  18652.6  135.651
 15.1516  18654.3  136.194
 15.1936  18427.3  134.814
 15.2356  18105.7  133.902
 15.2776  18130  133.594
 15.3196  17843.1  133.497
 15.3616  17608.1  132.381
 15.4036  17539  131.993
 15.4456  18044  133.531
 15.4876  17539.9  131.345
 15.5296  17556.1  131.685
 15.5716  17278.1  130.253
 15.6136  17291  130.618
 15.6556  17274.6  129.819
 15.6976  17145.9  129.409
 15.7396  16751.5  128.495
 15.7816  16903.7  128.601
 15.8236  16675.1  128.396
 15.8656  16583  127.849
 15.9076  16410.6  127.013
 15.9496  17304.4  133.176
 15.9916  16842.6  131.779
 16.0336  17138.7  129.842
 16.0756  16842.3  129.046
 16.1176  16466.8  127.522
 16.1596  16195  127.749
 16.2016  16292.4  126.94
 16.2436  16362.5  127.578
 16.2856  16338.9  127.015
 16.3276  15925.1  125.814
 16.3696  16079.4  126.257
 16.4116  16141.4  126.927
 16.4536  16192  126.941
 16.4956  16096.3  126.305
 16.5376  15852.8  125.534
 16.5796  15869  124.982
 16.6216  16020.4  125.833
 16.6636  15619.7  124.442
 16.7056  15944  125.58
 16.7476  15965.5  125.204
 16.7896  15859.4  125.521
 16.8316  15858.3  125.498
 16.8736  15995  126.278
 16.9156  15833.9  125.971
 16.9576  15623  125.902
 16.9996  15497.4  125.841
 17.0416  15694.3  125.073
 17.0836  15734.7  124.996
 17.1256  15609.8  124.506
 17.1676  15495.5  124.004
 17.2096  15461.3  123.775
 17.2516  15462  123.851
 17.2936  15484.1  123.999
 17.3356  15105.4  122.448
 17.3776  15011.4  122.259
 17.4196  14948.7  121.714
 17.4616  14996.2  121.813
 17.5036  14574  120.444
 17.5456  14509.7  120.789
 17.5876  14751.6  120.86
 17.6296  14778.8  120.784
 17.6716  14529  120.343
 17.7136  14416.2  120.003
 17.7556  14535.4  120.792
 17.7976  14174.9  118.897
 17.8396  14170.1  118.519
 17.8816  14068  118.644
 17.9236  14228.8  119.111
 17.9656  14065.5  119.084
 18.0076  14115.7  118.751
 18.0496  13997.3  117.41
 18.0916  13950.4  117.754
 18.1336  13767  117.069
 18.1756  14133.1  118.176
 18.2176  13856.6  117.214
 18.2596  13759.4  116.536
 18.3016  13789.9  116.924
 18.3436  13859.7  117.449
 18.3856  13775.2  116.989
 18.4276  13750.2  116.587
 18.4696  13676.1  116.356
 18.5116  13706.6  116.742
 18.5536  13698  117.067
 18.5956  13527.2  115.909
 18.6376  13567.1  116.474
 18.6796  13681.6  116.297
 18.7216  13632.7  116.638
 18.7636  13527.8  116.104
 18.8056  13545.6  116.114
 18.8476  13288.5  115.622
 18.8896  13543.4  116.071
 18.9316  13540.4  115.885
 18.9736  13363.4  114.987
 19.0156  13357.5  115.371
 19.0576  13686.8  115.64
 19.0996  13502.2  115.566
 19.1416  13362.3  115.345
 19.1836  13348.2  114.905
 19.2256  13117.4  114.115
 19.2676  13425.3  115.532
 19.3096  13220.1  114.894
 19.3516  13367.3  115.299
 19.3936  13319.2  115.175
 19.4356  13413.7  115.468
 19.4776  13281  114.98
 19.5196  13392.8  115.322
 19.5616  13155.6  114.543
 19.6036  13335.2  114.835
 19.6456  13314.6  114.859
 19.6876  13332.8  114.584
 19.7296  13441.6  115.497
 19.7716  13306.8  114.948
 19.8136  13743.1  117.154
 19.8556  13719.5  116.548
 19.8976  13617.2  116.16
 19.9396  13907.7  116.996
 19.9816  13946.3  117.407
 20.0236  14189.6  118.613
 20.0656  14097  118.233
 20.1076  14002.3  118.295
 20.1496  13757.7  117.252
 20.1916  13681.6  116.416
 20.2336  13414.6  115.247
 20.2756  13321.4  115.27
 20.3176  13110.8  114.101
 20.3596  13097.7  114.044
 20.4016  13127.3  113.963
 20.4436  12964.9  113.825
 20.4856  13050.9  113.976
 20.5276  12755.2  113.135
 20.5696  12883  113.26
 20.6116  12833.5  113.216
 20.6536  12711.1  112.252
 20.6956  12637.2  111.991
 20.7376  12614.9  112.112
 20.7796  12632.2  111.884
 20.8216  12676.8  111.791
 20.8636  12732.3  112.407
 20.9056  12593.4  111.737
 20.9476  12601.2  111.613
 20.9896  12637.4  111.65
 21.0316  12552.7  111.176
 21.0736  12480.3  111.358
 21.1156  12391.5  111.121
 21.1576  12579.6  111.998
 21.1996  12388.3  111.127
 21.2416  12542.2  111.646
 21.2836  12550.1  111.657
 21.3256  12422.4  111.164
 21.3676  12472.1  110.927
 21.4096  12293  110.5
 21.4516  12295.3  110.333
 21.4936  12108.3  109.749
 21.5356  12318.7  110.639
 21.5776  12350.3  110.617
 21.6196  12163.5  109.816
 21.6616  12217.4  110.145
 21.7036  12239.5  110.008
 21.7456  12268.5  110.225
 21.7876  12196.4  109.665
 21.8296  12069.9  108.944
 21.8716  12220.2  109.846
 21.9136  12351.4  110.633
 21.9556  12266.8  109.93
 21.9976  12079.2  109.119
 22.0396  12029  109.138
 22.0816  11995.7  109.503
 22.1236  12206.2  109.931
 22.1656  12040.3  109.374
 22.2076  11934.9  108.319
 22.2496  11821.6  107.831
 22.2916  11809.8  107.66
 22.3336  11772.9  108.179
 22.3756  11905.1  108.532
 22.4176  11817.5  107.991
 22.4596  11682.8  107.943
 22.5016  11934.5  108.615
 22.5436  11868.7  108.192
 22.5856  12274.2  110.268
 22.6276  12319.9  110.6
 22.6696  12153.2  110.207
 22.7116  11942  108.761
 22.7536  11875.7  108.437
 22.7956  11813.4  107.513
 22.8376  11687.4  107.439
 22.8796  11907.6  108.249
 22.9216  11932.4  108.896
 22.9636  11964.8  108.212
 23.0056  11815.3  107.66
 23.0476  11868.6  108.462
 23.0896  12312  109.858
 23.1316  11896.1  108.411
 23.1736  12038.5  111.927
 23.2156  12226.7  110.219
 23.2576  12452.2  111.356
 23.2996  12214.5  110.081
 23.3416  12202.3  110.532
 23.3836  12282.4  110.14
 23.4256  12412.4  110.837
 23.4676  12246  109.789
 23.5096  12086  109.708
 23.5516  12093.7  109.066
 23.5936  12224  110.55
 23.6356  12376  110.892
 23.6776  12052.3  109.654
 23.7196  12162.4  109.937
 23.7616  12125.3  109.487
 23.8036  12377.2  110.661
 23.8456  12081.9  108.9
 23.8876  11992.9  108.839
 23.9296  11811.2  108.498
 23.9716  11840.3  107.85
 24.0136  11980.7  109.379
 24.0556  11936.3  108.901
 24.0976  11903.2  108.566
 24.1396  11794.8  110.651
 24.1816  11802.8  109.445
 24.2236  11787.2  108.673
 24.2656  11505.7  106.866
 24.3076  11528  107.232
 24.3496  11653.9  107.696
 24.3916  11524.2  107.143
 24.4336  11742.1  108.35
 24.4756  11543.5  107.316
 24.5176  11577.6  107.108
 24.5596  11457.7  106.865
 24.6016  11389.1  106.641
 24.6436  11506.7  106.707
 24.6856  11409.6  106.001
 24.7276  11188.6  105.295
 24.7696  11194.8  105.427
 24.8116  11205.2  105.659
 24.8536  11205.4  105.657
 24.8956  11055.8  104.677
 24.9376  11073.9  104.944
 24.9796  11112.3  105.241
 25.0216  10882.1  104.253
 25.0636  11003.3  104.494
 25.1056  10897.6  104.416
 25.1476  10846.2  105.996
 25.1896  10765.6  104.188
 25.2316  10778.3  103.541
 25.2736  10772.8  103.17
 25.3156  10794.8  103.349
 25.3576  10763.3  103.622
 25.3996  10740.2  103.5
 25.4416  10705.7  103.308
 25.4836  10510.3  102.867
 25.5256  10629  102.817
 25.5676  10694  102.874
 25.6096  10565.8  102.815
 25.6516  10631.8  102.648
 25.6936  10610.5  102.855
 25.7356  10483.9  102.374
 25.7776  10601.2  102.633
 25.8196  10454  102.06
 25.8616  10519.3  102.325
 25.9036  10646.9  102.405
 25.9456  10500.8  102.28
 25.9876  10509.2  102.235
 26.0296  10624.4  102.558
 26.0716  10506.9  102.315
 26.1136  10480.8  102.114
 26.1556  10618.2  102.187
 26.1976  10376.7  101.922
 26.2396  10482.7  101.865
 26.2816  10534.9  102.471
 26.3236  10458.9  102.236
 26.3656  10603.1  102.673
 26.4076  10462.2  102.189
 26.4496  10698.9  102.928
 26.4916  10700.6  102.834
 26.5336  11016  104.688
 26.5756  11126.3  105.092
 26.6176  10565.9  102.435
 26.6596  10446.8  102.161
 26.7016  10331.7  101.359
 26.7436  10341.2  101.522
 26.7856  10186.3  100.758
 26.8276  10377  101.66
 26.8696  10384.6  101.565
 26.9116  10141.2  100.305
 26.9536  10137.2  100.333
 26.9956  10013.8  99.7671
 27.0376  10235.1  101.073
 27.0796  10207.8  100.74
 27.1216  10296.6  101.163
 27.1636  9958.15  99.6569
 27.2056  10130  100.4
 27.2476  10104.1  100.273
 27.2896  9928.8  99.5058
 27.3316  10038.2  99.7728
 27.3736  9870.74  99.2029
 27.4156  10032.3  99.8389
 27.4576  9951.87  99.6748
 27.4996  9959.48  99.3211
 27.5416  9911.59  99.3749
 27.5836  9924.54  99.2869
 27.6256  9871.64  99.1993
 27.6676  9791.14  98.7808
 27.7096  9941.19  99.4176
 27.7516  9719.71  98.4549
 27.7936  10094.2  100.466
 27.8356  10023.4  99.7392
 27.8776  10027.8  99.8162
 27.9196  9825.18  98.6615
 27.9616  9784.6  98.6638
 28.0036  9688.52  98.131
 28.0456  9602.33  97.8415
 28.0876  9497.51  97.3762
 28.1296  9689.84  98.1844
 28.1716  9709.04  98.3135
 28.2136  9751.8  98.5
 28.2556  9571.3  97.6927
 28.2976  9593.21  97.8011
 28.3396  9576.46  97.5221
 28.3816  9661.64  97.9113
 28.4236  9476.69  97.1318
 28.4656  9467.6  97.1192
 28.5076  9587.41  97.3853
 28.5496  9640.71  97.903
 28.5916  9603.73  97.5258
 28.6336  9576.53  97.7256
 28.6756  9573.3  96.9278
 28.7176  9483.79  97.0132
 28.7596  9425.58  96.6083
 28.8016  9456.7  96.8056
 28.8436  9445.96  96.9866
 28.8856  9437.08  96.7986
 28.9276  9440.7  97.0572
 28.9696  9286.1  95.9284
 29.0116  9309.38  96.2316
 29.0536  9326.05  96.5164
 29.0956  9346.05  96.3265
 29.1376  9282.55  95.972
 29.1796  9388.24  96.5638
 29.2216  9307.39  95.9915
 29.2636  9459.43  96.7591
 29.3056  9355.04  96.0963
 29.3476  9348.49  96.5827
 29.3896  9270.12  96.2876
 29.4316  9231.19  95.4366
 29.4736  9206.79  95.3729
 29.5156  9243.99  95.4862
 29.5576  9106.41  95.4898
 29.5996  9155.2  95.0255
 29.6416  9040.05  94.5417
 29.6836  9161.98  95.1066
 29.7256  9051.11  95.0804
 29.7676  9085.72  94.9339
 29.8096  8899.22  93.8961
 29.8516  8813.22  93.7652
 29.8936  8903.22  94.3301
 29.9356  8999.15  94.5981
 29.9776  8876.93  94.1007
 30.0196  8927.63  93.7756
 30.0616  8969.19  94.3557
 30.1036  9004.08  94.3704
 30.1456  8969.33  94.4173
 30.1876  8961.36  94.3534
 30.2296  8874.84  93.8495
 30.2716  8955.3  93.9197
 30.3136  9023.59  95.1144
 30.3556  9211.2  96.0937
 30.3976  9057.5  96.7321
 30.4396  9252.52  95.1678
 30.4816  9226.34  94.6582
 30.5236  9170.81  94.3602
 30.5656  9120.03  94.7506
 30.6076  9016.92  93.9943
 30.6496  9129.68  94.6345
 30.6916  8995.56  94.0253
 30.7336  9075.86  94.5875
 30.7756  9083.55  94.6944
 30.8176  9066.04  94.5351
 30.8596  9162.73  94.7799
 30.9016  9260.92  95.1845
 30.9436  9220.27  95.1964
 30.9856  9237.94  95.4
 31.0276  8916.05  93.3724
 31.0696  8904.77  93.8598
 31.1116  9010.14  94.3872
 31.1536  8910.15  93.7324
 31.1956  8935.99  93.9567
 31.2376  8841.2  93.4902
 31.2796  8954.04  93.6251
 31.3216  8879.49  93.1588
 31.3636  9080.75  94.9021
 31.4056  8885.19  95.1498
 31.4476  9037.69  93.9043
 31.4896  8945.61  93.9056
 31.5316  9059.2  93.9641
 31.5736  9211.6  94.5431
 31.6156  8977.36  93.3371
 31.6576  8967.46  93.3574
 31.6996  9066.01  93.5419
 31.7416  8968.5  93.976
 31.7836  9050.93  93.5545
 31.8256  8854.37  92.8793
 31.8676  8965.92  93.3783
 31.9096  8840.28  92.9296
 31.9516  8700.69  92.5046
 31.9936  8775.82  92.7311
 32.0356  8894.38  93.4009
 32.0776  8998.7  93.8439
 32.1196  9169.98  94.7443
 32.1616  8896.1  92.863
 32.2036  8953.13  93.6672
 32.2456  8829.21  93.3875
 32.2876  8780.68  92.4784
 32.3296  8776.92  92.5736
 32.3716  8599.93  91.768
 32.4136  8658.91  92.2807
 32.4556  8846.89  92.7232
 32.4976  8780.74  92.2752
 32.5396  8619.28  91.4405
 32.5816  8629.91  91.6163
 32.6236  8717.96  92.1495
 32.6656  8728.73  92.7413
 32.7076  8622.93  91.8379
 32.7496  8666.42  91.752
 32.7916  8670.31  91.7353
 32.8336  8548.41  91.1751
 32.8756  8737.41  91.9047
 32.9176  8537.06  91.3164
 32.9596  8600.48  91.7251
 33.0016  8558.03  91.2723
 33.0436  8671.82  92.058
 33.0856  8515.15  91.3102
 33.1276  8501.09  90.9753
 33.1696  8590.71  91.2746
 33.2116  8605.51  91.5986
 33.2536  8624.87  91.6869
 33.2956  8558.27  91.4061
 33.3376  8414.82  90.4776
 33.3796  8552  91.34
 33.4216  8612.04  91.2581
 33.4636  8615.61  91.4225
 33.5056  8457.2  90.8271
 33.5476  8563.72  91.3702
 33.5896  8626.95  91.4837
 33.6316  8560.07  91.4432
 33.6736  8374.87  90.7032
 33.7156  8398.41  90.8649
 33.7576  8492.53  91.0184
 33.7996  8495.17  90.7989
 33.8416  8209.29  89.4358
 33.8836  8363.7  90.0577
 33.9256  8481.96  90.7376
 33.9676  8582.1  91.1788
 34.0096  8376.47  90.3803
 34.0516  8393.85  90.118
 34.0936  8223.2  89.4662
 34.1356  8387.57  90.099
 34.1776  8253.74  89.3819
 34.2196  8378.82  90.2332
 34.2616  8301.18  89.9486
 34.3036  8412.68  90.7846
 34.3456  8334.76  90.1236
 34.3876  8341.31  90.2255
 34.4296  8300.82  89.6151
 34.4716  8443.02  90.5294
 34.5136  8265.14  89.7516
 34.5556  8162.91  89.4528
 34.5976  8393.96  90.5491
 34.6396  8278.75  89.6129
 34.6816  8381.22  90.2644
 34.7236  8298.58  89.6033
 34.7656  8219.02  89.38
 34.8076  8189.03  89.5417
 34.8496  8266.32  89.8177
 34.8916  8226.08  89.4595
 34.9336  8294.18  89.8178
 34.9756  8459.1  90.6466
 35.0176  8369.87  90.6678
 35.0596  8366.34  90.4685
 35.1016  8278.37  89.7493
 35.1436  8407.26  90.1448
 35.1856  8275.57  89.5503
 35.2276  8205.41  89.3486
 35.2696  8264.89  89.8519
 35.3116  8225.97  89.7485
 35.3536  8193.49  89.301
 35.3956  8129.97  88.6525
 35.4376  8345.89  90.3783
 35.4796  8298.55  90.1445
 35.5216  8090.73  88.9874
 35.5636  7997.5  89.2028
 35.6056  8137.05  89.0154
 35.6476  8135.06  88.909
 35.6896  8197.83  89.4116
 35.7316  7994.57  88.1978
 35.7736  8211.27  89.5673
 35.8156  8161.74  89.2901
 35.8576  8089.98  89.148
 35.8996  8162.8  89.5133
 35.9416  8096.97  88.6784
 35.9836  8041.95  88.8216
 36.0256  8367.42  90.499
 36.0676  8257.72  89.4247
 36.1096  8053.07  88.6908
 36.1516  8173.56  89.2469
 36.1936  8165.91  89.0411
 36.2356  8154.98  89.6231
 36.2776  8146.01  89.0425
 36.3196  8263.4  89.3751
 36.3616  8051.27  88.3406
 36.4036  8046.4  88.3868
 36.4456  8003.45  88.3455
 36.4876  7887.29  87.6518
 36.5296  8002.57  88.3277
 36.5716  8068  89.4522
 36.6136  7948.15  87.6023
 36.6556  7830.35  87.1485
 36.6976  7846.83  87.7241
 36.7396  7809.34  87.2495
 36.7816  7846.58  87.8261
 36.8236  7818.21  87.5873
 36.8656  7861.46  87.8968
 36.9076  7809.76  87.6187
 36.9496  7690.32  86.8114
 36.9916  7833.78  87.2526
 37.0336  7843.14  87.6182
 37.0756  7813.26  87.2464
 37.1176  7579.13  86.1823
 37.1596  7675.11  86.7364
 37.2016  7716.22  87.1353
 37.2436  7909.52  87.6044
 37.2856  7666.16  86.4839
 37.3276  7783.38  86.519
 37.3696  7683.33  86.816
 37.4116  7628.47  86.4192
 37.4536  7788.97  87.1852
 37.4956  7665.99  86.5497
 37.5376  7826.45  88.9885
 37.5796  7862.78  89.1317
 37.6216  7710.18  86.5697
 37.6636  7933.14  87.6946
 37.7056  7905.59  87.7345
 37.7476  8042.28  88.0331
 37.7896  7675.38  86.5072
 37.8316  7734.4  86.9755
 37.8736  7750.14  86.6141
 37.9156  7829.14  87.039
 37.9576  7809.17  86.8495
 37.9996  7766.55  86.3299
 38.0416  7873.58  87.7181
 38.0836  7884.32  87.6829
 38.1256  7730.9  86.8007
 38.1676  7529.4  85.7757
 38.2096  7835.06  87.1156
 38.2516  7844.17  87.3911
 38.2936  7815.38  87.0206
 38.3356  7751.75  86.6079
 38.3776  7640.32  86.2055
 38.4196  7726.83  86.5756
 38.4616  7776.55  87.0878
 38.5036  7793.88  87.0286
 38.5456  7588.26  86.6843
 38.5876  7679.59  87.2262
 38.6296  7686.42  86.259
 38.6716  7756.47  86.4498
 38.7136  7620.6  85.6346
 38.7556  7630.81  86.1896
 38.7976  7649.4  86.2204
 38.8396  7616.15  86.4816
 38.8816  7744.75  87.0114
 38.9236  7585.03  85.9101
 38.9656  7722.65  86.6012
 39.0076  7898.29  86.9893
 39.0496  7781.63  86.8835
 39.0916  7794.15  86.6061
 39.1336  7708.11  86.5317
 39.1756  7664.38  86.3183
 39.2176  7665.84  86.8812
 39.2596  7636.18  86.6372
 39.3016  7636.15  86.2266
 39.3436  7548.82  86.1318
 39.3856  7658.42  86.2124
 39.4276  7776.16  87.373
 39.4696  7683.42  86.4813
 39.5116  7699.97  87.0756
 39.5536  7651.15  87.2191
 39.5956  7663.9  86.4134
 39.6376  7623.3  86.1894
 39.6796  7557.62  85.5661
 39.7216  7724.78  86.6047
 39.7636  7665.96  86.7979
 39.8056  7736.8  87.0132
 39.8476  7588.66  86.4196
 39.8896  7636.13  86.3262
 39.9316  7610.86  86.4363
 39.9736  7632.09  86.1389
 40.0156  7574.19  85.6451
 40.0576  7625.45  86.2752
 40.0996  7720.88  86.0171
 40.1416  7705.22  86.7085
 40.1836  7788.15  87.0661
 40.2256  7662.3  86.3862
 40.2676  7609.6  86.2689
 40.3096  7666.42  86.4491
 40.3516  7705.08  86.7766
 40.3936  7836.72  87.072
 40.4356  7644.3  86.202
 40.4776  7773.6  87.1525
 40.5196  7735.45  87.2291
 40.5616  7775.15  87.105
 40.6036  7584.87  86.2852
 40.6456  7626.46  86.1322
 40.6876  7821.44  87.2212
 40.7296  7629.12  86.2681
 40.7716  7686.76  86.7107
 40.8136  7590.95  86.1245
 40.8556  7787.26  87.3605
 40.8976  7658.64  86.5584
 40.9396  7658.66  86.8952
 40.9816  7549.44  85.5876
 41.0236  7702.1  86.242
 41.0656  7761.99  87.1033
 41.1076  7751.72  86.823
 41.1496  7831.91  87.1725
 41.1916  7632.35  86.3724
 41.2336  7739.58  86.9695
 41.2756  7730.51  86.5336
 41.3176  7622.98  86.5152
 41.3596  7661.25  86.4821
 41.4016  7685  86.8738
 41.4436  7599.04  86.1749
 41.4856  7676.89  86.7808
 41.5276  7681.61  86.8157
 41.5696  7697.78  86.5347
 41.6116  7722.68  87.0717
 41.6536  7640.47  86.4691
 41.6956  7698.82  86.7803
 41.7376  7556.96  86.0739
 41.7796  7570.73  86.0931
 41.8216  7682.47  86.9015
 41.8636  7631.18  86.5612
 41.9056  7557.66  85.934
 41.9476  7747.66  87.2421
 41.9896  7794.09  87.1632
 42.0316  7804.24  87.3149
 42.0736  7707.31  86.9004
 42.1156  7683.4  86.5716
 42.1576  7586.97  86.1317
 42.1996  7741.64  87.1196
 42.2416  7630.26  86.1045
 42.2836  7642.64  86.2823
 42.3256  7656.61  86.4733
 42.3676  7754.31  86.822
 42.4096  7635.4  86.1305
 42.4516  7707.06  86.6015
 42.4936  7684.45  86.5523
 42.5356  7577.82  86.0967
 42.5776  7703.85  86.7435
 42.6196  7676.38  86.6442
 42.6616  7537.53  86.0247
 42.7036  7570.72  85.606
 42.7456  7670.9  86.5126
 42.7876  7601.02  86.2097
 42.8296  7536.92  85.6879
 42.8716  7576.85  86.0759
 42.9136  7502.74  85.419
 42.9556  7622.79  86.2662
 42.9976  7568.57  85.9232
 43.0396  7568.27  85.6564
 43.0816  7524.42  85.7844
 43.1236  7527.29  85.8514
 43.1656  7548.13  85.7922
 43.2076  7567.92  86.0134
 43.2496  7494.97  85.4264
 43.2916  7494.23  85.7734
 43.3336  7466.32  85.4533
 43.3756  7539.31  85.6302
 43.4176  7523.5  85.6137
 43.4596  7429.92  84.945
 43.5016  7477.37  85.6055
 43.5436  7469.21  85.4689
 43.5856  7493.68  85.6428
 43.6276  7419.64  85.1045
 43.6696  7484.13  85.6242
 43.7116  7584.06  85.8055
 43.7536  7553.28  86.1188
 43.7956  7413.21  86.5033
 43.8376  7405.6  85.0097
 43.8796  7300.51  84.4917
 43.9216  7307.79  84.4556
 43.9636  7308.94  84.5663
 44.0056  7360.8  85.0937
 44.0476  7290.48  84.3226
 44.0896  7316.42  84.811
 44.1316  7273.95  84.237
 44.1736  7301.53  84.3813
 44.2156  7383.91  84.706
 44.2576  7323.48  84.6801
 44.2996  7340.84  84.7487
 44.3416  7309.54  84.3365
 44.3836  7310.14  84.6642
 44.4256  7182.36  83.5723
 44.4676  7311.24  84.474
 44.5096  7389.1  85.0646
 44.5516  7274.03  84.364
 44.5936  7176.81  83.7548
 44.6356  7305.57  84.2409
 44.6776  7290.8  84.466
 44.7196  7249.48  84.535
 44.7616  7410.01  86.7729
 44.8036  7277.26  84.6411
 44.8456  7545.96  86.1921
 44.8876  7414.03  85.2775
 44.9296  7502.73  85.2311
 44.9716  7451.13  85.3709
 45.0136  7446.75  85.2759
 45.0556  7462.22  85.463
 45.0976  7269.71  84.4003
 45.1396  7254.79  84.0731
 45.1816  7341.9  84.5271
 45.2236  7461.28  85.1073
 45.2656  7304.55  84.6987
 45.3076  7295.54  84.432
 45.3496  7263  84.5533
 45.3916  7324.05  85.1694
 45.4336  7450.69  85.7364
 45.4756  7390.25  85.2535
 45.5176  7402.75  84.9418
 45.5596  7404.85  85.0639
 45.6016  7279.18  84.7675
 45.6436  7373.1  84.4854
 45.6856  7207.05  84.1802
 45.7276  7241.31  85.6835
 45.7696  7316.65  85.8075
 45.8116  7327.69  85.3059
 45.8536  7256.29  84.7856
 45.8956  7320.56  84.5171
 45.9376  7363.5  84.231
 45.9796  7339.81  84.7846
 46.0216  7334.6  85.079
 46.0636  7384  84.5036
 46.1056  7260.32  83.7973
 46.1476  7243.24  84.2808
 46.1896  7449.04  85.6156
 46.2316  7381.34  85.0932
 46.2736  7236.95  84.4631
 46.3156  7285.47  84.5006
 46.3576  7267.15  84.5948
 46.3996  7317.76  85.0477
 46.4416  7249.81  84.202
 46.4836  7173.59  84.1411
 46.5256  7269.35  84.6412
 46.5676  7186.13  84.2684
 46.6096  7282.88  84.763
 46.6516  7387.62  84.4173
 46.6936  7274.33  84.2564
 46.7356  7442.33  85.3126
 46.7776  7232.39  84.9578
 46.8196  7213.8  84.5963
 46.8616  7199.94  84.3211
 46.9036  7112.84  83.4696
 46.9456  7185.73  83.5334
 46.9876  7223.55  83.8367
 47.0296  7276.3  84.8297
 47.0716  7107.63  83.668
 47.1136  7201.68  83.9001
 47.1556  7205.76  83.7905
 47.1976  7285.51  84.405
 47.2396  7226.75  84.3895
 47.2816  7141.26  83.5884
 47.3236  7221.87  84.4228
 47.3656  7171  84.065
 47.4076  7189.62  83.9106
 47.4496  7063.93  83.3313
 47.4916  7157.01  84.0709
 47.5336  7230.43  84.3175
 47.5756  7275.68  84.6983
 47.6176  7090.83  83.5116
 47.6596  7103.68  83.3073
 47.7016  7178.28  83.5426
 47.7436  7205.15  84.0553
 47.7856  7269.45  84.4442
 47.8276  7170.99  83.9287
 47.8696  7217.11  84.2721
 47.9116  7291.37  84.4255
 47.9536  7211.39  83.9081
 47.9956  7170.74  84.3759
 48.0376  7079.22  83.611
 48.0796  7319.05  85.1385
 48.1216  7102.71  83.6947
 48.1636  7263.7  84.2048
 48.2056  7223.5  84.2405
 48.2476  7252.34  84.7203
 48.2896  7253.79  84.6377
 48.3316  7222.75  84.4056
 48.3736  7161.62  84.0671
 48.4156  7124.26  83.6993
 48.4576  7191.5  84.3833
 48.4996  7334.77  84.6736
 48.5416  7321.79  84.9192
 48.5836  7260.98  84.2377
 48.6256  7231.01  84.2786
 48.6676  7135.54  84.2305
 48.7096  7234.59  84.0867
 48.7516  7127.83  83.6077
 48.7936  7083.47  83.4129
 48.8356  7076.73  83.4198
 48.8776  7171.3  84.4595
 48.9196  7284.65  84.5735
 48.9616  7187.72  84.3901
 49.0036  7216.58  84.9097
 49.0456  7057.56  83.958
 49.0876  7195.6  84.411
 49.1296  7064.74  83.7008
 49.1716  6951.71  82.9009
 49.2136  7160.88  84.0745
 49.2556  7151.86  84.0414
 49.2976  7186.24  84.306
 49.3396  7139.01  84.0902
 49.3816  7263.49  84.2381
 49.4236  7126.06  83.8661
 49.4656  6992.45  83.1014
 49.5076  7240.36  84.3048
 49.5496  7055.93  83.2885
 49.5916  7074.94  83.3184
 49.6336  7076.3  83.5267
 49.6756  7072.2  83.7325
 49.7176  7057.9  83.5953
 49.7596  7019.57  83.1312
 49.8016  7221.01  84.2436
 49.8436  7067.51  83.6304
 49.8856  7060.35  83.6005
 49.9276  7055.04  83.6629
 49.9696  7004.28  83.3516
 50.0116  7035.4  83.6552
 50.0536  7080.05  83.8711
 50.0956  7081.81  83.9542
 50.1376  7076.31  83.6176
 50.1796  6986.66  83.3605
 50.2216  7078.25  83.902
 50.2636  7037.53  83.2677
 50.3056  7005.81  83.2651
 50.3476  6937.94  82.8817
 50.3896  6998.49  83.2102
 50.4316  7033.3  83.2435
 50.4736  6839.32  82.3052
 50.5156  7049.24  83.5529
 50.5576  7077.5  83.4682
 50.5996  7054.13  83.628
 50.6416  6975.23  83.0895
 50.6836  7057.87  83.6349
 50.7256  7098.15  83.7987
 50.7676  7151.49  84.3897
 50.8096  6982.97  82.9654
 50.8516  6927.42  83.0557
 50.8936  6914  82.7567
 50.9356  7076.25  83.8289
 50.9776  7027.28  83.7014
 51.0196  6779.7  82.3424
 51.0616  6957.76  82.7358
 51.1036  6992.8  83.3077
 51.1456  6897  82.6458
 51.1876  6826.02  81.5481
 51.2296  6856.37  82.3797
 51.2716  6805.84  81.7812
 51.3136  6823.39  82.3473
 51.3556  6819.35  81.9431
 51.3976  6874.25  82.423
 51.4396  6711.14  81.7499
 51.4816  6717.05  81.6411
 51.5236  6916.61  82.9299
 51.5656  6824.95  81.9764
 51.6076  6819.31  82.0213
 51.6496  6708.27  81.5467
 51.6916  6925.68  83.2148
 51.7336  6780.38  82.4323
 51.7756  6842.12  82.4886
 51.8176  6735.94  81.9668
 51.8596  6653.5  81.4786
 51.9016  6932.55  82.7716
 51.9436  6885.67  83.9808
 51.9856  6844.1  84.1366
 52.0276  6881.34  82.8423
 52.0696  6946.73  83.3088
 52.1116  6718.68  82.0577
 52.1536  6831.03  82.5752
 52.1956  6839.25  82.1394
 52.2376  6936  82.8848
 52.2796  6936.79  82.7064
 52.3216  6770.54  82.3967
 52.3636  6763.61  81.9156
 52.4056  6804.69  82.0395
 52.4476  6820.67  82.4976
 52.4896  6720.66  81.9372
 52.5316  6895.19  83.038
 52.5736  6643.36  81.2382
 52.6156  6847.54  82.8723
 52.6576  6699.86  81.4184
 52.6996  6699.62  82.3971
 52.7416  6716.8  82.3638
 52.7836  6737.82  82.3785
 52.8256  6864.41  82.3529
 52.8676  6651.25  81.6412
 52.9096  6762.43  82.3921
 52.9516  6659.72  82.1485
 52.9936  6723.1  82.9058
 53.0356  6883.93  82.8724
 53.0776  6765.64  82.4631
 53.1196  6794.85  82.7373
 53.1616  6770.71  82.6455
 53.2036  6649.61  81.8618
 53.2456  6686.07  82.1909
 53.2876  6767.93  82.3844
 53.3296  6833.7  83.114
 53.3716  6853.66  82.979
 53.4136  6705.16  82.2296
 53.4556  6741.19  82.4803
 53.4976  6677.46  81.9178
 53.5396  6657.91  82.2132
 53.5816  6792.34  82.6651
 53.6236  6663.09  82.2227
 53.6656  6757.29  82.3961
 53.7076  6822.85  82.7534
 53.7496  6772.1  82.5753
 53.7916  6698.59  82.2741
 53.8336  6734.14  82.3701
 53.8756  6653.14  82.4351
 53.9176  6698.38  82.0548
 53.9596  6450.75  81.2772
 54.0016  6490.13  80.8671
 54.0436  6426.24  80.6846
 54.0856  6552.76  80.9056
 54.1276  6475.5  80.6145
 54.1696  6458.67  80.6739
 54.2116  6603.42  81.3242
 54.2536  6491.82  80.4371
 54.2956  6536.4  80.7645
 54.3376  6402.8  80.4221
 54.3796  6403.02  80.3131
 54.4216  6440.08  80.6173
 54.4636  6461.01  80.7052
 54.5056  6558.73  81.1121
 54.5476  6408.26  80.5195
 54.5896  6448.86  80.6248
 54.6316  6497.05  80.7569
 54.6736  6408.46  80.2492
 54.7156  6408.89  80.3297
 54.7576  6423.79  80.3921
 54.7996  6588.18  81.581
 54.8416  6386.47  80.3658
 54.8836  6470.55  80.9877
 54.9256  6415.39  80.4121
 54.9676  6368.35  79.9685
 55.0096  6370.85  80.0218
 55.0516  6318.55  79.8737
 55.0936  6386.88  80.0156
 55.1356  6283.63  79.4154
 55.1776  6454.73  80.7348
 55.2196  6336.05  79.7677
 55.2616  6561.26  81.3975
 55.3036  6324.91  80.0939
 55.3456  6214.8  79.5297
 55.3876  6389.07  80.3741
 55.4296  6209.47  79.2353
 55.4716  6280.39  79.6862
 55.5136  6384.43  80.1196
 55.5556  6376.63  80.1019
 55.5976  6288.92  79.6609
 55.6396  6386.66  80.1281
 55.6816  6310.65  79.5824
 55.7236  6223.12  79.1101
 55.7656  6209.22  78.7259
 55.8076  6251.94  79.0258
 55.8496  6442.67  80.6464
 55.8916  6285.54  79.7165
 55.9336  6371.91  80.1237
 55.9756  6287.47  79.4592
 56.0176  6267.14  79.4858
 56.0596  6181.95  78.9466
 56.1016  6200.65  79.1168
 56.1436  6196.33  79.3039
 56.1856  6110.6  78.5099
 56.2276  6331  79.9483
 56.2696  6169.1  78.9057
 56.3116  6272.29  79.9473
 56.3536  6169.27  78.9512
 56.3956  6127.74  78.6743
 56.4376  6216.51  79.282
 56.4796  6050.64  78.0279
 56.5216  6235.95  79.6091
 56.5636  6141.71  78.5714
 56.6056  6283.57  79.7008
 56.6476  6158.42  78.525
 56.6896  6353.56  80.2134
 56.7316  6190.32  79.1213
 56.7736  6241.53  79.4164
 56.8156  6089.29  78.4758
 56.8576  5994.09  77.7999
 56.8996  6160.6  78.7825
 56.9416  6146.72  79.0038
 56.9836  6266.46  79.2964
 57.0256  6030.87  78.0983
 57.0676  6269.47  79.7381
 57.1096  6152.03  78.7729
 57.1516  6033.05  78.0296
 57.1936  6066.52  78.042
 57.2356  5993.99  77.8927
 57.2776  6117.27  78.6537
 57.3196  6127.75  79.0696
 57.3616  6055.81  78.1055
 57.4036  6108.12  78.4888
 57.4456  6184.02  78.9547
 57.4876  6103.35  78.3187
 57.5296  5962.39  77.6218
 57.5716  6045.38  78.2677
 57.6136  5979  77.6848
 57.6556  6075.27  78.4194
 57.6976  6108.28  78.4627
 57.7396  5929.85  77.6581
 57.7816  5971.5  78.2871
 57.8236  6027.87  78.4509
 57.8656  6014.03  78.0363
 57.9076  6049.47  78.2788
 57.9496  5997.75  78.2951
 57.9916  6097.58  78.4547
 58.0336  5992.87  78.0673
 58.0756  6046.9  78.0088
 58.1176  6142.67  78.6568
 58.1596  5967.14  78.1103
 58.2016  5825.74  76.4263
 58.2436  5839.36  76.905
 58.2856  5884.83  77.1391
 58.3276  5790.96  76.8835
 58.3696  5728.88  76.2288
 58.4116  5701.43  75.9177
 58.4536  5860.68  76.8567
 58.4956  5798.53  76.6258
 58.5376  5808.72  76.2733
 58.5796  5793.59  76.5894
 58.6216  5742.04  76.0722
 58.6636  5853.24  77.013
 58.7056  5783.14  76.4054
 58.7476  5768.31  76.7431
 58.7896  5783.13  76.4955
 58.8316  5796.15  76.5763
 58.8736  5816.82  76.7246
 58.9156  5704.58  76.0193
 58.9576  5654.58  76.0005
 58.9996  5814.21  76.3268
 59.0416  5855.13  76.9556
 59.0836  5911.56  77.2299
 59.1256  5612.34  75.9353
 59.1676  5855.89  77.8715
 59.2096  5681.27  76.0343
 59.2516  5844.84  76.7089
 59.2936  5727.97  76.2576
 59.3356  5872.42  77.0926
 59.3776  5762.47  76.5326
 59.4196  5684.71  75.9516
 59.4616  5800.52  76.5849
 59.5036  5597.9  75.2662
 59.5456  5854.96  76.6763
 59.5876  5916.54  77.2676
 59.6296  5531.98  74.7806
 59.6716  5708.57  76.0211
 59.7136  5702.38  75.9685
 59.7556  5659.86  75.8169
 59.7976  5726.08  76.008
 59.8396  5707.82  75.7839
 59.8816  5760.58  76.6664
 59.9236  5769.27  76.3756
 59.9656  5723.5  76.3241
 60.0076  5555.33  74.5797
 60.0496  5635.83  75.6049
 60.0916  5717.67  75.5856
 60.1336  5764.39  76.9758
 60.1756  5742.28  77.9829
 60.1996  0.0000000E+00  0.0000000E+00