File: docs/examples/XRD/IS17_D/Data/IS17_D/17_Da_f00009.xye
# /beamlines/bl04/projects/cycle2025-II/20250340211-lsimonelli/DATA/IS17_D/17_Da_f00009.xye : mythproc.py merge -s 0.006 -l 0.5 -f /beamlines/bl04/inhouse/ff/FlatField/ff_20Nov2024rod8mm60s_17keV.raw -b True -c true -o xye /beamlines/bl04/projects/cycle2025-II/20250340211-lsimonelli/DATA/IS17_D/17_Da_00009.dat
# IsMon = [6770755, 6778643, 6773888]  IsPos = [-1.5000, -2.4886, -3.4986]
# Wave = 0.4962  CalPath /beamlines/bl04/projects/cycle2025-II/20250340211-lsimonelli/DATA/Align/Si_Pos1_25keV_f00001.cal
# Date = 2025-09-23_20:03:32 Dt = 4.8000  Bin = 0.0060  <imon> = 6774429 +/- 3243 (Min/Max) 6770755 / 6778643
# icurr 251.7852  mocoIn 1.7176E-05  mocoOut 0.8058  i15 7.0858e+06  imon 6.77443e+06  i7 5.6667  iEMpd_timer 4.8000  iEMpd_1 3.3875E-08  iEMpd_2 7.7653E-08  iEMpd_3 1.6379E-08  iEMpd_4 4.7198E-08  iEMhp_timer 4.8000  iEMhp_1 4.9203E-06  iEMhp_2 -2.5744E-08  iEMhp_3 -2.2731E-08  iEMhp_4 -2.0997E-08
#      9776
 1.5856  37814.4  199.733
 1.6276  44927.4  213.973
 1.6696  51544.9  228.382
 1.7116  60697.8  248.316
 1.7536  70744.8  266.939
 1.7956  74683  274.953
 1.8376  71042.5  268.593
 1.8796  59325.9  243.65
 1.9216  47176.5  218.132
 1.9636  39531.6  199.362
 2.0056  35598.9  187.977
 2.0476  33007.4  182.99
 2.0896  31316.1  177.195
 2.1316  30652.6  174.465
 2.1736  29000.1  171.043
 2.2156  29516.6  171.175
 2.2576  28375.3  168.435
 2.2996  27074.4  165.132
 2.3416  27807.9  166.019
 2.3836  27252  164.452
 2.4256  26592.2  162.978
 2.4676  26525  162.541
 2.5096  27024.9  164.119
 2.5516  38005.3  198.975
 2.5936  167667  409.7
 2.6356  31894  179.44
 2.6776  25728.2  160.072
 2.7196  24634.2  157.128
 2.7616  24280.3  155.787
 2.8036  23597.1  153.743
 2.8456  23548.4  154.17
 2.8876  23403.3  153.555
 2.9296  22730.4  151.473
 2.9716  22460.1  150.089
 3.0136  22375.6  149.869
 3.0556  22423  150.41
 3.0976  22273.8  148.893
 3.1396  22091.3  148.961
 3.1816  21972.5  148.493
 3.2236  21783.1  147.851
 3.2656  21536.8  146.088
 3.3076  21536  147.485
 3.3496  21817  147.663
 3.3916  22125.6  148.299
 3.4336  22792.6  151.076
 3.4756  23080.1  151.967
 3.5176  24034.2  154.865
 3.5596  23845.2  157.149
 3.6016  23964.9  154.699
 3.6436  23034.1  152.712
 3.6856  22708.6  150.007
 3.7276  21862.9  148.221
 3.7696  21691.4  147.65
 3.8116  21271.9  146.289
 3.8536  21202.7  145.995
 3.8956  21376.7  146.418
 3.9376  22141  149.292
 3.9796  21219.6  145.648
 4.0216  21264.7  144.863
 4.0636  21271.6  146.322
 4.1056  21264.5  145.938
 4.1476  21300.4  146.386
 4.1896  21477.6  146.849
 4.2316  21790.7  147.754
 4.2736  22377.5  149.512
 4.3156  22541.7  150.288
 4.3576  23177.7  152.322
 4.3996  23471.1  153.325
 4.4416  24275.2  155.735
 4.4836  25739.9  160.498
 4.5256  25619.2  160.752
 4.5676  25162  159.548
 4.6096  25386  159.302
 4.6516  26208.9  161.221
 4.6936  26379.9  162.543
 4.7356  27456.3  165.658
 4.7776  26498.2  162.57
 4.8196  25992.5  161.662
 4.8616  25519.1  159.795
 4.9036  25339.2  158.867
 4.9456  25287.8  159.329
 4.9876  24698.5  157.365
 5.0296  24784.6  157.462
 5.0716  24666.8  157.694
 5.1136  24830.5  158.076
 5.1556  25377.1  159.281
 5.1976  35902.9  189.459
 5.2396  25935  160.728
 5.2816  25468.2  159.732
 5.3236  25654.1  160.017
 5.3656  25154.7  159.342
 5.4076  24811.2  158.4
 5.4496  24760.2  157.734
 5.4916  24956.9  158.13
 5.5336  24846.3  157.871
 5.5756  24630.5  157.136
 5.6176  24896.1  157.425
 5.6596  25058.6  158.736
 5.7016  25257.2  158.8
 5.7436  25455.3  159.448
 5.7856  25036.3  158.412
 5.8276  25578.9  159.854
 5.8696  25694.3  160.289
 5.9116  25613.5  160.696
 5.9536  25972.3  161.607
 5.9956  26185.6  161.646
 6.0376  26320.9  162.682
 6.0796  26639.7  163.499
 6.1216  26529.6  163.352
 6.1636  26797.4  163.27
 6.2056  26904.1  164.237
 6.2476  27102.6  164.551
 6.2896  27246.1  164.849
 6.3316  26951.6  164.133
 6.3736  27204.1  164.79
 6.4156  27203.8  164.735
 6.4576  27538.3  165.314
 6.4996  27743  166.388
 6.5416  27710.7  166.432
 6.5836  28177.5  168.01
 6.6256  27801  166.501
 6.6676  28385.2  167.818
 6.7096  28298  168.402
 6.7516  28781.5  169.483
 6.7936  30046.2  172.55
 6.8356  30850.8  174.974
 6.8776  30048.6  173.472
 6.9196  29274.8  171.621
 6.9616  29946.1  173.005
 7.0036  30123.3  173.205
 7.0456  30508  173.615
 7.0876  30273.2  174.527
 7.1296  30035.8  173.073
 7.1716  30121.4  173.239
 7.2136  29802.5  171.74
 7.2556  30049.8  172.608
 7.2976  29954.6  172.819
 7.3396  30102.5  173.703
 7.3816  29866.5  172.977
 7.4236  30317  173.587
 7.4656  30607.6  173.904
 7.5076  30992.7  175.136
 7.5496  30686.4  174.797
 7.5916  30869.5  175.349
 7.6336  31590  177.278
 7.6756  31251.8  176.181
 7.7176  31665  177.637
 7.7596  31641.7  178.799
 7.8016  38420.5  199.393
 7.8436  32899.6  181.18
 7.8856  32467.5  179.608
 7.9276  33438.2  182.671
 7.9696  33412.4  182.896
 8.0116  34405.9  184.436
 8.0536  35035.3  186.088
 8.0956  37589.4  193.933
 8.1376  35559.1  188.119
 8.1796  35381.2  188.176
 8.2216  36360.5  189.523
 8.2636  37755.4  193.371
 8.3056  36721.1  191.485
 8.3476  39142.4  196.997
 8.3896  37880.7  194.338
 8.4316  36804.7  191.266
 8.4736  36642.8  190.318
 8.5156  36608.5  190.507
 8.5576  36406.7  190.929
 8.5996  36203.8  189.289
 8.6416  36199.1  190.516
 8.6836  36033.4  189.936
 8.7256  36963.1  191.598
 8.7676  39496  201.297
 8.8096  39408.1  198.327
 8.8516  36645.8  190.911
 8.8936  38394.9  195.233
 8.9356  35657.2  188.503
 8.9776  35905.9  189.251
 9.0196  35454.6  187.741
 9.0616  36423.9  189.745
 9.1036  37958.4  194.936
 9.1456  35553.4  188.006
 9.1876  34933.6  186.316
 9.2296  34712.4  185.136
 9.2716  34093.3  183.543
 9.3136  34025.7  183.345
 9.3556  34500.6  184.606
 9.3976  32822  180.577
 9.4396  33108.7  181.255
 9.4816  32760.3  180.17
 9.5236  32802.4  180.192
 9.5656  32471.2  179.584
 9.6076  32324.9  179.697
 9.6496  32177.8  179.222
 9.6916  32394.4  179.789
 9.7336  32519.4  179.928
 9.7756  32256.9  180.357
 9.8176  31491.7  177.756
 9.8596  31522  176.327
 9.9016  31203.7  175.427
 9.9436  31266.5  175.338
 9.9856  31472.9  176.315
 10.0276  30203.6  173.801
 10.0696  30516.7  173.764
 10.1116  29974  172.468
 10.1536  29352.7  170.369
 10.1956  29012.9  169.455
 10.2376  28455.5  167.351
 10.2796  28914.9  168.808
 10.3216  28594.3  167.976
 10.3636  28701.8  168.465
 10.4056  33082.5  181.283
 10.4476  33400.6  181.769
 10.4896  38265.2  193.936
 10.5316  33971.2  183.156
 10.5736  28885.2  169.609
 10.6156  28281  167.609
 10.6576  34426  183.339
 10.6996  28525.1  167.677
 10.7416  27254.4  164.015
 10.7836  28603.2  168.714
 10.8256  26649.8  163.284
 10.8676  26427.9  162.472
 10.9096  26437.6  162.227
 10.9516  26272.8  160.661
 10.9936  27195.5  163.659
 11.0356  26826.9  163.177
 11.0776  28593.5  167.748
 11.1196  28223.3  167.437
 11.1616  26364.5  161.506
 11.2036  27788  165.67
 11.2456  29422.6  171.708
 11.2876  25546.2  159.284
 11.3296  25464.4  158.922
 11.3716  26189.9  160.902
 11.4136  25498.4  159.605
 11.4556  25704.1  159.9
 11.4976  27382.7  164.014
 11.5396  27400.1  164.222
 11.5816  25429.7  158.667
 11.6236  24887  157.399
 11.6656  24789.4  156.062
 11.7076  24137.2  154.796
 11.7496  24845.4  160.939
 11.7916  25285  157.701
 11.8336  24104.2  154.861
 11.8756  24562.2  155.841
 11.9176  23989.9  153.922
 11.9596  23546.4  152.439
 12.0016  23403.4  152.747
 12.0436  23422.2  152.252
 12.0856  23003.8  151.39
 12.1276  23335.1  152.39
 12.1696  23291.9  151.409
 12.2116  24126.2  154.084
 12.2536  26154  161.277
 12.2956  24106  154.185
 12.3376  23486.4  152.413
 12.3796  23415.6  152.62
 12.4216  23643.4  152.596
 12.4636  24688.8  156.854
 12.5056  23265.3  151.428
 12.5476  23093.6  150.533
 12.5896  23121.7  151.235
 12.6316  22661.8  149.89
 12.6736  23105.4  151.673
 12.7156  23057  151.53
 12.7576  23031.1  151.676
 12.7996  23282.9  151.173
 12.8416  23394.2  152.574
 12.8836  24450.5  155.771
 12.9256  23565.1  151.996
 12.9676  23892.2  153.457
 13.0096  23379.3  152.891
 13.0516  23521.6  152.402
 13.0936  23489.9  152.419
 13.1356  23766.1  152.59
 13.1776  23654.6  153.02
 13.2196  23644.4  152.836
 13.2616  23298.7  152.006
 13.3036  23177.4  151.762
 13.3456  23379.4  152.4
 13.3876  23591.6  152.598
 13.4296  23574.6  152.686
 13.4716  23829.7  153.125
 13.5136  23538.4  152.333
 13.5556  23673.3  153.361
 13.5976  23676.3  153.525
 13.6396  23996.2  153.932
 13.6816  23238.1  151.852
 13.7236  24250.6  154.872
 13.7656  23984.7  154.576
 13.8076  24759  155.822
 13.8496  23707.8  153.248
 13.8916  23579.1  153.638
 13.9336  23315.8  152.017
 13.9756  23025.6  150.433
 14.0176  23293.7  152.036
 14.0596  24266.9  155.093
 14.1016  22910.4  151.084
 14.1436  22610.9  149.25
 14.1856  22704.7  149.84
 14.2276  22577.1  149.886
 14.2696  22840.5  150.611
 14.3116  22329.5  148.807
 14.3536  21566.6  146.427
 14.3956  21741.6  146.719
 14.4376  21817.5  146.797
 14.4796  21493.2  145.69
 14.5216  21308.3  145.839
 14.5636  21715.1  146.8
 14.6056  21309  144.878
 14.6476  20955.5  143.052
 14.6896  20843.7  143.198
 14.7316  20279.2  142.233
 14.7736  20422.1  141.943
 14.8156  20202  141.175
 14.8576  20061.5  140.542
 14.8996  20165.3  142.09
 14.9416  19364.1  139.232
 14.9836  19710.6  140.444
 15.0256  19472  138.524
 15.0676  19242.9  138.012
 15.1096  19023.8  136.969
 15.1516  18819.8  136.763
 15.1936  18820.4  136.22
 15.2356  18877.4  136.698
 15.2776  18759.4  135.863
 15.3196  18603.6  136.286
 15.3616  18344.7  135.102
 15.4036  18238.3  134.56
 15.4456  18841  136.2
 15.4876  18282.3  134.068
 15.5296  17863.4  132.795
 15.5716  17745.9  131.971
 15.6136  17734.7  132.245
 15.6556  20176.3  140.267
 15.6976  18303.9  133.678
 15.7396  17896.4  132.787
 15.7816  17828.2  132.04
 15.8236  17280.7  130.696
 15.8656  17251.3  130.373
 15.9076  17320.1  130.46
 15.9496  17635.7  134.458
 15.9916  16653.7  131.54
 16.0336  16602.9  127.865
 16.0756  16793.1  128.894
 16.1176  16507.3  127.707
 16.1596  16103.7  127.432
 16.2016  16339.7  127.139
 16.2436  16038.2  126.335
 16.2856  16133.9  126.265
 16.3276  15831.4  125.482
 16.3696  16003.4  125.985
 16.4116  15672.9  125.129
 16.4536  16003.4  126.218
 16.4956  16634  128.428
 16.5376  16191.5  126.887
 16.5796  15817.4  124.787
 16.6216  15826.3  125.124
 16.6636  15931.1  125.689
 16.7056  15565.7  124.112
 16.7476  15645.9  124.111
 16.7896  15686.1  124.864
 16.8316  15728.2  124.993
 16.8736  16003.8  126.344
 16.9156  15904.1  126.277
 16.9576  15515.7  125.489
 16.9996  15721.4  126.803
 17.0416  15394.1  124.066
 17.0836  15301.7  123.263
 17.1256  15319.8  123.344
 17.1676  15741  125.024
 17.2096  15699.4  124.735
 17.2516  15326.9  123.337
 17.2936  14992.6  122.007
 17.3356  14802.2  121.12
 17.3776  14624.9  120.676
 17.4196  14656.3  120.504
 17.4616  14977.4  121.749
 17.5036  15287.2  123.353
 17.5456  14455.9  120.59
 17.5876  14627.7  120.369
 17.6296  14435.9  119.396
 17.6716  14549.5  120.427
 17.7136  15322.6  123.745
 17.7556  14567.6  120.934
 17.7976  14706  121.106
 17.8396  14553.2  120.122
 17.8816  14252.4  119.395
 17.9236  13984.2  118.093
 17.9656  14456.6  120.769
 18.0076  15043.7  122.617
 18.0496  16007  125.574
 18.0916  21440.9  145.988
 18.1336  18644.5  136.239
 18.1756  15968.2  125.509
 18.2176  16494.6  127.887
 18.2596  14515.7  119.7
 18.3016  15299.6  123.153
 18.3436  15890.4  125.762
 18.3856  14598.5  120.453
 18.4276  14393.6  119.264
 18.4696  14609.9  120.263
 18.5116  14568.5  120.373
 18.5536  14041.3  118.509
 18.5956  14208.8  118.794
 18.6376  14360.2  119.818
 18.6796  13833.2  116.954
 18.7216  14196  119.026
 18.7636  13716.8  116.919
 18.8056  13574.1  116.252
 18.8476  13327.2  115.497
 18.8896  13616.3  116.394
 18.9316  13781.4  116.914
 18.9736  13619.6  116.095
 19.0156  14290.1  119.296
 19.0576  14047.1  117.185
 19.0996  13833.9  116.988
 19.1416  13662.2  116.649
 19.1836  13597.5  115.978
 19.2256  13273.2  114.788
 19.2676  13476.7  115.758
 19.3096  13410.9  115.707
 19.3516  13400.5  115.466
 19.3936  13647.3  116.651
 19.4356  13384.6  115.346
 19.4776  13396.2  115.484
 19.5196  13471  115.656
 19.5616  13484.4  115.971
 19.6036  13401.9  115.089
 19.6456  13573.7  115.97
 19.6876  14117.5  117.915
 19.7296  13439  115.503
 19.7716  13391.7  115.305
 19.8136  13600.9  116.563
 19.8556  13998.9  117.729
 19.8976  14157.3  118.462
 19.9396  14025.3  117.485
 19.9816  14307.5  118.898
 20.0236  14573.4  120.224
 20.0656  13865.4  117.258
 20.1076  13303.3  115.318
 20.1496  13258.3  115.122
 20.1916  13317.9  114.867
 20.2336  13390.8  115.152
 20.2756  12961.1  113.709
 20.3176  13022.1  113.73
 20.3596  13045.3  113.802
 20.4016  13048  113.63
 20.4436  13035.5  114.131
 20.4856  12777.6  112.787
 20.5276  12761.2  113.154
 20.5696  12699.8  112.457
 20.6116  12935.9  113.665
 20.6536  12623.5  111.851
 20.6956  12810.3  112.753
 20.7376  12730.2  112.622
 20.7796  12539.8  111.474
 20.8216  12921.4  112.873
 20.8636  13132  114.166
 20.9056  14447.6  119.686
 20.9476  12989.2  113.332
 20.9896  14000  117.509
 21.0316  13058.5  113.393
 21.0736  13260.8  114.786
 21.1156  13560.8  116.241
 21.1576  13028.6  113.989
 21.1996  12625.4  112.188
 21.2416  12582.8  111.843
 21.2836  12924.2  113.306
 21.3256  12623.7  112.071
 21.3676  12901.4  112.841
 21.4096  13069.6  113.936
 21.4516  12623.5  111.806
 21.4936  12581.1  111.697
 21.5356  12633.2  112.041
 21.5776  12705.2  112.193
 21.6196  12688.5  112.157
 21.6616  12635.7  112.013
 21.7036  12548.6  111.418
 21.7456  12372.3  110.699
 21.7876  12210.3  109.723
 21.8296  12155.5  109.341
 21.8716  12194.7  109.741
 21.9136  12508.7  111.342
 21.9556  12659.9  111.687
 21.9976  12398.5  110.547
 22.0396  12259.4  110.177
 22.0816  12405.5  111.364
 22.1236  12759.3  112.39
 22.1656  12437.7  111.133
 22.2076  12328.5  110.072
 22.2496  12340.2  110.143
 22.2916  12340.8  110.031
 22.3336  12512.6  111.502
 22.3756  12200  109.845
 22.4176  12167.4  109.558
 22.4596  12094.2  109.809
 22.5016  12418.7  110.75
 22.5436  12368.1  110.429
 22.5856  12529.8  111.386
 22.6276  12235.3  110.196
 22.6696  12163.2  110.223
 22.7116  12078.6  109.356
 22.7536  12204.3  109.908
 22.7956  12542.8  110.554
 22.8376  12073.8  109.179
 22.8796  12054.4  108.894
 22.9216  12302.3  110.554
 22.9636  12111.5  108.856
 23.0056  12012.4  108.541
 23.0476  12393.9  110.811
 23.0896  12518.9  110.752
 23.1316  12676.9  111.888
 23.1736  12231.8  112.821
 23.2156  12250.7  110.245
 23.2576  12185  110.173
 23.2996  12206.7  110.059
 23.3416  12184.5  110.469
 23.3836  12256.9  110.015
 23.4256  12257.1  110.153
 23.4676  12161.8  109.428
 23.5096  12427.7  111.293
 23.5516  12178.7  109.468
 23.5936  12426.4  111.469
 23.6356  12567  111.767
 23.6776  11987.8  109.697
 23.7196  11969  109.084
 23.7616  12254.8  110.077
 23.8036  12145.1  109.617
 23.8456  12203  109.464
 23.8876  11755.2  107.783
 23.9296  11865.2  108.759
 23.9716  11898.7  108.121
 24.0136  11877.1  108.917
 24.0556  11985.5  109.137
 24.0976  11825.4  108.221
 24.1396  11777.1  110.573
 24.1816  11856.8  109.733
 24.2236  11825  108.869
 24.2656  11827.3  108.358
 24.3076  11700.4  108.03
 24.3496  12002.1  109.27
 24.3916  12002  109.341
 24.4336  11716.9  108.248
 24.4756  11886.4  108.902
 24.5176  11597.4  107.217
 24.5596  11347.9  106.385
 24.6016  11225.1  105.887
 24.6436  11536.7  106.786
 24.6856  11404  105.989
 24.7276  11585.7  107.136
 24.7696  11433.7  106.553
 24.8116  11524.3  107.145
 24.8536  11179.1  105.535
 24.8956  11306.3  105.873
 24.9376  11269.4  105.887
 24.9796  11117.7  105.275
 25.0216  11155.4  105.572
 25.0636  11280.2  105.809
 25.1056  11176.9  105.736
 25.1476  10976.8  106.71
 25.1896  11074.8  105.673
 25.2316  11080.7  104.872
 25.2736  11015.4  104.337
 25.3156  10933.8  104.03
 25.3576  10802  103.803
 25.3996  10837.1  103.968
 25.4416  10996.4  104.702
 25.4836  10800.6  104.174
 25.5256  10836.1  103.826
 25.5676  10967.4  104.178
 25.6096  10718.4  103.559
 25.6516  10875.1  103.848
 25.6936  10731.2  103.44
 25.7356  10791.7  103.857
 25.7776  10872.9  103.94
 25.8196  10784.6  103.664
 25.8616  10907.2  104.114
 25.9036  11092.2  104.528
 25.9456  10797.2  103.713
 25.9876  10568.3  102.549
 26.0296  10773.5  103.274
 26.0716  10771.1  103.601
 26.1136  10996.5  104.613
 26.1556  11018.1  104.004
 26.1976  10745.4  103.717
 26.2396  10735  103.077
 26.2816  10733.8  103.422
 26.3236  10830.2  103.969
 26.3656  10588.3  102.62
 26.4076  10844.2  104.054
 26.4496  10981.8  104.215
 26.4916  10805.7  103.371
 26.5336  10645.5  102.92
 26.5756  10865.6  103.835
 26.6176  10806.8  103.605
 26.6596  10572.1  102.784
 26.7016  10435.7  101.913
 26.7436  10365.4  101.669
 26.7856  10245.5  101.059
 26.8276  10277.5  101.172
 26.8696  10239.7  100.861
 26.9116  10362.5  101.404
 26.9536  10180.2  100.553
 26.9956  10227.2  100.818
 27.0376  10222.3  101.013
 27.0796  10349.5  101.412
 27.1216  10358  101.492
 27.1636  10117.5  100.463
 27.2056  10247.6  100.99
 27.2476  10091.8  100.223
 27.2896  10058.6  100.085
 27.3316  10136.5  100.269
 27.3736  10067.2  100.181
 27.4156  9942.43  99.4136
 27.4576  10104.9  100.446
 27.4996  10194.7  100.499
 27.5416  10216.5  100.915
 27.5836  10122.5  100.265
 27.6256  10380.9  101.705
 27.6676  10213.9  100.901
 27.7096  10105.6  100.239
 27.7516  10796.6  103.716
 27.7936  10697  103.459
 27.8356  10362.1  101.44
 27.8776  10169.9  100.544
 27.9196  10247.4  100.769
 27.9616  10411.8  101.663
 28.0036  10129.8  100.356
 28.0456  9956.89  99.6223
 28.0876  9853.03  99.1956
 28.1296  10017.8  99.8621
 28.1716  9986.67  99.7203
 28.2136  9926.76  99.3784
 28.2556  9907.58  99.4049
 28.2976  9921.82  99.4577
 28.3396  10018.5  99.7417
 28.3816  9846.55  98.8664
 28.4236  10083.1  100.195
 28.4656  9707.09  98.351
 28.5076  9582.69  97.3618
 28.5496  9652.05  97.9687
 28.5916  9535.09  97.188
 28.6336  9618.18  97.9517
 28.6756  9845.68  98.3033
 28.7176  9784.19  98.5353
 28.7596  9505.86  97.0291
 28.8016  9610.95  97.6719
 28.8436  9506.2  97.3026
 28.8856  9660.49  97.9376
 28.9276  9687.09  98.3189
 28.9696  9553.1  97.2994
 29.0116  9515.06  97.2767
 29.0536  9497.27  97.3905
 29.0956  9633.61  97.8111
 29.1376  9564.88  97.4217
 29.1796  9504.82  97.1609
 29.2216  9372.93  96.3301
 29.2636  9562.4  97.2963
 29.3056  9352.85  96.0968
 29.3476  9420.88  96.959
 29.3896  9533.99  97.6402
 29.4316  9603.32  97.3231
 29.4736  9492.87  96.8307
 29.5156  9589.28  97.2356
 29.5576  9457.82  97.292
 29.5996  9455.57  96.5553
 29.6416  9378.19  96.2687
 29.6836  9516.42  96.9081
 29.7256  9370.02  96.7213
 29.7676  9410.58  96.6
 29.8096  9410.21  96.5359
 29.8516  9247.14  96.0294
 29.8936  9450.54  97.164
 29.9356  9513.89  97.2467
 29.9776  9316.31  96.3839
 30.0196  9572.95  97.0783
 30.0616  9394.66  96.5526
 30.1036  9350.3  96.1464
 30.1456  9165.07  95.4456
 30.1876  9244.95  95.9943
 30.2296  9128.73  95.1662
 30.2716  9305.18  95.719
 30.3136  9320.56  96.3925
 30.3556  9215.75  96.1252
 30.3976  9322.53  98.1779
 30.4396  9347.7  95.6968
 30.4816  9348.52  95.3042
 30.5236  9256.37  94.8506
 30.5656  9183.11  95.1144
 30.6076  9326.7  95.6313
 30.6496  9204.53  95.0462
 30.6916  9195.99  95.0866
 30.7336  9302.47  95.7907
 30.7756  9170.19  95.4114
 30.8176  9171.22  95.1228
 30.8596  9146.09  94.7677
 30.9016  9056.92  94.1793
 30.9436  9096.53  94.6025
 30.9856  9152.46  94.9983
 31.0276  8988.2  93.7472
 31.0696  9070.54  94.6259
 31.1116  9075.29  94.7554
 31.1536  9382.8  96.2246
 31.1956  9093.18  94.8188
 31.2376  8818.62  93.3852
 31.2796  8972.83  93.74
 31.3216  8927.27  93.4541
 31.3636  9066.87  94.8457
 31.4056  9073.22  96.1888
 31.4476  8979.51  93.6025
 31.4896  9019.86  94.312
 31.5316  9174.71  94.5636
 31.5736  9921.51  98.115
 31.6156  9630.62  96.6794
 31.6576  9352.25  95.3716
 31.6996  9342.69  94.991
 31.7416  9096.35  94.6569
 31.7836  9102.68  93.8388
 31.8256  8979.13  93.5437
 31.8676  9208.58  94.6508
 31.9096  8830.9  92.8926
 31.9516  8743.65  92.7366
 31.9936  8855.79  93.2868
 32.0356  8925.54  93.5864
 32.0776  9079.84  94.2778
 32.1196  8977.09  93.7461
 32.1616  8947  93.1405
 32.2036  8829.7  93.0371
 32.2456  8854.4  93.5337
 32.2876  8779.75  92.467
 32.3296  8811.89  92.7771
 32.3716  8899.44  93.3413
 32.4136  8896.94  93.5467
 32.4556  8927.35  93.1432
 32.4976  8927.15  93.0458
 32.5396  8793.78  92.37
 32.5816  8767.6  92.2514
 32.6236  8817.07  92.6793
 32.6656  8913.21  93.7199
 32.7076  8780.5  92.6807
 32.7496  8783.58  92.3636
 32.7916  8798.97  92.4076
 32.8336  8724.54  92.2284
 32.8756  8731.13  91.9708
 32.9176  8714.02  92.2539
 32.9596  8805.49  92.8171
 33.0016  8862.4  92.9106
 33.0436  8872.34  93.1385
 33.0856  8622.87  91.8843
 33.1276  8695.77  92.0027
 33.1696  8708.02  91.9141
 33.2116  8741.09  92.1287
 33.2536  8766.12  92.4545
 33.2956  8760.02  92.4994
 33.3376  8619.62  91.5553
 33.3796  8769.09  92.484
 33.4216  8744.78  91.9972
 33.4636  8647.11  91.5957
 33.5056  8559.86  91.2032
 33.5476  8516.21  91.1335
 33.5896  8616.99  91.414
 33.6316  8444.68  90.8359
 33.6736  8472.41  91.2172
 33.7156  8436.14  91.0647
 33.7576  8611.26  91.6342
 33.7996  8719.44  91.9797
 33.8416  8394.44  90.4309
 33.8836  8575.7  91.1749
 33.9256  8599.31  91.3766
 33.9676  8652.28  91.5509
 34.0096  8522.09  91.1688
 34.0516  8418.11  90.2569
 34.0936  8452.55  90.7
 34.1356  8561.54  91.0272
 34.1776  8326.14  89.7759
 34.2196  8362.84  90.1513
 34.2616  8366.53  90.4258
 34.3036  8309.81  90.2478
 34.3456  8280.24  89.8442
 34.3876  8503.24  91.0932
 34.4296  8427.04  90.2868
 34.4716  8595  91.4765
 34.5136  8410.47  90.5543
 34.5556  8327.95  90.3551
 34.5976  8410.9  90.6474
 34.6396  8463.42  90.6066
 34.6816  8368.44  90.2143
 34.7236  8443.91  90.4033
 34.7656  8368.4  90.1922
 34.8076  8284.16  90.044
 34.8496  8356.78  90.2976
 34.8916  8298.21  89.8634
 34.9336  8517.29  91.0022
 34.9756  8717.02  91.9968
 35.0176  8365.61  90.6312
 35.0596  8333.39  90.2992
 35.1016  8205.4  89.3667
 35.1436  8396.61  90.0856
 35.1856  8227.44  89.3053
 35.2276  8357.34  90.1711
 35.2696  8330.78  90.225
 35.3116  8364.32  90.5239
 35.3536  8253.02  89.6454
 35.3956  8217.15  89.1284
 35.4376  8327.57  90.2707
 35.4796  8297.96  90.1688
 35.5216  8133.86  89.1569
 35.5636  8004.29  89.2484
 35.6056  8358.32  90.2199
 35.6476  8306.42  89.8429
 35.6896  8446.82  90.7655
 35.7316  8273.21  89.724
 35.7736  8152.82  89.26
 35.8156  8143.19  89.203
 35.8576  8229.33  89.9178
 35.8996  8344.68  90.5673
 35.9416  8202.19  89.244
 35.9836  8250.72  89.9539
 36.0256  8297.73  90.1409
 36.0676  8314.15  89.766
 36.1096  8163.88  89.3044
 36.1516  8229.34  89.5524
 36.1936  8203.55  89.2668
 36.2356  8208.18  89.9194
 36.2776  8158.23  89.2793
 36.3196  8097.7  88.4833
 36.3616  8141.16  88.8436
 36.4036  8118.8  88.7816
 36.4456  8131.66  89.0357
 36.4876  8010.52  88.3301
 36.5296  8134.99  89.0577
 36.5716  8217.53  90.2878
 36.6136  8573.89  90.9609
 36.6556  8368.75  90.0818
 36.6976  8381  90.6424
 36.7396  8207.67  89.5224
 36.7816  8112.24  89.281
 36.8236  8076.28  89.001
 36.8656  7982.08  88.5529
 36.9076  8185.73  89.6857
 36.9496  8038.3  88.8878
 36.9916  8050.81  88.4379
 37.0336  8258.47  89.8936
 37.0756  8168.64  89.1901
 37.1176  8001.21  88.6354
 37.1596  8093.77  89.0512
 37.2016  8104.83  89.2861
 37.2436  8175.14  89.0429
 37.2856  7974.22  88.1933
 37.3276  8097.26  88.2274
 37.3696  7958.68  88.3399
 37.4116  8074.39  88.8929
 37.4536  7984.53  88.2637
 37.4956  7864.98  87.6504
 37.5376  7989.24  89.8781
 37.5796  7902.85  89.3484
 37.6216  7710.44  86.5849
 37.6636  7802.26  86.9981
 37.7056  7951.02  88.0126
 37.7476  7870.38  87.1056
 37.7896  7895.55  87.7241
 37.8316  7680.86  86.7097
 37.8736  7970.29  87.8503
 37.9156  7783.03  86.8171
 37.9576  7904.86  87.5253
 37.9996  7732.83  86.1489
 38.0416  7874.08  87.7382
 38.0836  7905.44  87.8175
 38.1256  7979.59  88.1881
 38.1676  7860.01  87.6579
 38.2096  7893.95  87.4778
 38.2516  7954.56  87.9219
 38.2936  7861.71  87.3013
 38.3356  7901.81  87.4308
 38.3776  7845.46  87.3989
 38.4196  7965.86  87.9185
 38.4616  7925.08  87.9195
 38.5036  7949.95  87.9091
 38.5456  7857.17  88.2101
 38.5876  7790.38  87.864
 38.6296  7688.86  86.2868
 38.6716  7838.45  86.9136
 38.7136  7717.64  86.1869
 38.7556  7761.32  86.9272
 38.7976  7747.26  86.7894
 38.8396  7716.86  87.0655
 38.8816  7593.43  86.1406
 38.9236  7731.61  86.745
 38.9656  7705.94  86.5154
 39.0076  7769.32  86.2832
 39.0496  7705.13  86.4662
 39.0916  7716.77  86.1673
 39.1336  7671.89  86.3324
 39.1756  7572.3  85.8355
 39.2176  7689.51  87.0131
 39.2596  7643.8  86.6828
 39.3016  7640.56  86.237
 39.3436  7619.04  86.5415
 39.3856  7736.93  86.6634
 39.4276  7684.14  86.8645
 39.4696  7729.45  86.7413
 39.5116  7639.7  86.7434
 39.5536  7837.41  88.2818
 39.5956  7648.08  86.3183
 39.6376  7840.8  87.2473
 39.6796  7690.56  86.3058
 39.7216  7848.91  87.2971
 39.7636  7796.98  87.574
 39.8056  7757.29  87.1321
 39.8476  7764.61  87.4189
 39.8896  7686.8  86.6254
 39.9316  7656.21  86.6954
 39.9736  7861.84  87.4178
 40.0156  7776.87  86.7782
 40.0576  7779.17  87.1369
 40.0996  7873.1  86.8549
 40.1416  7684.82  86.5943
 40.1836  7817.36  87.2304
 40.2256  7753.19  86.9077
 40.2676  7799.98  87.3476
 40.3096  7823.62  87.3383
 40.3516  7855.09  87.693
 40.3936  7848.33  87.1489
 40.4356  7829.53  87.2302
 40.4776  7771.44  87.1613
 40.5196  7850.96  87.8905
 40.5616  7724.06  86.8307
 40.6036  7796.64  87.4844
 40.6456  7849.46  87.3915
 40.6876  7946.54  87.9185
 40.7296  7815.78  87.3205
 40.7716  7805.49  87.3975
 40.8136  7749.52  87.02
 40.8556  7768.12  87.2655
 40.8976  7908.22  87.9639
 40.9396  7754.96  87.4599
 40.9816  7899.06  87.5533
 41.0236  7872.53  87.1881
 41.0656  7804.86  87.3405
 41.1076  7812.18  87.156
 41.1496  7893.82  87.5211
 41.1916  7844.71  87.5658
 41.2336  7728.78  86.9184
 41.2756  7667.49  86.1791
 41.3176  7775.54  87.3962
 41.3596  7888.37  87.7506
 41.4016  7787.73  87.4573
 41.4436  7791.56  87.2552
 41.4856  7808.43  87.5135
 41.5276  7711.22  86.9904
 41.5696  7728.55  86.7045
 41.6116  7750.89  87.2446
 41.6536  7799.74  87.3737
 41.6956  7915.69  88.0013
 41.7376  7763.69  87.2525
 41.7796  7821.93  87.5033
 41.8216  7781.77  87.4714
 41.8636  7812.17  87.5781
 41.9056  7708.08  86.7874
 41.9476  7732.37  87.1537
 41.9896  7736.3  86.8484
 42.0316  7812.78  87.3545
 42.0736  7813.31  87.5029
 42.1156  7676.81  86.5437
 42.1576  7752.19  87.0596
 42.1996  7749.35  87.1876
 42.2416  7730.97  86.6704
 42.2836  7625.13  86.1925
 42.3256  7656.55  86.4794
 42.3676  7730.26  86.7061
 42.4096  7745.93  86.7535
 42.4516  7669.87  86.4156
 42.4936  7636.83  86.2947
 42.5356  7682.03  86.6761
 42.5776  7744.25  86.9748
 42.6196  7674.08  86.5442
 42.6616  7597.16  86.3571
 42.7036  7815.62  86.9793
 42.7456  7725.04  86.8364
 42.7876  7615.75  86.314
 42.8296  7737.89  86.9025
 42.8716  7689.2  86.7216
 42.9136  7639.77  86.187
 42.9556  7633.27  86.3238
 42.9976  7578.81  85.9981
 43.0396  7626.53  85.9881
 43.0816  7576.19  86.0662
 43.1236  7562.3  86.0547
 43.1656  7557.43  85.8602
 43.2076  7522.51  85.7682
 43.2496  7616.95  86.116
 43.2916  7546.56  86.0782
 43.3336  7654.32  86.5283
 43.3756  7530.32  85.5753
 43.4176  7445.03  85.1779
 43.4596  7548.47  85.624
 43.5016  7444.71  85.4331
 43.5436  7532.69  85.8388
 43.5856  7488.58  85.6094
 43.6276  7485.78  85.4869
 43.6696  7448.29  85.4146
 43.7116  7623.15  86.0296
 43.7536  7614.48  86.4628
 43.7956  7367.28  86.2283
 43.8376  7562.66  85.7121
 43.8796  7609.24  86.2417
 43.9216  7455.25  85.281
 43.9636  7470.23  85.4771
 44.0056  7376.11  85.1626
 44.0476  7416.19  85.0368
 44.0896  7338.17  84.9156
 44.1316  7454.01  85.2543
 44.1736  7413.5  85.0046
 44.2156  7492.8  85.3032
 44.2576  7468.11  85.4948
 44.2996  7307.33  84.7325
 44.3416  7499  85.4131
 44.3836  7270.94  84.4172
 44.4256  7204.89  83.6927
 44.4676  7429.3  85.1354
 44.5096  7313.71  84.6141
 44.5516  7379.36  84.958
 44.5936  7211.76  83.9415
 44.6356  7466.89  85.1462
 44.6776  7406.65  85.1176
 44.7196  7325.03  84.9184
 44.7616  7317.1  86.2191
 44.8036  7304.57  84.8151
 44.8456  7425.31  85.5075
 44.8876  7265.06  84.435
 44.9296  7367.29  84.4916
 44.9716  7210.82  84.0146
 45.0136  7327.95  84.6235
 45.0556  7222.38  84.0915
 45.0976  7247.15  84.2882
 45.1396  7170.7  83.615
 45.1816  7243.2  83.7965
 45.2236  7442.3  85.0147
 45.2656  7219.81  84.2213
 45.3076  7169.33  83.7114
 45.3496  7175.86  84.0516
 45.3916  7245.86  84.7287
 45.4336  7261.31  84.6638
 45.4756  7236.85  84.3824
 45.5176  7208.71  83.841
 45.5596  7243.13  84.1564
 45.6016  7186.95  84.2427
 45.6436  7184.05  83.4173
 45.6856  7190.92  84.1055
 45.7276  7141.38  85.606
 45.7696  7242.53  85.3641
 45.8116  7207.39  84.5969
 45.8536  7152.98  84.1838
 45.8956  7233.1  84.014
 45.9376  7150.62  83.0088
 45.9796  7167.95  83.7978
 46.0216  7238.75  84.5359
 46.0636  7294.87  84.0042
 46.1056  7256.1  83.775
 46.1476  7268.64  84.4348
 46.1896  7143.44  83.8505
 46.2316  7166.32  83.8596
 46.2736  7049.86  83.3099
 46.3156  7143.21  83.6772
 46.3576  7135.2  83.8274
 46.3996  7154.36  84.0989
 46.4416  7123.71  83.4727
 46.4836  7112.04  83.7849
 46.5256  7198.37  84.2285
 46.5676  6958.6  82.9268
 46.6096  7299.88  84.876
 46.6516  7177.21  83.2128
 46.6936  7192.75  83.7851
 46.7356  7303.49  84.5399
 46.7776  7100.1  84.1818
 46.8196  6979.24  83.2015
 46.8616  7021.82  83.2687
 46.9036  6869.89  82.0216
 46.9456  6899.47  81.8543
 46.9876  7032.8  82.7247
 47.0296  6958.59  82.956
 47.0716  6905.46  82.4688
 47.1136  6997.37  82.7084
 47.1556  6916.48  82.0968
 47.1976  6929.73  82.2614
 47.2396  6929.41  82.6315
 47.2816  6898.27  82.1474
 47.3236  6885.93  82.4493
 47.3656  6978.82  83.0171
 47.4076  6987.79  82.7173
 47.4496  6997.68  82.9375
 47.4916  6846.8  82.238
 47.5336  6972.15  82.7937
 47.5756  6984.61  82.9486
 47.6176  6867.48  82.1929
 47.6596  6902.9  82.1124
 47.7016  7002.56  82.5295
 47.7436  7036.5  82.9985
 47.7856  7084.36  83.3751
 47.8276  6829.43  81.8967
 47.8696  6897.22  82.4013
 47.9116  7047.74  82.9976
 47.9536  6946.63  82.3466
 47.9956  6881.07  82.6535
 48.0376  6681.24  81.2201
 48.0796  7016.47  83.3612
 48.1216  6889.14  82.5402
 48.1636  6970.6  82.5026
 48.2056  6845.55  82.0116
 48.2476  6948.18  82.933
 48.2896  6879.7  82.4298
 48.3316  6839.29  82.1326
 48.3736  6850.92  82.2147
 48.4156  6829.83  81.9478
 48.4576  6734.48  81.6622
 48.4996  6860.04  81.8717
 48.5416  6865.44  82.239
 48.5836  6894.13  82.0921
 48.6256  6861.02  82.0991
 48.6676  6933.26  83.0329
 48.7096  6850.92  81.8329
 48.7516  6920.37  82.3867
 48.7936  6801.82  81.7315
 48.8356  6869.76  82.1912
 48.8776  6845.43  82.5277
 48.9196  6928.47  82.4913
 48.9616  6731.25  81.6708
 49.0036  6871.69  82.8678
 49.0456  6728.18  81.9664
 49.0876  6821.16  82.1855
 49.1296  6797.66  82.0953
 49.1716  6758.14  81.7345
 49.2136  6784.41  81.8232
 49.2556  6794.31  81.9119
 49.2976  6881.4  82.5118
 49.3396  6771.98  81.8997
 49.3816  6802.64  81.5338
 49.4236  6787.03  81.848
 49.4656  6724.77  81.4879
 49.5076  6723.32  81.2365
 49.5496  6698.91  81.0251
 49.5916  6781.57  81.5694
 49.6336  6676.02  81.1311
 49.6756  6757.46  81.8583
 49.7176  6626.66  81.0012
 49.7596  6805.2  82.0382
 49.8016  6682.02  81.0353
 49.8436  6668.96  81.2373
 49.8856  6697.45  81.4266
 49.9276  6644.84  81.1951
 49.9696  6668.44  81.3306
 50.0116  6692.82  81.5963
 50.0536  6705.68  81.6316
 50.0956  6538.9  80.6753
 50.1376  6619.31  80.8821
 50.1796  6534.32  80.6205
 50.2216  6606.07  81.0539
 50.2636  6602.35  80.6624
 50.3056  6578.81  80.6796
 50.3476  6682.31  81.3427
 50.3896  6570.94  80.633
 50.4316  6589.91  80.5867
 50.4736  6587.26  80.7841
 50.5156  6583.5  80.7519
 50.5576  6710.43  81.2949
 50.5996  6545.8  80.5605
 50.6416  6599.96  80.819
 50.6836  6578.03  80.7443
 50.7256  6591.55  80.7431
 50.7676  6622.85  81.2223
 50.8096  6585.94  80.5829
 50.8516  6517.51  80.5667
 50.8936  6556.27  80.5841
 50.9356  6581.29  80.8501
 50.9776  6495.26  80.4667
 51.0196  6401.8  80.0033
 51.0616  6414.55  79.4224
 51.1036  6590.76  80.8607
 51.1456  6517.8  80.319
 51.1876  6608.78  80.2363
 51.2296  6553.47  80.5258
 51.2716  6462.09  79.6783
 51.3136  6363.2  79.4923
 51.3556  6460.22  79.7465
 51.3976  6427.3  79.6826
 51.4396  6243.27  78.8298
 51.4816  6495.73  80.2638
 51.5236  6491.3  80.3139
 51.5656  6363.7  79.1423
 51.6076  6513.7  80.1431
 51.6496  6441.08  79.8926
 51.6916  6419.17  80.1686
 51.7336  6443.83  80.3492
 51.7756  6567.84  80.8156
 51.8176  6463.91  80.2694
 51.8596  6459.84  80.2654
 51.9016  6547.99  80.4259
 51.9436  6358.7  80.6908
 51.9856  6296.5  80.7101
 52.0276  6501.86  80.5577
 52.0696  6413.58  80.072
 52.1116  6362.72  79.8612
 52.1536  6401.91  79.952
 52.1956  6498.27  80.0753
 52.2376  6467.82  80.0525
 52.2796  6393.72  79.3991
 52.3216  6271.98  79.3247
 52.3636  6397  79.6959
 52.4056  6295.79  78.9209
 52.4476  6342.49  79.5741
 52.4896  6437.38  80.2178
 52.5316  6282.82  79.2933
 52.5736  6412.65  79.833
 52.6156  6344.27  79.7786
 52.6576  6476.54  80.0566
 52.6996  6171.97  79.1002
 52.7416  6280.93  79.6494
 52.7836  6263.52  79.4178
 52.8256  6377.67  79.3807
 52.8676  6145.79  78.4826
 52.9096  6277.47  79.398
 52.9516  6284.07  79.7981
 52.9936  6262.34  80.037
 53.0356  6274.96  79.1384
 53.0776  6156.91  78.676
 53.1196  6087.29  78.3217
 53.1616  6186.67  79
 53.2036  6110.99  78.4753
 53.2456  6076.98  78.3581
 53.2876  6136.51  78.4528
 53.3296  6123.54  78.686
 53.3716  6145.82  78.656
 53.4136  6133.22  78.6461
 53.4556  6148.82  78.778
 53.4976  6085.77  78.2241
 53.5396  6114.8  78.7857
 53.5816  6071.1  78.152
 53.6236  6098.39  78.6649
 53.6656  6146.83  78.6153
 53.7076  6043.36  77.9122
 53.7496  6103.27  78.4198
 53.7916  6173.25  78.9871
 53.8336  6160.5  78.8133
 53.8756  5947.11  77.9582
 53.9176  6091.27  78.254
 53.9596  6229.27  79.9015
 54.0016  6143.28  78.6854
 54.0436  6026.94  78.1486
 54.0856  6160.08  78.4401
 54.1276  6120.9  78.393
 54.1696  6132.42  78.6356
 54.2116  6068.77  77.9939
 54.2536  6116.74  78.1149
 54.2956  6197.63  78.6612
 54.3376  6112.15  78.6061
 54.3796  6048.07  78.089
 54.4216  6170.9  78.9255
 54.4636  6154.25  78.784
 54.5056  6178.8  78.7714
 54.5476  6054.8  78.2938
 54.5896  6163.27  78.8239
 54.6316  6100.01  78.2837
 54.6736  6122.57  78.4472
 54.7156  6056.78  78.0973
 54.7576  6003.63  77.7482
 54.7996  6014.47  77.9737
 54.8416  6144.1  78.838
 54.8836  6073.92  78.5057
 54.9256  6011.43  77.8482
 54.9676  6180.01  78.7912
 55.0096  6172.47  78.8138
 55.0516  6090.75  78.4502
 55.0936  6064.47  77.9829
 55.1356  6050.83  77.9344
 55.1776  6143  78.7987
 55.2196  6140.39  78.5658
 55.2616  6048.57  78.1864
 55.3036  6010.97  78.0974
 55.3456  5967.66  77.9606
 55.3876  6069.24  78.3702
 55.4296  6043.53  78.1763
 55.4716  5998.77  77.9244
 55.5136  6102.28  78.349
 55.5556  6023.33  77.919
 55.5976  5977.95  77.6796
 55.6396  6091.69  78.2802
 55.6816  6129.51  78.4832
 55.7236  6014.82  77.8833
 55.7656  6091.01  78.0392
 55.8076  6204.84  78.7468
 55.8496  5995.17  77.8302
 55.8916  5995.4  77.8861
 55.9336  6052.36  78.1129
 55.9756  6034.61  77.8854
 56.0176  6102.93  78.4769
 56.0596  6020.76  77.9284
 56.1016  6102.98  78.4901
 56.1436  6020.54  78.1957
 56.1856  5984.34  77.7038
 56.2276  5991.52  77.8152
 56.2696  6093.57  78.4364
 56.3116  5992.17  78.1906
 56.3536  6077.89  78.4048
 56.3956  6055.31  78.2483
 56.4376  5978.75  77.783
 56.4796  6069.36  78.1704
 56.5216  6042.23  78.3659
 56.5636  6074.41  78.1705
 56.6056  5986.75  77.8349
 56.6476  5936.78  77.148
 56.6896  5968.45  77.7911
 56.7316  5932.53  77.4547
 56.7736  5969.19  77.8977
 56.8156  6072.25  78.3739
 56.8576  6018.36  77.9608
 56.8996  6020.06  77.9163
 56.9416  5993.29  77.9017
 56.9836  5950.17  77.283
 57.0256  6005.93  77.9507
 57.0676  5948.19  77.7057
 57.1096  5994.63  77.7946
 57.1516  5983.7  77.7457
 57.1936  6016.97  77.7491
 57.2356  5980.78  77.8311
 57.2776  6021.17  78.0507
 57.3196  5934.15  77.8453
 57.3616  5952.82  77.473
 57.4036  6054.3  78.1915
 57.4456  5929.3  77.3533
 57.4876  5989.82  77.6034
 57.5296  5933.78  77.4722
 57.5716  5975.88  77.8387
 57.6136  5982.48  77.6938
 57.6556  5988.45  77.8779
 57.6976  5962.99  77.5391
 57.7396  5986.35  78.0602
 57.7816  5804.08  77.206
 57.8236  5963.76  78.0605
 57.8656  6033.49  78.1712
 57.9076  5946.63  77.6429
 57.9496  5944.49  77.963
 57.9916  5969.38  77.6089
 58.0336  6000.64  78.1289
 58.0756  5884.04  76.9647
 58.1176  5940.62  77.3749
 58.1596  5951.52  77.9946
 58.2016  6010.42  77.6256
 58.2436  6012.89  78.0356
 58.2856  5921.06  77.366
 58.3276  5956.77  77.9625
 58.3696  5989.45  77.9218
 58.4116  5911.4  77.2863
 58.4536  5977.69  77.6001
 58.4956  6075.36  78.4155
 58.5376  6000.94  77.5091
 58.5796  6005.73  77.9677
 58.6216  5982.37  77.6239
 58.6636  5970.49  77.7641
 58.7056  5957.63  77.5342
 58.7476  6084.32  78.8028
 58.7896  5914.09  77.3416
 58.8316  5961.42  77.6393
 58.8736  6041.33  78.1669
 58.9156  5953.46  77.6411
 58.9576  6171.91  79.2635
 58.9996  6107.02  78.2112
 59.0416  6162.81  78.9327
 59.0836  5922.19  77.2989
 59.1256  5912.98  77.6223
 59.1676  5951.33  78.4673
 59.2096  5924.42  77.64
 59.2516  6128.35  78.5429
 59.2936  6048.52  78.358
 59.3356  6051.65  78.2558
 59.3776  6068.87  78.5365
 59.4196  5982.97  77.9153
 59.4616  6050.15  78.2111
 59.5036  5978.42  77.7815
 59.5456  6072.46  78.0831
 59.5876  6264.81  79.5048
 59.6296  5944.98  77.5175
 59.6716  6062.64  78.3389
 59.7136  6078.3  78.4282
 59.7556  6077.82  78.562
 59.7976  5996.1  77.7751
 59.8396  5939.8  77.3043
 59.8816  5996.47  78.2126
 59.9236  6166.33  78.9557
 59.9656  5987.88  78.0598
 60.0076  5977.31  77.356
 60.0496  6021.01  78.1416
 60.0916  6043.38  77.7043
 60.1336  5848.41  77.5304
 60.1756  6028.77  79.9001
 60.1996  0.0000000E+00  0.0000000E+00