File: docs/examples/XRD/IS17_D/Data/IS17_D/17_Db_f00067.xye
# /beamlines/bl04/projects/cycle2025-II/20250340211-lsimonelli/DATA/IS17_D/17_Db_f00067.xye : mythproc.py merge -s 0.006 -l 0.5 -f /beamlines/bl04/inhouse/ff/FlatField/ff_20Nov2024rod8mm60s_17keV.raw -b True -c true -o xye /beamlines/bl04/projects/cycle2025-II/20250340211-lsimonelli/DATA/IS17_D/17_Db_00067.dat
# IsMon = [6777511, 6779851, 6779777]  IsPos = [-1.4999, -2.4884, -3.4988]
# Wave = 0.4962  CalPath /beamlines/bl04/projects/cycle2025-II/20250340211-lsimonelli/DATA/Align/Si_Pos1_25keV_f00001.cal
# Date = 2025-09-24_12:21:35 Dt = 4.8000  Bin = 0.0060  <imon> = 6779046 +/- 1086 (Min/Max) 6777511 / 6779851
# icurr 252.1210  mocoIn 1.7208E-05  mocoOut 0.8073  i15 7.10549e+06  imon 6.77905e+06  i7 3.0000  iEMpd_timer 4.8000  iEMpd_1 3.2814E-08  iEMpd_2 7.8582E-08  iEMpd_3 1.6402E-08  iEMpd_4 4.6781E-08  iEMhp_timer 4.8000  iEMhp_1 4.9266E-06  iEMhp_2 -2.4949E-08  iEMhp_3 -2.4983E-08  iEMhp_4 -2.1210E-08
#      9776
 1.5856  43695.3  214.669
 1.6276  50161.2  226.058
 1.6696  55794.2  237.572
 1.7116  63481.3  253.906
 1.7536  71447.8  268.219
 1.7956  75307.5  276.057
 1.8376  71542.3  269.494
 1.8796  62048  249.128
 1.9216  51343.9  227.527
 1.9636  43843.1  209.39
 2.0056  39897.9  198.972
 2.0476  37163.9  194.139
 2.0896  35435.6  188.46
 2.1316  35143.9  186.78
 2.1736  33501.6  183.811
 2.2156  33612.4  182.637
 2.2576  32529.8  180.316
 2.2996  31203.4  177.249
 2.3416  31776.6  177.443
 2.3836  31179.4  175.875
 2.4256  29931.2  172.88
 2.4676  29844.4  172.385
 2.5096  29507.6  171.465
 2.5516  33221.2  186.075
 2.5936  104878  323.747
 2.6356  30102.5  174.33
 2.6776  27904.8  166.734
 2.7196  27199.5  165.109
 2.7616  26981.5  164.224
 2.8036  26489.2  162.879
 2.8456  26555.1  163.728
 2.8876  25844.9  161.388
 2.9296  25479.6  160.372
 2.9716  25236.2  159.098
 3.0136  25144.8  158.877
 3.0556  25092.1  159.097
 3.0976  25226.6  158.431
 3.1396  24674.6  157.411
 3.1816  24417.4  156.535
 3.2236  24216.6  155.873
 3.2656  24131.4  154.648
 3.3076  24075  155.933
 3.3496  24272.5  155.498
 3.3916  24484.3  155.991
 3.4336  25111  158.573
 3.4756  25386.3  159.382
 3.5176  25950.7  160.898
 3.5596  25886.2  163.153
 3.6016  26027.8  161.21
 3.6436  24955  158.955
 3.6856  24688.7  156.419
 3.7276  23719.1  154.39
 3.7696  23536.5  153.983
 3.8116  23205.4  152.792
 3.8536  23337.2  153.157
 3.8956  23204.6  152.539
 3.9376  23501.7  153.782
 3.9796  23113.7  151.999
 4.0216  23074.3  150.907
 4.0636  22865.8  151.677
 4.1056  23062.1  151.985
 4.1476  23390.3  153.375
 4.1896  23453.6  153.434
 4.2316  23693.2  154.046
 4.2736  23982.5  154.786
 4.3156  24068.7  155.29
 4.3576  24921.9  157.928
 4.3996  25130.2  158.866
 4.4416  25982.7  161.116
 4.4836  26609.3  163.207
 4.5256  26821.8  164.464
 4.5676  26551.5  163.893
 4.6096  27211.9  164.57
 4.6516  27711.4  165.774
 4.6936  27783.9  166.817
 4.7356  28357.5  168.349
 4.7776  27730.9  166.307
 4.8196  27558.8  166.441
 4.8616  26958.7  164.109
 4.9036  26893.7  163.646
 4.9456  26743.5  163.843
 4.9876  25932  161.233
 5.0296  26270.7  162.126
 5.0716  25874.3  161.639
 5.1136  26233.7  162.489
 5.1556  26565.2  162.968
 5.1976  32072.2  179.051
 5.2396  27074.8  164.213
 5.2816  27059  164.641
 5.3236  26894.4  163.833
 5.3656  26670  164.077
 5.4076  26266.9  162.967
 5.4496  26329.3  162.657
 5.4916  26472.8  162.859
 5.5336  26465.2  162.841
 5.5756  26546.8  163.105
 5.6176  26476.6  162.33
 5.6596  26825.5  164.391
 5.7016  26917  163.93
 5.7436  27074.1  164.688
 5.7856  26919.8  164.284
 5.8276  27022.4  164.309
 5.8696  27231  165.117
 5.9116  27218.9  165.68
 5.9536  27649.5  166.732
 5.9956  27647.7  166.111
 6.0376  27783.1  167.136
 6.0796  28090.5  167.886
 6.1216  27838.7  167.325
 6.1636  28349.3  167.919
 6.2056  28243.1  168.277
 6.2476  28233.2  168.122
 6.2896  28629.9  168.979
 6.3316  28628.9  169.152
 6.3736  28724.1  169.326
 6.4156  28952.2  169.876
 6.4576  28919  169.405
 6.4996  28851.2  169.679
 6.5416  29012.7  170.283
 6.5836  29264.3  171.255
 6.6256  29276.4  170.855
 6.6676  29593.7  171.343
 6.7096  29703.9  172.526
 6.7516  29886.5  172.705
 6.7936  30770.6  174.64
 6.8356  30968.9  175.299
 6.8776  30746.4  175.473
 6.9196  30698.9  175.74
 6.9616  30851.2  175.618
 7.0036  31632.7  177.485
 7.0456  31532.7  176.509
 7.0876  31360.3  177.701
 7.1296  31305.5  176.678
 7.1716  31397.7  176.488
 7.2136  31085.9  175.387
 7.2556  31380.8  176.374
 7.2976  31491  177.177
 7.3396  31192.6  176.542
 7.3816  31364.3  177.26
 7.4236  31634.1  177.311
 7.4656  31683.2  176.917
 7.5076  32245  178.625
 7.5496  31851.3  178.066
 7.5916  31901.1  178.253
 7.6336  32611.7  180.115
 7.6756  32425.2  179.447
 7.7176  33094.7  181.615
 7.7596  32791.8  182.002
 7.8016  36549.1  194.499
 7.8436  33498  182.834
 7.8856  33481.2  182.388
 7.9276  33828.5  183.735
 7.9696  34145.6  184.905
 8.0116  35217  186.329
 8.0536  35606.2  187.609
 8.0956  36666.4  191.57
 8.1376  35781.9  188.726
 8.1796  36015.7  189.878
 8.2216  37016.8  191.231
 8.2636  37667.8  193.164
 8.3056  36854.4  191.832
 8.3476  38396  195.113
 8.3896  37617.7  193.214
 8.4316  37219.2  192.357
 8.4736  37262.7  191.942
 8.5156  36782.6  190.973
 8.5576  36927.2  192.31
 8.5996  36792.2  190.846
 8.6416  36625.9  191.666
 8.6836  36351.7  190.783
 8.7256  37080.8  192.134
 8.7676  38426.8  198.572
 8.8096  39825.1  199.359
 8.8516  37470.8  192.946
 8.8936  38283.1  194.977
 8.9356  37011  192.046
 8.9776  37119.1  192.402
 9.0196  36884.7  191.473
 9.0616  37114.4  191.557
 9.1036  38190.1  195.518
 9.1456  36055.6  189.298
 9.1876  36295.6  189.864
 9.2296  35699.9  187.746
 9.2716  36116.7  188.882
 9.3136  35467.1  187.164
 9.3556  35750.4  187.901
 9.3976  34502.6  185.104
 9.4396  34649.2  185.384
 9.4816  35051.4  186.325
 9.5236  34257.6  184.094
 9.5656  34096.8  184.026
 9.6076  33513.8  182.97
 9.6496  33712.8  183.388
 9.6916  33118.6  181.721
 9.7336  33770  183.305
 9.7756  33362.3  183.436
 9.8176  33179  182.445
 9.8596  33088.2  180.637
 9.9016  32565.7  179.2
 9.9436  32592.7  179.193
 9.9856  32373.7  178.859
 10.0276  31731.8  178.146
 10.0696  32196.2  178.479
 10.1116  31434.9  176.625
 10.1536  31380.2  176.618
 10.1956  30642.9  174.147
 10.2376  30584.9  173.499
 10.2796  30443.7  173.201
 10.3216  30218.4  172.844
 10.3636  30181.1  172.771
 10.4056  31515.5  176.959
 10.4476  32215.4  178.509
 10.4896  34226.7  183.399
 10.5316  31906.2  177.821
 10.5736  29825.3  172.363
 10.6156  29588.2  171.429
 10.6576  31817.7  176.262
 10.6996  28883.6  168.643
 10.7416  28446.9  167.58
 10.7836  28584  168.655
 10.8256  27439.1  165.666
 10.8676  27620.8  165.75
 10.9096  27478.4  165.367
 10.9516  27023.4  162.925
 10.9936  27742.7  165.303
 11.0356  27428.4  164.98
 11.0776  27940.4  165.823
 11.1196  27683.2  165.845
 11.1616  26418.8  161.678
 11.2036  27308.4  164.233
 11.2456  28230.9  167.715
 11.2876  26573.5  162.444
 11.3296  26336.1  161.627
 11.3716  26843.3  162.863
 11.4136  26576.3  162.944
 11.4556  26879  163.524
 11.4976  28025.3  165.93
 11.5396  27485.9  164.488
 11.5816  26288.9  161.323
 11.6236  25528.2  159.195
 11.6656  25996.9  159.805
 11.7076  25073.6  157.768
 11.7496  25288.6  162.443
 11.7916  25532.8  158.445
 11.8336  24772.9  156.957
 11.8756  24842  156.738
 11.9176  24701.8  155.961
 11.9596  24583  155.762
 12.0016  24377.3  155.873
 12.0436  24503.7  155.73
 12.0856  24142.1  155.081
 12.1276  24188.7  155.178
 12.1696  23989.5  153.655
 12.2116  24211.4  154.359
 12.2536  25619.4  159.634
 12.2956  24140.2  154.292
 12.3376  24477.4  155.588
 12.3796  24163.6  155.058
 12.4216  24075.2  153.977
 12.4636  24569.9  156.497
 12.5056  23968.8  153.835
 12.5476  23882.4  153.074
 12.5896  23678.2  153.052
 12.6316  23835.1  153.712
 12.6736  23658.1  153.631
 12.7156  24032.4  154.684
 12.7576  23713.3  153.904
 12.7996  24067.8  153.683
 12.8416  23911.4  154.244
 12.8836  24557.7  156.136
 12.9256  24565.5  155.184
 12.9676  24261.7  154.625
 13.0096  24467.8  156.41
 13.0516  24112.7  154.295
 13.0936  24419.5  155.694
 13.1356  24676.7  155.464
 13.1776  24351.8  155.456
 13.2196  24270.8  154.841
 13.2616  24040.6  154.417
 13.3036  24178.8  154.821
 13.3456  24029.4  154.688
 13.3876  24777.8  156.349
 13.4296  24093.7  154.343
 13.4716  24351.1  154.79
 13.5136  24445.1  155.21
 13.5556  24227.3  155.154
 13.5976  24344  155.697
 13.6396  24580.3  155.805
 13.6816  24619  156.405
 13.7236  24977.3  157.111
 13.7656  26576.9  162.533
 13.8076  27741  164.663
 13.8496  26830.2  162.647
 13.8916  24784.7  157.459
 13.9336  23995.3  154.197
 13.9756  23984.5  153.548
 14.0176  23643.1  153.123
 14.0596  24362.3  155.354
 14.1016  23695.5  153.647
 14.1436  23625.4  152.555
 14.1856  23232.4  151.565
 14.2276  23303.1  152.29
 14.2696  23320.9  152.193
 14.3116  22710.6  150.096
 14.3536  22396.3  149.217
 14.3956  22221.4  148.361
 14.4376  22478.4  149.001
 14.4796  22399.1  148.74
 14.5216  21965.2  148.072
 14.5636  22308.3  148.797
 14.6056  22078.2  147.584
 14.6476  21747.7  145.727
 14.6896  21462.9  145.312
 14.7316  21162  145.317
 14.7736  20927.8  143.657
 14.8156  20805  143.264
 14.8576  20869.6  143.343
 14.8996  20544.3  143.407
 14.9416  20224.1  142.3
 14.9836  20197.3  142.189
 15.0256  19492.1  138.606
 15.0676  19515.6  138.997
 15.1096  19353.5  138.159
 15.1516  19088  137.757
 15.1936  19119.4  137.305
 15.2356  18788.9  136.389
 15.2776  18784  135.964
 15.3196  18516.5  135.977
 15.3616  18349.8  135.124
 15.4036  18472.3  135.434
 15.4456  18739.3  136.063
 15.4876  18348.9  134.322
 15.5296  18205.9  134.083
 15.5716  17972  132.826
 15.6136  17802.6  132.521
 15.6556  18996.2  136.118
 15.6976  18034.7  132.922
 15.7396  17765.7  132.312
 15.7816  17542.9  130.997
 15.8236  17326  130.869
 15.8656  17188.6  130.146
 15.9076  17350.9  130.578
 15.9496  18325.8  137.063
 15.9916  17468.4  134.213
 16.0336  17848  132.519
 16.0756  17265  130.657
 16.1176  17362.9  131.106
 16.1596  16890.4  130.478
 16.2016  16824.3  128.991
 16.2436  16879.1  129.586
 16.2856  16942.9  129.342
 16.3276  16625.5  128.57
 16.3696  16764.8  128.934
 16.4116  16326.1  127.669
 16.4536  16759  129.157
 16.4956  17152.8  130.391
 16.5376  16782.3  129.174
 16.5796  16506.8  127.467
 16.6216  16650.9  128.302
 16.6636  16460.6  127.75
 16.7056  16467.7  127.637
 16.7476  16518.2  127.36
 16.7896  16489.8  127.984
 16.8316  16340  127.397
 16.8736  16830  129.553
 16.9156  16588.7  128.95
 16.9576  16235.7  128.356
 16.9996  16286.1  129.012
 17.0416  16132.9  126.807
 17.0836  15959.8  125.891
 17.1256  15912.7  125.709
 17.1676  16339  127.346
 17.2096  16044.8  126.101
 17.2516  16054  125.913
 17.2936  15713.3  124.923
 17.3356  15662.6  124.713
 17.3776  15386.5  123.794
 17.4196  15439.2  123.7
 17.4616  15629.9  124.372
 17.5036  15649.5  124.814
 17.5456  15091.4  123.209
 17.5876  15188.4  122.651
 17.6296  15200.7  122.53
 17.6716  15335.9  123.654
 17.7136  15753.2  125.46
 17.7556  15133  123.26
 17.7976  15134.9  122.998
 17.8396  15109.9  122.395
 17.8816  14816.4  121.759
 17.9236  14837.7  121.643
 17.9656  14856.1  122.247
 18.0076  15277  123.543
 18.0496  15581.8  123.879
 18.0916  18210.3  134.54
 18.1336  16668  128.811
 18.1756  15618.1  124.227
 18.2176  15534.9  124.118
 18.2596  14627.5  120.161
 18.3016  15214.9  122.823
 18.3436  15455.9  123.79
 18.3856  15110.8  122.54
 18.4276  14655.7  120.364
 18.4696  14779.3  120.955
 18.5116  14710.3  120.94
 18.5536  14546.7  120.634
 18.5956  14576.3  120.318
 18.6376  14352.3  119.789
 18.6796  14364.6  119.147
 18.7216  14581.4  120.545
 18.7636  14263.1  119.231
 18.8056  14054.3  118.281
 18.8476  13876.7  118.153
 18.8896  14103.1  118.452
 18.9316  14189.8  118.795
 18.9736  14128.9  118.23
 19.0156  14225.7  119.057
 19.0576  14442.2  118.796
 19.0996  14123.6  118.198
 19.1416  14214.4  118.973
 19.1836  13846.9  117.031
 19.2256  13729.8  116.755
 19.2676  13837.1  117.285
 19.3096  13789.8  117.339
 19.3516  13863.3  117.607
 19.3936  13871.7  117.542
 19.4356  13925.8  117.652
 19.4776  13895.1  117.611
 19.5196  13848.8  117.271
 19.5616  13811.2  117.365
 19.6036  13890.1  117.195
 19.6456  14092.4  118.167
 19.6876  14207.3  118.28
 19.7296  14163.4  118.571
 19.7716  13852.3  117.42
 19.8136  14268.9  119.383
 19.8556  14601.4  120.237
 19.8976  14735.4  120.841
 19.9396  14716.8  120.35
 19.9816  14635.2  120.267
 20.0236  14683.2  120.661
 20.0656  14014.8  117.878
 20.1076  13907.7  117.905
 20.1496  13681.8  116.932
 20.1916  13838.6  117.133
 20.2336  13699.4  116.458
 20.2756  13491.6  116.006
 20.3176  13385.8  115.299
 20.3596  13341.8  115.093
 20.4016  13392  115.103
 20.4436  13341.7  115.445
 20.4856  13341.5  115.248
 20.5276  13269.3  115.395
 20.5696  13355.9  115.217
 20.6116  13252.1  115.051
 20.6536  13079.5  113.814
 20.6956  13111.1  114.08
 20.7376  13064.8  114.092
 20.7796  13188.3  114.318
 20.8216  13322.1  114.607
 20.8636  13402.1  115.335
 20.9056  13779.5  116.871
 20.9476  13354.3  114.912
 20.9896  13691.9  116.21
 21.0316  13255  114.243
 21.0736  13294.7  114.934
 21.1156  13421.9  115.644
 21.1576  13172.7  114.6
 21.1996  13070.6  114.153
 21.2416  13007.9  113.705
 21.2836  12999.8  113.639
 21.3256  12944.8  113.48
 21.3676  12934.2  112.959
 21.4096  13102.7  114.025
 21.4516  12823.4  112.674
 21.4936  12627.9  112.069
 21.5356  12853.2  113.016
 21.5776  13043.8  113.685
 21.6196  12917.4  113.168
 21.6616  12919.4  113.264
 21.7036  12814.8  112.568
 21.7456  12568.2  111.563
 21.7876  12579.9  111.377
 21.8296  12547.1  111.072
 21.8716  12742.2  112.165
 21.9136  12747.9  112.391
 21.9556  12845.2  112.496
 21.9976  12751.8  112.115
 22.0396  12453.7  111.051
 22.0816  12605.6  112.25
 22.1236  12900.7  113.012
 22.1656  12711.3  112.324
 22.2076  12405.1  110.416
 22.2496  12420.4  110.515
 22.2916  12389.8  110.269
 22.3336  12489.2  111.426
 22.3756  12252.2  110.086
 22.4176  12234.3  109.865
 22.4596  12114.1  109.902
 22.5016  12402.7  110.71
 22.5436  12434.9  110.729
 22.5856  12557.5  111.52
 22.6276  12641.6  112.022
 22.6696  12358.3  111.12
 22.7116  12263.5  110.203
 22.7536  12362.7  110.628
 22.7956  12269.9  109.55
 22.8376  12076  109.197
 22.8796  12315.4  110.072
 22.9216  12218.2  110.178
 22.9636  12357.7  109.965
 23.0056  12389.6  110.238
 23.0476  12298.6  110.4
 23.0896  12592  111.086
 23.1316  12604.3  111.574
 23.1736  12417.5  113.675
 23.2156  12584.9  111.823
 23.2576  12650.5  112.253
 23.2996  12437.3  111.064
 23.3416  12805.2  113.243
 23.3836  12653  111.795
 23.4256  12830.5  112.698
 23.4676  12721.6  111.911
 23.5096  12647.2  112.242
 23.5516  12472.4  110.764
 23.5936  12684.8  112.619
 23.6356  12698.6  112.341
 23.6776  12514  111.735
 23.7196  12419.1  110.891
 23.7616  12352.4  110.509
 23.8036  12668.8  111.97
 23.8456  12423.2  110.43
 23.8876  12356.1  110.493
 23.9296  12408.4  111.212
 23.9716  12342.3  110.121
 24.0136  12503.3  111.745
 24.0556  12177.9  109.993
 24.0976  11954.3  108.801
 24.1396  12048.1  111.836
 24.1816  12339.9  111.579
 24.2236  12192.7  110.542
 24.2656  12253.8  110.291
 24.3076  12117.7  109.948
 24.3496  12038.8  109.464
 24.3916  12206.4  110.276
 24.4336  12260.7  110.717
 24.4756  12147.4  110.099
 24.5176  11847.9  108.363
 24.5596  11782.4  108.172
 24.6016  11721.9  108.188
 24.6436  11914.2  108.594
 24.6856  11877.1  108.167
 24.7276  11835.4  108.293
 24.7696  11772.1  108.12
 24.8116  11708.1  107.997
 24.8536  11813.1  108.492
 24.8956  11731  107.842
 24.9376  11537.8  106.889
 24.9796  11588.5  107.478
 25.0216  11549.3  107.417
 25.0636  11655.4  107.549
 25.1056  11294.1  106.56
 25.1476  11203.8  107.751
 25.1896  11304.9  106.76
 25.2316  11349.4  106.249
 25.2736  11283.8  105.584
 25.3156  11236.3  105.445
 25.3576  11139.1  105.418
 25.3996  11189.4  105.646
 25.4416  11129.2  105.333
 25.4836  10972.5  105.108
 25.5256  11161.1  105.365
 25.5676  11174.7  105.15
 25.6096  10904.7  104.453
 25.6516  11055  104.672
 25.6936  11083.2  105.126
 25.7356  10858.5  104.187
 25.7776  11087.9  104.881
 25.8196  11013.8  104.763
 25.8616  10941.7  104.35
 25.9036  11139.1  104.738
 25.9456  10978.2  104.584
 25.9876  10816.9  103.874
 26.0296  11020.9  104.359
 26.0716  10961.5  104.51
 26.1136  11120.4  105.195
 26.1556  11182.5  104.869
 26.1976  10886.2  104.397
 26.2396  10882.8  103.535
 26.2816  10855.5  104.016
 26.3236  10995.3  104.835
 26.3656  11094.7  105.033
 26.4076  10787.3  103.774
 26.4496  11034.5  104.54
 26.4916  11137.9  104.929
 26.5336  11461.7  106.785
 26.5756  11612.4  107.362
 26.6176  11085.4  104.923
 26.6596  10881.4  104.255
 26.7016  10782.5  103.545
 26.7436  10777.5  103.655
 26.7856  10573.9  102.653
 26.8276  10572.6  102.619
 26.8696  10641.4  102.819
 26.9116  10639.2  102.746
 26.9536  10492.5  102.085
 26.9956  10401.4  101.675
 27.0376  10565.5  102.7
 27.0796  10525.2  102.23
 27.1216  10598.2  102.642
 27.1636  10473.3  102.193
 27.2056  10412  101.783
 27.2476  10428.3  101.871
 27.2896  10285.3  101.279
 27.3316  10261.7  100.88
 27.3736  10270.9  101.189
 27.4156  10400.2  101.671
 27.4576  10347.7  101.621
 27.4996  10578.4  102.364
 27.5416  10342.4  101.516
 27.5836  10359.2  101.435
 27.6256  10321.2  101.434
 27.6676  10290.1  101.272
 27.7096  10362.4  101.506
 27.7516  10578.5  102.707
 27.7936  10927.3  104.537
 27.8356  10655.3  102.832
 27.8776  10608.6  102.671
 27.9196  10314.2  101.096
 27.9616  10376.7  101.603
 28.0036  10252.8  100.941
 28.0456  10195.4  100.807
 28.0876  10082  100.331
 28.1296  10186.1  100.687
 28.1716  10185.2  100.703
 28.2136  10160.1  100.535
 28.2556  10077.6  100.249
 28.2976  9987.87  99.7935
 28.3396  10181  100.511
 28.3816  10026.6  99.7544
 28.4236  10010.3  99.8238
 28.4656  9866.68  99.1526
 28.5076  9925.07  99.0748
 28.5496  10001.5  99.7128
 28.5916  9962.25  99.3398
 28.6336  9973.57  99.737
 28.6756  10012.3  99.1237
 28.7176  9829.13  98.766
 28.7596  9917.61  99.1032
 28.8016  9757.92  98.3339
 28.8436  9784.49  98.7119
 28.8856  9830.38  98.794
 28.9276  9772.55  98.7459
 28.9696  9755.01  98.3152
 29.0116  9620.73  97.8249
 29.0536  9699.97  98.4318
 29.0956  9863.95  98.9588
 29.1376  9724.44  98.2319
 29.1796  9705.74  98.184
 29.2216  9617.01  97.5736
 29.2636  9678.57  97.9604
 29.3056  9805.49  98.3805
 29.3476  9684.05  98.2982
 29.3896  9675.98  98.3724
 29.4316  9562.67  97.1254
 29.4736  9505.32  96.8952
 29.5156  9423.16  96.3955
 29.5576  9511.45  97.5789
 29.5996  9342.01  95.9808
 29.6416  9460.17  96.6948
 29.6836  9461.08  96.6344
 29.7256  9374.76  96.7535
 29.7676  9439.41  96.7503
 29.8096  9386.51  96.4219
 29.8516  9264.37  96.119
 29.8936  9278.83  96.2876
 29.9356  9351.39  96.4209
 29.9776  9248.65  96.0399
 30.0196  9329.42  95.8567
 30.0616  9393.11  96.5524
 30.1036  9387.15  96.3454
 30.1456  9191.71  95.5686
 30.1876  9281.84  96.0106
 30.2296  9259.09  95.8462
 30.2716  9230.72  95.3413
 30.3136  9283.8  96.4639
 30.3556  9553.67  97.8634
 30.3976  9483.65  98.9962
 30.4396  9763.42  97.7807
 30.4816  9671.76  96.9251
 30.5236  9631.11  96.7202
 30.5656  9517.49  96.8004
 30.6076  9597.21  96.6274
 30.6496  9633.93  97.2102
 30.6916  9327.58  95.7515
 30.7336  9511.28  96.8236
 30.7756  9451  96.6125
 30.8176  9385.28  96.1961
 30.8596  9620.56  97.16
 30.9016  9335.45  96.0431
 30.9436  9546.82  96.872
 30.9856  9609.65  97.3176
 31.0276  9354.83  95.6446
 31.0696  9340.76  96.1314
 31.1116  9287.25  95.8266
 31.1536  9415.98  96.3687
 31.1956  9328.19  96.0008
 31.2376  9127.94  94.9869
 31.2796  9337.74  95.6127
 31.3216  9365.04  95.6813
 31.3636  9330.34  96.2032
 31.4056  9306.78  97.3802
 31.4476  9421.44  95.8819
 31.4896  9189.54  95.1898
 31.5316  9495.53  96.1631
 31.5736  9953.98  98.2864
 31.6156  9596.62  96.5131
 31.6576  9519.23  96.2003
 31.6996  9543.91  95.9901
 31.7416  9279.91  95.7412
 31.7836  9397.24  95.341
 31.8256  9431.9  95.7923
 31.8676  9465.26  95.9366
 31.9096  9178.72  94.8447
 31.9516  9144.49  94.8418
 31.9936  9188.11  94.8839
 32.0356  9377.86  95.8895
 32.0776  9297.91  95.3999
 32.1196  9365.15  95.8492
 32.1616  9351.79  95.2234
 32.2036  9453.14  96.263
 32.2456  9287.19  95.7948
 32.2876  9330.2  95.5044
 32.3296  9121.2  94.3965
 32.3716  9046.47  94.1203
 32.4136  9070.41  94.4416
 32.4556  9131.02  94.1406
 32.4976  9173.19  94.272
 32.5396  9067.43  93.7882
 32.5816  8962.99  93.3793
 32.6236  9041.85  93.8297
 32.6656  9163.89  95.0239
 32.7076  8881.62  93.2108
 32.7496  8989.3  93.4403
 32.7916  9063.22  93.7891
 32.8336  8970.58  93.4011
 32.8756  9083.81  93.7066
 32.9176  8942.2  93.4627
 32.9596  8966.77  93.6585
 33.0016  9036.49  93.7971
 33.0436  9014.52  93.8426
 33.0856  8938.23  93.5536
 33.1276  8802.17  92.5587
 33.1696  8883.42  92.8321
 33.2116  8923.04  93.2618
 33.2536  9016.59  93.7446
 33.2956  9088.16  94.2096
 33.3376  8886.59  92.8969
 33.3796  8913.23  93.2525
 33.4216  8939.33  92.9739
 33.4636  9011.79  93.5089
 33.5056  8702.35  92.1324
 33.5476  8894.31  93.1157
 33.5896  8872.99  92.7968
 33.6316  8842.21  92.9494
 33.6736  8640.16  92.1263
 33.7156  8719.28  92.5753
 33.7576  8802.72  92.6638
 33.7996  8951.87  93.2043
 33.8416  8585.62  91.4646
 33.8836  8710.64  91.9014
 33.9256  8902.63  92.9667
 33.9676  8823.67  92.4548
 34.0096  8643.98  91.8177
 34.0516  8639.2  91.4279
 34.0936  8683.83  91.9383
 34.1356  8734.64  91.9464
 34.1776  8559.58  91.0113
 34.2196  8480.16  90.7784
 34.2616  8521.7  91.1303
 34.3036  8601.35  91.8118
 34.3456  8618.79  91.6485
 34.3876  8720.58  92.1666
 34.4296  8552  90.9653
 34.4716  8753.57  92.1788
 34.5136  8569.9  91.3965
 34.5556  8535.69  91.4671
 34.5976  8712.23  92.2164
 34.6396  8652.37  91.6145
 34.6816  8712.62  92.042
 34.7236  8695.7  91.7246
 34.7656  8625.21  91.5664
 34.8076  8506.92  91.2658
 34.8496  8446.59  90.7895
 34.8916  8592.26  91.4266
 34.9336  8585.62  91.3776
 34.9756  8609.4  91.4223
 35.0176  8627.99  92.0541
 35.0596  8720.7  92.3665
 35.1016  8625.94  91.6142
 35.1436  8711.27  91.7574
 35.1856  8446.96  90.4729
 35.2276  8520.27  91.0452
 35.2696  8589.8  91.6086
 35.3116  8580.54  91.6572
 35.3536  8548.19  91.1918
 35.3956  8318.18  89.6726
 35.4376  8566.41  91.5688
 35.4796  8416.66  90.7999
 35.5216  8456.13  90.9795
 35.5636  8341.34  91.0989
 35.6056  8423.09  90.5581
 35.6476  8454.03  90.6286
 35.6896  8514.56  91.0396
 35.7316  8427.68  90.5567
 35.7736  8458.44  90.9053
 35.8156  8514.65  91.2145
 35.8576  8450.69  91.1132
 35.8996  8477.14  91.229
 35.9416  8438.61  90.5192
 35.9836  8378.87  90.5461
 36.0256  8491.46  91.1696
 36.0676  8595.21  91.4547
 36.1096  8463.69  90.9153
 36.1516  8461.98  90.8023
 36.1936  8446.23  90.5542
 36.2356  8390.17  90.9154
 36.2776  8261.91  89.6951
 36.3196  8386.05  90.0331
 36.3616  8372.43  90.0921
 36.4036  8379.18  90.1954
 36.4456  8451.98  90.7943
 36.4876  8285.77  89.838
 36.5296  8328.22  90.1049
 36.5716  8341.64  90.9492
 36.6136  8300.69  89.5158
 36.6556  8310.81  89.7705
 36.6976  8079.25  88.9982
 36.7396  8113.07  88.9218
 36.7816  8192.69  89.7311
 36.8236  8126  89.2859
 36.8656  8013.11  88.7301
 36.9076  8029.65  88.7003
 36.9496  7988.52  88.4691
 36.9916  7991.94  88.1178
 37.0336  8233.77  89.7618
 37.0756  8222.78  89.492
 37.1176  7953.85  88.2821
 37.1596  8087.04  89.0264
 37.2016  8012.22  88.835
 37.2436  8095.02  88.6076
 37.2856  8056.54  88.6518
 37.3276  8113.47  88.3246
 37.3696  8060  88.9095
 37.4116  8051.59  88.7724
 37.4536  7925.08  87.9355
 37.4956  7940.64  88.0703
 37.5376  8048.09  90.2501
 37.5796  8106.03  90.4971
 37.6216  8018.75  88.2907
 37.6636  8182.57  89.0767
 37.7056  8247.96  89.6295
 37.7476  8260.18  89.2246
 37.7896  8098.21  88.8558
 37.8316  8054.76  88.7729
 37.8736  8039.14  88.2185
 37.9156  8025.18  88.1332
 37.9576  7989.04  87.8482
 37.9996  7947.09  87.3297
 38.0416  7988.03  88.3588
 38.0836  8131.3  89.0483
 38.1256  8178.52  89.2827
 38.1676  7961.74  88.2151
 38.2096  8146.05  88.8373
 38.2516  8139.41  89.0117
 38.2936  8214.77  89.2304
 38.3356  8068.71  88.3574
 38.3776  8021.13  88.3532
 38.4196  8047.58  88.3499
 38.4616  8047.22  88.5962
 38.5036  8090.65  88.6798
 38.5456  8012.23  89.0749
 38.5876  8042.35  89.2616
 38.6296  8074.62  88.4094
 38.6716  7973  87.6577
 38.7136  8031.41  87.9219
 38.7556  7957.84  88.0221
 38.7976  8010.5  88.2434
 38.8396  7930.39  88.2534
 38.8816  7973.66  88.2945
 38.9236  7977.57  88.1181
 38.9656  7970.03  87.9787
 39.0076  8105.34  88.1104
 39.0496  8080.58  88.5487
 39.0916  8036.24  87.9477
 39.1336  8014.51  88.2371
 39.1756  7992.89  88.1835
 39.2176  7896.2  88.175
 39.2596  7960.96  88.466
 39.3016  7921.34  87.8311
 39.3436  7865.95  87.928
 39.3856  8112.38  88.7383
 39.4276  8153.24  89.476
 39.4696  8065.73  88.6124
 39.5116  8099.77  89.3118
 39.5536  7931.9  88.8042
 39.5956  8018.04  88.384
 39.6376  7995.42  88.2601
 39.6796  7816.21  87.0162
 39.7216  7881.58  87.4711
 39.7636  7925.26  88.2753
 39.8056  7954.72  88.2332
 39.8476  7819.95  87.7341
 39.8896  8025.19  88.5066
 39.9316  7939.74  88.279
 39.9736  7966.08  87.9996
 40.0156  8002.13  88.0321
 40.0576  7907.88  87.8625
 40.0996  7941.19  87.2242
 40.1416  7931.35  87.97
 40.1836  7974.2  88.101
 40.2256  7960.36  88.0634
 40.2676  7931.51  88.0032
 40.3096  7987.63  88.2393
 40.3516  8047.32  88.6837
 40.3936  8108.06  88.5695
 40.4356  7843.82  87.3205
 40.4776  8080.32  89.0296
 40.5196  7902.09  88.1742
 40.5616  8037.5  88.5612
 40.6036  7975.29  88.4801
 40.6456  7983.4  88.1239
 40.6876  7981.17  88.1055
 40.7296  7909.84  87.8488
 40.7716  8020.41  88.5759
 40.8136  7870.08  87.6907
 40.8556  8081.66  89.0035
 40.8976  7980.16  88.3498
 40.9396  8060.74  89.1528
 40.9816  7970.07  87.943
 41.0236  7964.71  87.6959
 41.0656  8073.17  88.8237
 41.1076  7868.61  87.4718
 41.1496  7995.46  88.082
 41.1916  7911.71  87.9342
 41.2336  7971.92  88.2574
 41.2756  7976.23  87.8914
 41.3176  7984.51  88.5442
 41.3596  7974.18  88.2302
 41.4016  7929.88  88.2417
 41.4436  8035.09  88.6081
 41.4856  7912.62  88.0975
 41.5276  7864.61  87.8489
 41.5696  7945.5  87.9276
 41.6116  7976.11  88.4841
 41.6536  7922.87  88.039
 41.6956  8008.63  88.5921
 41.7376  7808.88  87.4976
 41.7796  7870.81  87.7332
 41.8216  8035.6  88.8649
 41.8636  7903.59  88.0889
 41.9056  7862.13  87.6544
 41.9476  7900.77  88.0915
 41.9896  8090.65  88.8167
 42.0316  7993.52  88.3679
 42.0736  8088.46  88.989
 42.1156  7913.36  87.8573
 42.1576  7961.6  88.2354
 42.1996  8133.7  89.3045
 42.2416  7939.21  87.8209
 42.2836  7972.32  88.1261
 42.3256  7861.05  87.6132
 42.3676  8095.27  88.7196
 42.4096  7916.32  87.699
 42.4516  7920.38  87.7932
 42.4936  7873.4  87.6081
 42.5356  7880.14  87.7899
 42.5776  7927.08  87.9895
 42.6196  7875.52  87.7572
 42.6616  7714.96  87.0289
 42.7036  7880.75  87.3371
 42.7456  7968.66  88.1841
 42.7876  7893.48  87.8628
 42.8296  7911.28  87.7955
 42.8716  7784.65  87.2543
 42.9136  7857.25  87.448
 42.9556  7886.03  87.7385
 42.9976  7881.88  87.6813
 43.0396  7725.43  86.5412
 43.0816  7797.09  87.3255
 43.1236  7699.39  86.8262
 43.1656  7772.5  87.0603
 43.2076  7791.42  87.2792
 43.2496  7826.94  87.2978
 43.2916  7677.97  86.8221
 43.3336  7895.08  87.8677
 43.3756  7878.79  87.5376
 43.4176  7754.83  86.9285
 43.4596  7709.53  86.5289
 43.5016  7747.91  87.1355
 43.5436  7735.73  86.9835
 43.5856  7768.07  87.1925
 43.6276  7757.78  87.0297
 43.6696  7675.4  86.8171
 43.7116  7812.94  87.082
 43.7536  7819.26  87.6233
 43.7956  7730.12  88.3319
 43.8376  7616.28  86.2088
 43.8796  7693.99  86.728
 43.9216  7670.88  86.5145
 43.9636  7593.25  86.1866
 44.0056  7545.59  86.1448
 44.0476  7552.71  85.8177
 44.0896  7505.28  85.888
 44.1316  7705.5  86.5458
 44.1736  7550.47  85.797
 44.2156  7631.09  86.1008
 44.2576  7532.23  85.8651
 44.2996  7675.28  86.6505
 44.3416  7547.23  85.6892
 44.3836  7492.91  85.7106
 44.4256  7420.28  84.937
 44.4676  7589.15  86.0511
 44.5096  7507.93  85.737
 44.5516  7474.1  85.5105
 44.5936  7380.59  84.9251
 44.6356  7520.25  85.4627
 44.6776  7503.59  85.6857
 44.7196  7482.92  85.8695
 44.7616  7662.31  88.2374
 44.8036  7601.55  86.3038
 44.8456  7734.67  87.2679
 44.8876  7653.46  86.6485
 44.9296  7826.16  87.0569
 44.9716  7720.77  86.9205
 45.0136  7718.41  86.8294
 45.0556  7708.17  86.749
 45.0976  7621.4  86.4116
 45.1396  7643.18  86.3036
 45.1816  7524.33  85.5606
 45.2236  7677.8  86.3358
 45.2656  7539.58  86.0396
 45.3076  7563.83  85.9657
 45.3496  7530.68  86.0932
 45.3916  7649.08  87.0382
 45.4336  7638  86.8252
 45.4756  7545.07  86.1476
 45.5176  7712.59  86.7025
 45.5596  7652.07  86.4869
 45.6016  7510.84  86.1088
 45.6436  7528.98  85.3822
 45.6856  7522.17  86.0136
 45.7276  7473.04  87.0442
 45.7696  7489.38  86.8112
 45.8116  7501.91  86.3146
 45.8536  7537.31  86.4097
 45.8956  7602.58  86.1283
 45.9376  7622.98  85.7104
 45.9796  7608.58  86.3121
 46.0216  7589.01  86.5581
 46.0636  7618.95  85.8543
 46.1056  7600.85  85.7396
 46.1476  7529.17  85.9373
 46.1896  7620.06  86.6082
 46.2316  7513.63  85.8527
 46.2736  7577.32  86.6056
 46.3156  7567.67  86.1281
 46.3576  7510.33  86.003
 46.3996  7529.39  86.2691
 46.4416  7610.13  86.3092
 46.4836  7504.42  86.0671
 46.5256  7607.06  86.5925
 46.5676  7532.77  86.2785
 46.6096  7552.08  86.3278
 46.6516  7530.47  85.2396
 46.6936  7508.27  85.6082
 46.7356  7706.4  86.816
 46.7776  7398.97  85.9291
 46.8196  7444.75  85.7854
 46.8616  7330.63  85.0786
 46.9036  7336.83  84.7664
 46.9456  7418.58  84.8789
 46.9876  7524.26  85.5645
 47.0296  7428.74  85.7185
 47.0716  7498.15  85.9357
 47.1136  7433.49  85.2287
 47.1556  7394.06  84.8816
 47.1976  7489.92  85.5108
 47.2396  7370.68  85.2224
 47.2816  7416.84  85.1888
 47.3236  7442.6  85.7147
 47.3656  7414.31  85.4792
 47.4076  7349.94  84.9071
 47.4496  7439.69  85.5195
 47.4916  7366.47  85.2923
 47.5336  7444.33  85.5552
 47.5756  7472.58  85.8371
 47.6176  7346.75  85.0061
 47.6596  7361.61  84.8017
 47.7016  7539.61  85.6166
 47.7436  7432.69  85.3667
 47.7856  7513.79  85.8579
 47.8276  7386.96  85.1784
 47.8696  7348.66  85.0503
 47.9116  7538.33  85.8467
 47.9536  7373.08  84.8371
 47.9956  7339.55  85.3608
 48.0376  7378.84  85.3611
 48.0796  7445.68  85.8725
 48.1216  7445.26  85.6934
 48.1636  7452.14  85.2974
 48.2056  7433.08  85.4576
 48.2476  7540.14  86.3794
 48.2896  7568.3  86.4544
 48.3316  7452.81  85.7379
 48.3736  7415.46  85.5414
 48.4156  7401.63  85.3101
 48.4576  7308.41  85.0703
 48.4996  7459.12  85.3883
 48.5416  7530.81  86.1314
 48.5836  7348.26  84.7498
 48.6256  7476.76  85.7079
 48.6676  7397.52  85.7741
 48.7096  7470.88  85.4432
 48.7516  7393.61  85.1562
 48.7936  7257.56  84.4304
 48.8356  7382.01  85.2029
 48.8776  7425.19  86.035
 48.9196  7440.37  85.481
 48.9616  7484.62  86.1219
 49.0036  7401.25  85.9997
 49.0456  7344.25  85.6471
 49.0876  7329.63  85.0917
 49.1296  7267.46  84.8962
 49.1716  7250.34  84.6646
 49.2136  7410.75  85.5263
 49.2556  7453.87  85.7953
 49.2976  7426.52  85.6987
 49.3396  7292.6  84.9923
 49.3816  7480.04  85.4927
 49.4236  7439.07  85.6926
 49.4656  7283.21  84.8065
 49.5076  7334.17  84.8504
 49.5496  7230.21  84.3106
 49.5916  7338.37  84.8457
 49.6336  7269.09  84.6611
 49.6756  7374.13  85.4946
 49.7176  7318.24  85.1147
 49.7596  7252.58  84.5018
 49.8016  7368.83  85.0924
 49.8436  7295.36  84.9733
 49.8856  7278.8  84.8783
 49.9276  7257.23  84.8562
 49.9696  7352.57  85.3921
 50.0116  7369.68  85.626
 50.0536  7337.21  85.386
 50.0956  7266.93  85.0434
 50.1376  7329.26  85.1027
 50.1796  7282.21  85.1035
 50.2216  7260.87  84.9794
 50.2636  7233.45  84.4215
 50.3056  7153.1  84.1321
 50.3476  7251.38  84.734
 50.3896  7257.92  84.7383
 50.4316  7315.82  84.9082
 50.4736  7154.29  84.1845
 50.5156  7285.06  84.9476
 50.5576  7371.58  85.1948
 50.5996  7267.98  84.885
 50.6416  7203.54  84.4303
 50.6836  7351.58  85.3593
 50.7256  7265.59  84.7781
 50.7676  7340.45  85.5402
 50.8096  7355.34  85.1541
 50.8516  7325.39  85.4128
 50.8936  7192.84  84.4137
 50.9356  7353.06  85.449
 50.9776  7154.83  84.4564
 51.0196  7005.47  83.6929
 51.0616  7180.11  84.0383
 51.1036  7109.47  83.9895
 51.1456  7235.81  84.6423
 51.1876  7118.54  83.2757
 51.2296  7147.79  84.0973
 51.2716  7054.03  83.2486
 51.3136  6998.3  83.3857
 51.3556  7060.26  83.3672
 51.3976  7092.17  83.7085
 51.4396  6868.82  82.6919
 51.4816  7050.55  83.6278
 51.5236  7117.23  84.115
 51.5656  6988.84  82.9426
 51.6076  7028.33  83.2605
 51.6496  6951.47  83.0006
 51.6916  7018.29  83.7597
 51.7336  7011.17  83.8133
 51.7756  7107.82  84.0667
 51.8176  6916.37  83.0477
 51.8596  6854.21  82.6887
 51.9016  7053.24  83.4773
 51.9436  7033.95  84.8842
 51.9856  7106.07  85.7346
 52.0276  7056  83.9049
 52.0696  7205.98  84.8586
 52.1116  6975.67  83.6123
 52.1536  7164.26  84.6183
 52.1956  7018.23  83.1921
 52.2376  7122.51  83.9967
 52.2796  7127.23  83.8411
 52.3216  7033.66  83.9825
 52.3636  7071.98  83.7554
 52.4056  7108.72  83.8517
 52.4476  7046.68  83.8518
 52.4896  6942.51  83.2795
 52.5316  7081.6  84.1665
 52.5736  6957.9  83.1388
 52.6156  7149.64  84.6921
 52.6576  7042.63  83.4686
 52.6996  6902.83  83.6393
 52.7416  6886.26  83.3938
 52.7836  7082.94  84.466
 52.8256  6957.4  82.9088
 52.8676  6848.91  82.8494
 52.9096  6956.46  83.5713
 52.9516  7006.15  84.2589
 52.9936  7029.81  84.7819
 53.0356  7135.84  84.3842
 53.0776  6966.25  83.6564
 53.1196  6897.25  83.3678
 53.1616  7033.07  84.2304
 53.2036  6969.62  83.8166
 53.2456  6939.77  83.7444
 53.2876  6945.57  83.466
 53.3296  6960.79  83.8874
 53.3716  7128.9  84.6296
 53.4136  7016.5  84.1217
 53.4556  6917.48  83.5588
 53.4976  6905.79  83.3129
 53.5396  6896.85  83.6708
 53.5816  7000.76  83.9268
 53.6236  6926.26  83.8378
 53.6656  6883.81  83.1683
 53.7076  6992.86  83.7948
 53.7496  6945.73  83.6525
 53.7916  7032.88  84.3043
 53.8336  6889.34  83.3367
 53.8756  6709.45  82.7917
 53.9176  6916.24  83.3776
 53.9596  6660.39  82.5823
 54.0016  6805.84  82.8087
 54.0436  6656.22  82.1185
 54.0856  6800.56  82.4183
 54.1276  6656.17  81.7392
 54.1696  6690.82  82.114
 54.2116  6743  82.1697
 54.2536  6665.24  81.5177
 54.2956  6745.07  82.0507
 54.3376  6683.68  82.1782
 54.3796  6628.01  81.7036
 54.4216  6655.53  81.9575
 54.4636  6686.96  82.1147
 54.5056  6691.61  81.9245
 54.5476  6598.06  81.7144
 54.5896  6660.29  81.937
 54.6316  6677.51  81.8845
 54.6736  6662.08  81.8595
 54.7156  6671.94  81.9475
 54.7576  6532.2  81.0697
 54.7996  6650.4  81.9585
 54.8416  6634.98  81.9153
 54.8836  6647.62  82.0794
 54.9256  6563.7  81.332
 54.9676  6506.15  80.8343
 55.0096  6579.93  81.3329
 55.0516  6467.48  80.8701
 55.0936  6529.61  80.9097
 55.1356  6538.19  80.9947
 55.1776  6651.63  81.9552
 55.2196  6560.5  81.1807
 55.2616  6661.68  82.0306
 55.3036  6486.51  81.0981
 55.3456  6397.43  80.6933
 55.3876  6513.03  81.1401
 55.4296  6490.11  81.0031
 55.4716  6493  81.035
 55.5136  6486.48  80.7635
 55.5556  6690.95  82.0756
 55.5976  6468.33  80.7748
 55.6396  6626.08  81.7059
 55.6816  6466.06  80.558
 55.7236  6379.74  80.0958
 55.7656  6472.25  80.3943
 55.8076  6426.75  80.119
 55.8496  6493.13  80.8341
 55.8916  6352.58  80.1682
 55.9336  6645.68  81.8343
 55.9756  6462.3  80.5757
 56.0176  6335.17  79.9374
 56.0596  6445.29  80.6085
 56.1016  6317.41  79.8267
 56.1436  6344.81  80.2608
 56.1856  6310.87  79.7872
 56.2276  6574.35  81.4813
 56.2696  6341.09  80.0073
 56.3116  6527.87  81.5508
 56.3536  6428.07  80.5879
 56.3956  6432.5  80.6112
 56.4376  6382.49  80.3281
 56.4796  6255.25  79.3512
 56.5216  6400.75  80.6502
 56.5636  6308.27  79.6361
 56.6056  6516.42  81.1796
 56.6476  6363.88  79.8415
 56.6896  6467.11  80.9273
 56.7316  6365.03  80.2176
 56.7736  6358.15  80.1591
 56.8156  6307.52  79.8749
 56.8576  6251.96  79.4495
 56.8996  6383.86  80.1931
 56.9416  6317.72  80.0902
 56.9836  6416.53  80.2331
 57.0256  6228.76  79.3528
 57.0676  6384.78  80.4736
 57.1096  6374.77  80.1846
 57.1516  6300.65  79.7676
 57.1936  6301.14  79.5403
 57.2356  6189.34  79.1554
 57.2776  6296.81  79.8081
 57.3196  6312.11  80.2485
 57.3616  6227.29  79.2015
 57.4036  6408.07  80.4069
 57.4456  6385.4  80.2371
 57.4876  6297.76  79.5258
 57.5296  6273.66  79.7453
 57.5716  6326.38  80.0647
 57.6136  6103.1  78.482
 57.6556  6292.88  79.8111
 57.6976  6278.71  79.5683
 57.7396  6181.34  79.2973
 57.7816  6193.65  79.71
 57.8236  6132.03  79.1304
 57.8656  6233.15  79.4456
 57.9076  6260.1  79.6412
 57.9496  6194.25  79.5614
 57.9916  6214.57  79.2153
 58.0336  6214.92  79.4921
 58.0756  6261.14  79.4243
 58.1176  6192.99  78.9826
 58.1596  6105.42  79.0105
 58.2016  6079.91  78.0671
 58.2436  5998.66  77.9483
 58.2856  5948.61  77.5476
 58.3276  5945.76  77.891
 58.3696  6039.33  78.2605
 58.4116  5897.37  77.2016
 58.4536  6028.88  77.9435
 58.4956  5920.89  77.4212
 58.5376  6084.27  78.0501
 58.5796  5989.55  77.8608
 58.6216  5947.41  77.4108
 58.6636  5994.38  77.9249
 58.7056  5961.75  77.5699
 58.7476  5902.49  77.6216
 58.7896  5917.41  77.3636
 58.8316  5971.18  77.7123
 58.8736  6069.55  78.3636
 58.9156  5980.9  77.8251
 58.9576  6005.86  78.3152
 58.9996  6080.35  78.0465
 59.0416  5981.85  77.7722
 59.0836  5851.74  76.8383
 59.1256  5931.65  78.0579
 59.1676  5822.6  77.6418
 59.2096  5954.75  77.8312
 59.2516  6102.36  78.3688
 59.2936  5875  77.2186
 59.3356  5807.42  76.6533
 59.3776  5908.33  77.4836
 59.4196  5910.41  77.4341
 59.4616  5931.32  77.432
 59.5036  5872.47  77.0809
 59.5456  6074.31  78.0877
 59.5876  5910.81  77.2186
 59.6296  5874.61  77.0501
 59.6716  6108.92  78.6299
 59.7136  6042.57  78.19
 59.7556  5883.67  77.2898
 59.7976  5895.85  77.115
 59.8396  5921.79  77.1798
 59.8816  5883.75  77.4697
 59.9236  5885.25  77.1279
 59.9656  5794.1  76.7835
 60.0076  6059.09  77.8761
 60.0496  5888.75  77.2694
 60.0916  6019.22  77.5416
 60.1336  5846.34  77.5094
 60.1756  5933.2  79.2568
 60.1996  0.0000000E+00  0.0000000E+00