File: docs/examples/XRD/IS17_D/Data/IS17_D/17_Da_f00029.xye
# /beamlines/bl04/projects/cycle2025-II/20250340211-lsimonelli/DATA/IS17_D/17_Da_f00029.xye : mythproc.py merge -s 0.006 -l 0.5 -f /beamlines/bl04/inhouse/ff/FlatField/ff_20Nov2024rod8mm60s_17keV.raw -b True -c true -o xye /beamlines/bl04/projects/cycle2025-II/20250340211-lsimonelli/DATA/IS17_D/17_Da_00029.dat
# IsMon = [6786229, 6792169, 6787394]  IsPos = [-1.5000, -2.4885, -3.4988]
# Wave = 0.4962  CalPath /beamlines/bl04/projects/cycle2025-II/20250340211-lsimonelli/DATA/Align/Si_Pos1_25keV_f00001.cal
# Date = 2025-09-24_01:37:26 Dt = 4.8000  Bin = 0.0060  <imon> = 6788597 +/- 2570 (Min/Max) 6786229 / 6792169
# icurr 253.1645  mocoIn 1.7273E-05  mocoOut 0.8103  i15 7.10594e+06  imon 6.7886e+06  i7 5.0000  iEMpd_timer 4.8000  iEMpd_1 3.6808E-08  iEMpd_2 7.8365E-08  iEMpd_3 1.8413E-08  iEMpd_4 4.8072E-08  iEMhp_timer 4.8000  iEMhp_1 4.9454E-06  iEMhp_2 -2.5526E-08  iEMhp_3 -2.2308E-08  iEMhp_4 -2.0703E-08
#      9776
 1.5856  40074.6  205.595
 1.6276  47101.1  219.067
 1.6696  53838.6  233.386
 1.7116  62427  251.804
 1.7536  72337  269.9
 1.7956  76923.2  279.02
 1.8376  72677.7  271.64
 1.8796  61206.8  247.463
 1.9216  49384.3  223.156
 1.9636  41315.9  203.791
 2.0056  36297.9  189.795
 2.0476  34122.8  186.038
 2.0896  32729.6  181.132
 2.1316  32046.7  178.371
 2.1736  30203.9  174.54
 2.2156  30832.7  174.932
 2.2576  29751  172.451
 2.2996  28563.8  169.597
 2.3416  29051.1  169.672
 2.3836  28243.2  167.399
 2.4256  27813.5  166.662
 2.4676  26668.6  162.965
 2.5096  27013.7  164.069
 2.5516  26229.1  165.386
 2.5936  26069.8  161.547
 2.6356  25574.2  160.679
 2.6776  25801.4  160.298
 2.7196  25424.6  159.628
 2.7616  25134.7  158.499
 2.8036  24739  157.414
 2.8456  25133.3  159.267
 2.8876  24501.1  157.11
 2.9296  24027.9  155.734
 2.9716  23809.4  154.527
 3.0136  23797  154.552
 3.0556  23631.8  154.403
 3.0976  23404.8  152.627
 3.1396  23303.8  152.991
 3.1816  23293.2  152.893
 3.2236  22845.3  151.412
 3.2656  23073.2  151.207
 3.3076  22662.9  151.288
 3.3496  23042.6  151.748
 3.3916  23299.6  152.18
 3.4336  24131.8  155.448
 3.4756  24316.3  155.97
 3.5176  25015.2  157.99
 3.5596  24998.4  160.906
 3.6016  25088.1  158.284
 3.6436  24198.9  156.528
 3.6856  23955.4  154.069
 3.7276  23033.8  152.133
 3.7696  22808.2  151.402
 3.8116  22426.9  150.208
 3.8536  22435.8  150.181
 3.8956  22304.3  149.557
 3.9376  22443.6  150.28
 3.9796  22272.8  149.219
 4.0216  22286.6  148.304
 4.0636  22357.3  150.009
 4.1056  22431.5  149.891
 4.1476  22594.7  150.759
 4.1896  22696.4  150.958
 4.2316  22899.4  151.463
 4.2736  23378.5  152.825
 4.3156  23661.3  153.979
 4.3576  24221.8  155.718
 4.3996  24674.9  157.406
 4.4416  25189.9  158.641
 4.4836  25803.1  160.703
 4.5256  26044.8  162.077
 4.5676  26230.7  162.901
 4.6096  26805.9  163.694
 4.6516  27036  163.749
 4.6936  27381.5  165.605
 4.7356  27317.5  165.24
 4.7776  27428  165.4
 4.8196  27080.8  165.009
 4.8616  26661.4  163.333
 4.9036  26466.9  162.357
 4.9456  26100.3  161.868
 4.9876  25567.8  160.11
 5.0296  26141.6  161.711
 5.0716  26013  161.944
 5.1136  25895.5  161.433
 5.1556  26282.1  162.096
 5.1976  26582  163.026
 5.2396  26955.3  163.859
 5.2816  26882.3  164.099
 5.3236  26772.4  163.467
 5.3656  26465.6  163.442
 5.4076  26313.4  163.125
 5.4496  26431.1  162.968
 5.4916  26552.3  163.105
 5.5336  26479.3  162.884
 5.5756  26158.6  161.932
 5.6176  26636.2  162.839
 5.6596  26902.7  164.463
 5.7016  26887.8  163.843
 5.7436  26922.1  164.214
 5.7856  26880.6  164.154
 5.8276  27177.1  164.777
 5.8696  27173.5  164.833
 5.9116  27345.8  166.061
 5.9536  27435.5  166.094
 5.9956  27776.5  166.49
 6.0376  27881.8  167.437
 6.0796  28275.7  168.445
 6.1216  28088.4  168.083
 6.1636  28412.6  168.121
 6.2056  28466  168.94
 6.2476  28375.8  168.375
 6.2896  28867.1  169.685
 6.3316  28575.3  169.001
 6.3736  28643.5  169.092
 6.4156  28639.8  169.031
 6.4576  28952.2  169.505
 6.4996  29304.6  171.007
 6.5416  29039.8  170.374
 6.5836  29201.2  171.072
 6.6256  29106.4  170.367
 6.6676  29708.1  171.685
 6.7096  29569  172.131
 6.7516  29891.8  172.724
 6.7936  30029.5  172.563
 6.8356  30314.4  173.45
 6.8776  30552.8  174.925
 6.9196  30383  174.839
 6.9616  31130.3  176.394
 7.0036  31324.5  176.626
 7.0456  31411.2  176.168
 7.0876  31256.2  177.336
 7.1296  31285.5  176.639
 7.1716  31220.7  176
 7.2136  30880.3  174.817
 7.2556  31001.4  175.32
 7.2976  31248.7  176.512
 7.3396  30937.8  175.83
 7.3816  30914.6  175.989
 7.4236  31307.3  176.4
 7.4656  31523.2  176.494
 7.5076  31688  177.089
 7.5496  31599.8  177.382
 7.5916  31391.3  176.818
 7.6336  31898.6  178.14
 7.6756  32117  178.602
 7.7176  32371.4  179.608
 7.7596  32205.4  180.385
 7.8016  32524.5  183.429
 7.8436  33197.3  182.008
 7.8856  33392.7  182.161
 7.9276  33874.1  183.867
 7.9696  34000.3  184.508
 8.0116  35168.1  186.192
 8.0536  35144.3  186.388
 8.0956  34878.1  186.828
 8.1376  35777.5  188.708
 8.1796  35891.6  189.532
 8.2216  36385  189.596
 8.2636  36576.2  190.336
 8.3056  36449.4  190.784
 8.3476  36985.6  191.501
 8.3896  36948.6  191.487
 8.4316  37282  192.514
 8.4736  37213.8  191.808
 8.5156  36798.8  191.008
 8.5576  36613.7  191.48
 8.5996  36704  190.609
 8.6416  36413.2  191.086
 8.6836  36325.1  190.712
 8.7256  36487.9  190.575
 8.7676  35968.8  192.104
 8.8096  35935.9  189.372
 8.8516  35606.6  188.176
 8.8936  35309.7  187.24
 8.9356  35312.3  187.573
 8.9776  35612  188.48
 9.0196  34976.9  186.459
 9.0616  35264.3  186.696
 9.1036  34788.1  186.607
 9.1456  35125  186.866
 9.1876  34903.5  186.232
 9.2296  35038.5  186.002
 9.2716  34514.1  184.67
 9.3136  34201.9  183.813
 9.3556  34621.9  184.928
 9.3976  33164.8  181.509
 9.4396  33728  182.943
 9.4816  33073.5  181.021
 9.5236  33492.9  182.071
 9.5656  33009.8  181.072
 9.6076  32774.5  180.949
 9.6496  32625.1  180.462
 9.6916  32755.7  180.792
 9.7336  32663.5  180.322
 9.7756  32727.5  181.666
 9.8176  31826.5  178.692
 9.8596  31932.7  177.469
 9.9016  31709  176.837
 9.9436  31429.2  175.795
 9.9856  30902.6  174.695
 10.0276  30438.8  174.473
 10.0696  30759.7  174.45
 10.1116  29950.9  172.397
 10.1536  29824  171.724
 10.1956  29462.7  170.755
 10.2376  29080.8  169.171
 10.2796  29536.3  170.608
 10.3216  29328.9  170.117
 10.3636  28951.5  169.201
 10.4056  28738.9  168.959
 10.4476  28919.9  169.134
 10.4896  28937.4  168.646
 10.5316  28484.7  167.704
 10.5736  28301.8  167.876
 10.6156  28206.3  167.38
 10.6576  28039.3  165.459
 10.6996  27736.6  165.212
 10.7416  27068.3  163.45
 10.7836  27621.3  165.793
 10.8256  26942.9  164.18
 10.8676  27106.5  164.204
 10.9096  26790.4  163.304
 10.9516  26637.1  161.769
 10.9936  26595.3  161.851
 11.0356  26506.8  162.196
 11.0776  26154.6  160.444
 11.1196  25786.1  160.038
 11.1616  25610.8  159.18
 11.2036  25584.3  158.964
 11.2456  25587.6  159.663
 11.2876  25530.2  159.229
 11.3296  25211.7  158.122
 11.3716  25786.9  159.657
 11.4136  25556.2  159.786
 11.4556  25753.4  160.08
 11.4976  25972.2  159.736
 11.5396  26405.2  161.221
 11.5816  26119.2  160.802
 11.6236  25506.9  159.347
 11.6656  25236.7  157.459
 11.7076  24860.9  157.102
 11.7496  24553.3  159.985
 11.7916  24453.8  155.088
 11.8336  24179.1  155.107
 11.8756  24114.2  154.412
 11.9176  24201.3  154.348
 11.9596  23976  153.824
 12.0016  23984.4  154.633
 12.0436  23912.9  153.829
 12.0856  23629  153.432
 12.1276  23728.1  153.672
 12.1696  23719.1  152.79
 12.2116  23965.4  153.573
 12.2536  23184.9  151.844
 12.2956  23607  152.578
 12.3376  23265.8  151.687
 12.3796  23556.7  153.084
 12.4216  23272.2  151.389
 12.4636  23242.7  152.19
 12.5056  23599.4  152.64
 12.5476  23470.8  151.756
 12.5896  23422.5  152.217
 12.6316  23144.3  151.48
 12.6736  23173.1  152.039
 12.7156  23022.6  151.42
 12.7576  23429.2  152.983
 12.7996  23276.1  151.152
 12.8416  23176.8  151.862
 12.8836  23623.3  153.143
 12.9256  23842.4  152.886
 12.9676  23983.6  153.751
 13.0096  23589.9  153.575
 13.0516  23922.2  153.693
 13.0936  24043.7  154.205
 13.1356  24037.7  153.46
 13.1776  23875.8  153.918
 13.2196  23917.7  153.716
 13.2616  23905.7  153.977
 13.3036  23816.5  153.833
 13.3456  24105.2  154.749
 13.3876  23863.1  153.473
 13.4296  23779.7  153.351
 13.4716  23756.6  152.887
 13.5136  23938.6  153.624
 13.5556  23890.2  154.065
 13.5976  23955.4  154.427
 13.6396  24150.9  154.427
 13.6816  23688.8  153.311
 13.7236  24692.3  156.288
 13.7656  23785.2  153.928
 13.8076  24012.1  153.453
 13.8496  23515.9  152.63
 13.8916  23623.4  153.775
 13.9336  23717.7  153.322
 13.9756  23603.4  152.312
 14.0176  23390.1  152.29
 14.0596  23603.4  152.946
 14.1016  23182.8  151.979
 14.1436  22984.6  150.471
 14.1856  22574.8  149.407
 14.2276  22299.9  148.98
 14.2696  22623  149.898
 14.3116  22451.7  149.223
 14.3536  22016.9  147.95
 14.3956  22077.2  147.877
 14.4376  22310.3  148.447
 14.4796  22189  148.035
 14.5216  21847.4  147.672
 14.5636  21764.6  146.962
 14.6056  21681.9  146.273
 14.6476  21697.8  145.565
 14.6896  21346.2  144.911
 14.7316  21056.7  144.944
 14.7736  20931.8  143.658
 14.8156  20838.6  143.389
 14.8576  20574.2  142.323
 14.8996  20182  142.151
 14.9416  19951.4  141.336
 14.9836  20166.6  142.058
 15.0256  19684.1  139.283
 15.0676  19759.1  139.858
 15.1096  19551.3  138.862
 15.1516  19367.7  138.745
 15.1936  19487  138.617
 15.2356  19094.8  137.491
 15.2776  18919  136.448
 15.3196  18601.4  136.285
 15.3616  18569  135.933
 15.4036  18472.3  135.426
 15.4456  18835.4  136.409
 15.4876  18621.8  135.313
 15.5296  18260.7  134.271
 15.5716  18033.7  133.047
 15.6136  18113.6  133.647
 15.6556  18038.3  132.636
 15.6976  18001.3  132.576
 15.7396  17900.7  132.813
 15.7816  17754.5  131.775
 15.8236  17643.6  132.068
 15.8656  17430.2  131.048
 15.9076  17035.3  129.39
 15.9496  17288.3  133.122
 15.9916  17220.3  133.283
 16.0336  16897.6  128.989
 16.0756  17179.3  130.364
 16.1176  16819.3  128.909
 16.1596  16549.9  129.183
 16.2016  16611.3  128.192
 16.2436  16605.5  128.546
 16.2856  16402.9  127.312
 16.3276  16152.1  126.745
 16.3696  16257.9  126.98
 16.4116  16116  126.884
 16.4536  16305.2  127.41
 16.4956  16188.2  126.694
 16.5376  16050.8  126.334
 16.5796  16039.3  125.659
 16.6216  16011.7  125.851
 16.6636  16220.3  126.819
 16.7056  16119  126.294
 16.7476  16086.7  125.705
 16.7896  15906.5  125.735
 16.8316  16052.1  126.276
 16.8736  15916.6  125.993
 16.9156  15797.4  125.855
 16.9576  15738  126.386
 16.9996  15775.3  127.023
 17.0416  16032.5  126.4
 17.0836  15790.7  125.217
 17.1256  15607.9  124.494
 17.1676  15669  124.74
 17.2096  15280.3  123.056
 17.2516  15404.6  123.64
 17.2936  15364.3  123.5
 17.3356  15013.8  122.095
 17.3776  15033.7  122.356
 17.4196  15159.9  122.555
 17.4616  14918.9  121.509
 17.5036  14904.3  121.8
 17.5456  14690.3  121.562
 17.5876  14833.9  121.212
 17.6296  14806.9  120.916
 17.6716  14645  120.825
 17.7136  14336.3  119.689
 17.7556  14520.1  120.733
 17.7976  14391.3  119.802
 17.8396  14320.5  119.153
 17.8816  14469.1  120.302
 17.9236  14239.3  119.165
 17.9656  14434.9  120.682
 18.0076  14409.2  119.999
 18.0496  14394.8  119.082
 18.0916  14310.9  119.272
 18.1336  14685.3  120.906
 18.1756  14681.1  120.419
 18.2176  14390.3  119.458
 18.2596  14390.2  119.182
 18.3016  14672.1  120.609
 18.3436  14640.9  120.719
 18.3856  14382.4  119.552
 18.4276  14528.3  119.835
 18.4696  14358.4  119.223
 18.5116  14465.3  119.95
 18.5536  14393.5  120.016
 18.5956  14087.7  118.283
 18.6376  14168.7  119.021
 18.6796  13934.2  117.379
 18.7216  14230.7  119.171
 18.7636  13823.3  117.376
 18.8056  13942.8  117.819
 18.8476  13894.6  118.234
 18.8896  13800.5  117.176
 18.9316  13998.4  117.833
 18.9736  13811.5  116.909
 19.0156  13604.2  116.418
 19.0576  13691.8  115.688
 19.0996  13888.9  117.218
 19.1416  13723.4  116.908
 19.1836  13729.9  116.539
 19.2256  13507.9  115.799
 19.2676  13491.5  115.825
 19.3096  13906.2  117.829
 19.3516  13664.6  116.595
 19.3936  13661.4  116.646
 19.4356  13576  116.164
 19.4776  13658.3  116.604
 19.5196  13636.9  116.364
 19.5616  13625.5  116.568
 19.6036  13677.1  116.3
 19.6456  13730.4  116.643
 19.6876  13727.1  116.278
 19.7296  13640.3  116.36
 19.7716  13729.7  116.757
 19.8136  13772.7  117.295
 19.8556  13946.3  117.511
 19.8976  13754.1  116.762
 19.9396  13866.6  116.816
 19.9816  14156.3  118.271
 20.0236  14240.4  118.843
 20.0656  14355.8  119.316
 20.1076  14095.9  118.696
 20.1496  13922  117.968
 20.1916  13896.6  117.335
 20.2336  13705.5  116.505
 20.2756  13582.4  116.399
 20.3176  13304.4  114.956
 20.3596  13358.6  115.164
 20.4016  13421.8  115.24
 20.4436  13386.3  115.653
 20.4856  13104.4  114.216
 20.5276  13064.2  114.492
 20.5696  13291.8  115.051
 20.6116  13103.3  114.4
 20.6536  12932.4  113.211
 20.6956  12990.5  113.549
 20.7376  12944.8  113.573
 20.7796  12892.7  113.029
 20.8216  13171.1  113.958
 20.8636  12872.1  113.029
 20.9056  12967.6  113.389
 20.9476  12722.5  112.163
 20.9896  12945.1  112.992
 21.0316  12970.6  113.011
 21.0736  12979.1  113.561
 21.1156  12835.9  113.094
 21.1576  12824.8  113.094
 21.1996  12645.4  112.279
 21.2416  12749  112.578
 21.2836  12891.5  113.159
 21.3256  12670  112.275
 21.3676  12885.9  112.774
 21.4096  12705.5  112.339
 21.4516  12633.8  111.851
 21.4936  12498.5  111.486
 21.5356  12623  112
 21.5776  12714.8  112.24
 21.6196  12506.6  111.359
 21.6616  12511.8  111.463
 21.7036  12588.2  111.592
 21.7456  12585.4  111.645
 21.7876  12493.3  110.987
 21.8296  12467.3  110.734
 21.8716  12509.2  111.147
 21.9136  12639  111.922
 21.9556  12594.8  111.399
 21.9976  12429.3  110.681
 22.0396  12190.9  109.864
 22.0816  12496  111.773
 22.1236  12542.4  111.431
 22.1656  12394.8  110.955
 22.2076  12521.4  110.935
 22.2496  12459.4  110.68
 22.2916  12653.8  111.426
 22.3336  12386.1  110.942
 22.3756  12438.9  110.921
 22.4176  12318.1  110.239
 22.4596  12245.4  110.501
 22.5016  12556.8  111.382
 22.5436  12515.3  111.087
 22.5856  12405  110.837
 22.6276  12345.5  110.696
 22.6696  12508.4  111.784
 22.7116  12430.2  110.944
 22.7536  12495.1  111.215
 22.7956  12357.9  109.934
 22.8376  12364.1  110.492
 22.8796  12513.5  110.952
 22.9216  12531.2  111.583
 22.9636  12386  110.087
 23.0056  12375  110.17
 23.0476  12518.2  111.372
 23.0896  12706.5  111.587
 23.1316  12572.9  111.432
 23.1736  12391.6  113.55
 23.2156  12565  111.743
 23.2576  12505.1  111.604
 23.2996  12575.5  111.708
 23.3416  12313.1  111.053
 23.3836  12381.2  110.593
 23.4256  12401.9  110.805
 23.4676  12226  109.718
 23.5096  12302.1  110.728
 23.5516  12263.6  109.846
 23.5936  12352.4  111.141
 23.6356  12396  110.999
 23.6776  12365.7  111.077
 23.7196  12146.8  109.886
 23.7616  12389.8  110.684
 23.8036  12384.2  110.707
 23.8456  12382.8  110.269
 23.8876  12121.9  109.446
 23.9296  12207.2  110.32
 23.9716  12164.6  109.332
 24.0136  12287.9  110.768
 24.0556  12079.4  109.564
 24.0976  11849.5  108.33
 24.1396  11808.3  110.744
 24.1816  11981.7  110.301
 24.2236  11869.1  109.071
 24.2656  11852.6  108.471
 24.3076  11758  108.282
 24.3496  11870.5  108.685
 24.3916  11697.2  107.95
 24.4336  11604.8  107.726
 24.4756  11665.9  107.884
 24.5176  11408.1  106.336
 24.5596  11478.2  106.989
 24.6016  11356.5  106.503
 24.6436  11340.1  105.934
 24.6856  11581.2  106.808
 24.7276  11346.2  106.025
 24.7696  11215.8  105.53
 24.8116  11249.5  105.858
 24.8536  11210.5  105.681
 24.8956  11139.7  105.087
 24.9376  10932.2  104.289
 24.9796  10961.8  104.533
 25.0216  10915.5  104.425
 25.0636  11111.6  105.009
 25.1056  10889  104.365
 25.1476  11068.3  107.161
 25.1896  11050.7  105.56
 25.2316  11061.9  104.897
 25.2736  11162.4  105.031
 25.3156  11021.7  104.442
 25.3576  10996.2  104.726
 25.3996  10979.7  104.641
 25.4416  10856  104.031
 25.4836  10914.9  104.832
 25.5256  10806.4  103.683
 25.5676  10906.9  103.889
 25.6096  10619.8  103.085
 25.6516  10880  103.835
 25.6936  10686.2  103.222
 25.7356  10704.8  103.44
 25.7776  10820.5  103.688
 25.8196  10649.8  103.025
 25.8616  10733.5  103.352
 25.9036  10787.2  103.083
 25.9456  10689.6  103.197
 25.9876  10678.3  103.074
 26.0296  10830.4  103.549
 26.0716  10564.8  102.596
 26.1136  10685.1  103.123
 26.1556  10797.1  103.046
 26.1976  10625  103.137
 26.2396  10713  102.975
 26.2816  10671.6  103.131
 26.3236  10649.2  103.166
 26.3656  10577.4  102.561
 26.4076  10708.9  103.4
 26.4496  11108.4  104.826
 26.4916  10760.1  103.152
 26.5336  10740.6  103.379
 26.5756  11030.7  104.625
 26.6176  10521.9  102.233
 26.6596  10486.3  102.36
 26.7016  10489.4  102.134
 26.7436  10443  102.047
 26.7856  10342.3  101.532
 26.8276  10526.3  102.393
 26.8696  10519.4  102.229
 26.9116  10324.2  101.218
 26.9536  10308.5  101.189
 26.9956  10386.7  101.601
 27.0376  10312  101.451
 27.0796  10339.6  101.389
 27.1216  10250.1  100.957
 27.1636  10109.7  100.426
 27.2056  10238.3  100.946
 27.2476  10197.9  100.748
 27.2896  10312.3  101.418
 27.3316  10079.1  99.9852
 27.3736  10185.4  100.771
 27.4156  10160.3  100.498
 27.4576  10186.5  100.851
 27.4996  10143.2  100.237
 27.5416  10120.3  100.436
 27.5836  10022.1  99.7703
 27.6256  10424.2  101.922
 27.6676  10253.6  101.097
 27.7096  10017.5  99.7991
 27.7516  10097.9  100.344
 27.7936  9923.23  99.6446
 27.8356  9979.58  99.5512
 27.8776  9969.82  99.5464
 27.9196  9967.04  99.376
 27.9616  10014.3  99.8034
 28.0036  9958.32  99.5031
 28.0456  9999.73  99.8339
 28.0876  9927.06  99.5663
 28.1296  9844.48  98.9902
 28.1716  9904.95  99.3056
 28.2136  9972.49  99.608
 28.2556  9770.51  98.7147
 28.2976  9870.38  99.2003
 28.3396  9857.23  98.9325
 28.3816  9933.03  99.2996
 28.4236  9791.83  98.7412
 28.4656  9719.97  98.4134
 28.5076  9651.34  97.71
 28.5496  9772.72  98.5808
 28.5916  9861.73  98.8386
 28.6336  9556.35  97.6323
 28.6756  9784  97.9929
 28.7176  9705.35  98.137
 28.7596  9519.73  97.098
 28.8016  9625.25  97.6624
 28.8436  9491.88  97.2266
 28.8856  9637.45  97.8199
 28.9276  9592.99  97.8357
 28.9696  9631.22  97.6942
 29.0116  9649.96  97.9776
 29.0536  9355.47  96.6675
 29.0956  9598.04  97.6315
 29.1376  9488.02  97.0307
 29.1796  9474.88  97.0067
 29.2216  9494.22  96.954
 29.2636  9510.05  97.0298
 29.3056  9541.47  97.0615
 29.3476  9458.07  97.1516
 29.3896  9557.2  97.7566
 29.4316  9593.16  97.2748
 29.4736  9650.68  97.6379
 29.5156  9700.03  97.8015
 29.5576  9453.83  97.278
 29.5996  9409.86  96.3263
 29.6416  9409.99  96.4364
 29.6836  9574.73  97.2071
 29.7256  9374.79  96.7506
 29.7676  9631.51  97.7303
 29.8096  9520.3  97.1015
 29.8516  9336.25  96.4945
 29.8936  9500.18  97.4256
 29.9356  9300.4  96.1545
 29.9776  9267.6  96.1357
 30.0196  9362.78  96.0172
 30.0616  9444.43  96.8122
 30.1036  9375.18  96.2752
 30.1456  9392.17  96.6086
 30.1876  9401.69  96.6223
 30.2296  9292.45  96.0214
 30.2716  9444.95  96.4394
 30.3136  9383.95  96.9805
 30.3556  9358.77  96.8663
 30.3976  9253.09  97.8218
 30.4396  9369.03  95.8013
 30.4816  9325.17  95.1798
 30.5236  9255.99  94.8464
 30.5656  9248.33  95.4517
 30.6076  9246.11  95.2184
 30.6496  9213.35  95.0898
 30.6916  9188.13  95.051
 30.7336  9256.57  95.5543
 30.7756  9206.47  95.3874
 30.8176  9294.67  95.7587
 30.8596  9287.74  95.4938
 30.9016  9139.1  94.6016
 30.9436  9213.09  95.2044
 30.9856  9274.71  95.6307
 31.0276  9276.78  95.2392
 31.0696  9098.8  94.8992
 31.1116  9130.46  95.0408
 31.1536  9254.23  95.5638
 31.1956  9089.3  94.7976
 31.2376  8978.05  94.2262
 31.2796  9027.13  94.027
 31.3216  9198.54  94.859
 31.3636  9121.34  95.1295
 31.4056  9161.53  96.6577
 31.4476  9047.91  93.9587
 31.4896  9064.23  94.5399
 31.5316  9061.75  93.978
 31.5736  9179.98  94.3658
 31.6156  9078.51  93.8612
 31.6576  9068.91  93.9062
 31.6996  9149.29  93.9964
 31.7416  8950.96  93.8926
 31.7836  9077.53  93.7065
 31.8256  8936.89  93.319
 31.8676  9214.85  94.6821
 31.9096  8960.53  93.5744
 31.9516  8824.99  93.1616
 31.9936  8912.69  93.445
 32.0356  9001.8  93.9848
 32.0776  8999.11  93.8548
 32.1196  9023.66  93.9951
 32.1616  9034.19  93.5898
 32.2036  8734.71  92.5294
 32.2456  8774.96  93.1122
 32.2876  8811.33  92.6353
 32.3296  8951.27  93.507
 32.3716  8831.9  92.9787
 32.4136  8953.55  93.8422
 32.4556  8849.98  92.7363
 32.4976  8929.65  93.0554
 32.5396  8822.77  92.5228
 32.5816  8688.44  91.9335
 32.6236  8927.92  93.2601
 32.6656  8856.82  93.4256
 32.7076  8842.29  93.0065
 32.7496  8800.8  92.4494
 32.7916  8780.99  92.3163
 32.8336  8839.45  92.7112
 32.8756  8920.43  92.8647
 32.9176  8653.48  91.9347
 32.9596  8738.39  92.466
 33.0016  8786.25  92.5111
 33.0436  8832.47  92.9269
 33.0856  8688.35  92.2302
 33.1276  8559.25  91.2815
 33.1696  8699.96  91.8606
 33.2116  8725.92  92.2293
 33.2536  8769.15  92.4683
 33.2956  8813.02  92.7771
 33.3376  8709.68  92.0597
 33.3796  8657.5  91.9056
 33.4216  8738.55  91.9419
 33.4636  8710.9  91.9266
 33.5056  8582.37  91.4854
 33.5476  8589.69  91.5237
 33.5896  8698.01  91.8405
 33.6316  8563.64  91.4771
 33.6736  8465  91.1801
 33.7156  8542.99  91.6426
 33.7576  8629.24  91.7341
 33.7996  8739.75  92.0895
 33.8416  8538.89  91.2025
 33.8836  8560.14  91.1023
 33.9256  8581  91.2776
 33.9676  8590.8  91.2192
 34.0096  8382.53  90.422
 34.0516  8594.55  91.198
 34.0936  8477.44  90.8219
 34.1356  8646.25  91.4728
 34.1776  8492.76  90.6741
 34.2196  8389.27  90.2964
 34.2616  8421.86  90.5952
 34.3036  8392.27  90.6879
 34.3456  8538.78  91.2347
 34.3876  8442.63  90.7742
 34.4296  8535.46  90.8734
 34.4716  8440.65  90.5034
 34.5136  8398.63  90.4893
 34.5556  8350.99  90.4719
 34.5976  8434.75  90.7737
 34.6396  8498.67  90.7892
 34.6816  8390.81  90.3286
 34.7236  8406.94  90.2053
 34.7656  8373.76  90.2147
 34.8076  8244.83  89.8431
 34.8496  8387.9  90.4672
 34.8916  8419.93  90.5206
 34.9336  8431.69  90.5331
 34.9756  8614.01  91.4292
 35.0176  8442.22  91.0448
 35.0596  8354.74  90.4071
 35.1016  8361.06  90.2035
 35.1436  8578.94  91.0641
 35.1856  8272.29  89.5454
 35.2276  8358.92  90.1854
 35.2696  8295.66  90.0335
 35.3116  8306.13  90.1801
 35.3536  8113.01  88.8791
 35.3956  8236.71  89.2304
 35.4376  8240.86  89.7939
 35.4796  8312.55  90.253
 35.5216  8254.75  89.8993
 35.5636  8098.91  89.7745
 35.6056  8316.45  89.9946
 35.6476  8224.32  89.3954
 35.6896  8259.78  89.7478
 35.7316  8177.82  89.203
 35.7736  8163.68  89.3187
 35.8156  8113.32  89.0374
 35.8576  8281.24  90.1941
 35.8996  8378.32  90.6987
 35.9416  8296.64  89.77
 35.9836  8238.32  89.8965
 36.0256  8289.6  90.0945
 36.0676  8294.1  89.6633
 36.1096  8139.07  89.172
 36.1516  8173.17  89.2462
 36.1936  8267.7  89.6082
 36.2356  8185.53  89.798
 36.2776  8171.03  89.2006
 36.3196  8196.35  89.0139
 36.3616  8145.37  88.8725
 36.4036  8164.95  89.0353
 36.4456  8166.07  89.2388
 36.4876  7980.95  88.1697
 36.5296  8191.85  89.3697
 36.5716  8084.03  89.5485
 36.6136  8204.01  88.9891
 36.6556  8231.33  89.3439
 36.6976  8074.81  88.9757
 36.7396  8247.41  89.6476
 36.7816  8125.01  89.3544
 36.8236  8089.2  89.0774
 36.8656  8113.42  89.2935
 36.9076  8196  89.7468
 36.9496  8090.66  89.0351
 36.9916  8157.86  89.0295
 37.0336  8260.76  89.9108
 37.0756  8169.14  89.1974
 37.1176  8064.6  88.8915
 37.1596  8076.11  88.9502
 37.2016  7964.06  88.5115
 37.2436  8140.41  88.8616
 37.2856  8009.99  88.3968
 37.3276  8122.6  88.3713
 37.3696  7988.8  88.5108
 37.4116  8156.65  89.3499
 37.4536  7878.71  87.6799
 37.4956  7979.14  88.2872
 37.5376  7977.52  89.8186
 37.5796  7885.52  89.2516
 37.6216  7841.16  87.3045
 37.6636  7824.34  87.1143
 37.7056  7860.51  87.5062
 37.7476  7915.63  87.3516
 37.7896  7953.08  88.0524
 37.8316  7663.55  86.6081
 37.8736  8015.13  88.0983
 37.9156  8007.59  88.0582
 37.9576  7883.45  87.2664
 37.9996  7782.44  86.4286
 38.0416  7798.41  87.3149
 38.0836  7947.15  88.047
 38.1256  7851.66  87.4718
 38.1676  7694.9  86.7304
 38.2096  7836.25  87.152
 38.2516  7844.18  87.3933
 38.2936  7941.16  87.7399
 38.3356  7954.67  87.7233
 38.3776  7781.87  87.0381
 38.4196  7808.3  87.0443
 38.4616  7696.12  86.648
 38.5036  7990.23  88.1358
 38.5456  7765.64  87.7
 38.5876  7772.49  87.7663
 38.6296  7778.95  86.7875
 38.6716  7676.13  86.0094
 38.7136  7726.6  86.2342
 38.7556  7608.93  86.0673
 38.7976  7843.73  87.3246
 38.8396  7687  86.8945
 38.8816  7651.77  86.4707
 38.9236  7649.23  86.2794
 38.9656  7795.94  87.0157
 39.0076  7812.16  86.5198
 39.0496  7724.66  86.5721
 39.0916  7779.65  86.5198
 39.1336  7636.74  86.1316
 39.1756  7618.11  86.094
 39.2176  7682.32  86.9722
 39.2596  7684.96  86.9155
 39.3016  7648.33  86.2675
 39.3436  7532.05  86.0424
 39.3856  7761.81  86.8014
 39.4276  7739.61  87.162
 39.4696  7685.89  86.4915
 39.5116  7589.75  86.459
 39.5536  7829.12  88.2396
 39.5956  7875.47  87.5957
 39.6376  7763.42  86.9824
 39.6796  7694.24  86.3325
 39.7216  7727.97  86.6201
 39.7636  7735.11  87.2234
 39.8056  7812.05  87.4459
 39.8476  7650.26  86.7799
 39.8896  7706.84  86.7349
 39.9316  7701.76  86.9576
 39.9736  7951.6  87.9168
 40.0156  7712.52  86.409
 40.0576  7821.99  87.3808
 40.0996  7790.55  86.391
 40.1416  7719.46  86.7828
 40.1836  7772.96  86.9834
 40.2256  7796.71  87.1582
 40.2676  7671.57  86.6264
 40.3096  7804.06  87.2181
 40.3516  7790.57  87.2541
 40.3936  7880.98  87.3291
 40.4356  7788.82  87.0037
 40.4776  7778.69  87.1992
 40.5196  7819.77  87.7171
 40.5616  7826.4  87.4002
 40.6036  7631.31  86.5531
 40.6456  7839.76  87.3333
 40.6876  8009.06  88.2575
 40.7296  7863.45  87.5868
 40.7716  7890.83  87.8753
 40.8136  7753.67  87.0409
 40.8556  7834.09  87.6344
 40.8976  7846.88  87.6186
 40.9396  7755.4  87.4597
 40.9816  7857.58  87.3231
 41.0236  7914.94  87.4199
 41.0656  7855.13  87.6279
 41.1076  7937.93  87.8543
 41.1496  7963.35  87.9076
 41.1916  7763.46  87.1125
 41.2336  7812.05  87.3805
 41.2756  7837.82  87.1333
 41.3176  7762.35  87.3217
 41.3596  7831.09  87.4344
 41.4016  7761.24  87.3025
 41.4436  7751.86  87.0399
 41.4856  7797.37  87.4541
 41.5276  7832.12  87.6665
 41.5696  7791.15  87.0536
 41.6116  7825.58  87.6621
 41.6536  7711.18  86.8769
 41.6956  7888.78  87.8514
 41.7376  7714.67  86.9784
 41.7796  7692.05  86.7717
 41.8216  7843.96  87.8209
 41.8636  7794.53  87.4782
 41.9056  7752.29  87.0367
 41.9476  7853.82  87.8402
 41.9896  7783.89  87.118
 42.0316  7776.52  87.1512
 42.0736  7842.54  87.666
 42.1156  7709.56  86.7293
 42.1576  7749.16  87.0481
 42.1996  7746.38  87.1734
 42.2416  7720.77  86.6115
 42.2836  7676.28  86.4793
 42.3256  7642.12  86.4005
 42.3676  7730.15  86.7017
 42.4096  7787.56  86.9823
 42.4516  7685.36  86.5054
 42.4936  7567.19  85.9005
 42.5356  7719.94  86.893
 42.5776  7792.21  87.2383
 42.6196  7793.53  87.2953
 42.6616  7546.19  86.0709
 42.7036  7644.58  86.0225
 42.7456  7682.76  86.594
 42.7876  7611.44  86.2848
 42.8296  7703.84  86.6473
 42.8716  7526.97  85.797
 42.9136  7671.06  86.3668
 42.9556  7606  86.1752
 42.9976  7729.97  86.8317
 43.0396  7638.56  86.0547
 43.0816  7595.24  86.1801
 43.1236  7601.67  86.2791
 43.1656  7623.61  86.2339
 43.2076  7601.06  86.2138
 43.2496  7589.06  85.9514
 43.2916  7548.7  86.0845
 43.3336  7640.28  86.45
 43.3756  7535.42  85.6117
 43.4176  7520.46  85.6061
 43.4596  7454.72  85.0908
 43.5016  7527.15  85.9044
 43.5436  7545.1  85.9067
 43.5856  7525.3  85.8213
 43.6276  7576.05  86.0031
 43.6696  7540.63  85.9443
 43.7116  7602.21  85.9124
 43.7536  7552.64  86.1046
 43.7956  7390.07  86.3612
 43.8376  7536.71  85.7392
 43.8796  7434.25  85.249
 43.9216  7497.61  85.5304
 43.9636  7468.02  85.4736
 44.0056  7413.36  85.3811
 44.0476  7413.41  85.0249
 44.0896  7316.38  84.7961
 44.1316  7516.33  85.6055
 44.1736  7376.12  84.7992
 44.2156  7424.78  84.9209
 44.2576  7436.72  85.3225
 44.2996  7383.32  84.9828
 44.3416  7524.82  85.5579
 44.3836  7302.25  84.6073
 44.4256  7290.49  84.1913
 44.4676  7370.86  84.8049
 44.5096  7353.57  84.8457
 44.5516  7439.28  85.3005
 44.5936  7307.3  84.4959
 44.6356  7394.14  84.7384
 44.6776  7393.1  85.0436
 44.7196  7274.29  84.6696
 44.7616  7372.24  86.5451
 44.8036  7236.37  84.419
 44.8456  7457.26  85.695
 44.8876  7255.19  84.3755
 44.9296  7403.07  84.6944
 44.9716  7340.01  84.7597
 45.0136  7377.09  84.9052
 45.0556  7351.05  84.8368
 45.0976  7269.47  84.4206
 45.1396  7133.09  83.3829
 45.1816  7243.69  83.958
 45.2236  7420.09  84.8838
 45.2656  7202.13  84.1202
 45.3076  7333.03  84.6771
 45.3496  7179.91  84.0771
 45.3916  7229.41  84.6303
 45.4336  7221.03  84.4286
 45.4756  7167.33  83.9737
 45.5176  7196.99  83.7692
 45.5596  7306.09  84.5232
 45.6016  7092.16  83.6844
 45.6436  7089.89  82.8698
 45.6856  7149.92  83.8657
 45.7276  7066.71  84.66
 45.7696  7085.36  84.4383
 45.8116  7262.61  84.9264
 45.8536  7174.6  84.3074
 45.8956  7100.1  83.2366
 45.9376  7261.79  83.6495
 45.9796  7240.97  84.22
 46.0216  7141.11  83.962
 46.0636  7265.66  83.8414
 46.1056  7114.22  82.9505
 46.1476  7119.15  83.5599
 46.1896  7289.33  84.6993
 46.2316  7015.85  82.9701
 46.2736  7065.37  83.4747
 46.3156  7167.59  83.8166
 46.3576  7169.15  84.0261
 46.3996  7013.96  83.2657
 46.4416  7179.63  83.801
 46.4836  7012.92  83.197
 46.5256  7038.45  83.2871
 46.5676  7080.58  83.6479
 46.6096  7064.97  83.4645
 46.6516  7081.42  82.6504
 46.6936  7132.81  83.4342
 46.7356  7186.12  83.8538
 46.7776  7008.95  83.6377
 46.8196  7080.44  83.8034
 46.8616  6971.61  82.9674
 46.9036  6985.56  82.7091
 46.9456  6994.49  82.4193
 46.9876  6920  82.0534
 47.0296  6960.27  82.9746
 47.0716  7022.68  83.163
 47.1136  7013.86  82.8043
 47.1556  7024.25  82.7272
 47.1976  7088.31  83.2521
 47.2396  6933.28  82.6579
 47.2816  6982.15  82.6508
 47.3236  6937  82.7513
 47.3656  7012.02  83.1216
 47.4076  6990.52  82.7361
 47.4496  6983.35  82.8548
 47.4916  6915.71  82.6428
 47.5336  6946.68  82.6402
 47.5756  7033.54  83.267
 47.6176  6857.32  82.1272
 47.6596  6966.21  82.488
 47.7016  7035.34  82.7291
 47.7436  6930.91  82.4341
 47.7856  6968.65  82.6899
 47.8276  6905.55  82.3555
 47.8696  6833.79  82.0178
 47.9116  6845.79  81.8097
 47.9536  6934.37  82.2777
 47.9956  6880.72  82.651
 48.0376  6802.56  81.9513
 48.0796  6934.79  82.8761
 48.1216  6879.21  82.3669
 48.1636  7020.93  82.7974
 48.2056  6885.18  82.2479
 48.2476  6880.61  82.5215
 48.2896  6816.35  82.0498
 48.3316  6868.74  82.3086
 48.3736  6918.5  82.6211
 48.4156  6846.31  82.049
 48.4576  6799.39  82.0549
 48.4996  6940.18  82.3601
 48.5416  6879.32  82.3214
 48.5836  6817.49  81.6299
 48.6256  6903.12  82.3459
 48.6676  6958.38  83.1808
 48.7096  6825.73  81.6759
 48.7516  6821.93  81.7901
 48.7936  6723.22  81.261
 48.8356  6760.36  81.5351
 48.8776  6835.47  82.4688
 48.9196  6865.43  82.107
 48.9616  6826.14  82.247
 49.0036  6755.44  82.1611
 49.0456  6749.82  82.0991
 49.0876  6728.07  81.6143
 49.1296  6634.02  81.1066
 49.1716  6616.22  80.871
 49.2136  6739.58  81.5503
 49.2556  6740.67  81.5907
 49.2976  6688.99  81.346
 49.3396  6647.17  81.1442
 49.3816  6805.96  81.5494
 49.4236  6720.69  81.4522
 49.4656  6775.02  81.7904
 49.5076  6818.15  81.8023
 49.5496  6687.83  81.081
 49.5916  6756.01  81.4164
 49.6336  6732.68  81.4731
 49.6756  6752.42  81.8226
 49.7176  6636.59  81.0621
 49.7596  6763.67  81.6095
 49.8016  6785.33  81.6598
 49.8436  6708.61  81.4803
 49.8856  6647.48  81.1194
 49.9276  6637.64  81.1498
 49.9696  6697.23  81.4931
 50.0116  6573.93  80.8767
 50.0536  6671.76  81.4197
 50.0956  6576.89  80.9072
 50.1376  6690.4  81.3196
 50.1796  6643.32  81.29
 50.2216  6608.02  81.0618
 50.2636  6674.67  81.1005
 50.3056  6579.31  80.6846
 50.3476  6487.46  80.1439
 50.3896  6627.02  80.9763
 50.4316  6619.76  80.7657
 50.4736  6530.99  80.4375
 50.5156  6625.5  81.0102
 50.5576  6690.8  81.1696
 50.5996  6538.17  80.5147
 50.6416  6548.14  80.5035
 50.6836  6540.8  80.5156
 50.7256  6590.36  80.7427
 50.7676  6652.09  81.4011
 50.8096  6609.67  80.7256
 50.8516  6551.65  80.7738
 50.8936  6476.38  80.0966
 50.9356  6629.75  81.1438
 50.9776  6565.69  80.9026
 51.0196  6406.59  80.0342
 51.0616  6467.89  79.7553
 51.1036  6536.91  80.534
 51.1456  6553.12  80.5418
 51.1876  6465.94  79.3709
 51.2296  6531.79  80.3974
 51.2716  6397.79  79.2814
 51.3136  6479.79  80.229
 51.3556  6469.57  79.8057
 51.3976  6383.83  79.4178
 51.4396  6208.28  78.6145
 51.4816  6366.54  79.4627
 51.5236  6353.45  79.4543
 51.5656  6415.08  79.4657
 51.6076  6348.97  79.1294
 51.6496  6430.01  79.828
 51.6916  6336.21  79.5789
 51.7336  6426.43  80.2439
 51.7756  6512.17  80.4775
 51.8176  6469.18  80.3066
 51.8596  6356.04  79.6246
 51.9016  6507.18  80.1775
 51.9436  6301.92  80.3292
 51.9856  6274.69  80.5696
 52.0276  6542.64  80.8069
 52.0696  6304.41  79.3789
 52.1116  6425.42  80.2535
 52.1536  6474.1  80.4012
 52.1956  6437.43  79.6938
 52.2376  6438.32  79.8737
 52.2796  6426.21  79.6131
 52.3216  6231.75  79.0641
 52.3636  6338.68  79.3303
 52.4056  6304.28  78.9763
 52.4476  6242.35  78.9431
 52.4896  6202.87  78.7409
 52.5316  6314.75  79.4911
 52.5736  6312.86  79.214
 52.6156  6307.73  79.5446
 52.6576  6365.36  79.3697
 52.6996  6162.91  79.0336
 52.7416  6263.35  79.5353
 52.7836  6285.51  79.5614
 52.8256  6353.1  79.2315
 52.8676  6175.54  78.6747
 52.9096  6435.35  80.3916
 52.9516  6282.74  79.7892
 52.9936  6176.2  79.4841
 53.0356  6121.02  78.1586
 53.0776  6155.75  78.6615
 53.1196  6223.14  79.1828
 53.1616  6196.96  79.0689
 53.2036  6077.27  78.2585
 53.2456  6132.74  78.7137
 53.2876  6109.88  78.2804
 53.3296  6131.21  78.7331
 53.3716  6280.32  79.4353
 53.4136  6155.68  78.79
 53.4556  6048.43  78.1297
 53.4976  6052.19  78.0028
 53.5396  6124.87  78.8511
 53.5816  6255  79.3301
 53.6236  6104.03  78.7013
 53.6656  6095.22  78.281
 53.7076  6142.01  78.5436
 53.7496  6115.78  78.4944
 53.7916  6266.07  79.5735
 53.8336  6126.56  78.5847
 53.8756  6013  78.3863
 53.9176  6149.35  78.6259
 53.9596  6218.35  79.8326
 54.0016  6057.44  78.1313
 54.0436  6038.89  78.2343
 54.0856  6211.99  78.7749
 54.1276  6032.3  77.8219
 54.1696  6078.17  78.2862
 54.2116  6127.86  78.3689
 54.2536  6134.84  78.2341
 54.2956  6210.49  78.7541
 54.3376  6046.87  78.185
 54.3796  6097.79  78.4109
 54.4216  6205.1  79.1473
 54.4636  6114.54  78.5292
 54.5056  6147.66  78.5683
 54.5476  6110.5  78.6548
 54.5896  6199.65  79.0587
 54.6316  6067.96  78.0778
 54.6736  6140.93  78.5668
 54.7156  6070.41  78.1919
 54.7576  6069.9  78.1781
 54.7996  6065.92  78.3073
 54.8416  6079.08  78.4241
 54.8836  5991.34  77.9674
 54.9256  6086.42  78.3286
 54.9676  6119.27  78.4038
 55.0096  6083.13  78.2438
 55.0516  6165.29  78.9293
 55.0936  6131.76  78.4188
 55.1356  6023.51  77.7616
 55.1776  5980.12  77.7443
 55.2196  6123.03  78.4539
 55.2616  6118.3  78.6325
 55.3036  6037.76  78.2728
 55.3456  6011.66  78.2515
 55.3876  6103.68  78.591
 55.4296  6044.45  78.1861
 55.4716  6043.18  78.2134
 55.5136  6003.7  77.7149
 55.5556  6017.95  77.8793
 55.5976  6025.37  77.9821
 55.6396  6069.2  78.1353
 55.6816  6053.72  77.9977
 55.7236  6093  78.2896
 55.7656  6065.86  77.8771
 55.8076  6085.27  77.9828
 55.8496  5953.57  77.559
 55.8916  5963.82  77.6816
 55.9336  6005.49  77.8107
 55.9756  6035.77  77.8933
 56.0176  6064.58  78.2295
 56.0596  6065.68  78.219
 56.1016  6052.93  78.1771
 56.1436  6021.55  78.2068
 56.1856  6021.47  77.9488
 56.2276  6022.17  78.0134
 56.2696  6040.56  78.1045
 56.3116  5870.76  77.385
 56.3536  5967.89  77.6891
 56.3956  6015.57  77.9881
 56.4376  5964.09  77.6896
 56.4796  6055.17  78.0795
 56.5216  5934.66  77.6745
 56.5636  6028.81  77.8759
 56.6056  5957.2  77.6464
 56.6476  6017.92  77.6717
 56.6896  6025.88  78.1647
 56.7316  5955.04  77.6055
 56.7736  5982.62  77.7932
 56.8156  5986.85  77.8131
 56.8576  5987.82  77.7649
 56.8996  6019.83  77.9162
 56.9416  6006.97  78.1331
 56.9836  5945.14  77.252
 57.0256  5964.24  77.6835
 57.0676  5901.47  77.3996
 57.1096  5971.21  77.6423
 57.1516  6009.81  77.9167
 57.1936  6039.71  77.9002
 57.2356  5995.91  77.9313
 57.2776  5971.14  77.7265
 57.3196  6014.38  78.3747
 57.3616  6035.54  78.0105
 57.4036  5941.72  77.4603
 57.4456  5991.74  77.7547
 57.4876  6003.78  77.6898
 57.5296  5892.94  77.2051
 57.5716  5978.98  77.8597
 57.6136  5932.98  77.3709
 57.6556  6014.73  78.047
 57.6976  5945.96  77.4174
 57.7396  5921.58  77.635
 57.7816  5868.28  77.6334
 57.8236  5961.71  78.049
 57.8656  5913.02  77.3908
 57.9076  5894.75  77.2935
 57.9496  6027.37  78.5128
 57.9916  5923.56  77.3535
 58.0336  5954.24  77.8281
 58.0756  6010.31  77.7869
 58.1176  5937.82  77.3577
 58.1596  5999.17  78.3156
 58.2016  6093.2  78.1552
 58.2436  5942.41  77.5847
 58.2856  5837.75  76.8231
 58.3276  5984.24  78.1469
 58.3696  5920.93  77.4772
 58.4116  5951.69  77.5469
 58.4536  6011.95  77.8273
 58.4956  5788.3  76.5471
 58.5376  6082.33  78.0346
 58.5796  5941.16  77.5498
 58.6216  6019.18  77.8657
 58.6636  5960.76  77.7062
 58.7056  6044.71  78.1049
 58.7476  5836.88  77.1876
 58.7896  5970.6  77.7135
 58.8316  5994.17  77.8549
 58.8736  6131.48  78.7452
 58.9156  5916.07  77.4018
 58.9576  6150.82  79.247
 58.9996  6115.1  78.2579
 59.0416  6033.79  78.1086
 59.0836  5945.69  77.4553
 59.1256  5871.44  77.6587
 59.1676  5838.79  77.7261
 59.2096  6054.76  78.4932
 59.2516  6160.74  78.754
 59.2936  6005.76  78.0843
 59.3356  6091.77  78.5187
 59.3776  5908.05  77.4928
 59.4196  5973.31  77.8564
 59.4616  5926.09  77.4088
 59.5036  5929.14  77.4636
 59.5456  6290.23  79.4748
 59.5876  6076.07  78.3018
 59.6296  5936.66  77.4669
 59.6716  6045.45  78.2315
 59.7136  5963.24  77.6862
 59.7556  5895.2  77.3765
 59.7976  6024.44  77.9625
 59.8396  6026.88  77.8726
 59.8816  5964.8  78.0121
 59.9236  6015.55  77.9882
 59.9656  5909.73  77.5572
 60.0076  6014.86  77.6024
 60.0496  6048.77  78.3232
 60.0916  6056.98  77.7955
 60.1336  5968.69  78.3274
 60.1756  5954.73  79.4118
 60.1996  0.0000000E+00  0.0000000E+00