File: docs/examples/XRD/IS17_D/Data/IS17_D/17_Da_f00147.xye
# /beamlines/bl04/projects/cycle2025-II/20250340211-lsimonelli/DATA/IS17_D/17_Da_f00147.xye : mythproc.py merge -s 0.006 -l 0.5 -f /beamlines/bl04/inhouse/ff/FlatField/ff_20Nov2024rod8mm60s_17keV.raw -b True -c true -o xye /beamlines/bl04/projects/cycle2025-II/20250340211-lsimonelli/DATA/IS17_D/17_Da_00147.dat
# IsMon = [6751253, 6751290, 6747061]  IsPos = [-1.4999, -2.4883, -3.4988]
# Wave = 0.4962  CalPath /beamlines/bl04/projects/cycle2025-II/20250340211-lsimonelli/DATA/Align/Si_Pos1_25keV_f00001.cal
# Date = 2025-09-25_10:32:02 Dt = 4.8000  Bin = 0.0060  <imon> = 6749868 +/- 1985 (Min/Max) 6747061 / 6751290
# icurr 249.7174  mocoIn 1.7037E-05  mocoOut 0.7987  i15 7.06649e+06  imon 6.74987e+06  i7 8.6667  iEMpd_timer 4.8000  iEMpd_1 3.4331E-08  iEMpd_2 7.8312E-08  iEMpd_3 1.8108E-08  iEMpd_4 4.8447E-08  iEMhp_timer 4.8000  iEMhp_1 4.8786E-06  iEMhp_2 -2.5308E-08  iEMhp_3 -2.4006E-08  iEMhp_4 -2.0155E-08
#      9776
 1.5856  40410.8  206.399
 1.6276  48276.5  221.722
 1.6696  54346.5  234.419
 1.7116  63649.9  254.188
 1.7536  71692.1  268.619
 1.7956  77019.7  279.117
 1.8376  72369.5  270.989
 1.8796  61589  248.141
 1.9216  49496.8  223.348
 1.9636  41626  203.982
 2.0056  37297.7  192.338
 2.0476  34599.9  187.282
 2.0896  33497.7  183.195
 2.1316  32451.1  179.443
 2.1736  30889.2  176.46
 2.2156  31395  176.472
 2.2576  30417.5  174.325
 2.2996  28643.3  169.786
 2.3416  29162.6  169.951
 2.3836  29068.2  169.78
 2.4256  27988.4  167.139
 2.4676  27499.5  165.438
 2.5096  27323.9  164.963
 2.5516  26695.8  166.83
 2.5936  26738.9  163.597
 2.6356  26113.7  162.354
 2.6776  25809.2  160.305
 2.7196  25651.2  159.949
 2.7616  25561.4  159.83
 2.8036  25163.4  158.746
 2.8456  25304.5  159.807
 2.8876  24716.3  157.816
 2.9296  24364.3  156.812
 2.9716  24165.7  155.67
 3.0136  23999.1  155.198
 3.0556  23858.2  155.134
 3.0976  23957.6  154.394
 3.1396  23842  154.742
 3.1816  23531.8  153.378
 3.2236  23487.3  153.518
 3.2656  23216.4  151.676
 3.3076  22993.2  152.381
 3.3496  23433.5  152.779
 3.3916  23890.3  154.088
 3.4336  24136.5  155.453
 3.4756  24668.8  157.083
 3.5176  25683.4  160.078
 3.5596  25271.7  161.211
 3.6016  25565.7  159.783
 3.6436  24696.5  158.13
 3.6856  24314.6  155.214
 3.7276  23543.3  153.816
 3.7696  23171.2  152.805
 3.8116  22884.7  151.735
 3.8536  23020.4  152.116
 3.8956  23056.2  152.058
 3.9376  22856  151.65
 3.9796  22574.5  150.227
 4.0216  22848.3  150.169
 4.0636  22827.4  151.574
 4.1056  22845.9  151.272
 4.1476  22882.6  151.712
 4.1896  23225.5  152.704
 4.2316  23347.4  152.937
 4.2736  23895.2  154.505
 4.3156  24027.1  155.164
 4.3576  24784.1  157.506
 4.3996  24999  158.444
 4.4416  25585.7  159.882
 4.4836  26017.9  161.378
 4.5256  26436.5  163.28
 4.5676  26486.5  163.694
 4.6096  26971.5  163.833
 4.6516  27396.1  164.837
 4.6936  27389  165.635
 4.7356  27731.8  166.486
 4.7776  27613.5  165.968
 4.8196  27281.4  165.602
 4.8616  26912.8  163.967
 4.9036  26463.8  162.337
 4.9456  26485.7  163.052
 4.9876  25882.4  161.092
 5.0296  26236.1  162.006
 5.0716  26087.2  162.335
 5.1136  26306.4  162.711
 5.1556  26711.2  163.424
 5.1976  26836.8  163.791
 5.2396  27208.5  164.624
 5.2816  27184.4  165.008
 5.3236  27213.4  164.809
 5.3656  26686.2  164.121
 5.4076  26519.5  163.763
 5.4496  26623.3  163.568
 5.4916  26848.1  164.013
 5.5336  26979.2  164.424
 5.5756  26600.9  163.281
 5.6176  26780.9  163.278
 5.6596  27077  165.149
 5.7016  27197.4  164.786
 5.7436  27560.6  166.158
 5.7856  27343.6  165.561
 5.8276  27719.7  166.422
 5.8696  27891.9  167.101
 5.9116  27909.9  167.46
 5.9536  28029.7  167.872
 5.9956  28492.6  168.613
 6.0376  28464.2  169.174
 6.0796  28717.7  169.755
 6.1216  28804.1  170.276
 6.1636  28678.3  168.905
 6.2056  28840.1  170.053
 6.2476  28932.1  170.192
 6.2896  28969.8  169.987
 6.3316  29120.8  170.596
 6.3736  29024  170.211
 6.4156  29239.2  170.732
 6.4576  29327.6  170.602
 6.4996  29548.7  171.729
 6.5416  29317.6  171.183
 6.5836  29508.7  171.984
 6.6256  29604.8  171.818
 6.6676  30319.3  173.445
 6.7096  29930.5  173.173
 6.7516  30348  174.039
 6.7936  30459.2  173.79
 6.8356  30749.2  174.683
 6.8776  31004.2  176.222
 6.9196  30836.5  176.141
 6.9616  31629.8  177.825
 7.0036  31848.5  178.096
 7.0456  31907.8  177.556
 7.0876  31845  179.075
 7.1296  31752.8  177.95
 7.1716  31846.8  177.753
 7.2136  31729.3  177.205
 7.2556  31875.5  177.775
 7.2976  31889  178.311
 7.3396  31796.4  178.259
 7.3816  31628.4  178.005
 7.4236  32026.3  178.411
 7.4656  32225.9  178.446
 7.5076  32266.9  178.699
 7.5496  32341.5  179.456
 7.5916  32222.3  179.146
 7.6336  32705.3  180.38
 7.6756  32982.3  180.992
 7.7176  33158.9  181.779
 7.7596  33214.4  183.188
 7.8016  33659.6  186.591
 7.8436  34184.2  184.717
 7.8856  34084.5  184.059
 7.9276  34873.4  186.585
 7.9696  35006.8  187.244
 8.0116  36020.6  188.462
 8.0536  36206.5  189.202
 8.0956  35902.2  189.572
 8.1376  36602.6  190.898
 8.1796  36774.7  191.882
 8.2216  37490.5  192.478
 8.2636  37753.3  193.418
 8.3056  37790.6  194.289
 8.3476  38458.3  195.308
 8.3896  37874.1  193.897
 8.4316  38388.9  195.377
 8.4736  38282.5  194.572
 8.5156  38068.4  194.304
 8.5576  37241.6  193.782
 8.5996  37829.3  193.532
 8.6416  37654.7  194.35
 8.6836  37668.1  194.234
 8.7256  38214  195.051
 8.7676  37384  195.852
 8.8096  37253.1  192.796
 8.8516  37343.3  192.644
 8.8936  36621.4  190.657
 8.9356  36614  190.976
 8.9776  36983.2  192.04
 9.0196  36334.5  190.017
 9.0616  37095.5  191.486
 9.1036  36239.6  190.442
 9.1456  36555.7  190.637
 9.1876  36345.3  190.023
 9.2296  36621  190.156
 9.2716  35901.8  188.328
 9.3136  36021.3  188.628
 9.3556  36123.4  188.877
 9.3976  34878.7  186.116
 9.4396  35339.1  187.241
 9.4816  34925.1  185.994
 9.5236  35059.1  186.27
 9.5656  34487  185.074
 9.6076  34506.9  185.667
 9.6496  34167.7  184.664
 9.6916  34273.1  184.928
 9.7336  34118  184.28
 9.7756  34501.8  186.588
 9.8176  33555.9  183.474
 9.8596  33377.9  181.426
 9.9016  32919.7  180.171
 9.9436  32770.6  179.674
 9.9856  32449.9  179.02
 10.0276  32082.8  179.087
 10.0696  32466.5  179.209
 10.1116  31390.8  176.476
 10.1536  31122.4  175.894
 10.1956  30852  174.723
 10.2376  30515.5  173.273
 10.2796  30564.5  173.54
 10.3216  30470.5  173.55
 10.3636  30053.6  172.381
 10.4056  30147.2  173.055
 10.4476  30098.7  172.536
 10.4896  30380.7  172.935
 10.5316  29402.3  170.695
 10.5736  29581.8  171.627
 10.6156  29005.6  169.714
 10.6576  29133.6  168.646
 10.6996  28685.8  168.013
 10.7416  28527.7  167.788
 10.7836  28499.8  168.417
 10.8256  28217.5  168.017
 10.8676  28415.8  168.128
 10.9096  27973  166.866
 10.9516  27909  165.592
 10.9936  27730.7  165.259
 11.0356  27918.6  166.462
 11.0776  27632.7  164.917
 11.1196  27016.4  163.81
 11.1616  26980.2  163.389
 11.2036  27186  163.865
 11.2456  26982.8  163.957
 11.2876  27028.8  163.826
 11.3296  26824.9  163.112
 11.3716  26979.9  163.277
 11.4136  27075.4  164.472
 11.4556  27556.7  165.594
 11.4976  27711.8  164.997
 11.5396  27823.2  165.498
 11.5816  27156.3  163.972
 11.6236  26730.6  162.899
 11.6656  26508.7  161.366
 11.7076  25949.1  160.503
 11.7496  25623.8  163.44
 11.7916  25681  158.933
 11.8336  25477.7  159.201
 11.8756  25034.3  157.334
 11.9176  25255.9  157.673
 11.9596  24921  156.822
 12.0016  24850  157.111
 12.0436  24885.8  156.928
 12.0856  24657.3  156.736
 12.1276  24664.1  156.681
 12.1696  24560.9  155.476
 12.2116  24949.7  156.702
 12.2536  24398.4  155.793
 12.2956  24540.5  155.578
 12.3376  24469.6  155.554
 12.3796  24372.1  155.704
 12.4216  24553.9  155.503
 12.4636  24127.2  155.057
 12.5056  24320  154.951
 12.5476  24377.9  154.663
 12.5896  24379.3  155.309
 12.6316  23993.1  154.222
 12.6736  24052.2  155.075
 12.7156  23845.3  154.087
 12.7576  24214.3  155.522
 12.7996  24368.2  154.657
 12.8416  24156.1  155.037
 12.8836  24546.6  156.032
 12.9256  24825.2  155.997
 12.9676  24911  156.704
 13.0096  24589.7  156.784
 13.0516  24646.8  156.005
 13.0936  24819.5  156.941
 13.1356  25049.6  156.657
 13.1776  24776.9  156.8
 13.2196  25031.5  157.254
 13.2616  24864.2  157.045
 13.3036  24813.3  156.848
 13.3456  24825.7  157.25
 13.3876  24730.6  156.226
 13.4296  24501.8  155.661
 13.4716  24867  156.419
 13.5136  24842.5  156.496
 13.5556  24861.8  157.175
 13.5976  24849.1  157.283
 13.6396  25144.1  157.577
 13.6816  24642.7  156.493
 13.7236  25296.7  158.204
 13.7656  24514.6  156.261
 13.8076  25109.2  156.918
 13.8496  24337.2  155.084
 13.8916  24624.9  157.007
 13.9336  24521  155.905
 13.9756  24316.3  154.596
 14.0176  24244  155.056
 14.0596  24349.3  155.358
 14.1016  24039.7  154.759
 14.1436  23647.8  152.618
 14.1856  23653.3  152.941
 14.2276  23138.7  151.74
 14.2696  23437.6  152.572
 14.3116  23199.1  151.693
 14.3536  22771.8  150.465
 14.3956  22869.4  150.513
 14.4376  23194.7  151.359
 14.4796  22939.2  150.506
 14.5216  22562.5  150.064
 14.5636  22497.6  149.416
 14.6056  22496.1  148.993
 14.6476  22474.4  148.145
 14.6896  22117.3  147.506
 14.7316  21748.4  147.297
 14.7736  21701.2  146.289
 14.8156  21486.7  145.596
 14.8576  21315.3  144.869
 14.8996  21048.7  145.171
 14.9416  20728.2  144.049
 14.9836  20713.8  143.972
 15.0256  20561.2  142.372
 15.0676  20580.4  142.895
 15.1096  20200.8  141.169
 15.1516  19972.2  140.919
 15.1936  20071  140.698
 15.2356  19867.2  140.129
 15.2776  19721.6  139.33
 15.3196  19253  138.67
 15.3616  19250.1  138.422
 15.4036  19216.2  138.145
 15.4456  19385.5  138.405
 15.4876  19139.5  137.202
 15.5296  18928.9  136.722
 15.5716  18740  135.648
 15.6136  18655.8  135.667
 15.6556  18530.4  134.445
 15.6976  18464  134.494
 15.7396  18294  134.282
 15.7816  18150.4  133.252
 15.8236  18133.3  133.905
 15.8656  18287.1  134.253
 15.9076  17850.7  132.467
 15.9496  17776.9  134.972
 15.9916  17728.8  135.242
 16.0336  17359.3  130.719
 16.0756  17602.9  131.954
 16.1176  17561.2  131.87
 16.1596  16957  130.75
 16.2016  17321.9  130.902
 16.2436  16812.8  129.338
 16.2856  16918.6  129.286
 16.3276  16909  129.669
 16.3696  16925.2  129.55
 16.4116  16547.4  128.557
 16.4536  16834.5  129.449
 16.4956  16809  129.08
 16.5376  16687.7  128.811
 16.5796  16696.3  128.199
 16.6216  16779.4  128.821
 16.6636  16701.4  128.692
 16.7056  16829.7  129.039
 16.7476  16789.3  128.407
 16.7896  16645.8  128.615
 16.8316  16762.4  129.027
 16.8736  16486.6  128.212
 16.9156  16518.6  128.68
 16.9576  16397.2  129.001
 16.9996  16534.5  130.037
 17.0416  16483.8  128.169
 17.0836  16297.4  127.192
 17.1256  16258.6  127.058
 17.1676  16160.4  126.654
 17.2096  16119.6  126.383
 17.2516  15951.3  125.501
 17.2936  15889.6  125.595
 17.3356  15627.9  124.556
 17.3776  15746.4  125.212
 17.4196  15757.1  124.949
 17.4616  15588  124.195
 17.5036  15427  123.92
 17.5456  15066.4  123.1
 17.5876  15374.8  123.395
 17.6296  15387.3  123.262
 17.6716  15258.5  123.325
 17.7136  15185.2  123.166
 17.7556  15148.6  123.309
 17.7976  15165.2  123.119
 17.8396  14946.2  121.723
 17.8816  15096.1  122.885
 17.9236  14878.7  121.804
 17.9656  15108  123.293
 18.0076  15167.7  123.114
 18.0496  15098  121.956
 18.0916  15163.3  122.769
 18.1336  15061.5  122.454
 18.1756  15130.5  122.247
 18.2176  14964.3  121.814
 18.2596  15002.9  121.698
 18.3016  15146  122.537
 18.3436  15226.5  122.867
 18.3856  14873  121.566
 18.4276  14904.1  121.363
 18.4696  14797.7  121.032
 18.5116  14898.5  121.735
 18.5536  14960.8  122.362
 18.5956  14563.2  120.258
 18.6376  14686.5  121.18
 18.6796  14632.5  120.274
 18.7216  14658.5  120.873
 18.7636  14387.5  119.742
 18.8056  14589.6  120.522
 18.8476  14385.6  120.314
 18.8896  14478.7  120.022
 18.9316  14507.6  120.136
 18.9736  14654.4  120.423
 19.0156  14468.8  120.064
 19.0576  14367.3  118.502
 19.0996  14616.2  120.387
 19.1416  14243.4  119.095
 19.1836  14542.9  119.939
 19.2256  14273.6  119.04
 19.2676  14374  119.549
 19.3096  14299.6  119.491
 19.3516  14144.8  118.798
 19.3936  14253.7  119.152
 19.4356  14222.4  118.897
 19.4776  14340.6  119.484
 19.5196  14317.6  119.236
 19.5616  14205.6  119.032
 19.6036  14266.4  118.784
 19.6456  14235.4  118.769
 19.6876  14366.4  118.958
 19.7296  14256.5  118.952
 19.7716  14196.8  118.869
 19.8136  14455.2  120.157
 19.8556  14546.5  120.01
 19.8976  14462.1  119.73
 19.9396  14684  120.213
 19.9816  14832.8  121.138
 20.0236  14971.6  121.851
 20.0656  14820  121.237
 20.1076  14397.6  119.957
 20.1496  14200.4  119.143
 20.1916  14075.3  118.124
 20.2336  14188.1  118.533
 20.2756  13953.8  117.983
 20.3176  13683.8  116.584
 20.3596  13695  116.611
 20.4016  13615.4  116.074
 20.4436  13790.9  117.377
 20.4856  13379.1  115.397
 20.5276  13601.4  116.82
 20.5696  13489.5  115.792
 20.6116  13570.9  116.426
 20.6536  13578.3  115.955
 20.6956  13352.3  115.116
 20.7376  13427.2  115.671
 20.7796  13415.5  115.307
 20.8216  13610.9  115.844
 20.8636  13235  114.605
 20.9056  13293.2  114.806
 20.9476  13118.6  113.885
 20.9896  13504.5  115.418
 21.0316  13387.7  114.819
 21.0736  13380.7  115.308
 21.1156  13315.5  115.191
 21.1576  13290.9  115.125
 21.1996  13232.8  114.858
 21.2416  13006.4  113.701
 21.2836  13393.7  115.353
 21.3256  13164.3  114.43
 21.3676  13257.6  114.388
 21.4096  13171.5  114.33
 21.4516  13127.1  114.014
 21.4936  13003  113.727
 21.5356  13201.1  114.536
 21.5776  13136.4  114.087
 21.6196  13029  113.651
 21.6616  12917.8  113.257
 21.7036  13016.2  113.469
 21.7456  12970.5  113.342
 21.7876  13025.9  113.334
 21.8296  12930.8  112.771
 21.8716  12929.9  112.995
 21.9136  13124.4  114.053
 21.9556  13053.4  113.413
 21.9976  12794  112.299
 22.0396  12795.2  112.556
 22.0816  12798.4  113.12
 22.1236  13013.6  113.508
 22.1656  12982  113.502
 22.2076  12926.2  112.729
 22.2496  12893.9  112.607
 22.2916  12918  112.605
 22.3336  12846.5  113.014
 22.3756  12855.4  112.779
 22.4176  12732.3  112.093
 22.4596  12666.3  112.398
 22.5016  12845.8  112.664
 22.5436  13092.4  113.635
 22.5856  12808.4  112.64
 22.6276  12861.2  113.046
 22.6696  12876.6  113.434
 22.7116  12690.6  112.114
 22.7536  12861.6  112.85
 22.7956  12810.2  111.943
 22.8376  12816.9  112.514
 22.8796  12808.4  112.266
 22.9216  12938.6  113.396
 22.9636  12928.6  112.485
 23.0056  12771.7  111.94
 23.0476  12993.3  113.478
 23.0896  13100.6  113.319
 23.1316  12981.9  113.247
 23.1736  12750.9  114.981
 23.2156  12875.1  113.115
 23.2576  12788  112.846
 23.2996  12848.2  112.913
 23.3416  12687.2  112.71
 23.3836  12740.4  112.183
 23.4256  12836.9  112.717
 23.4676  12642.8  111.562
 23.5096  12724.7  112.606
 23.5516  12589.1  111.285
 23.5936  12672.3  112.551
 23.6356  12740.2  112.523
 23.6776  12747.4  112.779
 23.7196  12690.3  112.094
 23.7616  12842  112.687
 23.8036  12604.7  111.661
 23.8456  12750.9  111.893
 23.8876  12381.1  110.596
 23.9296  12457.9  111.433
 23.9716  12355.5  110.168
 24.0136  12536.9  111.876
 24.0556  12419.2  111.091
 24.0976  12322.8  110.459
 24.1396  12222.1  112.65
 24.1816  12287.2  111.366
 24.2236  12168.9  110.433
 24.2656  12102.7  109.604
 24.3076  12042.2  109.583
 24.3496  12201.5  110.195
 24.3916  12094.1  109.759
 24.4336  12151.9  110.229
 24.4756  11977.6  109.303
 24.5176  11990.1  109.008
 24.5596  11711.2  107.859
 24.6016  11662.3  107.921
 24.6436  11945.9  108.711
 24.6856  11745.2  107.556
 24.7276  11840.2  108.308
 24.7696  11627.9  107.444
 24.8116  11593.1  107.469
 24.8536  11539.5  107.211
 24.8956  11529.1  106.901
 24.9376  11629.5  107.306
 24.9796  11434.1  106.751
 25.0216  11339.1  106.42
 25.0636  11497.9  106.814
 25.1056  11234.8  106.288
 25.1476  11472.8  109.101
 25.1896  11447.1  107.441
 25.2316  11375.7  106.382
 25.2736  11397.5  106.125
 25.3156  11225.9  105.405
 25.3576  11405  106.661
 25.3996  11286.3  106.091
 25.4416  11276.5  106.026
 25.4836  11073.8  105.593
 25.5256  11220  105.649
 25.5676  11220  105.376
 25.6096  11096.6  105.37
 25.6516  11210.2  105.399
 25.6936  11117.4  105.277
 25.7356  11054.6  105.118
 25.7776  11190.8  105.367
 25.8196  11101.9  105.186
 25.8616  11102.1  105.108
 25.9036  11153.9  104.821
 25.9456  11176.3  105.522
 25.9876  11031.1  104.903
 26.0296  11228.8  105.341
 26.0716  10982.4  104.599
 26.1136  11098.5  105.094
 26.1556  11184.2  104.886
 26.1976  11001.7  104.948
 26.2396  11219.5  105.135
 26.2816  11043.5  104.909
 26.3236  11010.3  104.914
 26.3656  10983.2  104.506
 26.4076  11112.8  105.307
 26.4496  11657.6  107.375
 26.4916  11078.4  104.66
 26.5336  10972.5  104.489
 26.5756  11500.6  106.788
 26.6176  11014.4  104.578
 26.6596  10913.9  104.433
 26.7016  10819.5  103.734
 26.7436  10826.1  103.894
 26.7856  10595.9  102.77
 26.8276  10845.2  103.924
 26.8696  10726  103.226
 26.9116  10727.5  103.173
 26.9536  10764.1  103.399
 26.9956  10659.4  102.933
 27.0376  10577.7  102.749
 27.0796  10698  103.064
 27.1216  10546.4  102.4
 27.1636  10503.3  102.362
 27.2056  10523.4  102.342
 27.2476  10549.1  102.465
 27.2896  10513.1  102.436
 27.3316  10430.9  101.71
 27.3736  10614.7  102.875
 27.4156  10424  101.782
 27.4576  10512  102.453
 27.4996  10406.1  101.522
 27.5416  10314.6  101.397
 27.5836  10319.1  101.236
 27.6256  10609.1  102.83
 27.6676  10673.8  103.152
 27.7096  10438.9  101.878
 27.7516  10350.2  101.598
 27.7936  10315.7  101.588
 27.8356  10383.4  101.546
 27.8776  10210.1  100.734
 27.9196  10156.8  100.328
 27.9616  10196  100.707
 28.0036  10172.1  100.56
 28.0456  10249.2  101.08
 28.0876  10159.4  100.726
 28.1296  10137.3  100.387
 28.1716  10226.1  100.901
 28.2136  10165.7  100.566
 28.2556  10102.1  100.364
 28.2976  10018.5  99.9433
 28.3396  10139.9  100.312
 28.3816  10068  99.9719
 28.4236  10128.3  100.425
 28.4656  10134.4  100.487
 28.5076  9989.93  99.4076
 28.5496  10071  100.075
 28.5916  10015.4  99.6034
 28.6336  9841.54  99.0742
 28.6756  10037.4  99.2563
 28.7176  9972.18  99.3717
 28.7596  9922.99  99.1318
 28.8016  10055.6  99.8273
 28.8436  9870.86  99.1455
 28.8856  9945.8  99.4195
 28.9276  9932.92  99.5568
 28.9696  9896.51  99.0292
 29.0116  9934.19  99.4116
 29.0536  9683.68  98.3409
 29.0956  9839.29  98.8505
 29.1376  9806.75  98.6445
 29.1796  9838.43  98.8499
 29.2216  9796.03  98.4801
 29.2636  9774.16  98.4429
 29.3056  9897.41  98.8549
 29.3476  9830.11  99.0454
 29.3896  9893.83  99.4629
 29.4316  10005.9  99.3593
 29.4736  9889.06  98.8493
 29.5156  9918.59  98.9077
 29.5576  9777.46  98.9443
 29.5996  9866.25  98.6482
 29.6416  9705.88  97.9572
 29.6836  9809.51  98.4095
 29.7256  9672.68  98.0478
 29.7676  9750.66  98.3434
 29.8096  9713.76  98.0985
 29.8516  9584.63  97.7816
 29.8936  9787.62  98.9027
 29.9356  9792.98  98.6818
 29.9776  9647.18  98.0975
 30.0196  9509.12  97.0536
 30.0616  9678.81  98.0183
 30.1036  9705.82  97.9746
 30.1456  9707.28  98.2288
 30.1876  9730.7  98.3136
 30.2296  9547.62  97.3431
 30.2716  9700.86  97.7511
 30.3136  9814.25  99.1852
 30.3556  9746.12  98.8509
 30.3976  9626.97  99.7906
 30.4396  9741.18  97.6746
 30.4816  9648.75  96.8113
 30.5236  9582.35  96.4861
 30.5656  9590.9  97.1962
 30.6076  9600.71  96.6701
 30.6496  9647.93  97.296
 30.6916  9435.71  96.3212
 30.7336  9602.77  97.3176
 30.7756  9581.51  97.3034
 30.8176  9580.03  97.2101
 30.8596  9468.76  96.4134
 30.9016  9462.85  96.7254
 30.9436  9579.04  97.0686
 30.9856  9536.71  96.9499
 31.0276  9444.01  96.0781
 31.0696  9371.86  96.3048
 31.1116  9433.84  96.5991
 31.1536  9515.15  96.903
 31.1956  9486.4  96.8386
 31.2376  9276.09  95.7741
 31.2796  9347.14  95.6721
 31.3216  9405.34  95.911
 31.3636  9414.49  96.6416
 31.4056  9374.26  97.7695
 31.4476  9442.4  95.9759
 31.4896  9382.86  96.1829
 31.5316  9321.9  95.2688
 31.5736  9527.02  96.1169
 31.6156  9391.47  95.4585
 31.6576  9539.73  96.3141
 31.6996  9457.4  95.5585
 31.7416  9180.63  95.2106
 31.7836  9511.35  95.9144
 31.8256  9205.66  94.6311
 31.8676  9415  95.6955
 31.9096  9153.55  94.7131
 31.9516  9102.92  94.6107
 31.9936  9188.98  94.8831
 32.0356  9401.35  96.0391
 32.0776  9245.25  95.1247
 32.1196  9204.17  95.0048
 32.1616  9450.19  95.7118
 32.2036  9053.76  94.1943
 32.2456  9166.58  95.1614
 32.2876  9171.05  94.6793
 32.3296  9206.85  94.8291
 32.3716  9160.21  94.7009
 32.4136  9178.59  95.0193
 32.4556  9370.6  95.3663
 32.4976  9218.3  94.5051
 32.5396  9063.42  93.7761
 32.5816  8995.61  93.5377
 32.6236  9119.35  94.2583
 32.6656  9229.41  95.3699
 32.7076  9119.8  94.4506
 32.7496  9116.94  94.0872
 32.7916  9053.99  93.7313
 32.8336  9096.72  94.0486
 32.8756  9226.66  94.4471
 32.9176  8897.34  93.216
 32.9596  8936.44  93.5041
 33.0016  9028.36  93.7743
 33.0436  9106.67  94.3603
 33.0856  9010.96  93.9243
 33.1276  8870.8  92.9189
 33.1696  9124.05  94.0875
 33.2116  9163.98  94.5188
 33.2536  8981.9  93.5776
 33.2956  9042.82  93.9823
 33.3376  8981.86  93.406
 33.3796  9052.51  93.972
 33.4216  8991.19  93.2584
 33.4636  9069.13  93.8069
 33.5056  8925.76  93.3024
 33.5476  8913.77  93.2284
 33.5896  9025.72  93.5833
 33.6316  8942.39  93.4692
 33.6736  8854.47  93.2539
 33.7156  8839.47  93.2198
 33.7576  9015.74  93.7699
 33.7996  9023.67  93.583
 33.8416  8707.66  92.1042
 33.8836  8949.88  93.1515
 33.9256  8807.56  92.4666
 33.9676  8847.72  92.5725
 34.0096  8793.33  92.6015
 34.0516  8812.14  92.3447
 34.0936  8733.82  92.1932
 34.1356  8879.36  92.6993
 34.1776  8764.09  92.1133
 34.2196  8789.44  92.4234
 34.2616  8745.9  92.3271
 34.3036  8740.6  92.5496
 34.3456  8764.37  92.4327
 34.3876  8775.84  92.4461
 34.4296  8659.52  91.5205
 34.4716  8916.1  93.0255
 34.5136  8794.12  92.5978
 34.5556  8681.82  92.2574
 34.5976  8840.75  92.893
 34.6396  8653.76  91.7451
 34.6816  8681.89  91.8768
 34.7236  8664.51  91.5761
 34.7656  8771.2  92.3326
 34.8076  8622.33  91.8673
 34.8496  8612.01  91.7493
 34.8916  8548.32  91.2104
 34.9336  8748.09  92.229
 34.9756  8727.74  92.0455
 35.0176  8818.68  93.0535
 35.0596  8584.11  91.6275
 35.1016  8673.98  91.882
 35.1436  8652.19  91.4473
 35.1856  8584.19  91.2195
 35.2276  8607.78  91.5231
 35.2696  8595.96  91.6424
 35.3116  8564.68  91.579
 35.3536  8496.41  90.92
 35.3956  8535.04  90.8318
 35.4376  8496.44  91.1777
 35.4796  8690.52  92.2781
 35.5216  8485  91.1444
 35.5636  8350.16  91.1563
 35.6056  8647.73  91.7761
 35.6476  8565.63  91.2289
 35.6896  8615.54  91.5803
 35.7316  8447.1  90.6557
 35.7736  8422.92  90.7286
 35.8156  8447.78  90.8593
 35.8576  8474.92  91.2633
 35.8996  8514.01  91.4387
 35.9416  8423.99  90.4582
 35.9836  8469.5  91.0514
 36.0256  8547.63  91.4886
 36.0676  8589.05  91.4639
 36.1096  8363.18  90.3919
 36.1516  8473.83  90.875
 36.1936  8424.99  90.4653
 36.2356  8428.24  91.125
 36.2776  8474.71  90.8571
 36.3196  8485.9  90.5786
 36.3616  8443.39  90.4788
 36.4036  8436.18  90.499
 36.4456  8380.42  90.4067
 36.4876  8250.17  89.6473
 36.5296  8403.59  90.5171
 36.5716  8322.75  90.8645
 36.6136  8452.82  90.3409
 36.6556  8567.33  91.1615
 36.6976  8326.44  90.3639
 36.7396  8285.81  90.0436
 36.7816  8450.68  91.1429
 36.8236  8290.81  90.1864
 36.8656  8361.05  90.6542
 36.9076  8369.64  90.5711
 36.9496  8296.52  90.1717
 36.9916  8332.87  89.992
 37.0336  8517.73  91.3088
 37.0756  8482.77  90.9058
 37.1176  8161.66  89.4371
 37.1596  8381.47  90.6376
 37.2016  8372.93  90.8184
 37.2436  8267.78  89.5635
 37.2856  8196.08  89.4255
 37.3276  8430.86  90.0409
 37.3696  8210.84  89.7457
 37.4116  8251.98  89.884
 37.4536  8194.64  89.2782
 37.4956  8183.69  89.4227
 37.5376  8311.76  91.6688
 37.5796  8183.72  90.9223
 37.6216  8136.39  88.9248
 37.6636  8116.71  88.715
 37.7056  8263.09  89.7089
 37.7476  8242.46  89.1282
 37.7896  8049.17  88.5876
 37.8316  8006.22  88.5071
 37.8736  8332.66  89.8263
 37.9156  8174.95  88.9644
 37.9576  8191.68  88.9359
 37.9996  8077.4  88.0378
 38.0416  8052.74  88.7165
 38.0836  8222.85  89.5553
 38.1256  8170.43  89.2284
 38.1676  8149.25  89.2504
 38.2096  8069.79  88.4304
 38.2516  8231.38  89.5265
 38.2936  7979.89  87.9356
 38.3356  8322.19  89.7317
 38.3776  8038.71  88.4597
 38.4196  8182.08  89.1042
 38.4616  8100.28  88.8792
 38.5036  8093.68  88.6941
 38.5456  8052.78  89.3096
 38.5876  8034.13  89.4053
 38.6296  7977.22  87.8827
 38.6716  7966.14  87.6139
 38.7136  7735.62  86.2796
 38.7556  7934.69  87.8877
 38.7976  8074.4  88.5959
 38.8396  7965.96  88.2575
 38.8816  7890.99  87.8108
 38.9236  7893.14  87.6391
 38.9656  7990.79  88.0923
 39.0076  7969.82  87.3829
 39.0496  7947.54  87.7988
 39.0916  7962.62  87.5285
 39.1336  7913.14  87.6723
 39.1756  7937.28  87.8714
 39.2176  7939.07  88.4145
 39.2596  7984.34  88.5859
 39.3016  7853.92  87.3645
 39.3436  7921.54  88.2362
 39.3856  7900.41  87.5678
 39.4276  8022.72  88.7313
 39.4696  7949.01  87.9572
 39.5116  7811.11  87.7009
 39.5536  8075.26  89.6161
 39.5956  8005.87  88.3219
 39.6376  8012.91  88.3729
 39.6796  7948.79  87.7512
 39.7216  8011.32  88.2009
 39.7636  7976.62  88.5772
 39.8056  8053.65  88.7799
 39.8476  7857.02  87.9319
 39.8896  7948.28  88.0766
 39.9316  7870.8  87.9024
 39.9736  8058.05  88.5926
 40.0156  8059.03  88.3378
 40.0576  7913.89  87.8932
 40.0996  8036.13  87.7567
 40.1416  8030.42  88.5216
 40.1836  8058.41  88.5602
 40.2256  7952.13  88.0236
 40.2676  7971.11  88.2359
 40.3096  8012.18  88.3879
 40.3516  8091.52  88.9289
 40.3936  8070.55  88.3729
 40.4356  8034.63  88.3657
 40.4776  8033.09  88.7769
 40.5196  8125.18  89.3299
 40.5616  8118.07  89.0077
 40.6036  8032.85  88.7985
 40.6456  8107.99  88.819
 40.6876  8017.02  88.3062
 40.7296  8080.24  88.6795
 40.7716  8061.76  88.8192
 40.8136  7975.36  88.2827
 40.8556  8109.14  89.1532
 40.8976  8152.34  89.3097
 40.9396  7961.06  88.6077
 40.9816  8059.45  88.4348
 41.0236  8157.81  88.7574
 41.0656  8105.17  89.0105
 41.1076  8116.19  88.841
 41.1496  8005.32  88.1397
 41.1916  8017.22  88.525
 41.2336  8041.76  88.6472
 41.2756  8025.08  88.1656
 41.3176  7974.47  88.4961
 41.3596  8050.55  88.644
 41.4016  8001.32  88.6403
 41.4436  8031.98  88.5965
 41.4856  8127.52  89.2892
 41.5276  8021.66  88.72
 41.5696  8058.29  88.5514
 41.6116  7953.86  88.3709
 41.6536  7976.97  88.3598
 41.6956  7936.54  88.1852
 41.7376  7947.94  88.2844
 41.7796  7964.19  88.2576
 41.8216  7995.02  88.6621
 41.8636  7993.31  88.5946
 41.9056  7920.8  87.9763
 41.9476  7951.7  88.2743
 41.9896  7942.88  87.993
 42.0316  8020.2  88.5095
 42.0736  7959.25  88.28
 42.1156  7907.94  87.8378
 42.1576  7942  88.1097
 42.1996  8050.75  88.8733
 42.2416  7960.03  87.948
 42.2836  7883.57  87.6384
 42.3256  7969.74  88.2317
 42.3676  7903.14  87.6643
 42.4096  7903.59  87.6275
 42.4516  7867.4  87.5163
 42.4936  7934.11  87.9582
 42.5356  7946.3  88.1598
 42.5776  7947.34  88.0991
 42.6196  7967.3  88.2677
 42.6616  7820  87.6146
 42.7036  7955.57  87.7561
 42.7456  7878.09  87.6819
 42.7876  7759.62  87.1294
 42.8296  7966.98  88.1075
 42.8716  7857.78  87.6632
 42.9136  7841.78  87.3671
 42.9556  7864.26  87.625
 42.9976  7898.73  87.7729
 43.0396  7868.83  87.3388
 43.0816  7857.22  87.6532
 43.1236  7777.25  87.2701
 43.1656  7784.84  87.1404
 43.2076  7786.83  87.2549
 43.2496  7856.01  87.4571
 43.2916  7737.02  87.1579
 43.3336  7798.94  87.3398
 43.3756  7804.89  87.125
 43.4176  7674.94  86.4837
 43.4596  7783.9  86.9499
 43.5016  7710.81  86.9436
 43.5436  7758.34  87.1104
 43.5856  7750.67  87.0999
 43.6276  7795.73  87.2412
 43.6696  7711.51  87.0334
 43.7116  7887.56  87.5099
 43.7536  7817.82  87.6061
 43.7956  7583.31  87.4614
 43.8376  7741.84  86.9166
 43.8796  7688.19  86.7035
 43.9216  7805.82  87.2842
 43.9636  7687.63  86.7344
 44.0056  7562.8  86.2519
 44.0476  7698.17  86.6539
 44.0896  7567.57  86.2527
 44.1316  7695.83  86.501
 44.1736  7619.5  86.1864
 44.2156  7677.34  86.3619
 44.2576  7578.15  86.142
 44.2996  7733.2  86.975
 44.3416  7719.98  86.6778
 44.3836  7528.66  85.9194
 44.4256  7646.17  86.2341
 44.4676  7474.98  85.4133
 44.5096  7698.9  86.8296
 44.5516  7539.56  85.8934
 44.5936  7404.02  85.0664
 44.6356  7604.08  85.9467
 44.6776  7576.54  86.0296
 44.7196  7535.1  86.1807
 44.7616  7559.46  87.6385
 44.8036  7425.94  85.3086
 44.8456  7599.58  86.5036
 44.8876  7440.7  85.4441
 44.9296  7640.92  86.0351
 44.9716  7553.21  85.9552
 45.0136  7452.29  85.3301
 45.0556  7525.91  85.7183
 45.0976  7525.26  85.8785
 45.1396  7295.78  84.3335
 45.1816  7414  84.9509
 45.2236  7547.54  85.6034
 45.2656  7372.93  85.1135
 45.3076  7492.47  85.5709
 45.3496  7440.49  85.5903
 45.3916  7278.28  84.909
 45.4336  7434.08  85.6499
 45.4756  7323.64  84.8685
 45.5176  7453.11  85.234
 45.5596  7465.09  85.4275
 45.6016  7426.59  85.6244
 45.6436  7462.01  85.0102
 45.6856  7419.12  85.4199
 45.7276  7268.94  85.8549
 45.7696  7310.74  85.7696
 45.8116  7361.48  85.4997
 45.8536  7361.71  85.3959
 45.8956  7391.47  84.9227
 45.9376  7379.13  84.3155
 45.9796  7356.92  84.8687
 46.0216  7354.58  85.2023
 46.0636  7490.76  85.1286
 46.1056  7414.54  84.6776
 46.1476  7373.26  85.0319
 46.1896  7392.48  85.2903
 46.2316  7250.03  84.3418
 46.2736  7197.2  84.3919
 46.3156  7386.98  85.0851
 46.3576  7296.4  84.7639
 46.3996  7331.15  85.1186
 46.4416  7354.53  84.8397
 46.4836  7197.06  84.275
 46.5256  7262.65  84.6018
 46.5676  7216.9  84.4449
 46.6096  7356.88  85.1996
 46.6516  7341.85  84.148
 46.6936  7217.96  83.9229
 46.7356  7449.01  85.3538
 46.7776  7332.68  85.541
 46.8196  7261.46  84.7208
 46.8616  7083.75  83.6401
 46.9036  7158.25  83.7287
 46.9456  7122.16  83.173
 46.9876  7269.78  84.1056
 47.0296  7192.08  84.3451
 47.0716  7150.54  83.9196
 47.1136  7117.42  83.3998
 47.1556  7121.95  83.3023
 47.1976  7322.19  84.5427
 47.2396  7044.76  83.322
 47.2816  7097.05  83.3317
 47.3236  7131.07  83.8976
 47.3656  7244.8  84.4947
 47.4076  7193.86  84.01
 47.4496  7128.51  83.7031
 47.4916  7028.94  83.3179
 47.5336  7185.78  84.0526
 47.5756  7232.39  84.4447
 47.6176  7147.83  83.8502
 47.6596  7053.59  83.0113
 47.7016  7205.73  83.7158
 47.7436  7090.51  83.3775
 47.7856  7154.15  83.7795
 47.8276  7126.46  83.668
 47.8696  7039.08  83.2316
 47.9116  7109.59  83.3684
 47.9536  7123.38  83.3974
 47.9956  6961.35  83.1346
 48.0376  7015.58  83.2277
 48.0796  7143.27  84.1129
 48.1216  7213.28  84.3413
 48.1636  7165.38  83.6364
 48.2056  7227.69  84.2699
 48.2476  7073.82  83.6699
 48.2896  7044.24  83.4122
 48.3316  7060.9  83.4523
 48.3736  7009.22  83.1662
 48.4156  6968.75  82.7842
 48.4576  7075.78  83.7054
 48.4996  7142.81  83.5546
 48.5416  7049.33  83.3249
 48.5836  7053.02  83.0267
 48.6256  7024.72  83.0677
 48.6676  7073.24  83.8656
 48.7096  7079.89  83.1802
 48.7516  6989.01  82.79
 48.7936  6902.37  82.3407
 48.8356  7049.56  83.2586
 48.8776  6968.27  83.3477
 48.9196  7086.34  83.416
 48.9616  6982.31  83.1825
 49.0036  6946.4  83.3093
 49.0456  6781.31  82.3005
 49.0876  6950.71  82.8712
 49.1296  6919.22  82.8389
 49.1716  6896.17  82.5719
 49.2136  6927.2  82.6852
 49.2556  6882.09  82.5496
 49.2976  6941.85  82.8656
 49.3396  6864.52  82.46
 49.3816  7088.25  83.222
 49.4236  6933.09  82.7301
 49.4656  6920.94  82.6402
 49.5076  6925.79  82.4497
 49.5496  6965.35  82.7496
 49.5916  6894.65  82.2457
 49.6336  6903.81  82.5106
 49.6756  7012.81  83.3913
 49.7176  6878.89  82.5262
 49.7596  6795.06  81.7952
 49.8016  7002.04  82.9574
 49.8436  6828.72  82.2145
 49.8856  6862.16  82.4142
 49.9276  6784.1  82.0453
 49.9696  6803.76  82.1458
 50.0116  6829.61  82.4403
 50.0536  6802.83  82.2223
 50.0956  6884.54  82.783
 50.1376  6840.32  82.2175
 50.1796  6764.25  82.0258
 50.2216  6817.7  82.3447
 50.2636  6756.75  81.5993
 50.3056  6646.68  81.0997
 50.3476  6763.13  81.8331
 50.3896  6756.88  81.7611
 50.4316  6714.47  81.3456
 50.4736  6808.64  82.1296
 50.5156  6849.77  82.3746
 50.5576  6883.42  82.3318
 50.5996  6761.68  81.9944
 50.6416  6801.72  82.0514
 50.6836  6736.66  81.7125
 50.7256  6818.33  82.1351
 50.7676  6743.08  81.9774
 50.8096  6755.37  81.607
 50.8516  6724.45  81.8384
 50.8936  6717.32  81.5795
 50.9356  6704.33  81.6017
 50.9776  6693.51  81.6862
 51.0196  6715.79  81.9562
 51.0616  6711.61  81.2547
 51.1036  6821.22  82.275
 51.1456  6653.8  81.1684
 51.1876  6715.21  80.8971
 51.2296  6614.87  81.0272
 51.2716  6628.39  80.7067
 51.3136  6629.51  81.1626
 51.3556  6656.81  80.9645
 51.3976  6713.29  81.4547
 51.4396  6527.87  80.618
 51.4816  6531.41  80.4991
 51.5236  6640.81  81.2732
 51.5656  6600.74  80.6167
 51.6076  6585.07  80.5962
 51.6496  6594.2  80.8526
 51.6916  6459.97  80.3655
 51.7336  6610.78  81.398
 51.7756  6638.18  81.2606
 51.8176  6519.71  80.6363
 51.8596  6555.74  80.8769
 51.9016  6720.35  81.4944
 51.9436  6516.72  81.6773
 51.9856  6451.97  81.696
 52.0276  6727.57  81.9342
 52.0696  6617.74  81.3232
 52.1116  6604.57  81.3675
 52.1536  6511.12  80.6681
 52.1956  6607.18  80.7381
 52.2376  6667.74  81.2642
 52.2796  6568.25  80.4637
 52.3216  6458  80.4848
 52.3636  6580.45  80.8227
 52.4056  6506.51  80.2207
 52.4476  6551.89  80.8702
 52.4896  6399.97  79.9772
 52.5316  6525.84  80.7998
 52.5736  6526.99  80.5433
 52.6156  6521.47  80.8718
 52.6576  6633.03  81.0223
 52.6996  6341.44  80.1659
 52.7416  6528.77  81.1915
 52.7836  6431.71  80.4737
 52.8256  6551.11  80.45
 52.8676  6363.2  79.855
 52.9096  6543.57  81.0568
 52.9516  6551.67  81.477
 52.9936  6382.14  80.7985
 53.0356  6385.47  79.826
 53.0776  6402.62  80.1897
 53.1196  6349.31  79.9833
 53.1616  6367.06  80.1422
 53.2036  6411.39  80.3759
 53.2456  6266.13  79.5554
 53.2876  6343.6  79.758
 53.3296  6346.38  80.0989
 53.3716  6412.3  80.2552
 53.4136  6318.64  79.818
 53.4556  6302.45  79.7458
 53.4976  6310.63  79.649
 53.5396  6291.3  79.9165
 53.5816  6322.47  79.7452
 53.6236  6267.42  79.6673
 53.6656  6303.17  79.6013
 53.7076  6424.99  80.3263
 53.7496  6386.35  80.2006
 53.7916  6461  80.7998
 53.8336  6279.46  79.5529
 53.8756  6276.79  80.0832
 53.9176  6267.66  79.3748
 53.9596  6330.81  80.5514
 54.0016  6308  79.7334
 54.0436  6312.41  79.9865
 54.0856  6430.82  80.1537
 54.1276  6310.94  79.5985
 54.1696  6241.36  79.3321
 54.2116  6285.52  79.3671
 54.2536  6309.61  79.3377
 54.2956  6378.6  79.7574
 54.3376  6285.78  79.7154
 54.3796  6261.98  79.4632
 54.4216  6408.94  80.4335
 54.4636  6288.4  79.6924
 54.5056  6341.02  79.7931
 54.5476  6274.59  79.7029
 54.5896  6323.31  79.8493
 54.6316  6377.17  80.0426
 54.6736  6344.69  79.9135
 54.7156  6329.71  79.8386
 54.7576  6205.27  79.0472
 54.7996  6364.94  80.1941
 54.8416  6340.25  79.9975
 54.8836  6159.42  79.0486
 54.9256  6145.22  78.709
 54.9676  6287.15  79.4719
 55.0096  6320.33  79.7471
 55.0516  6220.57  79.3529
 55.0936  6246.11  79.14
 55.1356  6253.42  79.2351
 55.1776  6278.58  79.6595
 55.2196  6297.08  79.6184
 55.2616  6218.15  79.2713
 55.3036  6258.68  79.6826
 55.3456  6254.64  79.8153
 55.3876  6193.48  79.1673
 55.4296  6333.27  80.0763
 55.4716  6199.97  79.2221
 55.5136  6337.75  79.8518
 55.5556  6190.74  78.9888
 55.5976  6185.25  79.0033
 55.6396  6136  78.6422
 55.6816  6147.32  78.5988
 55.7236  6235.66  79.1982
 55.7656  6364.3  79.7659
 55.8076  6329.3  79.5344
 55.8496  6245.44  79.324
 55.8916  6264.77  79.6523
 55.9336  6138.76  78.6633
 55.9756  6198.12  78.9337
 56.0176  6181.62  78.9805
 56.0596  6210.56  79.1475
 56.1016  6212.43  79.1819
 56.1436  6146  79.0054
 56.1856  6260.62  79.485
 56.2276  6175.8  78.993
 56.2696  6160.47  78.8965
 56.3116  6148.92  79.1957
 56.3536  6158.73  78.9236
 56.3956  6233.97  79.3945
 56.4376  6229.95  79.398
 56.4796  6297.43  79.6337
 56.5216  6181.05  79.2686
 56.5636  6295.04  79.5843
 56.6056  6138.64  78.8129
 56.6476  6183.11  78.732
 56.6896  6211.48  79.3563
 56.7316  6227.51  79.3743
 56.7736  6202.36  79.2015
 56.8156  6241.42  79.4548
 56.8576  6167.67  78.9258
 56.8996  6127.89  78.6109
 56.9416  6180.74  79.2446
 56.9836  6056.16  77.9623
 57.0256  6171.03  79.0189
 57.0676  6151.48  79.0134
 57.1096  6265.54  79.5339
 57.1516  6165.78  78.9672
 57.1936  6152.04  78.6203
 57.2356  6137.37  78.8473
 57.2776  6155.89  78.9192
 57.3196  6193.94  79.3224
 57.3616  6195.11  79.0334
 57.4036  6191.53  79.0733
 57.4456  6127.04  78.6207
 57.4876  6145.79  78.6061
 57.5296  6112.39  78.7304
 57.5716  6161.83  79.0391
 57.6136  6158.5  78.8388
 57.6556  6199.17  79.2281
 57.6976  6204.37  78.9908
 57.7396  6077.3  78.6484
 57.7816  6080.26  79.0277
 57.8236  6062.54  78.7047
 57.8656  6184.88  79.1459
 57.9076  6142.6  78.9085
 57.9496  6110.62  79.0539
 57.9916  6166.81  78.9238
 58.0336  6136.11  79.0055
 58.0756  6133.46  78.6196
 58.1176  6144.99  78.6907
 58.1596  6081.12  78.848
 58.2016  6165.18  78.624
 58.2436  6133.34  78.8328
 58.2856  6213.38  79.2677
 58.3276  6160.87  79.3016
 58.3696  6186.61  79.2134
 58.4116  6165.45  78.9437
 58.4536  6098.27  78.3927
 58.4956  6026.86  78.1191
 58.5376  6164.61  78.6917
 58.5796  6163.5  78.9957
 58.6216  6148.33  78.7091
 58.6636  6244.03  79.5428
 58.7056  6109.64  78.5345
 58.7476  6069.63  78.7226
 58.7896  6050.81  78.2384
 58.8316  6264.37  79.7179
 58.8736  6114.93  78.6645
 58.9156  6094.52  78.5716
 58.9576  6253.61  79.9037
 58.9996  6257.84  79.1653
 59.0416  6204.38  79.2117
 59.0836  6153.49  78.8012
 59.1256  6055.1  78.8747
 59.1676  6125.33  79.6425
 59.2096  6267.62  79.8705
 59.2516  6237.75  79.2542
 59.2936  6267.39  79.7765
 59.3356  6109.05  78.6393
 59.3776  6300.27  80.0333
 59.4196  6187.49  79.2478
 59.4616  6211.51  79.2605
 59.5036  6168.88  79.0222
 59.5456  6336.57  79.7765
 59.5876  6358.14  80.1083
 59.6296  6035.08  78.1158
 59.6716  6072.59  78.4163
 59.7136  6215.79  79.3236
 59.7556  6195.13  79.3299
 59.7976  6167.7  78.8934
 59.8396  6332.62  79.8329
 59.8816  6166.87  79.3329
 59.9236  6300.03  79.8204
 59.9656  6121.01  78.9408
 60.0076  6177.19  78.652
 60.0496  6180.97  79.1814
 60.0916  6173.59  78.5502
 60.1336  6176.48  79.6886
 60.1756  6112.05  80.4636
 60.1996  0.0000000E+00  0.0000000E+00