File: docs/examples/XRD/IS17_D/Data/IS17_D/17_Db_f00059.xye
# /beamlines/bl04/projects/cycle2025-II/20250340211-lsimonelli/DATA/IS17_D/17_Db_f00059.xye : mythproc.py merge -s 0.006 -l 0.5 -f /beamlines/bl04/inhouse/ff/FlatField/ff_20Nov2024rod8mm60s_17keV.raw -b True -c true -o xye /beamlines/bl04/projects/cycle2025-II/20250340211-lsimonelli/DATA/IS17_D/17_Db_00059.dat
# IsMon = [6761325, 6764537, 6763245]  IsPos = [-1.4999, -2.4885, -3.4988]
# Wave = 0.4962  CalPath /beamlines/bl04/projects/cycle2025-II/20250340211-lsimonelli/DATA/Align/Si_Pos1_25keV_f00001.cal
# Date = 2025-09-24_10:06:42 Dt = 4.8000  Bin = 0.0060  <imon> = 6763036 +/- 1320 (Min/Max) 6761325 / 6764537
# icurr 250.9789  mocoIn 1.7123E-05  mocoOut 0.8034  i15 7.08812e+06  imon 6.76304e+06  i7 5.3333  iEMpd_timer 4.8000  iEMpd_1 3.5061E-08  iEMpd_2 7.9142E-08  iEMpd_3 1.6385E-08  iEMpd_4 4.7564E-08  iEMhp_timer 4.8000  iEMhp_1 4.9042E-06  iEMhp_2 -2.6824E-08  iEMhp_3 -2.4326E-08  iEMhp_4 -2.2877E-08
#      9776
 1.5856  43734.4  214.768
 1.6276  51074.9  228.11
 1.6696  57239.6  240.633
 1.7116  64392.3  255.725
 1.7536  72017  269.289
 1.7956  76024.8  277.372
 1.8376  73431.5  273.032
 1.8796  62600.5  250.24
 1.9216  52166.9  229.346
 1.9636  44682.5  211.388
 2.0056  40943.5  201.565
 2.0476  38200.7  196.831
 2.0896  37211.3  193.127
 2.1316  35744.5  188.372
 2.1736  34051.1  185.314
 2.2156  34236.3  184.326
 2.2576  33100.2  181.892
 2.2996  32205.8  180.076
 2.3416  32270.3  178.818
 2.3836  31750  177.479
 2.4256  30281.6  173.892
 2.4676  29889.4  172.517
 2.5096  29641.9  171.857
 2.5516  28667.9  172.865
 2.5936  28592.1  169.173
 2.6356  27851.7  167.677
 2.6776  27867.6  166.619
 2.7196  27394.8  165.686
 2.7616  27282.7  165.14
 2.8036  27017.9  164.5
 2.8456  27020.1  165.154
 2.8876  26576.9  163.608
 2.9296  26103.3  162.322
 2.9716  25792.3  160.839
 3.0136  25444.6  159.82
 3.0556  25593.8  160.684
 3.0976  25583.2  159.541
 3.1396  25274.9  159.315
 3.1816  24927.4  158.156
 3.2236  24677.7  157.345
 3.2656  24646.5  156.287
 3.3076  24549.4  157.459
 3.3496  24972.7  157.97
 3.3916  25148.8  158.101
 3.4336  25564.9  159.985
 3.4756  25684.5  160.313
 3.5176  26421.8  162.36
 3.5596  26197.3  164.136
 3.6016  26498.5  162.661
 3.6436  25436.8  160.48
 3.6856  25088.8  157.682
 3.7276  24258.7  156.131
 3.7696  24059.1  155.679
 3.8116  23820.4  154.802
 3.8536  23921.9  155.065
 3.8956  23719.8  154.223
 3.9376  23539.2  153.903
 3.9796  23424.5  153.021
 4.0216  23591.7  152.589
 4.0636  23703.2  154.432
 4.1056  23572.1  153.652
 4.1476  23864.3  154.921
 4.1896  24026.7  155.301
 4.2316  24240.6  155.819
 4.2736  24532  156.55
 4.3156  24612.4  157.038
 4.3576  25341.3  159.251
 4.3996  25592.5  160.304
 4.4416  26275.4  162.021
 4.4836  26676.9  163.411
 4.5256  27043.8  165.152
 4.5676  27023.9  165.338
 4.6096  27664.5  165.936
 4.6516  27911.3  166.366
 4.6936  27882.8  167.113
 4.7356  28011.5  167.323
 4.7776  28074.7  167.336
 4.8196  27985.7  167.728
 4.8616  27276.9  165.211
 4.9036  27285.4  164.829
 4.9456  26948.8  164.469
 4.9876  26257.8  162.248
 5.0296  26687.8  163.404
 5.0716  26508.4  163.472
 5.1136  26792.3  164.211
 5.1556  26881.2  163.935
 5.1976  27490.1  165.78
 5.2396  27544.2  165.631
 5.2816  27534.5  166.076
 5.3236  27476.5  165.598
 5.3656  27000.8  165.091
 5.4076  26634.2  164.099
 5.4496  26610.2  163.527
 5.4916  26907.9  164.187
 5.5336  26895.4  164.161
 5.5756  26967.1  164.394
 5.6176  27118.1  164.293
 5.6596  27349.8  165.989
 5.7016  27249.9  164.941
 5.7436  27349.3  165.521
 5.7856  27179.4  165.072
 5.8276  27505.6  165.771
 5.8696  27701  166.534
 5.9116  27710.6  167.168
 5.9536  28264.4  168.571
 5.9956  28152.9  167.624
 6.0376  28343.8  168.813
 6.0796  28588.3  169.371
 6.1216  28369.9  168.916
 6.1636  28645.6  168.788
 6.2056  28439.3  168.862
 6.2476  28723.3  169.572
 6.2896  29240.1  170.773
 6.3316  29230.2  170.913
 6.3736  29186.1  170.677
 6.4156  29291.8  170.872
 6.4576  29211.5  170.257
 6.4996  29267.4  170.897
 6.5416  29409.2  171.445
 6.5836  29459.2  171.819
 6.6256  29737.9  172.194
 6.6676  29869.4  172.137
 6.7096  30286.5  174.207
 6.7516  30464.7  174.37
 6.7936  30544.3  173.999
 6.8356  30568.3  174.167
 6.8776  30695.3  175.324
 6.9196  30934.5  176.411
 6.9616  31203.5  176.588
 7.0036  31898.1  178.225
 7.0456  31739.1  177.084
 7.0876  31724.4  178.728
 7.1296  31624.9  177.571
 7.1716  31623.1  177.124
 7.2136  31644.5  176.954
 7.2556  31861  177.711
 7.2976  31735.2  177.857
 7.3396  31484.5  177.373
 7.3816  31485.7  177.602
 7.4236  31784.9  177.729
 7.4656  32093.8  178.051
 7.5076  32160.7  178.39
 7.5496  32125.5  178.827
 7.5916  32391.8  179.618
 7.6336  32648.5  180.218
 7.6756  32894.3  180.742
 7.7176  33233.9  181.995
 7.7596  33245.1  183.265
 7.8016  33692.9  186.736
 7.8436  33717.3  183.42
 7.8856  33606  182.74
 7.9276  34024.7  184.269
 7.9696  34166.1  184.956
 8.0116  35373.3  186.742
 8.0536  35305.6  186.812
 8.0956  35549.4  188.631
 8.1376  35929.7  189.113
 8.1796  36140.4  190.2
 8.2216  36743.6  190.53
 8.2636  36921  191.238
 8.3056  36662.1  191.336
 8.3476  37542.6  192.933
 8.3896  37053.6  191.76
 8.4316  37422.3  192.88
 8.4736  37372.7  192.221
 8.5156  37208.2  192.074
 8.5576  36894.6  192.229
 8.5996  36969.3  191.303
 8.6416  36714  191.892
 8.6836  36369.6  190.83
 8.7256  36979.6  191.865
 8.7676  36889.2  194.568
 8.8096  37105.6  192.438
 8.8516  36920.8  191.529
 8.8936  36882.4  191.382
 8.9356  37271.9  192.724
 8.9776  37037.8  192.198
 9.0196  37287.5  192.517
 9.0616  36625.3  190.296
 9.1036  36200.9  190.362
 9.1456  36258.9  189.837
 9.1876  36475.9  190.352
 9.2296  36133.7  188.891
 9.2716  35689.3  187.765
 9.3136  36106.5  188.859
 9.3556  35938.6  188.394
 9.3976  34953.6  186.304
 9.4396  34863.3  185.979
 9.4816  34978.6  186.14
 9.5236  34650  185.166
 9.5656  34582  185.335
 9.6076  33654.2  183.356
 9.6496  33796.2  183.619
 9.6916  33493.6  182.758
 9.7336  33806.6  183.388
 9.7756  33537  184.009
 9.8176  33364.2  182.954
 9.8596  33642.1  182.142
 9.9016  32855.2  179.996
 9.9436  32823.8  179.815
 9.9856  32237.3  178.478
 10.0276  32214  179.498
 10.0696  32304.1  178.779
 10.1116  31353.7  176.395
 10.1536  31248.5  176.247
 10.1956  30657.5  174.195
 10.2376  30821.7  174.171
 10.2796  30535.3  173.463
 10.3216  30330.3  173.168
 10.3636  30230.7  172.909
 10.4056  29540.5  171.316
 10.4476  29717.5  171.447
 10.4896  30017.6  171.757
 10.5316  29113.5  169.877
 10.5736  29170.8  170.455
 10.6156  28943.8  169.55
 10.6576  28835.4  167.791
 10.6996  28525.4  167.591
 10.7416  28207.1  166.869
 10.7836  27979  166.852
 10.8256  27642.8  166.279
 10.8676  27527.7  165.475
 10.9096  27370.3  165.051
 10.9516  27119.9  163.229
 10.9936  27177.4  163.614
 11.0356  26914.9  163.426
 11.0776  26672.7  162.023
 11.1196  26318.9  161.708
 11.1616  25975.4  160.315
 11.2036  26217.7  160.913
 11.2456  26030.5  161.044
 11.2876  26535.5  162.335
 11.3296  25962.4  160.473
 11.3716  26374.8  161.434
 11.4136  26451.9  162.555
 11.4556  26492.5  162.338
 11.4976  27202.8  163.476
 11.5396  27245.7  163.776
 11.5816  26755.4  162.75
 11.6236  26226.2  161.581
 11.6656  26233  160.533
 11.7076  25458.4  158.97
 11.7496  25146.9  162.005
 11.7916  25116.2  157.151
 11.8336  24645.9  156.587
 11.8756  24623.4  156.047
 11.9176  24747  156.102
 11.9596  24819.8  156.512
 12.0016  24477.9  156.199
 12.0436  24712.1  156.392
 12.0856  24161.5  155.141
 12.1276  24330.1  155.628
 12.1696  24121.2  154.075
 12.2116  24205  154.341
 12.2536  24214.1  155.182
 12.2956  23870.3  153.429
 12.3376  24287.8  154.974
 12.3796  23909.5  154.244
 12.4216  23942.4  153.552
 12.4636  23711.5  153.739
 12.5056  23783.9  153.24
 12.5476  23960.8  153.324
 12.5896  23720.5  153.195
 12.6316  23882.4  153.87
 12.6736  23652.1  153.612
 12.7156  23975.8  154.504
 12.7576  23790.1  154.139
 12.7996  24138.1  153.916
 12.8416  23773.3  153.794
 12.8836  24049.9  154.512
 12.9256  24490.3  154.953
 12.9676  24369.7  154.963
 13.0096  24485.9  156.467
 13.0516  24575  155.776
 13.0936  24752.5  156.751
 13.1356  24676.8  155.467
 13.1776  24542.3  156.064
 13.2196  24450.5  155.406
 13.2616  24223.3  155
 13.3036  24386.5  155.49
 13.3456  24159.9  154.912
 13.3876  24720.2  156.179
 13.4296  24217.7  154.74
 13.4716  24563.6  155.47
 13.5136  24570.4  155.611
 13.5556  24406  155.723
 13.5976  24625.2  156.598
 13.6396  24504.1  155.566
 13.6816  24613.6  156.388
 13.7236  25128.4  157.591
 13.7656  26565.8  162.504
 13.8076  27158.4  162.942
 13.8496  26677.6  162.149
 13.8916  24881.9  157.762
 13.9336  24144.3  154.673
 13.9756  24133.2  154.018
 14.0176  23748.4  153.461
 14.0596  23920.3  153.945
 14.1016  23804.4  154.002
 14.1436  23867.5  153.326
 14.1856  23176  151.388
 14.2276  23005.5  151.313
 14.2696  23022.8  151.212
 14.3116  22663.6  149.937
 14.3536  22396  149.223
 14.3956  22368.8  148.854
 14.4376  22561.1  149.275
 14.4796  22566.4  149.293
 14.5216  22177.8  148.796
 14.5636  21936.9  147.548
 14.6056  22306.9  148.348
 14.6476  22050.9  146.73
 14.6896  21695.3  146.095
 14.7316  21277.8  145.716
 14.7736  21109.3  144.277
 14.8156  21186.2  144.568
 14.8576  21184.9  144.421
 14.8996  20597  143.593
 14.9416  20058.7  141.712
 14.9836  20335.2  142.675
 15.0256  19600.7  138.989
 15.0676  19720.6  139.725
 15.1096  19683.4  139.333
 15.1516  19201.7  138.165
 15.1936  19096.9  137.225
 15.2356  18753.4  136.26
 15.2776  18784.1  135.966
 15.3196  18552.8  136.109
 15.3616  18479.7  135.603
 15.4036  18553.7  135.738
 15.4456  18755.9  136.121
 15.4876  18382.7  134.447
 15.5296  18244.2  134.219
 15.5716  17955.5  132.764
 15.6136  18002.5  133.256
 15.6556  17853.2  131.958
 15.6976  17882.9  132.145
 15.7396  17809.1  132.475
 15.7816  17576.2  131.121
 15.8236  17433.1  131.274
 15.8656  17450.1  131.128
 15.9076  17235.3  130.145
 15.9496  18023.9  135.931
 15.9916  17605.9  134.752
 16.0336  17740.4  132.12
 16.0756  17486.5  131.499
 16.1176  17345.9  131.049
 16.1596  16875.2  130.426
 16.2016  16986  129.617
 16.2436  16796.9  129.27
 16.2856  17050  129.743
 16.3276  16741.7  129.004
 16.3696  16860.2  129.295
 16.4116  16775.7  129.414
 16.4536  16771.5  129.209
 16.4956  16921.7  129.521
 16.5376  16597.3  128.461
 16.5796  16462.1  127.303
 16.6216  16694.3  128.469
 16.6636  16472.1  127.795
 16.7056  16623.4  128.227
 16.7476  16672.1  127.961
 16.7896  16514.8  128.101
 16.8316  16413.5  127.682
 16.8736  16711.7  129.097
 16.9156  16483.6  128.547
 16.9576  16313.9  128.66
 16.9996  16198.8  128.689
 17.0416  16387.4  127.805
 17.0836  16414.2  127.673
 17.1256  16164.8  126.708
 17.1676  16343.5  127.354
 17.2096  16009.5  125.948
 17.2516  15911.6  125.352
 17.2936  16052.3  126.259
 17.3356  15742.6  125.019
 17.3776  15870.4  125.721
 17.4196  15645  124.517
 17.4616  15676.8  124.556
 17.5036  15273.8  123.31
 17.5456  15135.3  123.373
 17.5876  15470.1  123.781
 17.6296  15347.5  123.118
 17.6716  15300.7  123.51
 17.7136  15186.8  123.186
 17.7556  15033.2  122.848
 17.7976  14877.3  121.8
 17.8396  14896.4  121.526
 17.8816  14695.3  121.26
 17.9236  14837.2  121.635
 17.9656  14583.5  121.267
 18.0076  14687  121.13
 18.0496  14722.3  120.425
 18.0916  14711  120.924
 18.1336  14655.7  120.787
 18.1756  14796  120.916
 18.2176  14572.1  120.208
 18.2596  14466.3  119.498
 18.3016  14684.2  120.659
 18.3436  14817.7  121.446
 18.3856  14557.9  120.28
 18.4276  14512.9  119.776
 18.4696  14403  119.405
 18.5116  14623.8  120.588
 18.5536  14464.2  120.294
 18.5956  14239.8  118.92
 18.6376  14190.8  119.11
 18.6796  14341  119.062
 18.7216  14409.1  119.91
 18.7636  14218.4  119.039
 18.8056  14211.4  118.941
 18.8476  13851.9  118.04
 18.8896  14122.1  118.527
 18.9316  14107.6  118.285
 18.9736  14070.7  117.987
 19.0156  13945.7  117.882
 19.0576  14287.4  118.158
 19.0996  14243.2  118.698
 19.1416  14043  118.255
 19.1836  14082.8  118.025
 19.2256  13940.3  117.645
 19.2676  14083.6  118.334
 19.3096  13986.4  118.173
 19.3516  13819.2  117.426
 19.3936  13779.3  117.145
 19.4356  14082.6  118.312
 19.4776  13963.2  117.901
 19.5196  13963.1  117.754
 19.5616  13964.3  118.017
 19.6036  13842.3  116.998
 19.6456  13908.5  117.39
 19.6876  13741.3  116.326
 19.7296  14092.5  118.269
 19.7716  13895.4  117.466
 19.8136  14248.4  119.296
 19.8556  14377.5  119.31
 19.8976  14296.3  119.024
 19.9396  14643.2  120.048
 19.9816  14835.6  121.087
 20.0236  15078  122.266
 20.0656  14750.6  120.932
 20.1076  14420  120.058
 20.1496  14177.7  119.034
 20.1916  14000.6  117.813
 20.2336  13921.1  117.412
 20.2756  13747.2  117.098
 20.3176  13601.4  116.222
 20.3596  13477.6  115.679
 20.4016  13541.8  115.744
 20.4436  13459.2  115.972
 20.4856  13484.9  115.865
 20.5276  13387.2  115.907
 20.5696  13499.2  115.838
 20.6116  13278.6  115.168
 20.6536  13225.7  114.496
 20.6956  13169.6  114.331
 20.7376  13121.7  114.337
 20.7796  13192.2  114.334
 20.8216  13265  114.365
 20.8636  13272.4  114.774
 20.9056  13048.3  113.738
 20.9476  13151.1  114.03
 20.9896  13201.4  114.117
 21.0316  13184.3  113.939
 21.0736  13068.6  113.956
 21.1156  12923.2  113.479
 21.1576  13011  113.903
 21.1996  12965.2  113.69
 21.2416  13012  113.718
 21.2836  13013.2  113.695
 21.3256  13050.8  113.94
 21.3676  12890.5  112.781
 21.4096  12822.7  112.797
 21.4516  12794.3  112.555
 21.4936  12626.9  112.065
 21.5356  12957.8  113.473
 21.5776  12906.6  113.083
 21.6196  12664.8  112.056
 21.6616  12671  112.167
 21.7036  12771.9  112.392
 21.7456  12742.8  112.339
 21.7876  12662.1  111.741
 21.8296  12680.1  111.668
 21.8716  12683.6  111.909
 21.9136  12843.6  112.818
 21.9556  12699.9  111.857
 21.9976  12573.2  111.328
 22.0396  12552.8  111.491
 22.0816  12606.8  112.263
 22.1236  12706.2  112.161
 22.1656  12538.1  111.607
 22.2076  12443  110.585
 22.2496  12379.1  110.329
 22.2916  12297.6  109.853
 22.3336  12399.1  111.004
 22.3756  12229.7  109.987
 22.4176  12189.4  109.665
 22.4596  12056.9  109.645
 22.5016  12240.3  109.977
 22.5436  12385.6  110.51
 22.5856  12716.4  112.221
 22.6276  12634.4  111.992
 22.6696  12381.1  111.22
 22.7116  12367.8  110.665
 22.7536  12418.7  110.873
 22.7956  12240.9  109.421
 22.8376  12085.5  109.241
 22.8796  12313.1  110.064
 22.9216  12331.6  110.686
 22.9636  12311.1  109.755
 23.0056  12399.4  110.268
 23.0476  12425  110.966
 23.0896  12677.6  111.462
 23.1316  12434.8  110.821
 23.1736  12640.5  114.678
 23.2156  12724.5  112.443
 23.2576  12881.8  113.276
 23.2996  12514.3  111.423
 23.3416  12640.5  112.516
 23.3836  12619.4  111.65
 23.4256  12778.6  112.475
 23.4676  12647.8  111.584
 23.5096  12624.3  112.141
 23.5516  12554.1  111.131
 23.5936  12737.2  112.856
 23.6356  12725.5  112.463
 23.6776  12571.5  111.991
 23.7196  12376  110.697
 23.7616  12508.4  111.206
 23.8036  12877.3  112.891
 23.8456  12379  110.24
 23.8876  12435.9  110.854
 23.9296  12382.4  111.097
 23.9716  12352  110.166
 24.0136  12419.1  111.371
 24.0556  12210.1  110.147
 24.0976  12150.9  109.695
 24.1396  12090.5  112.024
 24.1816  12212.9  111.343
 24.2236  12330.1  111.165
 24.2656  12108.2  109.631
 24.3076  12001.2  109.416
 24.3496  12058.8  109.552
 24.3916  12082.1  109.712
 24.4336  12139.6  110.178
 24.4756  12116.7  109.959
 24.5176  11823.1  108.245
 24.5596  11867.9  108.564
 24.6016  11746.1  108.312
 24.6436  11776.1  107.961
 24.6856  11767.6  107.663
 24.7276  11631.4  107.357
 24.7696  11624.3  107.438
 24.8116  11544.6  107.236
 24.8536  11598  107.497
 24.8956  11577.5  107.136
 24.9376  11550.2  106.926
 24.9796  11367.4  106.45
 25.0216  11397.8  106.707
 25.0636  11436.1  106.537
 25.1056  11261.4  106.133
 25.1476  11256.8  108.041
 25.1896  11285.8  106.677
 25.2316  11305.5  106.044
 25.2736  11227  105.331
 25.3156  11163.7  105.104
 25.3576  11082.2  105.144
 25.3996  11213.6  105.76
 25.4416  11191.7  105.623
 25.4836  10976.9  105.126
 25.5256  11027.8  104.736
 25.5676  10996.2  104.307
 25.6096  10943.4  104.64
 25.6516  10973.4  104.285
 25.6936  11166.1  105.52
 25.7356  11014.7  104.93
 25.7776  10985.3  104.393
 25.8196  10809.1  103.791
 25.8616  10852.7  103.93
 25.9036  11089.3  104.512
 25.9456  10862.1  104.025
 25.9876  10780.3  103.691
 26.0296  11046.6  104.576
 26.0716  10901.2  104.224
 26.1136  10911.6  104.201
 26.1556  10968.6  103.858
 26.1976  10757.7  103.783
 26.2396  10789.6  103.337
 26.2816  10868.4  104.075
 26.3236  10847.7  104.126
 26.3656  10936.6  104.285
 26.4076  10892  104.268
 26.4496  11067.2  104.699
 26.4916  11149.2  104.966
 26.5336  11404.1  106.52
 26.5756  11638.4  107.486
 26.6176  10946  104.254
 26.6596  10948.8  104.58
 26.7016  10650.8  102.907
 26.7436  10839.5  103.946
 26.7856  10593.5  102.743
 26.8276  10647  102.98
 26.8696  10661.3  102.911
 26.9116  10602.1  102.569
 26.9536  10527.2  102.254
 26.9956  10493.6  102.124
 27.0376  10590.2  102.82
 27.0796  10559  102.466
 27.1216  10475.5  102.038
 27.1636  10443.1  102.055
 27.2056  10400.2  101.732
 27.2476  10473.5  102.076
 27.2896  10340.5  101.547
 27.3316  10230.9  100.712
 27.3736  10288.2  101.277
 27.4156  10360.8  101.476
 27.4576  10324  101.515
 27.4996  10398.2  101.49
 27.5416  10305.5  101.344
 27.5836  10180.1  100.558
 27.6256  10152.2  100.596
 27.6676  10214.3  100.895
 27.7096  10172.1  100.567
 27.7516  10216.4  100.93
 27.7936  10489.2  102.412
 27.8356  10389.4  101.53
 27.8776  10422.3  101.768
 27.9196  10198.5  100.529
 27.9616  10194.5  100.708
 28.0036  10084.1  100.125
 28.0456  9963.9  99.6601
 28.0876  10032.5  100.074
 28.1296  10037.2  99.9475
 28.1716  10083.7  100.197
 28.2136  9993.83  99.7159
 28.2556  10065.3  100.183
 28.2976  9963.7  99.6754
 28.3396  9899.04  99.1437
 28.3816  10011.3  99.6811
 28.4236  9874.48  99.1476
 28.4656  9907.15  99.3508
 28.5076  9957.43  99.2462
 28.5496  9910.58  99.2637
 28.5916  9952.03  99.2823
 28.6336  9878.45  99.2571
 28.6756  10012.6  99.1261
 28.7176  9869.54  98.9675
 28.7596  9865.71  98.8397
 28.8016  9851.63  98.8065
 28.8436  9738.02  98.4759
 28.8856  9863.99  98.9631
 28.9276  9838.65  99.0789
 28.9696  9667.93  97.8715
 29.0116  9646.72  97.9446
 29.0536  9648.87  98.1746
 29.0956  9741.26  98.3408
 29.1376  9627.51  97.7376
 29.1796  9711.52  98.2093
 29.2216  9731.52  98.1543
 29.2636  9744.08  98.2145
 29.3056  9664.52  97.6675
 29.3476  9713.25  98.4425
 29.3896  9662.25  98.3007
 29.4316  9561.32  97.1121
 29.4736  9355.1  96.1285
 29.5156  9536.47  96.9739
 29.5576  9350.8  96.7537
 29.5996  9438.18  96.4735
 29.6416  9470.6  96.7504
 29.6836  9454.91  96.6053
 29.7256  9477.17  97.2785
 29.7676  9301.12  96.0376
 29.8096  9397.14  96.4763
 29.8516  9300.1  96.3075
 29.8936  9292.5  96.3568
 29.9356  9442.17  96.8845
 29.9776  9383.3  96.7374
 30.0196  9296.39  95.6822
 30.0616  9300.3  96.0737
 30.1036  9339.03  96.0991
 30.1456  9210.44  95.6675
 30.1876  9279.11  95.9991
 30.2296  9225.59  95.6734
 30.2716  9322.55  95.815
 30.3136  9367.05  96.8907
 30.3556  9492.72  97.5523
 30.3976  9384.28  98.4817
 30.4396  9667.31  97.301
 30.4816  9651.47  96.8275
 30.5236  9617.68  96.6576
 30.5656  9539.15  96.922
 30.6076  9641.19  96.845
 30.6496  9486.8  96.4769
 30.6916  9330.2  95.7632
 30.7336  9529.64  96.9249
 30.7756  9514.17  96.9385
 30.8176  9574.18  97.1637
 30.8596  9614.85  97.1212
 30.9016  9385.89  96.3067
 30.9436  9507.56  96.6883
 30.9856  9546.48  97.0052
 31.0276  9403.84  95.9001
 31.0696  9292.78  95.8868
 31.1116  9276.09  95.7714
 31.1536  9328.48  95.9119
 31.1956  9375.51  96.2481
 31.2376  9086.41  94.7771
 31.2796  9230.97  95.0601
 31.3216  9429.5  96.0254
 31.3636  9340.17  96.2516
 31.4056  9318.6  97.4483
 31.4476  9413.29  95.8413
 31.4896  9303.11  95.7829
 31.5316  9350.06  95.464
 31.5736  9483.15  95.932
 31.6156  9364.03  95.3194
 31.6576  9435.25  95.7708
 31.6996  9417.19  95.3492
 31.7416  9136.23  94.9963
 31.7836  9231.31  94.5
 31.8256  9187.7  94.613
 31.8676  9381.8  95.5173
 31.9096  9161.23  94.7593
 31.9516  9154.09  94.8873
 31.9936  8978.76  93.7881
 32.0356  9155.03  94.7494
 32.0776  9328.3  95.5449
 32.1196  9238  95.1949
 32.1616  9275.67  94.8312
 32.2036  9177.14  94.8436
 32.2456  9095.55  94.7981
 32.2876  9163.87  94.4797
 32.3296  9062.8  94.0859
 32.3716  8926.28  93.4912
 32.4136  8950.64  93.824
 32.4556  9053.47  93.7979
 32.4976  9007.51  93.415
 32.5396  8974.09  93.3008
 32.5816  8992.1  93.5272
 32.6236  9092.75  94.1075
 32.6656  9013.04  94.2434
 32.7076  8987.34  93.7651
 32.7496  8973.12  93.3547
 32.7916  9021.15  93.5669
 32.8336  8966.93  93.3816
 32.8756  9076.58  93.6677
 32.9176  8913.34  93.3103
 32.9596  8882.39  93.2203
 33.0016  8897.86  93.0755
 33.0436  8899.24  93.2456
 33.0856  8831.18  92.9868
 33.1276  8769.25  92.3915
 33.1696  8954.1  93.1949
 33.2116  8949.43  93.4032
 33.2536  9069.3  94.0134
 33.2956  9072.87  94.1306
 33.3376  8806.67  92.471
 33.3796  8836.13  92.8483
 33.4216  8941.91  92.9814
 33.4636  9014.58  93.5209
 33.5056  8742.73  92.3448
 33.5476  8827.5  92.7662
 33.5896  8970.46  93.2861
 33.6316  8881.23  93.1477
 33.6736  8578.75  91.7998
 33.7156  8659.48  92.2598
 33.7576  8735.04  92.3088
 33.7996  8771.37  92.259
 33.8416  8642.92  91.7689
 33.8836  8687.62  91.7804
 33.9256  8780  92.3305
 33.9676  8765.84  92.148
 34.0096  8668.45  91.9451
 34.0516  8694.72  91.7232
 34.0936  8614.36  91.5712
 34.1356  8737.1  91.9576
 34.1776  8596.48  91.2075
 34.2196  8592.77  91.3818
 34.2616  8420.34  90.583
 34.3036  8595.74  91.7801
 34.3456  8743.69  92.3151
 34.3876  8679.21  91.9472
 34.4296  8596.83  91.1997
 34.4716  8651.46  91.6367
 34.5136  8540.21  91.2372
 34.5556  8529.14  91.4411
 34.5976  8637.3  91.8229
 34.6396  8730.98  92.0329
 34.6816  8606.08  91.4782
 34.7236  8574.91  91.0889
 34.7656  8553.12  91.1809
 34.8076  8522.16  91.3461
 34.8496  8483.41  90.9862
 34.8916  8578.81  91.3587
 34.9336  8496.24  90.9019
 34.9756  8537.43  91.0434
 35.0176  8618.57  92.0048
 35.0596  8731.33  92.4223
 35.1016  8577.28  91.3603
 35.1436  8801.44  92.2329
 35.1856  8581.08  91.1843
 35.2276  8519.09  91.0352
 35.2696  8534.52  91.3144
 35.3116  8503.75  91.2476
 35.3536  8465.54  90.7444
 35.3956  8409.99  90.1608
 35.4376  8491.68  91.1701
 35.4796  8456.52  91.0178
 35.5216  8373.05  90.5356
 35.5636  8268.43  90.7041
 35.6056  8436.47  90.6368
 35.6476  8448.95  90.6051
 35.6896  8542.84  91.2748
 35.7316  8364.27  90.2165
 35.7736  8333.04  90.23
 35.8156  8438.81  90.8054
 35.8576  8410.38  90.8952
 35.8996  8399.98  90.8182
 35.9416  8421.97  90.4448
 35.9836  8412.5  90.7201
 36.0256  8579.29  91.6298
 36.0676  8647.19  91.5152
 36.1096  8408.96  90.6267
 36.1516  8533.45  91.1866
 36.1936  8416.94  90.3846
 36.2356  8369.51  90.7979
 36.2776  8330.89  90.0661
 36.3196  8288.06  89.5018
 36.3616  8360.47  90.0192
 36.4036  8276.92  89.645
 36.4456  8388.7  90.4521
 36.4876  8313.01  89.9835
 36.5296  8292.83  89.9184
 36.5716  8115.98  89.7181
 36.6136  8319.66  89.6182
 36.6556  8107.49  88.6663
 36.6976  8099.84  89.1148
 36.7396  8126.17  88.992
 36.7816  8079.93  89.1109
 36.8236  8087.25  89.0747
 36.8656  8045.55  88.9048
 36.9076  7988.85  88.6059
 36.9496  8015.51  88.6181
 36.9916  8158.22  89.034
 37.0336  8164.53  89.3825
 37.0756  8079.56  88.7091
 37.1176  7890.96  87.9312
 37.1596  8021.08  88.6616
 37.2016  8050.11  88.9945
 37.2436  8024.04  88.2204
 37.2856  7961.78  88.1256
 37.3276  8099.64  88.2488
 37.3696  7981.09  88.4709
 37.4116  7967.04  88.305
 37.4536  7854.9  87.5475
 37.4956  7955.1  88.1556
 37.5376  7993.13  89.9329
 37.5796  8071.71  90.305
 37.6216  7948.69  87.9064
 37.6636  8086.43  88.5489
 37.7056  8082.6  88.7236
 37.7476  8248.07  89.1673
 37.7896  7953.69  88.0618
 37.8316  8086.75  88.956
 37.8736  8021.21  88.1202
 37.9156  8153.46  88.8395
 37.9576  8127.67  88.6094
 37.9996  7938.97  87.2858
 38.0416  8040.6  88.6509
 38.0836  8088.6  88.818
 38.1256  8004.4  88.3296
 38.1676  7957.86  88.1873
 38.2096  8164.92  88.9464
 38.2516  8139.81  89.0264
 38.2936  8221.2  89.2661
 38.3356  8023.25  88.1133
 38.3776  7918.59  87.7666
 38.4196  7970.79  87.9279
 38.4616  8061.97  88.6816
 38.5036  8051.97  88.4688
 38.5456  7966.17  88.8209
 38.5876  7874.35  88.326
 38.6296  8027.9  88.1508
 38.6716  8039.87  88.0185
 38.7136  7967.42  87.5673
 38.7556  7952.92  87.9933
 38.7976  8047.34  88.4417
 38.8396  7933.77  88.2763
 38.8816  7918.47  87.9864
 38.9236  7920.02  87.7964
 38.9656  7993.33  88.1099
 39.0076  7969.28  87.3758
 39.0496  8192.37  89.1594
 39.0916  8050.31  88.0227
 39.1336  8029.1  88.3144
 39.1756  8035.76  88.4181
 39.2176  7926.08  88.3406
 39.2596  7904  88.1489
 39.3016  7987.2  88.194
 39.3436  7882.33  88.0203
 39.3856  8036.92  88.3245
 39.4276  8141.24  89.409
 39.4696  7939.01  87.9132
 39.5116  8058.91  89.0936
 39.5536  8069.72  89.5675
 39.5956  7940.19  87.9494
 39.6376  7956.96  88.054
 39.6796  7909.95  87.5328
 39.7216  7840.76  87.2518
 39.7636  7967.74  88.5077
 39.8056  7898.35  87.9181
 39.8476  7888.15  88.1138
 39.8896  7971.66  88.2099
 39.9316  7875.74  87.9309
 39.9736  8016.11  88.276
 40.0156  7880.29  87.3584
 40.0576  7930.93  87.9917
 40.0996  8006.97  87.5874
 40.1416  7909.83  87.8543
 40.1836  8018.62  88.3448
 40.2256  7892.17  87.6787
 40.2676  7877.87  87.7066
 40.3096  7968.77  88.1387
 40.3516  7947.3  88.1276
 40.3936  8037.92  88.1897
 40.4356  7893.63  87.5937
 40.4776  8005.98  88.6182
 40.5196  8023.7  88.85
 40.5616  8089.25  88.8516
 40.6036  7919.02  88.1643
 40.6456  7980.28  88.1072
 40.6876  7981.14  88.1082
 40.7296  7830.49  87.4081
 40.7716  7874.83  87.7692
 40.8136  7855.93  87.6107
 40.8556  8022.78  88.6796
 40.8976  7930.53  88.0824
 40.9396  7918.83  88.3623
 40.9816  7968.28  87.9338
 41.0236  7896.39  87.3195
 41.0656  8071.09  88.8202
 41.1076  7949.16  87.9172
 41.1496  8037.86  88.3144
 41.1916  7894.9  87.8431
 41.2336  8040.19  88.6417
 41.2756  7999.97  88.0286
 41.3176  7973.66  88.4933
 41.3596  8043.84  88.6131
 41.4016  7833.74  87.7092
 41.4436  7950.28  88.1434
 41.4856  8001.32  88.5887
 41.5276  7872.86  87.8889
 41.5696  8017.86  88.3081
 41.6116  7977.31  88.494
 41.6536  7960.89  88.2556
 41.6956  8038.11  88.7475
 41.7376  7868.13  87.8267
 41.7796  7799.16  87.3695
 41.8216  7920.89  88.2429
 41.8636  7900.06  88.0695
 41.9056  7833.69  87.4959
 41.9476  7961.67  88.4387
 41.9896  8052.69  88.6103
 42.0316  7976.24  88.2706
 42.0736  7924.46  88.0903
 42.1156  7944.49  88.0292
 42.1576  7850.5  87.6111
 42.1996  7969.06  88.404
 42.2416  7893.54  87.575
 42.2836  7883.01  87.6313
 42.3256  7929.58  88.0014
 42.3676  8033.42  88.3766
 42.4096  8007.99  88.1938
 42.4516  8063.46  88.5873
 42.4936  7940.34  87.9843
 42.5356  7832.87  87.5246
 42.5776  7911.61  87.9073
 42.6196  7867.45  87.7098
 42.6616  7767.56  87.3258
 42.7036  7861.05  87.232
 42.7456  7894.38  87.7685
 42.7876  7805.05  87.3533
 42.8296  7888.72  87.6708
 42.8716  7759.3  87.1124
 42.9136  7798.43  87.1149
 42.9556  7929.65  87.9829
 42.9976  7855.68  87.5369
 43.0396  7804.89  86.9843
 43.0816  7758.9  87.1087
 43.1236  7774.34  87.252
 43.1656  7864.01  87.5674
 43.2076  7700.28  86.7703
 43.2496  7751.21  86.8741
 43.2916  7840.15  87.7327
 43.3336  7784.95  87.2465
 43.3756  7838.94  87.3156
 43.4176  7677.7  86.4884
 43.4596  7675.62  86.3333
 43.5016  7767.19  87.2431
 43.5436  7747.44  87.04
 43.5856  7649.49  86.5259
 43.6276  7743.87  86.9464
 43.6696  7730.21  87.0172
 43.7116  7740.29  86.6833
 43.7536  7821.66  87.6374
 43.7956  7651.05  87.8766
 43.8376  7585.94  86.0332
 43.8796  7600.2  86.1972
 43.9216  7539.7  85.7735
 43.9636  7541.85  85.8958
 44.0056  7538.76  86.105
 44.0476  7716.59  86.7442
 44.0896  7583.32  86.329
 44.1316  7529.16  85.6825
 44.1736  7613.03  86.1475
 44.2156  7591.17  85.8722
 44.2576  7590.98  86.2039
 44.2996  7553.16  85.9544
 44.3416  7594.49  85.9575
 44.3836  7425.5  85.3195
 44.4256  7477.36  85.2642
 44.4676  7446.33  85.2405
 44.5096  7620.03  86.3734
 44.5516  7473.96  85.5054
 44.5936  7438.55  85.2554
 44.6356  7511.64  85.4127
 44.6776  7539.01  85.8835
 44.7196  7541.92  86.2146
 44.7616  7588.16  87.8093
 44.8036  7529.89  85.9015
 44.8456  7686.18  86.9957
 44.8876  7670.36  86.7473
 44.9296  7738.14  86.578
 44.9716  7644.83  86.4729
 45.0136  7762.97  87.0871
 45.0556  7782.74  87.169
 45.0976  7590.9  86.248
 45.1396  7489.43  85.4175
 45.1816  7525.26  85.5712
 45.2236  7749.46  86.7414
 45.2656  7505.65  85.8657
 45.3076  7529.16  85.7762
 45.3496  7580.91  86.3776
 45.3916  7424.2  85.7554
 45.4336  7635.57  86.8093
 45.4756  7603.39  86.4749
 45.5176  7697.28  86.6264
 45.5596  7646.9  86.4557
 45.6016  7536.56  86.2519
 45.6436  7639.08  86.0114
 45.6856  7559.55  86.2236
 45.7276  7407.15  86.6728
 45.7696  7520.69  86.996
 45.8116  7498.24  86.2879
 45.8536  7398.18  85.6075
 45.8956  7570.26  85.9474
 45.9376  7633.14  85.7638
 45.9796  7673.75  86.7047
 46.0216  7629.85  86.7787
 46.0636  7605.71  85.7647
 46.1056  7585.82  85.6603
 46.1476  7504  85.7907
 46.1896  7575.43  86.3442
 46.2316  7490.17  85.7266
 46.2736  7551.74  86.4576
 46.3156  7589.42  86.2483
 46.3576  7522.47  86.0726
 46.3996  7596.96  86.6466
 46.4416  7513.76  85.7608
 46.4836  7355.86  85.2067
 46.5256  7571.34  86.387
 46.5676  7350.34  85.2303
 46.6096  7531.83  86.2072
 46.6516  7542.37  85.3023
 46.6936  7724.23  86.8287
 46.7356  7558.72  86.0014
 46.7776  7475.28  86.3743
 46.8196  7488.59  86.0412
 46.8616  7384.62  85.3915
 46.9036  7354.26  84.865
 46.9456  7427  84.9308
 46.9876  7425.43  84.9983
 47.0296  7403.44  85.572
 47.0716  7320.56  84.9113
 47.1136  7403.74  85.0696
 47.1556  7523.15  85.6137
 47.1976  7538.56  85.7799
 47.2396  7437.75  85.6151
 47.2816  7426.87  85.2454
 47.3236  7418.19  85.5713
 47.3656  7424.73  85.5377
 47.4076  7362.89  84.9826
 47.4496  7395.56  85.2654
 47.4916  7340.9  85.1364
 47.5336  7465.13  85.6682
 47.5756  7447.76  85.6946
 47.6176  7248.27  84.4326
 47.6596  7375.42  84.8789
 47.7016  7574.63  85.832
 47.7436  7540.44  85.99
 47.7856  7501.54  85.7826
 47.8276  7409.73  85.3048
 47.8696  7372.39  85.1835
 47.9116  7481.14  85.5204
 47.9536  7406.76  85.0342
 47.9956  7335.08  85.3352
 48.0376  7331.67  85.0881
 48.0796  7440.06  85.8419
 48.1216  7353.86  85.1642
 48.1636  7388.17  84.927
 48.2056  7425.16  85.4137
 48.2476  7504.99  86.1868
 48.2896  7487.13  85.9808
 48.3316  7404.06  85.4536
 48.3736  7467.02  85.8433
 48.4156  7364.52  85.0991
 48.4576  7383.75  85.5044
 48.4996  7600.19  86.1875
 48.5416  7497.36  85.939
 48.5836  7367.48  84.8568
 48.6256  7460.84  85.6142
 48.6676  7363.84  85.5784
 48.7096  7419.46  85.1557
 48.7516  7418.78  85.2998
 48.7936  7244.52  84.3528
 48.8356  7355.16  85.0438
 48.8776  7319.23  85.3326
 48.9196  7469.08  85.6478
 48.9616  7424.19  85.7811
 49.0036  7477.28  86.4413
 49.0456  7380.62  85.8576
 49.0876  7276.01  84.8688
 49.1296  7212.6  84.5732
 49.1716  7211.51  84.4383
 49.2136  7298.94  84.8614
 49.2556  7353.77  85.2248
 49.2976  7432.07  85.7414
 49.3396  7207.64  84.4947
 49.3816  7432.23  85.221
 49.4236  7364.49  85.2445
 49.4656  7221.7  84.4479
 49.5076  7335.58  84.8591
 49.5496  7402.26  85.3073
 49.5916  7368.16  85.0209
 49.6336  7335.92  85.0438
 49.6756  7393.57  85.6203
 49.7176  7310.48  85.0742
 49.7596  7298.13  84.7714
 49.8016  7370.8  85.1052
 49.8436  7303.83  85.0232
 49.8856  7255.21  84.7391
 49.9276  7231.76  84.7075
 49.9696  7359.38  85.4351
 50.0116  7324.15  85.3607
 50.0536  7298.43  85.1558
 50.0956  7188.14  84.5762
 50.1376  7295.62  84.9042
 50.1796  7199.99  84.6251
 50.2216  7247.86  84.8935
 50.2636  7299.73  84.8125
 50.3056  7207.01  84.4471
 50.3476  7298.47  85.0098
 50.3896  7178.09  84.2757
 50.4316  7356.22  85.1386
 50.4736  7198.09  84.4432
 50.5156  7289.54  84.9673
 50.5576  7346  85.0418
 50.5996  7202.18  84.5014
 50.6416  7230.92  84.5971
 50.6836  7232.3  84.6623
 50.7256  7354.19  85.3001
 50.7676  7350.97  85.5547
 50.8096  7228.35  84.406
 50.8516  7216.01  84.7596
 50.8936  7155.08  84.1862
 50.9356  7331.58  85.3253
 50.9776  7179.52  84.6016
 51.0196  7075.9  84.1108
 51.0616  7098.71  83.5592
 51.1036  7274.7  84.9595
 51.1456  7103.91  83.8649
 51.1876  7159.05  83.5099
 51.2296  7086.04  83.7333
 51.2716  7083.42  83.4243
 51.3136  7008.34  83.4454
 51.3556  7005.08  83.0405
 51.3976  6995.09  83.1298
 51.4396  6778.91  82.1514
 51.4816  6966.32  83.132
 51.5236  7062.78  83.7893
 51.5656  6977.06  82.871
 51.6076  7026.06  83.2445
 51.6496  7022.28  83.4227
 51.6916  6998.33  83.642
 51.7336  7028.13  83.9163
 51.7756  7015.27  83.5076
 51.8176  7001.72  83.5585
 51.8596  7064.34  83.9444
 51.9016  7002.58  83.1776
 51.9436  6976.92  84.536
 51.9856  7044.3  85.3566
 52.0276  7090.95  84.1031
 52.0696  7189.73  84.7684
 52.1116  6981.15  83.6502
 52.1536  7185.08  84.7314
 52.1956  7061.41  83.4656
 52.2376  7223.46  84.5798
 52.2796  7119.57  83.7984
 52.3216  6937.82  83.4209
 52.3636  7010.13  83.4055
 52.4056  7113.07  83.8788
 52.4476  6982.34  83.4713
 52.4896  6814.79  82.5132
 52.5316  7109.15  84.3365
 52.5736  6832.62  82.3915
 52.6156  7044.22  84.0674
 52.6576  7026.96  83.3844
 52.6996  6793.62  82.9765
 52.7416  6935.32  83.6897
 52.7836  7023.69  84.1128
 52.8256  7046.38  83.4428
 52.8676  6922.55  83.2957
 52.9096  6957.14  83.5635
 52.9516  6982.78  84.126
 52.9936  6874.51  83.8442
 53.0356  7013.93  83.6629
 53.0776  7027.34  84.0511
 53.1196  7030.26  84.172
 53.1616  7061.64  84.402
 53.2036  6980.17  83.8762
 53.2456  6943.07  83.7621
 53.2876  6968.09  83.5912
 53.3296  7119.35  84.8382
 53.3716  7137.47  84.6846
 53.4136  6945.82  83.6941
 53.4556  7027.08  84.2156
 53.4976  6873.42  83.1229
 53.5396  6884.05  83.572
 53.5816  6899.56  83.3179
 53.6236  6800.85  83.0714
 53.6656  7040.94  84.1046
 53.7076  6967.51  83.6341
 53.7496  6997.22  83.955
 53.7916  6962.14  83.8724
 53.8336  6899.97  83.3969
 53.8756  6840.47  83.5907
 53.9176  6887.44  83.2083
 53.9596  6637.8  82.4437
 54.0016  6697.02  82.134
 54.0436  6581.7  81.6481
 54.0856  6783.04  82.3134
 54.1276  6685  81.9078
 54.1696  6582.42  81.4524
 54.2116  6749.27  82.2233
 54.2536  6706.54  81.7723
 54.2956  6722.93  81.9061
 54.3376  6641.83  81.9155
 54.3796  6634.3  81.7567
 54.4216  6726.97  82.392
 54.4636  6659.62  81.9508
 54.5056  6732.69  82.1804
 54.5476  6569.58  81.5229
 54.5896  6696  82.1524
 54.6316  6697.09  81.9876
 54.6736  6596.75  81.4134
 54.7156  6620.04  81.6316
 54.7576  6556.87  81.2137
 54.7996  6640.48  81.8877
 54.8416  6605.32  81.7323
 54.8836  6686.75  82.3258
 54.9256  6599.74  81.5398
 54.9676  6520.14  80.9091
 55.0096  6602.24  81.4619
 55.0516  6411.98  80.4666
 55.0936  6602.41  81.3685
 55.1356  6568.96  81.1882
 55.1776  6706.95  82.2941
 55.2196  6565.3  81.1983
 55.2616  6662.9  82.0234
 55.3036  6348.26  80.246
 55.3456  6413.6  80.7891
 55.3876  6606.73  81.7287
 55.4296  6397.8  80.4257
 55.4716  6509.78  81.1313
 55.5136  6489.93  80.7789
 55.5556  6631.76  81.7104
 55.5976  6467.75  80.7711
 55.6396  6591.5  81.5049
 55.6816  6509.2  80.8376
 55.7236  6420.24  80.3431
 55.7656  6508.31  80.6327
 55.8076  6452.22  80.277
 55.8496  6392.7  80.2201
 55.8916  6503.73  81.0897
 55.9336  6600.03  81.5417
 55.9756  6463.66  80.5903
 56.0176  6347.62  80.0045
 56.0596  6373.98  80.171
 56.1016  6357.37  80.1128
 56.1436  6430.63  80.7815
 56.1856  6319.94  79.8409
 56.2276  6581.02  81.519
 56.2696  6436.89  80.5964
 56.3116  6451.53  81.0672
 56.3536  6410.69  80.4857
 56.3956  6396.59  80.3741
 56.4376  6377.14  80.3048
 56.4796  6256.59  79.3557
 56.5216  6435.75  80.8662
 56.5636  6293.04  79.5327
 56.6056  6503.73  81.0955
 56.6476  6383.95  79.9615
 56.6896  6525.22  81.309
 56.7316  6412.96  80.515
 56.7736  6493.33  81.0261
 56.8156  6316.73  79.9134
 56.8576  6206.86  79.1713
 56.8996  6290.28  79.5895
 56.9416  6311.56  80.0525
 56.9836  6393.35  80.097
 57.0256  6323.09  79.96
 57.0676  6358.58  80.308
 57.1096  6259.95  79.4807
 57.1516  6248.74  79.4229
 57.1936  6250.86  79.2367
 57.2356  6218.44  79.3268
 57.2776  6263.61  79.5895
 57.3196  6343.44  80.4331
 57.3616  6282.84  79.5567
 57.4036  6289.1  79.6424
 57.4456  6311.74  79.7834
 57.4876  6336.98  79.8091
 57.5296  6244.13  79.4461
 57.5716  6212.89  79.3464
 57.6136  6207.66  79.1459
 57.6556  6161.59  78.975
 57.6976  6197.23  79.0432
 57.7396  6206  79.441
 57.7816  6172.05  79.6075
 57.8236  6215.21  79.6673
 57.8656  6297.06  79.8447
 57.9076  6206.9  79.306
 57.9496  6218.67  79.74
 57.9916  6290.78  79.6943
 58.0336  6155.42  79.1245
 58.0756  6289.5  79.5908
 58.1176  6251.09  79.3533
 58.1596  6105.76  79.0187
 58.2016  6058.42  77.9294
 58.2436  6072.31  78.422
 58.2856  5981.37  77.7586
 58.3276  6040.18  78.5108
 58.3696  5902.78  77.3642
 58.4116  6041.73  78.1404
 58.4536  6095.99  78.3741
 58.4956  6017.69  78.051
 58.5376  6134.73  78.3747
 58.5796  5997.45  77.9162
 58.6216  6066.18  78.1789
 58.6636  6026.72  78.1352
 58.7056  6085.79  78.3704
 58.7476  5871.01  77.4143
 58.7896  5957.92  77.6333
 58.8316  6087.38  78.4634
 58.8736  5926.02  77.4233
 58.9156  5965.12  77.7235
 58.9576  5922.17  77.7663
 58.9996  6088.74  78.0986
 59.0416  6043.98  78.1749
 59.0836  5959.91  77.5425
 59.1256  5988.02  78.4275
 59.1676  5972.75  78.6391
 59.2096  5887.39  77.3927
 59.2516  6237.94  79.2377
 59.2936  5807.48  76.7765
 59.3356  5996.62  77.895
 59.3776  6004.23  78.1129
 59.4196  5825.25  76.8774
 59.4616  5827.92  76.757
 59.5036  5860.19  77.0041
 59.5456  5990.11  77.5476
 59.5876  5936.04  77.3862
 59.6296  5754.36  76.2603
 59.6716  5941.44  77.5476
 59.7136  6089.48  78.496
 59.7556  5908.74  77.4573
 59.7976  5964.7  77.5669
 59.8396  5787.06  76.2997
 59.8816  5903.24  77.5996
 59.9236  5910.44  77.2957
 59.9656  5853.99  77.1824
 60.0076  5812.82  76.28
 60.0496  5971.79  77.8172
 60.0916  6076.74  77.9142
 60.1336  5871.12  77.6764
 60.1756  5912.88  79.124
 60.1996  0.0000000E+00  0.0000000E+00