File: docs/examples/XRD/IS17_D/Data/IS17_D/17_Db_f00106.xye
# /beamlines/bl04/projects/cycle2025-II/20250340211-lsimonelli/DATA/IS17_D/17_Db_f00106.xye : mythproc.py merge -s 0.006 -l 0.5 -f /beamlines/bl04/inhouse/ff/FlatField/ff_20Nov2024rod8mm60s_17keV.raw -b True -c true -o xye /beamlines/bl04/projects/cycle2025-II/20250340211-lsimonelli/DATA/IS17_D/17_Db_00106.dat
# IsMon = [6736017, 6740365, 6742120]  IsPos = [-1.4999, -2.4884, -3.4988]
# Wave = 0.4962  CalPath /beamlines/bl04/projects/cycle2025-II/20250340211-lsimonelli/DATA/Align/Si_Pos1_25keV_f00001.cal
# Date = 2025-09-24_23:16:08 Dt = 4.8000  Bin = 0.0060  <imon> = 6739501 +/- 2565 (Min/Max) 6736017 / 6742120
# icurr 248.7571  mocoIn 1.6973E-05  mocoOut 0.7960  i15 7.06816e+06  imon 6.7395e+06  i7 6.6667  iEMpd_timer 4.8000  iEMpd_1 3.5629E-08  iEMpd_2 7.8434E-08  iEMpd_3 1.7099E-08  iEMpd_4 4.8170E-08  iEMhp_timer 4.8000  iEMhp_1 4.8609E-06  iEMhp_2 -2.4947E-08  iEMhp_3 -2.4630E-08  iEMhp_4 -2.0425E-08
#      9776
 1.5856  43895.9  215.193
 1.6276  50589.4  227.053
 1.6696  56865.9  239.878
 1.7116  64507.9  255.988
 1.7536  72459.4  270.151
 1.7956  75750.2  276.907
 1.8376  72824  271.936
 1.8796  62858.5  250.794
 1.9216  52398  229.884
 1.9636  45470.2  213.269
 2.0056  41733.9  203.528
 2.0476  38902.5  198.657
 2.0896  37311  193.411
 2.1316  36370.9  190.04
 2.1736  34973  187.831
 2.2156  35433.3  187.546
 2.2576  33996.3  184.362
 2.2996  32645.7  181.326
 2.3416  33604.9  182.502
 2.3836  32912.4  180.723
 2.4256  31982.3  178.732
 2.4676  31536.5  177.23
 2.5096  31122.2  176.119
 2.5516  29820.3  176.336
 2.5936  29740.3  172.56
 2.6356  29602.2  172.885
 2.6776  29423.3  171.217
 2.7196  28887.1  170.156
 2.7616  29105.7  170.58
 2.8036  28473  168.892
 2.8456  28520.6  169.693
 2.8876  27814.5  167.424
 2.9296  27552.8  166.773
 2.9716  27204.2  165.193
 3.0136  26859.3  164.217
 3.0556  26897.9  164.732
 3.0976  26828.6  163.413
 3.1396  26309.7  162.538
 3.1816  26196.5  162.139
 3.2236  25745.6  160.724
 3.2656  25706.7  159.624
 3.3076  25356.8  160.035
 3.3496  25483  159.335
 3.3916  25879.4  160.387
 3.4336  26254.5  162.147
 3.4756  26567.5  163.064
 3.5176  27131  164.534
 3.5596  26811.1  166.056
 3.6016  26864.9  163.789
 3.6436  25875.4  161.86
 3.6856  25459.4  158.843
 3.7276  24606.9  157.251
 3.7696  24490.3  157.066
 3.8116  24121.4  155.779
 3.8536  24131.1  155.739
 3.8956  24032.4  155.236
 3.9376  23875.8  154.999
 3.9796  23640.8  153.712
 4.0216  23812.6  153.303
 4.0636  23779.7  154.687
 4.1056  23591.8  153.72
 4.1476  24052.7  155.531
 4.1896  24084.5  155.492
 4.2316  24237.7  155.811
 4.2736  24561.7  156.645
 4.3156  24635.1  157.105
 4.3576  25613.2  160.098
 4.3996  25698  160.645
 4.4416  26295.2  162.077
 4.4836  26582.8  163.124
 4.5256  27192.3  165.61
 4.5676  26873.5  164.884
 4.6096  27789.2  166.311
 4.6516  27899.4  166.331
 4.6936  27923.4  167.229
 4.7356  28206.3  167.898
 4.7776  27994.2  167.09
 4.8196  27960.5  167.654
 4.8616  27306.2  165.165
 4.9036  27174.6  164.505
 4.9456  26964.9  164.52
 4.9876  26355.8  162.554
 5.0296  26733.6  163.551
 5.0716  26367.1  163.172
 5.1136  26642.2  163.752
 5.1556  26737.3  163.491
 5.1976  27348  165.355
 5.2396  27396.9  165.188
 5.2816  27411.1  165.712
 5.3236  27322.1  165.135
 5.3656  26961.4  164.969
 5.4076  26664.3  164.199
 5.4496  26635.6  163.596
 5.4916  26926.8  164.246
 5.5336  26742.7  163.689
 5.5756  26673.8  163.501
 5.6176  26912.1  163.67
 5.6596  26999.1  164.92
 5.7016  27324.2  165.162
 5.7436  27248.7  165.217
 5.7856  27159.8  165.012
 5.8276  27466  165.646
 5.8696  27784.8  166.788
 5.9116  27835.9  167.543
 5.9536  27985.7  167.744
 5.9956  28090.2  167.438
 6.0376  27900.1  167.49
 6.0796  28199.3  168.212
 6.1216  28172.9  168.329
 6.1636  28517.6  168.417
 6.2056  28356.9  168.612
 6.2476  28657.2  169.377
 6.2896  28928.6  169.854
 6.3316  28992  170.226
 6.3736  28952.5  169.992
 6.4156  29299.7  170.906
 6.4576  29409.2  170.836
 6.4996  29208.3  170.722
 6.5416  29412.5  171.45
 6.5836  29289.7  171.325
 6.6256  29246.9  170.762
 6.6676  29770.4  171.854
 6.7096  29907.8  173.123
 6.7516  30269.8  173.813
 6.7936  30425.5  173.66
 6.8356  30599.2  174.242
 6.8776  30576.5  174.98
 6.9196  30921.3  176.376
 6.9616  31249.1  176.745
 7.0036  31595.9  177.382
 7.0456  31765.5  177.151
 7.0876  31696.4  178.652
 7.1296  31589.4  177.483
 7.1716  31591.3  177.028
 7.2136  31365.3  176.172
 7.2556  31549.3  176.84
 7.2976  31646.7  177.611
 7.3396  31204.4  176.583
 7.3816  31387.3  177.318
 7.4236  31847.3  177.91
 7.4656  31904.5  177.524
 7.5076  32031.7  178.03
 7.5496  31678.5  177.579
 7.5916  32010  178.552
 7.6336  32554.7  179.953
 7.6756  32447  179.506
 7.7176  32963.6  181.261
 7.7596  33058.3  182.743
 7.8016  33485.9  186.164
 7.8436  33005.2  181.465
 7.8856  33316  181.924
 7.9276  33779.1  183.585
 7.9696  33666  183.588
 8.0116  34966.9  185.655
 8.0536  35109  186.278
 8.0956  35228.9  187.777
 8.1376  35314.2  187.475
 8.1796  35462.8  188.406
 8.2216  36177.4  189.041
 8.2636  36526.6  190.2
 8.3056  36299  190.363
 8.3476  36836.2  191.103
 8.3896  36727.9  190.903
 8.4316  36685.2  190.956
 8.4736  36814.4  190.77
 8.5156  36708.2  190.767
 8.5576  36414.3  190.961
 8.5996  36236.7  189.386
 8.6416  35989.6  189.985
 8.6836  35718.5  189.095
 8.7256  36556.9  190.76
 8.7676  36346.6  193.118
 8.8096  36924.8  191.965
 8.8516  36587.8  190.658
 8.8936  35990.8  189.051
 8.9356  36528  190.801
 8.9776  35991.8  189.462
 9.0196  36223.4  189.755
 9.0616  36012  188.692
 9.1036  35969.1  189.749
 9.1456  35241.4  187.144
 9.1876  35721.8  188.362
 9.2296  35246.3  186.543
 9.2716  35172.1  186.395
 9.3136  34893  185.655
 9.3556  35362.3  186.87
 9.3976  34358.2  184.72
 9.4396  34345.9  184.574
 9.4816  34487.6  184.836
 9.5236  33794.4  182.857
 9.5656  33579.1  182.627
 9.6076  32923.4  181.342
 9.6496  33434.6  182.636
 9.6916  32980.8  181.331
 9.7336  33677.5  183.023
 9.7756  32942.2  182.272
 9.8176  32765.2  181.315
 9.8596  32843.6  179.985
 9.9016  32118.8  177.976
 9.9436  32137.9  177.945
 9.9856  31653.6  176.871
 10.0276  31172.7  176.579
 10.0696  31602.5  176.839
 10.1116  30699.7  174.56
 10.1536  30691  174.684
 10.1956  30041.1  172.447
 10.2376  30193  172.401
 10.2796  29954.6  171.8
 10.3216  29529.4  170.876
 10.3636  29333.7  170.341
 10.4056  28645  168.713
 10.4476  28684.3  168.452
 10.4896  29062.8  169.014
 10.5316  28258.5  167.376
 10.5736  28369.7  168.113
 10.6156  28063.3  166.968
 10.6576  28038.6  165.472
 10.6996  27628.9  164.951
 10.7416  27314.5  164.216
 10.7836  26910.3  163.64
 10.8256  26673.9  163.348
 10.8676  26729.4  163.06
 10.9096  26637.9  162.818
 10.9516  26010.9  159.85
 10.9936  26330.5  161.041
 11.0356  26188.8  161.204
 11.0776  25742.8  159.172
 11.1196  25331  158.642
 11.1616  25105.9  157.612
 11.2036  25448.4  158.538
 11.2456  25129.9  158.229
 11.2876  25525.5  159.21
 11.3296  24868.3  157.057
 11.3716  25235.2  157.907
 11.4136  25071  158.253
 11.4556  25129.2  158.098
 11.4976  25431.7  158.067
 11.5396  25511.1  158.475
 11.5816  26050.6  160.585
 11.6236  26588.9  162.469
 11.6656  26833.6  162.359
 11.7076  25888.5  160.305
 11.7496  25136.4  161.964
 11.7916  24916.2  156.527
 11.8336  24468.9  155.996
 11.8756  24374.9  155.255
 11.9176  24346.4  154.835
 11.9596  24463  155.391
 12.0016  24001.7  154.663
 12.0436  24319.4  155.149
 12.0856  23860.8  154.168
 12.1276  23774.3  153.84
 12.1696  23810.2  153.079
 12.2116  23923.7  153.435
 12.2536  23625.8  153.298
 12.2956  23466.2  152.119
 12.3376  23643  152.916
 12.3796  23652.7  153.413
 12.4216  23724.1  152.837
 12.4636  23344.2  152.543
 12.5056  23614.2  152.69
 12.5476  23734.6  152.588
 12.5896  23438.2  152.272
 12.6316  23478.1  152.562
 12.6736  23231.2  152.238
 12.7156  23484.3  152.916
 12.7576  23555.6  153.387
 12.7996  23578.6  152.116
 12.8416  23271.6  152.167
 12.8836  23517.5  152.783
 12.9256  23984.3  153.339
 12.9676  23686.6  152.775
 13.0096  23977.6  154.838
 13.0516  23931.9  153.724
 13.0936  24314.2  155.36
 13.1356  24499.4  154.907
 13.1776  24157.4  154.834
 13.2196  24537.2  155.684
 13.2616  24105.6  154.62
 13.3036  24379.7  155.469
 13.3456  24122.8  154.985
 13.3876  24454.9  155.334
 13.4296  24173.4  154.6
 13.4716  24384.2  154.896
 13.5136  24205.7  154.462
 13.5556  24157.1  154.929
 13.5976  24186.1  155.195
 13.6396  24309.4  154.941
 13.6816  24217.3  155.128
 13.7236  24615.1  155.973
 13.7656  26044.9  160.897
 13.8076  26923.5  162.194
 13.8496  26287.1  160.995
 13.8916  24467.6  156.445
 13.9336  23971.8  154.118
 13.9756  23991.9  153.568
 14.0176  23433.6  152.436
 14.0596  23702.9  153.241
 14.1016  23521.2  153.082
 14.1436  23459.2  152.017
 14.1856  22938.4  150.606
 14.2276  23023.6  151.373
 14.2696  22973.5  151.054
 14.3116  22443.4  149.204
 14.3536  22137.9  148.354
 14.3956  22176  148.205
 14.4376  22418.9  148.802
 14.4796  22355.8  148.594
 14.5216  21734.2  147.294
 14.5636  21803.5  147.098
 14.6056  22048.8  147.488
 14.6476  21818.5  145.96
 14.6896  21438.3  145.226
 14.7316  21205.1  145.46
 14.7736  20947.3  143.723
 14.8156  20898.1  143.584
 14.8576  20757.6  142.957
 14.8996  20588.3  143.56
 14.9416  20180.1  142.149
 14.9836  20201.4  142.2
 15.0256  19655.7  139.176
 15.0676  19611.6  139.328
 15.1096  19586.4  138.978
 15.1516  19141.2  137.947
 15.1936  19145.3  137.382
 15.2356  18691.1  136.024
 15.2776  18621.2  135.366
 15.3196  18478.8  135.827
 15.3616  18385.1  135.242
 15.4036  18254.5  134.621
 15.4456  18494.1  135.156
 15.4876  18295.3  134.118
 15.5296  18017  133.376
 15.5716  17948  132.729
 15.6136  17836.2  132.64
 15.6556  17822.3  131.835
 15.6976  17704.5  131.693
 15.7396  17468.2  131.185
 15.7816  17498  130.822
 15.8236  17073.7  129.899
 15.8656  17260.7  130.41
 15.9076  17042  129.403
 15.9496  17668  134.586
 15.9916  17498.5  134.347
 16.0336  17646.2  131.777
 16.0756  17407.8  131.196
 16.1176  17192  130.466
 16.1596  16689.4  129.697
 16.2016  16750.4  128.706
 16.2436  16545  128.294
 16.2856  16530  127.747
 16.3276  16344.8  127.471
 16.3696  16558.6  128.135
 16.4116  16450.6  128.149
 16.4536  16611.8  128.591
 16.4956  16416.7  127.569
 16.5376  16173  126.802
 16.5796  16061.3  125.735
 16.6216  16199.7  126.535
 16.6636  15856.8  125.379
 16.7056  16055  126.028
 16.7476  16171.4  126.008
 16.7896  16199.7  126.869
 16.8316  16168.9  126.729
 16.8736  16228.6  127.22
 16.9156  16020.5  126.725
 16.9576  15881  126.948
 16.9996  15875.2  127.383
 17.0416  16154.8  126.901
 17.0836  16247.4  127.032
 17.1256  16009.4  126.106
 17.1676  16085.3  126.353
 17.2096  15958.3  125.769
 17.2516  15897.8  125.316
 17.2936  15914.8  125.731
 17.3356  15654.6  124.691
 17.3776  15569.2  124.529
 17.4196  15526.4  124.054
 17.4616  15415.5  123.522
 17.5036  15090.6  122.562
 17.5456  15272.4  123.929
 17.5876  14903  121.503
 17.6296  15038.2  121.882
 17.6716  14832.5  121.616
 17.7136  14795.6  121.597
 17.7556  14690.9  121.455
 17.7976  14887  121.991
 17.8396  14576.7  120.232
 17.8816  14347.5  119.826
 17.9236  14533  120.395
 17.9656  14373.8  120.234
 18.0076  14401.4  119.952
 18.0496  14283.3  118.6
 18.0916  14241.3  118.975
 18.1336  14296.1  119.294
 18.1756  14442  119.461
 18.2176  13876.4  117.297
 18.2596  13903.7  117.147
 18.3016  14301.3  119.07
 18.3436  13927.9  117.509
 18.3856  14168.4  118.663
 18.4276  13964  117.489
 18.4696  13970.6  117.599
 18.5116  14080.1  118.323
 18.5536  13977.1  118.236
 18.5956  13899.9  117.488
 18.6376  13802.1  117.466
 18.6796  13784.4  116.715
 18.7216  13817.7  117.344
 18.7636  13822.1  117.381
 18.8056  13619.2  116.433
 18.8476  13469.2  116.398
 18.8896  13547.6  116.09
 18.9316  13726.9  116.839
 18.9736  13691.6  116.387
 19.0156  13631.7  116.548
 19.0576  13707.9  115.733
 19.0996  13713  116.47
 19.1416  13766  117.086
 19.1836  13585.3  115.919
 19.2256  13483.1  115.702
 19.2676  13456.7  115.669
 19.3096  13545.5  116.282
 19.3516  13519.2  116.142
 19.3936  13549.8  116.164
 19.4356  13733.1  116.845
 19.4776  13502.4  115.936
 19.5196  13862.6  117.326
 19.5616  13614.3  116.529
 19.6036  13439.4  115.281
 19.6456  13630.3  116.21
 19.6876  13583.2  115.645
 19.7296  13611.1  116.235
 19.7716  13374.2  115.382
 19.8136  13597.7  116.546
 19.8556  13687.3  116.4
 19.8976  13672.4  116.396
 19.9396  13735.7  116.263
 19.9816  13720.5  116.44
 20.0236  13901.7  117.399
 20.0656  13999.3  117.807
 20.1076  14387.3  119.928
 20.1496  14493.6  120.346
 20.1916  14787.9  121.086
 20.2336  14859.4  121.296
 20.2756  14442.9  120.024
 20.3176  13948.3  117.692
 20.3596  13746.2  116.82
 20.4016  13841.6  117.025
 20.4436  13509.3  116.17
 20.4856  13606.6  116.384
 20.5276  13259.1  115.351
 20.5696  13455.8  115.658
 20.6116  13255.8  115.058
 20.6536  13132.8  114.042
 20.6956  13167.9  114.324
 20.7376  12994.8  113.777
 20.7796  12995.2  113.48
 20.8216  13138.9  113.809
 20.8636  13170.4  114.333
 20.9056  12958.6  113.33
 20.9476  12986.5  113.317
 20.9896  13161  113.932
 21.0316  12899.5  112.696
 21.0736  12938.2  113.385
 21.1156  12832.2  113.068
 21.1576  12929.3  113.538
 21.1996  12791.1  112.922
 21.2416  12875.8  113.121
 21.2836  12843.2  112.954
 21.3256  12803.6  112.858
 21.3676  12853.8  112.611
 21.4096  12663.6  112.092
 21.4516  12643.4  111.878
 21.4936  12475.3  111.391
 21.5356  12710.1  112.388
 21.5776  12691.3  112.137
 21.6196  12628.6  111.901
 21.6616  12519.6  111.501
 21.7036  12697.4  112.052
 21.7456  12569.9  111.573
 21.7876  12440.1  110.758
 21.8296  12447.5  110.64
 21.8716  12499.6  111.098
 21.9136  12625.2  111.852
 21.9556  12492.7  110.949
 21.9976  12383  110.485
 22.0396  12442.1  110.998
 22.0816  12417  111.402
 22.1236  12578.7  111.591
 22.1656  12486.4  111.323
 22.2076  12324.5  110.049
 22.2496  12285  109.903
 22.2916  12237  109.579
 22.3336  12197.1  110.108
 22.3756  12203.9  109.864
 22.4176  12225.8  109.817
 22.4596  11785.5  108.393
 22.5016  11975.4  108.777
 22.5436  12290.3  110.074
 22.5856  12345.6  110.567
 22.6276  12497.2  111.366
 22.6696  12291.4  110.811
 22.7116  12307.1  110.39
 22.7536  12182.8  109.811
 22.7956  12234.5  109.393
 22.8376  12127.5  109.417
 22.8796  12088.2  109.047
 22.9216  12117.5  109.71
 22.9636  12027  108.475
 23.0056  11923.7  108.136
 23.0476  12119.6  109.584
 23.0896  12300.8  109.787
 23.1316  12341.1  110.397
 23.1736  12335.9  113.3
 23.2156  12478.6  111.34
 23.2576  12696.2  112.459
 23.2996  12401.8  110.916
 23.3416  12568.1  112.193
 23.3836  12720.5  112.089
 23.4256  12630.1  111.823
 23.4676  12611.5  111.418
 23.5096  12481.4  111.5
 23.5516  12564.3  111.174
 23.5936  12500.9  111.801
 23.6356  12679.7  112.259
 23.6776  12403.7  111.232
 23.7196  12428.2  110.93
 23.7616  12371.4  110.587
 23.8036  12695.3  112.092
 23.8456  12311.3  109.918
 23.8876  12254.6  110.043
 23.9296  12145.1  110.025
 23.9716  12388  110.319
 24.0136  12404.6  111.303
 24.0556  12050.5  109.421
 24.0976  11995.5  108.984
 24.1396  11933.5  111.306
 24.1816  12130.8  110.648
 24.2236  12104.5  110.145
 24.2656  11941.9  108.886
 24.3076  11860.3  108.782
 24.3496  11839.6  108.561
 24.3916  11906  108.923
 24.4336  11821.4  108.735
 24.4756  11839.3  108.703
 24.5176  11674.6  107.556
 24.5596  11627.6  107.486
 24.6016  11548.6  107.399
 24.6436  11779.9  107.989
 24.6856  11562.6  106.717
 24.7276  11440.8  106.485
 24.7696  11442.5  106.593
 24.8116  11352.7  106.362
 24.8536  11364.1  106.419
 24.8956  11386  106.245
 24.9376  11422.3  106.354
 24.9796  11358.9  106.415
 25.0216  11180.7  105.697
 25.0636  11243.9  105.645
 25.1056  11089.9  105.615
 25.1476  11042.8  106.989
 25.1896  11078.3  105.689
 25.2316  11061.7  104.889
 25.2736  10982.5  104.175
 25.3156  10990.8  104.28
 25.3576  11031.3  104.906
 25.3996  11051.2  104.988
 25.4416  10943  104.449
 25.4836  10780.5  104.168
 25.5256  10937  104.293
 25.5676  10860.4  103.664
 25.6096  10776  103.833
 25.6516  10919.5  104.024
 25.6936  10874.2  104.134
 25.7356  10868.5  104.229
 25.7776  10832.6  103.657
 25.8196  10604  102.799
 25.8616  10671.1  103.053
 25.9036  10724.8  102.768
 25.9456  10747  103.47
 25.9876  10620.9  102.931
 26.0296  10762  103.128
 26.0716  10681.7  103.174
 26.1136  10700.5  103.187
 26.1556  10716  102.652
 26.1976  10514.4  102.599
 26.2396  10563.5  102
 26.2816  10701.9  103.276
 26.3236  10650.7  103.175
 26.3656  10829.9  103.771
 26.4076  10548.3  102.619
 26.4496  10867.9  103.756
 26.4916  10878.8  103.7
 26.5336  11116.4  105.171
 26.5756  11528.7  106.98
 26.6176  10854.3  103.82
 26.6596  10712  103.441
 26.7016  10719.4  103.244
 26.7436  10639  102.991
 26.7856  10525.8  102.421
 26.8276  10648.3  102.981
 26.8696  10524.3  102.249
 26.9116  10354.9  101.37
 26.9536  10348.3  101.384
 26.9956  10289.7  101.123
 27.0376  10300.6  101.406
 27.0796  10386.4  101.542
 27.1216  10397.9  101.665
 27.1636  10266.3  101.188
 27.2056  10203  100.769
 27.2476  10181.9  100.646
 27.2896  10054.8  100.125
 27.3316  10097.9  100.064
 27.3736  10066.4  100.173
 27.4156  10208.6  100.728
 27.4576  10126.2  100.541
 27.4996  10242.8  100.735
 27.5416  10042.4  100.036
 27.5836  10118.3  100.251
 27.6256  10072.5  100.203
 27.6676  9994.45  99.8058
 27.7096  10082.5  100.125
 27.7516  9966.76  99.6858
 27.7936  10293.3  101.458
 27.8356  10203.5  100.617
 27.8776  10231.6  100.843
 27.9196  9908.07  99.0854
 27.9616  9938.01  99.4266
 28.0036  9909.38  99.2482
 28.0456  9795.2  98.8065
 28.0876  9774.6  98.7938
 28.1296  9771.5  98.6176
 28.1716  9924.56  99.4065
 28.2136  9908.33  99.2874
 28.2556  9864.29  99.1809
 28.2976  9720.56  98.45
 28.3396  9719.49  98.2047
 28.3816  9871.2  98.9733
 28.4236  9646.67  97.9951
 28.4656  9592.51  97.7614
 28.5076  9739.17  98.1468
 28.5496  9702.81  98.2098
 28.5916  9667.29  97.8413
 28.6336  9763.21  98.6838
 28.6756  9617.1  97.1441
 28.7176  9620.44  97.7095
 28.7596  9538.49  97.1767
 28.8016  9589.2  97.4773
 28.8436  9531.43  97.4257
 28.8856  9720.33  98.2355
 28.9276  9673.21  98.2414
 28.9696  9604.52  97.5575
 29.0116  9547.75  97.4441
 29.0536  9386.01  96.8257
 29.0956  9504.68  97.1364
 29.1376  9467.55  96.9269
 29.1796  9564  97.47
 29.2216  9419.42  96.5656
 29.2636  9561.43  97.3707
 29.3056  9494.68  96.813
 29.3476  9592.12  97.8287
 29.3896  9534.89  97.6468
 29.4316  9308.06  95.8161
 29.4736  9221.55  95.4278
 29.5156  9186.26  95.1723
 29.5576  9331.89  96.6536
 29.5996  9038.6  94.4012
 29.6416  9262.7  95.6801
 29.6836  9104.47  94.7911
 29.7256  9397.07  96.8612
 29.7676  9160.79  95.299
 29.8096  9176.04  95.3284
 29.8516  9015.37  94.8126
 29.8936  9148.99  95.6045
 29.9356  9105.84  95.1389
 29.9776  9150.61  95.5221
 30.0196  9250.46  95.445
 30.0616  9168.65  95.385
 30.1036  9139.15  95.0622
 30.1456  9068.5  94.9152
 30.1876  9037.48  94.7391
 30.2296  9128.41  95.1592
 30.2716  9151.93  94.9279
 30.3136  9024.12  95.0989
 30.3556  9349.74  96.8164
 30.3976  9184.16  97.4271
 30.4396  9569.66  96.8107
 30.4816  9453.41  95.8262
 30.5236  9349.15  95.2984
 30.5656  9383.6  96.1293
 30.6076  9312.58  95.1819
 30.6496  9294.32  95.49
 30.6916  9163.98  94.9036
 30.7336  9227.85  95.3708
 30.7756  9296.57  95.8157
 30.8176  9250.8  95.5095
 30.8596  9370.99  95.8863
 30.9016  9257.03  95.6537
 30.9436  9265.93  95.4463
 30.9856  9394.58  96.2229
 31.0276  9365.99  95.6994
 31.0696  9247.75  95.6513
 31.1116  9181.88  95.2699
 31.1536  9210.2  95.2928
 31.1956  9167.94  95.1721
 31.2376  9082.06  94.7513
 31.2796  9352.25  95.6928
 31.3216  9192.78  94.7804
 31.3636  9206.99  95.568
 31.4056  9115.03  96.3881
 31.4476  9232.37  94.9221
 31.4896  9095.29  94.7144
 31.5316  9189.2  94.602
 31.5736  9184.25  94.4138
 31.6156  9183.16  94.4163
 31.6576  9438.8  95.7866
 31.6996  9221.18  94.3516
 31.7416  9072.34  94.6694
 31.7836  9205.97  94.3695
 31.8256  9209.39  94.6463
 31.8676  9212.3  94.6496
 31.9096  9098.64  94.4443
 31.9516  8967.61  93.9276
 31.9936  9047.35  94.1596
 32.0356  9096.46  94.455
 32.0776  9199.65  94.8996
 32.1196  9063.61  94.3
 32.1616  9227.3  94.5935
 32.2036  9156.78  94.7498
 32.2456  9004.08  94.3294
 32.2876  8945.19  93.5266
 32.3296  8873.74  93.1132
 32.3716  8707.51  92.338
 32.4136  8804.93  93.0484
 32.4556  8873.43  92.7993
 32.4976  8878.89  92.7385
 32.5396  8872.97  92.7732
 32.5816  8878.52  92.9412
 32.6236  8855.91  92.875
 32.6656  9002.73  94.1879
 32.7076  8835.95  92.9693
 32.7496  8802.74  92.4645
 32.7916  8904.12  92.958
 32.8336  8851.72  92.7792
 32.8756  8921.51  92.8683
 32.9176  8713.57  92.2578
 32.9596  8689.66  92.2004
 33.0016  8777.43  92.4432
 33.0436  8886.23  93.1878
 33.0856  8713.62  92.3644
 33.1276  8666.18  91.8469
 33.1696  8710.27  91.9156
 33.2116  8723.06  92.2148
 33.2536  8861.28  92.9393
 33.2956  8748.98  92.426
 33.3376  8706.91  91.9532
 33.3796  8713.19  92.1991
 33.4216  8691.64  91.6722
 33.4636  8737.34  92.074
 33.5056  8665.39  91.933
 33.5476  8671.66  91.9467
 33.5896  8765.41  92.238
 33.6316  8665.2  92.0193
 33.6736  8709.17  92.4963
 33.7156  8636.23  92.1346
 33.7576  8745.09  92.3538
 33.7996  8777.67  92.2897
 33.8416  8520.29  91.1126
 33.8836  8612.94  91.3828
 33.9256  8696.87  91.8928
 33.9676  8741.62  92.0212
 34.0096  8640.81  91.8029
 34.0516  8551.51  90.9592
 34.0936  8531.2  91.1282
 34.1356  8736.66  91.9542
 34.1776  8564.16  91.0365
 34.2196  8516.53  90.967
 34.2616  8438.39  90.6845
 34.3036  8597.88  91.792
 34.3456  8509.4  91.071
 34.3876  8571.58  91.3786
 34.4296  8524.41  90.8136
 34.4716  8603.55  91.3673
 34.5136  8456.31  90.7862
 34.5556  8317.25  90.2849
 34.5976  8504.71  91.1189
 34.6396  8448.71  90.5299
 34.6816  8422.6  90.4968
 34.7236  8475.23  90.5545
 34.7656  8502.58  90.9047
 34.8076  8540.71  91.4441
 34.8496  8333.93  90.1769
 34.8916  8502.46  90.9378
 34.9336  8509.24  90.9657
 34.9756  8399.61  90.3043
 35.0176  8530  91.5293
 35.0596  8539.1  91.4051
 35.1016  8524.01  91.0822
 35.1436  8586.34  91.1011
 35.1856  8426.16  90.3602
 35.2276  8335.73  90.049
 35.2696  8457.75  90.8935
 35.3116  8381.07  90.5804
 35.3536  8328.67  90.0122
 35.3956  8389.04  90.0488
 35.4376  8400.31  90.6774
 35.4796  8510.86  91.3074
 35.5216  8335.56  90.3255
 35.5636  8156.68  90.0836
 35.6056  8355.36  90.2017
 35.6476  8356.39  90.1046
 35.6896  8309.9  89.9441
 35.7316  8188.32  89.2639
 35.7736  8260.89  89.8432
 35.8156  8340.35  90.2715
 35.8576  8354.74  90.6032
 35.8996  8359.39  90.5848
 35.9416  8407.71  90.3583
 35.9836  8234.11  89.7603
 36.0256  8521.8  91.324
 36.0676  8418.29  90.517
 36.1096  8376.56  90.4522
 36.1516  8368.5  90.2998
 36.1936  8238.7  89.4455
 36.2356  8396.87  90.9544
 36.2776  8164.02  89.1591
 36.3196  8215.55  89.1165
 36.3616  8280.27  89.5878
 36.4036  8086.77  88.6094
 36.4456  8235.83  89.6311
 36.4876  8097.01  88.8046
 36.5296  8104.96  88.8981
 36.5716  8235.44  90.3752
 36.6136  8056.46  88.1843
 36.6556  8150.23  88.8926
 36.6976  8087.62  89.041
 36.7396  7923.78  87.8706
 36.7816  7910.37  88.1617
 36.8236  7972.3  88.4289
 36.8656  7802.64  87.5442
 36.9076  7921.11  88.1013
 36.9496  7832.64  87.5919
 36.9916  7959.71  87.9374
 37.0336  8008.61  88.5147
 37.0756  7912.42  87.781
 37.1176  7893.47  87.9338
 37.1596  7847.62  87.6917
 37.2016  7819.31  87.7525
 37.2436  7868.69  87.3585
 37.2856  7870.13  87.6167
 37.3276  7850.51  86.8746
 37.3696  7869.9  87.8493
 37.4116  7820.72  87.4806
 37.4536  7765.76  87.0436
 37.4956  7726.58  86.8702
 37.5376  8054.03  90.2738
 37.5796  7940.97  89.575
 37.6216  7887.63  87.5661
 37.6636  8065.57  88.4387
 37.7056  7890.61  87.6559
 37.7476  8145.93  88.6137
 37.7896  7817.04  87.2945
 37.8316  7979.45  88.3497
 37.8736  7896.24  87.4225
 37.9156  8056.43  88.2831
 37.9576  8015.44  87.993
 37.9996  7886.25  86.9973
 38.0416  7995.11  88.3928
 38.0836  8017.74  88.4188
 38.1256  7969.28  88.1333
 38.1676  7778.59  87.1814
 38.2096  8048.26  88.3094
 38.2516  7978.65  88.1327
 38.2936  8043.05  88.2935
 38.3356  7870.4  87.2635
 38.3776  7925.88  87.823
 38.4196  7871.47  87.3712
 38.4616  7764.16  87.0231
 38.5036  7973.79  88.0369
 38.5456  7758.24  87.6557
 38.5876  7836.29  88.1064
 38.6296  7854.79  87.2087
 38.6716  7805.53  86.7279
 38.7136  7859.34  86.9778
 38.7556  7739.41  86.8168
 38.7976  7838.37  87.2775
 38.8396  7713.15  87.0421
 38.8816  7703.84  86.794
 38.9236  7785.69  87.0511
 38.9656  7984.54  88.0665
 39.0076  7968.11  87.3786
 39.0496  7980.06  88.0043
 39.0916  7962.86  87.5513
 39.1336  7822.36  87.179
 39.1756  7781.33  87.0064
 39.2176  7755.73  87.3891
 39.2596  7716.54  87.1015
 39.3016  7911.46  87.7808
 39.3436  7811.81  87.6263
 39.3856  7916.06  87.6479
 39.4276  7961.08  88.4261
 39.4696  7815.79  87.2261
 39.5116  7969.28  88.6068
 39.5536  7825.42  88.2073
 39.5956  7813.52  87.2471
 39.6376  7728.37  86.7662
 39.6796  7774.33  86.7794
 39.7216  7809.55  87.0744
 39.7636  7822.66  87.7046
 39.8056  7885.03  87.8478
 39.8476  7686.71  86.9799
 39.8896  7824.69  87.3971
 39.9316  7808.64  87.5571
 39.9736  7791.41  87.0274
 40.0156  7750.48  86.6352
 40.0576  7815.15  87.3447
 40.0996  7864.83  86.807
 40.1416  7900.63  87.8042
 40.1836  7863.51  87.4834
 40.2256  7874.4  87.5757
 40.2676  7779.06  87.1533
 40.3096  7947.31  88.0139
 40.3516  7809.53  87.3603
 40.3936  7847.26  87.1289
 40.4356  7745.35  86.7674
 40.4776  7875.43  87.8928
 40.5196  7921.44  88.2823
 40.5616  7862.08  87.5936
 40.6036  7832.84  87.6709
 40.6456  7855.22  87.4062
 40.6876  7867.53  87.4797
 40.7296  7776.5  87.0993
 40.7716  7945.05  88.1607
 40.8136  7770.95  87.1341
 40.8556  7957.93  88.3206
 40.8976  7814.86  87.4418
 40.9396  7864.14  88.0639
 40.9816  7945.06  87.8068
 41.0236  7965.01  87.6939
 41.0656  7919  87.9784
 41.1076  7880.45  87.5315
 41.1496  7906.18  87.5816
 41.1916  7791.11  87.2587
 41.2336  7890.39  87.8215
 41.2756  7848.18  87.189
 41.3176  7883.97  87.9947
 41.3596  7886.61  87.7387
 41.4016  7803.58  87.5351
 41.4436  7783.57  87.2131
 41.4856  7861.75  87.8115
 41.5276  7821.27  87.6086
 41.5696  7734.89  86.7557
 41.6116  7824.81  87.651
 41.6536  7805.89  87.3968
 41.6956  7865.16  87.794
 41.7376  7845.74  87.7083
 41.7796  7703.9  86.7923
 41.8216  7899.04  88.119
 41.8636  7791.17  87.4541
 41.9056  7788.87  87.2445
 41.9476  7815.84  87.6163
 41.9896  7879.29  87.6437
 42.0316  7862.42  87.6386
 42.0736  7834.95  87.5887
 42.1156  7702.59  86.672
 42.1576  7855.57  87.6425
 42.1996  7848.99  87.7328
 42.2416  7805.96  87.0815
 42.2836  7791.26  87.1246
 42.3256  7739.86  86.9372
 42.3676  7855.74  87.3925
 42.4096  7871.45  87.4527
 42.4516  7828.39  87.284
 42.4936  7730.15  86.8082
 42.5356  7606.65  86.2519
 42.5776  7802.98  87.2968
 42.6196  7806.39  87.3703
 42.6616  7632.2  86.5614
 42.7036  7816.34  86.9839
 42.7456  7838.73  87.4634
 42.7876  7830.35  87.4973
 42.8296  7752.08  86.9068
 42.8716  7596.21  86.1913
 42.9136  7745.15  86.8231
 42.9556  7734.39  86.8799
 42.9976  7715.17  86.7481
 43.0396  7644.67  86.0874
 43.0816  7581.33  86.1083
 43.1236  7609.27  86.3164
 43.1656  7748.99  86.9294
 43.2076  7671.43  86.6033
 43.2496  7576.97  85.891
 43.2916  7685.2  86.862
 43.3336  7752.34  87.0745
 43.3756  7663.48  86.3413
 43.4176  7512.84  85.5647
 43.4596  7553.89  85.6549
 43.5016  7631.01  86.4818
 43.5436  7590.81  86.164
 43.5856  7592.31  86.1986
 43.6276  7638.84  86.357
 43.6696  7611.36  86.4548
 43.7116  7736.17  86.6566
 43.7536  7733.3  87.1427
 43.7956  7562.66  87.3568
 43.8376  7548.09  85.8191
 43.8796  7417.85  85.1512
 43.9216  7482.67  85.4413
 43.9636  7499.67  85.6446
 44.0056  7457.89  85.6359
 44.0476  7474.02  85.3597
 44.0896  7480.99  85.7413
 44.1316  7505.42  85.409
 44.1736  7508.85  85.5547
 44.2156  7626.84  86.0743
 44.2576  7453.67  85.4148
 44.2996  7422  85.2058
 44.3416  7509.04  85.4599
 44.3836  7171.7  83.8432
 44.4256  7360.92  84.5851
 44.4676  7316.97  84.491
 44.5096  7448.57  85.3911
 44.5516  7300.32  84.4959
 44.5936  7367.57  84.8411
 44.6356  7413.62  84.8479
 44.6776  7350.54  84.8017
 44.7196  7351.99  85.1093
 44.7616  7404.17  86.7368
 44.8036  7528.4  85.8888
 44.8456  7627.7  86.6618
 44.8876  7588.21  86.2809
 44.9296  7638.46  86.0013
 44.9716  7559.05  85.9942
 45.0136  7433.24  85.214
 45.0556  7664.86  86.5124
 45.0976  7508.08  85.7719
 45.1396  7558.3  85.8203
 45.1816  7465.25  85.2135
 45.2236  7595.63  85.8737
 45.2656  7495.11  85.7962
 45.3076  7474.23  85.4686
 45.3496  7433.17  85.5324
 45.3916  7411.86  85.6824
 45.4336  7501.31  86.0428
 45.4756  7404.37  85.3387
 45.5176  7530.92  85.6864
 45.5596  7559.64  85.9603
 45.6016  7412.01  85.5422
 45.6436  7606.65  85.8245
 45.6856  7406.15  85.3313
 45.7276  7377.4  86.4702
 45.7696  7433.01  86.4865
 45.8116  7362.01  85.5006
 45.8536  7339.4  85.2837
 45.8956  7475.36  85.4154
 45.9376  7489.17  84.9599
 45.9796  7414.29  85.2153
 46.0216  7377.66  85.3477
 46.0636  7625.83  85.897
 46.1056  7526.68  85.3333
 46.1476  7323.93  84.7611
 46.1896  7471.75  85.7658
 46.2316  7463.53  85.5808
 46.2736  7315.65  85.103
 46.3156  7491.42  85.6948
 46.3576  7449.07  85.6545
 46.3996  7422.66  85.6672
 46.4416  7355.44  84.8479
 46.4836  7385.57  85.3861
 46.5256  7376.16  85.272
 46.5676  7470.41  85.933
 46.6096  7427.97  85.6092
 46.6516  7461.59  84.8462
 46.6936  7409.11  85.0459
 46.7356  7488.98  85.6013
 46.7776  7387.08  85.8606
 46.8196  7325.66  85.1014
 46.8616  7264.08  84.6885
 46.9036  7291.63  84.494
 46.9456  7248.72  83.9004
 46.9876  7275.13  84.1312
 47.0296  7367.51  85.3514
 47.0716  7202.56  84.225
 47.1136  7331.06  84.6491
 47.1556  7237.54  83.9783
 47.1976  7435.82  85.1995
 47.2396  7204.83  84.2577
 47.2816  7215.67  84.028
 47.3236  7314.54  84.967
 47.3656  7351.37  85.1143
 47.4076  7270.44  84.4455
 47.4496  7245.43  84.398
 47.4916  7298.66  84.8999
 47.5336  7335.87  84.927
 47.5756  7493.39  85.9554
 47.6176  7317.26  84.8398
 47.6596  7188.14  83.7955
 47.7016  7414.44  84.9149
 47.7436  7392.74  85.1329
 47.7856  7421.94  85.34
 47.8276  7312.1  84.7579
 47.8696  7312.36  84.8387
 47.9116  7283.34  84.3836
 47.9536  7275.2  84.2667
 47.9956  7230.12  84.7251
 48.0376  7215.24  84.4093
 48.0796  7260.33  84.8017
 48.1216  7228.12  84.4318
 48.1636  7285.8  84.3455
 48.2056  7389.59  85.2085
 48.2476  7458.05  85.9214
 48.2896  7380.28  85.3722
 48.3316  7314.88  84.9317
 48.3736  7210.85  84.3554
 48.4156  7212.13  84.21
 48.4576  7217.07  84.5362
 48.4996  7429.29  85.2113
 48.5416  7371.15  85.2148
 48.5836  7251.59  84.191
 48.6256  7356.19  85.0193
 48.6676  7329.91  85.3722
 48.7096  7356.99  84.7888
 48.7516  7241.83  84.274
 48.7936  7223.84  84.2311
 48.8356  7328.02  84.891
 48.8776  7266.16  85.0946
 48.9196  7423.71  85.3933
 48.9616  7241.42  84.7047
 49.0036  7317.43  85.5121
 49.0456  7148.11  84.4949
 49.0876  7294.16  84.8812
 49.1296  7196.4  84.4783
 49.1716  7094.51  83.7441
 49.2136  7322.28  85.0146
 49.2556  7279.24  84.7782
 49.2976  7179.24  84.2799
 49.3396  7221.53  84.5798
 49.3816  7248.29  84.1621
 49.4236  7331.39  85.0605
 49.4656  7206.55  84.3579
 49.5076  7288.04  84.5799
 49.5496  7117.9  83.6501
 49.5916  7319.16  84.7423
 49.6336  7235.25  84.4591
 49.6756  7223.49  84.6249
 49.7176  7229.57  84.5999
 49.7596  7204.33  84.2241
 49.8016  7266.36  84.4908
 49.8436  7193.33  84.3741
 49.8856  7272.95  84.8496
 49.9276  7094.89  83.8997
 49.9696  7240.05  84.7363
 50.0116  7132.64  84.2291
 50.0536  7154.97  84.3208
 50.0956  7185.79  84.5712
 50.1376  7142.01  83.9984
 50.1796  7027.16  83.6035
 50.2216  7167.46  84.4197
 50.2636  7144.37  83.9028
 50.3056  7185.27  84.3151
 50.3476  7109.69  83.889
 50.3896  7086.61  83.7319
 50.4316  7207.46  84.2753
 50.4736  7220.9  84.5699
 50.5156  7143.47  84.0999
 50.5576  7137.32  83.8364
 50.5996  7128.39  84.0699
 50.6416  7076.91  83.6917
 50.6836  7179.78  84.3508
 50.7256  7186.98  84.3115
 50.7676  7156.06  84.463
 50.8096  7097.93  83.6526
 50.8516  7041.77  83.7398
 50.8936  7039.51  83.5037
 50.9356  7083.96  83.8687
 50.9776  7091.43  84.0732
 51.0196  6849.39  82.7517
 51.0616  7026.86  83.1307
 51.1036  7076.35  83.7876
 51.1456  7067.37  83.6469
 51.1876  6961.4  82.3484
 51.2296  6912.3  82.6985
 51.2716  6910.98  82.3941
 51.3136  7000.69  83.3921
 51.3556  6934.37  82.6147
 51.3976  6848.84  82.2421
 51.4396  6847.73  82.5589
 51.4816  6948.03  83.0173
 51.5236  6996.52  83.3931
 51.5656  6864.42  82.1973
 51.6076  6982.98  82.9903
 51.6496  6940.79  82.9267
 51.6916  6926.2  83.2061
 51.7336  6878.67  83.0068
 51.7756  6923.28  82.9725
 51.8176  6881.27  82.8307
 51.8596  6852.3  82.6699
 51.9016  6977.93  83.0264
 51.9436  6933.64  84.2741
 51.9856  6938.87  84.7175
 52.0276  7081.15  84.0505
 52.0696  7044.61  83.9077
 52.1116  6881.3  83.0445
 52.1536  7134.19  84.4425
 52.1956  7035.95  83.3098
 52.2376  6998.85  83.2619
 52.2796  6960.1  82.8532
 52.3216  6868.43  82.9925
 52.3636  7013.84  83.4207
 52.4056  6867.53  82.4141
 52.4476  6856.15  82.7045
 52.4896  6855.44  82.7426
 52.5316  7017.04  83.7863
 52.5736  6872.25  82.6257
 52.6156  6887.5  83.1267
 52.6576  6868.13  82.4257
 52.6996  6836.45  83.2415
 52.7416  6684.95  82.157
 52.7836  6843.24  83.0245
 52.8256  6995.78  83.1398
 52.8676  6791.91  82.5013
 52.9096  6982.61  83.7309
 52.9516  6962.11  83.9968
 52.9936  6830.27  83.5733
 53.0356  6934.61  83.1892
 53.0776  6848.59  82.9526
 53.1196  6818.37  82.896
 53.1616  6843.2  83.0882
 53.2036  6896.19  83.3798
 53.2456  6808.8  82.9553
 53.2876  6968.56  83.6047
 53.3296  6859.98  83.2849
 53.3716  7149.37  84.7698
 53.4136  6877.84  83.2958
 53.4556  6835.52  83.0581
 53.4976  6747.95  82.3711
 53.5396  6797.98  83.0698
 53.5816  6875.4  83.1805
 53.6236  6851.85  83.3949
 53.6656  6953.18  83.6006
 53.7076  6890.48  83.181
 53.7496  6872.74  83.1991
 53.7916  6856.07  83.2462
 53.8336  6865.54  83.1935
 53.8756  6728.5  82.8985
 53.9176  6788.6  82.6184
 53.9596  6528.78  81.7757
 54.0016  6572.42  81.3657
 54.0436  6553.65  81.4766
 54.0856  6695.99  81.7846
 54.1276  6659.29  81.7531
 54.1696  6553.15  81.2577
 54.2116  6728.93  82.0864
 54.2536  6555.28  80.8247
 54.2956  6616.09  81.2466
 54.3376  6584.13  81.5536
 54.3796  6500.84  80.9106
 54.4216  6628.7  81.7886
 54.4636  6481.15  80.8211
 54.5056  6576.86  81.2352
 54.5476  6519.3  81.2062
 54.5896  6609.67  81.6218
 54.6316  6659.43  81.7419
 54.6736  6556.23  81.2051
 54.7156  6489.03  80.8257
 54.7576  6444.99  80.5357
 54.7996  6547.87  81.3079
 54.8416  6556.47  81.4142
 54.8836  6537.35  81.3928
 54.9256  6494.43  80.9023
 54.9676  6445.48  80.4487
 55.0096  6552.32  81.1528
 55.0516  6397.71  80.4156
 55.0936  6565.74  81.1317
 55.1356  6343.27  79.7909
 55.1776  6598.97  81.6312
 55.2196  6429.76  80.3509
 55.2616  6615.24  81.7416
 55.3036  6375.23  80.4109
 55.3456  6342.1  80.353
 55.3876  6497.4  81.0592
 55.4296  6276.38  79.649
 55.4716  6469.48  80.886
 55.5136  6371.37  80.0509
 55.5556  6626.43  81.6894
 55.5976  6383.34  80.2528
 55.6396  6497.94  80.9155
 55.6816  6389.43  80.0743
 55.7236  6305.98  79.6289
 55.7656  6518.17  80.6879
 55.8076  6391.6  79.9074
 55.8496  6387.86  80.1873
 55.8916  6270.23  79.6632
 55.9336  6506.74  80.9752
 55.9756  6352.41  79.8691
 56.0176  6342.01  79.9543
 56.0596  6286.9  79.6227
 56.1016  6253.06  79.4261
 56.1436  6249.49  79.6349
 56.1856  6315.94  79.819
 56.2276  6492.13  80.973
 56.2696  6302.74  79.7613
 56.3116  6420.84  80.891
 56.3536  6274.31  79.6216
 56.3956  6299.84  79.7692
 56.4376  6266.07  79.5944
 56.4796  6252.89  79.3223
 56.5216  6297.2  79.9921
 56.5636  6222.83  79.0793
 56.6056  6416.77  80.5415
 56.6476  6274.08  79.2644
 56.6896  6387.03  80.4223
 56.7316  6242.61  79.4305
 56.7736  6264.08  79.5739
 56.8156  6234.63  79.4005
 56.8576  6017.03  77.9333
 56.8996  6207.89  79.0696
 56.9416  6175.99  79.1898
 56.9836  6262.24  79.2715
 57.0256  6190.01  79.1028
 57.0676  6245.18  79.5814
 57.1096  6158.38  78.8136
 57.1516  6092.28  78.4544
 57.1936  6230.14  79.0816
 57.2356  6135.89  78.8113
 57.2776  6202.48  79.2127
 57.3196  6218.44  79.6319
 57.3616  6236.38  79.266
 57.4036  6286.47  79.6102
 57.4456  6309.09  79.764
 57.4876  6323.81  79.724
 57.5296  6154.69  78.9719
 57.5716  6077.15  78.4716
 57.6136  5994.71  77.7708
 57.6556  6131.65  78.7956
 57.6976  6112.31  78.4919
 57.7396  6019.65  78.2446
 57.7816  6096.48  79.1091
 57.8236  6108.43  78.9632
 57.8656  6140.94  78.8529
 57.9076  6175.59  79.0884
 57.9496  6094.38  78.9273
 57.9916  6132.47  78.6843
 58.0336  6153.33  79.1056
 58.0756  6170.6  78.8505
 58.1176  6218.69  79.1466
 58.1596  6094.32  78.9405
 58.2016  5958.66  77.2782
 58.2436  5943.16  77.5713
 58.2856  5800.85  76.572
 58.3276  5732.71  76.4817
 58.3696  5903.03  77.3693
 58.4116  6005.32  77.8993
 58.4536  5976.04  77.5974
 58.4956  5840.03  76.885
 58.5376  5911.61  76.9264
 58.5796  5825.8  76.7856
 58.6216  5933.9  77.3169
 58.6636  5976.62  77.8027
 58.7056  5844.86  76.7989
 58.7476  5788.71  76.8617
 58.7896  5885.29  77.1511
 58.8316  5891.57  77.1898
 58.8736  5893.71  77.2132
 58.9156  5855.46  77.0066
 58.9576  5861.37  77.3597
 58.9996  5947.65  77.1863
 59.0416  5934.19  77.4563
 59.0836  5965.57  77.569
 59.1256  5849.05  77.5074
 59.1676  5875.25  77.9834
 59.2096  5895.11  77.4296
 59.2516  5730.22  75.931
 59.2936  5737.45  76.2986
 59.3356  5770.23  76.3967
 59.3776  5916.51  77.5263
 59.4196  5821.58  76.8394
 59.4616  5800.13  76.5601
 59.5036  5732.1  76.1444
 59.5456  5945.16  77.2422
 59.5876  5793.22  76.436
 59.6296  5818.57  76.6709
 59.6716  5848.46  76.9246
 59.7136  5877.88  77.1063
 59.7556  5906.63  77.4296
 59.7976  5887.26  77.0479
 59.8396  5888.33  76.9506
 59.8816  5822.85  77.0573
 59.9236  5888.55  77.1387
 59.9656  5751.26  76.4865
 60.0076  5906.6  76.8792
 60.0496  5836.51  76.9169
 60.0916  6005.53  77.4425
 60.1336  5585  75.7465
 60.1756  5670.97  77.4747
 60.1996  0.0000000E+00  0.0000000E+00