File: docs/examples/XRD/IS17_D/Data/IS17_D/17_Db_f00090.xye
# /beamlines/bl04/projects/cycle2025-II/20250340211-lsimonelli/DATA/IS17_D/17_Db_f00090.xye : mythproc.py merge -s 0.006 -l 0.5 -f /beamlines/bl04/inhouse/ff/FlatField/ff_20Nov2024rod8mm60s_17keV.raw -b True -c true -o xye /beamlines/bl04/projects/cycle2025-II/20250340211-lsimonelli/DATA/IS17_D/17_Db_00090.dat
# IsMon = [6768096, 6767063, 6768323]  IsPos = [-1.5000, -2.4884, -3.4988]
# Wave = 0.4962  CalPath /beamlines/bl04/projects/cycle2025-II/20250340211-lsimonelli/DATA/Align/Si_Pos1_25keV_f00001.cal
# Date = 2025-09-24_18:45:21 Dt = 4.8000  Bin = 0.0060  <imon> = 6767827 +/- 548 (Min/Max) 6767063 / 6768323
# icurr 251.3683  mocoIn 1.7145E-05  mocoOut 0.8049  i15 7.09227e+06  imon 6.76783e+06  i7 5.6667  iEMpd_timer 4.8000  iEMpd_1 3.4393E-08  iEMpd_2 7.8791E-08  iEMpd_3 1.5606E-08  iEMpd_4 4.7360E-08  iEMhp_timer 4.8000  iEMhp_1 4.9097E-06  iEMhp_2 -2.5389E-08  iEMhp_3 -2.2750E-08  iEMhp_4 -2.1096E-08
#      9776
 1.5856  44082  215.588
 1.6276  50959.8  227.82
 1.6696  56570.3  239.187
 1.7116  64231.7  255.368
 1.7536  71737.7  268.727
 1.7956  76176.7  277.609
 1.8376  72526.3  271.305
 1.8796  62405.1  249.816
 1.9216  51704.3  228.293
 1.9636  44343.9  211.086
 2.0056  40293.5  199.93
 2.0476  37852.3  195.903
 2.0896  36283.4  190.675
 2.1316  35126.5  186.709
 2.1736  33475.9  183.715
 2.2156  34376.5  184.676
 2.2576  33051.4  181.732
 2.2996  31774.2  178.839
 2.3416  32088.5  178.287
 2.3836  31123.7  175.694
 2.4256  30381.9  174.154
 2.4676  29818.4  172.287
 2.5096  29693.4  171.982
 2.5516  28406.8  172.073
 2.5936  28545.3  169.047
 2.6356  27905.5  167.842
 2.6776  28070  167.223
 2.7196  27402.3  165.707
 2.7616  27319.7  165.25
 2.8036  26683.7  163.471
 2.8456  26839.2  164.602
 2.8876  26340.5  162.932
 2.9296  25839  161.494
 2.9716  25585.2  160.194
 3.0136  25562.9  160.185
 3.0556  25666.7  160.904
 3.0976  25494  159.268
 3.1396  24953.7  158.295
 3.1816  24716.7  157.468
 3.2236  24761.9  157.62
 3.2656  24562.7  156.034
 3.3076  24427.4  157.07
 3.3496  24409.8  155.939
 3.3916  24827  157.082
 3.4336  25558.4  159.978
 3.4756  25685.4  160.31
 3.5176  26437.5  162.405
 3.5596  25831.5  163.542
 3.6016  26283.9  162.004
 3.6436  25396.8  160.358
 3.6856  25069.5  157.621
 3.7276  24046.8  155.456
 3.7696  24015.7  155.327
 3.8116  23503.1  153.763
 3.8536  23782.9  154.606
 3.8956  23734.2  154.261
 3.9376  23444.6  153.595
 3.9796  23446.9  153.089
 4.0216  23439.3  152.099
 4.0636  23448.1  153.597
 4.1056  23333.7  152.878
 4.1476  23779.9  154.643
 4.1896  23792.6  154.539
 4.2316  24015.4  155.088
 4.2736  24137.1  155.286
 4.3156  24432.1  156.463
 4.3576  25226.3  158.884
 4.3996  25379.8  159.651
 4.4416  26168.3  161.688
 4.4836  26477.3  162.804
 4.5256  27098.1  165.31
 4.5676  27063.4  165.462
 4.6096  27163.9  164.79
 4.6516  27803.1  166.046
 4.6936  27953.9  167.327
 4.7356  28007.1  167.309
 4.7776  28026.1  167.198
 4.8196  27920.3  167.53
 4.8616  27275.4  165.075
 4.9036  27177.2  164.5
 4.9456  26851.2  164.169
 4.9876  26329.9  162.473
 5.0296  26538.6  162.958
 5.0716  26373.1  163.197
 5.1136  26648.9  163.771
 5.1556  26827.7  163.774
 5.1976  27645.9  166.243
 5.2396  27601.5  165.806
 5.2816  27577.6  166.203
 5.3236  27687.5  166.227
 5.3656  27075.1  165.317
 5.4076  26829.5  164.707
 5.4496  26860.8  164.297
 5.4916  27107.3  164.797
 5.5336  27091.4  164.761
 5.5756  27003.5  164.498
 5.6176  27043.1  164.069
 5.6596  27313.1  165.718
 5.7016  27455.9  165.564
 5.7436  27657.2  166.451
 5.7856  27436.9  165.854
 5.8276  27770  166.568
 5.8696  28047  167.456
 5.9116  27977.8  167.972
 5.9536  28155.2  168.235
 5.9956  28396  168.344
 6.0376  28521.9  169.341
 6.0796  28582.3  169.351
 6.1216  28515.7  169.358
 6.1636  28638  168.774
 6.2056  28580.9  169.279
 6.2476  29056.1  170.363
 6.2896  29153.8  170.514
 6.3316  29227.1  170.906
 6.3736  29115  170.463
 6.4156  29217.5  170.709
 6.4576  29322.2  170.581
 6.4996  29209.4  170.73
 6.5416  29459.6  171.586
 6.5836  29264  171.257
 6.6256  29349.8  171.067
 6.6676  29986  172.474
 6.7096  29937.6  173.189
 6.7516  30172.9  173.535
 6.7936  30425.1  173.648
 6.8356  30408.6  173.706
 6.8776  30493.3  174.75
 6.9196  30917.2  176.357
 6.9616  31352.3  177.044
 7.0036  31486  177.068
 7.0456  31704.6  176.985
 7.0876  31848.9  178.991
 7.1296  31633.1  177.597
 7.1716  31468.8  176.679
 7.2136  31124.7  175.49
 7.2556  31426.7  176.497
 7.2976  31572.8  177.413
 7.3396  31290.9  176.839
 7.3816  31288.9  177.041
 7.4236  31598.8  177.213
 7.4656  31831.2  177.328
 7.5076  32065.5  178.127
 7.5496  31668.2  177.553
 7.5916  31873.5  178.172
 7.6336  32339.8  179.357
 7.6756  32510.1  179.683
 7.7176  32922.5  181.139
 7.7596  32703.5  181.754
 7.8016  33167.5  185.265
 7.8436  32694.2  180.636
 7.8856  33021.7  181.146
 7.9276  33731.7  183.482
 7.9696  33776.9  183.916
 8.0116  34847.6  185.363
 8.0536  34820.7  185.545
 8.0956  34794.2  186.635
 8.1376  35411.3  187.758
 8.1796  35568.7  188.704
 8.2216  36313.7  189.419
 8.2636  36388.2  189.867
 8.3056  36424.8  190.718
 8.3476  37134.6  191.897
 8.3896  36717.7  190.904
 8.4316  36573.9  190.694
 8.4736  36657.2  190.389
 8.5156  36503  190.26
 8.5576  36210.6  190.46
 8.5996  36047.7  188.916
 8.6416  36235.5  190.655
 8.6836  35741.3  189.184
 8.7256  36319.9  190.166
 8.7676  36217.3  192.786
 8.8096  36717.9  191.414
 8.8516  36816.6  191.286
 8.8936  36051.9  189.2
 8.9356  36415.6  190.481
 8.9776  36076.9  189.676
 9.0196  36600.2  190.705
 9.0616  35850.4  188.257
 9.1036  35513.5  188.523
 9.1456  35540.8  187.935
 9.1876  35768.5  188.477
 9.2296  35299.3  186.684
 9.2716  35128.9  186.272
 9.3136  35279.5  186.665
 9.3556  35218.2  186.481
 9.3976  34271.4  184.458
 9.4396  34333.3  184.535
 9.4816  34541.6  184.958
 9.5236  34075.5  183.596
 9.5656  33697.6  182.934
 9.6076  33176.3  182.039
 9.6496  33157.8  181.864
 9.6916  33085.3  181.616
 9.7336  33408.3  182.292
 9.7756  33114.5  182.625
 9.8176  32790.1  181.379
 9.8596  32841  179.953
 9.9016  32556.8  179.174
 9.9436  31998.2  177.376
 9.9856  31811.8  177.298
 10.0276  31520.3  177.548
 10.0696  31898.3  177.643
 10.1116  30901.7  175.115
 10.1536  30837  174.59
 10.1956  30179.8  172.833
 10.2376  30357.3  172.843
 10.2796  30234.9  172.599
 10.3216  29727.5  171.283
 10.3636  29681.8  171.333
 10.4056  29158.1  170.219
 10.4476  29560.5  170.987
 10.4896  30032.7  171.803
 10.5316  29435.2  170.471
 10.5736  29063.4  170.142
 10.6156  29162.1  170.181
 10.6576  28869.1  167.897
 10.6996  28464.3  167.413
 10.7416  28222.1  166.91
 10.7836  27751.6  166.18
 10.8256  27439.1  165.674
 10.8676  27406.5  165.118
 10.9096  27140.9  164.341
 10.9516  26969.8  162.775
 10.9936  27141.2  163.498
 11.0356  26800.2  163.074
 11.0776  26514.2  161.541
 11.1196  26124.1  161.106
 11.1616  25873.7  160.002
 11.2036  26094.4  160.531
 11.2456  25929.8  160.735
 11.2876  26354.5  161.769
 11.3296  25719  159.72
 11.3716  25867.6  159.91
 11.4136  25943.5  160.985
 11.4556  25979.3  160.755
 11.4976  26498.8  161.344
 11.5396  26738.5  162.25
 11.5816  26752.4  162.716
 11.6236  25743.2  159.865
 11.6656  25871.3  159.414
 11.7076  25248.6  158.312
 11.7496  24945.7  161.343
 11.7916  24784.9  156.112
 11.8336  24457.7  155.96
 11.8756  24571.6  155.88
 11.9176  24508.5  155.351
 11.9596  24412.9  155.222
 12.0016  24159.4  155.176
 12.0436  24176.9  154.686
 12.0856  23885.3  154.242
 12.1276  24061.1  154.767
 12.1696  24038  153.812
 12.2116  23848.4  153.196
 12.2536  23886.1  154.11
 12.2956  23616.1  152.61
 12.3376  23896.2  153.717
 12.3796  23626.7  153.328
 12.4216  23699.2  152.762
 12.4636  23465.6  152.938
 12.5056  23663.2  152.849
 12.5476  23746.3  152.636
 12.5896  23321  151.898
 12.6316  23766.2  153.489
 12.6736  23324.7  152.542
 12.7156  23446.7  152.784
 12.7576  23455.4  153.056
 12.7996  23790  152.789
 12.8416  23400.5  152.587
 12.8836  23672.8  153.301
 12.9256  24118  153.768
 12.9676  23966  153.69
 13.0096  24233.1  155.655
 13.0516  24191.4  154.553
 13.0936  23996.7  154.052
 13.1356  24581.8  155.166
 13.1776  23947  154.159
 13.2196  24270.3  154.833
 13.2616  23947.6  154.12
 13.3036  24250  155.22
 13.3456  23858.1  154.14
 13.3876  24254.3  154.689
 13.4296  23971.5  153.96
 13.4716  24213.3  154.354
 13.5136  24107.8  154.141
 13.5556  24139.5  154.88
 13.5976  24450.2  156.038
 13.6396  24107  154.304
 13.6816  24380  155.521
 13.7236  24710.6  156.273
 13.7656  26063.7  160.963
 13.8076  26791.1  161.818
 13.8496  25500.8  158.761
 13.8916  24430.2  156.301
 13.9336  23858.6  153.759
 13.9756  23861  153.141
 14.0176  23621.8  153.055
 14.0596  23642.9  153.044
 14.1016  23483.7  152.958
 14.1436  23546.7  152.292
 14.1856  22855.4  150.329
 14.2276  22780.5  150.564
 14.2696  22870.1  150.714
 14.3116  22265.6  148.621
 14.3536  22150.2  148.391
 14.3956  22016.9  147.681
 14.4376  22179.5  148.008
 14.4796  22122.7  147.815
 14.5216  21964.2  148.067
 14.5636  21740.1  146.889
 14.6056  21892.5  146.961
 14.6476  21970.4  146.465
 14.6896  21468.1  145.326
 14.7316  21244.5  145.599
 14.7736  21057  144.105
 14.8156  20798.4  143.235
 14.8576  20768.4  142.993
 14.8996  20396.8  142.898
 14.9416  20039.5  141.653
 14.9836  20009.9  141.528
 15.0256  19486.4  138.594
 15.0676  19489.6  138.911
 15.1096  19447.4  138.504
 15.1516  19144.1  137.976
 15.1936  18888.7  136.485
 15.2356  18545.6  135.511
 15.2776  18776.8  135.947
 15.3196  18419.3  135.629
 15.3616  18112.8  134.256
 15.4036  18252.2  134.639
 15.4456  18439.2  134.978
 15.4876  18149.1  133.6
 15.5296  18202.3  134.08
 15.5716  17829.8  132.308
 15.6136  17953.6  133.092
 15.6556  17832.2  131.888
 15.6976  17695.2  131.677
 15.7396  17494.5  131.304
 15.7816  17496  130.829
 15.8236  17181.3  130.325
 15.8656  17370.6  130.842
 15.9076  17013.6  129.314
 15.9496  17689.2  134.658
 15.9916  17618  134.77
 16.0336  17540.3  131.364
 16.0756  17355.9  131
 16.1176  17124.4  130.026
 16.1596  17015.2  130.954
 16.2016  16905.3  129.295
 16.2436  16975.6  129.944
 16.2856  16852.2  128.999
 16.3276  16480.8  128.001
 16.3696  16637  128.432
 16.4116  16773.6  129.405
 16.4536  16712.3  128.965
 16.4956  16761.8  128.891
 16.5376  16407.6  127.715
 16.5796  16317  126.727
 16.6216  16350.3  127.123
 16.6636  16251.4  126.932
 16.7056  16450.6  127.562
 16.7476  16397.4  126.882
 16.7896  16222.1  126.942
 16.8316  16172.3  126.731
 16.8736  16558.9  128.492
 16.9156  16340  127.967
 16.9576  16093.1  127.788
 16.9996  15956.1  127.707
 17.0416  16241.6  127.243
 17.0836  16127.7  126.556
 17.1256  15973.8  125.959
 17.1676  15986  125.977
 17.2096  15973.5  125.816
 17.2516  15929.2  125.725
 17.2936  15690.5  124.831
 17.3356  15615.3  124.518
 17.3776  15680.2  124.959
 17.4196  15508.1  123.979
 17.4616  15230.1  122.773
 17.5036  15112.9  122.657
 17.5456  15078  123.136
 17.5876  15232  122.819
 17.6296  15491.8  123.669
 17.6716  15082.1  122.622
 17.7136  14920.4  122.08
 17.7556  15052.1  122.925
 17.7976  14863.6  121.894
 17.8396  14771.6  121.02
 17.8816  14652.3  121.088
 17.9236  14725.5  121.187
 17.9656  14550.1  120.986
 18.0076  14667.5  121.045
 18.0496  14735.7  120.464
 18.0916  14678  120.78
 18.1336  14656.1  120.792
 18.1756  14882.9  121.27
 18.2176  14491  119.87
 18.2596  14549.3  119.843
 18.3016  14846.5  121.325
 18.3436  14630.6  120.445
 18.3856  14772.3  121.152
 18.4276  14637.9  120.29
 18.4696  14361.1  119.222
 18.5116  14537  120.234
 18.5536  14427.6  120.138
 18.5956  14411.5  119.634
 18.6376  14083.8  118.672
 18.6796  14244.8  118.672
 18.7216  14209.5  119.004
 18.7636  14235.8  119.114
 18.8056  14172.8  118.778
 18.8476  13817.9  117.904
 18.8896  13931  117.721
 18.9316  14127.5  118.534
 18.9736  13919.2  117.358
 19.0156  13928.3  117.808
 19.0576  14141.9  117.552
 19.0996  14219  118.595
 19.1416  14079.5  118.408
 19.1836  13896.2  117.239
 19.2256  13681.9  116.553
 19.2676  14040.8  118.151
 19.3096  13692.7  116.924
 19.3516  13998.5  117.997
 19.3936  13732.9  116.955
 19.4356  14001.7  117.969
 19.4776  13773.2  117.096
 19.5196  13795.3  117.037
 19.5616  13624.4  116.573
 19.6036  13674.2  116.283
 19.6456  13823.6  117.033
 19.6876  13815.7  116.643
 19.7296  14063.4  118.146
 19.7716  13715.5  116.85
 19.8136  14113.5  118.72
 19.8556  14199.3  118.569
 19.8976  14125.8  118.308
 19.9396  14076.4  117.703
 19.9816  14202.9  118.478
 20.0236  14346.5  119.267
 20.0656  14382.4  119.416
 20.1076  14358.9  119.798
 20.1496  13942.2  118.046
 20.1916  13917  117.408
 20.2336  13666.6  116.312
 20.2756  13527.9  116.159
 20.3176  13580.5  116.134
 20.3596  13359.9  115.174
 20.4016  13283.2  114.636
 20.4436  13269.7  115.138
 20.4856  13276.9  114.965
 20.5276  13216.6  115.164
 20.5696  13133.1  114.361
 20.6116  12957.7  113.762
 20.6536  13090.2  113.867
 20.6956  13035.7  113.751
 20.7376  13006.7  113.837
 20.7796  13111  113.984
 20.8216  13018.4  113.293
 20.8636  13087.7  113.969
 20.9056  13063.8  113.8
 20.9476  13000.6  113.374
 20.9896  13076.4  113.573
 21.0316  12941  112.886
 21.0736  12905.5  113.243
 21.1156  12822.5  113.037
 21.1576  12910.7  113.461
 21.1996  12891.4  113.363
 21.2416  13013.8  113.722
 21.2836  12959.3  113.461
 21.3256  12948.9  113.49
 21.3676  12928.1  112.945
 21.4096  12692.8  112.276
 21.4516  12656  111.921
 21.4936  12510.3  111.545
 21.5356  12570.6  111.766
 21.5776  12692.6  112.139
 21.6196  12504.4  111.344
 21.6616  12757.6  112.551
 21.7036  12624.5  111.729
 21.7456  12699.3  112.135
 21.7876  12594.6  111.443
 21.8296  12553.2  111.107
 21.8716  12656.7  111.791
 21.9136  12807.1  112.657
 21.9556  12594.9  111.393
 21.9976  12558  111.263
 22.0396  12402.4  110.819
 22.0816  12396.7  111.314
 22.1236  12634.7  111.837
 22.1656  12513.1  111.445
 22.2076  12270.5  109.829
 22.2496  12338.5  110.159
 22.2916  12354.1  110.11
 22.3336  12228.9  110.267
 22.3756  12415.4  110.826
 22.4176  12287.2  110.102
 22.4596  12060.2  109.664
 22.5016  12055.5  109.156
 22.5436  12260.5  109.954
 22.5856  12318.2  110.459
 22.6276  12404.5  110.977
 22.6696  12350.6  111.092
 22.7116  12295.2  110.358
 22.7536  12274  110.236
 22.7956  12128.8  108.931
 22.8376  12115.5  109.379
 22.8796  12199.2  109.561
 22.9216  12177.3  109.996
 22.9636  12241.3  109.453
 23.0056  12077.1  108.848
 23.0476  12332.4  110.558
 23.0896  12523.7  110.793
 23.1316  12513.1  111.18
 23.1736  12424.6  113.707
 23.2156  12579.4  111.788
 23.2576  12884  113.272
 23.2996  12491.3  111.302
 23.3416  12667.8  112.623
 23.3836  12512.9  111.166
 23.4256  12719  112.195
 23.4676  12590.4  111.324
 23.5096  12373.3  111.009
 23.5516  12460.9  110.701
 23.5936  12547.3  112.001
 23.6356  12621.2  111.991
 23.6776  12462.4  111.498
 23.7196  12437.5  111.179
 23.7616  12500  111.161
 23.8036  12692  112.063
 23.8456  12451.7  110.558
 23.8876  12337  110.397
 23.9296  12274  110.603
 23.9716  12344.5  110.122
 24.0136  12291.1  110.786
 24.0556  12259.8  110.363
 24.0976  12073.6  109.337
 24.1396  11950.1  111.383
 24.1816  12119.1  110.575
 24.2236  12132.2  110.265
 24.2656  12031.7  109.287
 24.3076  11945.8  109.165
 24.3496  11877.8  108.731
 24.3916  12089.3  109.749
 24.4336  11981.1  109.453
 24.4756  11898.4  108.965
 24.5176  11794.9  108.113
 24.5596  11879.6  108.822
 24.6016  11691.8  108.053
 24.6436  11818.7  108.152
 24.6856  11684.1  107.28
 24.7276  11577.4  107.115
 24.7696  11536.3  107.034
 24.8116  11440.6  106.76
 24.8536  11372  106.447
 24.8956  11485.6  106.696
 24.9376  11470.6  106.806
 24.9796  11255  105.912
 25.0216  11264  106.075
 25.0636  11320.6  106.001
 25.1056  11102.5  105.656
 25.1476  11076.4  107.159
 25.1896  11105.9  105.823
 25.2316  11105  105.099
 25.2736  11057.2  104.529
 25.3156  11131.7  104.945
 25.3576  11025.1  104.873
 25.3996  11100.9  105.223
 25.4416  11021.5  104.823
 25.4836  10856.4  104.549
 25.5256  10940.4  104.318
 25.5676  10991.4  104.29
 25.6096  10936.6  104.602
 25.6516  10841.5  103.658
 25.6936  10958.6  104.531
 25.7356  10822.9  104.015
 25.7776  10924.6  104.162
 25.8196  10796.6  103.726
 25.8616  10693.2  103.162
 25.9036  10916.5  103.691
 25.9456  10791.3  103.688
 25.9876  10931.4  104.271
 26.0296  10944.2  104.003
 26.0716  10842.6  103.939
 26.1136  10863.6  103.969
 26.1556  10876.9  103.418
 26.1976  10715.6  103.574
 26.2396  10740.2  102.851
 26.2816  10727.8  103.397
 26.3236  10640  103.122
 26.3656  10935  104.271
 26.4076  10667.7  103.199
 26.4496  10875.3  103.782
 26.4916  10988.3  104.233
 26.5336  11291.8  105.991
 26.5756  11632  107.458
 26.6176  10894.9  104.026
 26.6596  10778.2  103.753
 26.7016  10627.1  102.802
 26.7436  10727  103.407
 26.7856  10415.9  101.885
 26.8276  10610  102.799
 26.8696  10564.9  102.45
 26.9116  10483.2  101.988
 26.9536  10466.5  101.962
 26.9956  10257.5  100.972
 27.0376  10499.3  102.372
 27.0796  10417.7  101.699
 27.1216  10396.6  101.66
 27.1636  10320.9  101.452
 27.2056  10344.1  101.456
 27.2476  10405.2  101.73
 27.2896  10176.6  100.736
 27.3316  10283.4  100.987
 27.3736  10192.2  100.81
 27.4156  10258.4  100.964
 27.4576  10238.5  101.096
 27.4996  10239.7  100.7
 27.5416  10081.3  100.226
 27.5836  10098.7  100.154
 27.6256  10149.3  100.587
 27.6676  10252.3  101.08
 27.7096  10156.3  100.481
 27.7516  9994.57  99.8349
 27.7936  10441  102.173
 27.8356  10274.4  100.966
 27.8776  10367.9  101.5
 27.9196  10061.4  99.8469
 27.9616  10076.3  100.12
 28.0036  10053.9  99.9753
 28.0456  10045.7  100.07
 28.0876  9984.22  99.8514
 28.1296  10041.4  99.9643
 28.1716  10032.3  99.9415
 28.2136  10094.8  100.215
 28.2556  9944.77  99.5806
 28.2976  9877.23  99.2378
 28.3396  9872.74  98.9739
 28.3816  9939.2  99.3241
 28.4236  9795.45  98.753
 28.4656  9797.72  98.806
 28.5076  9810.17  98.5089
 28.5496  9807.79  98.7485
 28.5916  9892.1  98.9859
 28.6336  9780  98.7594
 28.6756  9779.27  97.961
 28.7176  9809.13  98.665
 28.7596  9760.48  98.3062
 28.8016  9645.86  97.77
 28.8436  9631.91  97.9341
 28.8856  9727.29  98.2726
 28.9276  9705.41  98.4049
 28.9696  9612.08  97.5874
 29.0116  9618.66  97.8086
 29.0536  9534.87  97.5916
 29.0956  9627.79  97.7561
 29.1376  9630.38  97.7467
 29.1796  9673.28  98.0214
 29.2216  9461.64  96.7849
 29.2636  9650.54  97.8156
 29.3056  9521.61  96.9452
 29.3476  9577.33  97.7529
 29.3896  9530.73  97.6269
 29.4316  9418.09  96.3942
 29.4736  9239.53  95.5372
 29.5156  9464.77  96.6197
 29.5576  9342.82  96.721
 29.5996  9442.61  96.5032
 29.6416  9315.27  95.9656
 29.6836  9383.37  96.2462
 29.7256  9292.55  96.3344
 29.7676  9273.57  95.9021
 29.8096  9197.94  95.4549
 29.8516  9108.52  95.3161
 29.8936  9238.05  96.0821
 29.9356  9333.16  96.3326
 29.9776  9210.37  95.8403
 30.0196  9167.24  95.0198
 30.0616  9196.88  95.5444
 30.1036  9348.99  96.1554
 30.1456  9136.42  95.2803
 30.1876  9282.68  96.0269
 30.2296  9169.69  95.3889
 30.2716  9170.72  95.0367
 30.3136  9286.46  96.4848
 30.3556  9447.29  97.3124
 30.3976  9306.25  98.0605
 30.4396  9789.3  97.9003
 30.4816  9476.03  95.934
 30.5236  9479.84  95.9436
 30.5656  9416.68  96.295
 30.6076  9308.73  95.5014
 30.6496  9472.42  96.3788
 30.6916  9287.31  95.5413
 30.7336  9412.38  96.3305
 30.7756  9404.06  96.3557
 30.8176  9280.51  95.6605
 30.8596  9312.95  95.5706
 30.9016  9503.54  96.4198
 30.9436  9429.81  96.2825
 30.9856  9404.82  96.2625
 31.0276  9218.66  94.9394
 31.0696  9279.61  95.8059
 31.1116  9090.05  94.791
 31.1536  9169.62  95.0894
 31.1956  9278.17  95.7399
 31.2376  9028.26  94.4677
 31.2796  9235.05  95.0802
 31.3216  9220.62  94.9282
 31.3636  9217.98  95.6203
 31.4056  9228.76  96.9748
 31.4476  9323.12  95.3827
 31.4896  9270.14  95.6113
 31.5316  9229.29  94.8095
 31.5736  9399.75  95.5094
 31.6156  9409.84  95.5648
 31.6576  9298.89  95.0795
 31.6996  9463.3  95.5904
 31.7416  9266.15  95.5268
 31.7836  9233.3  94.5092
 31.8256  9356.52  95.3976
 31.8676  9385.4  95.5286
 31.9096  9101.68  94.2921
 31.9516  9165.36  94.9475
 31.9936  9039.82  94.1226
 32.0356  9148.9  94.7297
 32.0776  9148.62  94.6156
 32.1196  9224.63  95.0314
 32.1616  9306.19  94.9919
 32.2036  9145.91  94.6786
 32.2456  9141.65  95.035
 32.2876  9200.25  94.8334
 32.3296  9141.92  94.4907
 32.3716  8937.87  93.5535
 32.4136  8937.11  93.7506
 32.4556  9072.36  93.8418
 32.4976  8992.98  93.3814
 32.5396  8923.25  93.0312
 32.5816  8976.49  93.4436
 32.6236  8937.89  93.3094
 32.6656  9088.38  94.6354
 32.7076  8869.01  93.1426
 32.7496  8826.23  92.5949
 32.7916  8981.23  93.3601
 32.8336  8878.25  92.9185
 32.8756  8834.68  92.4128
 32.9176  8721.03  92.2983
 32.9596  8766.69  92.5999
 33.0016  8890.66  93.0349
 33.0436  8881.08  93.1566
 33.0856  8796.62  92.8088
 33.1276  8610.5  91.5535
 33.1696  8878.02  92.7856
 33.2116  8738.84  92.3042
 33.2536  8957.26  93.4227
 33.2956  8800.18  92.6943
 33.3376  8676  91.8631
 33.3796  8833.84  92.8312
 33.4216  8813.74  92.321
 33.4636  8888.85  92.866
 33.5056  8580.9  91.4875
 33.5476  8757.93  92.3955
 33.5896  8710.5  91.9489
 33.6316  8787.78  92.6587
 33.6736  8683.74  92.3595
 33.7156  8651.36  92.2109
 33.7576  8750.7  92.3903
 33.7996  8703.26  91.9009
 33.8416  8564  91.3484
 33.8836  8623.1  91.4394
 33.9256  8711.7  91.9642
 33.9676  8651.84  91.5436
 34.0096  8642.76  91.8114
 34.0516  8491.51  90.6445
 34.0936  8526.91  91.1013
 34.1356  8655.78  91.5268
 34.1776  8496.1  90.6753
 34.2196  8457.13  90.6494
 34.2616  8489.95  90.9617
 34.3036  8688.45  92.2637
 34.3456  8563.34  91.351
 34.3876  8525.27  91.2129
 34.4296  8459.26  90.4561
 34.4716  8479.24  90.7226
 34.5136  8630.98  91.7138
 34.5556  8418.8  90.8417
 34.5976  8634.2  91.8344
 34.6396  8568.71  91.1676
 34.6816  8513.08  90.9789
 34.7236  8594.71  91.1747
 34.7656  8446.33  90.6028
 34.8076  8426.04  90.8303
 34.8496  8391.47  90.4907
 34.8916  8477.07  90.8161
 34.9336  8430.67  90.5507
 34.9756  8590.21  91.344
 35.0176  8533.74  91.5507
 35.0596  8537.09  91.3914
 35.1016  8657.09  91.7815
 35.1436  8657.41  91.4686
 35.1856  8484.09  90.6671
 35.2276  8421.85  90.514
 35.2696  8433.39  90.7592
 35.3116  8366.07  90.5031
 35.3536  8494.45  90.9272
 35.3956  8278.03  89.4512
 35.4376  8469.19  91.0431
 35.4796  8329.37  90.3336
 35.5216  8358.62  90.4502
 35.5636  8176.33  90.1989
 35.6056  8291.71  89.863
 35.6476  8402.78  90.3556
 35.6896  8374.76  90.298
 35.7316  8351.73  90.1472
 35.7736  8285.25  89.9704
 35.8156  8317.68  90.1442
 35.8576  8351.34  90.5826
 35.8996  8418.9  90.908
 35.9416  8325.17  89.925
 35.9836  8179.52  89.5707
 36.0256  8508.38  91.2544
 36.0676  8495.18  90.9523
 36.1096  8315.25  90.127
 36.1516  8453.37  90.7594
 36.1936  8313.87  89.8444
 36.2356  8377.66  90.842
 36.2776  8331.72  90.0618
 36.3196  8331.41  89.7419
 36.3616  8278.39  89.5791
 36.4036  8283.57  89.6738
 36.4456  8293.65  89.9435
 36.4876  8087.03  88.7457
 36.5296  8123.58  88.9953
 36.5716  8187.91  90.1173
 36.6136  8203.83  88.9987
 36.6556  8085.23  88.5471
 36.6976  8086.83  89.0488
 36.7396  8067.9  88.6823
 36.7816  7921.5  88.2389
 36.8236  7973.8  88.4529
 36.8656  7962.2  88.4578
 36.9076  8046.4  88.8062
 36.9496  7963.48  88.3335
 36.9916  8094.06  88.6857
 37.0336  8103.8  89.0534
 37.0756  7975.64  88.1388
 37.1176  7922.26  88.1123
 37.1596  7952.76  88.2873
 37.2016  7837.51  87.8652
 37.2436  8015.39  88.1834
 37.2856  7951.43  88.0745
 37.3276  7867.42  86.9811
 37.3696  7921.28  88.1517
 37.4116  7895.76  87.9141
 37.4536  7847.55  87.5158
 37.4956  7849.52  87.5656
 37.5376  8076.6  90.3902
 37.5796  8041.85  90.1377
 37.6216  8113.13  88.8
 37.6636  8043.89  88.3148
 37.7056  8036.97  88.4668
 37.7476  8133.82  88.5349
 37.7896  7971.76  88.1552
 37.8316  7926.55  88.0501
 37.8736  7967.6  87.814
 37.9156  7959.88  87.7716
 37.9576  7972.07  87.7498
 37.9996  7767.89  86.3337
 38.0416  7863.96  87.6538
 38.0836  8165.2  89.2285
 38.1256  8035.82  88.4954
 38.1676  7751.74  87.0357
 38.2096  8055.55  88.3264
 38.2516  7970.49  88.0903
 38.2936  8122.91  88.7182
 38.3356  7912.14  87.4966
 38.3776  7932.91  87.8463
 38.4196  8021.63  88.1999
 38.4616  7902.76  87.7887
 38.5036  8041.02  88.4026
 38.5456  7862.59  88.245
 38.5876  7818.96  88.0164
 38.6296  7959.66  87.7711
 38.6716  7883.7  87.1648
 38.7136  7900.55  87.1998
 38.7556  7836.8  87.3479
 38.7976  7879.98  87.5103
 38.8396  7782.08  87.4242
 38.8816  7707.39  86.8064
 38.9236  7803.31  87.1495
 38.9656  7924.61  87.7206
 39.0076  7825.78  86.595
 39.0496  7997.53  88.0872
 39.0916  7999.02  87.7425
 39.1336  7889.67  87.5395
 39.1756  7841.17  87.3154
 39.2176  7883.77  88.1036
 39.2596  7959.85  88.462
 39.3016  7838.17  87.3674
 39.3436  7833.53  87.7501
 39.3856  7980.7  88.0068
 39.4276  8000.88  88.6329
 39.4696  7880.62  87.5901
 39.5116  7903.13  88.2191
 39.5536  7898.53  88.6145
 39.5956  7782.71  87.0822
 39.6376  7810.91  87.2414
 39.6796  7863.57  87.2785
 39.7216  7813.55  87.0956
 39.7636  7875.71  87.9969
 39.8056  7925.42  88.07
 39.8476  7853.06  87.9189
 39.8896  7818.85  87.3545
 39.9316  7752.63  87.2378
 39.9736  7871.95  87.48
 40.0156  7781.46  86.8076
 40.0576  7922.26  87.9382
 40.0996  7878.65  86.8793
 40.1416  7855  87.5477
 40.1836  7854.56  87.4317
 40.2256  7853.42  87.465
 40.2676  7750.92  87.0682
 40.3096  7875.11  87.6275
 40.3516  7905.59  87.9009
 40.3936  7835.84  87.0756
 40.4356  7880.27  87.5206
 40.4776  7933.06  88.0414
 40.5196  7915.01  88.2483
 40.5616  7976.8  88.2277
 40.6036  7822.74  87.6311
 40.6456  7810.57  87.1733
 40.6876  7964.79  88.0178
 40.7296  7781.79  87.1311
 40.7716  7821.32  87.478
 40.8136  7790.06  87.2449
 40.8556  7940.79  88.2209
 40.8976  7908.77  87.9552
 40.9396  7951.4  88.5449
 40.9816  7911.46  87.6162
 41.0236  7840.43  87.0092
 41.0656  7979.91  88.3127
 41.1076  7876.73  87.51
 41.1496  7865.48  87.3552
 41.1916  7869.13  87.6984
 41.2336  7941.3  88.0956
 41.2756  7837.15  87.124
 41.3176  7840.27  87.7491
 41.3596  7911.97  87.8803
 41.4016  7848.41  87.7884
 41.4436  7887.33  87.7959
 41.4856  7828.07  87.6248
 41.5276  7880.25  87.9357
 41.5696  7901.26  87.6881
 41.6116  7911.78  88.1279
 41.6536  7846.96  87.6193
 41.6956  7903.22  87.9278
 41.7376  7723.77  87.0218
 41.7796  7770.84  87.1745
 41.8216  7860.18  87.9049
 41.8636  7797.29  87.4961
 41.9056  7718.66  86.8434
 41.9476  7877.35  87.9681
 41.9896  7926.96  87.9071
 42.0316  7951.47  88.1339
 42.0736  7773.01  87.269
 42.1156  7839.89  87.453
 42.1576  7873.82  87.7468
 42.1996  7842.33  87.6885
 42.2416  7836.54  87.2602
 42.2836  7800.37  87.1723
 42.3256  7715.69  86.7949
 42.3676  7996.45  88.1712
 42.4096  7814.74  87.1359
 42.4516  7859.63  87.4627
 42.4936  7757.96  86.9597
 42.5356  7697.12  86.7673
 42.5776  7844.45  87.5282
 42.6196  7865.12  87.7012
 42.6616  7606.61  86.4135
 42.7036  7806.45  86.9268
 42.7456  7962.9  88.1508
 42.7876  7765.16  87.1269
 42.8296  7745.75  86.8637
 42.8716  7765.67  87.1499
 42.9136  7568.5  85.7867
 42.9556  7771.77  87.0986
 42.9976  7778.55  87.1074
 43.0396  7728.41  86.5478
 43.0816  7772.75  87.1866
 43.1236  7663.72  86.6253
 43.1656  7713.42  86.7275
 43.2076  7705.75  86.7973
 43.2496  7614.81  86.1059
 43.2916  7652.68  86.6761
 43.3336  7717.06  86.8754
 43.3756  7693.96  86.4986
 43.4176  7602.76  86.0699
 43.4596  7635.79  86.1114
 43.5016  7635.37  86.5058
 43.5436  7622.8  86.3495
 43.5856  7607.77  86.2835
 43.6276  7746.05  86.9607
 43.6696  7624.26  86.5315
 43.7116  7701.22  86.4574
 43.7536  7677.33  86.8252
 43.7956  7596.69  87.5804
 43.8376  7559.58  85.8914
 43.8796  7469.25  85.4571
 43.9216  7508.96  85.605
 43.9636  7637.54  86.4411
 44.0056  7444.54  85.5702
 44.0476  7409.93  85.0064
 44.0896  7452.49  85.5907
 44.1316  7561.06  85.7366
 44.1736  7504.18  85.5411
 44.2156  7502.38  85.3851
 44.2576  7402.64  85.1337
 44.2996  7586.91  86.1579
 44.3416  7523.92  85.5593
 44.3836  7308.32  84.649
 44.4256  7431.99  85.0082
 44.4676  7337.21  84.615
 44.5096  7456.23  85.4463
 44.5516  7396.39  85.0681
 44.5936  7216.48  83.9808
 44.6356  7389.28  84.7207
 44.6776  7460.25  85.4442
 44.7196  7443.07  85.6495
 44.7616  7506.4  87.3354
 44.8036  7577.65  86.3718
 44.8456  7570.88  86.3324
 44.8876  7554.18  86.0795
 44.9296  7594.97  85.7603
 44.9716  7553.87  85.9589
 45.0136  7649.7  86.431
 45.0556  7623.65  86.3812
 45.0976  7542.18  85.974
 45.1396  7450.59  85.1905
 45.1816  7528.31  85.5797
 45.2236  7659.38  86.2242
 45.2656  7321.16  84.7928
 45.3076  7501.95  85.6102
 45.3496  7451.97  85.6399
 45.3916  7473.44  86.0302
 45.4336  7508.59  86.0799
 45.4756  7476.58  85.7523
 45.5176  7570.58  85.8991
 45.5596  7593.36  86.1495
 45.6016  7513.93  86.1211
 45.6436  7582.88  85.6843
 45.6856  7575.25  86.2785
 45.7276  7310.36  86.081
 45.7696  7358.14  86.0518
 45.8116  7389.67  85.6671
 45.8536  7332.84  85.2178
 45.8956  7453.29  85.2826
 45.9376  7492.18  84.9645
 45.9796  7364.49  84.9245
 46.0216  7484.77  85.9479
 46.0636  7497.25  85.1668
 46.1056  7368.23  84.4224
 46.1476  7446.36  85.4526
 46.1896  7477.54  85.7887
 46.2316  7434.64  85.412
 46.2736  7464.01  85.7887
 46.3156  7411.4  85.2338
 46.3576  7490.41  85.8891
 46.3996  7374.48  85.3705
 46.4416  7488.95  85.5935
 46.4836  7559.58  86.38
 46.5256  7438.65  85.6273
 46.5676  7337.02  85.1515
 46.6096  7480.03  85.9
 46.6516  7358.89  84.2492
 46.6936  7467.5  85.3694
 46.7356  7422.89  85.2123
 46.7776  7315.97  85.4398
 46.8196  7332.39  85.2898
 46.8616  7223.93  84.4539
 46.9036  7185.69  83.8904
 46.9456  7249.2  83.8869
 46.9876  7275.41  84.1401
 47.0296  7384.19  85.452
 47.0716  7299.86  84.7912
 47.1136  7332.9  84.6516
 47.1556  7368.08  84.7247
 47.1976  7412.54  85.1385
 47.2396  7355.71  85.1411
 47.2816  7290.55  84.4632
 47.3236  7397.59  85.441
 47.3656  7387.12  85.325
 47.4076  7404.04  85.1435
 47.4496  7356.07  85.0442
 47.4916  7225.37  84.472
 47.5336  7405.14  85.3271
 47.5756  7443.83  85.6689
 47.6176  7258.2  84.4944
 47.6596  7291.25  84.399
 47.7016  7396.5  84.8148
 47.7436  7320.9  84.7266
 47.7856  7363.72  84.9977
 47.8276  7280.72  84.5702
 47.8696  7346.24  85.033
 47.9116  7458.7  85.3918
 47.9536  7380.08  84.8797
 47.9956  7279.77  85.0145
 48.0376  7230.92  84.4956
 48.0796  7396.17  85.5861
 48.1216  7271.15  84.6862
 48.1636  7367.42  84.8087
 48.2056  7417.95  85.3701
 48.2476  7403.93  85.5997
 48.2896  7399.69  85.4858
 48.3316  7388.66  85.363
 48.3736  7349.75  85.1605
 48.4156  7317.24  84.8253
 48.4576  7228.96  84.6036
 48.4996  7374.8  84.9004
 48.5416  7414.41  85.4611
 48.5836  7256.74  84.2212
 48.6256  7303.83  84.6982
 48.6676  7319.81  85.3042
 48.7096  7285.39  84.3752
 48.7516  7349.49  84.8961
 48.7936  7207.62  84.1414
 48.8356  7244.86  84.4049
 48.8776  7276.49  85.1676
 48.9196  7429.48  85.4112
 48.9616  7282.34  84.9552
 49.0036  7396.21  85.9619
 49.0456  7176.56  84.6592
 49.0876  7289.18  84.847
 49.1296  7182.77  84.3901
 49.1716  7160.9  84.1415
 49.2136  7231.32  84.4734
 49.2556  7225.04  84.4681
 49.2976  7389.93  85.4989
 49.3396  7239.91  84.6881
 49.3816  7373.1  84.8753
 49.4236  7303  84.9083
 49.4656  7151.08  84.0367
 49.5076  7270.45  84.4816
 49.5496  7165.9  83.9341
 49.5916  7294.43  84.5979
 49.6336  7250.36  84.5478
 49.6756  7279.44  84.9564
 49.7176  7255.41  84.7507
 49.7596  7241.05  84.4384
 49.8016  7272.07  84.5374
 49.8436  7207.75  84.46
 49.8856  7184.48  84.3298
 49.9276  7198.55  84.5107
 49.9696  7275.3  84.945
 50.0116  7158.72  84.3845
 50.0536  7223.5  84.7211
 50.0956  7152.53  84.3732
 50.1376  7164.57  84.136
 50.1796  7134.47  84.2338
 50.2216  7168.36  84.4302
 50.2636  7169.21  84.045
 50.3056  7095.87  83.7954
 50.3476  7166.94  84.2328
 50.3896  7048.94  83.5074
 50.4316  7278.37  84.6931
 50.4736  7069.99  83.6816
 50.5156  7132.76  84.0536
 50.5576  7243.85  84.4441
 50.5996  7181.3  84.3795
 50.6416  7090.14  83.7642
 50.6836  7232.79  84.6693
 50.7256  7234.43  84.6011
 50.7676  7213.73  84.7997
 50.8096  7219.91  84.3573
 50.8516  7099.58  84.0748
 50.8936  7016.49  83.3725
 50.9356  7170.39  84.3894
 50.9776  7131.01  84.3174
 51.0196  6836.18  82.6848
 51.0616  7043.38  83.2425
 51.1036  7043.47  83.6045
 51.1456  6999.05  83.2477
 51.1876  7105.97  83.211
 51.2296  7088.56  83.7566
 51.2716  6912.65  82.4165
 51.3136  6805.14  82.2328
 51.3556  6966.98  82.8214
 51.3976  6990.27  83.1023
 51.4396  6736.16  81.8913
 51.4816  6961.77  83.11
 51.5236  6914.97  82.9169
 51.5656  6989.78  82.9539
 51.6076  7022.03  83.2317
 51.6496  6903.68  82.7169
 51.6916  6919.96  83.1764
 51.7336  6934.3  83.3551
 51.7756  6915.72  82.9334
 51.8176  6781.41  82.2389
 51.8596  6814.69  82.4547
 51.9016  7084.15  83.6677
 51.9436  6998.69  84.673
 51.9856  6932.04  84.6853
 52.0276  7074.19  84.0042
 52.0696  7137.16  84.4425
 52.1116  6997.65  83.742
 52.1536  6893.25  82.9467
 52.1956  6966.91  82.8958
 52.2376  7103.69  83.8714
 52.2796  6953.69  82.8096
 52.3216  6860.03  82.9425
 52.3636  6934.19  82.9352
 52.4056  6925.37  82.763
 52.4476  7038.32  83.7849
 52.4896  6869.08  82.8305
 52.5316  6976.01  83.5276
 52.5736  6878.11  82.6505
 52.6156  6990.64  83.7345
 52.6576  6870.47  82.4341
 52.6996  6850.31  83.3205
 52.7416  6792.2  82.8168
 52.7836  6976.67  83.8235
 52.8256  6995.53  83.1339
 52.8676  6690.32  81.8733
 52.9096  6997.11  83.8045
 52.9516  6846.76  83.3005
 52.9936  6846.44  83.665
 53.0356  6895.89  82.9605
 53.0776  6924.55  83.4086
 53.1196  6964.88  83.7695
 53.1616  6874  83.2756
 53.2036  6745.11  82.4523
 53.2456  6831  83.0828
 53.2876  6757.24  82.3234
 53.3296  6846.98  83.2001
 53.3716  7059.33  84.2024
 53.4136  6838.92  83.0514
 53.4556  6909.2  83.5045
 53.4976  6873.43  83.1223
 53.5396  6763.53  82.8606
 53.5816  6974  83.7566
 53.6236  6747.25  82.7451
 53.6656  6963.85  83.6598
 53.7076  6811.95  82.7031
 53.7496  6869.18  83.1773
 53.7916  6946.15  83.7818
 53.8336  6814.89  82.8715
 53.8756  6700.61  82.7313
 53.9176  6688.93  81.9943
 53.9596  6540.39  81.8398
 54.0016  6583.5  81.4397
 54.0436  6523.16  81.2938
 54.0856  6655.64  81.5374
 54.1276  6647.21  81.6646
 54.1696  6542.08  81.1993
 54.2116  6714.6  81.9994
 54.2536  6565.46  80.8954
 54.2956  6658.64  81.5048
 54.3376  6554.39  81.3588
 54.3796  6588.62  81.4768
 54.4216  6629.16  81.7944
 54.4636  6539.13  81.1934
 54.5056  6547.21  81.0379
 54.5476  6488.92  81.0394
 54.5896  6423.5  80.4571
 54.6316  6609.67  81.4486
 54.6736  6521.61  80.9829
 54.7156  6591.38  81.4508
 54.7576  6413.44  80.3281
 54.7996  6653.02  81.9869
 54.8416  6567.21  81.5015
 54.8836  6581.2  81.6552
 54.9256  6513.6  81.0068
 54.9676  6375.58  80.0232
 55.0096  6444.38  80.4887
 55.0516  6378.57  80.295
 55.0936  6428.78  80.2811
 55.1356  6409.88  80.1995
 55.1776  6567.17  81.433
 55.2196  6502.01  80.807
 55.2616  6593.41  81.592
 55.3036  6376.05  80.4211
 55.3456  6255.23  79.7917
 55.3876  6467.8  80.8446
 55.4296  6275.94  79.654
 55.4716  6425.71  80.6254
 55.5136  6372.48  80.0516
 55.5556  6476.19  80.7399
 55.5976  6404.71  80.3772
 55.6396  6458.13  80.5811
 55.6816  6444.05  80.4356
 55.7236  6198.14  78.9458
 55.7656  6428.16  80.1203
 55.8076  6355.29  79.6837
 55.8496  6561.51  81.3843
 55.8916  6270.01  79.6629
 55.9336  6478.29  80.7885
 55.9756  6330.59  79.7391
 56.0176  6383.68  80.205
 56.0596  6398.6  80.3175
 56.1016  6275.01  79.5625
 56.1436  6272.8  79.7958
 56.1856  6272.93  79.5433
 56.2276  6463.41  80.791
 56.2696  6313.98  79.8365
 56.3116  6413.28  80.8247
 56.3536  6260.34  79.5359
 56.3956  6264.42  79.5278
 56.4376  6282.49  79.7028
 56.4796  6190.24  78.9297
 56.5216  6281.8  79.8761
 56.5636  6277.66  79.43
 56.6056  6306.03  79.8511
 56.6476  6279.14  79.278
 56.6896  6411.9  80.5875
 56.7316  6294.96  79.7637
 56.7736  6277.15  79.6588
 56.8156  6317.65  79.931
 56.8576  6109.57  78.5408
 56.8996  6242.26  79.2715
 56.9416  6176.92  79.2027
 56.9836  6348.69  79.7996
 57.0256  6182.79  79.067
 57.0676  6370.76  80.3584
 57.1096  6197.4  79.0697
 57.1516  6204.92  79.1487
 57.1936  6192.77  78.8416
 57.2356  6120.88  78.7088
 57.2776  6242.33  79.4561
 57.3196  6276.96  80.0264
 57.3616  6207.28  79.0639
 57.4036  6151.83  78.7587
 57.4456  6378.83  80.1893
 57.4876  6121.92  78.4374
 57.5296  6130.33  78.8129
 57.5716  6130.66  78.8235
 57.6136  6010.4  77.8829
 57.6556  6211.1  79.2913
 57.6976  6214.89  79.1564
 57.7396  6093.58  78.7143
 57.7816  6040.43  78.7497
 57.8236  6011.57  78.351
 57.8656  6172.1  79.0529
 57.9076  6156.34  78.9665
 57.9496  6150.75  79.2936
 57.9916  6207.41  79.1698
 58.0336  6153.76  79.0966
 58.0756  6071.19  78.1851
 58.1176  6077  78.2347
 58.1596  6044.53  78.6154
 58.2016  5884.94  76.8102
 58.2436  5831.71  76.8603
 58.2856  5868.98  77.0321
 58.3276  5848.31  77.2616
 58.3696  5881.23  77.2339
 58.4116  5884.32  77.1214
 58.4536  5906.42  77.1542
 58.4956  5759.18  76.3614
 58.5376  5941.78  77.1355
 58.5796  5891.21  77.2249
 58.6216  5962.68  77.5156
 58.6636  5938.45  77.5615
 58.7056  5926.72  77.3454
 58.7476  5804.71  76.982
 58.7896  5878.18  77.1175
 58.8316  5852.44  76.9417
 58.8736  6055.59  78.2785
 58.9156  5767.51  76.4352
 58.9576  5749.62  76.6243
 58.9996  6067.64  77.9707
 59.0416  5977.27  77.7443
 59.0836  5848.92  76.8215
 59.1256  5824.88  77.3572
 59.1676  5794.84  77.4619
 59.2096  5865.52  77.2472
 59.2516  5943.63  77.3442
 59.2936  5863.38  77.1436
 59.3356  5817.5  76.7212
 59.3776  5861.31  77.176
 59.4196  5747.06  76.3581
 59.4616  5757.45  76.2899
 59.5036  5730.96  76.1488
 59.5456  6032.69  77.821
 59.5876  5793.07  76.447
 59.6296  5790.72  76.4993
 59.6716  5860.19  77.0138
 59.7136  5932.1  77.4734
 59.7556  5868.12  77.1889
 59.7976  5846.49  76.7928
 59.8396  5646.67  75.3669
 59.8816  5717.8  76.3706
 59.9236  5879.52  77.0917
 59.9656  5779.51  76.6881
 60.0076  5889.49  76.7798
 60.0496  5773.97  76.5156
 60.0916  5903.33  76.7928
 60.1336  5805.68  77.2407
 60.1756  5743.59  77.9815
 60.1996  0.0000000E+00  0.0000000E+00