File: docs/examples/XRD/IS17_D/Data/IS17_D/17_Db_f00151.xye
# /beamlines/bl04/projects/cycle2025-II/20250340211-lsimonelli/DATA/IS17_D/17_Db_f00151.xye : mythproc.py merge -s 0.006 -l 0.5 -f /beamlines/bl04/inhouse/ff/FlatField/ff_20Nov2024rod8mm60s_17keV.raw -b True -c true -o xye /beamlines/bl04/projects/cycle2025-II/20250340211-lsimonelli/DATA/IS17_D/17_Db_00151.dat
# IsMon = [6750952, 6753038, 6754289]  IsPos = [-1.4999, -2.4883, -3.4988]
# Wave = 0.4962  CalPath /beamlines/bl04/projects/cycle2025-II/20250340211-lsimonelli/DATA/Align/Si_Pos1_25keV_f00001.cal
# Date = 2025-09-25_11:48:53 Dt = 4.8000  Bin = 0.0060  <imon> = 6752760 +/- 1376 (Min/Max) 6750952 / 6754289
# icurr 250.4989  mocoIn 1.7085E-05  mocoOut 0.8016  i15 7.07905e+06  imon 6.75276e+06  i7 4.0000  iEMpd_timer 4.8000  iEMpd_1 3.3588E-08  iEMpd_2 7.8818E-08  iEMpd_3 1.6717E-08  iEMpd_4 4.6869E-08  iEMhp_timer 4.8000  iEMhp_1 4.8922E-06  iEMhp_2 -2.5992E-08  iEMhp_3 -2.3707E-08  iEMhp_4 -1.9735E-08
#      9776
 1.5856  44592.6  216.867
 1.6276  51279.9  228.569
 1.6696  57031.8  240.198
 1.7116  63888.9  254.725
 1.7536  71451.7  268.232
 1.7956  76027.3  277.377
 1.8376  72640.2  271.559
 1.8796  62783.2  250.613
 1.9216  52126  229.258
 1.9636  44797.3  211.661
 2.0056  41229.4  202.269
 2.0476  37981.3  196.267
 2.0896  36620  191.587
 2.1316  35866  188.693
 2.1736  34082.4  185.401
 2.2156  34978.9  186.316
 2.2576  33328.8  182.52
 2.2996  32343.4  180.462
 2.3416  32262  178.797
 2.3836  31756.5  177.499
 2.4256  30904.3  175.672
 2.4676  30280.7  173.644
 2.5096  30088.2  173.147
 2.5516  28772.2  173.176
 2.5936  29025.6  170.453
 2.6356  28348.6  169.177
 2.6776  28008.8  167.043
 2.7196  28039  167.243
 2.7616  27821.2  166.77
 2.8036  27352.1  165.525
 2.8456  27279.2  165.95
 2.8876  26478  163.348
 2.9296  26186.7  162.592
 2.9716  26015.8  161.54
 3.0136  25718  160.682
 3.0556  26008.5  161.972
 3.0976  25691.3  159.884
 3.1396  25391.1  159.69
 3.1816  25671.3  160.21
 3.2236  24970.6  158.277
 3.2656  24882.8  157.046
 3.3076  24679.8  157.888
 3.3496  24990.3  157.783
 3.3916  25371.8  158.812
 3.4336  25796.7  160.732
 3.4756  26084.9  161.563
 3.5176  26681  163.16
 3.5596  26487.7  165.039
 3.6016  26442.7  162.491
 3.6436  25828.1  161.711
 3.6856  25380.1  158.594
 3.7276  24426.5  156.677
 3.7696  24251.8  156.298
 3.8116  23941  155.194
 3.8536  24140.5  155.761
 3.8956  23810.7  154.518
 3.9376  23827.4  154.843
 3.9796  23716.8  153.972
 4.0216  23597.1  152.607
 4.0636  23735.2  154.547
 4.1056  23741.7  154.209
 4.1476  24013.7  155.41
 4.1896  24159.3  155.72
 4.2316  24338.7  156.134
 4.2736  24635.4  156.878
 4.3156  24938.7  158.074
 4.3576  25513.6  159.785
 4.3996  25628  160.429
 4.4416  26300.6  162.098
 4.4836  26586.1  163.134
 4.5256  27146.5  165.464
 4.5676  26962.2  165.15
 4.6096  27670.8  165.954
 4.6516  27949.9  166.484
 4.6936  27902.8  167.171
 4.7356  28327.3  168.262
 4.7776  28006  167.128
 4.8196  28003.1  167.785
 4.8616  27524  165.825
 4.9036  27445.6  165.322
 4.9456  27075.3  164.852
 4.9876  26501.8  163.001
 5.0296  26825.2  163.829
 5.0716  26546.2  163.731
 5.1136  27035.9  164.956
 5.1556  26949.6  164.144
 5.1976  27504.6  165.823
 5.2396  27600.5  165.794
 5.2816  27610.2  166.311
 5.3236  27509.9  165.694
 5.3656  27198.2  165.692
 5.4076  26888.3  164.885
 5.4496  26980.6  164.659
 5.4916  27341.7  165.504
 5.5336  27037.8  164.591
 5.5756  27200.2  165.105
 5.6176  27342.2  164.974
 5.6596  27687.6  167.011
 5.7016  27756.3  166.466
 5.7436  27649  166.426
 5.7856  27797.6  166.941
 5.8276  27938.9  167.068
 5.8696  28161.1  167.909
 5.9116  28127.8  168.119
 5.9536  28599.8  169.564
 5.9956  28545  168.788
 6.0376  28747.4  170.014
 6.0796  28962.7  170.476
 6.1216  28710.9  169.977
 6.1636  29071.1  170.037
 6.2056  28882.6  170.17
 6.2476  29204.8  170.988
 6.2896  29344  171.068
 6.3316  29251.5  170.972
 6.3736  29331.9  171.102
 6.4156  29537.5  171.585
 6.4576  29458.5  170.98
 6.4996  29630.1  171.948
 6.5416  29596.5  171.982
 6.5836  29440.2  171.762
 6.6256  29706.4  172.104
 6.6676  30316.1  173.425
 6.7096  30291.3  174.217
 6.7516  30646.1  174.887
 6.7936  30456.8  173.745
 6.8356  30667.7  174.443
 6.8776  30849.5  175.764
 6.9196  30867.7  176.209
 6.9616  31299.1  176.89
 7.0036  32015.1  178.558
 7.0456  31896  177.518
 7.0876  31756.2  178.821
 7.1296  31918  178.393
 7.1716  31936.5  177.988
 7.2136  31763.4  177.284
 7.2556  31798.7  177.537
 7.2976  31829.9  178.132
 7.3396  31547.2  177.553
 7.3816  31642.2  178.037
 7.4236  31862.5  177.95
 7.4656  32264.1  178.515
 7.5076  32354.4  178.93
 7.5496  32175.3  178.963
 7.5916  32508.2  179.936
 7.6336  32692.9  180.337
 7.6756  32850.7  180.62
 7.7176  33261.2  182.074
 7.7596  33201.1  183.137
 7.8016  33715.3  186.799
 7.8436  33496.3  182.825
 7.8856  33669.6  182.907
 7.9276  34055.4  184.346
 7.9696  34521.2  185.913
 8.0116  35432.7  186.899
 8.0536  35383.8  187.012
 8.0956  35364.1  188.146
 8.1376  35862.8  188.937
 8.1796  35980.4  189.783
 8.2216  36582.9  190.111
 8.2636  37117  191.774
 8.3056  36684  191.387
 8.3476  37515.3  192.867
 8.3896  37167.2  192.054
 8.4316  37256.1  192.45
 8.4736  37657.7  192.955
 8.5156  37063.1  191.699
 8.5576  36454.1  191.694
 8.5996  36682.3  190.558
 8.6416  36712.3  191.894
 8.6836  36378.3  190.847
 8.7256  37168.8  192.361
 8.7676  36845.1  194.446
 8.8096  37214  192.71
 8.8516  37046.5  191.85
 8.8936  36580.8  190.586
 8.9356  37050.8  192.151
 8.9776  36791.3  191.547
 9.0196  37044.2  191.879
 9.0616  36801.6  190.744
 9.1036  36333.3  190.7
 9.1456  35952.2  189.021
 9.1876  36340.4  189.988
 9.2296  36049.3  188.657
 9.2716  35877.4  188.252
 9.3136  36006.1  188.587
 9.3556  36235  189.159
 9.3976  35105.3  186.714
 9.4396  35108.3  186.622
 9.4816  35030.3  186.269
 9.5236  34385.4  184.446
 9.5656  34102.2  184.041
 9.6076  33676.8  183.407
 9.6496  34088.7  184.415
 9.6916  33902.1  183.858
 9.7336  34089  184.15
 9.7756  33701  184.36
 9.8176  33570.9  183.528
 9.8596  33508.1  181.792
 9.9016  33166.4  180.852
 9.9436  32929.6  180.119
 9.9856  32446.4  179.064
 10.0276  31920.1  178.644
 10.0696  32308  178.796
 10.1116  31269.9  176.166
 10.1536  31402  176.697
 10.1956  31057.9  175.332
 10.2376  30924.7  174.459
 10.2796  30967.6  174.688
 10.3216  30455.1  173.531
 10.3636  30605.9  173.989
 10.4056  29581.5  171.449
 10.4476  29826  171.768
 10.4896  29886.3  171.537
 10.5316  29204.7  170.147
 10.5736  29408.1  171.156
 10.6156  29232.5  170.399
 10.6576  29479.3  169.662
 10.6996  28853.9  168.559
 10.7416  28277  167.074
 10.7836  28114.6  167.27
 10.8256  27905.7  167.074
 10.8676  27702.2  166.002
 10.9096  27781.6  166.264
 10.9516  27624.2  164.724
 10.9936  27509.6  164.608
 11.0356  27414  164.932
 11.0776  27242.5  163.746
 11.1196  26824.5  163.252
 11.1616  26474.6  161.851
 11.2036  26698.7  162.384
 11.2456  26579.3  162.736
 11.2876  26879.9  163.378
 11.3296  26327.6  161.6
 11.3716  26704.6  162.438
 11.4136  26617.7  163.065
 11.4556  26642  162.789
 11.4976  27265.1  163.663
 11.5396  27456.2  164.411
 11.5816  27268.8  164.289
 11.6236  26577.5  162.434
 11.6656  26625.6  161.726
 11.7076  25634.5  159.516
 11.7496  25315  162.534
 11.7916  25350.4  157.885
 11.8336  24941.1  157.492
 11.8756  24811.1  156.636
 11.9176  24808.9  156.299
 11.9596  24812.6  156.488
 12.0016  24625.3  156.397
 12.0436  24905.4  157
 12.0856  24173.3  155.164
 12.1276  24360.2  155.726
 12.1696  24239.3  154.453
 12.2116  24339.7  154.77
 12.2536  24122  154.893
 12.2956  24069.3  154.066
 12.3376  24284.5  154.967
 12.3796  24119.6  154.922
 12.4216  23987.5  153.695
 12.4636  23710.4  153.734
 12.5056  24025  154.012
 12.5476  24098.7  153.769
 12.5896  23899.8  153.771
 12.6316  24079.4  154.508
 12.6736  23720.7  154.008
 12.7156  24015.9  154.616
 12.7576  23892.2  154.482
 12.7996  23893.1  153.124
 12.8416  23952.1  154.37
 12.8836  23987.4  154.218
 12.9256  24490.8  154.953
 12.9676  24289.9  154.705
 13.0096  24434.8  156.307
 13.0516  24444.8  155.357
 13.0936  24872.6  157.132
 13.1356  24840  155.968
 13.1776  24418.7  155.67
 13.2196  24657.6  156.065
 13.2616  24311.9  155.284
 13.3036  24622  156.237
 13.3456  24195.7  155.216
 13.3876  24710.9  156.151
 13.4296  24312.6  155.035
 13.4716  24669.2  155.797
 13.5136  24466.5  155.285
 13.5556  24713.4  156.713
 13.5976  24550.3  156.359
 13.6396  24555.5  155.724
 13.6816  24606.6  156.365
 13.7236  25046.7  157.342
 13.7656  26652.8  162.768
 13.8076  27362.2  163.54
 13.8496  27014.3  163.191
 13.8916  24801.9  157.514
 13.9336  24207.6  154.87
 13.9756  24244.5  154.373
 14.0176  23809.5  153.654
 14.0596  23918.2  153.937
 14.1016  23693.9  153.641
 14.1436  23958  153.621
 14.1856  23326.9  151.878
 14.2276  23436.8  152.717
 14.2696  23177.7  151.724
 14.3116  22756.3  150.245
 14.3536  22689.5  150.191
 14.3956  22521.6  149.358
 14.4376  22668.6  149.628
 14.4796  22485.6  149.026
 14.5216  22201  148.854
 14.5636  22346.3  148.912
 14.6056  22195.1  147.971
 14.6476  22256.1  147.416
 14.6896  21786  146.398
 14.7316  21484.3  146.424
 14.7736  21441.8  145.413
 14.8156  21398.2  145.288
 14.8576  21287.4  144.766
 14.8996  20765.4  144.178
 14.9416  20313.9  142.618
 14.9836  20254.7  142.388
 15.0256  19631.2  139.098
 15.0676  19768.5  140.021
 15.1096  19766.2  139.623
 15.1516  19370.1  138.775
 15.1936  19242.4  137.746
 15.2356  19330.3  138.217
 15.2776  19093.3  137.08
 15.3196  18639.3  136.424
 15.3616  18588.1  135.996
 15.4036  18763.4  136.501
 15.4456  18841.4  136.433
 15.4876  18399.8  134.509
 15.5296  18437.1  134.933
 15.5716  18009.7  132.964
 15.6136  17948.4  133.063
 15.6556  17970.2  132.389
 15.6976  17904.9  132.441
 15.7396  17698.1  132.055
 15.7816  17603.9  131.226
 15.8236  17514.6  131.572
 15.8656  17424.6  131.036
 15.9076  17353.8  130.586
 15.9496  18234.7  136.722
 15.9916  17815.4  135.541
 16.0336  17932.3  132.839
 16.0756  17698.6  132.286
 16.1176  17474.3  131.518
 16.1596  17063.3  131.134
 16.2016  16881.5  129.208
 16.2436  17031.3  130.159
 16.2856  16822.1  128.859
 16.3276  16689.6  128.811
 16.3696  17060.9  130.048
 16.4116  16807.1  129.539
 16.4536  16940.7  129.853
 16.4956  16940  129.582
 16.5376  16609.2  128.499
 16.5796  16620.4  127.909
 16.6216  16836.6  128.99
 16.6636  16393.1  127.476
 16.7056  16608.1  128.177
 16.7476  16603.1  127.687
 16.7896  16492.7  128.002
 16.8316  16431.9  127.75
 16.8736  16715  129.106
 16.9156  16580.4  128.908
 16.9576  16430.1  129.126
 16.9996  16162.7  128.545
 17.0416  16537.2  128.391
 17.0836  16519.2  128.083
 17.1256  16340.6  127.393
 17.1676  16379.2  127.506
 17.2096  16057.1  126.149
 17.2516  16177.9  126.41
 17.2936  16042.4  126.228
 17.3356  15985.1  125.994
 17.3776  15860.1  125.686
 17.4196  15722.1  124.831
 17.4616  15696  124.638
 17.5036  15358.8  123.657
 17.5456  15506.7  124.87
 17.5876  15618.8  124.372
 17.6296  15560.8  123.978
 17.6716  15116.2  122.769
 17.7136  15251.6  123.449
 17.7556  15099.9  123.123
 17.7976  15224.3  123.362
 17.8396  15036.4  122.103
 17.8816  14911  122.154
 17.9236  14990.5  122.272
 17.9656  14838.1  122.169
 18.0076  14929  122.131
 18.0496  14970.9  121.428
 18.0916  14839.3  121.446
 18.1336  14786.4  121.324
 18.1756  15019.9  121.828
 18.2176  14638.7  120.477
 18.2596  14666  120.322
 18.3016  15013.2  122.002
 18.3436  14956.1  121.776
 18.3856  14689.9  120.822
 18.4276  14749  120.745
 18.4696  14596.5  120.202
 18.5116  14563.1  120.334
 18.5536  14563.5  120.706
 18.5956  14502.3  120.009
 18.6376  14413  120.041
 18.6796  14471.6  119.591
 18.7216  14412.4  119.845
 18.7636  14382.2  119.723
 18.8056  14282.1  119.235
 18.8476  14132.7  119.228
 18.8896  14299  119.274
 18.9316  14295.1  119.225
 18.9736  14243.7  118.716
 19.0156  14161.5  118.791
 19.0576  14361.1  118.466
 19.0996  14242.3  118.826
 19.1416  14222.3  119.008
 19.1836  14197.6  118.506
 19.2256  14090.5  118.273
 19.2676  14109.8  118.442
 19.3096  14135  118.799
 19.3516  14119.4  118.692
 19.3936  14015  118.148
 19.4356  14280.5  119.148
 19.4776  13930.1  117.761
 19.5196  14113.2  118.378
 19.5616  13965  118.02
 19.6036  14014.1  117.719
 19.6456  13936  117.509
 19.6876  13990.5  117.375
 19.7296  14254.5  118.947
 19.7716  14019.1  118.129
 19.8136  14304.7  119.523
 19.8556  14321.8  119.072
 19.8976  14408.8  119.482
 19.9396  14463.4  119.309
 19.9816  14375.1  119.258
 20.0236  14757.4  120.966
 20.0656  14751.7  120.938
 20.1076  14733.5  121.357
 20.1496  14324.6  119.657
 20.1916  14271.5  118.949
 20.2336  14119.4  118.233
 20.2756  13773.2  117.208
 20.3176  13587.8  116.171
 20.3596  13580.2  116.118
 20.4016  13642.5  116.182
 20.4436  13501.3  116.134
 20.4856  13476.4  115.826
 20.5276  13490  116.349
 20.5696  13583.8  116.204
 20.6116  13412.5  115.737
 20.6536  13302.5  114.783
 20.6956  13299.9  114.898
 20.7376  13095.6  114.217
 20.7796  13216.1  114.443
 20.8216  13383  114.866
 20.8636  13316.2  114.962
 20.9056  13199.9  114.394
 20.9476  13169.8  114.114
 20.9896  13439.4  115.142
 21.0316  13150.3  113.791
 21.0736  13139.8  114.264
 21.1156  13076.1  114.143
 21.1576  13117.6  114.362
 21.1996  13114.3  114.34
 21.2416  13199.9  114.538
 21.2836  13135.9  114.229
 21.3256  13146.8  114.366
 21.3676  13216.8  114.186
 21.4096  13019.1  113.659
 21.4516  12915.8  113.082
 21.4936  12815.1  112.899
 21.5356  13027.7  113.781
 21.5776  13046.7  113.695
 21.6196  12949.1  113.309
 21.6616  12677  112.19
 21.7036  12938.1  113.107
 21.7456  12912.8  113.086
 21.7876  12813  112.399
 21.8296  12832.5  112.333
 21.8716  12825.3  112.535
 21.9136  12933.2  113.208
 21.9556  12700.2  111.853
 21.9976  12701.8  111.899
 22.0396  12700.8  112.147
 22.0816  12581.9  112.145
 22.1236  12652.5  111.92
 22.1656  12756.1  112.519
 22.2076  12493.8  110.81
 22.2496  12469.8  110.73
 22.2916  12426.6  110.424
 22.3336  12447.7  111.241
 22.3756  12462  111.026
 22.4176  12312.3  110.215
 22.4596  12164.6  110.128
 22.5016  12319.4  110.339
 22.5436  12594.2  111.432
 22.5856  12671.7  112.025
 22.6276  12575.6  111.768
 22.6696  12387  111.246
 22.7116  12463.6  111.101
 22.7536  12560.4  111.506
 22.7956  12520.8  110.669
 22.8376  12242.8  109.944
 22.8796  12445.3  110.652
 22.9216  12491  111.397
 22.9636  12288.6  109.651
 23.0056  12316.9  109.914
 23.0476  12567  111.594
 23.0896  12664.8  111.405
 23.1316  12523.1  111.216
 23.1736  12532.4  113.993
 23.2156  12840.4  112.948
 23.2576  12836.7  113.075
 23.2996  12539.5  111.526
 23.3416  12734.4  112.931
 23.3836  12796.4  112.421
 23.4256  12891.8  112.97
 23.4676  12560.4  111.195
 23.5096  12803.3  112.916
 23.5516  12433.3  110.588
 23.5936  12655.3  112.488
 23.6356  12925.8  113.343
 23.6776  12601.9  112.121
 23.7196  12571  111.561
 23.7616  12577.6  111.507
 23.8036  12851.6  112.774
 23.8456  12505.5  110.79
 23.8876  12455.3  110.929
 23.9296  12431.9  111.31
 23.9716  12296.1  109.913
 24.0136  12586.7  112.114
 24.0556  12335.7  110.696
 24.0976  12113.2  109.517
 24.1396  12213.2  112.623
 24.1816  12305.3  111.433
 24.2236  12305.1  111.048
 24.2656  12125.4  109.712
 24.3076  12126.5  109.991
 24.3496  12156.8  110.002
 24.3916  12051  109.57
 24.4336  12213.2  110.513
 24.4756  12072.9  109.764
 24.5176  11935.9  108.773
 24.5596  11969.1  109.033
 24.6016  11846  108.778
 24.6436  11978.6  108.888
 24.6856  11913.6  108.329
 24.7276  11575.6  107.098
 24.7696  11676  107.68
 24.8116  11494.8  107.015
 24.8536  11575.2  107.398
 24.8956  11466.7  106.627
 24.9376  11661.8  107.448
 24.9796  11577.7  107.434
 25.0216  11395.8  106.7
 25.0636  11496.7  106.825
 25.1056  11368.2  106.921
 25.1476  11208.3  107.781
 25.1896  11215.7  106.34
 25.2316  11298.9  106.008
 25.2736  11164.9  105.032
 25.3156  11271.6  105.595
 25.3576  11079.7  105.137
 25.3996  11225.8  105.812
 25.4416  11199.4  105.664
 25.4836  10903.3  104.767
 25.5256  11050.7  104.841
 25.5676  11118.8  104.897
 25.6096  10944.5  104.645
 25.6516  11015.2  104.484
 25.6936  11118.8  105.293
 25.7356  11098.7  105.333
 25.7776  11061.2  104.743
 25.8196  10878.6  104.121
 25.8616  10904.5  104.176
 25.9036  11091.9  104.522
 25.9456  10914.9  104.282
 25.9876  10937.1  104.45
 26.0296  10997  104.248
 26.0716  11179.4  105.546
 26.1136  10998.7  104.614
 26.1556  11024.8  104.124
 26.1976  10849.1  104.217
 26.2396  10860.2  103.429
 26.2816  10856.5  104.021
 26.3236  10939.8  104.571
 26.3656  11045  104.791
 26.4076  10842.7  104.007
 26.4496  11027.3  104.512
 26.4916  11157.1  105.004
 26.5336  11303.6  106.048
 26.5756  11675.5  107.656
 26.6176  11040.4  104.679
 26.6596  10957.4  104.628
 26.7016  10873.2  103.98
 26.7436  10910.2  104.296
 26.7856  10708.1  103.303
 26.8276  10700.1  103.231
 26.8696  10604.5  102.644
 26.9116  10659.1  102.841
 26.9536  10608.4  102.648
 26.9956  10447  101.895
 27.0376  10521.7  102.486
 27.0796  10544.7  102.321
 27.1216  10554.7  102.432
 27.1636  10432.8  102.004
 27.2056  10441.2  101.928
 27.2476  10520.5  102.301
 27.2896  10394.5  101.828
 27.3316  10354.6  101.329
 27.3736  10240.5  101.04
 27.4156  10504.2  102.174
 27.4576  10266.1  101.233
 27.4996  10548.3  102.208
 27.5416  10387.7  101.738
 27.5836  10368.7  101.486
 27.6256  10228  100.976
 27.6676  10212.3  100.886
 27.7096  10319.4  101.293
 27.7516  10165  100.677
 27.7936  10484.4  102.391
 27.8356  10408.7  101.633
 27.8776  10437.1  101.846
 27.9196  10195.6  100.515
 27.9616  10330  101.373
 28.0036  10177.3  100.581
 28.0456  10029  99.9832
 28.0876  10162.7  100.731
 28.1296  10072.1  100.057
 28.1716  10221.2  100.877
 28.2136  10068.6  100.083
 28.2556  10054.1  100.131
 28.2976  10060.5  100.157
 28.3396  10034.3  99.777
 28.3816  10109.7  100.161
 28.4236  9880.83  99.1783
 28.4656  9965.22  99.643
 28.5076  9877.09  98.8427
 28.5496  9915.71  99.2914
 28.5916  10049.1  99.7611
 28.6336  9955.46  99.6451
 28.6756  10073.5  99.4228
 28.7176  9894.49  98.9795
 28.7596  9837.66  98.7003
 28.8016  9875.64  98.9268
 28.8436  9863.71  99.1059
 28.8856  9766.09  98.5169
 28.9276  9892.25  99.3472
 28.9696  9835.38  98.7188
 29.0116  9721.14  98.3316
 29.0536  9702.68  98.4445
 29.0956  9757.6  98.415
 29.1376  9693.48  98.0618
 29.1796  9708.73  98.1988
 29.2216  9779.2  98.3934
 29.2636  9783.05  98.4887
 29.3056  9644.41  97.5617
 29.3476  9774.79  98.7558
 29.3896  9754.46  98.7667
 29.4316  9634.04  97.4854
 29.4736  9423.41  96.476
 29.5156  9526.79  96.9239
 29.5576  9608.42  98.0795
 29.5996  9520.74  96.8941
 29.6416  9539.11  97.0993
 29.6836  9401.92  96.3327
 29.7256  9451.68  96.9167
 29.7676  9474.02  96.9255
 29.8096  9417.66  96.5811
 29.8516  9289.67  96.2499
 29.8936  9396.67  96.896
 29.9356  9414.61  96.7444
 29.9776  9331.75  96.4632
 30.0196  9270.04  95.8151
 30.0616  9408.52  96.6303
 30.1036  9260.23  95.6962
 30.1456  9343.79  96.3525
 30.1876  9216.67  95.6781
 30.2296  9376.84  96.4529
 30.2716  9347.85  95.944
 30.3136  9501.53  97.5877
 30.3556  9626.85  98.2343
 30.3976  9477.96  98.9806
 30.4396  9772.36  97.8184
 30.4816  9558.3  96.3437
 30.5236  9658.33  96.8574
 30.5656  9537.82  96.9041
 30.6076  9606.86  96.6665
 30.6496  9424.46  96.1508
 30.6916  9248.21  95.3278
 30.7336  9529.31  96.9252
 30.7756  9549.44  97.1177
 30.8176  9491  96.7338
 30.8596  9449.75  96.2677
 30.9016  9472.9  96.7507
 30.9436  9662.22  97.4497
 30.9856  9657.28  97.549
 31.0276  9368.87  95.7152
 31.0696  9397.16  96.4031
 31.1116  9382.42  96.3181
 31.1536  9198.48  95.2485
 31.1956  9358.5  96.1485
 31.2376  9224.25  95.4917
 31.2796  9314.92  95.4937
 31.3216  9332.81  95.5243
 31.3636  9401.43  96.5685
 31.4056  9360.01  97.6374
 31.4476  9344.83  95.4921
 31.4896  9396.95  96.2606
 31.5316  9419.15  95.7798
 31.5736  9415.23  95.5921
 31.6156  9350.5  95.2652
 31.6576  9586.65  96.5368
 31.6996  9526.35  95.9045
 31.7416  9147.72  95.0606
 31.7836  9552.71  96.116
 31.8256  9428.75  95.766
 31.8676  9538.11  96.3116
 31.9096  9336.65  95.6652
 31.9516  9219.27  95.2262
 31.9936  9252.55  95.2211
 32.0356  9292.45  95.4815
 32.0776  9392.47  95.8849
 32.1196  9301.3  95.525
 32.1616  9408.57  95.5139
 32.2036  9311.96  95.5405
 32.2456  9219.79  95.4402
 32.2876  9257.37  95.1381
 32.3296  9239.26  95.0018
 32.3716  8971.39  93.7232
 32.4136  8960.26  93.8595
 32.4556  9070.94  93.8329
 32.4976  9122.93  94.0101
 32.5396  9016.58  93.5238
 32.5816  9093.91  94.052
 32.6236  9162.17  94.4636
 32.6656  9157.38  94.995
 32.7076  8925.4  93.4373
 32.7496  9051.25  93.7688
 32.7916  9040.89  93.6714
 32.8336  8899.51  93.0223
 32.8756  9082.37  93.7021
 32.9176  8859.01  93.023
 32.9596  8862.94  93.1135
 33.0016  8966.33  93.4268
 33.0436  8957.16  93.5515
 33.0856  8968.13  93.7111
 33.1276  8860.23  92.8717
 33.1696  8955.76  93.2131
 33.2116  9034.07  93.8449
 33.2536  9013.67  93.7255
 33.2956  8897.67  93.2097
 33.3376  9038.34  93.683
 33.3796  8937.91  93.3778
 33.4216  8910.83  92.8239
 33.4636  8833.68  92.5769
 33.5056  8834.33  92.8282
 33.5476  8874.2  93.0122
 33.5896  8919.75  93.0468
 33.6316  8885.96  93.176
 33.6736  8698.15  92.437
 33.7156  8834.39  93.1805
 33.7576  8809.15  92.697
 33.7996  8811.54  92.4714
 33.8416  8672.47  91.9219
 33.8836  8596.86  91.2984
 33.9256  8966.84  93.3028
 33.9676  8862.04  92.6507
 34.0096  8752.24  92.3871
 34.0516  8784.78  92.1913
 34.0936  8700.91  92.0285
 34.1356  8896.65  92.7926
 34.1776  8755.95  92.0568
 34.2196  8530.61  91.0481
 34.2616  8643.48  91.7831
 34.3036  8627.8  91.9416
 34.3456  8696.63  92.0581
 34.3876  8770.26  92.4261
 34.4296  8652.19  91.4938
 34.4716  8713.55  91.959
 34.5136  8606.49  91.5826
 34.5556  8621.27  91.922
 34.5976  8672.61  92.0091
 34.6396  8572.6  91.3076
 34.6816  8703.81  91.9961
 34.7236  8634.43  91.4039
 34.7656  8577.54  91.3107
 34.8076  8585.82  91.6836
 34.8496  8429.76  90.7692
 34.8916  8551.83  91.2138
 34.9336  8578.44  91.3395
 34.9756  8535.84  91.036
 35.0176  8573.92  91.7652
 35.0596  8732.93  92.4301
 35.1016  8648.57  91.7397
 35.1436  8725.36  91.8305
 35.1856  8670.37  91.655
 35.2276  8490.35  90.8747
 35.2696  8544.41  91.3676
 35.3116  8462.42  91.024
 35.3536  8454.95  90.6887
 35.3956  8407.03  90.1485
 35.4376  8612.59  91.8142
 35.4796  8487.85  91.1807
 35.5216  8525.54  91.3521
 35.5636  8283.06  90.7856
 35.6056  8461.13  90.7695
 35.6476  8553.11  91.1648
 35.6896  8556.62  91.2737
 35.7316  8445.21  90.6523
 35.7736  8379.53  90.4905
 35.8156  8441.71  90.829
 35.8576  8534.55  91.5659
 35.8996  8522.93  91.4745
 35.9416  8450.83  90.5949
 35.9836  8429.49  90.8164
 36.0256  8557.89  91.5308
 36.0676  8756.61  92.3258
 36.1096  8562.11  91.4554
 36.1516  8403.54  90.4904
 36.1936  8448.86  90.5621
 36.2356  8417.78  91.0607
 36.2776  8335.32  90.0922
 36.3196  8328.68  89.7217
 36.3616  8414.64  90.3204
 36.4036  8309.89  89.817
 36.4456  8471.27  90.9034
 36.4876  8262.52  89.7105
 36.5296  8308.31  89.9975
 36.5716  8344.08  90.9627
 36.6136  8241.81  89.1985
 36.6556  8231.82  89.3416
 36.6976  8102.36  89.1281
 36.7396  8026.01  88.611
 36.7816  8058.28  88.991
 36.8236  8145.39  89.3959
 36.8656  8050.93  88.9431
 36.9076  8056.28  88.852
 36.9496  8083.9  88.9937
 36.9916  8090.46  88.6612
 37.0336  8115.66  89.109
 37.0756  8159.07  89.1442
 37.1176  7998.56  88.5286
 37.1596  8051.13  88.8275
 37.2016  8118.28  89.4195
 37.2436  8184.96  89.1031
 37.2856  8028  88.4831
 37.3276  8053.37  87.9962
 37.3696  8007.56  88.6208
 37.4116  8027.8  88.6373
 37.4536  8048.05  88.4706
 37.4956  7972.1  88.241
 37.5376  8203.06  91.1113
 37.5796  8162.22  90.8131
 37.6216  8024.56  88.3207
 37.6636  8138.8  88.8365
 37.7056  8151.69  89.09
 37.7476  8307.76  89.4857
 37.7896  8118.8  88.9623
 37.8316  8116.25  89.1088
 37.8736  8090.15  88.4849
 37.9156  8127.75  88.6969
 37.9576  8033.22  88.0889
 37.9996  8061.75  87.9574
 38.0416  8080.45  88.8691
 38.0836  8186.31  89.3492
 38.1256  8152.78  89.1405
 38.1676  7984.35  88.3267
 38.2096  8177.09  88.9957
 38.2516  8151.01  89.0756
 38.2936  8153.3  88.8912
 38.3356  8079.4  88.4171
 38.3776  8043.04  88.4699
 38.4196  8022.77  88.2127
 38.4616  8086.01  88.8084
 38.5036  8203.03  89.2906
 38.5456  7978.94  88.8909
 38.5876  7994.32  89.1639
 38.6296  8081.32  88.4544
 38.6716  8037.79  88.0099
 38.7136  7889.51  87.139
 38.7556  7907.86  87.752
 38.7976  7964.45  87.9834
 38.8396  8012.28  88.5237
 38.8816  7911.77  87.9503
 38.9236  7950.07  87.9597
 38.9656  7943.69  87.8381
 39.0076  8030.42  87.7249
 39.0496  8166.64  89.0193
 39.0916  7961.38  87.5396
 39.1336  8080.97  88.6058
 39.1756  7925.1  87.7921
 39.2176  7973.99  88.6111
 39.2596  8003.86  88.709
 39.3016  7915.2  87.7311
 39.3436  7861.19  87.907
 39.3856  8052.55  88.4108
 39.4276  8089.04  89.1277
 39.4696  7980.41  88.1457
 39.5116  7987.12  88.6964
 39.5536  8047.1  89.4477
 39.5956  8049.83  88.558
 39.6376  7935.71  87.9331
 39.6796  7981.17  87.9302
 39.7216  7965.62  87.9423
 39.7636  7986.39  88.6208
 39.8056  8093.93  89.0032
 39.8476  7812.31  87.6887
 39.8896  8006.59  88.4044
 39.9316  7989.02  88.5546
 39.9736  8078.9  88.7051
 40.0156  7913.04  87.5397
 40.0576  7885.29  87.736
 40.0996  7955.45  87.3116
 40.1416  7891.16  87.7579
 40.1836  7995.77  88.2166
 40.2256  7990.15  88.2117
 40.2676  7932.19  88.0025
 40.3096  7971.95  88.1524
 40.3516  8003.56  88.4406
 40.3936  8031.29  88.1494
 40.4356  8014.13  88.2596
 40.4776  8023.39  88.7113
 40.5196  8032.05  88.8133
 40.5616  8119.59  89.0069
 40.6036  7892.6  88.0222
 40.6456  8121  88.8784
 40.6876  8124.36  88.8968
 40.7296  8030.83  88.4013
 40.7716  8018.12  88.5677
 40.8136  7935.95  88.0643
 40.8556  8087.72  89.0295
 40.8976  7952.88  88.2045
 40.9396  8012.01  88.8883
 40.9816  7914.44  87.6373
 41.0236  7925.87  87.4797
 41.0656  8088.17  88.9126
 41.1076  8021.07  88.31
 41.1496  7989.56  88.0511
 41.1916  7860.44  87.6538
 41.2336  8016.97  88.5199
 41.2756  7918.2  87.5766
 41.3176  8046.89  88.8965
 41.3596  7967.54  88.1957
 41.4016  7864.61  87.8793
 41.4436  8061.23  88.7579
 41.4856  7915.12  88.1018
 41.5276  7923.59  88.179
 41.5696  7912.88  87.751
 41.6116  8010.9  88.6832
 41.6536  7875.62  87.7849
 41.6956  8027.6  88.6945
 41.7376  7820.68  87.5705
 41.7796  7888.18  87.8328
 41.8216  7985.42  88.5985
 41.8636  7943.61  88.311
 41.9056  7891.61  87.815
 41.9476  7864.35  87.7819
 41.9896  8061.49  88.6534
 42.0316  8031.82  88.5798
 42.0736  8066.17  88.8738
 42.1156  7884.88  87.6972
 42.1576  7897.89  87.8576
 42.1996  8049.54  88.8442
 42.2416  7981.81  88.06
 42.2836  7925.83  87.8633
 42.3256  7924.17  87.9722
 42.3676  8095  88.7074
 42.4096  7960.28  87.9394
 42.4516  8002.04  88.2492
 42.4936  7883.81  87.6701
 42.5356  7802.72  87.3578
 42.5776  7913.8  87.9185
 42.6196  7937.88  88.1035
 42.6616  7791.43  87.4591
 42.7036  7857.52  87.2091
 42.7456  8002  88.3696
 42.7876  7687.18  86.7044
 42.8296  7932.17  87.9142
 42.8716  7723.67  86.9144
 42.9136  7797.44  87.1127
 42.9556  7922.14  87.9359
 42.9976  8000.11  88.3383
 43.0396  7793.14  86.9204
 43.0816  7813.3  87.4168
 43.1236  7803.04  87.4059
 43.1656  7785.6  87.1344
 43.2076  7873.22  87.7391
 43.2496  7715.09  86.6677
 43.2916  7708.9  86.9921
 43.3336  7951.59  88.1836
 43.3756  7823.59  87.2228
 43.4176  7684.87  86.5339
 43.4596  7686.87  86.405
 43.5016  7786.31  87.3532
 43.5436  7734.63  86.9691
 43.5856  7682.95  86.7154
 43.6276  7772.39  87.1002
 43.6696  7638.65  86.6042
 43.7116  7915.75  87.6591
 43.7536  7907.56  88.1156
 43.7956  7624.33  87.7396
 43.8376  7635.86  86.3172
 43.8796  7573.73  86.0465
 43.9216  7576.8  85.9827
 43.9636  7550.45  85.9387
 44.0056  7719.08  87.1285
 44.0476  7597.28  86.0684
 44.0896  7525.94  86.0049
 44.1316  7647.23  86.217
 44.1736  7454.83  85.2528
 44.2156  7620.99  86.0506
 44.2576  7546.4  85.9507
 44.2996  7552.38  85.9579
 44.3416  7631.37  86.1628
 44.3836  7571.81  86.1513
 44.4256  7484.81  85.3024
 44.4676  7513.88  85.6244
 44.5096  7649.68  86.5418
 44.5516  7495.9  85.6294
 44.5936  7438.32  85.2557
 44.6356  7484.28  85.2571
 44.6776  7553.05  85.886
 44.7196  7573.93  86.3908
 44.7616  7637.93  88.0902
 44.8036  7557.43  86.0549
 44.8456  7736.33  87.2753
 44.8876  7709.62  86.9636
 44.9296  7780.84  86.8115
 44.9716  7671.3  86.624
 45.0136  7753.9  87.0238
 45.0556  7816.58  87.3572
 45.0976  7697.09  86.8395
 45.1396  7649.44  86.3306
 45.1816  7578.07  85.8691
 45.2236  7673.05  86.31
 45.2656  7553.6  86.1324
 45.3076  7628.52  86.3312
 45.3496  7548.55  86.1806
 45.3916  7600.16  86.7628
 45.4336  7660.21  86.9448
 45.4756  7487.35  85.8095
 45.5176  7658.27  86.4048
 45.5596  7653.47  86.4842
 45.6016  7509.28  86.0997
 45.6436  7552.65  85.5064
 45.6856  7511.04  85.9364
 45.7276  7424.4  86.7582
 45.7696  7507.23  86.9122
 45.8116  7461.38  86.0847
 45.8536  7551.42  86.4986
 45.8956  7629.21  86.2886
 45.9376  7642.17  85.8192
 45.9796  7622.39  86.4007
 46.0216  7631.55  86.7931
 46.0636  7640.72  85.9761
 46.1056  7615.68  85.8202
 46.1476  7607.78  86.3704
 46.1896  7615.22  86.5711
 46.2316  7425.82  85.3559
 46.2736  7516.56  86.2564
 46.3156  7583.99  86.2225
 46.3576  7598.69  86.5099
 46.3996  7392.74  85.487
 46.4416  7507.37  85.73
 46.4836  7539.66  86.2638
 46.5256  7432.7  85.5901
 46.5676  7541.88  86.3384
 46.6096  7545.84  86.2956
 46.6516  7537.6  85.2755
 46.6936  7624.64  86.2678
 46.7356  7657.2  86.5557
 46.7776  7467.81  86.3307
 46.8196  7539.26  86.3337
 46.8616  7337.85  85.1119
 46.9036  7318.7  84.6634
 46.9456  7380.38  84.6573
 46.9876  7407.27  84.8978
 47.0296  7469.58  85.9484
 47.0716  7431.86  85.5545
 47.1136  7414.24  85.1303
 47.1556  7453.71  85.2225
 47.1976  7525.85  85.7128
 47.2396  7332.01  85.0002
 47.2816  7432.27  85.279
 47.3236  7360.76  85.237
 47.3656  7480.79  85.8608
 47.4076  7404.76  85.2114
 47.4496  7441.03  85.5296
 47.4916  7365.44  85.28
 47.5336  7434.83  85.4977
 47.5756  7554.86  86.3081
 47.6176  7375.3  85.1685
 47.6596  7463.85  85.3916
 47.7016  7501.1  85.4175
 47.7436  7481.93  85.6428
 47.7856  7488.99  85.719
 47.8276  7337.92  84.9077
 47.8696  7379.72  85.2203
 47.9116  7571.19  86.0319
 47.9536  7370.06  84.8146
 47.9956  7410.12  85.7722
 48.0376  7420.51  85.5993
 48.0796  7445.74  85.8671
 48.1216  7326.54  85.0081
 48.1636  7502.39  85.5859
 48.2056  7347.74  84.9633
 48.2476  7592.94  86.6886
 48.2896  7518.73  86.1668
 48.3316  7491.48  85.9429
 48.3736  7451.09  85.7409
 48.4156  7396.68  85.2811
 48.4576  7386.64  85.5242
 48.4996  7520.94  85.7338
 48.5416  7533.21  86.1424
 48.5836  7437.69  85.2592
 48.6256  7417.62  85.3502
 48.6676  7361.07  85.5556
 48.7096  7440.92  85.2728
 48.7516  7338.22  84.8361
 48.7936  7328.89  84.8439
 48.8356  7345.77  84.9924
 48.8776  7332.89  85.5021
 48.9196  7526.14  85.9643
 48.9616  7346.07  85.3239
 49.0036  7400.6  85.9968
 49.0456  7319.01  85.5029
 49.0876  7401.62  85.5001
 49.1296  7253.61  84.8102
 49.1716  7247.6  84.6468
 49.2136  7346.45  85.1616
 49.2556  7381.23  85.4971
 49.2976  7417.09  85.6577
 49.3396  7300.81  85.0328
 49.3816  7528.87  85.7741
 49.4236  7321.04  85.0092
 49.4656  7277.84  84.7345
 49.5076  7352.49  84.956
 49.5496  7380.35  85.1833
 49.5916  7323.07  84.7527
 49.6336  7388.4  85.3536
 49.6756  7402.98  85.6662
 49.7176  7321.54  85.1378
 49.7596  7317.16  84.8809
 49.8016  7453.13  85.5766
 49.8436  7329.1  85.1683
 49.8856  7433.86  85.7765
 49.9276  7319.2  85.2211
 49.9696  7312.29  85.1593
 50.0116  7390.15  85.7468
 50.0536  7244.78  84.8477
 50.0956  7216.95  84.7531
 50.1376  7333.18  85.1237
 50.1796  7254.74  84.9475
 50.2216  7293.86  85.1625
 50.2636  7263.22  84.5934
 50.3056  7143.71  84.0782
 50.3476  7213.03  84.5006
 50.3896  7228.34  84.5673
 50.4316  7297.08  84.7975
 50.4736  7222.32  84.5853
 50.5156  7307.95  85.0714
 50.5576  7377.84  85.2408
 50.5996  7259.41  84.9467
 50.6416  7236.94  84.6317
 50.6836  7263.82  84.8429
 50.7256  7422.07  85.6877
 50.7676  7359.33  85.6544
 50.8096  7220.8  84.3698
 50.8516  7250.99  84.9767
 50.8936  7137.84  84.0861
 50.9356  7280.45  85.0334
 50.9776  7185.92  84.6396
 51.0196  7047.27  83.9427
 51.0616  7099.96  83.5703
 51.1036  7064.65  83.7235
 51.1456  7235.43  84.6405
 51.1876  7055.83  82.9068
 51.2296  7147.77  84.2228
 51.2716  7070.9  83.345
 51.3136  7086.89  83.9113
 51.3556  6944.88  82.6747
 51.3976  7053.23  83.4605
 51.4396  7057.54  83.8225
 51.4816  6960.2  83.0951
 51.5236  7036.42  83.6458
 51.5656  6921.24  82.5306
 51.6076  7120.44  83.8053
 51.6496  7021.94  83.4165
 51.6916  6980.23  83.5356
 51.7336  6980.96  83.627
 51.7756  7052.51  83.7239
 51.8176  6970.82  83.3729
 51.8596  6968.55  83.3734
 51.9016  7140.13  83.9894
 51.9436  7002.23  84.6895
 51.9856  7096.51  85.6869
 52.0276  7072.28  83.9985
 52.0696  7311.64  85.4838
 52.1116  7024.13  83.8987
 52.1536  7123.31  84.3727
 52.1956  7174.43  84.1255
 52.2376  7151.22  84.1681
 52.2796  7219.03  84.377
 52.3216  6891.02  83.133
 52.3636  7112.8  84.0107
 52.4056  7033.96  83.4046
 52.4476  7050.54  83.8798
 52.4896  6899.2  83.0144
 52.5316  7119.95  84.4005
 52.5736  6840.7  82.4088
 52.6156  7196.28  84.9632
 52.6576  6997.46  83.2047
 52.6996  6874.55  83.471
 52.7416  6870.83  83.2929
 52.7836  7065.56  84.3604
 52.8256  7071.36  83.571
 52.8676  6808.96  82.5918
 52.9096  7010.59  83.8959
 52.9516  6939.24  83.8597
 52.9936  6978.63  84.4735
 53.0356  7040.87  83.8302
 53.0776  7022.69  83.995
 53.1196  6998.44  83.9813
 53.1616  6981.78  83.9324
 53.2036  7001.99  84.0128
 53.2456  7111.9  84.7783
 53.2876  7051.65  84.0975
 53.3296  6963.99  83.9038
 53.3716  7065.81  84.2672
 53.4136  7013.97  84.1102
 53.4556  6904.9  83.4862
 53.4976  6944.7  83.5575
 53.5396  6896.46  83.6725
 53.5816  6929.26  83.5049
 53.6236  6814.36  83.0899
 53.6656  7021.58  84.0108
 53.7076  7046  84.1038
 53.7496  7010.18  84.0294
 53.7916  6951.33  83.8132
 53.8336  6951.91  83.704
 53.8756  6906.6  84.0008
 53.9176  6890.4  83.21
 53.9596  6726.46  83.0104
 54.0016  6656.38  81.8825
 54.0436  6623.45  81.9107
 54.0856  6799.23  82.4142
 54.1276  6755.92  82.3504
 54.1696  6686.63  82.0845
 54.2116  6803.14  82.5439
 54.2536  6730.02  81.8856
 54.2956  6732.53  81.9142
 54.3376  6683.27  82.1674
 54.3796  6553.8  81.2611
 54.4216  6697.1  82.216
 54.4636  6620.25  81.7338
 54.5056  6745.15  82.2641
 54.5476  6697.21  82.314
 54.5896  6692.17  82.1221
 54.6316  6530.04  80.9643
 54.6736  6686.62  82.0195
 54.7156  6540.34  81.143
 54.7576  6506.86  80.9018
 54.7996  6656.23  81.9829
 54.8416  6717.05  82.3276
 54.8836  6670.94  82.2212
 54.9256  6597.32  81.5332
 54.9676  6438.93  80.4072
 55.0096  6634.39  81.66
 55.0516  6452.06  80.7658
 55.0936  6501.01  80.7339
 55.1356  6460.86  80.5218
 55.1776  6637.64  81.8769
 55.2196  6534.48  81.0811
 55.2616  6704.24  82.276
 55.3036  6520.66  81.3256
 55.3456  6434.72  80.9286
 55.3876  6574.38  81.5072
 55.4296  6427.3  80.6267
 55.4716  6463.17  80.8624
 55.5136  6414.66  80.3071
 55.5556  6699.44  82.1403
 55.5976  6424.35  80.5124
 55.6396  6638.61  81.7815
 55.6816  6532.36  80.9927
 55.7236  6394.49  80.1736
 55.7656  6543.65  80.8139
 55.8076  6441.59  80.1906
 55.8496  6472.46  80.7178
 55.8916  6379.26  80.3384
 55.9336  6602.23  81.57
 55.9756  6386.37  80.0883
 56.0176  6392.24  80.289
 56.0596  6423.22  80.4825
 56.1016  6344.14  79.988
 56.1436  6381.26  80.4932
 56.1856  6290.58  79.6554
 56.2276  6620.99  81.7717
 56.2696  6263.59  79.5211
 56.3116  6545.46  81.6627
 56.3536  6371.78  80.2391
 56.3956  6357.5  80.1251
 56.4376  6357.12  80.1795
 56.4796  6289.09  79.5626
 56.5216  6351.06  80.3304
 56.5636  6316.15  79.6831
 56.6056  6468.22  80.8665
 56.6476  6362.98  79.8071
 56.6896  6535.06  81.3585
 56.7316  6330.7  79.9847
 56.7736  6370.21  80.2533
 56.8156  6376.3  80.3059
 56.8576  6204.73  79.1486
 56.8996  6322.93  79.8129
 56.9416  6289.61  79.9256
 56.9836  6500.29  80.744
 57.0256  6284.7  79.7085
 57.0676  6462.04  80.9563
 57.1096  6363.48  80.1075
 57.1516  6238.61  79.3742
 57.1936  6312.1  79.6025
 57.2356  6236.11  79.4501
 57.2776  6272.19  79.6454
 57.3196  6248.24  79.6459
 57.3616  6240.22  79.2959
 57.4036  6251.71  79.4263
 57.4456  6351.8  80.0328
 57.4876  6266.31  79.3515
 57.5296  6228.06  79.4273
 57.5716  6245.25  79.5518
 57.6136  6157.36  78.8304
 57.6556  6233.41  79.425
 57.6976  6297.44  79.5873
 57.7396  6088.02  78.6833
 57.7816  6136.67  79.3756
 57.8236  6166.44  79.3656
 57.8656  6172.26  79.0563
 57.9076  6267.13  79.669
 57.9496  6207.79  79.6556
 57.9916  6265  79.5421
 58.0336  6107.53  78.813
 58.0756  6211.9  79.1154
 58.1176  6202.37  79.0501
 58.1596  6207.03  79.6713
 58.2016  6046.51  77.8484
 58.2436  5936.14  77.5365
 58.2856  5898.59  77.22
 58.3276  6079.7  78.7526
 58.3696  5923.34  77.505
 58.4116  5857.29  76.9367
 58.4536  6000.6  77.7608
 58.4956  5904.57  77.3136
 58.5376  6096.77  78.2549
 58.5796  5974.68  77.7587
 58.6216  6053.89  78.0968
 58.6636  6003.4  77.9757
 58.7056  5973.72  77.6451
 58.7476  5997.56  78.2408
 58.7896  5926.39  77.4267
 58.8316  5965.73  77.784
 58.8736  5945.53  77.5579
 58.9156  5947.09  77.6051
 58.9576  5989.55  78.2053
 58.9996  6105.33  78.2072
 59.0416  5988.64  77.8159
 59.0836  5995.33  77.7635
 59.1256  5979.71  78.3732
 59.1676  5937.73  78.4067
 59.2096  6047.4  78.4297
 59.2516  5928.81  77.2418
 59.2936  5840.81  76.9891
 59.3356  5915.42  77.3582
 59.3776  5936.16  77.6612
 59.4196  5874.46  77.1931
 59.4616  5886.12  77.1317
 59.5036  5916.3  77.3644
 59.5456  6056.66  77.9695
 59.5876  5882.36  77.028
 59.6296  5925.36  77.3776
 59.6716  5916.58  77.3776
 59.7136  6015.18  78.008
 59.7556  5979.46  77.9118
 59.7976  5835.68  76.7159
 59.8396  5916.12  77.1382
 59.8816  5927.42  77.7492
 59.9236  5917.19  77.3323
 59.9656  5894.55  77.4417
 60.0076  5910.56  76.9111
 60.0496  5910.96  77.4122
 60.0916  6068.55  77.8541
 60.1336  5881.64  77.7384
 60.1756  5888.12  78.9505
 60.1996  0.0000000E+00  0.0000000E+00