File: docs/examples/XRD/IS17_D/Data/IS17_D/17_Da_f00056.xye
# /beamlines/bl04/projects/cycle2025-II/20250340211-lsimonelli/DATA/IS17_D/17_Da_f00056.xye : mythproc.py merge -s 0.006 -l 0.5 -f /beamlines/bl04/inhouse/ff/FlatField/ff_20Nov2024rod8mm60s_17keV.raw -b True -c true -o xye /beamlines/bl04/projects/cycle2025-II/20250340211-lsimonelli/DATA/IS17_D/17_Da_00056.dat
# IsMon = [6768046, 6765599, 6767579]  IsPos = [-1.4999, -2.4885, -3.4986]
# Wave = 0.4962  CalPath /beamlines/bl04/projects/cycle2025-II/20250340211-lsimonelli/DATA/Align/Si_Pos1_25keV_f00001.cal
# Date = 2025-09-24_09:08:26 Dt = 4.8000  Bin = 0.0060  <imon> = 6767075 +/- 1061 (Min/Max) 6765599 / 6768046
# icurr 250.6212  mocoIn 1.7097E-05  mocoOut 0.8024  i15 7.08565e+06  imon 6.76707e+06  i7 5.6667  iEMpd_timer 4.8000  iEMpd_1 3.4213E-08  iEMpd_2 7.7902E-08  iEMpd_3 1.6743E-08  iEMpd_4 4.7074E-08  iEMhp_timer 4.8000  iEMhp_1 4.8966E-06  iEMhp_2 -2.4841E-08  iEMhp_3 -2.4106E-08  iEMhp_4 -2.2714E-08
#      9776
 1.5856  40739.5  207.243
 1.6276  47688.5  220.375
 1.6696  54797.7  235.398
 1.7116  62918.2  252.73
 1.7536  72213.9  269.604
 1.7956  77360.2  279.742
 1.8376  73154.2  272.462
 1.8796  61438.5  247.858
 1.9216  49970  224.42
 1.9636  41790.4  204.391
 2.0056  38205  194.669
 2.0476  35661.1  190.138
 2.0896  33986.7  184.532
 2.1316  32357.4  179.189
 2.1736  31196.5  177.341
 2.2156  31914  177.93
 2.2576  30603.9  174.865
 2.2996  29315.5  171.772
 2.3416  29666.2  171.417
 2.3836  29031.7  169.678
 2.4256  28627.1  169.041
 2.4676  28047.6  167.084
 2.5096  27752.2  166.256
 2.5516  26896.8  167.467
 2.5936  26966  164.309
 2.6356  26572.6  163.796
 2.6776  26433.1  162.268
 2.7196  26164.3  161.947
 2.7616  26107.2  161.548
 2.8036  25603.2  160.152
 2.8456  25816.3  161.431
 2.8876  25128.8  159.121
 2.9296  24542.4  157.403
 2.9716  24454.4  156.615
 3.0136  24360.7  156.382
 3.0556  24348.6  156.738
 3.0976  24342.7  155.647
 3.1396  24201.1  155.919
 3.1816  23917.3  154.935
 3.2236  23703.8  154.241
 3.2656  23722.6  153.345
 3.3076  23258.4  153.275
 3.3496  23873.2  154.47
 3.3916  24050.4  154.62
 3.4336  24726.2  157.36
 3.4756  24880.5  157.768
 3.5176  25724.7  160.227
 3.5596  25609.7  162.285
 3.6016  25921.4  160.891
 3.6436  25027.5  159.201
 3.6856  24608.6  156.147
 3.7276  23685.6  154.29
 3.7696  23561.1  154.071
 3.8116  23160.9  152.643
 3.8536  23268.9  152.929
 3.8956  23025.1  151.957
 3.9376  22957.7  152.022
 3.9796  22906.3  151.327
 4.0216  23134.8  151.113
 4.0636  22983.4  152.092
 4.1056  23094.6  152.101
 4.1476  23182.6  152.703
 4.1896  23318.5  153.011
 4.2316  23537.8  153.552
 4.2736  23945.5  154.668
 4.3156  24253.3  155.887
 4.3576  24836.1  157.678
 4.3996  25165.3  158.78
 4.4416  25855.9  160.725
 4.4836  26158.7  161.822
 4.5256  26623.6  163.858
 4.5676  26591.4  164.018
 4.6096  27144.7  164.363
 4.6516  27436.8  164.958
 4.6936  27591.1  166.236
 4.7356  27901.9  166.997
 4.7776  27857.2  166.699
 4.8196  27492.2  166.244
 4.8616  27200.5  164.978
 4.9036  26658.9  162.936
 4.9456  26762.1  163.909
 4.9876  26138.9  161.888
 5.0296  26481.9  162.752
 5.0716  26418.3  163.208
 5.1136  26405.3  163.015
 5.1556  26694.4  163.372
 5.1976  27154.6  164.761
 5.2396  27430.8  165.297
 5.2816  27132.6  164.855
 5.3236  27352.3  165.229
 5.3656  26959.7  164.961
 5.4076  26581  163.95
 5.4496  26798.7  164.107
 5.4916  26724.4  163.631
 5.5336  26744.1  163.707
 5.5756  26443.5  162.801
 5.6176  26838.1  163.45
 5.6596  27011  164.948
 5.7016  27021.4  164.249
 5.7436  27411.6  165.707
 5.7856  27135.1  164.926
 5.8276  27644.8  166.194
 5.8696  27699  166.528
 5.9116  27736.6  167.22
 5.9536  28062.4  167.97
 5.9956  28245.6  167.886
 6.0376  28205.8  168.405
 6.0796  28516.4  169.161
 6.1216  28535.5  169.424
 6.1636  28696  168.955
 6.2056  28641.9  169.466
 6.2476  28905.2  170.115
 6.2896  29231.6  170.749
 6.3316  29030.5  170.33
 6.3736  29405.3  171.326
 6.4156  29356.3  171.072
 6.4576  29352.3  170.67
 6.4996  29713.6  172.207
 6.5416  29855.2  172.752
 6.5836  29661.5  172.424
 6.6256  29812.5  172.419
 6.6676  30391.6  173.649
 6.7096  30245  174.084
 6.7516  30477.4  174.408
 6.7936  30852.6  174.645
 6.8356  30785.8  174.795
 6.8776  31275.7  176.989
 6.9196  31298.5  177.456
 6.9616  31605.7  177.733
 7.0036  32261.6  179.249
 7.0456  32251.6  178.508
 7.0876  32033.8  179.605
 7.1296  32218.8  179.252
 7.1716  32077.3  178.388
 7.2136  31838.9  177.511
 7.2556  32178.5  178.615
 7.2976  32098.1  178.894
 7.3396  32149.3  179.257
 7.3816  31956.5  178.929
 7.4236  32126.4  178.693
 7.4656  32434  179.027
 7.5076  32880.7  180.392
 7.5496  32562.2  180.057
 7.5916  32532.9  180.005
 7.6336  32980.9  181.137
 7.6756  33060.5  181.208
 7.7176  33545.3  182.843
 7.7596  33358.7  183.588
 7.8016  33843  187.096
 7.8436  34187.6  184.725
 7.8856  34789.9  185.954
 7.9276  35056.5  187.055
 7.9696  35192.5  187.738
 8.0116  36349.5  189.688
 8.0536  36671  190.409
 8.0956  36377.3  190.838
 8.1376  36873.7  191.6
 8.1796  36918.9  192.269
 8.2216  38019.7  193.829
 8.2636  37690  193.237
 8.3056  37930  194.628
 8.3476  38444.4  195.268
 8.3896  38456.4  195.827
 8.4316  38515.9  195.697
 8.4736  38869.6  196.049
 8.5156  38344.5  195.004
 8.5576  38282.2  195.838
 8.5996  37927.4  193.784
 8.6416  37867.6  194.911
 8.6836  37695.1  194.284
 8.7256  38394.4  195.52
 8.7676  37744.6  196.777
 8.8096  37469.5  193.336
 8.8516  37369.9  192.692
 8.8936  36782.1  191.061
 8.9356  36788  191.418
 8.9776  36849.6  191.684
 9.0196  36852.7  191.356
 9.0616  37179.4  191.669
 9.1036  36568.4  191.289
 9.1456  36811.7  191.275
 9.1876  36729.4  191.006
 9.2296  36703.9  190.339
 9.2716  35868.6  188.222
 9.3136  36259.8  189.227
 9.3556  36551  189.969
 9.3976  34855.3  186.034
 9.4396  35407.4  187.398
 9.4816  34779.1  185.59
 9.5236  34981.5  186.043
 9.5656  34825.5  185.951
 9.6076  34592.8  185.87
 9.6496  34286.6  184.966
 9.6916  34315.3  185.019
 9.7336  34302.8  184.758
 9.7756  34560.7  186.823
 9.8176  33380.2  183.015
 9.8596  33474.9  181.713
 9.9016  33223  181.022
 9.9436  32917.6  180.1
 9.9856  32579.7  179.402
 10.0276  32102.8  179.195
 10.0696  32357.7  178.932
 10.1116  31351.9  176.397
 10.1536  31363.5  176.595
 10.1956  30984.4  175.122
 10.2376  30749.7  173.958
 10.2796  30610.1  173.693
 10.3216  30552.7  173.796
 10.3636  29900.2  171.959
 10.4056  30018.2  172.71
 10.4476  29659.7  171.294
 10.4896  30106.7  172.031
 10.5316  29401  170.717
 10.5736  29075.5  170.175
 10.6156  28535.1  168.349
 10.6576  29123.9  168.64
 10.6996  28456  167.367
 10.7416  28390  167.397
 10.7836  28477.8  168.361
 10.8256  28023.2  167.437
 10.8676  28203.2  167.513
 10.9096  27652  165.897
 10.9516  27517.5  164.427
 10.9936  27404.7  164.283
 11.0356  27401.7  164.915
 11.0776  27360.3  164.101
 11.1196  26632.7  162.646
 11.1616  26626.2  162.324
 11.2036  26567.3  161.987
 11.2456  26532.5  162.596
 11.2876  26605.7  162.533
 11.3296  26242.9  161.33
 11.3716  26525.6  161.887
 11.4136  26519.7  162.771
 11.4556  26758.9  163.169
 11.4976  27217.6  163.52
 11.5396  27890.6  165.71
 11.5816  27806.4  165.922
 11.6236  27164.6  164.438
 11.6656  26737.8  162.065
 11.7076  26188.2  161.239
 11.7496  25621.8  163.44
 11.7916  25621.8  158.749
 11.8336  25363.1  158.866
 11.8756  25180.4  157.795
 11.9176  25404.2  158.406
 11.9596  24854.9  156.608
 12.0016  24888.5  157.519
 12.0436  24781.6  156.588
 12.0856  24662.4  156.754
 12.1276  24621.9  156.543
 12.1696  24618.9  155.662
 12.2116  24902.9  156.559
 12.2536  24605.5  156.452
 12.2956  24555.2  155.623
 12.3376  24311.7  155.052
 12.3796  24500.5  156.12
 12.4216  24248.4  154.533
 12.4636  24176.7  155.219
 12.5056  24561.1  155.719
 12.5476  24449.4  154.89
 12.5896  24574.6  155.923
 12.6316  24040.2  154.373
 12.6736  24440.1  155.987
 12.7156  24038.8  154.712
 12.7576  24287.8  155.763
 12.7996  24336.6  154.557
 12.8416  24317.7  155.556
 12.8836  24748.8  156.737
 12.9256  24942.1  156.359
 12.9676  24971.1  156.893
 13.0096  24814.1  157.498
 13.0516  25084.6  157.385
 13.0936  24863.6  157.091
 13.1356  25621.8  158.436
 13.1776  25005.5  157.52
 13.2196  25063.1  157.348
 13.2616  24961.3  157.35
 13.3036  25088.8  157.718
 13.3456  24899.2  157.272
 13.3876  24951.2  156.925
 13.4296  24798.2  156.594
 13.4716  24952.2  156.69
 13.5136  24884.7  156.637
 13.5556  24990.7  157.587
 13.5976  25191.9  158.363
 13.6396  25075.1  157.363
 13.6816  24651.6  156.52
 13.7236  25591.9  159.107
 13.7656  24534.3  156.322
 13.8076  24987.7  156.54
 13.8496  24394.9  155.269
 13.8916  24553.4  156.771
 13.9336  24695.6  156.459
 13.9756  24353.5  154.71
 14.0176  24336  155.355
 14.0596  24328.7  155.291
 14.1016  24202.5  155.283
 14.1436  23928.5  153.524
 14.1856  23470.2  152.347
 14.2276  23356.1  152.46
 14.2696  23476.1  152.694
 14.3116  23150  151.536
 14.3536  23032.4  151.322
 14.3956  22894.1  150.603
 14.4376  23005.2  150.74
 14.4796  22869.4  150.288
 14.5216  22581.2  150.137
 14.5636  22522.9  149.502
 14.6056  22603.6  149.342
 14.6476  22486.9  148.182
 14.6896  22141.4  147.583
 14.7316  21759.3  147.333
 14.7736  21749.7  146.451
 14.8156  21505.8  145.663
 14.8576  21351.2  144.983
 14.8996  21066.9  145.234
 14.9416  20672.5  143.862
 14.9836  20846.3  144.428
 15.0256  20522.6  142.229
 15.0676  20666.1  143.049
 15.1096  20643.8  142.706
 15.1516  20079.9  141.306
 15.1936  20191.7  141.119
 15.2356  19786.6  139.977
 15.2776  19865.5  139.832
 15.3196  19303.4  138.849
 15.3616  19261.4  138.449
 15.4036  19261.7  138.31
 15.4456  19471.8  138.477
 15.4876  19342.5  137.925
 15.5296  19010.1  137.024
 15.5716  18892.2  136.187
 15.6136  18634.9  135.596
 15.6556  18897.3  135.776
 15.6976  18710.5  135.173
 15.7396  18495.4  135.005
 15.7816  18620.9  134.967
 15.8236  18348.8  134.688
 15.8656  18200  133.933
 15.9076  17649.1  131.716
 15.9496  17770.5  134.953
 15.9916  17804.5  135.532
 16.0336  17593.5  131.592
 16.0756  17668.6  132.181
 16.1176  17547.5  131.801
 16.1596  17059.4  131.135
 16.2016  17313.2  130.847
 16.2436  17014.9  130.102
 16.2856  17015.2  129.643
 16.3276  16816.7  129.303
 16.3696  16950.1  129.634
 16.4116  16916.4  129.968
 16.4536  17133  130.575
 16.4956  16836.4  129.179
 16.5376  16688.6  128.8
 16.5796  16724.2  128.296
 16.6216  16505  127.753
 16.6636  16556.1  128.11
 16.7056  16632.5  128.269
 16.7476  16806.5  128.608
 16.7896  16621.9  128.509
 16.8316  16673  128.664
 16.8736  16455  128.082
 16.9156  16534.4  128.729
 16.9576  16438.2  129.169
 16.9996  16497.1  129.897
 17.0416  16573.7  128.537
 17.0836  16606.8  128.418
 17.1256  16195.4  126.829
 17.1676  16150.7  126.643
 17.2096  16136.6  126.465
 17.2516  16067.9  125.976
 17.2936  16060.4  126.266
 17.3356  15742.6  125.024
 17.3776  15758.8  125.272
 17.4196  15854.6  125.351
 17.4616  15709.1  124.694
 17.5036  15478.1  124.142
 17.5456  15144.4  123.434
 17.5876  15132.8  122.435
 17.6296  15425.9  123.433
 17.6716  15368.2  123.78
 17.7136  15121.1  122.914
 17.7556  14998.5  122.714
 17.7976  14876.9  121.828
 17.8396  14780.8  121.064
 17.8816  14995.2  122.491
 17.9236  14740.5  121.252
 17.9656  14932.9  122.744
 18.0076  14938  122.17
 18.0496  14876.6  121.059
 18.0916  14899.9  121.69
 18.1336  14954.9  122.018
 18.1756  14932  121.446
 18.2176  14492.2  119.876
 18.2596  14700  120.471
 18.3016  14837.1  121.283
 18.3436  14899.6  121.784
 18.3856  14546.4  120.225
 18.4276  14655.5  120.343
 18.4696  14593.5  120.192
 18.5116  14776.4  121.233
 18.5536  14697.6  121.268
 18.5956  14342.5  119.35
 18.6376  14402  120.009
 18.6796  14414.2  119.375
 18.7216  14384.7  119.815
 18.7636  14289.2  119.33
 18.8056  14410.4  119.78
 18.8476  14357.4  119.882
 18.8896  14278.9  119.189
 18.9316  14454.7  119.742
 18.9736  14325.2  119.063
 19.0156  14362.3  119.609
 19.0576  14232.5  117.945
 19.0996  14273.5  118.832
 19.1416  14120.2  118.58
 19.1836  14300  118.934
 19.2256  14055.3  118.127
 19.2676  14169.5  118.698
 19.3096  14259.4  119.321
 19.3516  14068.8  118.479
 19.3936  14112.1  118.627
 19.4356  14165.6  118.645
 19.4776  14227.8  119.015
 19.5196  13965.4  117.766
 19.5616  13992.5  118.134
 19.6036  14054.3  117.75
 19.6456  14117.5  118.273
 19.6876  14241.7  118.441
 19.7296  14083.8  118.23
 19.7716  14159.6  118.567
 19.8136  14123.6  118.771
 19.8556  14494.3  119.796
 19.8976  14400.5  119.474
 19.9396  14561.1  119.706
 19.9816  14838.5  121.094
 20.0236  14946.2  121.751
 20.0656  15134  122.511
 20.1076  14873.8  121.925
 20.1496  14603.2  120.821
 20.1916  14499.4  119.891
 20.2336  14271.2  118.875
 20.2756  14014.7  118.239
 20.3176  13992.9  117.894
 20.3596  14004.1  117.919
 20.4016  13853.5  117.084
 20.4436  13787  117.375
 20.4856  13679.9  116.695
 20.5276  13664.3  117.097
 20.5696  13611.8  116.319
 20.6116  13577.7  116.455
 20.6536  13595.2  116.089
 20.6956  13426.2  115.429
 20.7376  13475.1  115.878
 20.7796  13443.5  115.426
 20.8216  13542.4  115.547
 20.8636  13510  115.784
 20.9056  13461.6  115.534
 20.9476  13160.7  114.069
 20.9896  13558.1  115.64
 21.0316  13480  115.212
 21.0736  13310.5  115.003
 21.1156  13293.9  115.097
 21.1576  13411.6  115.641
 21.1996  13185.5  114.653
 21.2416  13224.5  114.65
 21.2836  13211.9  114.552
 21.3256  13243.8  114.783
 21.3676  13306.3  114.6
 21.4096  13187.4  114.396
 21.4516  13037.4  113.622
 21.4936  12982.5  113.636
 21.5356  13082.7  114.022
 21.5776  13126.3  114.041
 21.6196  12954.1  113.324
 21.6616  12819.6  112.823
 21.7036  13021.6  113.488
 21.7456  13106.3  113.933
 21.7876  13048.5  113.428
 21.8296  12871.9  112.516
 21.8716  12921.3  112.965
 21.9136  13081.4  113.863
 21.9556  12891.9  112.711
 21.9976  12748.9  112.094
 22.0396  12824.1  112.676
 22.0816  12972.2  113.873
 22.1236  12917  113.086
 22.1656  12898.9  113.187
 22.2076  12856.9  112.427
 22.2496  12853.2  112.439
 22.2916  12985.4  112.891
 22.3336  13098.4  114.102
 22.3756  12829.5  112.663
 22.4176  12693.4  111.919
 22.4596  12690.1  112.49
 22.5016  12880.8  112.819
 22.5436  12841.6  112.534
 22.5856  12765.8  112.451
 22.6276  12699.1  112.297
 22.6696  13018  114.05
 22.7116  12724.5  112.271
 22.7536  12814.8  112.642
 22.7956  12800.3  111.903
 22.8376  12735.1  112.141
 22.8796  12778.9  112.137
 22.9216  12842.7  112.966
 22.9636  12788.6  111.876
 23.0056  12854.5  112.3
 23.0476  12883.9  113.004
 23.0896  13097.3  113.304
 23.1316  12904.3  112.908
 23.1736  12885.2  115.805
 23.2156  13065  113.838
 23.2576  12900  113.328
 23.2996  12772.6  112.562
 23.3416  12782.1  113.121
 23.3836  12829.7  112.544
 23.4256  12937.2  113.151
 23.4676  12793.9  112.215
 23.5096  12637.9  112.208
 23.5516  12711.8  111.81
 23.5936  12847.6  113.323
 23.6356  12930.8  113.354
 23.6776  12767.9  113.188
 23.7196  12537.3  111.405
 23.7616  12775.6  112.378
 23.8036  12600.6  111.64
 23.8456  12661.7  111.482
 23.8876  12438.4  110.844
 23.9296  12470.1  111.479
 23.9716  12578.9  111.151
 24.0136  12664.6  112.448
 24.0556  12232.7  110.242
 24.0976  12343.9  110.548
 24.1396  12232.4  112.708
 24.1816  12376.1  112.108
 24.2236  12449  111.711
 24.2656  12149.5  109.83
 24.3076  12285.3  110.702
 24.3496  12158.8  110.019
 24.3916  12161.9  110.079
 24.4336  12174.9  110.347
 24.4756  12022.9  109.528
 24.5176  11861.5  108.436
 24.5596  11740.8  108.009
 24.6016  11882.9  108.95
 24.6436  11829.7  108.189
 24.6856  11876.2  108.167
 24.7276  11880.5  108.512
 24.7696  11640.8  107.519
 24.8116  11700.7  107.976
 24.8536  11534.2  107.197
 24.8956  11607.5  107.277
 24.9376  11592.4  107.148
 24.9796  11490.3  107.03
 25.0216  11196.1  105.752
 25.0636  11544.5  107.045
 25.1056  11405.7  106.836
 25.1476  11504.6  109.247
 25.1896  11445.4  107.438
 25.2316  11476.7  106.73
 25.2736  11365.2  105.982
 25.3156  11428.8  106.348
 25.3576  11242.2  105.899
 25.3996  11347.2  106.378
 25.4416  11279.5  106.043
 25.4836  11298  106.654
 25.5256  11224.2  105.667
 25.5676  11313.1  105.817
 25.6096  11076.1  105.276
 25.6516  11318  105.912
 25.6936  11135.3  105.362
 25.7356  11100.5  105.331
 25.7776  11231.1  105.553
 25.8196  11004.5  104.723
 25.8616  11149.5  105.335
 25.9036  11199.2  105.033
 25.9456  11179.6  105.545
 25.9876  11054  105.01
 26.0296  11147.6  105.05
 26.0716  10988.8  104.623
 26.1136  11112.1  105.163
 26.1556  11053.1  104.17
 26.1976  11004.1  104.961
 26.2396  11080.1  104.726
 26.2816  11114  105.239
 26.3236  11063.3  105.088
 26.3656  10928.7  104.241
 26.4076  11135.7  105.445
 26.4496  11522.5  106.741
 26.4916  11156  105.028
 26.5336  11071.4  104.958
 26.5756  11319.2  105.993
 26.6176  10885.9  103.991
 26.6596  10833.5  104.044
 26.7016  10900  104.163
 26.7436  10755.1  103.554
 26.7856  10773.5  103.629
 26.8276  10785.6  103.642
 26.8696  10796.4  103.566
 26.9116  10706.6  103.077
 26.9536  10706  103.121
 26.9956  10840.8  103.803
 27.0376  10553.1  102.629
 27.0796  10672.3  102.983
 27.1216  10584.9  102.587
 27.1636  10453  102.117
 27.2056  10590.8  102.668
 27.2476  10612.3  102.773
 27.2896  10533  102.431
 27.3316  10526.6  102.182
 27.3736  10569.8  102.661
 27.4156  10471.1  102.005
 27.4576  10591.4  102.835
 27.4996  10356.3  101.276
 27.5416  10494.8  102.281
 27.5836  10341  101.344
 27.6256  10732.4  103.409
 27.6676  10650.7  103.04
 27.7096  10368.8  101.529
 27.7516  10354.5  101.616
 27.7936  10390.8  101.961
 27.8356  10469.2  101.963
 27.8776  10302.8  101.192
 27.9196  10197.5  100.527
 27.9616  10169.1  100.578
 28.0036  10267.3  101.039
 28.0456  10251.9  101.088
 28.0876  10178.4  100.818
 28.1296  10313.9  101.326
 28.1716  10161.1  100.578
 28.2136  10297.6  101.221
 28.2556  10094.3  100.329
 28.2976  10103.4  100.364
 28.3396  10121.8  100.258
 28.3816  10170.1  100.478
 28.4236  10181.8  100.691
 28.4656  9973.78  99.6905
 28.5076  10086.7  99.8898
 28.5496  10171.2  100.571
 28.5916  10178.7  100.412
 28.6336  9920.71  99.4726
 28.6756  10121.6  99.6714
 28.7176  9966.53  99.4525
 28.7596  9936.66  99.2037
 28.8016  10006.1  99.6689
 28.8436  9778.7  98.6886
 28.8856  10088.5  100.082
 28.9276  9943.33  99.6108
 28.9696  10006.5  99.5743
 29.0116  9727.45  98.3573
 29.0536  9698.46  98.4242
 29.0956  9916.88  99.2407
 29.1376  9878.52  99.0086
 29.1796  9926.32  99.2918
 29.2216  9900.87  99.0073
 29.2636  9871.77  98.8504
 29.3056  9862.17  98.6794
 29.3476  9840.92  99.0999
 29.3896  9974.03  99.8683
 29.4316  9843.64  98.5507
 29.4736  9863.57  98.7125
 29.5156  9929.45  98.964
 29.5576  9829.07  99.2052
 29.5996  9915.62  98.8933
 29.6416  9772.07  98.2935
 29.6836  9816.82  98.4442
 29.7256  9890.59  99.3875
 29.7676  9721.48  98.1908
 29.8096  9719.97  98.1286
 29.8516  9658.57  98.1516
 29.8936  9682.84  98.3705
 29.9356  9699.48  98.2058
 29.9776  9711.12  98.4196
 30.0196  9755.98  98.0311
 30.0616  9743.47  98.344
 30.1036  9699.92  97.9523
 30.1456  9637.32  97.8898
 30.1876  9717.97  98.2543
 30.2296  9696.19  98.0892
 30.2716  9745.9  97.9751
 30.3136  9612.93  97.8992
 30.3556  9610.07  98.1586
 30.3976  9507.81  99.1597
 30.4396  9701.74  97.4733
 30.4816  9780.4  97.4508
 30.5236  9586.85  96.5082
 30.5656  9666.84  97.5693
 30.6076  9655.4  96.9404
 30.6496  9623.94  97.165
 30.6916  9500.23  96.6351
 30.7336  9553.4  97.0538
 30.7756  9624.47  97.7274
 30.8176  9563.41  97.1152
 30.8596  9564.42  96.8906
 30.9016  9358.56  96.1792
 30.9436  9628.25  97.3056
 30.9856  9525.58  96.8934
 31.0276  9409.82  95.9035
 31.0696  9326.24  95.9216
 31.1116  9399.54  96.4129
 31.1536  9412.25  96.3643
 31.1956  9492.51  96.8597
 31.2376  9412.31  96.4625
 31.2796  9331.16  95.5795
 31.3216  9557.25  96.6681
 31.3636  9416.4  96.6572
 31.4056  9422.64  98.0161
 31.4476  9348.37  95.5102
 31.4896  9323.4  95.8889
 31.5316  9452.44  95.9893
 31.5736  9398.5  95.4783
 31.6156  9327.47  95.1495
 31.6576  9407.59  95.6571
 31.6996  9396.34  95.2662
 31.7416  9172.79  95.1765
 31.7836  9224.17  94.4671
 31.8256  9230.55  94.8481
 31.8676  9315.57  95.2002
 31.9096  9180.82  94.865
 31.9516  9105.33  94.6366
 31.9936  9243.76  95.1821
 32.0356  9156.24  94.7941
 32.0776  9274.11  95.2845
 32.1196  9304.43  95.5222
 32.1616  9187.01  94.3856
 32.2036  9101.21  94.4488
 32.2456  9072.88  94.6802
 32.2876  9199.37  94.6695
 32.3296  9140.43  94.4972
 32.3716  9138.64  94.5947
 32.4136  9167.42  94.9551
 32.4556  9295.67  95.0483
 32.4976  9206.58  94.445
 32.5396  9178.49  94.3658
 32.5816  9225.57  94.6278
 32.6236  9170.03  94.5204
 32.6656  9232.99  95.3899
 32.7076  9153.09  94.6261
 32.7496  9209.27  94.5771
 32.7916  9115.91  94.0543
 32.8336  9096.47  94.0562
 32.8756  9062.92  93.6872
 32.9176  8885.44  93.1637
 32.9596  8972.03  93.6844
 33.0016  9008.19  93.6734
 33.0436  9183.92  94.7478
 33.0856  9070.93  94.2424
 33.1276  8930.57  93.248
 33.1696  8970.61  93.2895
 33.2116  9085.89  94.1235
 33.2536  8965.47  93.4909
 33.2956  9091.75  94.235
 33.3376  8941.87  93.1568
 33.3796  9134.96  94.4061
 33.4216  9027.77  93.4452
 33.4636  9051.57  93.7156
 33.5056  8960.17  93.3221
 33.5476  8885.51  93.0807
 33.5896  9152.43  94.2032
 33.6316  8869.11  93.0851
 33.6736  8859.09  93.2815
 33.7156  8881.52  93.4403
 33.7576  8977.05  93.5646
 33.7996  9045.57  93.6896
 33.8416  8754.83  92.3503
 33.8836  8926.9  93.0313
 33.9256  8935.37  93.1379
 33.9676  8916.72  92.933
 34.0096  8736.74  92.3082
 34.0516  8728.84  91.9057
 34.0936  8818.63  92.6363
 34.1356  8878.31  92.6934
 34.1776  8771.55  92.1498
 34.2196  8737.67  92.1521
 34.2616  8777.76  92.5577
 34.3036  8813.85  92.9364
 34.3456  8729.32  92.2427
 34.3876  8743.13  92.2819
 34.4296  8766.98  92.1013
 34.4716  8806.33  92.4552
 34.5136  8782.24  92.5292
 34.5556  8680.63  92.2561
 34.5976  8797.07  92.6656
 34.6396  8872.71  92.7723
 34.6816  8691.58  91.9343
 34.7236  8748.11  92.0153
 34.7656  8638.1  91.6288
 34.8076  8576.66  91.6291
 34.8496  8676.06  92.0145
 34.8916  8603.56  91.5028
 34.9336  8789.47  92.4509
 34.9756  8804.22  92.4432
 35.0176  8840.46  93.1734
 35.0596  8634.73  91.9027
 35.1016  8865.24  92.8898
 35.1436  8774.92  92.0969
 35.1856  8451.72  90.5112
 35.2276  8642.31  91.7052
 35.2696  8621.73  91.7845
 35.3116  8613.91  91.8378
 35.3536  8661.52  91.7977
 35.3956  8572.9  91.035
 35.4376  8606.9  91.7747
 35.4796  8571.98  91.651
 35.5216  8476.65  91.0193
 35.5636  8362.51  91.2248
 35.6056  8634.44  91.7058
 35.6476  8639.22  91.6187
 35.6896  8590.14  91.5314
 35.7316  8454.9  90.7017
 35.7736  8483.06  91.0495
 35.8156  8417.08  90.6904
 35.8576  8541.31  91.6139
 35.8996  8647.34  92.138
 35.9416  8888.71  92.8087
 35.9836  8428.72  90.8249
 36.0256  8588.07  91.7039
 36.0676  8554.49  91.0589
 36.1096  8403.39  90.6077
 36.1516  8644.44  91.7858
 36.1936  8444.73  90.5645
 36.2356  8335.48  90.6141
 36.2776  8444.01  90.6872
 36.3196  8232.87  89.2152
 36.3616  8493.87  90.7517
 36.4036  8519.99  90.9472
 36.4456  8465.43  90.8676
 36.4876  8360.2  90.2444
 36.5296  8423.69  90.6248
 36.5716  8419.1  91.3858
 36.6136  8525.66  90.7313
 36.6556  8527.02  90.9391
 36.6976  8447.06  91.0147
 36.7396  8476  90.9928
 36.7816  8516.74  91.4928
 36.8236  8331.87  90.4224
 36.8656  8262.72  90.1174
 36.9076  8226.79  89.9195
 36.9496  8326.61  90.4834
 36.9916  8311.69  89.8746
 37.0336  8485.24  91.1274
 37.0756  8438.45  90.6668
 37.1176  8302.89  90.2995
 37.1596  8164.72  89.451
 37.2016  8299.78  90.3747
 37.2436  8358.18  90.0509
 37.2856  8221.12  89.5682
 37.3276  8399.77  89.878
 37.3696  8185.27  89.6116
 37.4116  8347.69  90.3956
 37.4536  8225.61  89.5998
 37.4956  8252.51  89.7883
 37.5376  8235.74  91.2663
 37.5796  8238.62  91.224
 37.6216  8055.86  88.4856
 37.6636  8162.95  88.9655
 37.7056  8194.42  89.3299
 37.7476  8202.85  88.9098
 37.7896  8057.05  88.6068
 37.8316  8001.35  88.4765
 37.8736  8286.27  89.5603
 37.9156  8158.34  88.866
 37.9576  8212.91  89.2134
 37.9996  8087.02  88.0816
 38.0416  8065.52  88.7821
 38.0836  8331.66  90.1335
 38.1256  8278.47  89.7951
 38.1676  7905.51  87.896
 38.2096  8146.39  88.8432
 38.2516  8229.95  89.4096
 38.2936  8157.49  88.904
 38.3356  8174.3  88.9079
 38.3776  8023.9  88.3684
 38.4196  8249.67  89.4544
 38.4616  8055.19  88.6296
 38.5036  8366.46  90.1655
 38.5456  8007.6  89.0524
 38.5876  8224.18  90.2885
 38.6296  7998.31  88.0085
 38.6716  8042.04  88.0392
 38.7136  7974.81  87.6148
 38.7556  7922.24  87.8261
 38.7976  7995.47  88.1692
 38.8396  7772.94  87.3846
 38.8816  7913.36  87.9549
 38.9236  7907.8  87.7309
 38.9656  7950.48  87.8809
 39.0076  7997.27  87.5444
 39.0496  8032.6  88.2742
 39.0916  8090.73  88.2324
 39.1336  8014.12  88.239
 39.1756  7991.61  88.1834
 39.2176  8008.22  88.8118
 39.2596  7980.69  88.5762
 39.3016  8076.72  88.6591
 39.3436  7880.77  88.0197
 39.3856  7983.16  88.0356
 39.4276  7989.16  88.5568
 39.4696  7916.55  87.7855
 39.5116  7949.47  88.4798
 39.5536  8087.16  89.6783
 39.5956  8070.63  88.681
 39.6376  8053.7  88.4266
 39.6796  7976.52  87.9054
 39.7216  8043.79  88.3718
 39.7636  8061.19  89.0444
 39.8056  8076.19  88.9028
 39.8476  7925.28  88.3229
 39.8896  7894.98  87.783
 39.9316  7944.69  88.316
 39.9736  8098.87  88.7363
 40.0156  8041.13  88.2417
 40.0576  8038.72  88.5912
 40.0996  8114.55  88.1827
 40.1416  8026.93  88.4902
 40.1836  8098.98  88.7858
 40.2256  8171.83  89.2296
 40.2676  8009.85  88.4443
 40.3096  8039.1  88.5355
 40.3516  8095.23  89.0346
 40.3936  8150.99  88.8112
 40.4356  8093.01  88.6946
 40.4776  8047.91  88.8592
 40.5196  8102.3  89.2848
 40.5616  8074.07  88.7648
 40.6036  8048.61  88.8806
 40.6456  8064.52  88.5756
 40.6876  8170.31  89.1439
 40.7296  8183.45  89.3564
 40.7716  8124.67  89.1694
 40.8136  7970.21  88.2601
 40.8556  7974.96  88.4099
 40.8976  8045.76  88.7295
 40.9396  8031.12  88.9965
 40.9816  8124.25  88.7935
 41.0236  8102.34  88.4437
 41.0656  8139.15  89.1928
 41.1076  8178.63  89.1778
 41.1496  8035.24  88.3031
 41.1916  8086.81  88.9157
 41.2336  8136.22  89.171
 41.2756  8120.95  88.692
 41.3176  7947.66  88.3502
 41.3596  8107.76  88.9647
 41.4016  8040.65  88.8629
 41.4436  8111.85  89.0298
 41.4856  8102.16  89.1544
 41.5276  8005.93  88.6369
 41.5696  8087.83  88.7001
 41.6116  7954.3  88.3714
 41.6536  7970.6  88.3208
 41.6956  8046.48  88.7966
 41.7376  7961.79  88.3585
 41.7796  7962.23  88.2921
 41.8216  7977.05  88.5594
 41.8636  8044.94  88.8759
 41.9056  7930.77  88.0268
 41.9476  8032.88  88.8334
 41.9896  8049.05  88.581
 42.0316  8056.6  88.7127
 42.0736  7975.38  88.3722
 42.1156  7937.46  88.0006
 42.1576  8024.84  88.5876
 42.1996  8002.6  88.5993
 42.2416  8053.52  88.4661
 42.2836  7973.03  88.1287
 42.3256  7897.54  87.8278
 42.3676  8045.99  88.4495
 42.4096  8079.32  88.591
 42.4516  7955  88.0011
 42.4936  8011.65  88.3832
 42.5356  7949.8  88.1824
 42.5776  7952.62  88.1309
 42.6196  8027.62  88.5189
 42.6616  7842.79  87.7496
 42.7036  7992.88  87.9632
 42.7456  7941.58  88.0375
 42.7876  7939.79  88.1253
 42.8296  7997.01  88.3362
 42.8716  7939.44  88.1148
 42.9136  7809.93  87.1875
 42.9556  7952.54  88.115
 42.9976  7918.36  87.8885
 43.0396  7920.82  87.6314
 43.0816  7838.05  87.5518
 43.1236  7868.45  87.7802
 43.1656  7847.59  87.494
 43.2076  7852.95  87.6221
 43.2496  7771.11  86.9773
 43.2916  7813.51  87.5884
 43.3336  7841.78  87.5828
 43.3756  7864.74  87.4606
 43.4176  7834.76  87.3761
 43.4596  7850.07  87.3133
 43.5016  7854.62  87.754
 43.5436  7794.13  87.3124
 43.5856  7743.65  87.0475
 43.6276  7690.71  86.6548
 43.6696  7781.25  87.3061
 43.7116  7798.56  87.014
 43.7536  7884.2  87.9792
 43.7956  7687.1  88.0674
 43.8376  7791.4  87.2043
 43.8796  7654.1  86.5092
 43.9216  7798.08  87.235
 43.9636  7735.24  86.989
 44.0056  7684.63  86.9396
 44.0476  7661.1  86.4369
 44.0896  7667.46  86.8192
 44.1316  7640.85  86.3369
 44.1736  7696.16  86.6237
 44.2156  7792.12  87.0192
 44.2576  7709.62  86.8815
 44.2996  7727.2  86.957
 44.3416  7650.93  86.2768
 44.3836  7602.46  86.332
 44.4256  7526.91  85.5497
 44.4676  7616.86  86.2198
 44.5096  7631.29  86.4463
 44.5516  7648.23  86.5093
 44.5936  7435.02  85.2418
 44.6356  7682.12  86.3854
 44.6776  7472.38  85.5168
 44.7196  7599.67  86.5044
 44.7616  7570.08  87.7021
 44.8036  7476.1  85.5822
 44.8456  7519.02  86.0284
 44.8876  7450.59  85.4917
 44.9296  7578.91  85.6771
 44.9716  7488.34  85.5872
 45.0136  7510.62  85.6522
 45.0556  7644.73  86.3853
 45.0976  7393.62  85.1153
 45.1396  7478.62  85.364
 45.1816  7495.08  85.2222
 45.2236  7526.27  85.4717
 45.2656  7471.18  85.6583
 45.3076  7478.78  85.481
 45.3496  7471.44  85.7505
 45.3916  7398.87  85.5993
 45.4336  7528.99  86.1878
 45.4756  7444.66  85.5662
 45.5176  7448.86  85.2049
 45.5596  7519.18  85.7309
 45.6016  7396.8  85.4451
 45.6436  7490.21  85.159
 45.6856  7377.38  85.1672
 45.7276  7416.72  87.2496
 45.7696  7426.06  86.4387
 45.8116  7393.9  85.7014
 45.8536  7382.11  85.525
 45.8956  7390.23  84.9258
 45.9376  7585.48  85.4986
 45.9796  7555.39  86.021
 46.0216  7496.19  86.0263
 46.0636  7492.47  85.1423
 46.1056  7474.84  85.0323
 46.1476  7370.63  85.0283
 46.1896  7450.3  85.6382
 46.2316  7388.93  85.1559
 46.2736  7336.04  85.2143
 46.3156  7411.43  85.2367
 46.3576  7311.37  84.8611
 46.3996  7404.1  85.5601
 46.4416  7350.19  84.8197
 46.4836  7286.54  84.8056
 46.5256  7366.19  85.2108
 46.5676  7352.49  85.2454
 46.6096  7319.58  84.9904
 46.6516  7517.77  85.1605
 46.6936  7310.12  84.4691
 46.7356  7402.85  85.1073
 46.7776  7232.01  84.9574
 46.8196  7221.75  84.4976
 46.8616  7078.85  83.6084
 46.9036  7234.73  84.1801
 46.9456  7302.86  84.2072
 46.9876  7218.72  83.8112
 47.0296  7221.79  84.5158
 47.0716  7130.06  83.7995
 47.1136  7288.73  84.4032
 47.1556  7190.98  83.7049
 47.1976  7266.12  84.2191
 47.2396  7183.08  84.1308
 47.2816  7252.6  84.244
 47.3236  7194.8  84.2786
 47.3656  7267.77  84.6345
 47.4076  7165.97  83.8342
 47.4496  7108.37  83.5946
 47.4916  7143.78  83.9922
 47.5336  7122.37  83.6811
 47.5756  7166.84  84.0207
 47.6176  7094.84  83.5335
 47.6596  7243.11  84.1187
 47.7016  7360.37  84.6089
 47.7436  7200.8  84.0166
 47.7856  7225.98  84.1972
 47.8276  7112  83.5899
 47.8696  7120.63  83.715
 47.9116  7198.75  83.8879
 47.9536  7113.05  83.328
 47.9956  7049.3  83.6574
 48.0376  7017.23  83.2476
 48.0796  7174.43  84.3011
 48.1216  7137.16  83.8999
 48.1636  7287.7  84.347
 48.2056  7139.75  83.7552
 48.2476  7143.18  84.082
 48.2896  7005.62  83.1781
 48.3316  7060.13  83.444
 48.3736  7086.91  83.6225
 48.4156  7036.56  83.1855
 48.4576  7065.85  83.6466
 48.4996  7129.92  83.4868
 48.5416  7140.99  83.8655
 48.5836  7079.44  83.1903
 48.6256  7210.03  84.1571
 48.6676  7030.17  83.6122
 48.7096  7175.58  83.735
 48.7516  6986.91  82.7781
 48.7936  6910.84  82.391
 48.8356  6987.54  82.8928
 48.8776  6987.23  83.3713
 48.9196  7140.45  83.734
 48.9616  6954.42  83.0174
 49.0036  7048.93  83.9222
 49.0456  6992.93  83.573
 49.0876  6910.48  82.7269
 49.1296  6879.77  82.5929
 49.1716  6879.24  82.4712
 49.2136  7043.38  83.3493
 49.2556  6989.53  83.083
 49.2976  6990  83.1459
 49.3396  6915.79  82.771
 49.3816  7036.44  82.9159
 49.4236  7026.52  83.2834
 49.4656  6895.63  82.5239
 49.5076  6935.21  82.5106
 49.5496  6967.96  82.6468
 49.5916  6983.24  82.7739
 49.6336  7014.87  83.1674
 49.6756  7015.86  83.4054
 49.7176  6955.8  82.9852
 49.7596  6980.42  83.0788
 49.8016  7039.13  83.175
 49.8436  6922.31  82.7743
 49.8856  6854.4  82.3681
 49.9276  6801.57  82.1549
 49.9696  6875.78  82.5794
 50.0116  6815.04  82.3343
 50.0536  6897.66  82.7896
 50.0956  6819.06  82.3842
 50.1376  6846.92  82.2575
 50.1796  6810.56  82.3045
 50.2216  6840.43  82.4788
 50.2636  6815.18  81.9503
 50.3056  6809.52  82.092
 50.3476  6796.68  82.0268
 50.3896  6838.44  82.2567
 50.4316  6907.11  82.5055
 50.4736  6733.65  81.6763
 50.5156  6789.19  82.0024
 50.5576  6923.24  82.5635
 50.5996  6819.55  82.2282
 50.6416  6749.11  81.7338
 50.6836  6869.41  82.5175
 50.7256  6932.18  82.8221
 50.7676  6883.1  82.7955
 50.8096  6730.95  81.4599
 50.8516  6783.49  82.192
 50.8936  6692.67  81.4257
 50.9356  6828.76  82.3543
 50.9776  6764.19  82.1063
 51.0196  6772.9  82.2958
 51.0616  6627.94  80.7532
 51.1036  6808.82  82.1998
 51.1456  6816.48  82.1586
 51.1876  6750.14  81.1061
 51.2296  6681.64  81.3213
 51.2716  6708.47  81.1861
 51.3136  6657.42  81.3321
 51.3556  6674.56  81.0642
 51.3976  6656.55  81.1075
 51.4396  6448.23  80.1239
 51.4816  6716.23  81.6275
 51.5236  6704.37  81.6356
 51.5656  6616.23  80.7114
 51.6076  6761.59  81.6734
 51.6496  6642.1  81.1371
 51.6916  6603.61  81.257
 51.7336  6646.45  81.6106
 51.7756  6551.61  80.7244
 51.8176  6589.24  81.053
 51.8596  6593.61  81.1088
 51.9016  6717.23  81.4705
 51.9436  6635.78  82.4184
 51.9856  6524.11  82.1497
 52.0276  6534.2  80.7404
 52.0696  6669.78  81.6375
 52.1116  6568.08  81.1261
 52.1536  6572.5  81.0359
 52.1956  6683.77  81.1962
 52.2376  6760.59  81.8323
 52.2796  6629.49  80.8319
 52.3216  6497.8  80.7243
 52.3636  6631.42  81.1265
 52.4056  6570.71  80.6083
 52.4476  6426.69  80.0849
 52.4896  6529.77  80.7738
 52.5316  6573.57  81.0904
 52.5736  6612.31  81.0594
 52.6156  6529.42  80.9186
 52.6576  6678.18  81.2753
 52.6996  6399.63  80.5255
 52.7416  6494.34  80.9723
 52.7836  6678  81.9812
 52.8256  6614.68  80.8284
 52.8676  6553.33  81.0312
 52.9096  6489.61  80.7159
 52.9516  6552.64  81.4841
 52.9936  6533.02  81.7529
 53.0356  6463  80.3195
 53.0776  6399.1  80.1999
 53.1196  6387.05  80.2306
 53.1616  6423.36  80.5044
 53.2036  6355.94  80.0322
 53.2456  6275.08  79.6222
 53.2876  6257.18  79.222
 53.3296  6427.13  80.6159
 53.3716  6377.61  80.0499
 53.4136  6329.03  79.8962
 53.4556  6324.17  79.8936
 53.4976  6407.05  80.2641
 53.5396  6392.47  80.5689
 53.5816  6337.67  79.8562
 53.6236  6232.95  79.5306
 53.6656  6345.6  79.8778
 53.7076  6417.18  80.2867
 53.7496  6348.2  79.9705
 53.7916  6315.5  79.8927
 53.8336  6345.32  79.9766
 53.8756  6191.72  79.5418
 53.9176  6317.27  79.7043
 53.9596  6416.2  81.0904
 54.0016  6387.31  80.2404
 54.0436  6383.66  80.4316
 54.0856  6391.03  79.9083
 54.1276  6367.68  79.9541
 54.1696  6256.26  79.4244
 54.2116  6388.74  80.0149
 54.2536  6310.7  79.3422
 54.2956  6375.41  79.8001
 54.3376  6366.49  80.2249
 54.3796  6299.54  79.7039
 54.4216  6451.76  80.7014
 54.4636  6413.13  80.4202
 54.5056  6350.42  79.8478
 54.5476  6348.1  80.1707
 54.5896  6321.06  79.8318
 54.6316  6356.05  79.9097
 54.6736  6327.32  79.757
 54.7156  6307.96  79.7059
 54.7576  6223.2  79.1668
 54.7996  6348.54  80.0917
 54.8416  6265.6  79.6164
 54.8836  6209.68  79.3698
 54.9256  6257.48  79.4254
 54.9676  6466.12  80.5953
 55.0096  6302.77  79.6416
 55.0516  6324.99  79.9527
 55.0936  6375.62  79.9527
 55.1356  6292.61  79.4857
 55.1776  6286.91  79.7122
 55.2196  6281.67  79.464
 55.2616  6306.01  79.827
 55.3036  6261.84  79.7117
 55.3456  6276.69  79.9559
 55.3876  6350.3  80.1643
 55.4296  6300.05  79.8249
 55.4716  6317.24  79.965
 55.5136  6301.59  79.6257
 55.5556  6196.19  79.0206
 55.5976  6276.76  79.5976
 55.6396  6235.87  79.2801
 55.6816  6270.46  79.3825
 55.7236  6294.32  79.6726
 55.7656  6253.75  79.075
 55.8076  6356.51  79.7085
 55.8496  6234.59  79.256
 55.8916  6209.89  79.2671
 55.9336  6268.02  79.4837
 55.9756  6229.58  79.1328
 56.0176  6224.57  79.2567
 56.0596  6231.22  79.2842
 56.1016  6306.71  79.8004
 56.1436  6248.09  79.6612
 56.1856  6246.03  79.3945
 56.2276  6258.43  79.5171
 56.2696  6295.31  79.726
 56.3116  6256.98  79.8841
 56.3536  6277.67  79.6815
 56.3956  6196.97  79.1591
 56.4376  6126.35  78.7398
 56.4796  6293.55  79.6114
 56.5216  6251.35  79.7186
 56.5636  6249.91  79.2979
 56.6056  6214.2  79.2932
 56.6476  6215.66  78.9354
 56.6896  6360.07  80.3012
 56.7316  6245.68  79.4837
 56.7736  6194.92  79.1613
 56.8156  6178.88  79.0458
 56.8576  6235.74  79.3556
 56.8996  6222.93  79.213
 56.9416  6195.64  79.2069
 56.9836  6123.86  78.3972
 57.0256  6179.02  79.067
 57.0676  6236.77  79.5591
 57.1096  6169.57  78.9223
 57.1516  6216.25  79.2464
 57.1936  6212.85  79.0078
 57.2356  6237.24  79.4873
 57.2776  6228.32  79.3813
 57.3196  6099.98  78.9284
 57.3616  6184.68  78.969
 57.4036  6318.19  79.8787
 57.4456  6208.34  79.1388
 57.4876  6256.61  79.3098
 57.5296  6137.88  78.796
 57.5716  6257.79  79.6422
 57.6136  6227.73  79.2796
 57.6556  6169.08  79.037
 57.6976  6213.88  79.1445
 57.7396  6049.52  78.4702
 57.7816  6014.73  78.595
 57.8236  6198.96  79.5883
 57.8656  6186.73  79.1557
 57.9076  6198.66  79.2699
 57.9496  6169.89  79.4358
 57.9916  6201.83  79.1035
 58.0336  6096.41  78.744
 58.0756  6182.89  78.9302
 58.1176  6205.27  79.0813
 58.1596  6175.9  79.4622
 58.2016  6224.88  79.0165
 58.2436  6240.67  79.5167
 58.2856  6190.21  79.1094
 58.3276  6123.28  79.0563
 58.3696  6202.18  79.3109
 58.4116  6232.58  79.3665
 58.4536  6127.69  78.5881
 58.4956  6107.55  78.6376
 58.5376  6181.57  78.6821
 58.5796  6165.67  79.003
 58.6216  6167.73  78.8367
 58.6636  6281.57  79.7751
 58.7056  6134.27  78.6916
 58.7476  6164.81  79.3361
 58.7896  6156.23  78.9223
 58.8316  6171.78  79.0172
 58.8736  6197.4  79.1914
 58.9156  6189.14  79.1801
 58.9576  6151.85  79.1554
 58.9996  6381.26  79.9462
 59.0416  6356.47  80.1723
 59.0836  6270.95  79.5561
 59.1256  6166.93  79.2831
 59.1676  6191.94  80.0556
 59.2096  6223.26  79.5679
 59.2516  6426.42  80.4241
 59.2936  6167.77  79.1206
 59.3356  6154.47  78.9118
 59.3776  6197.81  79.3603
 59.4196  6123.39  78.8174
 59.4616  6084.83  78.4288
 59.5036  6059.5  78.301
 59.5456  6383.27  80.0503
 59.5876  6289.61  79.6558
 59.6296  6115.22  78.6135
 59.6716  6095.3  78.5435
 59.7136  6107.99  78.6135
 59.7556  6201.94  79.354
 59.7976  6265.79  79.4988
 59.8396  6149.61  78.6516
 59.8816  6326.88  80.3335
 59.9236  6280.12  79.6747
 59.9656  6154.95  79.1376
 60.0076  6232.1  78.9815
 60.0496  6179.21  79.1539
 60.0916  6354.72  79.6747
 60.1336  6219.18  79.944
 60.1756  6066.55  80.1439
 60.1996  0.0000000E+00  0.0000000E+00