File: docs/examples/XRD/IS17_D/Data/IS17_D/17_Db_f00126.xye
# /beamlines/bl04/projects/cycle2025-II/20250340211-lsimonelli/DATA/IS17_D/17_Db_f00126.xye : mythproc.py merge -s 0.006 -l 0.5 -f /beamlines/bl04/inhouse/ff/FlatField/ff_20Nov2024rod8mm60s_17keV.raw -b True -c true -o xye /beamlines/bl04/projects/cycle2025-II/20250340211-lsimonelli/DATA/IS17_D/17_Db_00126.dat
# IsMon = [6753916, 6749460, 6757308]  IsPos = [-1.4999, -2.4884, -3.4988]
# Wave = 0.4962  CalPath /beamlines/bl04/projects/cycle2025-II/20250340211-lsimonelli/DATA/Align/Si_Pos1_25keV_f00001.cal
# Date = 2025-09-25_04:50:05 Dt = 4.8000  Bin = 0.0060  <imon> = 6753561 +/- 3214 (Min/Max) 6749460 / 6757308
# icurr 250.2118  mocoIn 1.7069E-05  mocoOut 0.8011  i15 7.0774e+06  imon 6.75356e+06  i7 6.6667  iEMpd_timer 4.8000  iEMpd_1 3.5827E-08  iEMpd_2 7.7868E-08  iEMpd_3 1.6040E-08  iEMpd_4 4.9311E-08  iEMhp_timer 4.8000  iEMhp_1 4.8877E-06  iEMhp_2 -2.4483E-08  iEMhp_3 -2.4187E-08  iEMhp_4 -2.0534E-08
#      9776
 1.5856  44468.3  216.53
 1.6276  51090.7  228.111
 1.6696  56455.9  238.944
 1.7116  64311.6  255.525
 1.7536  71666.2  268.592
 1.7956  75619.9  276.59
 1.8376  72542.1  271.332
 1.8796  62640.1  250.285
 1.9216  51576.6  228.01
 1.9636  44432  210.761
 2.0056  40605.4  200.701
 2.0476  38179.2  196.746
 2.0896  36183.1  190.411
 2.1316  36092.3  189.257
 2.1736  34080.4  185.366
 2.2156  34738.9  185.646
 2.2576  33273.5  182.34
 2.2996  32033.1  179.565
 2.3416  32510.7  179.453
 2.3836  31211  175.94
 2.4256  30577.9  174.713
 2.4676  30428.7  174.04
 2.5096  30033.4  172.962
 2.5516  28572.3  172.612
 2.5936  28753.9  169.68
 2.6356  28090.2  168.407
 2.6776  27893.5  166.716
 2.7196  27430.1  165.821
 2.7616  27296.4  165.197
 2.8036  27052.4  164.626
 2.8456  27101.1  165.419
 2.8876  26150.5  162.365
 2.9296  25990.7  161.986
 2.9716  25847.2  161.025
 3.0136  25726.9  160.722
 3.0556  25270.8  159.686
 3.0976  25761  160.107
 3.1396  25302  159.422
 3.1816  25024.2  158.482
 3.2236  24830.6  157.87
 3.2656  24740.3  156.621
 3.3076  24622.4  157.713
 3.3496  24714.5  156.938
 3.3916  25366  158.804
 3.4336  25682.2  160.384
 3.4756  25739.5  160.491
 3.5176  26205.5  161.719
 3.5596  26209.9  164.15
 3.6016  26364.3  162.255
 3.6436  25540.1  160.825
 3.6856  25305.4  158.36
 3.7276  24167.3  155.842
 3.7696  24047.3  155.635
 3.8116  23642  154.219
 3.8536  23906.3  154.987
 3.8956  23714.3  154.208
 3.9376  23693.5  154.409
 3.9796  23669.6  153.821
 4.0216  23526.2  152.39
 4.0636  23536.6  153.889
 4.1056  23581.3  153.701
 4.1476  24022.6  155.427
 4.1896  23831.4  154.676
 4.2316  24102.7  155.369
 4.2736  24605.9  156.784
 4.3156  24533.7  156.777
 4.3576  25415.4  159.484
 4.3996  25537.2  160.157
 4.4416  26174.8  161.711
 4.4836  26592.5  163.17
 4.5256  27178.2  165.548
 4.5676  26855.4  164.825
 4.6096  27712.8  166.065
 4.6516  27697.3  165.725
 4.6936  27809  166.884
 4.7356  28214.6  167.928
 4.7776  27995.3  167.1
 4.8196  27817.9  167.215
 4.8616  27309  165.188
 4.9036  27134.6  164.365
 4.9456  26951  164.481
 4.9876  26439.9  162.813
 5.0296  26669.2  163.354
 5.0716  26366.3  163.161
 5.1136  26573.8  163.538
 5.1556  26892.6  163.972
 5.1976  27531.8  165.901
 5.2396  27395.8  165.186
 5.2816  27560.3  166.146
 5.3236  27512.7  165.703
 5.3656  27081.8  165.336
 5.4076  26843.8  164.747
 5.4496  26673.2  163.723
 5.4916  27018.4  164.527
 5.5336  26862.1  164.062
 5.5756  27026.7  164.563
 5.6176  27013.7  163.974
 5.6596  27401.1  166.139
 5.7016  27339.6  165.214
 5.7436  27652.2  166.434
 5.7856  27421.9  165.809
 5.8276  27780  166.596
 5.8696  27725.6  166.609
 5.9116  27638.9  166.95
 5.9536  28267.1  168.565
 5.9956  28348.4  168.206
 6.0376  28478  169.215
 6.0796  28542.5  169.236
 6.1216  28351.5  168.868
 6.1636  28745.9  169.084
 6.2056  28570.3  169.256
 6.2476  28794.6  169.777
 6.2896  28982.3  170.007
 6.3316  29245.1  170.955
 6.3736  29138.9  170.537
 6.4156  29444.2  171.31
 6.4576  29479.6  171.037
 6.4996  29291  170.967
 6.5416  29622.4  172.054
 6.5836  29307.5  171.382
 6.6256  29568.1  171.7
 6.6676  30076.4  172.738
 6.7096  30282.4  174.19
 6.7516  30331.7  173.992
 6.7936  30676.4  174.356
 6.8356  30807.1  174.84
 6.8776  30845.7  175.763
 6.9196  30989.8  176.573
 6.9616  31443.7  177.315
 7.0036  31758.4  177.84
 7.0456  31786.7  177.216
 7.0876  31825.8  179.015
 7.1296  31718.6  177.841
 7.1716  31782  177.552
 7.2136  31666.8  177.014
 7.2556  31719.9  177.318
 7.2976  31735.3  177.852
 7.3396  31660  177.884
 7.3816  31652.9  178.065
 7.4236  32046.3  178.466
 7.4656  32121.6  178.128
 7.5076  32356.3  178.935
 7.5496  32164.2  178.93
 7.5916  32294.5  179.349
 7.6336  32746.5  180.482
 7.6756  32896.5  180.75
 7.7176  33347.3  182.315
 7.7596  33250.2  183.263
 7.8016  33878.8  187.238
 7.8436  33321.9  182.362
 7.8856  33658.7  182.885
 7.9276  34142.7  184.581
 7.9696  34457.5  185.761
 8.0116  35435.2  186.919
 8.0536  35345.6  186.926
 8.0956  35416.6  188.315
 8.1376  35904.4  189.062
 8.1796  36162.1  190.293
 8.2216  36911.7  190.978
 8.2636  37087.9  191.682
 8.3056  36823.6  191.75
 8.3476  37662.7  193.259
 8.3896  37015.3  191.677
 8.4316  37392  192.816
 8.4736  37289.1  192.022
 8.5156  37195.6  192.057
 8.5576  37054  192.672
 8.5996  36870.2  191.062
 8.6416  36942.2  192.524
 8.6836  36566.1  191.341
 8.7256  37268.2  192.645
 8.7676  36780.2  194.265
 8.8096  37639.5  193.776
 8.8516  37270.5  192.389
 8.8936  36723.6  190.931
 8.9356  37199  192.502
 8.9776  36667.9  191.192
 9.0196  37132.7  192.083
 9.0616  36875.6  190.906
 9.1036  36345.8  190.703
 9.1456  36089  189.35
 9.1876  36611.9  190.657
 9.2296  36122.8  188.821
 9.2716  36027.7  188.616
 9.3136  35958.5  188.433
 9.3556  36337.1  189.394
 9.3976  35345  187.303
 9.4396  35318.6  187.147
 9.4816  35351.8  187.099
 9.5236  34817  185.56
 9.5656  34566.2  185.255
 9.6076  33783.1  183.664
 9.6496  34407.7  185.236
 9.6916  33896  183.814
 9.7336  34071.8  184.072
 9.7756  33838.3  184.736
 9.8176  33796.1  184.151
 9.8596  33568.4  181.972
 9.9016  33128.7  180.766
 9.9436  33194.7  180.852
 9.9856  32792.3  180.031
 10.0276  32166.1  179.381
 10.0696  32629.1  179.695
 10.1116  31586.1  177.072
 10.1536  31768.7  177.733
 10.1956  31236.1  175.853
 10.2376  31011.6  174.712
 10.2796  31171.1  175.279
 10.3216  30523.4  173.733
 10.3636  30638.6  174.086
 10.4056  29673.2  171.741
 10.4476  30287.7  173.106
 10.4896  30362.1  172.759
 10.5316  29772.8  171.805
 10.5736  29562.9  171.62
 10.6156  29369.1  170.794
 10.6576  29408.9  169.469
 10.6996  28940.5  168.827
 10.7416  28508  167.78
 10.7836  28099.1  167.228
 10.8256  27622.6  166.223
 10.8676  28031  166.994
 10.9096  27783.6  166.262
 10.9516  27321.4  163.824
 10.9936  27531.4  164.658
 11.0356  27436.7  164.999
 11.0776  27106.2  163.336
 11.1196  26728.6  162.962
 11.1616  26335.7  161.44
 11.2036  26535.8  161.887
 11.2456  26448.3  162.343
 11.2876  26848.6  163.276
 11.3296  26383.6  161.769
 11.3716  26939.8  163.141
 11.4136  27106.9  164.554
 11.4556  27111.9  164.212
 11.4976  27968  165.764
 11.5396  27388  164.217
 11.5816  26789.5  162.851
 11.6236  26341.1  161.728
 11.6656  26338  160.845
 11.7076  25524.9  159.172
 11.7496  25314.3  162.542
 11.7916  25368.3  157.942
 11.8336  24769.6  156.948
 11.8756  24989.9  157.204
 11.9176  24847.5  156.435
 11.9596  24968.9  156.981
 12.0016  24739.7  157.037
 12.0436  24967.6  157.191
 12.0856  24430.7  155.999
 12.1276  24374.1  155.769
 12.1696  24413.9  155.006
 12.2116  24208.6  154.355
 12.2536  24156.7  155.008
 12.2956  23988.7  153.813
 12.3376  24462.2  155.535
 12.3796  24060.1  154.73
 12.4216  24102.9  154.065
 12.4636  23937.2  154.468
 12.5056  24051.6  154.098
 12.5476  24447.6  154.877
 12.5896  23978  154.021
 12.6316  24231.7  154.982
 12.6736  23800.3  154.088
 12.7156  24047.4  154.727
 12.7576  23990  154.801
 12.7996  24226  154.187
 12.8416  23977.8  154.453
 12.8836  24046  154.503
 12.9256  24836.1  156.045
 12.9676  24479.2  155.319
 13.0096  24669.1  157.048
 13.0516  24598.6  155.85
 13.0936  25015.8  157.575
 13.1356  25058.1  156.664
 13.1776  24491.9  155.903
 13.2196  24622.3  155.957
 13.2616  24368.9  155.469
 13.3036  24568.7  156.07
 13.3456  24464.4  156.09
 13.3876  24981.9  157.001
 13.4296  24367.5  155.217
 13.4716  24789.2  156.18
 13.5136  24568.8  155.596
 13.5556  24463.4  155.928
 13.5976  24659.2  156.706
 13.6396  24542.2  155.691
 13.6816  24775.8  156.901
 13.7236  25287.8  158.095
 13.7656  26596.4  162.592
 13.8076  27247.3  163.199
 13.8496  26803.7  162.563
 13.8916  25047.9  158.289
 13.9336  24389.6  155.466
 13.9756  24294.1  154.528
 14.0176  23810  153.66
 14.0596  23938.7  154.006
 14.1016  23794.8  153.966
 14.1436  24022.2  153.827
 14.1856  23266.3  151.674
 14.2276  23511.3  152.954
 14.2696  23210.9  151.834
 14.3116  22714.4  150.11
 14.3536  22836.5  150.675
 14.3956  22589.9  149.595
 14.4376  22848.7  150.224
 14.4796  22530.4  149.176
 14.5216  22110  148.558
 14.5636  22273.8  148.68
 14.6056  22462.6  148.854
 14.6476  22229.2  147.329
 14.6896  21909.1  146.813
 14.7316  21475.5  146.392
 14.7736  21191.6  144.569
 14.8156  21132.3  144.379
 14.8576  21185.3  144.42
 14.8996  20949.6  144.82
 14.9416  20341.2  142.712
 14.9836  20343.4  142.693
 15.0256  19865.9  139.938
 15.0676  19827.5  140.112
 15.1096  19798.4  139.748
 15.1516  19467.7  139.138
 15.1936  19154.1  137.436
 15.2356  19109.8  137.557
 15.2776  18925.1  136.486
 15.3196  18708.5  136.689
 15.3616  18582.2  135.974
 15.4036  18464.3  135.422
 15.4456  18885.8  136.603
 15.4876  18322.6  134.237
 15.5296  18299.4  134.45
 15.5716  18130.3  133.419
 15.6136  18031.5  133.392
 15.6556  18075.2  132.786
 15.6976  18018.6  132.884
 15.7396  17715.7  132.122
 15.7816  17782.9  131.897
 15.8236  17348.9  130.951
 15.8656  17443.7  131.118
 15.9076  17448.9  130.958
 15.9496  18105.9  136.232
 15.9916  17779.5  135.422
 16.0336  17894.7  132.666
 16.0756  17599.1  131.887
 16.1176  17500.3  131.607
 16.1596  17145.4  131.43
 16.2016  16995.3  129.62
 16.2436  16888.9  129.597
 16.2856  17124.2  130.006
 16.3276  16710.6  128.868
 16.3696  16991.2  129.772
 16.4116  16740.7  129.254
 16.4536  16872  129.568
 16.4956  16822.3  129.118
 16.5376  16720.6  128.909
 16.5796  16756.3  128.406
 16.6216  16602.6  128.072
 16.6636  16390.7  127.451
 16.7056  16658.8  128.353
 16.7476  16692.7  128.003
 16.7896  16694.4  128.767
 16.8316  16545.2  128.172
 16.8736  16716.3  129.09
 16.9156  16538.4  128.729
 16.9576  16464.1  129.26
 16.9996  16421.6  129.562
 17.0416  16574.9  128.561
 17.0836  16492.3  127.994
 17.1256  16277.4  127.164
 17.1676  16429.2  127.723
 17.2096  16065.3  126.186
 17.2516  16117  126.176
 17.2936  16207  126.884
 17.3356  16020  126.135
 17.3776  15856.4  125.673
 17.4196  15824.8  125.258
 17.4616  15799.9  125.062
 17.5036  15441.4  124.007
 17.5456  15342.8  124.233
 17.5876  15474.5  123.81
 17.6296  15471.2  123.631
 17.6716  15392  123.895
 17.7136  15330.9  123.768
 17.7556  15215.5  123.61
 17.7976  15218.4  123.33
 17.8396  15230  122.899
 17.8816  15097.4  122.935
 17.9236  14768.1  121.366
 17.9656  14805.7  122.048
 18.0076  14894.4  121.969
 18.0496  14878.3  121.053
 18.0916  14919.8  121.764
 18.1336  14846.5  121.567
 18.1756  15069.2  122.024
 18.2176  14617.8  120.39
 18.2596  14706.9  120.502
 18.3016  14786.7  121.084
 18.3436  14860.9  121.391
 18.3856  14793.2  121.237
 18.4276  14826.7  121.064
 18.4696  14670.5  120.497
 18.5116  14654.1  120.715
 18.5536  14587.5  120.799
 18.5956  14355.8  119.395
 18.6376  14397.3  119.988
 18.6796  14581.7  120.05
 18.7216  14580  120.551
 18.7636  14386.4  119.742
 18.8056  14289.6  119.26
 18.8476  14091.6  119.053
 18.8896  14200.1  118.858
 18.9316  14240.8  118.993
 18.9736  14181  118.459
 19.0156  14177.6  118.871
 19.0576  14327  118.321
 19.0996  14384.5  119.281
 19.1416  14285.6  119.268
 19.1836  14211.3  118.565
 19.2256  14099.7  118.316
 19.2676  14111.7  118.452
 19.3096  14091  118.614
 19.3516  14078.9  118.523
 19.3936  13990  118.046
 19.4356  14204  118.821
 19.4776  14107  118.501
 19.5196  14125.6  118.434
 19.5616  14094.4  118.559
 19.6036  14066.4  117.937
 19.6456  14075.5  118.092
 19.6876  14191.1  118.217
 19.7296  14242.5  118.896
 19.7716  14008.6  118.094
 19.8136  14331.6  119.632
 19.8556  14656.3  120.455
 19.8976  14604.7  120.295
 19.9396  14914.1  121.145
 19.9816  14879.7  121.268
 20.0236  14873.6  121.441
 20.0656  14453.5  119.714
 20.1076  14340.1  119.72
 20.1496  13973.6  118.18
 20.1916  14125.2  118.33
 20.2336  13803.9  116.895
 20.2756  13710.1  116.939
 20.3176  13613.7  116.279
 20.3596  13554.3  116.011
 20.4016  13586.7  115.947
 20.4436  13501.2  116.136
 20.4856  13554.4  116.16
 20.5276  13379.1  115.868
 20.5696  13522.4  115.93
 20.6116  13322  115.35
 20.6536  13298.9  114.759
 20.6956  13287  114.843
 20.7376  13172.7  114.559
 20.7796  13281.9  114.724
 20.8216  13300.6  114.517
 20.8636  13320.7  114.977
 20.9056  13241.6  114.579
 20.9476  13148.6  114.018
 20.9896  13295.4  114.515
 21.0316  13216.4  114.078
 21.0736  13181.6  114.45
 21.1156  13064.1  114.097
 21.1576  13282.4  115.082
 21.1996  13007.3  113.869
 21.2416  13059.1  113.916
 21.2836  13167.6  114.367
 21.3256  12988.7  113.662
 21.3676  13170.2  113.987
 21.4096  12804.8  112.716
 21.4516  12957.1  113.253
 21.4936  12655.9  112.207
 21.5356  13062  113.933
 21.5776  13012.1  113.547
 21.6196  12835.6  112.813
 21.6616  12836  112.891
 21.7036  12857.6  112.746
 21.7456  12804.6  112.607
 21.7876  12743.8  112.104
 21.8296  12815.9  112.264
 21.8716  12809.1  112.458
 21.9136  13000.3  113.504
 21.9556  12820.8  112.391
 21.9976  12741.7  112.074
 22.0396  12623.5  111.802
 22.0816  12714.8  112.732
 22.1236  12721.6  112.224
 22.1656  12566.2  111.675
 22.2076  12423.4  110.502
 22.2496  12540.4  111.067
 22.2916  12453.8  110.558
 22.3336  12366.7  110.896
 22.3756  12454.2  111.001
 22.4176  12288.2  110.117
 22.4596  12152.4  110.072
 22.5016  12368.1  110.564
 22.5436  12445.1  110.772
 22.5856  12732.7  112.3
 22.6276  12597.8  111.848
 22.6696  12466.6  111.61
 22.7116  12447.4  111.047
 22.7536  12355.1  110.596
 22.7956  12438.1  110.318
 22.8376  12195.3  109.731
 22.8796  12444.9  110.654
 22.9216  12519.3  111.525
 22.9636  12344.4  109.907
 23.0056  12488.1  110.684
 23.0476  12580.1  111.661
 23.0896  12847.8  112.213
 23.1316  12502.8  111.136
 23.1736  12582.5  114.436
 23.2156  12703.4  112.33
 23.2576  12883  113.259
 23.2996  12591.8  111.748
 23.3416  12802.7  113.21
 23.3836  12700.9  111.983
 23.4256  12893.1  112.954
 23.4676  12817.5  112.311
 23.5096  12743.9  112.651
 23.5516  12798.5  112.185
 23.5936  12750.7  112.891
 23.6356  12821.2  112.86
 23.6776  12489.8  111.604
 23.7196  12686  112.051
 23.7616  12618  111.667
 23.8036  12756.3  112.334
 23.8456  12507.8  110.787
 23.8876  12487  111.057
 23.9296  12418.1  111.239
 23.9716  12466.4  110.652
 24.0136  12535.1  111.867
 24.0556  12489.1  111.374
 24.0976  12214.2  109.955
 24.1396  12086  112.02
 24.1816  12385.7  111.782
 24.2236  12481.9  111.862
 24.2656  12145.2  109.805
 24.3076  12217.6  110.413
 24.3496  12172.1  110.086
 24.3916  12156.7  110.066
 24.4336  12249.5  110.686
 24.4756  12177.2  110.248
 24.5176  11938.4  108.787
 24.5596  11952.8  108.975
 24.6016  11813.1  108.635
 24.6436  11938.2  108.704
 24.6856  11844.5  108.019
 24.7276  11799.4  108.154
 24.7696  11836.5  108.419
 24.8116  11598.2  107.518
 24.8536  11633.9  107.679
 24.8956  11670.2  107.579
 24.9376  11696.7  107.636
 24.9796  11380.3  106.524
 25.0216  11503  107.197
 25.0636  11479.4  106.75
 25.1056  11218.2  106.222
 25.1476  11440.5  108.891
 25.1896  11390.2  107.177
 25.2316  11279.1  105.912
 25.2736  11226.1  105.333
 25.3156  11290.1  105.684
 25.3576  11150.1  105.467
 25.3996  11339  106.341
 25.4416  11172.4  105.538
 25.4836  10943.8  104.969
 25.5256  11071.1  104.929
 25.5676  11135.6  104.983
 25.6096  10971.6  104.778
 25.6516  11043.8  104.63
 25.6936  11075.5  105.087
 25.7356  11052.3  105.109
 25.7776  11120.9  105.022
 25.8196  10820.1  103.84
 25.8616  10972  104.494
 25.9036  11036  104.255
 25.9456  10933.4  104.376
 25.9876  10842.6  103.999
 26.0296  11049  104.505
 26.0716  10945.1  104.43
 26.1136  11091.5  105.06
 26.1556  11065.2  104.307
 26.1976  10994  104.914
 26.2396  10962.9  103.908
 26.2816  10864.1  104.046
 26.3236  10962.8  104.687
 26.3656  11105.8  105.085
 26.4076  10968.3  104.633
 26.4496  11100.6  104.849
 26.4916  11147.9  104.973
 26.5336  11322.4  106.134
 26.5756  11571.8  107.179
 26.6176  10903.4  104.057
 26.6596  10998.5  104.822
 26.7016  10755.2  103.422
 26.7436  10968.8  104.57
 26.7856  10590.4  102.736
 26.8276  10585.3  102.682
 26.8696  10786.6  103.518
 26.9116  10588.7  102.494
 26.9536  10542.6  102.323
 26.9956  10480.5  102.063
 27.0376  10582.9  102.783
 27.0796  10634.5  102.77
 27.1216  10512.8  102.223
 27.1636  10434.9  102.018
 27.2056  10462.6  102.028
 27.2476  10343.4  101.441
 27.2896  10355.1  101.619
 27.3316  10495.6  102.021
 27.3736  10299.6  101.342
 27.4156  10341.2  101.372
 27.4576  10265.9  101.232
 27.4996  10521.6  102.082
 27.5416  10355.2  101.579
 27.5836  10266.1  100.982
 27.6256  10223.2  100.949
 27.6676  10292.2  101.28
 27.7096  10442.1  101.899
 27.7516  10274.9  101.226
 27.7936  10558.3  102.757
 27.8356  10346.6  101.326
 27.8776  10654.5  102.889
 27.9196  10182.1  100.453
 27.9616  10230.2  100.875
 28.0036  10265.7  101.017
 28.0456  10141.8  100.548
 28.0876  9980.99  99.8253
 28.1296  10052.3  100.021
 28.1716  10214.6  100.839
 28.2136  10165.2  100.558
 28.2556  10130.4  100.504
 28.2976  9874.53  99.2262
 28.3396  9983.43  99.5263
 28.3816  10180.5  100.509
 28.4236  9958.31  99.5598
 28.4656  9929.08  99.463
 28.5076  9967.87  99.291
 28.5496  9997.35  99.6946
 28.5916  9862.99  98.8364
 28.6336  9876.4  99.2459
 28.6756  9978.1  98.958
 28.7176  9928.02  99.2625
 28.7596  9915.02  99.0912
 28.8016  9922.13  99.1652
 28.8436  9809.03  98.8378
 28.8856  9920.98  99.2512
 28.9276  9803.14  98.9054
 28.9696  9698.85  98.0377
 29.0116  9692.12  98.1786
 29.0536  9711.71  98.4904
 29.0956  9785.93  98.5559
 29.1376  9761.33  98.4146
 29.1796  9723.71  98.2765
 29.2216  9632.85  97.6542
 29.2636  9750.98  98.3229
 29.3056  9694.25  97.8203
 29.3476  9810.61  98.9394
 29.3896  9810.23  99.0446
 29.4316  9594.76  97.2912
 29.4736  9547.23  97.1063
 29.5156  9742.1  98.0255
 29.5576  9539.35  97.74
 29.5996  9710.37  97.8622
 29.6416  9560.5  97.2268
 29.6836  9508.66  96.8859
 29.7256  9344.58  96.6037
 29.7676  9335.65  96.2142
 29.8096  9468.24  96.8483
 29.8516  9330.34  96.4551
 29.8936  9444.73  97.1512
 29.9356  9419.06  96.7724
 29.9776  9282.67  96.22
 30.0196  9431.18  96.3917
 30.0616  9281.49  95.9804
 30.1036  9365.74  96.2541
 30.1456  9290.13  96.0741
 30.1876  9367.13  96.4722
 30.2296  9296.72  96.0386
 30.2716  9469.32  96.5715
 30.3136  9551.92  97.851
 30.3556  9526.44  97.725
 30.3976  9508.79  99.1442
 30.4396  9734.14  97.6142
 30.4816  9569.65  96.3846
 30.5236  9765.37  97.3659
 30.5656  9441.31  96.4037
 30.6076  9595.68  96.5858
 30.6496  9662.4  97.3412
 30.6916  9324.41  95.7117
 30.7336  9541.43  96.9711
 30.7756  9562.5  97.156
 30.8176  9557.34  97.0596
 30.8596  9495.23  96.495
 30.9016  9491.35  96.8251
 30.9436  9392.09  96.0703
 30.9856  9582.27  97.1632
 31.0276  9425.1  95.9862
 31.0696  9339.92  96.1117
 31.1116  9415.27  96.4706
 31.1536  9383.46  96.1743
 31.1956  9442.8  96.5833
 31.2376  9052.44  94.5761
 31.2796  9389.69  95.8629
 31.3216  9342.37  95.5601
 31.3636  9392.37  96.5201
 31.4056  9318.67  97.4448
 31.4476  9498.45  96.2878
 31.4896  9295.63  95.7381
 31.5316  9418.34  95.7917
 31.5736  9538.24  96.2225
 31.6156  9420.83  95.6323
 31.6576  9447.04  95.8237
 31.6996  9561.25  96.0754
 31.7416  9341.42  96.0695
 31.7836  9424.85  95.4877
 31.8256  9392.51  95.5849
 31.8676  9439.92  95.8286
 31.9096  9248.07  95.2183
 31.9516  9220.54  95.2471
 31.9936  9123.71  94.5729
 32.0356  9384.64  95.9484
 32.0776  9299.36  95.4171
 32.1196  9388.41  95.9779
 32.1616  9376.99  95.3615
 32.2036  9279.57  95.3773
 32.2456  9264.29  95.6838
 32.2876  9366.13  95.6967
 32.3296  9147.43  94.538
 32.3716  9030.92  94.0395
 32.4136  9049.49  94.326
 32.4556  9159.92  94.3012
 32.4976  9065.88  93.7164
 32.5396  9010.74  93.4886
 32.5816  9154.16  94.3635
 32.6236  8949.63  93.3593
 32.6656  9169.5  95.0524
 32.7076  9063.38  94.1593
 32.7496  8982.08  93.4199
 32.7916  9016.69  93.5464
 32.8336  8973.36  93.4235
 32.8756  9120.18  93.8889
 32.9176  8929.75  93.3963
 32.9596  8885.33  93.2284
 33.0016  8969.17  93.4473
 33.0436  8993.44  93.7466
 33.0856  8927.57  93.4966
 33.1276  8825.95  92.7018
 33.1696  9055.23  93.7115
 33.2116  9003.25  93.6966
 33.2536  9042.75  93.8835
 33.2956  9022.95  93.8716
 33.3376  8914.12  93.035
 33.3796  9020.38  93.8086
 33.4216  8809.14  92.2926
 33.4636  8910.31  92.9793
 33.5056  8763.46  92.464
 33.5476  8994.74  93.6442
 33.5896  8933.37  93.1273
 33.6316  8932.81  93.4235
 33.6736  8643.02  92.144
 33.7156  8730.63  92.6382
 33.7576  8933.01  93.3484
 33.7996  8904.15  92.9481
 33.8416  8777.24  92.4784
 33.8836  8721.46  91.9638
 33.9256  8885.96  92.874
 33.9676  8820.05  92.4332
 34.0096  8737.78  92.3087
 34.0516  8771.95  92.1296
 34.0936  8700.75  92.0271
 34.1356  8880.81  92.7134
 34.1776  8609.34  91.2691
 34.2196  8611.55  91.4713
 34.2616  8660.9  91.8806
 34.3036  8697.74  92.3158
 34.3456  8681.62  91.984
 34.3876  8749.72  92.3184
 34.4296  8689.83  91.6911
 34.4716  8786.09  92.3419
 34.5136  8645.81  91.7958
 34.5556  8623.3  91.9382
 34.5976  8606.61  91.6607
 34.6396  8521.63  90.9213
 34.6816  8710.42  92.0261
 34.7236  8636.49  91.3978
 34.7656  8780.51  92.387
 34.8076  8506.16  91.2597
 34.8496  8569.69  91.451
 34.8916  8655.49  91.7718
 34.9336  8659.76  91.7722
 34.9756  8614.18  91.4509
 35.0176  8593.47  91.8723
 35.0596  8617.06  91.8139
 35.1016  8588.4  91.4172
 35.1436  8808.24  92.2695
 35.1856  8610.2  91.3408
 35.2276  8617.28  91.5594
 35.2696  8551.69  91.3942
 35.3116  8468.72  91.0577
 35.3536  8464.85  90.7392
 35.3956  8550.19  90.9122
 35.4376  8563.29  91.5482
 35.4796  8580  91.6797
 35.5216  8494.07  91.1746
 35.5636  8271.46  90.7208
 35.6056  8405.06  90.472
 35.6476  8476.56  90.7524
 35.6896  8509.34  91.0299
 35.7316  8412.22  90.4744
 35.7736  8451.91  90.8769
 35.8156  8500.45  91.1288
 35.8576  8428.56  90.9876
 35.8996  8398.57  90.8013
 35.9416  8449.43  90.581
 35.9836  8491.22  91.1593
 36.0256  8489.76  91.1683
 36.0676  8575.06  91.3786
 36.1096  8479.68  91.008
 36.1516  8562.64  91.3424
 36.1936  8554.84  91.1447
 36.2356  8513.86  91.5856
 36.2776  8371.06  90.2792
 36.3196  8401.89  90.1198
 36.3616  8387.95  90.1668
 36.4036  8432.08  90.4768
 36.4456  8485.85  90.9847
 36.4876  8246.3  89.628
 36.5296  8382.61  90.4005
 36.5716  8235.3  90.3747
 36.6136  8190.75  88.9293
 36.6556  8185.27  89.0872
 36.6976  8085.39  89.0411
 36.7396  8136.25  89.0596
 36.7816  8229.48  89.937
 36.8236  8187.76  89.6446
 36.8656  8062.9  89.0191
 36.9076  7997.43  88.5439
 36.9496  8004.59  88.5556
 36.9916  8163.55  89.0603
 37.0336  8272.57  89.9677
 37.0756  8195.62  89.349
 37.1176  8023.34  88.6719
 37.1596  7944.64  88.2435
 37.2016  8045.29  89.0243
 37.2436  8038.43  88.3043
 37.2856  7988.16  88.2905
 37.3276  8100.06  88.2577
 37.3696  8044.07  88.8354
 37.4116  8113.99  89.1133
 37.4536  8041.3  88.5856
 37.4956  7871.61  87.6892
 37.5376  8320.07  91.7575
 37.5796  8110.04  90.5246
 37.6216  8177.43  89.1392
 37.6636  8236.97  89.3629
 37.7056  8234.11  89.5275
 37.7476  8265.03  89.2416
 37.7896  8102.39  88.8573
 37.8316  8055.91  88.7684
 37.8736  8094.94  88.5064
 37.9156  8081.77  88.4263
 37.9576  8194.19  88.953
 37.9996  7984.28  87.5201
 38.0416  8058.77  88.7326
 38.0836  8223.99  89.5433
 38.1256  8306.07  89.9601
 38.1676  7885.43  87.7708
 38.2096  8235.85  89.3073
 38.2516  8080.09  88.6796
 38.2936  8163.3  88.9325
 38.3356  8012.38  88.033
 38.3776  8099.92  88.7696
 38.4196  8011.79  88.133
 38.4616  8078.68  88.7448
 38.5036  8175.31  89.1239
 38.5456  8004.28  89.0294
 38.5876  7973.02  88.8902
 38.6296  8135.8  88.759
 38.6716  8061.94  88.1516
 38.7136  8012.2  87.8228
 38.7556  8053.04  88.5591
 38.7976  8105.89  88.7742
 38.8396  8005.5  88.6868
 38.8816  7883.73  87.8024
 38.9236  8068.31  88.6218
 38.9656  8041.27  88.3736
 39.0076  8101.64  88.1173
 39.0496  8192.97  89.1637
 39.0916  8106.29  88.339
 39.1336  7955.96  87.9248
 39.1756  7995.07  88.2041
 39.2176  7859.43  87.9934
 39.2596  7883.33  88.0434
 39.3016  7916.34  87.8133
 39.3436  7929.19  88.2996
 39.3856  8001.5  88.1259
 39.4276  8199.12  89.7315
 39.4696  8007.9  88.3025
 39.5116  8005.7  88.7987
 39.5536  8005.79  89.2192
 39.5956  7954.56  88.0352
 39.6376  7977.21  88.1589
 39.6796  8048.81  88.3033
 39.7216  7863.04  87.3704
 39.7636  7945.51  88.3966
 39.8056  7972.92  88.326
 39.8476  7897.32  88.1674
 39.8896  8008.39  88.4142
 39.9316  7957.89  88.3831
 39.9736  8037.34  88.4011
 40.0156  7946.45  87.7255
 40.0576  8010.83  88.4435
 40.0996  8037.27  87.7588
 40.1416  7970.61  88.1854
 40.1836  8009.45  88.2854
 40.2256  7950.03  87.9992
 40.2676  7911.32  87.8895
 40.3096  8099.83  88.8657
 40.3516  8047.23  88.6753
 40.3936  8078.54  88.4074
 40.4356  7917.65  87.7376
 40.4776  7988.98  88.5232
 40.5196  7957.18  88.4784
 40.5616  8205.62  89.4794
 40.6036  7960.04  88.3935
 40.6456  7947.69  87.9286
 40.6876  8138.26  88.9618
 40.7296  7976.51  88.22
 40.7716  8067.46  88.8304
 40.8136  7882.68  87.7606
 40.8556  8042.36  88.7804
 40.8976  8010.48  88.5166
 40.9396  8069.7  89.2029
 40.9816  7924.74  87.6935
 41.0236  7983.32  87.7944
 41.0656  8024.65  88.5615
 41.1076  8010.04  88.254
 41.1496  8010.86  88.1675
 41.1916  7988.11  88.3645
 41.2336  7988.29  88.3553
 41.2756  7964.28  87.8316
 41.3176  7991.73  88.5808
 41.3596  8026.68  88.5127
 41.4016  7943.59  88.3104
 41.4436  7997.69  88.4062
 41.4856  7948.46  88.3
 41.5276  7940.48  88.2685
 41.5696  8103.78  88.8107
 41.6116  7953.69  88.3558
 41.6536  8015.54  88.5597
 41.6956  8005.42  88.5687
 41.7376  7936.59  88.2182
 41.7796  7897.63  87.8772
 41.8216  8113.47  89.3067
 41.8636  7953.69  88.3706
 41.9056  7843.73  87.5478
 41.9476  7959.14  88.4234
 41.9896  8032.58  88.4873
 42.0316  8021.65  88.5189
 42.0736  8078.87  88.9366
 42.1156  7925.41  87.9222
 42.1576  7992.94  88.4083
 42.1996  8086.92  89.0476
 42.2416  7984.61  88.077
 42.2836  8000.1  88.2798
 42.3256  8038.91  88.5966
 42.3676  8086.47  88.6686
 42.4096  7965.42  87.9756
 42.4516  7994.72  88.2118
 42.4936  7903.08  87.7807
 42.5356  7840.51  87.5723
 42.5776  8015.42  88.4781
 42.6196  7943.49  88.1437
 42.6616  7753.55  87.2482
 42.7036  7905.93  87.4742
 42.7456  8037.92  88.5639
 42.7876  7879.82  87.7821
 42.8296  7923.9  87.8534
 42.8716  7809.88  87.3937
 42.9136  7824.78  87.2635
 42.9556  7898.03  87.8069
 42.9976  7938.76  87.9992
 43.0396  7972.39  87.9112
 43.0816  7814.4  87.4232
 43.1236  7837.2  87.6003
 43.1656  7967.75  88.1536
 43.2076  7815.13  87.4024
 43.2496  7764.45  86.9489
 43.2916  7776.82  87.3753
 43.3336  7903.69  87.9174
 43.3756  7854.33  87.4038
 43.4176  7788.89  87.1188
 43.4596  7759.72  86.8141
 43.5016  7769.57  87.2606
 43.5436  7848.22  87.6187
 43.5856  7798.31  87.3594
 43.6276  7763.52  87.05
 43.6696  7767.16  87.3249
 43.7116  7823.62  87.1482
 43.7536  7863.37  87.873
 43.7956  7641.16  87.814
 43.8376  7724.48  86.8363
 43.8796  7619.15  86.3108
 43.9216  7576.32  85.9845
 43.9636  7739.26  87.0054
 44.0056  7599.12  86.454
 44.0476  7569.73  85.909
 44.0896  7573.61  86.2834
 44.1316  7684.53  86.4339
 44.1736  7591.11  86.0327
 44.2156  7672.3  86.3552
 44.2576  7626.35  86.4109
 44.2996  7634.48  86.4292
 44.3416  7668.52  86.3721
 44.3836  7565.47  86.1233
 44.4256  7496.54  85.3671
 44.4676  7621.59  86.2342
 44.5096  7593.13  86.2254
 44.5516  7508.42  85.7121
 44.5936  7443.21  85.29
 44.6356  7670.64  86.3181
 44.6776  7619.37  86.3525
 44.7196  7521.46  86.0945
 44.7616  7620.43  88.0034
 44.8036  7547.74  85.9778
 44.8456  7681.28  86.9499
 44.8876  7655.74  86.6433
 44.9296  7823.91  87.0248
 44.9716  7711.4  86.823
 45.0136  7765.24  87.0767
 45.0556  7813.27  87.3249
 45.0976  7680.99  86.7299
 45.1396  7618.88  86.1306
 45.1816  7512.72  85.4865
 45.2236  7590.54  85.8308
 45.2656  7603.72  86.4035
 45.3076  7486.56  85.5072
 45.3496  7627.35  86.6223
 45.3916  7521.06  86.2932
 45.4336  7634.57  86.7932
 45.4756  7604.83  86.4593
 45.5176  7726.79  86.7746
 45.5596  7658.56  86.5052
 45.6016  7550.93  86.3242
 45.6436  7635.55  85.9755
 45.6856  7585.86  86.3502
 45.7276  7509.89  87.2451
 45.7696  7546.75  87.1471
 45.8116  7638.72  87.1152
 45.8536  7452.26  85.9346
 45.8956  7581.24  86.0236
 45.9376  7700.97  86.1568
 45.9796  7567.53  86.0944
 46.0216  7639.01  86.8461
 46.0636  7722.25  86.4312
 46.1056  7561.27  85.5312
 46.1476  7547.66  86.0523
 46.1896  7533.66  86.1203
 46.2316  7605.28  86.3891
 46.2736  7436.11  85.8026
 46.3156  7650.56  86.6117
 46.3576  7589.04  86.461
 46.3996  7576.97  86.5534
 46.4416  7681.86  86.7101
 46.4836  7549.65  86.3351
 46.5256  7659.81  86.896
 46.5676  7450.9  85.8242
 46.6096  7610.04  86.6609
 46.6516  7675.29  86.0643
 46.6936  7747.89  86.9723
 46.7356  7702.88  86.8089
 46.7776  7533.39  86.7093
 46.8196  7485.3  86.0293
 46.8616  7426.05  85.6199
 46.9036  7335.19  84.7699
 46.9456  7394.83  84.7332
 46.9876  7430.16  85.0282
 47.0296  7447.47  85.8211
 47.0716  7422.26  85.4998
 47.1136  7517.13  85.7105
 47.1556  7506.86  85.5182
 47.1976  7523.93  85.7003
 47.2396  7312.4  84.8906
 47.2816  7489.49  85.6142
 47.3236  7492.61  86.0001
 47.3656  7435.55  85.6078
 47.4076  7333.99  84.8088
 47.4496  7443.37  85.5386
 47.4916  7452.05  85.7774
 47.5336  7516.18  85.9687
 47.5756  7545.35  86.2385
 47.6176  7335.42  84.9395
 47.6596  7349.15  84.7385
 47.7016  7546.95  85.6668
 47.7436  7490.14  85.7054
 47.7856  7550.31  86.0604
 47.8276  7493.35  85.7915
 47.8696  7426.39  85.484
 47.9116  7479.01  85.5082
 47.9536  7374.85  84.8452
 47.9956  7428.45  85.874
 48.0376  7293.39  84.8712
 48.0796  7460.53  85.9668
 48.1216  7310.42  84.9159
 48.1636  7492.28  85.5258
 48.2056  7511.71  85.9071
 48.2476  7588.05  86.6599
 48.2896  7509.33  86.1125
 48.3316  7523.61  86.123
 48.3736  7497.14  86.0099
 48.4156  7366.53  85.1095
 48.4576  7501.66  86.1863
 48.4996  7534.92  85.8248
 48.5416  7494.44  85.9169
 48.5836  7529.66  85.7906
 48.6256  7415.97  85.3589
 48.6676  7495.23  86.3319
 48.7096  7424.88  85.1757
 48.7516  7536.42  85.9713
 48.7936  7303.66  84.6978
 48.8356  7505.94  85.9132
 48.8776  7420.39  86.0001
 48.9196  7535.83  86.022
 48.9616  7438.85  85.8589
 49.0036  7473.82  86.4201
 49.0456  7394.36  85.9316
 49.0876  7456.52  85.8192
 49.1296  7353.82  85.3916
 49.1716  7265.45  84.752
 49.2136  7430.74  85.6293
 49.2556  7455.43  85.8019
 49.2976  7419.86  85.6724
 49.3396  7301.68  85.0465
 49.3816  7473.22  85.4537
 49.4236  7466.76  85.8545
 49.4656  7238.93  84.5519
 49.5076  7427.43  85.3865
 49.5496  7394.49  85.2707
 49.5916  7380.65  85.0991
 49.6336  7458.99  85.7581
 49.6756  7339.19  85.3065
 49.7176  7253.67  84.7445
 49.7596  7330.5  84.9466
 49.8016  7404.72  85.3001
 49.8436  7359.76  85.3466
 49.8856  7299.44  84.9977
 49.9276  7374.78  85.5383
 49.9696  7404.42  85.6911
 50.0116  7375.65  85.6664
 50.0536  7359.95  85.5201
 50.0956  7241.55  84.898
 50.1376  7263.22  84.7144
 50.1796  7385.51  85.702
 50.2216  7257.69  84.9489
 50.2636  7268.7  84.627
 50.3056  7211.23  84.4825
 50.3476  7209.91  84.4884
 50.3896  7293.75  84.9475
 50.4316  7346.07  85.0816
 50.4736  7235.84  84.6569
 50.5156  7274.82  84.8817
 50.5576  7338.43  85.0067
 50.5996  7197.03  84.4697
 50.6416  7228.14  84.5775
 50.6836  7270.45  84.8842
 50.7256  7309.08  85.0262
 50.7676  7443.4  86.1529
 50.8096  7231.69  84.4328
 50.8516  7323.41  85.3946
 50.8936  7213.9  84.5309
 50.9356  7283.78  85.0534
 50.9776  7261.71  85.0798
 51.0196  7103.55  84.282
 51.0616  7085.74  83.4983
 51.1036  7225.04  84.6751
 51.1456  7178.89  84.3183
 51.1876  7292.52  84.2993
 51.2296  7059.16  83.5728
 51.2716  7078.94  83.3954
 51.3136  7061.56  83.7653
 51.3556  7002.11  83.02
 51.3976  6979.38  83.0356
 51.4396  6868.93  82.6974
 51.4816  7084.06  83.838
 51.5236  7189.82  84.5571
 51.5656  6969.6  82.8324
 51.6076  7097.09  83.6823
 51.6496  7018.33  83.3963
 51.6916  6978.54  83.5367
 51.7336  6992.78  83.6997
 51.7756  7096.8  84.014
 51.8176  6961.31  83.3201
 51.8596  6940.61  83.2127
 51.9016  7236.95  84.5628
 51.9436  7096.68  85.2689
 51.9856  7054.11  85.4226
 52.0276  7211.78  84.7977
 52.0696  7234.5  85.0173
 52.1116  7041.92  83.9932
 52.1536  7114.43  84.3122
 52.1956  7086.87  83.5929
 52.2376  7300.31  85.015
 52.2796  7173.95  84.1013
 52.3216  6873.68  83.0067
 52.3636  7167.61  84.3287
 52.4056  7045.28  83.4649
 52.4476  7018.37  83.662
 52.4896  6957.82  83.3711
 52.5316  7149.86  84.5571
 52.5736  6927.51  82.9474
 52.6156  7117.99  84.4888
 52.6576  6996.44  83.1846
 52.6996  6889.61  83.5452
 52.7416  6902.26  83.4721
 52.7836  7039.86  84.1926
 52.8256  6971.8  82.9811
 52.8676  6904.74  83.1693
 52.9096  7047.11  84.0908
 52.9516  6945.77  83.8909
 52.9936  7002.56  84.6253
 53.0356  6979.95  83.4767
 53.0776  7075.12  84.3196
 53.1196  7018.13  84.1004
 53.1616  7094.33  84.6123
 53.2036  6962.49  83.7802
 53.2456  6857.18  83.253
 53.2876  6990.71  83.7377
 53.3296  7046.05  84.4022
 53.3716  7090.97  84.4176
 53.4136  7038.91  84.2676
 53.4556  6960.96  83.8263
 53.4976  6926.46  83.4429
 53.5396  6913.84  83.7917
 53.5816  6900.28  83.334
 53.6236  6943.52  83.9517
 53.6656  7025.9  84.0344
 53.7076  7151.95  84.7444
 53.7496  7026.14  84.1168
 53.7916  6927.51  83.6792
 53.8336  6977.06  83.868
 53.8756  6903.58  83.9732
 53.9176  6862.01  83.0709
 53.9596  6602.03  82.2206
 54.0016  6674.09  82.0126
 54.0436  6589.8  81.6955
 54.0856  6768.54  82.2104
 54.1276  6699.17  81.998
 54.1696  6682.22  82.0651
 54.2116  6883.08  83.0115
 54.2536  6729.68  81.9006
 54.2956  6646.76  81.4566
 54.3376  6625.95  81.8114
 54.3796  6693.83  82.1299
 54.4216  6696.3  82.2041
 54.4636  6563.8  81.3519
 54.5056  6678.74  81.8481
 54.5476  6562.99  81.4939
 54.5896  6722.63  82.3128
 54.6316  6681.68  81.8976
 54.6736  6682.3  81.9912
 54.7156  6609.94  81.5742
 54.7576  6574.98  81.3331
 54.7996  6611.62  81.7156
 54.8416  6578.61  81.5668
 54.8836  6643.65  82.0578
 54.9256  6659.28  81.9108
 54.9676  6586  81.3236
 55.0096  6518.89  80.9587
 55.0516  6501.62  81.0636
 55.0936  6583.02  81.2496
 55.1356  6543.54  81.042
 55.1776  6699.68  82.2465
 55.2196  6631.68  81.6049
 55.2616  6731.02  82.433
 55.3036  6586.58  81.745
 55.3456  6407.44  80.7579
 55.3876  6603.36  81.705
 55.4296  6439.49  80.6878
 55.4716  6600.54  81.7042
 55.5136  6512.96  80.9332
 55.5556  6613.53  81.6057
 55.5976  6425.95  80.5141
 55.6396  6602.1  81.5574
 55.6816  6460.34  80.5317
 55.7236  6440.16  80.4743
 55.7656  6570.36  80.9904
 55.8076  6415.74  80.0442
 55.8496  6403.42  80.2927
 55.8916  6444.12  80.7635
 55.9336  6595.7  81.5271
 55.9756  6421.52  80.3114
 56.0176  6421.81  80.4551
 56.0596  6448.1  80.6223
 56.1016  6264.06  79.4919
 56.1436  6419.01  80.7301
 56.1856  6352.65  80.0418
 56.2276  6582.06  81.5349
 56.2696  6456.63  80.7322
 56.3116  6483.83  81.289
 56.3536  6453.75  80.752
 56.3956  6451.7  80.7232
 56.4376  6405.33  80.4789
 56.4796  6255.71  79.3424
 56.5216  6381.2  80.5183
 56.5636  6321.77  79.7157
 56.6056  6572.23  81.5084
 56.6476  6455.27  80.3822
 56.6896  6549.56  81.456
 56.7316  6390.69  80.3617
 56.7736  6443.59  80.7072
 56.8156  6375.17  80.299
 56.8576  6224.61  79.2858
 56.8996  6417.25  80.4086
 56.9416  6329.08  80.1805
 56.9836  6438.4  80.3693
 57.0256  6300.99  79.8234
 57.0676  6487.72  81.1118
 57.1096  6296.03  79.6976
 57.1516  6282.66  79.6553
 57.1936  6403.06  80.1808
 57.2356  6201.1  79.2075
 57.2776  6291.68  79.7704
 57.3196  6324.54  80.3189
 57.3616  6350.28  79.993
 57.4036  6360.07  80.0772
 57.4456  6390.82  80.2885
 57.4876  6322.84  79.7206
 57.5296  6254.95  79.6151
 57.5716  6194  79.2308
 57.6136  6209.58  79.1659
 57.6556  6240.77  79.5004
 57.6976  6410.94  80.3912
 57.7396  6084.91  78.6616
 57.7816  6128.63  79.3197
 57.8236  6136.13  79.1621
 57.8656  6253.11  79.5783
 57.9076  6290.85  79.8258
 57.9496  6218.03  79.7319
 57.9916  6259.47  79.5004
 58.0336  6245.97  79.7031
 58.0756  6283.99  79.5774
 58.1176  6225.57  79.1984
 58.1596  6140.94  79.2459
 58.2016  6065.55  77.9739
 58.2436  6080.1  78.4866
 58.2856  5959.12  77.6109
 58.3276  6050.48  78.5853
 58.3696  6007.41  78.0656
 58.4116  6024.39  78.0339
 58.4536  6024.32  77.9274
 58.4956  5915.38  77.3906
 58.5376  6067.58  77.9431
 58.5796  5872.02  77.0928
 58.6216  6020.43  77.8897
 58.6636  6046.53  78.2559
 58.7056  6065.26  78.2349
 58.7476  5936.78  77.8506
 58.7896  6039.39  78.1681
 58.8316  6005.84  77.9411
 58.8736  6143.24  78.8406
 58.9156  5991.42  77.9093
 58.9576  6007.37  78.3231
 58.9996  6016.06  77.6449
 59.0416  6039.57  78.1449
 59.0836  5958.3  77.5424
 59.1256  5856.58  77.5677
 59.1676  5909.6  78.225
 59.2096  5958.97  77.8413
 59.2516  6023.18  77.8413
 59.2936  5961.98  77.7707
 59.3356  6078.43  78.4039
 59.3776  5887.99  77.3328
 59.4196  5931.76  77.5539
 59.4616  5879.24  77.074
 59.5036  5748.44  76.2465
 59.5456  6114.4  78.3275
 59.5876  6054.78  78.1359
 59.6296  5925.39  77.3651
 59.6716  5995.6  77.8798
 59.7136  5769.24  76.3841
 59.7556  5895.81  77.3522
 59.7976  5826.83  76.6452
 59.8396  6081.08  78.1934
 59.8816  5943.31  77.8432
 59.9236  5981.49  77.7386
 59.9656  5906.9  77.5102
 60.0076  6141.25  78.3848
 60.0496  5937.5  77.573
 60.0916  5975.52  77.2423
 60.1336  5835.95  77.4232
 60.1756  5837.1  78.5948
 60.1996  0.0000000E+00  0.0000000E+00