File: docs/examples/XRD/IS17_D/Data/IS17_D/17_Da_f00007.xye
# /beamlines/bl04/projects/cycle2025-II/20250340211-lsimonelli/DATA/IS17_D/17_Da_f00007.xye : mythproc.py merge -s 0.006 -l 0.5 -f /beamlines/bl04/inhouse/ff/FlatField/ff_20Nov2024rod8mm60s_17keV.raw -b True -c true -o xye /beamlines/bl04/projects/cycle2025-II/20250340211-lsimonelli/DATA/IS17_D/17_Da_00007.dat
# IsMon = [6754976, 6757488, 6755761]  IsPos = [-1.5000, -2.4885, -3.4988]
# Wave = 0.4962  CalPath /beamlines/bl04/projects/cycle2025-II/20250340211-lsimonelli/DATA/Align/Si_Pos1_25keV_f00001.cal
# Date = 2025-09-23_19:30:27 Dt = 4.8000  Bin = 0.0060  <imon> = 6756075 +/- 1049 (Min/Max) 6754976 / 6757488
# icurr 250.1078  mocoIn 1.7063E-05  mocoOut 0.8003  i15 7.06502e+06  imon 6.75608e+06  i7 5.6667  iEMpd_timer 4.8000  iEMpd_1 3.4854E-08  iEMpd_2 7.7744E-08  iEMpd_3 1.8138E-08  iEMpd_4 4.6940E-08  iEMhp_timer 4.8000  iEMhp_1 4.8863E-06  iEMhp_2 -2.4089E-08  iEMhp_3 -2.3361E-08  iEMhp_4 -2.1273E-08
#      9776
 1.5856  37726.1  199.462
 1.6276  44766  213.548
 1.6696  51794.3  228.891
 1.7116  60910.2  248.703
 1.7536  70093  265.656
 1.7956  74793  275.104
 1.8376  71047  268.551
 1.8796  59218.2  243.372
 1.9216  47631.9  219.141
 1.9636  40348.7  201.373
 2.0056  35428.1  187.49
 2.0476  32866.6  182.565
 2.0896  31374.1  177.325
 2.1316  30720.6  174.625
 2.1736  29391.8  172.162
 2.2156  29835  172.063
 2.2576  28412  168.505
 2.2996  27508.3  166.418
 2.3416  27691.1  165.637
 2.3836  27247.7  164.407
 2.4256  26553  162.827
 2.4676  26259.7  161.696
 2.5096  27024.7  164.088
 2.5516  34669.3  190.092
 2.5936  119557  345.961
 2.6356  30594.8  175.75
 2.6776  25566.8  159.574
 2.7196  24589.5  156.993
 2.7616  24169.7  155.431
 2.8036  23834  154.515
 2.8456  23842  155.128
 2.8876  23134.5  152.671
 2.9296  22723.4  151.454
 2.9716  22761.9  151.095
 3.0136  22388.7  149.914
 3.0556  22672.5  151.243
 3.0976  22417.6  149.365
 3.1396  22106.6  149.01
 3.1816  22053.5  148.772
 3.2236  21999.4  148.586
 3.2656  21783.7  146.932
 3.3076  21532.2  147.474
 3.3496  21948.3  148.108
 3.3916  22378.8  149.147
 3.4336  22688.7  150.733
 3.4756  23309.5  152.715
 3.5176  24098.4  155.072
 3.5596  23643  156.486
 3.6016  24073.1  155.048
 3.6436  23159.2  153.132
 3.6856  22814.8  150.353
 3.7276  21816.3  148.068
 3.7696  21776  147.927
 3.8116  21358.4  146.583
 3.8536  21409.2  146.695
 3.8956  21549.4  147.008
 3.9376  21845.2  148.26
 3.9796  21241.4  145.721
 4.0216  21290.9  144.961
 4.0636  21219.7  146.14
 4.1056  21215.1  145.774
 4.1476  21580.9  147.334
 4.1896  21771.1  147.849
 4.2316  21837  147.901
 4.2736  22198.7  148.913
 4.3156  22594.3  150.464
 4.3576  23315.8  152.774
 4.3996  23522.9  153.699
 4.4416  24182.7  155.437
 4.4836  25263.1  159.02
 4.5256  25272  159.65
 4.5676  25222.2  159.739
 4.6096  25455  159.52
 4.6516  26134.8  160.994
 4.6936  26143.8  161.813
 4.7356  27032.3  164.374
 4.7776  26577  162.817
 4.8196  25902.8  161.372
 4.8616  25489.7  159.704
 4.9036  25291.9  158.705
 4.9456  25333  159.472
 4.9876  24510  156.764
 5.0296  24633.7  156.983
 5.0716  24797.9  158.118
 5.1136  24646.6  157.492
 5.1556  25316.5  159.097
 5.1976  32138.8  179.251
 5.2396  25938.7  160.739
 5.2816  25709.3  160.477
 5.3236  25642.1  159.98
 5.3656  24966.2  158.744
 5.4076  24883.5  158.63
 5.4496  24955.6  158.362
 5.4916  25121.3  158.649
 5.5336  25097.4  158.576
 5.5756  24801.4  157.671
 5.6176  25053.1  157.923
 5.6596  25192.6  159.158
 5.7016  25185.9  158.576
 5.7436  25387  159.473
 5.7856  25320.9  159.319
 5.8276  25718  160.295
 5.8696  25684.1  160.247
 5.9116  25542.7  160.496
 5.9536  25970.3  161.594
 5.9956  26190.2  161.658
 6.0376  26228.6  162.396
 6.0796  26409.3  162.792
 6.1216  26593.4  163.554
 6.1636  26766.7  163.174
 6.2056  26822.6  163.994
 6.2476  27008.7  164.266
 6.2896  27231  164.805
 6.3316  27078  164.509
 6.3736  27280.4  165.021
 6.4156  27281.7  164.977
 6.4576  27650.4  165.649
 6.4996  27933.2  166.962
 6.5416  27799.7  166.699
 6.5836  28068.6  167.723
 6.6256  27996.4  167.083
 6.6676  28338.5  167.684
 6.7096  28164.3  167.995
 6.7516  28552.3  168.812
 6.7936  29770.2  171.811
 6.8356  30191.2  173.097
 6.8776  29888.7  173.016
 6.9196  29368.1  171.894
 6.9616  29742.1  172.414
 7.0036  30359.9  173.884
 7.0456  30301.4  173.029
 7.0876  30268.4  174.507
 7.1296  30215.5  173.592
 7.1716  29979.6  172.463
 7.2136  29889  171.986
 7.2556  30060.6  172.639
 7.2976  30085.5  173.197
 7.3396  30033.6  173.25
 7.3816  30033.8  173.463
 7.4236  30348.5  173.677
 7.4656  30598.8  173.889
 7.5076  30785.9  174.551
 7.5496  30700  174.835
 7.5916  30573.4  174.505
 7.6336  31350.5  176.607
 7.6756  31267.2  176.223
 7.7176  31654.9  177.61
 7.7596  31688.2  178.923
 7.8016  36181.9  193.478
 7.8436  32624.2  180.438
 7.8856  32801.4  180.545
 7.9276  33431.9  182.664
 7.9696  33388.8  182.85
 8.0116  34455.8  184.308
 8.0536  34971.4  185.937
 8.0956  36201.9  190.357
 8.1376  35357.7  187.604
 8.1796  35333.7  188.073
 8.2216  36196.6  189.109
 8.2636  37216.4  192.004
 8.3056  36645.9  191.3
 8.3476  38086.2  194.343
 8.3896  37015  191.668
 8.4316  36887.2  191.501
 8.4736  36735.4  190.579
 8.5156  36475.9  190.177
 8.5576  36238.4  190.512
 8.5996  36225.5  189.371
 8.6416  35903.8  189.764
 8.6836  36185.8  190.349
 8.7256  36951.2  191.787
 8.7676  38079.4  197.652
 8.8096  37828.4  194.286
 8.8516  36330.4  190.063
 8.8936  36950.2  191.503
 8.9356  35642.9  188.429
 8.9776  35609.6  188.45
 9.0196  35184.1  186.999
 9.0616  35856.8  188.246
 9.1036  36280.1  190.549
 9.1456  35213.6  187.093
 9.1876  34571.9  185.334
 9.2296  34603.7  184.83
 9.2716  34014.5  183.31
 9.3136  33798.6  182.713
 9.3556  34499.6  184.585
 9.3976  32848.8  180.627
 9.4396  33354.8  181.908
 9.4816  32709.8  180.006
 9.5236  32833.3  180.26
 9.5656  32478.9  179.585
 9.6076  32212.5  179.374
 9.6496  32206.8  179.287
 9.6916  32228  179.32
 9.7336  32278.2  179.242
 9.7756  32259.9  180.364
 9.8176  31327  177.292
 9.8596  31473  176.186
 9.9016  30893.5  174.555
 9.9436  31005.7  174.618
 9.9856  31167.3  175.465
 10.0276  30143.5  173.633
 10.0696  30444.2  173.557
 10.1116  29722.4  171.742
 10.1536  29430.1  170.583
 10.1956  28889.8  169.097
 10.2376  28609.4  167.796
 10.2796  28832.5  168.568
 10.3216  28669.3  168.206
 10.3636  28375  167.518
 10.4056  31443.1  176.744
 10.4476  31411.1  176.274
 10.4896  34611.8  184.447
 10.5316  31624.6  176.705
 10.5736  28236.2  167.697
 10.6156  28002.9  166.776
 10.6576  31296.7  174.809
 10.6996  27903.4  165.717
 10.7416  27306.9  164.17
 10.7836  27773.9  166.258
 10.8256  26528.2  162.911
 10.8676  26608.2  162.695
 10.9096  26508.3  162.436
 10.9516  26254.9  160.609
 10.9936  26806.9  162.485
 11.0356  26602.2  162.491
 11.0776  27744.9  165.239
 11.1196  27090  164.031
 11.1616  26007.3  160.413
 11.2036  26721.2  162.454
 11.2456  27738.7  166.243
 11.2876  25455.8  158.991
 11.3296  25509.4  159.061
 11.3716  25950.2  160.154
 11.4136  25551.2  159.77
 11.4556  25844.4  160.359
 11.4976  27064.8  163.055
 11.5396  26996.8  163.021
 11.5816  25075.5  157.553
 11.6236  24673.2  156.723
 11.6656  24610.4  155.488
 11.7076  24085.9  154.632
 11.7496  24391.7  159.451
 11.7916  24602.5  155.558
 11.8336  23976.9  154.454
 11.8756  24075.7  154.287
 11.9176  23922.2  153.45
 11.9596  23569.1  152.51
 12.0016  23463.5  152.944
 12.0436  23451.4  152.345
 12.0856  23091.5  151.679
 12.1276  23260.1  152.144
 12.1696  23233.3  151.219
 12.2116  23858.3  153.228
 12.2536  24724  156.794
 12.2956  23873  153.444
 12.3376  23337.2  151.92
 12.3796  23245.3  152.058
 12.4216  23416.4  151.858
 12.4636  23866.2  154.21
 12.5056  23278  151.597
 12.5476  23121.7  150.624
 12.5896  22949.6  150.675
 12.6316  22810  150.38
 12.6736  22765.6  150.699
 12.7156  22844.7  150.829
 12.7576  23003.3  151.586
 12.7996  23315.7  151.279
 12.8416  23280.2  152.202
 12.8836  24005.1  154.381
 12.9256  23760.5  152.611
 12.9676  23576.8  152.444
 13.0096  23276.4  152.546
 13.0516  23442.7  152.138
 13.0936  23392.5  152.102
 13.1356  23810.3  152.731
 13.1776  23584.2  152.971
 13.2196  23448.8  152.204
 13.2616  23464.9  152.556
 13.3036  23257.3  152.015
 13.3456  23200.7  151.815
 13.3876  23416  152.027
 13.4296  23369.2  152.019
 13.4716  23841.8  153.156
 13.5136  23360.1  151.759
 13.5556  23543.2  152.949
 13.5976  23589.9  153.247
 13.6396  23779.1  153.242
 13.6816  23131.5  151.49
 13.7236  24273.7  154.954
 13.7656  23613.1  153.366
 13.8076  24247.6  154.204
 13.8496  23691.5  153.197
 13.8916  23314.1  152.775
 13.9336  23297  151.961
 13.9756  22984.6  150.306
 14.0176  23160.7  151.55
 14.0596  23789.4  153.555
 14.1016  22784.2  150.668
 14.1436  22492.1  148.854
 14.1856  22276.8  148.417
 14.2276  22419.1  149.372
 14.2696  22778.5  150.407
 14.3116  21952.6  147.558
 14.3536  21664  146.76
 14.3956  21567.6  146.16
 14.4376  21686.4  146.353
 14.4796  21598.7  146.049
 14.5216  21332  145.919
 14.5636  21512.1  146.103
 14.6056  21215.4  144.691
 14.6476  21004.3  143.216
 14.6896  20589.7  142.32
 14.7316  20262.5  142.175
 14.7736  20235.6  141.26
 14.8156  20067  140.707
 14.8576  20064.6  140.552
 14.8996  19952.5  141.335
 14.9416  19371.8  139.268
 14.9836  19708  140.424
 15.0256  19476.4  138.551
 15.0676  19293.4  138.206
 15.1096  19023.4  136.981
 15.1516  18803.9  136.725
 15.1936  18843.7  136.316
 15.2356  18613.6  135.754
 15.2776  18632.7  135.418
 15.3196  18409.9  135.588
 15.3616  18259.7  134.796
 15.4036  18284.9  134.746
 15.4456  18435.1  134.957
 15.4876  18000  133.043
 15.5296  17857.7  132.794
 15.5716  17580.6  131.368
 15.6136  17756.1  132.338
 15.6556  18965.8  136.011
 15.6976  17749.4  131.644
 15.7396  17743.2  132.231
 15.7816  17607.6  131.241
 15.8236  17085.9  129.965
 15.8656  17029.6  129.544
 15.9076  16969.6  129.146
 15.9496  17187.4  132.722
 15.9916  16788.8  131.605
 16.0336  16429.5  127.177
 16.0756  16557.6  127.974
 16.1176  16780.7  128.749
 16.1596  16301.7  128.193
 16.2016  16329.6  127.084
 16.2436  16244.4  127.134
 16.2856  16032.2  125.854
 16.3276  15695.2  124.93
 16.3696  15942.4  125.734
 16.4116  15723.9  125.319
 16.4536  15964.8  126.064
 16.4956  16106.1  126.352
 16.5376  16115.7  126.569
 16.5796  15782.2  124.638
 16.6216  15826.5  125.113
 16.6636  15998.2  125.94
 16.7056  15823.8  125.125
 16.7476  15830.8  124.689
 16.7896  15722.5  124.995
 16.8316  15686.8  124.819
 16.8736  15889.3  125.872
 16.9156  15663  125.304
 16.9576  15521.6  125.516
 16.9996  15633  126.441
 17.0416  15435.8  124.031
 17.0836  15390.9  123.623
 17.1256  15171.8  122.75
 17.1676  15436.7  123.81
 17.2096  15564.8  124.201
 17.2516  15156.8  122.642
 17.2936  14873.1  121.512
 17.3356  14544.6  120.173
 17.3776  14500.7  120.168
 17.4196  14781.9  121.024
 17.4616  14914.6  121.496
 17.5036  15075.6  122.507
 17.5456  14470.2  120.651
 17.5876  14655.1  120.483
 17.6296  14480.9  119.575
 17.6716  14420.5  119.892
 17.7136  14744.8  121.381
 17.7556  14404.7  120.251
 17.7976  14549.1  120.468
 17.8396  14347.1  119.268
 17.8816  14136.2  118.915
 17.9236  13990.5  118.123
 17.9656  14255.6  119.93
 18.0076  14588.8  120.738
 18.0496  15586.5  123.913
 18.0916  19209.6  138.172
 18.1336  17123.1  130.557
 18.1756  15501.8  123.733
 18.2176  15449.9  123.765
 18.2596  14336.6  118.961
 18.3016  14812.8  121.177
 18.3436  15245.2  123.183
 18.3856  14348.7  119.405
 18.4276  14163.4  118.314
 18.4696  14283.1  118.903
 18.5116  14226.9  118.959
 18.5536  14151.2  118.998
 18.5956  14058.1  118.16
 18.6376  14079.8  118.655
 18.6796  13780  116.727
 18.7216  14087.4  118.569
 18.7636  13592.4  116.386
 18.8056  13556.5  116.175
 18.8476  13436.6  116.273
 18.8896  13450.9  115.684
 18.9316  13718.6  116.649
 18.9736  13515.3  115.649
 19.0156  13951.3  117.895
 19.0576  13852.6  116.363
 19.0996  13663.6  116.262
 19.1416  13480.4  115.867
 19.1836  13527.1  115.677
 19.2256  13241.3  114.652
 19.2676  13357.5  115.24
 19.3096  13419.3  115.75
 19.3516  13399.9  115.456
 19.3936  13504.9  115.979
 19.4356  13353.4  115.205
 19.4776  13357.4  115.316
 19.5196  13400.1  115.354
 19.5616  13401.9  115.611
 19.6036  13296.6  114.671
 19.6456  13578.9  115.998
 19.6876  13980.8  117.348
 19.7296  13517.6  115.834
 19.7716  13430  115.467
 19.8136  13674.3  116.872
 19.8556  13995.3  117.717
 19.8976  14182.5  118.567
 19.9396  14054  117.606
 19.9816  14198.7  118.453
 20.0236  14204.3  118.691
 20.0656  13766.8  116.844
 20.1076  13337.3  115.458
 20.1496  13355.2  115.541
 20.1916  13375.4  115.109
 20.2336  13181.6  114.254
 20.2756  12957.4  113.693
 20.3176  12973  113.516
 20.3596  12998.6  113.603
 20.4016  13008.2  113.453
 20.4436  12965  113.822
 20.4856  12865.6  113.169
 20.5276  12690.8  112.836
 20.5696  12701.5  112.465
 20.6116  12845  113.267
 20.6536  12764  112.473
 20.6956  12802.2  112.719
 20.7376  12690.2  112.452
 20.7796  12670.1  112.057
 20.8216  12734.2  112.057
 20.8636  12874.4  113.028
 20.9056  13833.7  117.119
 20.9476  12921.7  113.034
 20.9896  13490.9  115.362
 21.0316  12994  113.112
 21.0736  13130.6  114.226
 21.1156  13261.8  114.953
 21.1576  12881.1  113.338
 21.1996  12596.6  112.065
 21.2416  12421  111.116
 21.2836  12665.8  112.173
 21.3256  12498.7  111.503
 21.3676  12676.5  111.854
 21.4096  12832.2  112.901
 21.4516  12436.3  110.975
 21.4936  12395  111.036
 21.5356  12633.4  112.045
 21.5776  12659.8  112.001
 21.6196  12572  111.643
 21.6616  12326.5  110.632
 21.7036  12356  110.554
 21.7456  12292.3  110.341
 21.7876  12190.8  109.637
 21.8296  12085.7  109.025
 21.8716  12257.1  110.023
 21.9136  12530.4  111.442
 21.9556  12410  110.582
 21.9976  12264.7  109.946
 22.0396  12316.9  110.429
 22.0816  12314.2  110.956
 22.1236  12600.8  111.693
 22.1656  12332.8  110.671
 22.2076  12365.1  110.243
 22.2496  12157.3  109.339
 22.2916  12362.9  110.138
 22.3336  12392.2  110.975
 22.3756  12326  110.422
 22.4176  12205.9  109.738
 22.4596  12007  109.416
 22.5016  12265.7  110.093
 22.5436  12362  110.409
 22.5856  12244.2  110.118
 22.6276  12081.5  109.514
 22.6696  12207.3  110.428
 22.7116  12236.4  110.079
 22.7536  12207.4  109.933
 22.7956  12038.9  108.516
 22.8376  11931.6  108.545
 22.8796  12079.2  109.012
 22.9216  12216.9  110.174
 22.9636  12190.9  109.222
 23.0056  12160  109.215
 23.0476  12359.4  110.672
 23.0896  12645.5  111.324
 23.1316  12429.6  110.799
 23.1736  12133.2  112.37
 23.2156  12246.6  110.316
 23.2576  12141.8  109.961
 23.2996  12106.6  109.597
 23.3416  12027.1  109.743
 23.3836  12099  109.307
 23.4256  12280.4  110.253
 23.4676  12256.3  109.85
 23.5096  12179.9  110.168
 23.5516  12039  108.83
 23.5936  12371.7  111.204
 23.6356  12501.1  111.461
 23.6776  12214.8  110.39
 23.7196  11956.3  109.015
 23.7616  12272.2  110.153
 23.8036  11981.8  108.88
 23.8456  12044.7  108.739
 23.8876  11810.3  108.02
 23.9296  11789.2  108.396
 23.9716  11962.9  108.41
 24.0136  11880.1  108.912
 24.0556  11805.4  108.309
 24.0976  11769.2  107.956
 24.1396  11730.1  110.357
 24.1816  11778.3  109.37
 24.2236  11747.7  108.512
 24.2656  11687.7  107.719
 24.3076  11492.4  107.067
 24.3496  11866.7  108.677
 24.3916  11730.6  108.095
 24.4336  11602  107.717
 24.4756  11681.2  107.951
 24.5176  11443.9  106.507
 24.5596  11139.4  105.4
 24.6016  11330.1  106.381
 24.6436  11327.8  105.867
 24.6856  11288.3  105.453
 24.7276  11296.4  105.796
 24.7696  11313.6  105.993
 24.8116  11255.2  105.893
 24.8536  11177.6  105.515
 24.8956  11142.4  105.102
 24.9376  11082.9  105.001
 24.9796  11021.3  104.818
 25.0216  10934.9  104.519
 25.0636  11053.8  104.735
 25.1056  10957.9  104.704
 25.1476  11058.2  107.091
 25.1896  10968.2  105.165
 25.2316  11049  104.836
 25.2736  11001.8  104.274
 25.3156  10755.3  103.168
 25.3576  10820.9  103.893
 25.3996  10818.9  103.872
 25.4416  10901.3  104.249
 25.4836  10585.1  103.239
 25.5256  10788.5  103.597
 25.5676  10929.6  104.003
 25.6096  10625.9  103.113
 25.6516  10703.1  102.99
 25.6936  10644.6  103.021
 25.7356  10692.9  103.382
 25.7776  10747.3  103.335
 25.8196  10677.8  103.156
 25.8616  10694.5  103.158
 25.9036  10889.7  103.571
 25.9456  10662.9  103.071
 25.9876  10565.3  102.53
 26.0296  10766.1  103.237
 26.0716  10544.2  102.496
 26.1136  10734.3  103.363
 26.1556  10923.9  103.651
 26.1976  10554.5  102.792
 26.2396  10513  102.008
 26.2816  10653.4  103.043
 26.3236  10597.8  102.926
 26.3656  10608.2  102.708
 26.4076  10636.6  103.051
 26.4496  10934.9  104.004
 26.4916  10611  102.426
 26.5336  10501.5  102.222
 26.5756  10783.6  103.443
 26.6176  10523.9  102.245
 26.6596  10390.5  101.896
 26.7016  10383.6  101.62
 26.7436  10232.2  101.007
 26.7856  10088.3  100.278
 26.8276  10199.6  100.781
 26.8696  10226.2  100.798
 26.9116  10192.6  100.571
 26.9536  10074.6  100.031
 26.9956  10135.3  100.364
 27.0376  10083.1  100.321
 27.0796  10169.5  100.558
 27.1216  10148  100.452
 27.1636  10187.7  100.807
 27.2056  10100.9  100.267
 27.2476  10018.4  99.8569
 27.2896  10006.7  99.9063
 27.3316  10049.3  99.8335
 27.3736  9939.6  99.5465
 27.4156  9980.94  99.6043
 27.4576  10099.4  100.421
 27.4996  10110  100.071
 27.5416  10048.6  100.082
 27.5836  10178.9  100.55
 27.6256  10179.3  100.717
 27.6676  10148.1  100.577
 27.7096  9997.75  99.7012
 27.7516  10367.6  101.677
 27.7936  10299.6  101.516
 27.8356  10183  100.559
 27.8776  9986.12  99.6282
 27.9196  10085.1  99.9653
 27.9616  10180  100.623
 28.0036  9918.54  99.3001
 28.0456  9939.48  99.5352
 28.0876  9765.26  98.7482
 28.1296  9821.51  98.8784
 28.1716  9766.97  98.6086
 28.2136  9900.33  99.2507
 28.2556  9634.67  98.0224
 28.2976  9893.63  99.3193
 28.3396  9819.1  98.7462
 28.3816  9722.37  98.2407
 28.4236  9842.28  98.997
 28.4656  9745  98.5398
 28.5076  9529.46  97.0919
 28.5496  9594.13  97.6759
 28.5916  9552.67  97.2781
 28.6336  9516.16  97.426
 28.6756  9791.14  98.0306
 28.7176  9571.59  97.4627
 28.7596  9320.9  96.0777
 28.8016  9565.19  97.3625
 28.8436  9319.85  96.3406
 28.8856  9529.17  97.2713
 28.9276  9568.9  97.7167
 28.9696  9467.7  96.861
 29.0116  9404.11  96.7224
 29.0536  9292.95  96.3382
 29.0956  9433.33  96.789
 29.1376  9473.96  96.9603
 29.1796  9365.68  96.4422
 29.2216  9346.04  96.1874
 29.2636  9288.4  95.8878
 29.3056  9370.22  96.1867
 29.3476  9389.26  96.7979
 29.3896  9458.68  97.2474
 29.4316  9429.21  96.4468
 29.4736  9387.05  96.295
 29.5156  9579.05  97.1857
 29.5576  9287.88  96.4298
 29.5996  9421.89  96.3919
 29.6416  9285.43  95.8053
 29.6836  9522.89  96.9534
 29.7256  9419.39  96.985
 29.7676  9401.85  96.5577
 29.8096  9260.26  95.7677
 29.8516  9123.66  95.3894
 29.8936  9270.44  96.2451
 29.9356  9265.82  95.9791
 29.9776  9192.31  95.7466
 30.0196  9377.14  96.095
 30.0616  9488.1  97.041
 30.1036  9370.72  96.2586
 30.1456  9138.33  95.2939
 30.1876  9086.06  94.9965
 30.2296  9165.57  95.365
 30.2716  9374.28  96.0827
 30.3136  9400.37  97.067
 30.3556  9254.55  96.3261
 30.3976  9204.7  97.5771
 30.4396  9241.95  95.1417
 30.4816  9212.05  94.5938
 30.5236  9153.39  94.3142
 30.5656  9094.9  94.6487
 30.6076  9153.59  94.7371
 30.6496  9241.25  95.2245
 30.6916  9026.43  94.2029
 30.7336  9032.52  94.3839
 30.7756  9041.53  94.5191
 30.8176  9150.24  95.0042
 30.8596  9110.42  94.5659
 30.9016  8919.31  93.4473
 30.9436  9100.2  94.6108
 30.9856  9142.76  94.9378
 31.0276  8968.97  93.6496
 31.0696  9082.22  94.8018
 31.1116  8880.71  93.7245
 31.1536  9182.36  95.1876
 31.1956  9028.02  94.4702
 31.2376  8922.44  93.9228
 31.2796  9011.56  93.9349
 31.3216  8914.54  93.3781
 31.3636  8930.2  94.1291
 31.4056  8974.24  95.6578
 31.4476  8928.2  93.3376
 31.4896  8915.67  93.7661
 31.5316  9050.1  93.915
 31.5736  9621.29  96.61
 31.6156  9277.77  94.8875
 31.6576  9161.28  94.3878
 31.6996  9231.65  94.4176
 31.7416  9033.72  94.3147
 31.7836  9013.09  93.3771
 31.8256  8959.99  93.444
 31.8676  9063.77  93.9016
 31.9096  8948.18  93.5144
 31.9516  8837.81  93.2324
 31.9936  8792.47  92.8177
 32.0356  8846.87  93.1696
 32.0776  8884.77  93.2584
 32.1196  8904.21  93.3656
 32.1616  9030.61  93.5686
 32.2036  8690.21  92.292
 32.2456  8780.78  93.1413
 32.2876  8878.68  92.9941
 32.3296  8696.61  92.1714
 32.3716  8755.81  92.5919
 32.4136  8725.54  92.6416
 32.4556  8908.04  93.0465
 32.4976  8847.12  92.6256
 32.5396  8738.52  92.08
 32.5816  8539.91  91.1382
 32.6236  8655.41  91.8277
 32.6656  8718.52  92.6901
 32.7076  8700.2  92.2561
 32.7496  8735.06  92.1095
 32.7916  8737.16  92.0843
 32.8336  8642.93  91.6721
 32.8756  8798.78  92.2354
 32.9176  8657.65  91.948
 32.9596  8652.34  92.0026
 33.0016  8653.78  91.8137
 33.0436  8764.02  92.5648
 33.0856  8695.65  92.2669
 33.1276  8590.45  91.4478
 33.1696  8712.05  91.9407
 33.2116  8723.9  92.2233
 33.2536  8689.27  92.0452
 33.2956  8641.39  91.8701
 33.3376  8564.42  91.2864
 33.3796  8648.15  91.8559
 33.4216  8628.82  91.3602
 33.4636  8589.84  91.2944
 33.5056  8584.46  91.5
 33.5476  8430.61  90.6718
 33.5896  8568.66  91.1598
 33.6316  8458.04  90.8929
 33.6736  8430.17  90.9952
 33.7156  8489.86  91.3581
 33.7576  8477.49  90.9184
 33.7996  8578.05  91.2373
 33.8416  8382.51  90.365
 33.8836  8555.06  91.0685
 33.9256  8520.54  90.9525
 33.9676  8541.23  90.9602
 34.0096  8398.28  90.5074
 34.0516  8288.46  89.56
 34.0936  8315.1  89.956
 34.1356  8447.09  90.4171
 34.1776  8421.83  90.2882
 34.2196  8406.94  90.3917
 34.2616  8265.31  89.7548
 34.3036  8312.68  90.2589
 34.3456  8427.99  90.6421
 34.3876  8456.24  90.8431
 34.4296  8372.52  89.9967
 34.4716  8463.94  90.6393
 34.5136  8388.11  90.4343
 34.5556  8293.82  90.1666
 34.5976  8420.05  90.6924
 34.6396  8309.32  89.783
 34.6816  8398.51  90.3708
 34.7236  8419.96  90.2748
 34.7656  8310.57  89.8794
 34.8076  8324.05  90.2675
 34.8496  8327.14  90.1429
 34.8916  8319.97  89.9825
 34.9336  8422.62  90.4962
 34.9756  8629.43  91.5307
 35.0176  8548.55  91.6215
 35.0596  8240.82  89.7854
 35.1016  8183.53  89.2446
 35.1436  8343.3  89.7979
 35.1856  8130.32  88.7714
 35.2276  8293.49  89.8327
 35.2696  8204.02  89.5295
 35.3116  8257.29  89.9144
 35.3536  8133.55  88.9898
 35.3956  8199.54  89.028
 35.4376  8159.31  89.3552
 35.4796  8294.82  90.1566
 35.5216  8102.81  89.0595
 35.5636  7942.85  88.9063
 35.6056  8261.12  89.696
 35.6476  8229.73  89.4155
 35.6896  8278.26  89.8566
 35.7316  8108.32  88.8257
 35.7736  8091.99  88.9283
 35.8156  8111.67  89.0317
 35.8576  7996.17  88.6365
 35.8996  8218.9  89.8341
 35.9416  8178.35  89.12
 35.9836  8124.95  89.2697
 36.0256  8175.53  89.476
 36.0676  8271.46  89.539
 36.1096  8112.82  89.0243
 36.1516  8100.68  88.8515
 36.1936  8141.59  88.9258
 36.2356  8121.11  89.4433
 36.2776  8111.72  88.8731
 36.3196  8133.41  88.6776
 36.3616  8034.9  88.2685
 36.4036  7968.4  87.9557
 36.4456  8165.72  89.2412
 36.4876  7991.88  88.2302
 36.5296  8117.48  88.9603
 36.5716  8147.54  89.9028
 36.6136  8394.05  90.0137
 36.6556  8309.12  89.7631
 36.6976  8282.61  90.1175
 36.7396  8113.16  88.9202
 36.7816  8114.95  89.3049
 36.8236  8089.59  89.0863
 36.8656  7976.61  88.5366
 36.9076  8002.54  88.6845
 36.9496  7877.55  87.8553
 36.9916  8070.3  88.5552
 37.0336  8129.32  89.1927
 37.0756  8102.81  88.8381
 37.1176  7940.36  88.2076
 37.1596  8101.37  89.1005
 37.2016  8002.03  88.7298
 37.2436  8133.43  88.8276
 37.2856  8020.89  88.4588
 37.3276  8153.12  88.5346
 37.3696  7833.73  87.6507
 37.4116  7956.6  88.2485
 37.4536  7907.51  87.8422
 37.4956  7878.66  87.7242
 37.5376  7914.04  89.4636
 37.5796  7795.8  88.7484
 37.6216  7686.44  86.4369
 37.6636  7823.02  87.1003
 37.7056  7874.06  87.5738
 37.7476  7752.63  86.4448
 37.7896  7800.69  87.1897
 37.8316  7691.71  86.7583
 37.8736  7935.39  87.6503
 37.9156  7870.75  87.2961
 37.9576  7877.23  87.2154
 37.9996  7731  86.1261
 38.0416  7720.02  86.8664
 38.0836  7958.4  88.1052
 38.1256  7867.92  87.5542
 38.1676  7731.95  86.9286
 38.2096  7891.14  87.4523
 38.2516  7902.52  87.7141
 38.2936  7866.03  87.3136
 38.3356  7848.07  87.1315
 38.3776  7730.47  86.747
 38.4196  7882.54  87.4511
 38.4616  7780.88  87.1181
 38.5036  7919.86  87.7295
 38.5456  7794.02  87.8572
 38.5876  7695.49  87.3323
 38.6296  7681.08  86.2417
 38.6716  7724.96  86.2842
 38.7136  7723.44  86.2192
 38.7556  7612.13  86.0859
 38.7976  7707.59  86.5643
 38.8396  7634.98  86.6029
 38.8816  7588.04  86.1104
 38.9236  7689  86.5061
 38.9656  7693.81  86.4464
 39.0076  7745.98  86.1531
 39.0496  7661.9  86.2152
 39.0916  7702.07  86.095
 39.1336  7670  86.3218
 39.1756  7680.81  86.449
 39.2176  7679.09  86.9596
 39.2596  7674.43  86.8565
 39.3016  7741.37  86.8163
 39.3436  7632.47  86.6189
 39.3856  7744.8  86.7092
 39.4276  7657.14  86.7053
 39.4696  7630.03  86.1838
 39.5116  7635.14  86.7124
 39.5536  7837.09  88.2797
 39.5956  7847.12  87.4374
 39.6376  7819.93  87.2977
 39.6796  7679.41  86.2506
 39.7216  7799.34  87.0227
 39.7636  7717.97  87.1297
 39.8056  7758.78  87.1382
 39.8476  7690.72  87.0073
 39.8896  7674.61  86.5469
 39.9316  7685.36  86.8618
 39.9736  7814.47  87.1563
 40.0156  7727.97  86.5033
 40.0576  7704.37  86.7203
 40.0996  7806.6  86.4918
 40.1416  7730.63  86.8468
 40.1836  7729.82  86.7354
 40.2256  7676.78  86.4841
 40.2676  7700.11  86.7862
 40.3096  7701.33  86.6539
 40.3516  7720.78  86.8643
 40.3936  7777.77  86.7557
 40.4356  7832.35  87.2489
 40.4776  7805.08  87.3453
 40.5196  7766.66  87.4176
 40.5616  7710  86.7451
 40.6036  7670.3  86.772
 40.6456  7811.35  87.1785
 40.6876  7916.88  87.7552
 40.7296  7788.73  87.1723
 40.7716  7726.08  86.9511
 40.8136  7665.25  86.5462
 40.8556  7733.81  87.07
 40.8976  7753.8  87.1044
 40.9396  7678.83  87.0259
 40.9816  7802.74  87.0118
 41.0236  7732.03  86.4074
 41.0656  7851.77  87.6089
 41.1076  7782.24  86.9915
 41.1496  7761.84  86.7853
 41.1916  7763.81  87.1192
 41.2336  7664.89  86.5476
 41.2756  7737.47  86.5709
 41.3176  7701.74  86.9779
 41.3596  7694.45  86.6698
 41.4016  7790.03  87.4617
 41.4436  7826.97  87.4597
 41.4856  7672.47  86.7521
 41.5276  7629.93  86.53
 41.5696  7771.36  86.9436
 41.6116  7674.92  86.8089
 41.6536  7692.56  86.7704
 41.6956  7844.68  87.603
 41.7376  7695.73  86.8694
 41.7796  7709.79  86.8746
 41.8216  7673.4  86.8607
 41.8636  7739.22  87.1725
 41.9056  7659  86.5099
 41.9476  7759.65  87.3118
 41.9896  7709.53  86.7004
 42.0316  7739.74  86.9515
 42.0736  7701.05  86.8674
 42.1156  7660.83  86.4536
 42.1576  7661.65  86.5514
 42.1996  7750.41  87.1958
 42.2416  7714.95  86.5862
 42.2836  7659.35  86.3805
 42.3256  7634.36  86.3565
 42.3676  7677.01  86.4034
 42.4096  7818.69  87.1599
 42.4516  7673.08  86.4301
 42.4936  7618.68  86.1911
 42.5356  7651.14  86.4997
 42.5776  7701.48  86.7291
 42.6196  7652.69  86.5036
 42.6616  7501.4  85.8189
 42.7036  7629.69  85.9403
 42.7456  7682.43  86.5922
 42.7876  7582.47  86.1244
 42.8296  7620.71  86.1756
 42.8716  7571.61  86.0558
 42.9136  7609.06  86.015
 42.9556  7622.75  86.2651
 42.9976  7698.41  86.6556
 43.0396  7648.36  86.109
 43.0816  7582.52  86.1118
 43.1236  7501.94  85.7115
 43.1656  7512.18  85.5987
 43.2076  7492.58  85.5922
 43.2496  7468.15  85.2625
 43.2916  7571.9  86.2218
 43.3336  7589.99  86.1632
 43.3756  7578.06  85.8521
 43.4176  7457.14  85.2453
 43.4596  7455.75  85.0892
 43.5016  7433.02  85.3662
 43.5436  7562.9  86.0061
 43.5856  7488.18  85.6106
 43.6276  7443.47  85.2467
 43.6696  7502.98  85.7285
 43.7116  7534.1  85.5243
 43.7536  7483.74  85.7198
 43.7956  7395.34  86.3636
 43.8376  7449.87  85.2598
 43.8796  7489.4  85.5673
 43.9216  7526.52  85.6989
 43.9636  7462.76  85.4454
 44.0056  7346.81  85.0039
 44.0476  7474.97  85.378
 44.0896  7407.51  85.3275
 44.1316  7424.69  85.0946
 44.1736  7384.83  84.8415
 44.2156  7425.58  84.9359
 44.2576  7447.25  85.3863
 44.2996  7423.74  85.2223
 44.3416  7329.95  84.4467
 44.3836  7308.57  84.65
 44.4256  7303.48  84.269
 44.4676  7259.42  84.1661
 44.5096  7360.97  84.8936
 44.5516  7402.73  85.0961
 44.5936  7098.15  83.2842
 44.6356  7261.07  83.9784
 44.6776  7311.44  84.5798
 44.7196  7307.43  84.8658
 44.7616  7251.85  85.8368
 44.8036  7277.31  84.6474
 44.8456  7296.21  84.7526
 44.8876  7279.01  84.5091
 44.9296  7356.44  84.4211
 44.9716  7246.43  84.208
 45.0136  7178.26  83.7454
 45.0556  7151.15  83.6617
 45.0976  7181.28  83.9041
 45.1396  7282.45  84.2417
 45.1816  7167.42  83.5193
 45.2236  7279.5  84.0703
 45.2656  7138.62  83.7405
 45.3076  7158.84  83.6597
 45.3496  7137.06  83.8194
 45.3916  7085.64  83.7775
 45.4336  7139.2  83.9383
 45.4756  7192.11  84.1098
 45.5176  7197.8  83.7669
 45.5596  7264.55  84.275
 45.6016  7072.94  83.5633
 45.6436  7200.3  83.5063
 45.6856  7112.06  83.6303
 45.7276  7097.12  84.8409
 45.7696  7070.39  84.3513
 45.8116  7230.32  84.7375
 45.8536  7046.88  83.5564
 45.8956  7112.63  83.3122
 45.9376  7228.52  83.4601
 45.9796  7084.55  83.3063
 46.0216  7122.87  83.8513
 46.0636  7194.63  83.4262
 46.1056  7081.02  82.7594
 46.1476  7123.01  83.5856
 46.1896  7131.26  83.7771
 46.2316  7037.92  83.1064
 46.2736  7082.25  83.5747
 46.3156  7054.3  83.1543
 46.3576  7086.89  83.5472
 46.3996  7109.31  83.8372
 46.4416  7139.91  83.5761
 46.4836  6964.31  82.9099
 46.5256  7047.2  83.3407
 46.5676  7047  83.4532
 46.6096  7079.44  83.5778
 46.6516  7247.71  83.6178
 46.6936  7067.28  83.0443
 46.7356  7140.59  83.5875
 46.7776  6972.52  83.4225
 46.8196  6952.19  83.0418
 46.8616  6898.82  82.5346
 46.9036  6882.85  82.1011
 46.9456  6994.19  82.416
 46.9876  7000.24  82.5325
 47.0296  6970.05  83.0298
 47.0716  6875.02  82.2824
 47.1136  6946.37  82.4012
 47.1556  6955.63  82.3196
 47.1976  6943.53  82.4115
 47.2396  6974.22  82.9007
 47.2816  6951.27  82.4715
 47.3236  6915.81  82.6195
 47.3656  6994.08  83.0164
 47.4076  7078.5  83.2549
 47.4496  6960.66  82.7202
 47.4916  6868.75  82.3588
 47.5336  6918.25  82.4718
 47.5756  6985.75  82.9863
 47.6176  6876.59  82.2473
 47.6596  6812.83  81.5771
 47.7016  6976.59  82.3793
 47.7436  6977.36  82.7103
 47.7856  6969.36  82.6868
 47.8276  6833.86  81.927
 47.8696  6874.8  82.2589
 47.9116  6939.45  82.3611
 47.9536  6819.39  81.5932
 47.9956  6804.67  82.193
 48.0376  6732.75  81.5359
 48.0796  6929.16  82.8429
 48.1216  6873.31  82.3346
 48.1636  6990.32  82.6151
 48.2056  6926.11  82.4923
 48.2476  6915.43  82.7302
 48.2896  6872.86  82.384
 48.3316  6747.42  81.5782
 48.3736  6783.26  81.8143
 48.4156  6818.29  81.8806
 48.4576  6856.17  82.3963
 48.4996  6901.59  82.133
 48.5416  6890.47  82.3859
 48.5836  6805.89  81.5645
 48.6256  6846.04  81.997
 48.6676  6828.62  82.4001
 48.7096  6920.18  82.2386
 48.7516  6798.49  81.6566
 48.7936  6679.32  80.9974
 48.8356  6712.42  81.2464
 48.8776  6755.69  81.9885
 48.9196  6887.66  82.2411
 48.9616  6658.66  81.239
 49.0036  6770.59  82.2526
 49.0456  6754.3  82.1236
 49.0876  6708.74  81.4915
 49.1296  6635.22  81.1068
 49.1716  6558.48  80.5171
 49.2136  6819.47  82.043
 49.2556  6837.38  82.1718
 49.2976  6687.05  81.329
 49.3396  6650.02  81.1605
 49.3816  6783.05  81.4122
 49.4236  6677.95  81.1873
 49.4656  6603.51  80.7518
 49.5076  6702.72  81.1131
 49.5496  6706.83  81.2034
 49.5916  6714.27  81.1663
 49.6336  6575.33  80.504
 49.6756  6683.8  81.4044
 49.7176  6683.89  81.349
 49.7596  6608.56  80.6577
 49.8016  6739.99  81.3905
 49.8436  6595.09  80.7907
 49.8856  6717.04  81.539
 49.9276  6525.77  80.4653
 49.9696  6692.91  81.4733
 50.0116  6633.61  81.2403
 50.0536  6609.14  81.0446
 50.0956  6453.29  80.1442
 50.1376  6668.81  81.1823
 50.1796  6537.59  80.6392
 50.2216  6623.69  81.1611
 50.2636  6554.56  80.3706
 50.3056  6509.13  80.2535
 50.3476  6568.23  80.6421
 50.3896  6602.54  80.8227
 50.4316  6489.27  79.9657
 50.4736  6469.09  80.0551
 50.5156  6557.94  80.5965
 50.5576  6579.57  80.4891
 50.5996  6509.97  80.3402
 50.6416  6453.79  79.9245
 50.6836  6547.45  80.5571
 50.7256  6596  80.7788
 50.7676  6628.48  81.2524
 50.8096  6563.79  80.4387
 50.8516  6551.04  80.7752
 50.8936  6413.36  79.7118
 50.9356  6559.36  80.7139
 50.9776  6515.58  80.5916
 51.0196  6439.88  80.2483
 51.0616  6393.54  79.3032
 51.1036  6512.92  80.3893
 51.1456  6591.75  80.7839
 51.1876  6476.68  79.4374
 51.2296  6455.76  79.9298
 51.2716  6479.68  79.7924
 51.3136  6332.58  79.3112
 51.3556  6377.94  79.2402
 51.3976  6427.93  79.6956
 51.4396  6181.78  78.4433
 51.4816  6273.27  78.8837
 51.5236  6415.37  79.8538
 51.5656  6334.95  78.9709
 51.6076  6450.39  79.764
 51.6496  6477.84  80.1253
 51.6916  6317.76  79.4668
 51.7336  6320.01  79.5753
 51.7756  6410.83  79.8471
 51.8176  6343.46  79.5249
 51.8596  6294.47  79.2416
 51.9016  6486  80.0509
 51.9436  6329.31  80.5008
 51.9856  6298.05  80.7127
 52.0276  6381.74  79.8016
 52.0696  6277.98  79.2064
 52.1116  6256.77  79.1874
 52.1536  6310.14  79.3714
 52.1956  6360.66  79.2017
 52.2376  6488.77  80.1797
 52.2796  6367.92  79.2446
 52.3216  6157.75  78.5834
 52.3636  6291.22  79.0264
 52.4056  6260.39  78.6854
 52.4476  6167.91  78.4635
 52.4896  6225.37  78.8781
 52.5316  6244.84  79.0465
 52.5736  6297.98  79.1097
 52.6156  6313.83  79.5852
 52.6576  6284.5  78.8602
 52.6996  6206.43  79.3047
 52.7416  6265.38  79.539
 52.7836  6372.33  80.1143
 52.8256  6253.92  78.5981
 52.8676  6201.37  78.8228
 52.9096  6258.36  79.2672
 52.9516  6244.19  79.544
 52.9936  6092.64  78.946
 53.0356  6199.37  78.6588
 53.0776  6112.26  78.3781
 53.1196  6123.15  78.5531
 53.1616  6160.63  78.8396
 53.2036  6034.13  77.9851
 53.2456  6072.08  78.3276
 53.2876  6112.47  78.2988
 53.3296  6087.31  78.4545
 53.3716  6111.65  78.3606
 53.4136  6215.6  79.1746
 53.4556  6036.69  78.0519
 53.4976  6184.19  78.8552
 53.5396  6105.6  78.7322
 53.5816  6025.12  77.858
 53.6236  6074.38  78.5084
 53.6656  6183.41  78.849
 53.7076  6190.18  78.8525
 53.7496  6115.82  78.4905
 53.7916  6134.08  78.7375
 53.8336  6085.18  78.3227
 53.8756  5981.57  78.1838
 53.9176  6099.85  78.3149
 53.9596  6183.47  79.6081
 54.0016  6060.44  78.157
 54.0436  6050.55  78.2968
 54.0856  6073.93  77.8961
 54.1276  6149.96  78.584
 54.1696  6083.17  78.3177
 54.2116  6159.69  78.5669
 54.2536  6127.83  78.1857
 54.2956  6148.73  78.3618
 54.3376  6062.46  78.286
 54.3796  6071.66  78.247
 54.4216  6115.8  78.5769
 54.4636  6138.33  78.6823
 54.5056  6154.22  78.6093
 54.5476  6128.38  78.7695
 54.5896  6071.49  78.2316
 54.6316  5990.29  77.5768
 54.6736  5987.63  77.5794
 54.7156  6061.56  78.1332
 54.7576  5976.13  77.5742
 54.7996  6117.6  78.6328
 54.8416  6107.48  78.6048
 54.8836  5955.67  77.7331
 54.9256  5978.07  77.632
 54.9676  6063  78.0451
 55.0096  6115.04  78.4487
 55.0516  6019.47  77.9953
 55.0936  6139.05  78.4614
 55.1356  5996.42  77.5905
 55.1776  5994.62  77.8392
 55.2196  6132.88  78.5158
 55.2616  6003.8  77.8898
 55.3036  6009.18  78.0875
 55.3456  6045  78.4638
 55.3876  5997.1  77.9012
 55.4296  5978.51  77.7548
 55.4716  6011.24  78.0058
 55.5136  6024.85  77.8514
 55.5556  5988.1  77.6865
 55.5976  5894.82  77.1324
 55.6396  6113.74  78.4232
 55.6816  6000.68  77.655
 55.7236  5999.01  77.6833
 55.7656  5995.96  77.428
 55.8076  6047.82  77.7464
 55.8496  5954.91  77.5682
 55.8916  5991.16  77.8604
 55.9336  5945.1  77.4151
 55.9756  6002.74  77.6773
 56.0176  5899.99  77.1607
 56.0596  5943.75  77.4329
 56.1016  5980.23  77.7041
 56.1436  5934.65  77.6379
 56.1856  6028.05  77.9911
 56.2276  6013.18  77.9497
 56.2696  5884.98  77.0883
 56.3116  5978.97  78.0956
 56.3536  6041.32  78.1676
 56.3956  6010.94  77.9605
 56.4376  5953.64  77.6157
 56.4796  6005.55  77.7609
 56.5216  5975.78  77.9372
 56.5636  6019.23  77.8152
 56.6056  5939.61  77.5202
 56.6476  5970.94  77.3686
 56.6896  5965.13  77.7703
 56.7316  5944.24  77.5297
 56.7736  6073.69  78.3793
 56.8156  6011.8  77.976
 56.8576  5931.59  77.3971
 56.8996  5906.22  77.1736
 56.9416  5946.39  77.7321
 56.9836  5867.65  76.7399
 57.0256  5877.95  77.1136
 57.0676  5854.29  77.0753
 57.1096  6007.59  77.8777
 57.1516  5931.97  77.4114
 57.1936  5940.33  77.2554
 57.2356  5946.3  77.6102
 57.2776  6004.97  77.9434
 57.3196  6020.31  78.4156
 57.3616  5964.33  77.5494
 57.4036  6012.47  77.9223
 57.4456  5953.12  77.5012
 57.4876  5996.12  77.6471
 57.5296  5848.42  76.9134
 57.5716  5867.82  77.1322
 57.6136  5952.89  77.5037
 57.6556  5910.87  77.3658
 57.6976  6020.9  77.9131
 57.7396  5901.8  77.504
 57.7816  5834.98  77.4154
 57.8236  5922.28  77.7873
 57.8656  5943.4  77.5891
 57.9076  5968  77.7803
 57.9496  5887.36  77.5934
 57.9916  5824.1  76.6999
 58.0336  5918.95  77.5981
 58.0756  5968.89  77.5205
 58.1176  5978.43  77.6189
 58.1596  5869.75  77.4551
 58.2016  5999.18  77.5512
 58.2436  5913.35  77.3983
 58.2856  6017.52  77.9994
 58.3276  5970.01  78.0562
 58.3696  5930.67  77.551
 58.4116  5879.32  77.0846
 58.4536  5970.5  77.5623
 58.4956  5791.7  76.573
 58.5376  5941.83  77.1348
 58.5796  5952.38  77.6216
 58.6216  5988.36  77.6722
 58.6636  5943.53  77.594
 58.7056  5922.28  77.3139
 58.7476  5913.84  77.6983
 58.7896  5867.2  77.0415
 58.8316  5895.64  77.2201
 58.8736  5968.78  77.704
 58.9156  5838.46  76.8975
 58.9576  6094.14  78.8839
 58.9996  6116.42  78.269
 59.0416  5983.63  77.7834
 59.0836  5956  77.5265
 59.1256  5881.72  77.7303
 59.1676  5936.65  78.3999
 59.2096  5982.21  78.0164
 59.2516  5974.14  77.5471
 59.2936  5893.64  77.347
 59.3356  6119.64  78.6929
 59.3776  5983.05  77.978
 59.4196  5900.68  77.371
 59.4616  5854.09  76.9321
 59.5036  5897.12  77.2489
 59.5456  6112.1  78.3363
 59.5876  6001.92  77.8175
 59.6296  5932.91  77.4374
 59.6716  6089.12  78.5084
 59.7136  5966.42  77.7017
 59.7556  6036.25  78.2916
 59.7976  5923.52  77.3017
 59.8396  5924.69  77.2046
 59.8816  5874.97  77.4181
 59.9236  6041.48  78.1509
 59.9656  5988.09  78.0644
 60.0076  6061.02  77.8946
 60.0496  6019.43  78.1293
 60.0916  5991.12  77.3664
 60.1336  5997.1  78.5084
 60.1756  5797.17  78.349
 60.1996  0.0000000E+00  0.0000000E+00