File: docs/examples/XRD/IS17_D/Data/IS17_D/17_Db_f00137.xye
# /beamlines/bl04/projects/cycle2025-II/20250340211-lsimonelli/DATA/IS17_D/17_Db_f00137.xye : mythproc.py merge -s 0.006 -l 0.5 -f /beamlines/bl04/inhouse/ff/FlatField/ff_20Nov2024rod8mm60s_17keV.raw -b True -c true -o xye /beamlines/bl04/projects/cycle2025-II/20250340211-lsimonelli/DATA/IS17_D/17_Db_00137.dat
# IsMon = [6742776, 6740436, 6741333]  IsPos = [-1.5000, -2.4884, -3.4988]
# Wave = 0.4962  CalPath /beamlines/bl04/projects/cycle2025-II/20250340211-lsimonelli/DATA/Align/Si_Pos1_25keV_f00001.cal
# Date = 2025-09-25_07:54:41 Dt = 4.8000  Bin = 0.0060  <imon> = 6741515 +/- 964 (Min/Max) 6740436 / 6742776
# icurr 249.0586  mocoIn 1.6997E-05  mocoOut 0.7977  i15 7.06843e+06  imon 6.74152e+06  i7 6.0000  iEMpd_timer 4.8000  iEMpd_1 3.5361E-08  iEMpd_2 7.9744E-08  iEMpd_3 1.7662E-08  iEMpd_4 4.8887E-08  iEMhp_timer 4.8000  iEMhp_1 4.8679E-06  iEMhp_2 -2.6095E-08  iEMhp_3 -2.4472E-08  iEMhp_4 -2.0871E-08
#      9776
 1.5856  43840.3  214.981
 1.6276  50315.2  226.358
 1.6696  55215.5  236.288
 1.7116  63051.3  252.992
 1.7536  70790.6  266.928
 1.7956  74510.4  274.535
 1.8376  71522.6  269.401
 1.8796  61355.2  247.682
 1.9216  50610.6  225.849
 1.9636  44138.4  210.581
 2.0056  40057.7  199.329
 2.0476  36920.8  193.463
 2.0896  35849  189.517
 2.1316  34692.1  185.537
 2.1736  33208.1  182.966
 2.2156  33201.5  181.479
 2.2576  32502  180.202
 2.2996  31106.1  176.936
 2.3416  31631.1  176.999
 2.3836  30756.2  174.641
 2.4256  29994.9  173.028
 2.4676  29603.1  171.651
 2.5096  29660  171.872
 2.5516  31054.6  179.877
 2.5936  88295.7  297.237
 2.6356  29354.4  172.132
 2.6776  27770.1  166.326
 2.7196  26884.9  164.137
 2.7616  26694.5  163.347
 2.8036  26207.2  162.006
 2.8456  26323.4  163.008
 2.8876  25634.9  160.723
 2.9296  25417.2  160.168
 2.9716  25218.7  159.034
 3.0136  24863.7  157.975
 3.0556  24807  158.199
 3.0976  24829  157.174
 3.1396  24319.4  156.261
 3.1816  24240.3  155.954
 3.2236  23945  154.997
 3.2656  23789.3  153.555
 3.3076  23807.5  155.056
 3.3496  23922.7  154.368
 3.3916  24354.5  155.579
 3.4336  24846.5  157.733
 3.4756  25092.6  158.443
 3.5176  25806.3  160.45
 3.5596  25294.4  161.833
 3.6016  25753.4  160.36
 3.6436  24889.5  158.75
 3.6856  24493.2  155.797
 3.7276  23484.9  153.621
 3.7696  23330.7  153.095
 3.8116  23015.3  152.164
 3.8536  23147.3  152.522
 3.8956  23251.2  152.698
 3.9376  23569.2  154.001
 3.9796  22848.7  151.119
 4.0216  22976.1  150.59
 4.0636  22872.5  151.702
 4.1056  22817.4  151.181
 4.1476  23285.4  153.025
 4.1896  23262.5  152.816
 4.2316  23330.3  152.863
 4.2736  23831.6  154.3
 4.3156  23954.7  154.928
 4.3576  24710.8  157.248
 4.3996  24772.8  157.73
 4.4416  25661.5  160.116
 4.4836  26544.9  163.015
 4.5256  26717.2  164.14
 4.5676  26330.8  163.207
 4.6096  26708.2  163.401
 4.6516  27411.6  164.871
 4.6936  27336.5  165.471
 4.7356  28222.6  167.951
 4.7776  27382.4  165.264
 4.8196  27275.6  165.573
 4.8616  26681.8  163.27
 4.9036  26630.8  162.843
 4.9456  26540.4  163.222
 4.9876  25784.1  160.766
 5.0296  25892.3  160.96
 5.0716  25609  160.824
 5.1136  26023.9  161.837
 5.1556  26279.6  162.099
 5.1976  31094.2  176.294
 5.2396  26839.3  163.499
 5.2816  27010.6  164.483
 5.3236  26710.3  163.265
 5.3656  26338.3  163.051
 5.4076  26049.2  162.289
 5.4496  25965.3  161.538
 5.4916  26157.1  161.879
 5.5336  26227  162.114
 5.5756  26236.1  162.143
 5.6176  26393.8  162.083
 5.6596  26645.1  163.673
 5.7016  26852.7  163.737
 5.7436  26698  163.54
 5.7856  26682.4  163.557
 5.8276  26852.1  163.792
 5.8696  27206.8  164.926
 5.9116  27078.2  165.247
 5.9536  27414.1  166.008
 5.9956  27815.9  166.62
 6.0376  27588.4  166.551
 6.0796  27550.9  166.266
 6.1216  27754.9  167.084
 6.1636  28095.5  167.155
 6.2056  28016.9  167.602
 6.2476  28460.5  168.609
 6.2896  28413  168.336
 6.3316  28464  168.65
 6.3736  28513.9  168.697
 6.4156  28387.2  168.269
 6.4576  28705.1  168.776
 6.4996  28586.6  168.904
 6.5416  28914.2  169.989
 6.5836  29019.4  170.544
 6.6256  28984.7  169.992
 6.6676  29549.6  171.22
 6.7096  29477  171.851
 6.7516  29653.1  172.033
 6.7936  30450.9  173.725
 6.8356  31066.1  175.578
 6.8776  30588.9  175.032
 6.9196  30234.8  174.406
 6.9616  30737.4  175.296
 7.0036  31179.1  176.208
 7.0456  31187.6  175.531
 7.0876  31327.1  177.514
 7.1296  31149.1  176.242
 7.1716  31013.5  175.401
 7.2136  30766.1  174.481
 7.2556  31085.1  175.534
 7.2976  31140.3  176.185
 7.3396  30964.3  175.905
 7.3816  31271.9  176.99
 7.4236  31376.2  176.59
 7.4656  31400.4  176.111
 7.5076  31634.9  176.917
 7.5496  31278.2  176.465
 7.5916  31702.5  177.695
 7.6336  32493.2  179.781
 7.6756  32628.2  180.003
 7.7176  32713.2  180.559
 7.7596  32585.8  181.425
 7.8016  36198.1  193.549
 7.8436  33078.8  181.704
 7.8856  32952.1  180.978
 7.9276  33705.7  183.417
 7.9696  33687.9  183.675
 8.0116  34581.6  184.661
 8.0536  35258.6  186.703
 8.0956  36431.7  190.981
 8.1376  35713.6  188.564
 8.1796  35646.4  188.917
 8.2216  36714.8  190.472
 8.2636  37546.4  192.871
 8.3056  36552.9  191.06
 8.3476  38396.4  195.145
 8.3896  36919.9  191.438
 8.4316  36806.5  191.308
 8.4736  37498.3  192.565
 8.5156  37021.6  191.614
 8.5576  36663.6  191.651
 8.5996  36648.9  190.493
 8.6416  36479.8  191.306
 8.6836  36298.8  190.66
 8.7256  36894.8  191.673
 8.7676  38749.8  199.416
 8.8096  38717.2  196.551
 8.8516  37469.8  192.978
 8.8936  38266.3  194.921
 8.9356  37150.7  192.384
 8.9776  36748.8  191.431
 9.0196  36894.8  191.472
 9.0616  36896.7  190.981
 9.1036  37897.1  194.741
 9.1456  35957.2  189.036
 9.1876  35863.6  188.721
 9.2296  35657.3  187.63
 9.2716  35495  187.236
 9.3136  35423.3  187.043
 9.3556  35955.7  188.42
 9.3976  34950.4  186.275
 9.4396  34751.5  185.656
 9.4816  34737.6  185.467
 9.5236  34525.3  184.809
 9.5656  34310.3  184.59
 9.6076  33439.9  182.759
 9.6496  33710.7  183.37
 9.6916  33273.9  182.142
 9.7336  33793  183.344
 9.7756  33488.9  183.649
 9.8176  33472  183.243
 9.8596  33266.7  181.119
 9.9016  32621.2  179.342
 9.9436  32365  178.396
 9.9856  32722.2  179.813
 10.0276  32142.6  179.295
 10.0696  32322.3  178.818
 10.1116  31245.8  176.077
 10.1536  31392.5  176.147
 10.1956  30843.3  174.709
 10.2376  30802.3  174.093
 10.2796  30395.6  173.067
 10.3216  30086.8  172.319
 10.3636  30062.7  172.424
 10.4056  31791.2  177.738
 10.4476  32423.7  179.088
 10.4896  35023.9  185.537
 10.5316  33781.4  182.577
 10.5736  29694.9  171.978
 10.6156  29568  171.353
 10.6576  34434  183.317
 10.6996  29437.3  170.246
 10.7416  28626.6  168.095
 10.7836  28878.7  169.526
 10.8256  27587.8  166.114
 10.8676  27937.8  166.705
 10.9096  27703.7  166.029
 10.9516  27300.3  163.766
 10.9936  27963.5  165.954
 11.0356  27497.8  165.185
 11.0776  28206.2  166.611
 11.1196  28132.3  167.187
 11.1616  26854.6  163.015
 11.2036  27513.3  164.83
 11.2456  28748.2  169.252
 11.2876  26954.7  163.59
 11.3296  26613.8  162.477
 11.3716  27044.9  163.513
 11.4136  26739.8  163.446
 11.4556  27170.7  164.404
 11.4976  28103.8  166.161
 11.5396  27373.9  164.164
 11.5816  26447.4  161.779
 11.6236  25547.3  159.262
 11.6656  26047.7  159.953
 11.7076  25243.5  158.3
 11.7496  25461  163.005
 11.7916  25555.7  158.526
 11.8336  24592.7  156.397
 11.8756  24899.7  156.918
 11.9176  24770.4  156.182
 11.9596  24637.7  155.931
 12.0016  24326  155.708
 12.0436  24344.8  155.22
 12.0856  24096.1  154.928
 12.1276  24111.7  154.927
 12.1696  24055.5  153.867
 12.2116  24295.9  154.636
 12.2536  26169.7  161.285
 12.2956  24325.4  154.889
 12.3376  24355.3  155.188
 12.3796  23976.8  154.463
 12.4216  24196.5  154.357
 12.4636  24543.9  156.412
 12.5056  23708.9  152.997
 12.5476  23889.6  153.087
 12.5896  23720.6  153.198
 12.6316  23831.7  153.698
 12.6736  23524.8  153.199
 12.7156  23984.1  154.51
 12.7576  23745.4  154.008
 12.7996  23953.1  153.319
 12.8416  24041.1  154.659
 12.8836  24553.3  156.121
 12.9256  24228.9  154.123
 12.9676  24229.7  154.526
 13.0096  24489.5  156.471
 13.0516  24356.6  155.077
 13.0936  24163.9  154.587
 13.1356  24428.9  154.687
 13.1776  24235.9  155.085
 13.2196  24241.5  154.74
 13.2616  23879  153.9
 13.3036  24240  155.182
 13.3456  23932.3  154.383
 13.3876  24574  155.697
 13.4296  24100.8  154.367
 13.4716  24354.5  154.801
 13.5136  24430  155.173
 13.5556  24121.4  154.821
 13.5976  24287.2  155.52
 13.6396  24641.9  156.007
 13.6816  24616.7  156.268
 13.7236  25052.1  157.367
 13.7656  26412.3  162.047
 13.8076  27811  164.882
 13.8496  25898.7  159.99
 13.8916  24790.8  157.47
 13.9336  23993.4  154.194
 13.9756  23695.8  152.605
 14.0176  23686.4  153.265
 14.0596  24275.1  155.079
 14.1016  23556.2  153.193
 14.1436  23531  152.243
 14.1856  23010.6  150.841
 14.2276  23396.1  152.582
 14.2696  23342.8  152.264
 14.3116  22554.3  149.584
 14.3536  22394.1  149.206
 14.3956  22233.5  148.406
 14.4376  22445.7  148.894
 14.4796  22315.6  148.462
 14.5216  21934.4  147.974
 14.5636  22275  148.685
 14.6056  22113.4  147.701
 14.6476  22002.8  146.575
 14.6896  21425.3  145.181
 14.7316  21126.7  145.198
 14.7736  20858.9  143.427
 14.8156  20846.3  143.397
 14.8576  20856.5  143.293
 14.8996  20583.3  143.545
 14.9416  20071.3  141.763
 14.9836  20118  141.909
 15.0256  19630.6  139.112
 15.0676  19481  138.889
 15.1096  19290.4  137.944
 15.1516  18826.7  136.83
 15.1936  18955.4  136.729
 15.2356  19166.5  137.767
 15.2776  18832.8  136.156
 15.3196  18458.7  135.779
 15.3616  18259.3  134.803
 15.4036  18363.1  135.053
 15.4456  18660.1  135.79
 15.4876  18189.4  133.753
 15.5296  18083.2  133.647
 15.5716  17686.4  131.781
 15.6136  17891.4  132.864
 15.6556  18602.2  134.712
 15.6976  17927.4  132.541
 15.7396  17638  131.848
 15.7816  17639.6  131.368
 15.8236  17187.4  130.351
 15.8656  17463.3  131.196
 15.9076  17326.4  130.5
 15.9496  18185.3  136.533
 15.9916  17418.4  134.025
 16.0336  17654.3  131.791
 16.0756  17486.2  131.481
 16.1176  17144.3  130.121
 16.1596  16818.9  130.203
 16.2016  16851.1  129.096
 16.2436  16978.3  129.948
 16.2856  16777.5  128.697
 16.3276  16271.5  127.18
 16.3696  16702.2  128.681
 16.4116  16537.4  128.495
 16.4536  16639  128.688
 16.4956  17190.4  130.525
 16.5376  16671  128.733
 16.5796  16461.9  127.289
 16.6216  16516.6  127.783
 16.6636  16207.6  126.757
 16.7056  16539.2  127.9
 16.7476  16524.1  127.367
 16.7896  16376  127.552
 16.8316  16433.8  127.754
 16.8736  16733.1  129.163
 16.9156  16668.2  129.247
 16.9576  16112.5  127.87
 16.9996  15982.1  127.818
 17.0416  16183  127.011
 17.0836  16129.4  126.558
 17.1256  15889.6  125.62
 17.1676  16167.7  126.677
 17.2096  16246.8  126.881
 17.2516  16125.9  126.493
 17.2936  15690.8  124.829
 17.3356  15374.8  123.547
 17.3776  15344.3  123.614
 17.4196  15278.5  123.055
 17.4616  15585.6  124.178
 17.5036  15671.5  124.903
 17.5456  15138.4  123.379
 17.5876  15070.9  122.168
 17.6296  15366.2  123.162
 17.6716  15113.7  122.751
 17.7136  15778.9  125.539
 17.7556  15143.8  123.288
 17.7976  15164.8  123.117
 17.8396  15003.5  121.954
 17.8816  14850.8  121.906
 17.9236  14777.9  121.387
 17.9656  14832  122.142
 18.0076  15179.9  123.154
 18.0496  15674.3  124.244
 18.0916  18137.5  134.26
 18.1336  17444.5  131.783
 18.1756  15683.4  124.488
 18.2176  15677.6  124.671
 18.2596  14755.2  120.685
 18.3016  15242.9  122.931
 18.3436  15574.6  124.265
 18.3856  15000.1  122.078
 18.4276  14762.7  120.797
 18.4696  14691.5  120.598
 18.5116  14788.1  121.272
 18.5536  14425.9  120.135
 18.5956  14551.7  120.211
 18.6376  14506  120.43
 18.6796  14415.2  119.368
 18.7216  14521.8  120.304
 18.7636  14398.1  119.788
 18.8056  14080.5  118.385
 18.8476  13926.7  118.36
 18.8896  13946.1  117.782
 18.9316  14357.1  119.494
 18.9736  14188.6  118.487
 19.0156  14268.4  119.243
 19.0576  14496.2  119.01
 19.0996  14283.5  118.859
 19.1416  14235  119.058
 19.1836  14023.7  117.779
 19.2256  13909.1  117.517
 19.2676  14049.2  118.184
 19.3096  13876.8  117.712
 19.3516  14003  118.014
 19.3936  14037.7  118.238
 19.4356  14062.5  118.226
 19.4776  13981.2  117.978
 19.5196  13901  117.492
 19.5616  13835.9  117.474
 19.6036  13946.3  117.438
 19.6456  13892.5  117.327
 19.6876  14258.5  118.494
 19.7296  14078.5  118.205
 19.7716  13921.4  117.717
 19.8136  14374.5  119.815
 19.8556  14625  120.331
 19.8976  14843  121.283
 19.9396  14561.8  119.717
 19.9816  14402.9  119.311
 20.0236  14430.9  119.615
 20.0656  13919  117.475
 20.1076  13789.4  117.399
 20.1496  13722.8  117.107
 20.1916  13823  117.02
 20.2336  13655.5  116.266
 20.2756  13446.3  115.806
 20.3176  13269.6  114.8
 20.3596  13210.4  114.531
 20.4016  13330.2  114.842
 20.4436  13227.3  114.956
 20.4856  13117.8  114.275
 20.5276  13225  115.198
 20.5696  13218.5  114.731
 20.6116  13089  114.324
 20.6536  13144.4  114.097
 20.6956  13066.8  113.885
 20.7376  12941.6  113.552
 20.7796  12941.2  113.25
 20.8216  13199.1  114.082
 20.8636  13294.7  114.866
 20.9056  13665.9  116.402
 20.9476  13263.1  114.514
 20.9896  13824.6  116.78
 21.0316  13059.9  113.398
 21.0736  13321.6  115.054
 21.1156  13425.4  115.665
 21.1576  13226.7  114.839
 21.1996  12911.7  113.453
 21.2416  13026.3  113.774
 21.2836  13074.5  113.964
 21.3256  12926.6  113.387
 21.3676  12854.8  112.605
 21.4096  13083.6  113.996
 21.4516  12870.6  112.873
 21.4936  12593.9  111.929
 21.5356  12819.6  112.867
 21.5776  12823.8  112.722
 21.6196  12911.8  113.147
 21.6616  12850.6  112.963
 21.7036  12869.6  112.807
 21.7456  12679.6  112.056
 21.7876  12566.5  111.312
 21.8296  12632.5  111.459
 21.8716  12614.7  111.603
 21.9136  12768.3  112.487
 21.9556  12818.9  112.387
 21.9976  12707.5  111.92
 22.0396  12641.5  111.885
 22.0816  12615.7  112.3
 22.1236  12907.5  113.038
 22.1656  12726.2  112.391
 22.2076  12333  110.112
 22.2496  12312.6  110.048
 22.2916  12449.5  110.542
 22.3336  12412.1  111.092
 22.3756  12283.3  110.24
 22.4176  12311.5  110.218
 22.4596  12019.3  109.482
 22.5016  12362  110.536
 22.5436  12198.1  109.681
 22.5856  12555.7  111.519
 22.6276  12518.6  111.49
 22.6696  12380.5  111.231
 22.7116  12365.2  110.673
 22.7536  12295.5  110.338
 22.7956  12462.3  110.417
 22.8376  12256.5  110.02
 22.8796  12234.2  109.723
 22.9216  12257.8  110.367
 22.9636  12153.3  109.063
 23.0056  12253.1  109.639
 23.0476  12288  110.364
 23.0896  12589.2  111.084
 23.1316  12441.3  110.859
 23.1736  12371.4  113.472
 23.2156  12407  111.026
 23.2576  12789.3  112.852
 23.2996  12490.8  111.304
 23.3416  12682  112.683
 23.3836  12543.6  111.304
 23.4256  12696.2  112.092
 23.4676  12590.9  111.322
 23.5096  12619.6  112.115
 23.5516  12475.4  110.766
 23.5936  12493.2  111.759
 23.6356  12793  112.752
 23.6776  12414  111.285
 23.7196  12516.2  111.525
 23.7616  12374.7  110.604
 23.8036  12621.7  111.747
 23.8456  12532.9  110.912
 23.8876  12355.7  110.476
 23.9296  12293.2  110.686
 23.9716  12220.2  109.568
 24.0136  12327  110.944
 24.0556  12226.9  110.207
 24.0976  12005.2  109.026
 24.1396  11857.4  110.962
 24.1816  12219.3  111.033
 24.2236  12025.9  109.776
 24.2656  12094.8  109.564
 24.3076  12039.2  109.588
 24.3496  12105.5  109.772
 24.3916  12249.2  110.466
 24.4336  12118.6  110.08
 24.4756  12042.9  109.621
 24.5176  11841.5  108.333
 24.5596  11848.3  108.69
 24.6016  11728  108.231
 24.6436  11925.5  108.634
 24.6856  11651.1  107.124
 24.7276  11658.2  107.487
 24.7696  11863.4  108.526
 24.8116  11689.3  107.91
 24.8536  11640.9  107.694
 24.8956  11611.4  107.282
 24.9376  11649.8  107.64
 24.9796  11574.4  107.406
 25.0216  11518  107.263
 25.0636  11647.4  107.516
 25.1056  11277.7  106.487
 25.1476  11237.1  107.934
 25.1896  11219.9  106.365
 25.2316  11328.7  106.15
 25.2736  11157.5  104.997
 25.3156  11162.5  105.094
 25.3576  11078.1  105.128
 25.3996  11150.2  105.451
 25.4416  11138.8  105.379
 25.4836  10951  105.003
 25.5256  11133.2  105.239
 25.5676  11171.9  105.137
 25.6096  10967.3  104.75
 25.6516  11078.1  104.784
 25.6936  10998.1  104.715
 25.7356  10993.7  104.83
 25.7776  11002.1  104.55
 25.8196  10871.8  104.089
 25.8616  11005.5  104.659
 25.9036  11182.6  104.946
 25.9456  10917.3  104.295
 25.9876  11110.7  105.122
 26.0296  10945.8  104.012
 26.0716  10980.3  104.596
 26.1136  11136.2  105.271
 26.1556  11042.9  104.208
 26.1976  10876.8  104.352
 26.2396  10930.1  103.759
 26.2816  10994.1  104.666
 26.3236  10832.6  104.058
 26.3656  11045.1  104.793
 26.4076  10834.3  103.988
 26.4496  10933.8  104.07
 26.4916  11062.9  104.569
 26.5336  11112.2  105.145
 26.5756  11483.3  106.767
 26.6176  11088.9  104.942
 26.6596  10855.6  104.138
 26.7016  10680.3  103.058
 26.7436  10817.4  103.848
 26.7856  10638.5  102.971
 26.8276  10400.4  101.779
 26.8696  10576  102.5
 26.9116  10696.1  103.012
 26.9536  10389  101.576
 26.9956  10397.8  101.662
 27.0376  10629.2  103.005
 27.0796  10603.8  102.615
 27.1216  10570.7  102.502
 27.1636  10421.5  101.946
 27.2056  10354.1  101.508
 27.2476  10431.2  101.868
 27.2896  10269.2  101.197
 27.3316  10323.2  101.177
 27.3736  10149.1  100.595
 27.4156  10285  101.093
 27.4576  10368.4  101.723
 27.4996  10318.6  101.092
 27.5416  10258.2  101.106
 27.5836  10242.1  100.862
 27.6256  10277.4  101.218
 27.6676  10229.6  100.972
 27.7096  10380.9  101.592
 27.7516  10463.2  102.149
 27.7936  10806.8  103.947
 27.8356  10532.8  102.239
 27.8776  10559.6  102.428
 27.9196  10168.3  100.374
 27.9616  10396.5  101.7
 28.0036  10225  100.808
 28.0456  10078.8  100.24
 28.0876  10142.2  100.639
 28.1296  10084.6  100.171
 28.1716  10277.9  101.156
 28.2136  10074.2  100.114
 28.2556  10050.7  100.107
 28.2976  10003.1  99.8683
 28.3396  10038.5  99.8068
 28.3816  10211.3  100.664
 28.4236  10068.3  100.117
 28.4656  9894.18  99.2866
 28.5076  9848.81  98.6993
 28.5496  9805.18  98.7271
 28.5916  9752.61  98.2857
 28.6336  9883.75  99.2807
 28.6756  9883.82  98.4843
 28.7176  9884.42  99.0431
 28.7596  9703.71  98.0258
 28.8016  9746.56  98.2824
 28.8436  9661.23  98.0854
 28.8856  9887.04  99.0795
 28.9276  9800.85  98.8896
 28.9696  9765.23  98.3608
 29.0116  9601.58  97.7273
 29.0536  9557.07  97.7063
 29.0956  9713.88  98.1993
 29.1376  9668.62  97.9502
 29.1796  9673.37  98.0184
 29.2216  9630.44  97.6392
 29.2636  9699.64  98.066
 29.3056  9743.16  98.063
 29.3476  9628.89  98.0184
 29.3896  9726.15  98.6283
 29.4316  9516.25  96.8956
 29.4736  9433.59  96.5388
 29.5156  9560.52  97.1095
 29.5576  9477.72  97.4191
 29.5996  9562.5  97.1151
 29.6416  9381.08  96.3085
 29.6836  9490.44  96.7936
 29.7256  9191.93  95.8153
 29.7676  9243.26  95.7482
 29.8096  9350.31  96.2432
 29.8516  9207.82  95.8356
 29.8936  9351.64  96.6691
 29.9356  9320.36  96.2707
 29.9776  9169.43  95.6308
 30.0196  9341.55  95.9274
 30.0616  9480.19  97.0089
 30.1036  9366.89  96.2552
 30.1456  9093.53  95.0609
 30.1876  9248  95.8505
 30.2296  9150.14  95.2903
 30.2716  9203.13  95.2098
 30.3136  9332.56  96.7277
 30.3556  9437.97  97.2639
 30.3976  9491.61  99.0412
 30.4396  9771.36  97.8138
 30.4816  9629.34  96.7041
 30.5236  9611.9  96.6052
 30.5656  9316.11  95.7706
 30.6076  9460.25  96.2516
 30.6496  9622.66  97.1523
 30.6916  9218.13  95.1733
 30.7336  9523.6  96.8787
 30.7756  9372.99  96.2018
 30.8176  9437.43  96.4541
 30.8596  9430.71  96.1565
 30.9016  9468.21  96.2287
 30.9436  9396.66  96.1102
 30.9856  9524.27  96.8599
 31.0276  9374.45  95.7383
 31.0696  9305.55  95.9382
 31.1116  9317.19  95.9758
 31.1536  9400.81  96.2908
 31.1956  9407.29  96.4073
 31.2376  9046.97  94.5662
 31.2796  9302.67  95.4264
 31.3216  9242.91  95.0407
 31.3636  9319.2  96.1401
 31.4056  9218.21  96.9216
 31.4476  9284.48  95.1826
 31.4896  9401.94  96.2853
 31.5316  9374.82  95.554
 31.5736  9842.88  97.7304
 31.6156  9625.49  96.6545
 31.6576  9599.37  96.5923
 31.6996  9545.04  95.9629
 31.7416  9394.09  96.1777
 31.7836  9484.82  95.7824
 31.8256  9365.44  95.4375
 31.8676  9495.48  96.0715
 31.9096  9125.61  94.427
 31.9516  9098.97  94.5987
 31.9936  9057.07  94.2069
 32.0356  9276.17  95.3856
 32.0776  9347.26  95.6492
 32.1196  9387.43  95.8682
 32.1616  9258.26  94.7455
 32.2036  9302.41  95.4821
 32.2456  9171.06  95.1874
 32.2876  9192.79  94.7999
 32.3296  9010.56  93.818
 32.3716  9020.95  93.9907
 32.4136  9024.57  94.1962
 32.4556  9211.97  94.5625
 32.4976  9089.68  93.8811
 32.5396  8928.68  93.0624
 32.5816  8970.84  93.4091
 32.6236  8951.62  93.3854
 32.6656  8993.79  94.1372
 32.7076  8986.81  93.7617
 32.7496  8964.76  93.3245
 32.7916  9078.23  93.8657
 32.8336  8930.38  93.1932
 32.8756  9061.89  93.5961
 32.9176  8864.22  93.0522
 32.9596  8952.71  93.5853
 33.0016  9015.56  93.6869
 33.0436  8968.06  93.5981
 33.0856  8918.74  93.4435
 33.1276  8790.14  92.5082
 33.1696  8922.71  93.0317
 33.2116  9064.55  94.0103
 33.2536  9015.78  93.7326
 33.2956  8905.63  93.2563
 33.3376  8755.99  92.2927
 33.3796  8871.34  93.0282
 33.4216  8813.41  92.3171
 33.4636  8786.12  92.331
 33.5056  8833.19  92.8246
 33.5476  8867.48  92.9729
 33.5896  8882.6  92.854
 33.6316  8771.51  92.5762
 33.6736  8515.27  91.4585
 33.7156  8780.11  92.9051
 33.7576  8762.79  92.4546
 33.7996  8868.64  92.7711
 33.8416  8699.79  92.069
 33.8836  8707.55  91.8925
 33.9256  8777.56  92.3094
 33.9676  8814.39  92.4024
 34.0096  8652.05  91.8564
 34.0516  8685.3  91.6717
 34.0936  8456.22  90.7266
 34.1356  8694.82  91.7355
 34.1776  8587.31  91.1605
 34.2196  8690.43  91.8993
 34.2616  8467.17  90.8462
 34.3036  8636.49  91.9906
 34.3456  8567.06  91.372
 34.3876  8572.43  91.4667
 34.4296  8641.86  91.4401
 34.4716  8767.74  92.253
 34.5136  8644.86  91.794
 34.5556  8427.8  90.8886
 34.5976  8779.36  92.5976
 34.6396  8587.8  91.2678
 34.6816  8627.19  91.5823
 34.7236  8574.35  91.0801
 34.7656  8575.28  91.3019
 34.8076  8557.47  91.5316
 34.8496  8415.71  90.6247
 34.8916  8590.13  91.425
 34.9336  8590.06  91.4031
 34.9756  8587.52  91.3256
 35.0176  8516.4  91.4564
 35.0596  8578.17  91.606
 35.1016  8533.6  91.1236
 35.1436  8743.52  91.9299
 35.1856  8478.22  90.6353
 35.2276  8439.21  90.6105
 35.2696  8573.94  91.5182
 35.3116  8471.02  91.0746
 35.3536  8526.65  91.0964
 35.3956  8410.6  90.1678
 35.4376  8587.48  91.6785
 35.4796  8524.14  91.3756
 35.5216  8394.36  90.6478
 35.5636  8234.95  90.5181
 35.6056  8336.08  90.1001
 35.6476  8455.39  90.6286
 35.6896  8425.31  90.5738
 35.7316  8440.75  90.6259
 35.7736  8316.44  90.1399
 35.8156  8485.97  91.0594
 35.8576  8429.2  90.9968
 35.8996  8488.85  91.2902
 35.9416  8419.92  90.4242
 35.9836  8367.14  90.5996
 36.0256  8583.25  91.6593
 36.0676  8520.73  91.0791
 36.1096  8425.44  90.7127
 36.1516  8487.12  90.9408
 36.1936  8519.86  90.9507
 36.2356  8542.32  91.7363
 36.2776  8390.13  90.3781
 36.3196  8341.37  89.7877
 36.3616  8361.27  90.0256
 36.4036  8346.41  90.0177
 36.4456  8370.77  90.3534
 36.4876  8132.5  89.0009
 36.5296  8233.92  89.5975
 36.5716  8272.3  90.5802
 36.6136  8317.82  89.6185
 36.6556  8283.46  89.6309
 36.6976  8209.87  89.7259
 36.7396  8239.71  89.6152
 36.7816  8091.01  89.1812
 36.8236  8172.81  89.5453
 36.8656  7959.03  88.4474
 36.9076  8036.34  88.7509
 36.9496  7883.99  87.8955
 36.9916  8176.86  89.1431
 37.0336  8246.1  89.8343
 37.0756  8085.5  88.7515
 37.1176  8014.66  88.6277
 37.1596  7967.16  88.3714
 37.2016  7956.97  88.5289
 37.2436  8198.65  89.1835
 37.2856  8001.66  88.3612
 37.3276  8130.87  88.4269
 37.3696  7978.58  88.4697
 37.4116  8000.84  88.5006
 37.4536  7996.24  88.3427
 37.4956  7871.78  87.6951
 37.5376  8007.46  90.0189
 37.5796  8145.52  90.7167
 37.6216  7869.14  87.4535
 37.6636  8187.48  89.089
 37.7056  8126.55  88.9502
 37.7476  8251.1  89.1602
 37.7896  8017.11  88.4077
 37.8316  7951.06  88.1974
 37.8736  7994.58  87.9646
 37.9156  7982.52  87.8887
 37.9576  8126.61  88.595
 37.9996  8005.49  87.6462
 38.0416  8136.17  89.167
 38.0836  8122.82  88.9993
 38.1256  8018.95  88.4009
 38.1676  8045.09  88.6683
 38.2096  8088.24  88.5093
 38.2516  8058.64  88.5754
 38.2936  8156.62  88.8993
 38.3356  8102.85  88.5409
 38.3776  7889.6  87.6028
 38.4196  8098.67  88.6252
 38.4616  7986.23  88.2543
 38.5036  8165.9  89.0811
 38.5456  7933.93  88.6367
 38.5876  7886.38  88.4018
 38.6296  7921.77  87.5638
 38.6716  7955.65  87.5634
 38.7136  8029.32  87.9071
 38.7556  7963.35  88.051
 38.7976  8108.15  88.7754
 38.8396  7961.9  88.4292
 38.8816  7927.14  88.0323
 38.9236  7952.75  87.9752
 38.9656  7955.1  87.8839
 39.0076  8081.59  87.9936
 39.0496  8018.01  88.1972
 39.0916  7937.65  87.4033
 39.1336  7953.4  87.898
 39.1756  7977.4  88.0826
 39.2176  7945.99  88.4594
 39.2596  7970.46  88.5168
 39.3016  7820.24  87.2656
 39.3436  7943.47  88.3475
 39.3856  8022.18  88.2423
 39.4276  8062.83  88.9718
 39.4696  7942.95  87.9273
 39.5116  8060.21  89.09
 39.5536  8085.06  89.6536
 39.5956  8037.65  88.4944
 39.6376  7945.56  87.98
 39.6796  7955.17  87.7743
 39.7216  7890.13  87.5257
 39.7636  8045.85  88.9419
 39.8056  7978.84  88.3694
 39.8476  7861.46  87.9576
 39.8896  7991.61  88.3172
 39.9316  7890.57  88.0051
 39.9736  7886.57  87.5627
 40.0156  7810.22  86.9687
 40.0576  7894.42  87.7882
 40.0996  7985.9  87.4799
 40.1416  7909.04  87.8485
 40.1836  7951.42  87.9726
 40.2256  7892.26  87.6732
 40.2676  7834.33  87.534
 40.3096  8003.9  88.3204
 40.3516  7921.25  87.98
 40.3936  8031.11  88.1437
 40.4356  7853.38  87.3734
 40.4776  8013.19  88.4861
 40.5196  7939.44  88.375
 40.5616  8071.48  88.742
 40.6036  7804.89  87.5301
 40.6456  7974.26  88.0806
 40.6876  8059.36  88.5331
 40.7296  7813.34  87.312
 40.7716  7990.68  88.4149
 40.8136  7859.8  87.6316
 40.8556  7960.84  88.3301
 40.8976  8045.2  88.7165
 40.9396  7933.37  88.4402
 40.9816  7929.57  87.713
 41.0236  7918.83  87.4455
 41.0656  7984.35  88.3409
 41.1076  7943.34  87.8878
 41.1496  7946.42  87.8127
 41.1916  7812.78  87.3853
 41.2336  7980.79  88.314
 41.2756  7950.88  87.7523
 41.3176  7979.06  88.5107
 41.3596  7983.32  88.2785
 41.4016  7915.63  88.1686
 41.4436  8064.6  88.7716
 41.4856  7973.23  88.4367
 41.5276  7820.73  87.6036
 41.5696  7976.23  88.1004
 41.6116  7907.95  88.1085
 41.6536  8027.35  88.6278
 41.6956  7964.63  88.2635
 41.7376  7907.16  88.0352
 41.7796  7785.06  87.2503
 41.8216  7991.77  88.6337
 41.8636  7893.6  88.0349
 41.9056  7914.4  87.944
 41.9476  7998.82  88.6455
 41.9896  8037.91  88.5223
 42.0316  7998.79  88.3968
 42.0736  7933.83  88.1696
 42.1156  7957.57  88.1111
 42.1576  7910.82  87.9549
 42.1996  7990.7  88.5179
 42.2416  7921.57  87.7303
 42.2836  7925.66  87.8729
 42.3256  7932.81  88.0231
 42.3676  8006.51  88.2196
 42.4096  7884.95  87.5254
 42.4516  7929.47  87.8478
 42.4936  7818.22  87.3067
 42.5356  7765.6  87.1545
 42.5776  7965.5  88.2006
 42.6196  7936.57  88.1
 42.6616  7777.82  87.3847
 42.7036  7954.36  87.7436
 42.7456  7889.75  87.7438
 42.7876  7759.02  87.0979
 42.8296  7867.64  87.5474
 42.8716  7721.16  86.8917
 42.9136  7736.8  86.7386
 42.9556  7920.05  87.9275
 42.9976  7968.54  88.168
 43.0396  7792.57  86.9113
 43.0816  7855.18  87.6507
 43.1236  7774.3  87.242
 43.1656  7896.61  87.7569
 43.2076  7801.02  87.3247
 43.2496  7791.23  87.0972
 43.2916  7762.4  87.295
 43.3336  7790.6  87.2855
 43.3756  7815.87  87.1878
 43.4176  7759.49  86.9521
 43.4596  7632.58  86.0899
 43.5016  7739.22  87.0978
 43.5436  7640.26  86.4443
 43.5856  7682.31  86.7132
 43.6276  7739.62  86.9225
 43.6696  7745.58  87.2138
 43.7116  7741.2  86.6852
 43.7536  7785.35  87.4291
 43.7956  7631.91  87.7795
 43.8376  7553.7  85.8657
 43.8796  7514.01  85.7165
 43.9216  7623.9  86.2604
 43.9636  7593.15  86.1898
 44.0056  7675.74  86.8911
 44.0476  7525.73  85.672
 44.0896  7555.75  86.1852
 44.1316  7573.85  85.8117
 44.1736  7424.06  85.0768
 44.2156  7669.83  86.3274
 44.2576  7488.59  85.6285
 44.2996  7537.87  85.8858
 44.3416  7613.89  86.0727
 44.3836  7338.43  84.8257
 44.4256  7524.83  85.5395
 44.4676  7534.15  85.7489
 44.5096  7540.02  85.9283
 44.5516  7425.06  85.2385
 44.5936  7353.22  84.7743
 44.6356  7504.35  85.3811
 44.6776  7436.96  85.3096
 44.7196  7519.84  86.0909
 44.7616  7611.06  87.945
 44.8036  7584.63  86.4094
 44.8456  7663.72  86.8599
 44.8876  7671.47  86.7477
 44.9296  7731.94  86.5369
 44.9716  7662.27  86.5717
 45.0136  7648.3  86.4236
 45.0556  7677.64  86.6821
 45.0976  7644.5  86.5431
 45.1396  7556.48  85.7947
 45.1816  7505.25  85.4566
 45.2236  7647.42  86.1613
 45.2656  7531.26  86.0077
 45.3076  7498.77  85.5885
 45.3496  7519.88  86.0287
 45.3916  7647.34  87.0262
 45.4336  7570.87  86.4285
 45.4756  7568.31  86.2661
 45.5176  7631.2  86.2406
 45.5596  7630.95  86.3646
 45.6016  7496.61  86.0225
 45.6436  7543.32  85.4437
 45.6856  7452.11  85.5839
 45.7276  7438.42  86.8351
 45.7696  7393.11  86.2551
 45.8116  7527.07  86.4664
 45.8536  7396.48  85.595
 45.8956  7476.64  85.4159
 45.9376  7650.5  85.8611
 45.9796  7561.4  86.0475
 46.0216  7574.07  86.4629
 46.0636  7684.05  86.2156
 46.1056  7703.2  86.3149
 46.1476  7574.78  86.1892
 46.1896  7645.17  86.7372
 46.2316  7721.83  87.0355
 46.2736  7489.48  85.9324
 46.3156  7571.45  86.1499
 46.3576  7514.14  86.0242
 46.3996  7419.52  85.6394
 46.4416  7546.79  85.9167
 46.4836  7404.45  85.4794
 46.5256  7484.14  85.8808
 46.5676  7488.97  86.0273
 46.6096  7611.68  86.6454
 46.6516  7712.13  86.2549
 46.6936  7625.49  86.2726
 46.7356  7577.93  86.0928
 46.7776  7432.22  86.1261
 46.8196  7408.5  85.7269
 46.8616  7293.14  84.8624
 46.9036  7278.36  84.4356
 46.9456  7360.67  84.547
 46.9876  7488.02  85.3583
 47.0296  7406.77  85.5887
 47.0716  7267  84.5975
 47.1136  7440.16  85.2769
 47.1556  7456.83  85.244
 47.1976  7419.02  85.1767
 47.2396  7382.84  85.2996
 47.2816  7325.35  84.6633
 47.3236  7403.24  85.4838
 47.3656  7384.65  85.3061
 47.4076  7428.3  85.2844
 47.4496  7308.17  84.7664
 47.4916  7339.77  85.1388
 47.5336  7467.66  85.6884
 47.5756  7527.81  86.1552
 47.6176  7329.81  84.9107
 47.6596  7298.72  84.4428
 47.7016  7534.86  85.6077
 47.7436  7359.76  84.9486
 47.7856  7516.43  85.8616
 47.8276  7300.06  84.6796
 47.8696  7419.86  85.4497
 47.9116  7500.2  85.6264
 47.9536  7473.39  85.4143
 47.9956  7352.34  85.437
 48.0376  7269.23  84.7279
 48.0796  7481.85  86.0834
 48.1216  7403.28  85.4517
 48.1636  7494.96  85.5334
 48.2056  7387.29  85.1936
 48.2476  7565.06  86.5214
 48.2896  7441.29  85.7249
 48.3316  7353.58  85.1603
 48.3736  7297.1  84.8475
 48.4156  7398.49  85.2956
 48.4576  7327.62  85.1823
 48.4996  7451.06  85.343
 48.5416  7453.63  85.6778
 48.5836  7385.1  84.9653
 48.6256  7455.11  85.5659
 48.6676  7503.77  86.3798
 48.7096  7418.14  85.1362
 48.7516  7446.62  85.4562
 48.7936  7252.15  84.399
 48.8356  7307.14  84.7691
 48.8776  7311.21  85.3739
 48.9196  7512.63  85.8933
 48.9616  7239.86  84.7051
 49.0036  7364.24  85.7748
 49.0456  7381.15  85.8593
 49.0876  7374.59  85.3544
 49.1296  7293.91  85.0472
 49.1716  7293.31  84.9154
 49.2136  7352.51  85.1698
 49.2556  7417.66  85.5821
 49.2976  7387.57  85.4829
 49.3396  7325.97  85.1795
 49.3816  7428.85  85.1942
 49.4236  7432.57  85.6586
 49.4656  7250.62  84.6193
 49.5076  7307.02  84.6914
 49.5496  7333.35  84.9143
 49.5916  7272.95  84.4691
 49.6336  7323.8  84.9798
 49.6756  7300.52  85.0727
 49.7176  7313.31  85.0904
 49.7596  7302.47  84.7918
 49.8016  7327.68  84.8589
 49.8436  7214.93  84.5063
 49.8856  7218.07  84.5229
 49.9276  7159.34  84.2823
 49.9696  7363.68  85.4597
 50.0116  7246.08  84.9056
 50.0536  7311.99  85.2419
 50.0956  7227.61  84.8142
 50.1376  7296.78  84.9127
 50.1796  7268.02  85.0203
 50.2216  7267.72  85.0135
 50.2636  7102.69  83.6543
 50.3056  7195.52  84.3826
 50.3476  7281.88  84.91
 50.3896  7181.58  84.2937
 50.4316  7272.94  84.6531
 50.4736  7208.95  84.5004
 50.5156  7252.4  84.7527
 50.5576  7322.11  84.9087
 50.5996  7253.74  84.8031
 50.6416  7136.28  84.0302
 50.6836  7225.5  84.6264
 50.7256  7308.53  85.0334
 50.7676  7347.92  85.5783
 50.8096  7256.12  84.5631
 50.8516  7153.79  84.3991
 50.8936  7124.05  84.0063
 50.9356  7199.85  84.5594
 50.9776  7197.44  84.7092
 51.0196  7113.51  84.3425
 51.0616  7062.52  83.3587
 51.1036  7310.22  85.1754
 51.1456  7196.28  84.42
 51.1876  7118.26  83.2865
 51.2296  7017.21  83.3405
 51.2716  6958.7  82.6924
 51.3136  6964.24  83.1913
 51.3556  6977.99  82.8801
 51.3976  7050.44  83.4638
 51.4396  7012.78  83.5651
 51.4816  6918.22  82.8536
 51.5236  7116.61  84.119
 51.5656  7093.35  83.5718
 51.6076  7117.4  83.7984
 51.6496  6958.21  83.0472
 51.6916  7025.56  83.814
 51.7336  7006.11  83.7912
 51.7756  7023.29  83.5801
 51.8176  6975.92  83.413
 51.8596  6908.36  83.0221
 51.9016  7074.41  83.61
 51.9436  7081.76  85.178
 51.9856  7067.23  85.5004
 52.0276  7081.02  84.0433
 52.0696  7184.57  84.7242
 52.1116  6932.4  83.3511
 52.1536  7057.08  83.9225
 52.1956  7102.95  83.7058
 52.2376  7164.23  84.2331
 52.2796  7153.23  83.989
 52.3216  7033.56  83.9818
 52.3636  7060.82  83.684
 52.4056  7043.51  83.4514
 52.4476  6965.99  83.3642
 52.4896  6927.69  83.196
 52.5316  7052.57  83.9752
 52.5736  6871.9  82.6227
 52.6156  7069.38  84.2036
 52.6576  6940.8  82.863
 52.6996  6901.76  83.6265
 52.7416  6841.09  83.1188
 52.7836  6991.85  83.9148
 52.8256  6967.05  82.9609
 52.8676  6802.99  82.5552
 52.9096  7035.32  84.0335
 52.9516  6960.06  83.9859
 52.9936  6966.34  84.3971
 53.0356  7026.57  83.7384
 53.0776  6967.08  83.6595
 53.1196  6988.48  83.9141
 53.1616  7057.76  84.3743
 53.2036  6913.77  83.4765
 53.2456  6815.77  82.9849
 53.2876  6781.77  82.4701
 53.3296  6952.13  83.8268
 53.3716  7032.07  84.0547
 53.4136  7027.79  84.1829
 53.4556  7006.11  84.0892
 53.4976  6983.5  83.7849
 53.5396  6827.71  83.2543
 53.5816  6976.57  83.7715
 53.6236  6928.73  83.8517
 53.6656  6950.82  83.5711
 53.7076  6870.59  83.0493
 53.7496  6926.36  83.5268
 53.7916  6851.12  83.2076
 53.8336  6893.17  83.3506
 53.8756  6824.6  83.4884
 53.9176  6825.92  82.8348
 53.9596  6656  82.5747
 54.0016  6686.18  82.0741
 54.0436  6576.54  81.6323
 54.0856  6769.91  82.2303
 54.1276  6725.93  82.1565
 54.1696  6591.58  81.5063
 54.2116  6828.03  82.6901
 54.2536  6654.15  81.4289
 54.2956  6669.32  81.5817
 54.3376  6560.38  81.4059
 54.3796  6610.68  81.6162
 54.4216  6703.09  82.2446
 54.4636  6572.85  81.3993
 54.5056  6620.31  81.4939
 54.5476  6614.05  81.8115
 54.5896  6588.96  81.4917
 54.6316  6677.32  81.8704
 54.6736  6599.77  81.4759
 54.7156  6598.18  81.5003
 54.7576  6517.98  80.974
 54.7996  6654.7  81.9973
 54.8416  6627.32  81.8684
 54.8836  6564.82  81.5658
 54.9256  6524.76  81.0879
 54.9676  6497.67  80.7877
 55.0096  6570.09  81.2524
 55.0516  6456.81  80.7912
 55.0936  6580.99  81.2289
 55.1356  6441.69  80.4103
 55.1776  6596.77  81.6072
 55.2196  6543.83  81.0606
 55.2616  6662.11  82.0286
 55.3036  6465.58  80.9746
 55.3456  6421.71  80.8467
 55.3876  6437.48  80.6679
 55.4296  6407.64  80.4885
 55.4716  6525.41  81.2291
 55.5136  6468.85  80.6517
 55.5556  6643.87  81.7658
 55.5976  6541.64  81.2344
 55.6396  6451.89  80.5445
 55.6816  6416.79  80.2466
 55.7236  6361.89  79.9765
 55.7656  6560.29  80.9467
 55.8076  6384.87  79.8615
 55.8496  6595.16  81.5972
 55.8916  6392.29  80.4286
 55.9336  6587.59  81.4638
 55.9756  6465.01  80.5876
 56.0176  6351.16  80.025
 56.0596  6369.69  80.1318
 56.1016  6325.45  79.8668
 56.1436  6273.65  79.8017
 56.1856  6312.99  79.8025
 56.2276  6490.42  80.9631
 56.2696  6401.65  80.3852
 56.3116  6478.5  81.2357
 56.3536  6390.11  80.355
 56.3956  6401.79  80.4143
 56.4376  6378.8  80.3188
 56.4796  6272.98  79.4565
 56.5216  6327.11  80.176
 56.5636  6281.54  79.4572
 56.6056  6515.43  81.1524
 56.6476  6367.24  79.8393
 56.6896  6538.59  81.397
 56.7316  6267.75  79.5992
 56.7736  6443.22  80.7043
 56.8156  6321.04  79.9566
 56.8576  6188.94  79.06
 56.8996  6341.63  79.9205
 56.9416  6235.97  79.5811
 56.9836  6411.29  80.1948
 57.0256  6321.71  79.9463
 57.0676  6423.87  80.7032
 57.1096  6233.94  79.3033
 57.1516  6234.91  79.3537
 57.1936  6245.86  79.18
 57.2356  6193.49  79.1786
 57.2776  6178.77  79.0519
 57.3196  6308.83  80.2325
 57.3616  6171.58  78.8397
 57.4036  6308.4  79.7724
 57.4456  6347.95  80.0024
 57.4876  6234.7  79.1514
 57.5296  6255.65  79.6184
 57.5716  6250.22  79.5905
 57.6136  6093.7  78.4243
 57.6556  6325.12  80.0162
 57.6976  6318.76  79.8112
 57.7396  6140.3  79.0142
 57.7816  6188.86  79.721
 57.8236  6173.09  79.3893
 57.8656  6205.34  79.2644
 57.9076  6250.71  79.5746
 57.9496  6144.56  79.24
 57.9916  6261.59  79.5138
 58.0336  6132.26  78.969
 58.0756  6180.79  78.8993
 58.1176  6149.21  78.7142
 58.1596  6190.96  79.5687
 58.2016  6052.02  77.8963
 58.2436  6030.25  78.164
 58.2856  5881.83  77.1191
 58.3276  5956.38  77.972
 58.3696  5966.86  77.7959
 58.4116  5967.38  77.6667
 58.4536  6068.1  78.2051
 58.4956  5906.19  77.3258
 58.5376  6001.76  77.5291
 58.5796  5916.96  77.3934
 58.6216  6033.62  77.9782
 58.6636  6012.94  78.0523
 58.7056  5905.52  77.2112
 58.7476  5957.96  77.9869
 58.7896  5887.84  77.1815
 58.8316  5946.19  77.56
 58.8736  6011.71  77.9961
 58.9156  5987.74  77.8838
 58.9576  6068.14  78.7259
 58.9996  6033.16  77.7522
 59.0416  6061.34  78.2961
 59.0836  6052  78.1513
 59.1256  5782.96  77.0817
 59.1676  5815.57  77.6056
 59.2096  5992.91  78.0854
 59.2516  6220.42  79.1286
 59.2936  5873.82  77.2161
 59.3356  5873.43  77.0929
 59.3776  5812.7  76.8591
 59.4196  5924.81  77.532
 59.4616  5869.8  77.0345
 59.5036  5779  76.471
 59.5456  6003.41  77.6359
 59.5876  5905.66  77.1902
 59.6296  5826.92  76.7419
 59.6716  5887.45  77.1966
 59.7136  5956.42  77.6359
 59.7556  5895.3  77.3713
 59.7976  5784.62  76.3892
 59.8396  5956.39  77.4101
 59.8816  5975.27  78.0756
 59.9236  5840.54  76.8396
 59.9656  5844.44  77.121
 60.0076  6022.94  77.6487
 60.0496  5896.38  77.3262
 60.0916  5999.01  77.4166
 60.1336  5966.82  78.3092
 60.1756  5875.45  78.8754
 60.1996  0.0000000E+00  0.0000000E+00