File: docs/examples/XRD/IS17_D/Data/IS17_D/17_Da_f00003.xye
# /beamlines/bl04/projects/cycle2025-II/20250340211-lsimonelli/DATA/IS17_D/17_Da_f00003.xye : mythproc.py merge -s 0.006 -l 0.5 -f /beamlines/bl04/inhouse/ff/FlatField/ff_20Nov2024rod8mm60s_17keV.raw -b True -c true -o xye /beamlines/bl04/projects/cycle2025-II/20250340211-lsimonelli/DATA/IS17_D/17_Da_00003.dat
# IsMon = [6766078, 6764372, 6768728]  IsPos = [-1.5000, -2.4885, -3.4988]
# Wave = 0.4962  CalPath /beamlines/bl04/projects/cycle2025-II/20250340211-lsimonelli/DATA/Align/Si_Pos1_25keV_f00001.cal
# Date = 2025-09-23_18:24:14 Dt = 4.8000  Bin = 0.0060  <imon> = 6766393 +/- 1792 (Min/Max) 6764372 / 6768728
# icurr 251.4779  mocoIn 1.7155E-05  mocoOut 0.8049  i15 7.07217e+06  imon 6.76639e+06  i7 5.0000  iEMpd_timer 4.8000  iEMpd_1 3.5351E-08  iEMpd_2 7.8333E-08  iEMpd_3 1.6157E-08  iEMpd_4 4.6719E-08  iEMhp_timer 4.8000  iEMhp_1 4.9142E-06  iEMhp_2 -2.5048E-08  iEMhp_3 -2.2456E-08  iEMhp_4 -2.1008E-08
#      9776
 1.5856  40309  206.165
 1.6276  47106.5  219.047
 1.6696  54702.4  235.215
 1.7116  63316.2  253.553
 1.7536  72809.8  270.739
 1.7956  77246.3  279.563
 1.8376  73704.1  273.51
 1.8796  61547.9  248.094
 1.9216  49639.2  223.698
 1.9636  42276.7  206.116
 2.0056  37410.9  192.654
 2.0476  34796  187.836
 2.0896  33937.3  184.416
 2.1316  32413.9  179.363
 2.1736  31038.8  176.909
 2.2156  31182.2  175.895
 2.2576  30091.4  173.409
 2.2996  28977.4  170.794
 2.3416  29437.9  170.771
 2.3836  28928.3  169.392
 2.4256  27986.4  167.154
 2.4676  27434.1  165.262
 2.5096  27262.5  164.798
 2.5516  26660.9  166.766
 2.5936  26535.1  163.003
 2.6356  26115.3  162.388
 2.6776  25864.4  160.501
 2.7196  25591.7  160.174
 2.7616  25740.1  160.418
 2.8036  25079.3  158.516
 2.8456  25099.8  159.184
 2.8876  24660.3  157.642
 2.9296  24365.3  156.845
 2.9716  24215.7  155.857
 3.0136  23713.2  154.299
 3.0556  24101.5  155.951
 3.0976  23704.3  153.599
 3.1396  23547.8  153.805
 3.1816  23302.2  152.94
 3.2236  23165.3  152.491
 3.2656  23173.6  151.571
 3.3076  23088.6  152.725
 3.3496  23231  152.388
 3.3916  23462.2  152.73
 3.4336  24132.3  155.469
 3.4756  24581.5  156.829
 3.5176  25425.2  159.304
 3.5596  25034.1  161.018
 3.6016  25345.1  159.092
 3.6436  24387.3  157.15
 3.6856  24144.5  154.67
 3.7276  23050  152.21
 3.7696  22917.7  151.748
 3.8116  22546.6  150.605
 3.8536  22621.3  150.788
 3.8956  22483.9  150.161
 3.9376  22379.9  150.064
 3.9796  22491.7  149.948
 4.0216  22583.6  149.301
 4.0636  22502.5  150.493
 4.1056  22419.4  149.864
 4.1476  22621.7  150.847
 4.1896  22848.6  151.462
 4.2316  23054.2  151.967
 4.2736  23511.6  153.258
 4.3156  23593.4  153.745
 4.3576  24336.3  156.082
 4.3996  24841.7  157.948
 4.4416  25025  158.122
 4.4836  25715.7  160.443
 4.5256  26115.5  162.289
 4.5676  26280.6  163.056
 4.6096  26696.6  163.361
 4.6516  26939  163.454
 4.6936  27163.9  164.936
 4.7356  27385.3  165.445
 4.7776  27368.8  165.226
 4.8196  26979.4  164.689
 4.8616  26602.2  163.152
 4.9036  26288.3  161.805
 4.9456  26020.8  161.622
 4.9876  25425  159.664
 5.0296  25761.9  160.54
 5.0716  25780.1  161.223
 5.1136  25834.8  161.247
 5.1556  26310.9  162.191
 5.1976  26355.5  162.324
 5.2396  26662.2  162.965
 5.2816  26526.1  163.005
 5.3236  26581  162.883
 5.3656  26084.2  162.261
 5.4076  25926.9  161.922
 5.4496  26116.1  161.999
 5.4916  26029.4  161.493
 5.5336  26140.1  161.842
 5.5756  25837  160.929
 5.6176  26051.2  161.04
 5.6596  26370.4  162.84
 5.7016  26305.1  162.058
 5.7436  26518.5  162.986
 5.7856  26177.6  161.995
 5.8276  26796.9  163.624
 5.8696  26862.9  163.882
 5.9116  26645.2  163.923
 5.9536  27133.3  165.17
 5.9956  27499.9  165.653
 6.0376  27243.3  165.508
 6.0796  27576.9  166.352
 6.1216  27620.8  166.685
 6.1636  27945  166.733
 6.2056  27892.3  167.233
 6.2476  28129.4  167.635
 6.2896  28346.9  168.147
 6.3316  28234.2  167.983
 6.3736  28504.1  168.682
 6.4156  28462.7  168.508
 6.4576  28718.7  168.819
 6.4996  28821  169.599
 6.5416  28785.9  169.628
 6.5836  28960.4  170.371
 6.6256  28829.1  169.552
 6.6676  29457.9  170.962
 6.7096  29350.1  171.491
 6.7516  29742.6  172.294
 6.7936  30061.3  172.639
 6.8356  30024.9  172.62
 6.8776  30626.9  175.141
 6.9196  30501  175.18
 6.9616  30840.6  175.57
 7.0036  31244.8  176.397
 7.0456  31485.9  176.378
 7.0876  31436.8  177.838
 7.1296  31521.8  177.304
 7.1716  31172.3  175.854
 7.2136  30784.5  174.546
 7.2556  31300.1  176.162
 7.2976  31235.6  176.475
 7.3396  31141.9  176.427
 7.3816  30959.3  176.113
 7.4236  31395.2  176.647
 7.4656  31679.1  176.93
 7.5076  31846.1  177.53
 7.5496  31810.4  177.961
 7.5916  31532.3  177.216
 7.6336  32099.3  178.699
 7.6756  32330.1  179.194
 7.7176  32377.5  179.635
 7.7596  32445.6  181.053
 7.8016  32760.7  184.087
 7.8436  32918.9  181.256
 7.8856  33735  183.104
 7.9276  34255.4  184.893
 7.9696  34508.1  185.893
 8.0116  35224.5  186.354
 8.0536  35356.5  186.962
 8.0956  34981.1  187.132
 8.1376  35803  188.788
 8.1796  35999.5  189.857
 8.2216  36613.3  190.198
 8.2636  36616.7  190.455
 8.3056  36796.5  191.684
 8.3476  37470.9  192.77
 8.3896  37012.9  191.668
 8.4316  37143.3  192.17
 8.4736  37237.1  191.877
 8.5156  37044.1  191.656
 8.5576  36882.2  192.221
 8.5996  36847.7  190.994
 8.6416  36554.6  191.494
 8.6836  36530.1  191.24
 8.7256  36936.2  191.767
 8.7676  36111.6  192.459
 8.8096  36260.5  190.189
 8.8516  35985.9  189.141
 8.8936  35516.6  187.734
 8.9356  35200.2  187.242
 8.9776  35862.5  189.091
 9.0196  35471.7  187.742
 9.0616  35548  187.41
 9.1036  35173.1  187.6
 9.1456  35214.1  187.065
 9.1876  34971  186.373
 9.2296  35232.8  186.471
 9.2716  34362.6  184.225
 9.3136  34656.7  184.984
 9.3556  34899.7  185.622
 9.3976  33332.6  181.932
 9.4396  33893.3  183.345
 9.4816  33431.7  181.963
 9.5236  33661.3  182.494
 9.5656  33129  181.366
 9.6076  33020.4  181.583
 9.6496  32987.8  181.424
 9.6916  32779.5  180.819
 9.7336  32891.8  180.914
 9.7756  32781.7  181.819
 9.8176  32197.4  179.751
 9.8596  31922.7  177.461
 9.9016  31631.2  176.643
 9.9436  31430.9  175.838
 9.9856  31049  175.144
 10.0276  30549.2  174.806
 10.0696  31079.1  175.374
 10.1116  30239.1  173.247
 10.1536  29708.7  171.396
 10.1956  29536.8  170.997
 10.2376  29003.4  168.955
 10.2796  29486.2  170.484
 10.3216  29329.4  170.161
 10.3636  28658.4  168.362
 10.4056  28485  168.252
 10.4476  28538.2  168.036
 10.4896  28418.9  167.151
 10.5316  27706.5  165.399
 10.5736  27624.4  165.885
 10.6156  27383.4  164.924
 10.6576  27246.2  163.123
 10.6996  27196.3  163.613
 10.7416  26750.3  162.514
 10.7836  26995.4  163.921
 10.8256  26351.3  162.365
 10.8676  26736.7  163.099
 10.9096  26208.4  161.51
 10.9516  26102.1  160.142
 10.9936  25949.7  159.853
 11.0356  25985.3  160.595
 11.0776  25987.4  159.927
 11.1196  25412.6  158.876
 11.1616  25266.4  158.119
 11.2036  25274.7  157.994
 11.2456  25328.9  158.863
 11.2876  25124.6  157.953
 11.3296  24839.9  156.96
 11.3716  25356.2  158.308
 11.4136  25229.2  158.761
 11.4556  25273.7  158.57
 11.4976  25487.5  158.238
 11.5396  25931.2  159.782
 11.5816  26337.1  161.466
 11.6236  26406.9  162.135
 11.6656  25974.1  159.739
 11.7076  25123.2  157.928
 11.7496  24763.9  160.679
 11.7916  24867.1  156.392
 11.8336  24411.6  155.853
 11.8756  24255.4  154.865
 11.9176  24266  154.579
 11.9596  23853.4  153.427
 12.0016  23809.8  154.065
 12.0436  23753.5  153.316
 12.0856  23419.4  152.751
 12.1276  23771.9  153.81
 12.1696  23597.8  152.398
 12.2116  23844.1  153.182
 12.2536  23291.9  152.186
 12.2956  23570.8  152.47
 12.3376  23337.1  151.92
 12.3796  23576.7  153.141
 12.4216  23479.7  152.061
 12.4636  23156.2  151.906
 12.5056  23434.1  152.094
 12.5476  23471.5  151.758
 12.5896  23410.4  152.177
 12.6316  23237.2  151.777
 12.6736  23162  152.003
 12.7156  23203.2  152
 12.7576  23349.5  152.723
 12.7996  23412.6  151.592
 12.8416  23332.8  152.373
 12.8836  23725.8  153.481
 12.9256  23920.2  153.134
 12.9676  23919.1  153.548
 13.0096  23589  153.561
 13.0516  23876.9  153.548
 13.0936  23955.5  153.925
 13.1356  24363  154.494
 13.1776  24028.1  154.399
 13.2196  24090.8  154.273
 13.2616  24149.7  154.766
 13.3036  24040.9  154.55
 13.3456  24068.2  154.62
 13.3876  24115.1  154.277
 13.4296  23983.7  154.005
 13.4716  24206.4  154.326
 13.5136  24157  154.325
 13.5556  23991.7  154.405
 13.5976  24255.4  155.394
 13.6396  24360.5  155.099
 13.6816  23722.6  153.419
 13.7236  24549.8  155.835
 13.7656  23874.9  154.213
 13.8076  24074.8  153.653
 13.8496  23734.5  153.335
 13.8916  23659.7  153.895
 13.9336  23645.6  153.092
 13.9756  23493.7  151.968
 14.0176  23498.1  152.652
 14.0596  23583.7  152.89
 14.1016  23442.1  152.827
 14.1436  22983  150.46
 14.1856  22636.5  149.617
 14.2276  22422.9  149.385
 14.2696  22617.5  149.874
 14.3116  22461.7  149.256
 14.3536  21961  147.762
 14.3956  22142.9  148.112
 14.4376  22144.6  147.893
 14.4796  22218.3  148.126
 14.5216  21746.2  147.336
 14.5636  21496.7  146.059
 14.6056  21867.7  146.888
 14.6476  21479.2  144.824
 14.6896  21290.6  144.722
 14.7316  20821.9  144.124
 14.7736  20961.9  143.78
 14.8156  20735.8  143.027
 14.8576  20518.1  142.13
 14.8996  20262.1  142.433
 14.9416  19884.9  141.094
 14.9836  19835.6  140.872
 15.0256  19526  138.73
 15.0676  19680  139.589
 15.1096  19804.6  139.768
 15.1516  19231.1  138.286
 15.1936  19141  137.391
 15.2356  19130.2  137.628
 15.2776  19049.7  136.925
 15.3196  18593.8  136.267
 15.3616  18492.7  135.648
 15.4036  18500.5  135.544
 15.4456  18653.8  135.76
 15.4876  18224.6  133.87
 15.5296  18257.3  134.28
 15.5716  18188.5  133.629
 15.6136  17867.2  132.769
 15.6556  17914.9  132.191
 15.6976  17725.1  131.562
 15.7396  17694.8  132.043
 15.7816  17624.2  131.297
 15.8236  17451.5  131.343
 15.8656  17414.6  131.001
 15.9076  17129.3  129.751
 15.9496  17044.4  132.169
 15.9916  16971  132.324
 16.0336  16721.4  128.291
 16.0756  16886.3  129.223
 16.1176  16951.2  129.381
 16.1596  16381.5  128.498
 16.2016  16597.2  128.109
 16.2436  16327.2  127.442
 16.2856  16454.4  127.486
 16.3276  16006.5  126.143
 16.3696  16270.4  127.003
 16.4116  16018.2  126.47
 16.4536  16341.9  127.525
 16.4956  15943.4  125.707
 16.5376  16019.2  126.187
 16.5796  16169.1  126.143
 16.6216  16068.7  126.05
 16.6636  16014.5  125.985
 16.7056  15887  125.357
 16.7476  15837.3  124.7
 16.7896  15933.5  125.814
 16.8316  15951.9  125.85
 16.8736  15935.5  126.044
 16.9156  15816  125.899
 16.9576  15663.7  126.095
 16.9996  15754.7  126.937
 17.0416  15877.4  125.816
 17.0836  15788.3  125.214
 17.1256  15560.4  124.323
 17.1676  15649.5  124.667
 17.2096  15406  123.577
 17.2516  15376.2  123.533
 17.2936  15364  123.511
 17.3356  15083.6  122.382
 17.3776  15036.6  122.381
 17.4196  15154.7  122.562
 17.4616  15060.5  122.1
 17.5036  14830.7  121.523
 17.5456  14648  121.402
 17.5876  14481.4  119.777
 17.6296  14656.4  120.303
 17.6716  14423  119.914
 17.7136  14250.3  119.334
 17.7556  14325.5  119.935
 17.7976  14245.4  119.22
 17.8396  14116.9  118.322
 17.8816  14271.3  119.508
 17.9236  14098.6  118.591
 17.9656  14065.4  119.125
 18.0076  14146.1  118.891
 18.0496  14197.5  118.263
 18.0916  14083.5  118.306
 18.1336  14077.7  118.386
 18.1756  14345.5  119.048
 18.2176  14053.1  118.049
 18.2596  13944.3  117.332
 18.3016  14060.4  118.062
 18.3436  14062.5  118.309
 18.3856  13771.1  116.976
 18.4276  13992.9  117.601
 18.4696  13748.6  116.655
 18.5116  13842.7  117.343
 18.5536  13915.2  117.996
 18.5956  13672  116.523
 18.6376  13650.8  116.835
 18.6796  13471.4  115.41
 18.7216  13778.8  117.263
 18.7636  13432.6  115.7
 18.8056  13603.6  116.375
 18.8476  13586.4  116.909
 18.8896  13596.6  116.309
 18.9316  13808.9  117.036
 18.9736  13603.8  116.023
 19.0156  13559.3  116.232
 19.0576  13485  114.807
 19.0996  13609.7  116.035
 19.1416  13322.3  115.182
 19.1836  13442.5  115.31
 19.2256  13441.4  115.513
 19.2676  13458.4  115.684
 19.3096  13521.8  116.193
 19.3516  13386.2  115.396
 19.3936  13456.6  115.779
 19.4356  13484.6  115.766
 19.4776  13450.4  115.714
 19.5196  13534.6  115.931
 19.5616  13422.2  115.694
 19.6036  13447.5  115.313
 19.6456  13591.3  116.044
 19.6876  13659  115.99
 19.7296  13377.2  115.23
 19.7716  13356.2  115.158
 19.8136  13517.7  116.198
 19.8556  13650.5  116.256
 19.8976  13690.2  116.49
 19.9396  13809.8  116.581
 19.9816  13812.7  116.83
 20.0236  14086.6  118.2
 20.0656  14347  119.28
 20.1076  14301.3  119.551
 20.1496  14434.7  120.12
 20.1916  14316.3  119.095
 20.2336  14080.4  118.08
 20.2756  13852  117.553
 20.3176  13655.5  116.464
 20.3596  13613.1  116.258
 20.4016  13397.4  115.14
 20.4436  13358.6  115.525
 20.4856  13193.5  114.602
 20.5276  13189.1  115.033
 20.5696  13048  113.991
 20.6116  13003.5  113.967
 20.6536  13189.9  114.349
 20.6956  12855.4  112.954
 20.7376  13011.4  113.867
 20.7796  12853.2  112.864
 20.8216  13231.3  114.223
 20.8636  12815.9  112.774
 20.9056  12807.1  112.683
 20.9476  12773.2  112.382
 20.9896  13035.3  113.395
 21.0316  12996.2  113.125
 21.0736  12803.7  112.797
 21.1156  12782.9  112.863
 21.1576  12836.3  113.143
 21.1996  12753  112.753
 21.2416  12576.7  111.811
 21.2836  12747.5  112.527
 21.3256  12598.1  111.948
 21.3676  12857.8  112.651
 21.4096  12662.1  112.152
 21.4516  12496.7  111.241
 21.4936  12464.6  111.35
 21.5356  12661  112.164
 21.5776  12695.9  112.155
 21.6196  12546.2  111.531
 21.6616  12434.3  111.116
 21.7036  12514  111.251
 21.7456  12541.7  111.451
 21.7876  12472.6  110.902
 21.8296  12418.6  110.517
 21.8716  12317.8  110.299
 21.9136  12644.7  111.947
 21.9556  12407.7  110.567
 21.9976  12254.4  109.886
 22.0396  12299.6  110.355
 22.0816  12376.8  111.229
 22.1236  12504.8  111.269
 22.1656  12375.6  110.859
 22.2076  12499.7  110.849
 22.2496  12389.7  110.39
 22.2916  12526.6  110.879
 22.3336  12290.3  110.521
 22.3756  12517.6  111.28
 22.4176  12264.9  110.009
 22.4596  12276.2  110.633
 22.5016  12383.2  110.609
 22.5436  12428.8  110.697
 22.5856  12306.7  110.403
 22.6276  12305.3  110.536
 22.6696  12390.1  111.251
 22.7116  12240.9  110.115
 22.7536  12349.5  110.573
 22.7956  12239.5  109.422
 22.8376  12309.1  110.244
 22.8796  12381.4  110.369
 22.9216  12438.8  111.164
 22.9636  12464.5  110.444
 23.0056  12488.2  110.679
 23.0476  12352  110.643
 23.0896  12656.2  111.374
 23.1316  12507.8  111.153
 23.1736  12268.6  113.004
 23.2156  12424.5  111.097
 23.2576  12464.1  111.409
 23.2996  12444.1  111.101
 23.3416  12315.1  111.031
 23.3836  12368.4  110.51
 23.4256  12456.1  111.026
 23.4676  12358.5  110.288
 23.5096  12457.8  111.404
 23.5516  12114.7  109.154
 23.5936  12307.5  110.899
 23.6356  12500.5  111.442
 23.6776  12382.5  111.131
 23.7196  12172.5  109.979
 23.7616  12505  111.168
 23.8036  12375.6  110.636
 23.8456  12329.8  110.002
 23.8876  12023.5  108.978
 23.9296  11937.3  109.072
 23.9716  12050  108.789
 24.0136  12160.9  110.178
 24.0556  11910.6  108.777
 24.0976  11859.4  108.35
 24.1396  11851.2  110.943
 24.1816  12030.3  110.538
 24.2236  11770.3  108.63
 24.2656  11756.2  108.045
 24.3076  11587.3  107.517
 24.3496  11916.3  108.922
 24.3916  11686.3  107.906
 24.4336  11588.9  107.666
 24.4756  11596.8  107.579
 24.5176  11264.8  105.68
 24.5596  11460.4  106.91
 24.6016  11268.1  106.101
 24.6436  11531.9  106.83
 24.6856  11447.9  106.206
 24.7276  11383.8  106.223
 24.7696  11295  105.914
 24.8116  11302.2  106.131
 24.8536  11276.1  106.002
 24.8956  11078.7  104.814
 24.9376  10934.2  104.298
 24.9796  11034.4  104.892
 25.0216  10851.5  104.125
 25.0636  11073.6  104.84
 25.1056  11004.7  104.94
 25.1476  11076  107.216
 25.1896  11038.3  105.511
 25.2316  11157.2  105.341
 25.2736  11015.3  104.338
 25.3156  10974.5  104.213
 25.3576  10818.3  103.881
 25.3996  10896.8  104.244
 25.4416  10932.4  104.394
 25.4836  10642.9  103.513
 25.5256  10798.6  103.644
 25.5676  10953.3  104.122
 25.6096  10647  103.215
 25.6516  10857.9  103.734
 25.6936  10796.3  103.75
 25.7356  10677.4  103.311
 25.7776  10912.4  104.117
 25.8196  10584.6  102.704
 25.8616  10740  103.376
 25.9036  10639.6  102.374
 25.9456  10659.7  103.059
 25.9876  10528.6  102.349
 26.0296  10775  103.28
 26.0716  10507.7  102.312
 26.1136  10608.6  102.752
 26.1556  10697  102.563
 26.1976  10614.2  103.084
 26.2396  10636.7  102.606
 26.2816  10624.3  102.904
 26.3236  10718.3  103.516
 26.3656  10565.2  102.502
 26.4076  10656.9  103.143
 26.4496  11054.4  104.556
 26.4916  10755.3  103.13
 26.5336  10646.1  102.923
 26.5756  10960.3  104.291
 26.6176  10569.2  102.461
 26.6596  10463.1  102.251
 26.7016  10492.4  102.159
 26.7436  10370.4  101.685
 26.7856  10395.7  101.794
 26.8276  10352.2  101.533
 26.8696  10413.8  101.714
 26.9116  10253.2  100.873
 26.9536  10229.2  100.799
 26.9956  10356.7  101.457
 27.0376  10256.2  101.171
 27.0796  10316.6  101.275
 27.1216  10177.4  100.597
 27.1636  10098.2  100.367
 27.2056  10205.5  100.784
 27.2476  10056.3  100.046
 27.2896  10171.6  100.724
 27.3316  10184.8  100.501
 27.3736  10074.3  100.223
 27.4156  10006.2  99.7226
 27.4576  10114.4  100.496
 27.4996  9991.59  99.4795
 27.5416  10092.1  100.297
 27.5836  10039.8  99.8531
 27.6256  10314.2  101.382
 27.6676  10152  100.599
 27.7096  9989.11  99.6579
 27.7516  9970.97  99.711
 27.7936  9916.07  99.6057
 27.8356  9989.81  99.6036
 27.8776  9828.95  98.8368
 27.9196  9896.79  99.0286
 27.9616  9885.68  99.1596
 28.0036  9769.78  98.5519
 28.0456  9959.14  99.6307
 28.0876  9704.94  98.4473
 28.1296  9833.3  98.9384
 28.1716  9763.62  98.5966
 28.2136  9723.16  98.3543
 28.2556  9748.44  98.601
 28.2976  9736.02  98.52
 28.3396  9808.5  98.686
 28.3816  9788.71  98.5726
 28.4236  9705.17  98.3042
 28.4656  9507.71  97.3355
 28.5076  9594.25  97.4201
 28.5496  9598.59  97.699
 28.5916  9712.6  98.0884
 28.6336  9608.62  97.8994
 28.6756  9668.62  97.4157
 28.7176  9580.63  97.5088
 28.7596  9479.96  96.8938
 28.8016  9691.75  98.0107
 28.8436  9522.02  97.3782
 28.8856  9621.57  97.7437
 28.9276  9503.73  97.3754
 28.9696  9533.67  97.1993
 29.0116  9527.6  97.3438
 29.0536  9396.82  96.8752
 29.0956  9544.1  97.3573
 29.1376  9467.67  96.9298
 29.1796  9369.12  96.4708
 29.2216  9490.1  96.9291
 29.2636  9466.96  96.8008
 29.3056  9425.49  96.4694
 29.3476  9534.74  97.5451
 29.3896  9506.27  97.4897
 29.4316  9613.22  97.3861
 29.4736  9387.16  96.2897
 29.5156  9470.11  96.6396
 29.5576  9497.79  97.5229
 29.5996  9587.77  97.2379
 29.6416  9378.83  96.2931
 29.6836  9453.91  96.6005
 29.7256  9432.79  97.0537
 29.7676  9377.59  96.4321
 29.8096  9476.91  96.8901
 29.8516  9297.91  96.2851
 29.8936  9312.55  96.4665
 29.9356  9454  96.9529
 29.9776  9357.74  96.6103
 30.0196  9336.06  95.8965
 30.0616  9313.33  96.1451
 30.1036  9404.66  96.447
 30.1456  9389.59  96.5916
 30.1876  9248.34  95.8496
 30.2296  9226.71  95.6791
 30.2716  9350.88  95.9639
 30.3136  9304.09  96.5706
 30.3556  9225.57  96.1764
 30.3976  9233.67  97.7246
 30.4396  9215.65  95.0026
 30.4816  9372.6  95.3996
 30.5236  9169.58  94.3899
 30.5656  9221.98  95.2955
 30.6076  9244.8  95.1925
 30.6496  9246.57  95.2402
 30.6916  9305.3  95.6323
 30.7336  9193.66  95.2098
 30.7756  9103.68  94.8325
 30.8176  9157.6  95.0302
 30.8596  9140.08  94.7139
 30.9016  9173.99  94.7644
 30.9436  9249.82  95.3717
 30.9856  9395.74  96.2283
 31.0276  9239.89  95.0375
 31.0696  9035.4  94.5472
 31.1116  8970.49  94.1852
 31.1536  9152.1  95.0173
 31.1956  8987.47  94.2453
 31.2376  9014.96  94.3969
 31.2796  8966.53  93.6921
 31.3216  9082.07  94.2263
 31.3636  9040.32  94.7117
 31.4056  9058.45  96.1037
 31.4476  9069.17  94.0821
 31.4896  8931.24  93.856
 31.5316  8919.61  93.247
 31.5736  9017.75  93.5311
 31.6156  9051.42  93.7351
 31.6576  8951.37  93.3136
 31.6996  9055.85  93.5307
 31.7416  8759.48  92.8862
 31.7836  9056.74  93.6122
 31.8256  8826.54  92.755
 31.8676  9097.41  94.088
 31.9096  8894.68  93.2496
 31.9516  8856.67  93.3382
 31.9936  8863.46  93.2036
 32.0356  8946.53  93.7041
 32.0776  9015.29  93.9509
 32.1196  8890.86  93.3058
 32.1616  8977.82  93.3101
 32.2036  8854.17  93.1649
 32.2456  8829.96  93.4157
 32.2876  8787.26  92.53
 32.3296  8832.15  92.8973
 32.3716  8711.27  92.3564
 32.4136  8857.81  93.3364
 32.4556  8900.21  92.9991
 32.4976  8842.41  92.5922
 32.5396  8632.51  91.5207
 32.5816  8802.37  92.5312
 32.6236  8832.42  92.7634
 32.6656  8957.81  93.9552
 32.7076  8836.04  92.9716
 32.7496  8681.15  91.8346
 32.7916  8912.64  93.0042
 32.8336  8791.7  92.4676
 32.8756  8894.03  92.7224
 32.9176  8602.42  91.6598
 32.9596  8686.65  92.1824
 33.0016  8625.77  91.6611
 33.0436  8776.86  92.6317
 33.0856  8737.42  92.4916
 33.1276  8575.07  91.3676
 33.1696  8662.74  91.6825
 33.2116  8706.25  92.1365
 33.2536  8683.97  92.0144
 33.2956  8682.24  92.0885
 33.3376  8728.19  92.1463
 33.3796  8702.64  92.1423
 33.4216  8781.66  92.1587
 33.4636  8735.22  92.0607
 33.5056  8654.73  91.8707
 33.5476  8600.99  91.5785
 33.5896  8813.4  92.452
 33.6316  8603.88  91.6888
 33.6736  8576.18  91.7826
 33.7156  8496.68  91.3929
 33.7576  8756.31  92.4131
 33.7996  8668.42  91.7157
 33.8416  8507.91  91.046
 33.8836  8624.5  91.4424
 33.9256  8589.81  91.3191
 33.9676  8613.97  91.3436
 34.0096  8393.98  90.4789
 34.0516  8553.06  90.9771
 34.0936  8487.76  90.8903
 34.1356  8584.14  91.1444
 34.1776  8408.62  90.2213
 34.2196  8374.95  90.2153
 34.2616  8376.17  90.3577
 34.3036  8405.91  90.7599
 34.3456  8453.56  90.7767
 34.3876  8499.24  91.0741
 34.4296  8500.74  90.6823
 34.4716  8478.14  90.7093
 34.5136  8428.56  90.6533
 34.5556  8395.2  90.719
 34.5976  8501.88  91.1311
 34.6396  8385.44  90.1899
 34.6816  8401.61  90.3862
 34.7236  8450.49  90.4386
 34.7656  8429.89  90.5117
 34.8076  8280.62  90.0336
 34.8496  8348.28  90.257
 34.8916  8398.11  90.3993
 34.9336  8503.81  90.937
 34.9756  8684.59  91.8153
 35.0176  8478.02  91.2465
 35.0596  8270.82  89.9477
 35.1016  8403.2  90.4377
 35.1436  8409.15  90.1537
 35.1856  8249.45  89.4182
 35.2276  8375.62  90.2746
 35.2696  8320.17  90.1665
 35.3116  8405.42  90.7179
 35.3536  8184.24  89.2681
 35.3956  8356.3  89.8761
 35.4376  8260.48  89.912
 35.4796  8430.66  90.8891
 35.5216  8269.67  89.9706
 35.5636  8101.22  89.7878
 35.6056  8355.41  90.2067
 35.6476  8354.49  90.0952
 35.6896  8310.54  90.0259
 35.7316  8246.44  89.5719
 35.7736  8208.21  89.5652
 35.8156  8190.05  89.4586
 35.8576  8170.95  89.6048
 35.8996  8404.31  90.8405
 35.9416  8269.26  89.6259
 35.9836  8152.27  89.4279
 36.0256  8327.08  90.295
 36.0676  8211.78  89.2155
 36.1096  8222.35  89.6277
 36.1516  8267.71  89.7613
 36.1936  8251.27  89.5254
 36.2356  8070.03  89.1645
 36.2776  8070.86  88.6478
 36.3196  8211.48  89.1019
 36.3616  8139.75  88.844
 36.4036  8105.99  88.7113
 36.4456  8119.58  88.9943
 36.4876  8109.31  88.882
 36.5296  8197.18  89.397
 36.5716  8167.42  90.0128
 36.6136  8301.54  89.5228
 36.6556  8228.49  89.3236
 36.6976  8136.46  89.3198
 36.7396  8195.05  89.375
 36.7816  8052.24  88.9594
 36.8236  8072.26  89.0004
 36.8656  8124.7  89.3505
 36.9076  8039.79  88.8938
 36.9496  8044.96  88.7746
 36.9916  8049.12  88.4366
 37.0336  8211.03  89.6347
 37.0756  8167.8  89.197
 37.1176  7881.09  87.8805
 37.1596  7940.15  88.2156
 37.2016  8014.48  88.8077
 37.2436  7994.04  88.0633
 37.2856  8013.25  88.4248
 37.3276  8167.6  88.6173
 37.3696  8006.4  88.6249
 37.4116  8117.39  89.1305
 37.4536  7982.19  88.2609
 37.4956  7945.18  88.0908
 37.5376  8022.5  90.0756
 37.5796  8000.44  89.9018
 37.6216  7775.3  86.9139
 37.6636  7925.48  87.6639
 37.7056  7926.19  87.8491
 37.7476  7958.28  87.5707
 37.7896  7929.88  87.9004
 37.8316  7852.09  87.6503
 37.8736  7881.57  87.3426
 37.9156  7892.52  87.4056
 37.9576  7819.67  86.8927
 37.9996  7811.92  86.5637
 38.0416  7890.23  87.8105
 38.0836  7934.58  87.9583
 38.1256  7832.68  87.3545
 38.1676  7663.23  86.5368
 38.2096  7776.74  86.8069
 38.2516  7921.92  87.8069
 38.2936  7840.18  87.1458
 38.3356  7905.45  87.4351
 38.3776  7711  86.6247
 38.4196  7928  87.6878
 38.4616  7597.18  86.0652
 38.5036  7936.49  87.8137
 38.5456  7734.13  87.5196
 38.5876  7833.26  88.1167
 38.6296  7757.85  86.678
 38.6716  7805.94  86.7399
 38.7136  7683.74  86.0067
 38.7556  7710.46  86.6519
 38.7976  7736.82  86.7408
 38.8396  7560.51  86.187
 38.8816  7629.25  86.3612
 38.9236  7582.44  85.9116
 38.9656  7766.33  86.8615
 39.0076  7684.19  85.8194
 39.0496  7822.27  87.1127
 39.0916  7789.99  86.5776
 39.1336  7775.31  86.9212
 39.1756  7625.18  86.1431
 39.2176  7688.99  87.0299
 39.2596  7643.99  86.695
 39.3016  7643.53  86.2706
 39.3436  7695.1  86.9824
 39.3856  7775.54  86.8876
 39.4276  7697.14  86.9339
 39.4696  7722.43  86.7116
 39.5116  7662.31  86.8693
 39.5536  7769.81  87.9023
 39.5956  7853.75  87.4825
 39.6376  7829.5  87.3457
 39.6796  7751.7  86.6641
 39.7216  7786.63  86.9416
 39.7636  7804.1  87.6134
 39.8056  7829.69  87.5292
 39.8476  7696.47  87.0334
 39.8896  7777.75  87.1288
 39.9316  7755.78  87.2551
 39.9736  7831.91  87.2624
 40.0156  7727.95  86.4907
 40.0576  7694.29  86.6712
 40.0996  7855.41  86.7598
 40.1416  7812.71  87.307
 40.1836  7829.37  87.2932
 40.2256  7792.85  87.1349
 40.2676  7720.07  86.8958
 40.3096  7782.87  87.1116
 40.3516  7846.13  87.5779
 40.3936  7848.77  87.1494
 40.4356  7774.15  86.9313
 40.4776  7752.26  87.0474
 40.5196  7929.87  88.3314
 40.5616  7841.3  87.4762
 40.6036  7719.73  87.0473
 40.6456  7840.93  87.3403
 40.6876  7863.23  87.4484
 40.7296  7915.6  87.8811
 40.7716  7880.28  87.8145
 40.8136  7780.6  87.2016
 40.8556  7850.2  87.7207
 40.8976  7865.39  87.7291
 40.9396  7686.73  87.0681
 40.9816  7943.04  87.7967
 41.0236  7895.19  87.3079
 41.0656  7863.1  87.6684
 41.1076  7849.05  87.3659
 41.1496  7859.71  87.3354
 41.1916  7759.26  87.0971
 41.2336  7781.63  87.2014
 41.2756  7691.45  86.3111
 41.3176  7741.22  87.1996
 41.3596  7736.54  86.9097
 41.4016  7775.59  87.3738
 41.4436  7856.59  87.6189
 41.4856  7880.44  87.9178
 41.5276  7874.84  87.9004
 41.5696  7889.78  87.5988
 41.6116  7723.24  87.0825
 41.6536  7824.55  87.5105
 41.6956  7848.19  87.6249
 41.7376  7715.05  86.9769
 41.7796  7775.25  87.2457
 41.8216  7660.98  86.7894
 41.8636  7886.48  87.9955
 41.9056  7748.6  87.0123
 41.9476  7760.83  87.3077
 41.9896  7813.49  87.2748
 42.0316  7847.66  87.548
 42.0736  7866.06  87.7969
 42.1156  7796.19  87.2135
 42.1576  7709.36  86.8246
 42.1996  7806.42  87.5137
 42.2416  7795.74  87.0336
 42.2836  7732.64  86.7939
 42.3256  7677.25  86.5987
 42.3676  7718.56  86.6379
 42.4096  7677.46  86.3697
 42.4516  7703.66  86.6028
 42.4936  7696.28  86.6293
 42.5356  7660.67  86.5617
 42.5776  7679.3  86.6044
 42.6196  7785.96  87.2621
 42.6616  7615.53  86.4684
 42.7036  7689.26  86.2748
 42.7456  7682.95  86.592
 42.7876  7624.55  86.3549
 42.8296  7669.32  86.4481
 42.8716  7554.44  85.9531
 42.9136  7612.66  86.0378
 42.9556  7676.3  86.5681
 42.9976  7694.04  86.6309
 43.0396  7681.51  86.2974
 43.0816  7720.91  86.8745
 43.1236  7578.15  86.1447
 43.1656  7586.81  86.0262
 43.2076  7610.72  86.2611
 43.2496  7574.36  85.8692
 43.2916  7509  85.8646
 43.3336  7591.66  86.1729
 43.3756  7628.09  86.1334
 43.4176  7428.01  85.0777
 43.4596  7536.53  85.5551
 43.5016  7494.93  85.7213
 43.5436  7600.32  86.2221
 43.5856  7483.75  85.5806
 43.6276  7454.95  85.3162
 43.6696  7522.18  85.8415
 43.7116  7674.71  86.3211
 43.7536  7638.56  86.6091
 43.7956  7386.59  86.3415
 43.8376  7504.33  85.58
 43.8796  7597.48  86.1828
 43.9216  7533.02  85.7404
 43.9636  7495.94  85.6313
 44.0056  7454.63  85.6275
 44.0476  7524.38  85.6546
 44.0896  7430.91  85.4625
 44.1316  7448.15  85.2296
 44.1736  7373.46  84.7832
 44.2156  7509.1  85.4232
 44.2576  7351.51  84.8336
 44.2996  7491.64  85.6179
 44.3416  7405.83  84.8737
 44.3836  7276.93  84.4656
 44.4256  7267.02  84.0541
 44.4676  7351.49  84.7
 44.5096  7412.38  85.184
 44.5516  7371.58  84.9222
 44.5936  7138.28  83.5232
 44.6356  7484.76  85.2642
 44.6776  7440.71  85.3299
 44.7196  7385  85.3059
 44.7616  7371.29  86.5484
 44.8036  7330  84.9407
 44.8456  7327.4  84.9226
 44.8876  7327.63  84.7799
 44.9296  7276.19  83.9475
 44.9716  7312.4  84.5825
 45.0136  7265.39  84.2429
 45.0556  7153.53  83.6683
 45.0976  7392.11  85.1096
 45.1396  7170.91  83.5912
 45.1816  7213.59  83.7725
 45.2236  7328.13  84.3406
 45.2656  7274.56  84.5189
 45.3076  7143.33  83.552
 45.3496  7214.18  84.2524
 45.3916  7240.42  84.6767
 45.4336  7189.3  84.2269
 45.4756  7248.26  84.4331
 45.5176  7260.18  84.12
 45.5596  7318.53  84.5744
 45.6016  7219.13  84.4115
 45.6436  7237.45  83.7063
 45.6856  7057.68  83.3092
 45.7276  7137.15  85.066
 45.7696  7176.73  84.9808
 45.8116  7212.68  84.6482
 45.8536  7165.35  84.2665
 45.8956  7180.75  83.7164
 45.9376  7208.6  83.3498
 45.9796  7143.95  83.6582
 46.0216  7116.62  83.8291
 46.0636  7146.78  83.1588
 46.1056  7123.37  83.0141
 46.1476  7089.36  83.396
 46.1896  7109.41  83.6618
 46.2316  7133.26  83.6732
 46.2736  7069.46  83.5026
 46.3156  7170.04  83.8422
 46.3576  7099.92  83.6276
 46.3996  6955.97  82.9353
 46.4416  7160.13  83.7063
 46.4836  6999.06  83.125
 46.5256  7320.6  84.9522
 46.5676  7051.79  83.4869
 46.6096  7189.41  84.2235
 46.6516  7159.87  83.1188
 46.6936  7142.12  83.4979
 46.7356  7247.6  84.2149
 46.7776  6995.07  83.5559
 46.8196  6984.95  83.2447
 46.8616  6900.82  82.5437
 46.9036  6904.96  82.2447
 46.9456  6974.89  82.2992
 46.9876  7053.79  82.8493
 47.0296  6963.07  82.9834
 47.0716  6874.36  82.2818
 47.1136  6952.93  82.4398
 47.1556  7128.06  83.3382
 47.1976  7006.87  82.7634
 47.2396  6971.4  82.884
 47.2816  6945.33  82.4396
 47.3236  6981.59  83.016
 47.3656  7005.67  83.0919
 47.4076  7085.3  83.2826
 47.4496  6995.67  82.9247
 47.4916  6888.56  82.4759
 47.5336  6988.04  82.8912
 47.5756  7025.27  83.2132
 47.6176  6912.29  82.4506
 47.6596  6939.47  82.3408
 47.7016  7064.72  82.8983
 47.7436  6959.98  82.6101
 47.7856  7013.11  82.9441
 47.8276  6799.64  81.7244
 47.8696  6888.08  82.339
 47.9116  7027.92  82.8842
 47.9536  6922.66  82.2054
 47.9956  6828.67  82.3374
 48.0376  6824.49  82.0936
 48.0796  7008.65  83.3216
 48.1216  7068.18  83.4977
 48.1636  6999.29  82.6672
 48.2056  6918.47  82.4474
 48.2476  6958.47  82.987
 48.2896  6908.18  82.601
 48.3316  6912.9  82.5732
 48.3736  6846.67  82.1989
 48.4156  6742.14  81.4249
 48.4576  6746.55  81.7347
 48.4996  6897.2  82.1144
 48.5416  6935.62  82.6543
 48.5836  6887.93  82.0565
 48.6256  6931.52  82.5234
 48.6676  6959.1  83.1862
 48.7096  6893.43  82.0652
 48.7516  6843  81.9234
 48.7936  6695.59  81.0926
 48.8356  6853.7  82.0974
 48.8776  6804.31  82.2786
 48.9196  6923.97  82.455
 48.9616  6845.58  82.3594
 49.0036  6774.23  82.2743
 49.0456  6763.59  82.1925
 49.0876  6740.33  81.6843
 49.1296  6660.43  81.2726
 49.1716  6718.33  81.5015
 49.2136  6797.07  81.9035
 49.2556  6763.92  81.7358
 49.2976  6724  81.5534
 49.3396  6602.8  80.8783
 49.3816  6874.79  81.9555
 49.4236  6815.76  82.0291
 49.4656  6644.3  81.0062
 49.5076  6817.1  81.8049
 49.5496  6752.52  81.4799
 49.5916  6803.21  81.7023
 49.6336  6726.52  81.4343
 49.6756  6633.37  81.1001
 49.7176  6779.47  81.9303
 49.7596  6759.55  81.5735
 49.8016  6670.84  80.9595
 49.8436  6672.49  81.2606
 49.8856  6719.13  81.559
 49.9276  6579.86  80.8037
 49.9696  6759.61  81.8717
 50.0116  6716.61  81.7462
 50.0536  6765.54  81.9965
 50.0956  6602.8  81.0622
 50.1376  6707.67  81.4089
 50.1796  6661.34  81.3998
 50.2216  6597.19  81.0038
 50.2636  6636.88  80.8645
 50.3056  6612.46  80.8961
 50.3476  6638.72  81.0766
 50.3896  6607.92  80.8563
 50.4316  6567.48  80.4421
 50.4736  6578.08  80.7299
 50.5156  6631.64  81.0382
 50.5576  6755.95  81.5589
 50.5996  6524.18  80.4278
 50.6416  6582.96  80.7181
 50.6836  6590.49  80.8241
 50.7256  6631.86  81.0086
 50.7676  6602.15  81.0925
 50.8096  6591.96  80.6155
 50.8516  6542.13  80.7192
 50.8936  6511.52  80.3146
 50.9356  6672.25  81.402
 50.9776  6603.39  81.1307
 51.0196  6401.99  80.0136
 51.0616  6415.1  79.4435
 51.1036  6577.57  80.7835
 51.1456  6611.4  80.915
 51.1876  6596.59  80.1724
 51.2296  6643.08  81.0837
 51.2716  6510.79  79.9762
 51.3136  6447.77  80.0413
 51.3556  6450.1  79.6834
 51.3976  6454.92  79.8667
 51.4396  6375.47  79.6693
 51.4816  6392.86  79.6368
 51.5236  6437.66  79.9968
 51.5656  6491.18  79.9415
 51.6076  6458.57  79.8201
 51.6496  6543.67  80.529
 51.6916  6388.7  79.921
 51.7336  6447.1  80.3683
 51.7756  6433.74  79.9981
 51.8176  6459.72  80.2589
 51.8596  6426.59  80.0712
 51.9016  6537.37  80.3723
 51.9436  6427.96  81.128
 51.9856  6397.45  81.3513
 52.0276  6398.15  79.8942
 52.0696  6381.15  79.85
 52.1116  6394.18  80.0451
 52.1536  6280.87  79.1778
 52.1956  6413.66  79.5267
 52.2376  6470.27  80.0524
 52.2796  6456.69  79.7779
 52.3216  6286.19  79.3953
 52.3636  6310  79.1332
 52.4056  6342.96  79.1974
 52.4476  6361.56  79.675
 52.4896  6257.16  79.0699
 52.5316  6281.79  79.2669
 52.5736  6368.24  79.5437
 52.6156  6344.49  79.7583
 52.6576  6438.3  79.8071
 52.6996  6181.54  79.1426
 52.7416  6396.18  80.3534
 52.7836  6306.57  79.6554
 52.8256  6416.47  79.607
 52.8676  6237.46  79.0546
 52.9096  6283.64  79.4236
 52.9516  6290.21  79.8441
 52.9936  6277.09  80.1353
 53.0356  6293.12  79.2621
 53.0776  6220.47  79.0785
 53.1196  6117.01  78.5214
 53.1616  6155.12  78.8105
 53.2036  6164.94  78.8329
 53.2456  6065.51  78.2917
 53.2876  6121.72  78.3663
 53.3296  6100.58  78.5461
 53.3716  6229.69  79.1234
 53.4136  6144.3  78.7277
 53.4556  6280.26  79.6215
 53.4976  6205.53  78.9973
 53.5396  6134.09  78.9277
 53.5816  6206.61  79.0256
 53.6236  6116.52  78.7864
 53.6656  6165.41  78.7409
 53.7076  6169.42  78.7137
 53.7496  6089.59  78.3306
 53.7916  6172.3  78.9861
 53.8336  6082.85  78.3113
 53.8756  6026.58  78.486
 53.9176  6192.35  78.9164
 53.9596  6254.26  80.0556
 54.0016  6124.52  78.5742
 54.0436  6113.69  78.7089
 54.0856  6249.58  79.0134
 54.1276  6163.47  78.6586
 54.1696  6130.56  78.6235
 54.2116  6149.33  78.5026
 54.2536  6168.84  78.4388
 54.2956  6147.46  78.3595
 54.3376  6076.58  78.3753
 54.3796  6137.61  78.6741
 54.4216  6217.28  79.218
 54.4636  6172.86  78.9032
 54.5056  6208.87  78.9538
 54.5476  6133.13  78.7998
 54.5896  6201.09  79.061
 54.6316  6079.38  78.1459
 54.6736  6179.08  78.8103
 54.7156  6177.91  78.8781
 54.7576  6127.63  78.5543
 54.7996  6138.54  78.7727
 54.8416  6181.41  79.0734
 54.8836  5977.99  77.8761
 54.9256  6004.44  77.8043
 54.9676  6235.01  79.1349
 55.0096  6046.89  78.0103
 55.0516  6144.62  78.8021
 55.0936  6145.01  78.503
 55.1356  6129.62  78.446
 55.1776  6081.13  78.3982
 55.2196  6079.58  78.172
 55.2616  6107.23  78.5579
 55.3036  6112.28  78.7523
 55.3456  6159.1  79.1995
 55.3876  6139.9  78.8258
 55.4296  6116.8  78.6504
 55.4716  6118.23  78.6923
 55.5136  6059.1  78.0799
 55.5556  6052.33  78.1027
 55.5976  5998.83  77.8116
 55.6396  6031.87  77.8966
 55.6816  6070.75  78.1081
 55.7236  6147.97  78.6291
 55.7656  6089.07  78.0239
 55.8076  6135.59  78.3077
 55.8496  5982.18  77.7388
 55.8916  6123.83  78.7143
 55.9336  6114.37  78.5105
 55.9756  5995.01  77.6312
 56.0176  6013.88  77.9035
 56.0596  6011.19  77.8703
 56.1016  6100.27  78.4841
 56.1436  5971.93  77.8858
 56.1856  6112.91  78.5428
 56.2276  6060.93  78.2578
 56.2696  6088.66  78.4106
 56.3116  5930.87  77.7783
 56.3536  6041.95  78.1728
 56.3956  6008.47  77.9458
 56.4376  6039.87  78.1812
 56.4796  6070.74  78.184
 56.5216  6044.05  78.3802
 56.5636  6072.04  78.1601
 56.6056  5967.66  77.7073
 56.6476  5977.15  77.4103
 56.6896  6047.5  78.2929
 56.7316  6039.79  78.1646
 56.7736  6128.99  78.7346
 56.8156  6034.95  78.1266
 56.8576  6009.76  77.9095
 56.8996  6063.47  78.1892
 56.9416  5934.22  77.6583
 56.9836  5979.75  77.4703
 57.0256  5931.47  77.4687
 57.0676  5997.09  78.0171
 57.1096  5995.94  77.8055
 57.1516  6082.43  78.3842
 57.1936  6051.32  77.9741
 57.2356  6035.64  78.1865
 57.2776  6006.46  77.9577
 57.3196  6002.1  78.2887
 57.3616  6059.74  78.1673
 57.4036  6080.93  78.3641
 57.4456  5989.32  77.7373
 57.4876  5991.56  77.6092
 57.5296  5948.14  77.5689
 57.5716  5989.88  77.9292
 57.6136  5992.44  77.7644
 57.6556  5996.1  77.9225
 57.6976  6058.53  78.1552
 57.7396  5911.98  77.57
 57.7816  5913.7  77.9349
 57.8236  5890.55  77.5732
 57.8656  6019.53  78.087
 57.9076  5963.4  77.7531
 57.9496  5982.99  78.2224
 57.9916  5909.21  77.2597
 58.0336  6006.17  78.167
 58.0756  5978.07  77.5818
 58.1176  6057.09  78.1322
 58.1596  5926.02  77.8412
 58.2016  6121.93  78.3354
 58.2436  6108.67  78.6682
 58.2856  5967.82  77.6722
 58.3276  5999.56  78.2508
 58.3696  5919.1  77.4809
 58.4116  6052.41  78.2052
 58.4536  5978.1  77.6167
 58.4956  6042.24  78.2118
 58.5376  6205.68  78.8287
 58.5796  5924.87  77.4413
 58.6216  6101.85  78.4046
 58.6636  6043.11  78.2394
 58.7056  5943.49  77.4545
 58.7476  6034.06  78.4867
 58.7896  6048.54  78.2253
 58.8316  6045.1  78.1979
 58.8736  5992.06  77.86
 58.9156  5936.44  77.5487
 58.9576  6146.61  79.2135
 58.9996  6126.53  78.3386
 59.0416  6113.32  78.6108
 59.0836  5998.14  77.8032
 59.1256  5800.27  77.1904
 59.1676  5918.13  78.2788
 59.2096  5987.73  78.0371
 59.2516  6133.69  78.5604
 59.2936  6081.41  78.5541
 59.3356  5987.82  77.8256
 59.3776  6020.05  78.2034
 59.4196  6054.36  78.3623
 59.4616  5805.32  76.596
 59.5036  5964.15  77.6697
 59.5456  6040.01  77.8577
 59.5876  6248.28  79.3829
 59.6296  5995.87  77.832
 59.6716  5733.16  76.1643
 59.7136  5937.41  77.4974
 59.7556  6092.95  78.6431
 59.7976  5957.87  77.5103
 59.8396  6007.83  77.7292
 59.8816  5985.11  78.122
 59.9236  6143.93  78.7954
 59.9656  5954.16  77.8216
 60.0076  6127.56  78.3056
 60.0496  5998.52  77.9759
 60.0916  5986.77  77.3232
 60.1336  5891.64  77.7999
 60.1756  6002.6  79.7096
 60.1996  0.0000000E+00  0.0000000E+00