File: docs/examples/XRD/IS17_D/Data/IS17_D/17_Da_f00111.xye
# /beamlines/bl04/projects/cycle2025-II/20250340211-lsimonelli/DATA/IS17_D/17_Da_f00111.xye : mythproc.py merge -s 0.006 -l 0.5 -f /beamlines/bl04/inhouse/ff/FlatField/ff_20Nov2024rod8mm60s_17keV.raw -b True -c true -o xye /beamlines/bl04/projects/cycle2025-II/20250340211-lsimonelli/DATA/IS17_D/17_Da_00111.dat
# IsMon = [6759125, 6762567, 6758940]  IsPos = [-1.4999, -2.4885, -3.4986]
# Wave = 0.4962  CalPath /beamlines/bl04/projects/cycle2025-II/20250340211-lsimonelli/DATA/Align/Si_Pos1_25keV_f00001.cal
# Date = 2025-09-25_00:30:44 Dt = 4.8000  Bin = 0.0060  <imon> = 6760211 +/- 1668 (Min/Max) 6758940 / 6762567
# icurr 250.0765  mocoIn 1.7066E-05  mocoOut 0.8002  i15 7.07782e+06  imon 6.76021e+06  i7 8.0000  iEMpd_timer 4.8000  iEMpd_1 3.4418E-08  iEMpd_2 7.9267E-08  iEMpd_3 1.7353E-08  iEMpd_4 4.7736E-08  iEMhp_timer 4.8000  iEMhp_1 4.8856E-06  iEMhp_2 -2.5757E-08  iEMhp_3 -2.4892E-08  iEMhp_4 -2.1365E-08
#      9776
 1.5856  40890.4  207.658
 1.6276  48429.7  222.114
 1.6696  54814.4  235.469
 1.7116  63550  254.035
 1.7536  72734.7  270.615
 1.7956  77481.4  280.004
 1.8376  73699.7  273.518
 1.8796  61953.4  248.934
 1.9216  49986.2  224.491
 1.9636  42512.4  206.181
 2.0056  38618.9  195.751
 2.0476  36072.4  191.261
 2.0896  35178.8  187.769
 2.1316  34025  183.777
 2.1736  32280.3  180.423
 2.2156  32980.1  180.905
 2.2576  31839.2  178.387
 2.2996  30338.9  174.771
 2.3416  31086.1  175.499
 2.3836  31018  175.413
 2.4256  29983.3  173.025
 2.4676  29380.3  171.033
 2.5096  29406.2  171.165
 2.5516  28423  172.164
 2.5936  28629.3  169.29
 2.6356  28196.4  168.715
 2.6776  28093.2  167.263
 2.7196  27703.5  166.629
 2.7616  27768.4  166.596
 2.8036  27479.2  165.904
 2.8456  27615.8  166.955
 2.8876  26801.2  164.32
 2.9296  26539.4  163.672
 2.9716  26299  162.404
 3.0136  25877.1  161.165
 3.0556  25993.5  161.939
 3.0976  25768.9  160.143
 3.1396  25398.1  159.723
 3.1816  25404.4  159.666
 3.2236  25009.1  158.418
 3.2656  24912.5  157.121
 3.3076  24502  157.31
 3.3496  24722.8  157.186
 3.3916  25330.9  158.675
 3.4336  25497.3  159.783
 3.4756  25635.6  160.15
 3.5176  26492.4  162.586
 3.5596  26408.5  164.805
 3.6016  26619.3  163.042
 3.6436  25687.2  161.271
 3.6856  25349.9  158.491
 3.7276  24228.5  156.037
 3.7696  24118.1  155.884
 3.8116  23643.2  154.229
 3.8536  23725.3  154.429
 3.8956  23736.7  154.287
 3.9376  23454.4  153.662
 3.9796  23575.9  153.522
 4.0216  23528.1  152.384
 4.0636  23494.5  153.777
 4.1056  23519.7  153.486
 4.1476  23738.9  154.529
 4.1896  23942.9  155.047
 4.2316  24187.2  155.663
 4.2736  24450.5  156.281
 4.3156  24690.2  157.291
 4.3576  25415.8  159.509
 4.3996  25773.4  160.679
 4.4416  26181.7  161.734
 4.4836  26751.1  163.628
 4.5256  27118  165.378
 4.5676  26902  164.973
 4.6096  27284.9  164.788
 4.6516  28035.7  166.749
 4.6936  28159.8  167.94
 4.7356  28302.5  168.191
 4.7776  28138.2  167.532
 4.8196  27858.5  167.354
 4.8616  27558.5  166.059
 4.9036  26928.4  163.764
 4.9456  27211.6  165.279
 4.9876  26562.8  163.195
 5.0296  26904.2  164.052
 5.0716  26860.3  164.566
 5.1136  26824.5  164.307
 5.1556  27186.2  164.865
 5.1976  27611.4  166.145
 5.2396  27856.8  166.572
 5.2816  27567.7  166.181
 5.3236  27750.5  166.426
 5.3656  27146.8  165.535
 5.4076  26957.2  165.11
 5.4496  27130.8  165.12
 5.4916  27424.2  165.762
 5.5336  27270.5  165.304
 5.5756  27006.2  164.531
 5.6176  27223.2  164.618
 5.6596  27298.6  165.828
 5.7016  27355.6  165.264
 5.7436  27474.6  165.901
 5.7856  27550.3  166.187
 5.8276  28007.5  167.277
 5.8696  28307.1  168.345
 5.9116  27861.6  167.599
 5.9536  28288.2  168.651
 5.9956  28432.5  168.437
 6.0376  28470.2  169.194
 6.0796  28890.4  170.267
 6.1216  28876.7  170.43
 6.1636  29167.4  170.336
 6.2056  29006  170.535
 6.2476  29167.3  170.885
 6.2896  29594.6  171.807
 6.3316  29357.8  171.298
 6.3736  29628.1  171.973
 6.4156  29684.1  172.03
 6.4576  29815.7  172.013
 6.4996  30178.3  173.544
 6.5416  30023.5  173.235
 6.5836  30148.4  173.832
 6.6256  30149  173.391
 6.6676  30867.9  175.005
 6.7096  30438.4  174.646
 6.7516  31171.7  176.384
 6.7936  31308.7  175.938
 6.8356  31320.5  176.3
 6.8776  31562.7  177.795
 6.9196  31745.1  178.715
 6.9616  32127.7  179.196
 7.0036  32512.4  179.944
 7.0456  32484.8  179.151
 7.0876  32536.2  181.008
 7.1296  32610.8  180.338
 7.1716  32619  179.897
 7.2136  32172.9  178.436
 7.2556  32536.8  179.609
 7.2976  32636  180.387
 7.3396  32536.6  180.32
 7.3816  32381.9  180.117
 7.4236  32672.1  180.202
 7.4656  32986.6  180.547
 7.5076  33264.1  181.44
 7.5496  33071.5  181.466
 7.5916  33022.7  181.358
 7.6336  33609  182.854
 7.6756  33472.6  182.334
 7.7176  33912.1  183.84
 7.7596  33850.5  184.93
 7.8016  34148.4  187.954
 7.8436  34665.1  185.997
 7.8856  34938.4  186.334
 7.9276  35455  188.116
 7.9696  35432.8  188.364
 8.0116  36784.8  190.816
 8.0536  36825.7  190.798
 8.0956  36703.5  191.665
 8.1376  37366.3  192.861
 8.1796  37347.9  193.351
 8.2216  37928.4  193.581
 8.2636  38528.3  195.36
 8.3056  38532.3  196.167
 8.3476  39133.6  196.996
 8.3896  38832.5  196.781
 8.4316  38979.1  196.856
 8.4736  38723.1  195.66
 8.5156  38579.3  195.584
 8.5576  38077.2  195.287
 8.5996  38575.8  195.417
 8.6416  38421.5  196.301
 8.6836  38082  195.278
 8.7256  38490.6  195.74
 8.7676  37819.5  196.987
 8.8096  38189  195.211
 8.8516  37923.9  194.142
 8.8936  37159.2  192.063
 8.9356  37083.4  192.213
 8.9776  37533.6  193.487
 9.0196  37321.1  192.595
 9.0616  37080.8  191.448
 9.1036  36690.1  191.628
 9.1456  36865  191.437
 9.1876  36601.8  190.701
 9.2296  37202.8  191.669
 9.2716  36229.6  189.194
 9.3136  36177.9  189.038
 9.3556  36421.6  189.66
 9.3976  35242.4  187.097
 9.4396  35902  188.731
 9.4816  35105.9  186.488
 9.5236  35083.1  186.34
 9.5656  35033.3  186.526
 9.6076  34733.9  186.275
 9.6496  34696.4  186.094
 9.6916  34624.3  185.873
 9.7336  34449.8  185.179
 9.7756  34836  187.562
 9.8176  33771.5  184.07
 9.8596  33802.7  182.589
 9.9016  33261.1  181.113
 9.9436  33208.9  180.884
 9.9856  32753  179.859
 10.0276  32325.2  179.799
 10.0696  32755.3  180.02
 10.1116  31591  177.054
 10.1536  31686.7  177.491
 10.1956  31072.8  175.359
 10.2376  30788.1  174.061
 10.2796  31108.7  175.09
 10.3216  30433.5  173.447
 10.3636  30414.8  173.431
 10.4056  29954.7  172.501
 10.4476  29918.3  172.028
 10.4896  30094  171.983
 10.5316  29335.6  170.512
 10.5736  29029.7  170.018
 10.6156  28831.3  169.22
 10.6576  28967.4  168.173
 10.6996  28467  167.373
 10.7416  28188.3  166.795
 10.7836  28380.5  168.06
 10.8256  27881.1  167.014
 10.8676  28238.1  167.604
 10.9096  27494.8  165.436
 10.9516  27466.7  164.27
 10.9936  27441.7  164.398
 11.0356  27423.7  164.977
 11.0776  27284.3  163.871
 11.1196  26699.7  162.847
 11.1616  26423  161.693
 11.2036  26396.7  161.467
 11.2456  26451.8  162.335
 11.2876  26386  161.874
 11.3296  26072.8  160.812
 11.3716  26447.6  161.646
 11.4136  26259.4  161.972
 11.4556  26219.4  161.521
 11.4976  26402  161.039
 11.5396  26648.8  161.967
 11.5816  27293.7  164.383
 11.6236  27942.9  166.777
 11.6656  27875.9  165.482
 11.7076  26888.5  163.379
 11.7496  26298.9  165.582
 11.7916  26056.6  160.089
 11.8336  25784  160.176
 11.8756  25475  158.712
 11.9176  25591.3  158.981
 11.9596  25323.7  158.091
 12.0016  25234  158.61
 12.0436  25118.3  157.66
 12.0856  24962.1  157.702
 12.1276  24943.7  157.557
 12.1696  24901.4  156.546
 12.2116  25077.8  157.101
 12.2536  24710.4  156.784
 12.2956  24818.2  156.452
 12.3376  24522.7  155.734
 12.3796  24730.7  156.847
 12.4216  24702.4  155.974
 12.4636  24440.2  156.064
 12.5056  24514.9  155.574
 12.5476  24712  155.716
 12.5896  24574.9  155.921
 12.6316  24282  155.155
 12.6736  24587.1  156.456
 12.7156  24229.3  155.333
 12.7576  24429.8  156.211
 12.7996  24615.8  155.44
 12.8416  24374.1  155.735
 12.8836  24958.1  157.387
 12.9256  25014  156.592
 12.9676  25098.2  157.286
 13.0096  24830.7  157.558
 13.0516  25086.5  157.387
 13.0936  25068.1  157.742
 13.1356  25625.1  158.446
 13.1776  25291  158.412
 13.2196  25276.3  158.022
 13.2616  25361.1  158.596
 13.3036  25426.7  158.776
 13.3456  25323.3  158.613
 13.3876  25305.8  158.041
 13.4296  25192.8  157.837
 13.4716  25609.1  158.744
 13.5136  25212.4  157.663
 13.5556  25291.1  158.522
 13.5976  25351.7  158.87
 13.6396  25600.5  158.999
 13.6816  25169.4  158.158
 13.7236  25681.5  159.398
 13.7656  24938.1  157.61
 13.8076  25288.9  157.481
 13.8496  24969  157.087
 13.8916  24955.6  158.062
 13.9336  24820.5  156.848
 13.9756  24848.3  156.277
 14.0176  24809.9  156.847
 14.0596  24656.5  156.333
 14.1016  24524.3  156.303
 14.1436  24043.7  153.897
 14.1856  23998.3  154.053
 14.2276  23532.8  153.039
 14.2696  24024.2  154.462
 14.3116  23737.5  153.444
 14.3536  23276.6  152.127
 14.3956  23206.1  151.614
 14.4376  23482.8  152.296
 14.4796  23223.6  151.444
 14.5216  23016.6  151.583
 14.5636  22796.1  150.411
 14.6056  23027.7  150.746
 14.6476  22786.3  149.169
 14.6896  22503.6  148.785
 14.7316  22127.9  148.584
 14.7736  22182.9  147.899
 14.8156  21929  147.085
 14.8576  21756.5  146.355
 14.8996  21529.5  146.808
 14.9416  21144.2  145.5
 14.9836  21182.6  145.594
 15.0256  20721.9  142.906
 15.0676  20841.4  143.643
 15.1096  20909.9  143.611
 15.1516  20485  142.704
 15.1936  20282.8  141.426
 15.2356  20070  140.965
 15.2776  20189.7  140.959
 15.3196  19771.1  140.51
 15.3616  19712  140.059
 15.4036  19544.1  139.316
 15.4456  19970.4  140.236
 15.4876  19439.7  138.26
 15.5296  19495.6  138.742
 15.5716  19080.3  136.86
 15.6136  18966.2  136.776
 15.6556  19161.9  136.706
 15.6976  18918.8  135.916
 15.7396  18759.1  135.967
 15.7816  18738  135.387
 15.8236  18341.2  134.659
 15.8656  18393.7  134.632
 15.9076  17981.3  132.938
 15.9496  18167.5  136.443
 15.9916  18108  136.675
 16.0336  17784.3  132.322
 16.0756  17938.6  133.211
 16.1176  17702.9  132.404
 16.1596  17570.2  133.103
 16.2016  17554.5  131.777
 16.2436  17302.5  131.21
 16.2856  17471.7  131.386
 16.3276  16781.3  129.182
 16.3696  17205.5  130.62
 16.4116  16898  129.917
 16.4536  17168.5  130.729
 16.4956  16874  129.342
 16.5376  16739.8  129.014
 16.5796  16779.2  128.521
 16.6216  17009.7  129.711
 16.6636  16625.9  128.396
 16.7056  16802.5  128.939
 16.7476  16765.7  128.464
 16.7896  16751.4  129.026
 16.8316  16671.1  128.682
 16.8736  16620.6  128.744
 16.9156  16727.1  129.493
 16.9576  16359.1  128.856
 16.9996  16622.1  130.385
 17.0416  16803.5  129.407
 17.0836  16806.8  129.177
 17.1256  16464.5  127.87
 17.1676  16468.4  127.874
 17.2096  16484  127.81
 17.2516  16313.5  126.929
 17.2936  16486.4  127.928
 17.3356  16051.3  126.243
 17.3776  16191.9  126.983
 17.4196  15982.6  125.842
 17.4616  15769.2  124.922
 17.5036  15509.2  124.252
 17.5456  15441.1  124.628
 17.5876  15316.3  123.165
 17.6296  15473.4  123.615
 17.6716  15180.2  123.007
 17.7136  15164.5  123.096
 17.7556  14981.1  122.634
 17.7976  14858.9  121.737
 17.8396  14987.5  121.899
 17.8816  15050.8  122.697
 17.9236  14748  121.275
 17.9656  15040.3  123.186
 18.0076  14861  121.865
 18.0496  14937.3  121.306
 18.0916  14771.8  121.175
 18.1336  14843.7  121.56
 18.1756  15030.5  121.85
 18.2176  14728.6  120.848
 18.2596  14702  120.47
 18.3016  14806.9  121.159
 18.3436  14718.3  121.037
 18.3856  14538.6  120.194
 18.4276  14576.6  120.027
 18.4696  14623.1  120.323
 18.5116  14543.7  120.278
 18.5536  14738.5  121.446
 18.5956  14341.3  119.34
 18.6376  14447.8  120.191
 18.6796  14442  119.491
 18.7216  14557.2  120.533
 18.7636  14273.1  119.271
 18.8056  14324.3  119.417
 18.8476  14118.9  118.88
 18.8896  14249.4  119.066
 18.9316  14498.5  119.921
 18.9736  14344.1  119.142
 19.0156  14313.9  119.407
 19.0576  14279.1  118.142
 19.0996  14379.6  119.267
 19.1416  14048.4  118.283
 19.1836  14204.7  118.539
 19.2256  14160  118.565
 19.2676  14126.6  118.518
 19.3096  14333.6  119.632
 19.3516  14164  118.881
 19.3936  14358.6  119.653
 19.4356  14207.6  118.836
 19.4776  14248.9  119.098
 19.5196  14202.8  118.76
 19.5616  14100.4  118.583
 19.6036  14226.5  118.468
 19.6456  14057.4  118.021
 19.6876  14209.9  118.307
 19.7296  14044.5  118.07
 19.7716  14044.4  118.084
 19.8136  14256  119.329
 19.8556  14283.3  118.919
 19.8976  14084.6  118.156
 19.9396  14296.9  118.619
 19.9816  14475.7  119.605
 20.0236  14528.9  120.041
 20.0656  14874.3  121.454
 20.1076  14774.4  121.522
 20.1496  15104.6  122.875
 20.1916  15287.5  123.113
 20.2336  15223.3  122.783
 20.2756  14822.3  121.6
 20.3176  14645  120.61
 20.3596  14397.7  119.562
 20.4016  14305.3  118.98
 20.4436  14108.7  118.738
 20.4856  13956  117.867
 20.5276  13828  117.796
 20.5696  13832.6  117.265
 20.6116  13881.9  117.755
 20.6536  13779.7  116.871
 20.6956  13711.2  116.657
 20.7376  13833.8  117.41
 20.7796  13554.2  115.902
 20.8216  13759.5  116.478
 20.8636  13420  115.404
 20.9056  13555.8  115.937
 20.9476  13418.1  115.186
 20.9896  13674.6  116.142
 21.0316  13630.4  115.846
 21.0736  13513.8  115.88
 21.1156  13488.9  115.936
 21.1576  13484.5  115.967
 21.1996  13402  115.589
 21.2416  13325.3  115.093
 21.2836  13376.4  115.273
 21.3256  13117.8  114.239
 21.3676  13455.1  115.236
 21.4096  13246.6  114.651
 21.4516  13211.4  114.38
 21.4936  13141.9  114.321
 21.5356  13243.2  114.718
 21.5776  13380.5  115.133
 21.6196  13170.2  114.263
 21.6616  12990.9  113.576
 21.7036  13148.1  114.043
 21.7456  13239.6  114.51
 21.7876  13094.1  113.631
 21.8296  13163.6  113.785
 21.8716  12968.2  113.165
 21.9136  13233.2  114.524
 21.9556  13065.1  113.464
 21.9976  12935.6  112.92
 22.0396  13054.3  113.685
 22.0816  12997.4  113.994
 22.1236  13064.7  113.733
 22.1656  13000.8  113.638
 22.2076  13067  113.328
 22.2496  12978.3  112.968
 22.2916  13041.4  113.13
 22.3336  13041.2  113.844
 22.3756  13002.1  113.41
 22.4176  13040.1  113.43
 22.4596  12908.3  113.455
 22.5016  12976.5  113.236
 22.5436  13008.9  113.264
 22.5856  13105.3  113.928
 22.6276  12813.1  112.783
 22.6696  13145  114.599
 22.7116  12813.5  112.647
 22.7536  12965.9  113.296
 22.7956  13023.1  112.861
 22.8376  12937.3  113.029
 22.8796  13013.2  113.152
 22.9216  13095.7  114.072
 22.9636  12980.3  112.703
 23.0056  12852.6  112.283
 23.0476  13060.1  113.764
 23.0896  13243  113.921
 23.1316  12964.7  113.161
 23.1736  12820.6  115.508
 23.2156  13245  114.63
 23.2576  12956.9  113.6
 23.2996  13059.2  113.835
 23.3416  13005.5  114.12
 23.3836  13169.7  114.043
 23.4256  12965.3  113.289
 23.4676  13198.6  113.998
 23.5096  12961.3  113.651
 23.5516  12790.7  112.18
 23.5936  13041.8  114.193
 23.6356  12971.2  113.536
 23.6776  12624  112.564
 23.7196  12679.8  112.046
 23.7616  12929.7  113.065
 23.8036  12891.8  112.939
 23.8456  12840.8  112.285
 23.8876  12650.9  111.802
 23.9296  12638.5  112.249
 23.9716  12673.8  111.582
 24.0136  12724.5  112.717
 24.0556  12637.4  112.063
 24.0976  12507.5  111.284
 24.1396  12435.5  113.633
 24.1816  12528.1  112.796
 24.2236  12394.2  111.457
 24.2656  12299.7  110.499
 24.3076  12206.9  110.341
 24.3496  12289.7  110.594
 24.3916  12188  110.191
 24.4336  12091.6  109.962
 24.4756  12048.3  109.625
 24.5176  12032.4  109.208
 24.5596  11970.9  109.057
 24.6016  11969.8  109.336
 24.6436  12039.5  109.142
 24.6856  11890.8  108.227
 24.7276  11760.5  107.948
 24.7696  11627.1  107.449
 24.8116  11823.3  108.535
 24.8536  11776.8  108.318
 24.8956  11664.9  107.537
 24.9376  11637.3  107.348
 24.9796  11480.2  106.975
 25.0216  11363.8  106.545
 25.0636  11574.9  107.179
 25.1056  11510.5  107.302
 25.1476  11505.1  109.251
 25.1896  11615.8  108.224
 25.2316  11528.6  106.968
 25.2736  11581.3  106.985
 25.3156  11414.4  106.289
 25.3576  11379.7  106.547
 25.3996  11310.3  106.2
 25.4416  11280.5  106.048
 25.4836  11113.3  105.78
 25.5256  11289.1  105.974
 25.5676  11275.3  105.633
 25.6096  11147  105.608
 25.6516  11369.6  106.148
 25.6936  11198  105.664
 25.7356  11270.1  106.135
 25.7776  11225.9  105.537
 25.8196  11074.2  105.053
 25.8616  11166.9  105.419
 25.9036  11243.2  105.239
 25.9456  11147.4  105.384
 25.9876  11049.1  104.987
 26.0296  11328.8  105.897
 26.0716  11022.5  104.79
 26.1136  11118.8  105.191
 26.1556  11133.3  104.548
 26.1976  10990.9  104.895
 26.2396  10993.7  104.31
 26.2816  11111.1  105.232
 26.3236  11059.7  105.067
 26.3656  11014.2  104.653
 26.4076  11199.6  105.747
 26.4496  11618.1  107.146
 26.4916  11143.6  104.972
 26.5336  11183.3  105.487
 26.5756  11565.2  107.086
 26.6176  11160.1  105.289
 26.6596  10915.2  104.437
 26.7016  11161.3  105.404
 26.7436  10952.6  104.505
 26.7856  10749.7  103.515
 26.8276  10791.4  103.666
 26.8696  10885.5  103.997
 26.9116  10832.1  103.675
 26.9536  10737.1  103.267
 26.9956  10756.9  103.398
 27.0376  10676  103.223
 27.0796  10771.8  103.463
 27.1216  10577.8  102.557
 27.1636  10570.3  102.689
 27.2056  10704.5  103.218
 27.2476  10568.1  102.557
 27.2896  10559.2  102.55
 27.3316  10649.7  102.775
 27.3736  10542.5  102.518
 27.4156  10546.5  102.386
 27.4576  10543.2  102.604
 27.4996  10376.3  101.381
 27.5416  10421.9  101.924
 27.5836  10504.4  102.139
 27.6256  10775.1  103.606
 27.6676  10747  103.497
 27.7096  10423.4  101.796
 27.7516  10442.9  102.047
 27.7936  10385.6  101.938
 27.8356  10442.1  101.827
 27.8776  10448.3  101.907
 27.9196  10277.8  100.918
 27.9616  10381  101.619
 28.0036  10300.4  101.2
 28.0456  10396.8  101.802
 28.0876  10124.5  100.551
 28.1296  10191.7  100.724
 28.1716  10168.1  100.616
 28.2136  10302  101.242
 28.2556  10176.4  100.742
 28.2976  10098.4  100.339
 28.3396  10213.2  100.705
 28.3816  10306.1  101.147
 28.4236  10236.3  100.96
 28.4656  10078.8  100.215
 28.5076  10123.3  100.07
 28.5496  10193.9  100.681
 28.5916  10103.5  100.042
 28.6336  10012.2  99.9289
 28.6756  10222.6  100.165
 28.7176  10168.2  100.455
 28.7596  9984.57  99.4379
 28.8016  10080.4  100.037
 28.8436  9931.75  99.456
 28.8856  10058.8  99.9335
 28.9276  10117.9  100.478
 28.9696  10002.6  99.5559
 29.0116  9871.37  99.0777
 29.0536  9922.13  99.5517
 29.0956  9902.42  99.1684
 29.1376  9960.06  99.4174
 29.1796  9785.67  98.586
 29.2216  9877.63  98.8914
 29.2636  9945.24  99.2186
 29.3056  9847.85  98.6079
 29.3476  9838.33  99.0853
 29.3896  9926.76  99.6123
 29.4316  9974.53  99.1963
 29.4736  9831.6  98.5507
 29.5156  9941.45  99.0086
 29.5576  9892.03  99.5135
 29.5996  9855.32  98.5846
 29.6416  9960.41  99.219
 29.6836  9835.74  98.5304
 29.7256  9856.73  99.2066
 29.7676  9944.61  99.3122
 29.8096  9740.82  98.2268
 29.8516  9672.21  98.2159
 29.8936  9843.79  99.1766
 29.9356  9789.64  98.6553
 29.9776  9781.73  98.7721
 30.0196  9786.83  98.1731
 30.0616  9655.36  97.8914
 30.1036  9824.11  98.5614
 30.1456  9668.18  98.0397
 30.1876  9710.35  98.1989
 30.2296  9652.01  97.8666
 30.2716  9835.49  98.4174
 30.3136  9879.82  99.2503
 30.3556  9762.84  98.9366
 30.3976  9582.71  99.5426
 30.4396  9770.05  97.8269
 30.4816  9634.71  96.7413
 30.5236  9593.9  96.5494
 30.5656  9731.15  97.9047
 30.6076  9714.54  97.2433
 30.6496  9586.9  96.9914
 30.6916  9643.21  97.3725
 30.7336  9588.64  97.2482
 30.7756  9653.67  97.8953
 30.8176  9554.23  97.0811
 30.8596  9608.58  97.1254
 30.9016  9595.11  97.4016
 30.9436  9696.57  97.6664
 30.9856  9633.92  97.4527
 31.0276  9603.27  96.9081
 31.0696  9573.44  97.1993
 31.1116  9596.84  97.4336
 31.1536  9584.79  97.2516
 31.1956  9448.38  96.6476
 31.2376  9356.51  96.1851
 31.2796  9497.32  96.4376
 31.3216  9625.45  97.0297
 31.3636  9539.61  97.2853
 31.4056  9498.62  98.4199
 31.4476  9453.84  96.0439
 31.4896  9334.88  95.9412
 31.5316  9387.89  95.654
 31.5736  9420.55  95.6002
 31.6156  9477.21  95.9005
 31.6576  9424.83  95.7327
 31.6996  9443.52  95.4936
 31.7416  9339.17  96.0339
 31.7836  9410.11  95.4079
 31.8256  9346.96  95.4349
 31.8676  9391.94  95.5875
 31.9096  9286.01  95.3959
 31.9516  9051.66  94.3533
 31.9936  9285.39  95.3782
 32.0356  9399.65  96.0379
 32.0776  9456.74  96.2121
 32.1196  9382.69  95.9252
 32.1616  9457.6  95.7578
 32.2036  9188.24  94.8969
 32.2456  9178.2  95.2276
 32.2876  9261.94  94.9772
 32.3296  9196.61  94.7817
 32.3716  9088.37  94.3334
 32.4136  9332.31  95.8107
 32.4556  9372.51  95.4429
 32.4976  9249.32  94.6691
 32.5396  9221.14  94.5887
 32.5816  9273.4  94.8785
 32.6236  9291.07  95.1319
 32.6656  9289.83  95.6771
 32.7076  9194.71  94.8395
 32.7496  9214.82  94.6002
 32.7916  9191.15  94.4487
 32.8336  9247.08  94.8222
 32.8756  9225  94.5312
 32.9176  9091.29  94.2343
 32.9596  9102.13  94.3698
 33.0016  9107.92  94.1882
 33.0436  9204.01  94.8626
 33.0856  9062.48  94.1964
 33.1276  8956.46  93.3744
 33.1696  9154.68  94.2483
 33.2116  9157.13  94.4863
 33.2536  9168.39  94.5443
 33.2956  9100.23  94.2775
 33.3376  8961.95  93.2636
 33.3796  9089.3  94.1682
 33.4216  9210.99  94.391
 33.4636  9051.84  93.7109
 33.5056  9074.33  93.912
 33.5476  8999.45  93.678
 33.5896  9261.06  94.7754
 33.6316  9095.48  94.2681
 33.6736  8936.33  93.681
 33.7156  9011.19  94.1204
 33.7576  9079.83  94.1064
 33.7996  9037.94  93.6509
 33.8416  8868.29  92.9528
 33.8836  8965.89  93.233
 33.9256  8919  93.0563
 33.9676  8979.44  93.2629
 34.0096  8824.09  92.7731
 34.0516  8900.2  92.8039
 34.0936  8884.69  92.9904
 34.1356  8926.07  92.942
 34.1776  8930.16  92.9771
 34.2196  8833.6  92.6538
 34.2616  8831.81  92.8401
 34.3036  8679  92.2268
 34.3456  8844.25  92.8477
 34.3876  8850.36  92.8507
 34.4296  8788.27  92.2094
 34.4716  8889.85  92.8884
 34.5136  8827.85  92.7721
 34.5556  8748.49  92.6058
 34.5976  8811.06  92.7393
 34.6396  8876.64  92.792
 34.6816  8738.21  92.1808
 34.7236  8746.28  92.0072
 34.7656  8836.45  92.6747
 34.8076  8743.76  92.5095
 34.8496  8704.79  92.1675
 34.8916  8702.22  92.0207
 34.9336  8837.56  92.7004
 34.9756  8772.28  92.2697
 35.0176  8758.35  92.7404
 35.0596  8656.84  92.0244
 35.1016  8766.35  92.3703
 35.1436  8966.18  93.0967
 35.1856  8735.27  92.0201
 35.2276  8712.98  92.0748
 35.2696  8774.52  92.5945
 35.3116  8779.11  92.7125
 35.3536  8613.74  91.5466
 35.3956  8644.94  91.4165
 35.4376  8745.01  92.508
 35.4796  8700.01  92.332
 35.5216  8596.15  91.6587
 35.5636  8432.37  91.6046
 35.6056  8721.78  92.1659
 35.6476  8590.43  91.3621
 35.6896  8757.99  92.4243
 35.7316  8587.18  91.4095
 35.7736  8583.01  91.5831
 35.8156  8516.44  91.2257
 35.8576  8610.3  91.9849
 35.8996  8634.37  92.0838
 35.9416  8602.44  91.4152
 35.9836  8507.17  91.2505
 36.0256  8541.06  91.4547
 36.0676  8719.09  91.9311
 36.1096  8518.59  91.228
 36.1516  8632.31  91.7225
 36.1936  8460.04  90.6506
 36.2356  8501.85  91.5176
 36.2776  8506.22  91.0202
 36.3196  8517.57  90.7421
 36.3616  8480.91  90.6861
 36.4036  8619.21  91.4747
 36.4456  8519.62  91.1575
 36.4876  8388.5  90.3962
 36.5296  8523.05  91.1604
 36.5716  8425.44  91.4206
 36.6136  8624.27  91.2437
 36.6556  8561.85  91.1228
 36.6976  8355.52  90.5133
 36.7396  8505.03  91.1401
 36.7816  8461.56  91.1929
 36.8236  8465.54  91.1286
 36.8656  8284.74  90.2285
 36.9076  8267.25  90.1401
 36.9496  8370.57  90.7152
 36.9916  8406.61  90.3817
 37.0336  8521.7  91.3191
 37.0756  8422.28  90.573
 37.1176  8325.5  90.4197
 37.1596  8368.7  90.5595
 37.2016  8307.35  90.4025
 37.2436  8403.24  90.2825
 37.2856  8395.91  90.5032
 37.3276  8460.49  90.1904
 37.3696  8274.8  90.0835
 37.4116  8376.26  90.5491
 37.4536  8396.83  90.5214
 37.4956  8212.25  89.5728
 37.5376  8397.68  92.1582
 37.5796  8235.92  91.2128
 37.6216  8135.22  88.9249
 37.6636  8165.85  88.9905
 37.7056  8214.01  89.4508
 37.7476  8209.68  88.9599
 37.7896  8329.33  90.1184
 37.8316  7990.25  88.4312
 37.8736  8245.02  89.3493
 37.9156  8273.48  89.5049
 37.9576  8296.83  89.672
 37.9996  8097.01  88.143
 38.0416  8120.17  89.0925
 38.0836  8303.79  89.996
 38.1256  8267.94  89.762
 38.1676  8080.04  88.8711
 38.2096  8063.61  88.4036
 38.2516  8233.1  89.4234
 38.2936  8118.76  88.702
 38.3356  8307.25  89.6535
 38.3776  8144.84  89.0445
 38.4196  8195.57  89.1741
 38.4616  8167.69  89.2624
 38.5036  8275.75  89.6888
 38.5456  8066.32  89.3781
 38.5876  8161.01  89.9308
 38.6296  8014.94  88.0911
 38.6716  8097.18  88.3354
 38.7136  8045.74  87.9976
 38.7556  7971.68  88.0962
 38.7976  8115.84  88.8243
 38.8396  7920.52  88.2045
 38.8816  7945.37  88.114
 38.9236  8045.44  88.4853
 38.9656  8071.43  88.541
 39.0076  8137.65  88.3037
 39.0496  8018.15  88.1996
 39.0916  8106.53  88.3145
 39.1336  8039.32  88.3733
 39.1756  8015.32  88.3051
 39.2176  8003.12  88.7679
 39.2596  8115.24  89.3127
 39.3016  7909.01  87.7511
 39.3436  8009.58  88.73
 39.3856  8044.1  88.3658
 39.4276  8115.04  89.2586
 39.4696  7963.24  88.0406
 39.5116  7871.3  88.0455
 39.5536  8086.69  89.6742
 39.5956  8064.01  88.6386
 39.6376  8020.48  88.2409
 39.6796  8014.56  88.1084
 39.7216  7997.23  88.1174
 39.7636  8082.73  89.1624
 39.8056  8131.11  89.2094
 39.8476  7996.87  88.7236
 39.8896  8075.03  88.7789
 39.9316  8028.22  88.7736
 39.9736  8248.35  89.5407
 40.0156  8078.39  88.4463
 40.0576  8060.93  88.7063
 40.0996  8148.98  88.3631
 40.1416  8188.35  89.3826
 40.1836  8132.34  88.9627
 40.2256  8217.4  89.4777
 40.2676  8027.35  88.5489
 40.3096  8112.03  88.93
 40.3516  8107.63  89.0998
 40.3936  8094.94  88.5075
 40.4356  8087.65  88.656
 40.4776  8163.77  89.4948
 40.5196  8159.22  89.6004
 40.5616  8234.34  89.6478
 40.6036  8089.07  89.1088
 40.6456  8159.93  89.1013
 40.6876  8222.94  89.4332
 40.7296  8170.66  89.2904
 40.7716  8070.67  88.8633
 40.8136  8052.36  88.7071
 40.8556  8111.16  89.1665
 40.8976  8156.29  89.3336
 40.9396  8109.23  89.4315
 40.9816  8216.68  89.2971
 41.0236  8196.33  88.9632
 41.0656  8232.02  89.7027
 41.1076  8237.43  89.501
 41.1496  8177.21  89.0789
 41.1916  8073.57  88.8362
 41.2336  8087.72  88.9093
 41.2756  8085.53  88.4953
 41.3176  8145.87  89.4487
 41.3596  8049.87  88.6494
 41.4016  8102.86  89.2055
 41.4436  8145.69  89.221
 41.4856  8190.82  89.6337
 41.5276  8105.59  89.1847
 41.5696  8112.1  88.8348
 41.6116  8022.53  88.7561
 41.6536  8034.12  88.6768
 41.6956  8123.02  89.2186
 41.7376  7865.7  87.8267
 41.7796  8097.25  89.0342
 41.8216  8132.55  89.4218
 41.8636  8136.96  89.3828
 41.9056  7956.1  88.1703
 41.9476  8132.41  89.383
 41.9896  8110.42  88.9226
 42.0316  8056.12  88.7047
 42.0736  7913.27  88.03
 42.1156  8014.2  88.4264
 42.1576  8097.55  88.9824
 42.1996  7987.76  88.5231
 42.2416  8113.94  88.7932
 42.2836  8021  88.3989
 42.3256  7906.12  87.8762
 42.3676  7994.75  88.1748
 42.4096  8027.57  88.3136
 42.4516  7923.83  87.8342
 42.4936  7955.8  88.0784
 42.5356  8008.62  88.5014
 42.5776  8078.56  88.827
 42.6196  8030.98  88.5385
 42.6616  7871.84  87.9119
 42.7036  8085.55  88.4688
 42.7456  7973.6  88.2158
 42.7876  7892.11  87.8691
 42.8296  8036.7  88.561
 42.8716  7849.8  87.6219
 42.9136  7928.95  87.8451
 42.9556  7970.21  88.2134
 42.9976  8073.19  88.7375
 43.0396  7905.63  87.5458
 43.0816  7954.99  88.198
 43.1236  7958.93  88.2823
 43.1656  7857.14  87.5452
 43.2076  7934.83  88.0856
 43.2496  7933.06  87.8858
 43.2916  7840.49  87.7376
 43.3336  7982.91  88.3656
 43.3756  7887.26  87.5825
 43.4176  7818.61  87.2893
 43.4596  7794.85  87.0113
 43.5016  7766.96  87.2614
 43.5436  7820.99  87.464
 43.5856  7774.19  87.2292
 43.6276  7841.25  87.4961
 43.6696  7936.38  88.1698
 43.7116  7867.63  87.3991
 43.7536  7907.9  88.1135
 43.7956  7773.32  88.5543
 43.8376  7711.88  86.7447
 43.8796  7730.48  86.9349
 43.9216  7854.05  87.537
 43.9636  7752.95  87.0915
 44.0056  7736.88  87.2289
 44.0476  7724.53  86.7909
 44.0896  7671.63  86.8334
 44.1316  7777.52  87.0882
 44.1736  7753.28  86.9415
 44.2156  7868.64  87.4321
 44.2576  7762.88  87.1767
 44.2996  7703.25  86.7975
 44.3416  7778.47  86.9958
 44.3836  7732.76  87.0657
 44.4256  7590.14  85.9082
 44.4676  7598.63  86.1095
 44.5096  7734.77  87.0237
 44.5516  7658.69  86.5528
 44.5936  7594.73  86.1498
 44.6356  7576.16  85.7804
 44.6776  7761.33  87.1412
 44.7196  7523.06  86.0678
 44.7616  7581.32  87.7648
 44.8036  7551.62  86.0239
 44.8456  7565.59  86.3103
 44.8876  7625.52  86.4997
 44.9296  7687.36  86.3017
 44.9716  7555.05  85.9752
 45.0136  7677.95  86.6164
 45.0556  7566.53  85.9541
 45.0976  7536.98  85.9502
 45.1396  7444.09  85.1891
 45.1816  7613.6  85.9073
 45.2236  7575.9  85.767
 45.2656  7521.72  85.9653
 45.3076  7451.12  85.3518
 45.3496  7596.3  86.4716
 45.3916  7517.52  86.2954
 45.4336  7549.47  86.3196
 45.4756  7431.5  85.4959
 45.5176  7548.41  85.7856
 45.5596  7580.69  86.0919
 45.6016  7511.65  86.1189
 45.6436  7480.22  85.1179
 45.6856  7396.77  85.2919
 45.7276  7421.42  87.2635
 45.7696  7398.32  86.2802
 45.8116  7524.39  86.4428
 45.8536  7442.91  85.8716
 45.8956  7548.64  85.8248
 45.9376  7501.3  85.0134
 45.9796  7497.73  85.6926
 46.0216  7475.57  85.8974
 46.0636  7516.49  85.2705
 46.1056  7630.59  85.907
 46.1476  7539.59  85.9919
 46.1896  7449.35  85.6273
 46.2316  7385.06  85.1265
 46.2736  7275.04  84.8537
 46.3156  7501.73  85.7465
 46.3576  7381.98  85.2659
 46.3996  7387.6  85.4545
 46.4416  7410.9  85.163
 46.4836  7316.29  84.9769
 46.5256  7347.57  85.0949
 46.5676  7337  85.149
 46.6096  7439.77  85.6795
 46.6516  7488.57  84.9945
 46.6936  7473.25  85.4024
 46.7356  7452.17  85.3939
 46.7776  7382.48  85.8375
 46.8196  7244.83  84.6272
 46.8616  7204.4  84.3423
 46.9036  7253.31  84.2857
 46.9456  7231.62  83.8029
 46.9876  7312.99  84.3545
 47.0296  7222.81  84.5192
 47.0716  7198.27  84.1978
 47.1136  7284.05  84.3825
 47.1556  7241.13  83.9964
 47.1976  7377.14  84.8616
 47.2396  7254.42  84.5531
 47.2816  7209.39  83.9888
 47.3236  7242.89  84.5561
 47.3656  7206.62  84.2718
 47.4076  7210.66  84.1017
 47.4496  7154.51  83.8665
 47.4916  7171.35  84.1581
 47.5336  7256.22  84.462
 47.5756  7200.49  84.2262
 47.6176  7193.07  84.1066
 47.6596  7132.65  83.4697
 47.7016  7312.43  84.3298
 47.7436  7256.44  84.3395
 47.7856  7276.55  84.4895
 47.8276  7217.48  84.1993
 47.8696  7173.37  84.025
 47.9116  7218.15  83.9991
 47.9536  7223.1  83.972
 47.9956  7203.99  84.5695
 48.0376  7157.58  84.0686
 48.0796  7222.03  84.5819
 48.1216  7277.98  84.7138
 48.1636  7381.08  84.8917
 48.2056  7316.11  84.784
 48.2476  7255.54  84.7436
 48.2896  7141.33  83.9825
 48.3316  7149.24  83.9721
 48.3736  7055.77  83.4426
 48.4156  7120.13  83.6733
 48.4576  7015.04  83.3455
 48.4996  7247.48  84.1663
 48.5416  7172.95  84.0599
 48.5836  7199.71  83.8775
 48.6256  7193.36  84.0558
 48.6676  7119.38  84.1418
 48.7096  7179.49  83.7623
 48.7516  7089.12  83.3845
 48.7936  6936.71  82.5422
 48.8356  7150.29  83.8537
 48.8776  7167.57  84.4448
 48.9196  7186.06  84.0026
 48.9616  7035.6  83.4923
 49.0036  7049.48  83.929
 49.0456  7091.47  84.153
 49.0876  6971.38  83.0847
 49.1296  6849.31  82.4157
 49.1716  6859.98  82.3522
 49.2136  7045.03  83.36
 49.2556  7105.43  83.7742
 49.2976  7023.89  83.3538
 49.3396  6947.93  82.9536
 49.3816  7082.61  83.1898
 49.4236  7050.66  83.4294
 49.4656  6973.23  82.9839
 49.5076  7001.7  82.8983
 49.5496  7012.47  82.9048
 49.5916  7070.21  83.29
 49.6336  6973.54  82.9123
 49.6756  7017.76  83.4142
 49.7176  7005.93  83.2809
 49.7596  7046.46  83.4689
 49.8016  6999.27  82.9365
 49.8436  6904.34  82.6632
 49.8856  6927.44  82.8099
 49.9276  6875.05  82.5879
 49.9696  6921.79  82.8599
 50.0116  6908.58  82.9078
 50.0536  6949.87  83.1074
 50.0956  6942.68  83.1284
 50.1376  6927.23  82.7443
 50.1796  6867.93  82.6533
 50.2216  6925.06  82.9929
 50.2636  6907.14  82.502
 50.3056  6810.59  82.0925
 50.3476  6865.16  82.4454
 50.3896  6917.38  82.7256
 50.4316  6828.11  82.0306
 50.4736  6834.98  82.2887
 50.5156  6955.23  83.0068
 50.5576  6904.04  82.4508
 50.5996  6849.7  82.4085
 50.6416  6768.52  81.8423
 50.6836  6868.93  82.5111
 50.7256  6874.22  82.4801
 50.7676  6999.53  83.5004
 50.8096  6844.53  82.1482
 50.8516  6826.17  82.4516
 50.8936  6672.57  81.309
 50.9356  6854.21  82.5087
 50.9776  6872.05  82.7727
 51.0196  6687.69  81.7744
 51.0616  6706.19  81.215
 51.1036  6846.51  82.422
 51.1456  6829.54  82.2272
 51.1876  6789.52  81.3351
 51.2296  6742.56  81.688
 51.2716  6717.92  81.243
 51.3136  6726.57  81.7428
 51.3556  6763.49  81.6021
 51.3976  6657.71  81.1063
 51.4396  6663.36  81.4372
 51.4816  6644  81.1764
 51.5236  6684.97  81.5106
 51.5656  6848.35  82.1087
 51.6076  6761.42  81.6642
 51.6496  6740.94  81.7395
 51.6916  6782  82.336
 51.7336  6772.66  82.3793
 51.7756  6746.48  81.9171
 51.8176  6600.58  81.1217
 51.8596  6691.63  81.7015
 51.9016  6929.8  82.7422
 51.9436  6669.57  82.637
 51.9856  6552.99  82.3392
 52.0276  6659.84  81.5249
 52.0696  6687.72  81.7591
 52.1116  6697.15  81.9344
 52.1536  6653.88  81.5552
 52.1956  6695.15  81.2788
 52.2376  6845.42  82.3542
 52.2796  6696.79  81.2653
 52.3216  6475.89  80.5995
 52.3636  6662.17  81.3252
 52.4056  6568.96  80.61
 52.4476  6500.89  80.5556
 52.4896  6635.15  81.4356
 52.5316  6521.42  80.774
 52.5736  6688.21  81.5331
 52.6156  6549  81.0477
 52.6576  6660.07  81.184
 52.6996  6403.38  80.5548
 52.7416  6630.22  81.8304
 52.7836  6695.63  82.0898
 52.8256  6640.97  80.9835
 52.8676  6458.86  80.4564
 52.9096  6590.2  81.3417
 52.9516  6673.86  82.2408
 52.9936  6492.19  81.4941
 53.0356  6531.03  80.7358
 53.0776  6510.46  80.8936
 53.1196  6428.73  80.4861
 53.1616  6439.17  80.5994
 53.2036  6452.87  80.6394
 53.2456  6368.28  80.2105
 53.2876  6463.17  80.5116
 53.3296  6443.22  80.7121
 53.3716  6435.79  80.4127
 53.4136  6395.56  80.3105
 53.4556  6378.13  80.2277
 53.4976  6273.2  79.4177
 53.5396  6439.82  80.8543
 53.5816  6393.53  80.2032
 53.6236  6399.1  80.5726
 53.6656  6374.06  80.0518
 53.7076  6435.2  80.3945
 53.7496  6416.81  80.4023
 53.7916  6490.74  80.9887
 53.8336  6323.5  79.8387
 53.8756  6340.43  80.4929
 53.9176  6444.55  80.493
 53.9596  6465.07  81.4007
 54.0016  6363.12  80.0816
 54.0436  6413.33  80.6205
 54.0856  6546.62  80.8715
 54.1276  6369.21  79.9698
 54.1696  6351.66  80.0265
 54.2116  6433.58  80.2994
 54.2536  6360.3  79.6536
 54.2956  6426.18  80.1069
 54.3376  6319.45  79.9284
 54.3796  6430.59  80.5206
 54.4216  6391.92  80.3227
 54.4636  6404.87  80.3752
 54.5056  6477.84  80.6487
 54.5476  6350.81  80.184
 54.5896  6411.41  80.3947
 54.6316  6414.15  80.274
 54.6736  6375.34  80.051
 54.7156  6319.99  79.7777
 54.7576  6311.87  79.7225
 54.7996  6391.82  80.3607
 54.8416  6393.74  80.4264
 54.8836  6267.76  79.7448
 54.9256  6396.71  80.3088
 54.9676  6467.45  80.5998
 55.0096  6329.88  79.8137
 55.0516  6356.73  80.1476
 55.0936  6469.37  80.5472
 55.1356  6310.3  79.588
 55.1776  6361.25  80.1808
 55.2196  6414.54  80.2992
 55.2616  6374.03  80.2636
 55.3036  6307.72  80.0035
 55.3456  6281.99  79.9907
 55.3876  6393.06  80.4323
 55.4296  6398.48  80.4442
 55.4716  6382.72  80.3772
 55.5136  6417.46  80.3486
 55.5556  6340.54  79.9382
 55.5976  6213.79  79.1908
 55.6396  6287.53  79.6063
 55.6816  6350.56  79.8845
 55.7236  6334.72  79.9298
 55.7656  6338.97  79.6111
 55.8076  6413.27  80.0608
 55.8496  6322.97  79.8142
 55.8916  6391.3  80.4182
 55.9336  6280.28  79.5639
 55.9756  6430.52  80.4019
 56.0176  6291.25  79.6792
 56.0596  6254.92  79.4345
 56.1016  6351.42  80.0805
 56.1436  6244.67  79.6407
 56.1856  6342.33  80.0003
 56.2276  6263.72  79.5625
 56.2696  6339.38  80.0052
 56.3116  6191.75  79.4658
 56.3536  6312.84  79.9018
 56.3956  6294.96  79.7817
 56.4376  6327.85  80.0227
 56.4796  6298.94  79.6386
 56.5216  6173.02  79.2184
 56.5636  6403.92  80.2667
 56.6056  6283.84  79.7447
 56.6476  6258.59  79.2102
 56.6896  6263.42  79.6904
 56.7316  6348.28  80.1388
 56.7736  6275.29  79.66
 56.8156  6292.62  79.7696
 56.8576  6237.11  79.3692
 56.8996  6321.69  79.8393
 56.9416  6291.35  79.8127
 56.9836  6225.22  79.0464
 57.0256  6249.92  79.5204
 57.0676  6250.78  79.6509
 57.1096  6294.98  79.7211
 57.1516  6303.4  79.8001
 57.1936  6314.68  79.6533
 57.2356  6308.44  79.9386
 57.2776  6258.56  79.5753
 57.3196  6209.88  79.6398
 57.3616  6291.96  79.6502
 57.4036  6289.82  79.6991
 57.4456  6284.61  79.6322
 57.4876  6320.03  79.71
 57.5296  6197.88  79.1773
 57.5716  6208.63  79.338
 57.6136  6195.32  79.0738
 57.6556  6216.25  79.3451
 57.6976  6247.03  79.3631
 57.7396  6147.3  79.0934
 57.7816  6141.47  79.4211
 57.8236  6162.76  79.3519
 57.8656  6225.74  79.4094
 57.9076  6172.15  79.1008
 57.9496  6257.86  79.9974
 57.9916  6237.38  79.3316
 58.0336  6151.41  79.1025
 58.0756  6279.99  79.5499
 58.1176  6246.06  79.3409
 58.1596  6208.21  79.6688
 58.2016  6357.04  79.8434
 58.2436  6290.54  79.8278
 58.2856  6296.01  79.7823
 58.3276  6267.44  79.9775
 58.3696  6213.03  79.3702
 58.4116  6250.41  79.4778
 58.4536  6221.95  79.1755
 58.4956  6210.47  79.2932
 58.5376  6265.3  79.2064
 58.5796  6174.97  79.0649
 58.6216  6345.3  79.9488
 58.6636  6253.83  79.5948
 58.7056  6169.98  78.9142
 58.7476  6200.76  79.5611
 58.7896  6194.4  79.1607
 58.8316  6187.1  79.1048
 58.8736  6363.29  80.2386
 58.9156  6169.54  79.0474
 58.9576  6331.61  80.2972
 58.9996  6347.95  79.7311
 59.0416  6419.77  80.5626
 59.0836  6162.97  78.8527
 59.1256  6245.53  79.782
 59.1676  6216.21  80.2145
 59.2096  6235.71  79.6579
 59.2516  6348.61  79.9462
 59.2936  6192.06  79.2866
 59.3356  6213.42  79.2992
 59.3776  6343.13  80.2959
 59.4196  6312.7  80.0361
 59.4616  6194.26  79.1414
 59.5036  6108.5  78.6269
 59.5456  6287.31  79.4567
 59.5876  6404.28  80.3892
 59.6296  6196  79.1414
 59.6716  6315.28  79.9588
 59.7136  6333.98  80.065
 59.7556  6360.19  80.3706
 59.7976  6305.11  79.7583
 59.8396  6280.47  79.4945
 59.8816  6211.12  79.6077
 59.9236  6270.89  79.6265
 59.9656  6251.39  79.7667
 60.0076  6267.71  79.2172
 60.0496  6318.3  80.0516
 60.0916  6272.29  79.1666
 60.1336  6209.13  79.8899
 60.1756  6217.39  81.1448
 60.1996  0.0000000E+00  0.0000000E+00