File: docs/examples/XRD/IS17_D/Data/IS17_D/17_Da_f00042.xye
# /beamlines/bl04/projects/cycle2025-II/20250340211-lsimonelli/DATA/IS17_D/17_Da_f00042.xye : mythproc.py merge -s 0.006 -l 0.5 -f /beamlines/bl04/inhouse/ff/FlatField/ff_20Nov2024rod8mm60s_17keV.raw -b True -c true -o xye /beamlines/bl04/projects/cycle2025-II/20250340211-lsimonelli/DATA/IS17_D/17_Da_00042.dat
# IsMon = [6746201, 6748987, 6750049]  IsPos = [-1.4999, -2.4885, -3.4986]
# Wave = 0.4962  CalPath /beamlines/bl04/projects/cycle2025-II/20250340211-lsimonelli/DATA/Align/Si_Pos1_25keV_f00001.cal
# Date = 2025-09-24_05:14:48 Dt = 4.8000  Bin = 0.0060  <imon> = 6748412 +/- 1623 (Min/Max) 6746201 / 6750049
# icurr 249.1162  mocoIn 1.7002E-05  mocoOut 0.7980  i15 7.06727e+06  imon 6.74841e+06  i7 5.0000  iEMpd_timer 4.8000  iEMpd_1 3.4828E-08  iEMpd_2 7.7808E-08  iEMpd_3 1.6733E-08  iEMpd_4 4.8407E-08  iEMhp_timer 4.8000  iEMhp_1 4.8701E-06  iEMhp_2 -2.6017E-08  iEMhp_3 -2.4606E-08  iEMhp_4 -2.1577E-08
#      9776
 1.5856  40594.6  206.923
 1.6276  47890.7  220.894
 1.6696  54770.2  235.394
 1.7116  63470  253.896
 1.7536  72599.7  270.387
 1.7956  77634.7  280.303
 1.8376  73222.2  272.653
 1.8796  61951.5  248.957
 1.9216  49683  223.828
 1.9636  42356.2  205.819
 2.0056  38019.3  194.241
 2.0476  35164.9  188.855
 2.0896  34422  185.754
 2.1316  33129.6  181.358
 2.1736  31317.4  177.726
 2.2156  31894.7  177.918
 2.2576  30866.9  175.655
 2.2996  29858  173.395
 2.3416  30112.4  172.741
 2.3836  29674.7  171.588
 2.4256  28634.6  169.103
 2.4676  28088.9  167.246
 2.5096  28129.8  167.423
 2.5516  27367.1  168.932
 2.5936  27623.3  166.306
 2.6356  26955.8  164.979
 2.6776  26898.4  163.693
 2.7196  26218.3  162.119
 2.7616  26364.1  162.344
 2.8036  25855.4  160.941
 2.8456  25966.7  161.904
 2.8876  25390  159.952
 2.9296  24941.9  158.685
 2.9716  25116.9  158.729
 3.0136  24612.1  157.19
 3.0556  24837.3  158.31
 3.0976  24548.3  156.323
 3.1396  24217.2  155.976
 3.1816  23904.9  154.897
 3.2236  24036.9  155.325
 3.2656  23784.1  153.54
 3.3076  23629.2  154.499
 3.3496  23960.6  154.761
 3.3916  24279.2  155.362
 3.4336  24609.3  156.994
 3.4756  24791.1  157.498
 3.5176  25472.5  159.451
 3.5596  25820.3  162.979
 3.6016  25918.8  160.883
 3.6436  24799.6  158.466
 3.6856  24630.4  156.222
 3.7276  23482.1  153.62
 3.7696  23363.9  153.422
 3.8116  22750.6  151.288
 3.8536  23014.8  152.099
 3.8956  22810.7  151.248
 3.9376  22771.6  151.398
 3.9796  22727.4  150.734
 4.0216  22761.1  149.886
 4.0636  22798.2  151.483
 4.1056  22870  151.357
 4.1476  23050.3  152.276
 4.1896  23120.2  152.358
 4.2316  23212.8  152.493
 4.2736  23689.4  153.834
 4.3156  23978.6  155.001
 4.3576  24543.2  156.744
 4.3996  25029.7  158.342
 4.4416  25404.9  159.317
 4.4836  25925.6  161.094
 4.5256  26270.9  162.78
 4.5676  26241.3  162.935
 4.6096  26710.8  163.054
 4.6516  27211.4  164.28
 4.6936  27374.5  165.575
 4.7356  27374.4  165.411
 4.7776  27465  165.514
 4.8196  27155.6  165.235
 4.8616  26712.6  163.489
 4.9036  26325.2  161.922
 4.9456  26432.6  162.898
 4.9876  25722.3  160.595
 5.0296  26116.8  161.628
 5.0716  26058.3  162.085
 5.1136  25974.9  161.68
 5.1556  26333.1  162.255
 5.1976  26759.7  163.57
 5.2396  26750.2  163.234
 5.2816  26849.2  163.997
 5.3236  26758.9  163.426
 5.3656  26506.7  163.571
 5.4076  26049.1  162.301
 5.4496  26275.9  162.493
 5.4916  26251  162.177
 5.5336  26215.9  162.074
 5.5756  25962.6  161.326
 5.6176  26209.7  161.527
 5.6596  26310.8  162.809
 5.7016  26682  163.218
 5.7436  26789.1  163.817
 5.7856  26705.5  163.624
 5.8276  26978.9  164.172
 5.8696  27036  164.521
 5.9116  26964.4  164.87
 5.9536  27274.9  165.607
 5.9956  27623.1  166.017
 6.0376  27599.6  166.586
 6.0796  27714.9  166.768
 6.1216  27843.4  167.35
 6.1636  28274  167.706
 6.2056  27994.8  167.526
 6.2476  28235.6  168.133
 6.2896  28503.6  168.61
 6.3316  28427.3  168.562
 6.3736  28591.9  168.94
 6.4156  28632.5  168.962
 6.4576  28757.8  168.935
 6.4996  29041.8  170.241
 6.5416  28672.9  169.296
 6.5836  28924.9  170.264
 6.6256  29138.7  170.46
 6.6676  29675.6  171.594
 6.7096  29423.9  171.713
 6.7516  29936  172.852
 6.7936  30152.8  172.662
 6.8356  30080.4  172.779
 6.8776  30480.5  174.717
 6.9196  30456.8  175.054
 6.9616  31158.3  176.469
 7.0036  31344.9  176.683
 7.0456  31510.8  176.445
 7.0876  31307.2  177.554
 7.1296  31415  177.003
 7.1716  31241.1  176.052
 7.2136  30868.5  174.784
 7.2556  31381.3  176.39
 7.2976  31223.6  176.441
 7.3396  31298.3  176.861
 7.3816  31095.8  176.503
 7.4236  31490.8  176.917
 7.4656  31472.2  176.349
 7.5076  31878.3  177.619
 7.5496  31714.3  177.693
 7.5916  31842.4  178.082
 7.6336  32104.7  178.713
 7.6756  32132  178.644
 7.7176  32640.6  180.361
 7.7596  32366.1  180.836
 7.8016  32848.3  184.344
 7.8436  33140.3  181.851
 7.8856  33707.7  183.014
 7.9276  34131.9  184.554
 7.9696  33867.5  184.146
 8.0116  35364.5  187.078
 8.0536  35268.5  186.716
 8.0956  35003  187.175
 8.1376  35644.7  188.358
 8.1796  35819.6  189.36
 8.2216  36659.7  190.307
 8.2636  36731.9  190.742
 8.3056  36976.6  192.146
 8.3476  37265.6  192.228
 8.3896  37300.3  192.838
 8.4316  37292.9  192.543
 8.4736  37233.4  191.857
 8.5156  36922.5  191.33
 8.5576  36848.6  192.107
 8.5996  36821.3  190.914
 8.6416  36500.2  191.332
 8.6836  36521.5  191.218
 8.7256  36988.7  191.889
 8.7676  36105.2  192.447
 8.8096  36379  190.516
 8.8516  35852.8  188.753
 8.8936  35505.5  187.734
 8.9356  35186.8  187.219
 8.9776  35740.9  188.783
 9.0196  35140.7  186.887
 9.0616  35472.2  187.246
 9.1036  34816.5  186.666
 9.1456  35138.1  186.877
 9.1876  35192.7  186.981
 9.2296  35011.1  185.899
 9.2716  34516.2  184.658
 9.3136  34622.5  184.923
 9.3556  34702.5  185.12
 9.3976  33079.1  181.258
 9.4396  33799.1  183.11
 9.4816  33263.9  181.525
 9.5236  33507.5  182.096
 9.5656  33289.1  181.808
 9.6076  32996.8  181.526
 9.6496  32860.7  181.092
 9.6916  32814.8  180.933
 9.7336  32645.7  180.253
 9.7756  32961.9  182.443
 9.8176  31894.8  178.904
 9.8596  31969.1  177.585
 9.9016  31716.5  176.877
 9.9436  31409.4  175.932
 9.9856  31263.4  175.736
 10.0276  30565  174.851
 10.0696  30857.1  174.745
 10.1116  29775.2  171.91
 10.1536  29921.2  172.494
 10.1956  29376.7  170.527
 10.2376  29121.1  169.308
 10.2796  29043.7  169.197
 10.3216  28851.7  168.898
 10.3636  29097.5  169.65
 10.4056  28455.4  168.145
 10.4476  28292.2  167.306
 10.4896  28131.9  166.299
 10.5316  27800.6  166.007
 10.5736  27590.8  165.778
 10.6156  26988.1  163.735
 10.6576  27537.2  163.981
 10.6996  27195.7  163.611
 10.7416  26862.3  162.843
 10.7836  26809.3  163.347
 10.8256  26454.1  162.682
 10.8676  26736.9  163.09
 10.9096  26199.4  161.487
 10.9516  25973.8  159.74
 10.9936  25981.4  159.96
 11.0356  25797  160.014
 11.0776  25692.9  159.017
 11.1196  25121.4  157.96
 11.1616  25249.8  158.064
 11.2036  25078.3  157.385
 11.2456  25274.5  158.69
 11.2876  24917.3  157.3
 11.3296  24785.1  156.785
 11.3716  24936.6  156.967
 11.4136  24974.2  157.958
 11.4556  24964.5  157.6
 11.4976  25048.1  156.867
 11.5396  25262.3  157.701
 11.5816  25689.7  159.481
 11.6236  26327.7  161.89
 11.6656  26250.4  160.59
 11.7076  25589.7  159.39
 11.7496  25145.6  161.897
 11.7916  24724.3  155.943
 11.8336  24398.3  155.809
 11.8756  24131.1  154.474
 11.9176  24383.7  155.182
 11.9596  23986.3  153.854
 12.0016  23942.8  154.499
 12.0436  23746.4  153.296
 12.0856  23694.6  153.647
 12.1276  23605.6  153.278
 12.1696  23731.2  152.828
 12.2116  23898.9  153.362
 12.2536  23586.1  153.177
 12.2956  23490.6  152.205
 12.3376  23326.1  151.888
 12.3796  23381.4  152.501
 12.4216  23519.8  152.195
 12.4636  23217.4  152.094
 12.5056  23556.6  152.5
 12.5476  23447.4  151.681
 12.5896  23485.6  152.421
 12.6316  23122.9  151.404
 12.6736  23362  152.498
 12.7156  23067.2  151.565
 12.7576  23353.8  152.733
 12.7996  23250.3  151.067
 12.8416  23259.1  152.128
 12.8836  23641.3  153.183
 12.9256  23819.7  152.812
 12.9676  24028.5  153.895
 13.0096  23688.8  153.894
 13.0516  23898.8  153.615
 13.0936  23786  153.661
 13.1356  24250.6  154.137
 13.1776  23988.3  154.28
 13.2196  24243.4  154.757
 13.2616  24068.2  154.496
 13.3036  24260.4  155.091
 13.3456  24089.9  154.69
 13.3876  24199.4  154.55
 13.4296  24157.8  154.563
 13.4716  24233.1  154.41
 13.5136  24075.4  154.068
 13.5556  24073.9  154.667
 13.5976  24120.3  154.964
 13.6396  24236.4  154.7
 13.6816  23955.8  154.292
 13.7236  24667.4  156.2
 13.7656  23715.9  153.704
 13.8076  24095.2  153.719
 13.8496  23629.5  152.823
 13.8916  23838.4  154.484
 13.9336  23658.8  153.135
 13.9756  23595  152.288
 14.0176  23502  152.66
 14.0596  23493.5  152.6
 14.1016  23342.2  152.501
 14.1436  23028  150.62
 14.1856  22808.1  150.186
 14.2276  22571.2  149.879
 14.2696  22840.9  150.616
 14.3116  22516.8  149.437
 14.3536  22306.9  148.924
 14.3956  22085.2  147.911
 14.4376  22359.9  148.604
 14.4796  22258  148.264
 14.5216  21911  147.892
 14.5636  21805.9  147.098
 14.6056  21879  146.93
 14.6476  21748.8  145.735
 14.6896  21459.6  145.3
 14.7316  21016.6  144.797
 14.7736  20945.1  143.716
 14.8156  20828.4  143.349
 14.8576  20922.8  143.525
 14.8996  20384.9  142.863
 14.9416  20128.9  141.954
 14.9836  20019.5  141.538
 15.0256  19983.1  140.334
 15.0676  19902.3  140.365
 15.1096  19866.3  139.977
 15.1516  19480.7  139.169
 15.1936  19609.4  139.051
 15.2356  19332.4  138.342
 15.2776  18967.1  136.62
 15.3196  18529  136.019
 15.3616  18738.8  136.543
 15.4036  18547.8  135.7
 15.4456  18760.6  135.909
 15.4876  18626.9  135.334
 15.5296  18399.6  134.787
 15.5716  18288.3  133.985
 15.6136  18121.2  133.689
 15.6556  18171.8  133.128
 15.6976  18159  133.154
 15.7396  17854.4  132.634
 15.7816  17763.2  131.811
 15.8236  17465.9  131.391
 15.8656  17583.4  131.628
 15.9076  17238.6  130.161
 15.9496  17234.9  132.907
 15.9916  17274  133.495
 16.0336  16885.1  128.931
 16.0756  17038.4  129.817
 16.1176  16847.6  129.16
 16.1596  16338.6  128.343
 16.2016  16771.9  128.783
 16.2436  16596.5  128.5
 16.2856  16375  127.188
 16.3276  16044.5  126.307
 16.3696  16396  127.505
 16.4116  16116  126.864
 16.4536  16260.6  127.207
 16.4956  16107.4  126.363
 16.5376  16040  126.279
 16.5796  15996.8  125.483
 16.6216  15977  125.703
 16.6636  15940.5  125.705
 16.7056  16019.9  125.893
 16.7476  15965  125.348
 16.7896  15910  125.735
 16.8316  15831.2  125.387
 16.8736  15900.6  125.921
 16.9156  15868.6  126.122
 16.9576  15760.3  126.48
 16.9996  15849.2  127.319
 17.0416  15940.4  126.05
 17.0836  15831.4  125.376
 17.1256  15906.5  125.696
 17.1676  15692  124.84
 17.2096  15545.8  124.134
 17.2516  15466.1  123.599
 17.2936  15456.4  123.886
 17.3356  15217.6  122.93
 17.3776  15241.9  123.211
 17.4196  15172.8  122.625
 17.4616  15216.5  122.728
 17.5036  14936.3  121.945
 17.5456  14614.5  121.26
 17.5876  14770.6  120.965
 17.6296  14673.6  120.387
 17.6716  14546.4  120.426
 17.7136  14345.8  119.737
 17.7556  14154.8  119.217
 17.7976  14208.9  119.059
 17.8396  14121.4  118.33
 17.8816  14341.6  119.787
 17.9236  14325.9  119.535
 17.9656  14247.3  119.895
 18.0076  14194  119.097
 18.0496  14218.7  118.352
 18.0916  14114.4  118.441
 18.1336  14018.7  118.133
 18.1756  14187.5  118.386
 18.2176  13921  117.489
 18.2596  13881.2  117.063
 18.3016  14141  118.404
 18.3436  14159.1  118.71
 18.3856  13754.2  116.908
 18.4276  13832.8  116.922
 18.4696  13839.3  117.048
 18.5116  13906.7  117.612
 18.5536  14062  118.617
 18.5956  13691.1  116.608
 18.6376  13750  117.257
 18.6796  13722.8  116.473
 18.7216  13753.1  117.156
 18.7636  13481.7  115.914
 18.8056  13683  116.715
 18.8476  13510.9  116.292
 18.8896  13641.9  116.502
 18.9316  13817.9  117.07
 18.9736  13515.7  115.652
 19.0156  13690.5  116.771
 19.0576  13540.5  115.048
 19.0996  13597  115.982
 19.1416  13411.2  115.57
 19.1836  13550.3  115.774
 19.2256  13382.9  115.257
 19.2676  13470.6  115.728
 19.3096  13577.2  116.429
 19.3516  13470.6  115.925
 19.3936  13576.4  116.348
 19.4356  13552.2  116.058
 19.4776  13434.9  115.653
 19.5196  13536.8  115.942
 19.5616  13436.2  115.758
 19.6036  13422.9  115.069
 19.6456  13368  115.092
 19.6876  13501.7  115.32
 19.7296  13286.8  114.844
 19.7716  13415.8  115.411
 19.8136  13378.4  115.605
 19.8556  13760.5  116.723
 19.8976  13492.2  115.645
 19.9396  13668.7  115.981
 19.9816  13740.2  116.521
 20.0236  13758  116.813
 20.0656  14081.1  118.169
 20.1076  14130.1  118.846
 20.1496  14302.2  119.569
 20.1916  14533.3  120.036
 20.2336  14680.7  120.578
 20.2756  14386.6  119.799
 20.3176  13889.3  117.456
 20.3596  13905  117.488
 20.4016  13603.6  116.017
 20.4436  13590.9  116.535
 20.4856  13216.8  114.703
 20.5276  13249  115.302
 20.5696  13196.5  114.54
 20.6116  13173.9  114.712
 20.6536  13061.5  113.784
 20.6956  13039.4  113.762
 20.7376  13051.7  114.035
 20.7796  12931.5  113.207
 20.8216  13112.3  113.706
 20.8636  12861.4  112.973
 20.9056  12852.5  112.886
 20.9476  12668.8  111.922
 20.9896  12919.4  112.885
 21.0316  12894.3  112.676
 21.0736  12850  112.993
 21.1156  12838  113.098
 21.1576  12865.4  113.267
 21.1996  12759.4  112.785
 21.2416  12707  112.389
 21.2836  12875.5  113.097
 21.3256  12571  111.834
 21.3676  12740.6  112.135
 21.4096  12675.3  112.155
 21.4516  12496  111.241
 21.4936  12518.8  111.574
 21.5356  12616.1  111.971
 21.5776  12649.3  111.948
 21.6196  12459.7  111.141
 21.6616  12479.6  111.319
 21.7036  12537.3  111.361
 21.7456  12457.5  111.078
 21.7876  12495.2  111.001
 21.8296  12497.4  110.865
 21.8716  12470.5  110.979
 21.9136  12639.1  111.925
 21.9556  12444.3  110.736
 21.9976  12467.5  110.857
 22.0396  12342.6  110.539
 22.0816  12475.1  111.67
 22.1236  12399.5  110.798
 22.1656  12336.4  110.675
 22.2076  12502.9  110.852
 22.2496  12567.3  111.166
 22.2916  12393.1  110.274
 22.3336  12428.6  111.129
 22.3756  12501.4  111.2
 22.4176  12303.9  110.175
 22.4596  12238  110.458
 22.5016  12523.1  111.221
 22.5436  12490.1  110.971
 22.5856  12394.5  110.79
 22.6276  12263.2  110.339
 22.6696  12456.1  111.548
 22.7116  12222.3  110.019
 22.7536  12514.4  111.297
 22.7956  12331.4  109.83
 22.8376  12257.6  110.006
 22.8796  12312.9  110.059
 22.9216  12423.7  111.097
 22.9636  12489.2  110.545
 23.0056  12281.5  109.751
 23.0476  12581.9  111.662
 23.0896  12580.6  111.033
 23.1316  12569.9  111.42
 23.1736  12137.2  112.384
 23.2156  12543.5  111.559
 23.2576  12311.4  110.73
 23.2996  12423.5  111.017
 23.3416  12365  111.277
 23.3836  12474.3  110.976
 23.4256  12458.8  111.042
 23.4676  12392.2  110.451
 23.5096  12370.7  111.025
 23.5516  12231.4  109.682
 23.5936  12514.9  111.841
 23.6356  12435.5  111.173
 23.6776  12385.6  111.49
 23.7196  12278.8  110.247
 23.7616  12418.1  110.793
 23.8036  12512  111.267
 23.8456  12399  110.32
 23.8876  12001.3  108.891
 23.9296  11974.5  109.238
 23.9716  12267  109.776
 24.0136  12189  110.315
 24.0556  12107.7  109.683
 24.0976  12063.3  109.285
 24.1396  11795.9  110.676
 24.1816  12030.9  110.536
 24.2236  11906.5  109.254
 24.2656  11743.2  107.983
 24.3076  11638.4  107.745
 24.3496  11750.6  108.153
 24.3916  11763.8  108.262
 24.4336  11474.8  107.132
 24.4756  11616  107.649
 24.5176  11467.2  106.622
 24.5596  11475.6  106.783
 24.6016  11427.1  106.845
 24.6436  11549.9  106.916
 24.6856  11483  106.363
 24.7276  11466.9  106.596
 24.7696  11266.4  105.779
 24.8116  11315.3  106.183
 24.8536  11234.2  105.8
 24.8956  11143.8  105.114
 24.9376  11214.4  105.388
 24.9796  10973.6  104.6
 25.0216  10984.5  104.763
 25.0636  11108.3  105.005
 25.1056  11159.3  105.67
 25.1476  11201.6  107.79
 25.1896  11002.5  105.334
 25.2316  11071.1  104.826
 25.2736  10985  104.191
 25.3156  10910.4  103.91
 25.3576  10985.4  104.683
 25.3996  10901.8  104.27
 25.4416  10810.5  103.809
 25.4836  10696.4  103.779
 25.5256  10859.7  103.938
 25.5676  10908.3  103.902
 25.6096  10712  103.526
 25.6516  10787.7  103.399
 25.6936  10729.2  103.424
 25.7356  10863.6  104.21
 25.7776  10771.7  103.372
 25.8196  10627.5  102.915
 25.8616  10788.7  103.607
 25.9036  10854.3  103.403
 25.9456  10685.6  103.183
 25.9876  10618.9  102.924
 26.0296  10766.7  103.238
 26.0716  10588  102.709
 26.1136  10700.9  103.196
 26.1556  10832.8  103.125
 26.1976  10589.9  102.965
 26.2396  10636.7  102.608
 26.2816  10677.2  103.154
 26.3236  10724.8  103.462
 26.3656  10436.4  101.878
 26.4076  10741.1  103.553
 26.4496  11091.7  104.731
 26.4916  10680.6  102.763
 26.5336  10715.5  103.257
 26.5756  11018.3  104.568
 26.6176  10624.3  102.728
 26.6596  10486.2  102.36
 26.7016  10538.5  102.419
 26.7436  10359.3  101.636
 26.7856  10280.5  101.23
 26.8276  10360.3  101.577
 26.8696  10607.9  102.66
 26.9116  10349.2  101.336
 26.9536  10329  101.286
 26.9956  10283.8  101.097
 27.0376  10258.8  101.186
 27.0796  10320.2  101.27
 27.1216  10151.4  100.472
 27.1636  10169.3  100.723
 27.2056  10249.9  101
 27.2476  10279.9  101.151
 27.2896  10210.7  100.847
 27.3316  10080.1  99.9876
 27.3736  10116.4  100.43
 27.4156  10045.5  99.9276
 27.4576  10067  100.256
 27.4996  9922.28  99.1426
 27.5416  10053.8  100.107
 27.5836  10094  100.126
 27.6256  10361.7  101.616
 27.6676  10232  100.991
 27.7096  9979.34  99.6087
 27.7516  9864.96  99.1766
 27.7936  9960.48  99.8267
 27.8356  9900.67  99.1492
 27.8776  9791.21  98.6529
 27.9196  9857.1  98.8351
 27.9616  9868.58  99.074
 28.0036  9789.51  98.66
 28.0456  9833.6  99.0029
 28.0876  9769.98  98.7759
 28.1296  9797.66  98.7574
 28.1716  9793.51  98.7467
 28.2136  9817.03  98.8328
 28.2556  9693.21  98.3208
 28.2976  9803.25  98.8623
 28.3396  9824.91  98.7702
 28.3816  9842.89  98.8458
 28.4236  9718.02  98.3675
 28.4656  9681.65  98.2203
 28.5076  9794.36  98.4233
 28.5496  9675.67  98.09
 28.5916  9818.8  98.6238
 28.6336  9675.19  98.2415
 28.6756  9668.4  97.4148
 28.7176  9560.04  97.4053
 28.7596  9512.05  97.0612
 28.8016  9671.55  97.9856
 28.8436  9338.12  96.4388
 28.8856  9634.58  97.8086
 28.9276  9631.61  98.033
 28.9696  9411.52  96.5771
 29.0116  9383.27  96.5993
 29.0536  9475.67  97.2831
 29.0956  9556.72  97.4172
 29.1376  9446.07  96.8171
 29.1796  9417.95  96.7212
 29.2216  9424.66  96.5961
 29.2636  9645.28  97.7188
 29.3056  9404.29  96.3611
 29.3476  9426.83  96.9922
 29.3896  9570.46  97.823
 29.4316  9606.71  97.3459
 29.4736  9588.47  97.3159
 29.5156  9552.81  97.0552
 29.5576  9495.06  97.4939
 29.5996  9443.37  96.4966
 29.6416  9426.56  96.5318
 29.6836  9586.07  97.2693
 29.7256  9432.77  97.0485
 29.7676  9404.89  96.5669
 29.8096  9394.77  96.4596
 29.8516  9195.4  95.7591
 29.8936  9456.39  97.198
 29.9356  9453.98  96.9452
 29.9776  9329.35  96.4569
 30.0196  9371.91  96.0693
 30.0616  9414.28  96.6587
 30.1036  9333.21  96.0698
 30.1456  9358.95  96.4538
 30.1876  9327.11  96.2487
 30.2296  9268.74  95.8911
 30.2716  9404.13  96.2307
 30.3136  9295.81  96.2617
 30.3556  9328.31  96.7088
 30.3976  9188.47  97.4731
 30.4396  9311.14  95.5001
 30.4816  9271.44  94.8984
 30.5236  9128.72  94.1865
 30.5656  9257.64  95.4894
 30.6076  9157.36  94.414
 30.6496  9166.89  94.8302
 30.6916  9069.18  94.4192
 30.7336  9148.53  94.985
 30.7756  9135.1  95.2168
 30.8176  9155.02  95.0245
 30.8596  9142.57  94.7318
 30.9016  9120.66  94.9572
 30.9436  9256.54  95.4183
 30.9856  9179.72  95.1305
 31.0276  9271.75  95.2117
 31.0696  9024.58  94.3738
 31.1116  9151.18  95.1382
 31.1536  9185.62  95.1982
 31.1956  9188.59  95.3006
 31.2376  9053.7  94.6101
 31.2796  9035.63  94.0598
 31.3216  9098.18  94.3318
 31.3636  9179.29  95.4355
 31.4056  9144.8  96.5566
 31.4476  9134.61  94.4127
 31.4896  8873.41  93.5498
 31.5316  8997.11  93.6514
 31.5736  9137.04  94.1489
 31.6156  8953.11  93.2197
 31.6576  9121.06  94.1865
 31.6996  8980.81  93.1445
 31.7416  8858.34  93.5418
 31.7836  9086.23  93.762
 31.8256  8968.69  93.4939
 31.8676  9084.54  94.0164
 31.9096  8890.53  93.3535
 31.9516  8854  93.3261
 31.9936  8835.23  93.0494
 32.0356  8826.56  93.0738
 32.0776  8899.44  93.3441
 32.1196  8906.58  93.4573
 32.1616  8872.66  92.7602
 32.2036  8797.6  92.8707
 32.2456  8793.07  93.2178
 32.2876  8820.61  92.6987
 32.3296  8938.89  93.4526
 32.3716  8788.39  92.7582
 32.4136  8826.67  93.1675
 32.4556  8943.48  93.2334
 32.4976  8964.47  93.1827
 32.5396  8864.16  92.7387
 32.5816  8834.17  92.5994
 32.6236  8764.13  92.4024
 32.6656  8966.7  93.9976
 32.7076  8732.02  92.4243
 32.7496  8845.41  92.6872
 32.7916  8797.85  92.3999
 32.8336  8793.17  92.4747
 32.8756  8848.23  92.5836
 32.9176  8760.24  92.5018
 32.9596  8699.14  92.2514
 33.0016  8731.97  92.2216
 33.0436  8856.57  93.0473
 33.0856  8737.41  92.4906
 33.1276  8641.82  91.7194
 33.1696  8694.91  91.8492
 33.2116  8783.79  92.5411
 33.2536  8796.27  92.6119
 33.2956  8728.4  92.3307
 33.3376  8552.97  91.1131
 33.3796  8673.93  91.9945
 33.4216  8723.02  91.8504
 33.4636  8818.97  92.4996
 33.5056  8620.15  91.5308
 33.5476  8598.67  91.5719
 33.5896  8804.61  92.4075
 33.6316  8662.97  92.0042
 33.6736  8685.15  92.364
 33.7156  8649.32  92.2103
 33.7576  8806.55  92.6712
 33.7996  8785.81  92.3331
 33.8416  8485.31  90.9214
 33.8836  8645.6  91.5472
 33.9256  8542.07  91.0705
 33.9676  8630.28  91.4272
 34.0096  8496.94  91.0346
 34.0516  8608  91.2693
 34.0936  8582.58  91.399
 34.1356  8568.29  91.0649
 34.1776  8489.23  90.6508
 34.2196  8493.01  90.8524
 34.2616  8514.17  91.157
 34.3036  8477.53  91.1521
 34.3456  8487.97  90.96
 34.3876  8443.28  90.6893
 34.4296  8453.85  90.437
 34.4716  8644.26  91.5985
 34.5136  8470.61  90.8782
 34.5556  8327.68  90.3441
 34.5976  8423.2  90.6797
 34.6396  8506.18  90.8354
 34.6816  8360.99  90.1728
 34.7236  8487.09  90.6336
 34.7656  8485.21  90.8184
 34.8076  8421.06  90.789
 34.8496  8382.3  90.437
 34.8916  8385.73  90.3347
 34.9336  8489.74  90.8469
 34.9756  8626.13  91.4873
 35.0176  8427.34  90.9724
 35.0596  8397.34  90.6354
 35.1016  8297.73  89.8666
 35.1436  8474.83  90.5101
 35.1856  8295.51  89.6696
 35.2276  8346.2  90.1149
 35.2696  8365.59  90.4113
 35.3116  8340.54  90.3679
 35.3536  8338.73  90.0749
 35.3956  8266.62  89.3946
 35.4376  8311.24  90.1935
 35.4796  8366.19  90.5429
 35.5216  8287.59  90.0036
 35.5636  8106.95  89.8194
 35.6056  8347.49  90.1621
 35.6476  8344.58  90.0472
 35.6896  8283.85  89.8815
 35.7316  8202.54  89.3235
 35.7736  8219.96  89.6278
 35.8156  8166.08  89.3299
 35.8576  8167.14  89.5821
 35.8996  8392.56  90.7754
 35.9416  8330.21  89.9493
 35.9836  8200.31  89.5902
 36.0256  8310.29  90.2084
 36.0676  8246.54  89.4045
 36.1096  8021.45  88.5243
 36.1516  8230.9  89.5645
 36.1936  8115.46  88.7819
 36.2356  8227.4  90.0275
 36.2776  8121.13  88.9362
 36.3196  8232.05  89.2147
 36.3616  8187.9  89.1007
 36.4036  8240.82  89.4403
 36.4456  8133.64  89.0707
 36.4876  8017.7  88.3735
 36.5296  8133.8  89.0516
 36.5716  8171.54  90.0347
 36.6136  8218.21  89.0638
 36.6556  8323.24  89.8363
 36.6976  8116.72  89.2067
 36.7396  8149.59  89.2103
 36.7816  8144.5  89.4642
 36.8236  8163.78  89.4907
 36.8656  7978.08  88.5405
 36.9076  8103.85  89.2411
 36.9496  8085.77  89.1523
 36.9916  8123.66  88.8425
 37.0336  8263.53  89.9197
 37.0756  8284.29  89.824
 37.1176  7942.61  88.3091
 37.1596  8148.62  89.357
 37.2016  8014.38  88.7977
 37.2436  8110.38  88.6976
 37.2856  8079.41  88.7808
 37.3276  8038.39  87.9121
 37.3696  8044.03  88.8224
 37.4116  8020.99  88.5995
 37.4536  7972.61  88.2023
 37.4956  7915.39  87.9182
 37.5376  8052.72  90.2436
 37.5796  7958.88  89.6726
 37.6216  7916.23  87.7044
 37.6636  7783.32  86.8804
 37.7056  7743.73  86.8376
 37.7476  7915.19  87.346
 37.7896  7909.46  87.798
 37.8316  7752.23  87.1011
 37.8736  8000.95  88.0058
 37.9156  7918.89  87.5599
 37.9576  7928.49  87.6381
 37.9996  7729.6  86.1129
 38.0416  7798.41  87.301
 38.0836  7936.22  87.9781
 38.1256  7891.25  87.6864
 38.1676  7658.56  86.5187
 38.2096  7761.58  86.7323
 38.2516  8007.77  88.2013
 38.2936  7812.44  87.0137
 38.3356  7948.91  87.6866
 38.3776  7794.25  87.1003
 38.4196  7853.19  87.2831
 38.4616  7807.96  87.2676
 38.5036  7924.71  87.7586
 38.5456  7738.79  87.549
 38.5876  7790.38  87.8622
 38.6296  7656.75  86.1133
 38.6716  7663.11  85.9419
 38.7136  7670.54  85.9306
 38.7556  7759.85  86.9249
 38.7976  7694.17  86.499
 38.8396  7782.78  87.4434
 38.8816  7752.6  87.0418
 38.9236  7697.22  86.5581
 38.9656  7720.67  86.6033
 39.0076  7730.33  86.0741
 39.0496  7726.77  86.5847
 39.0916  7736.72  86.2891
 39.1336  7679.01  86.3796
 39.1756  7721.52  86.6824
 39.2176  7737.37  87.2954
 39.2596  7716.48  87.1022
 39.3016  7727.44  86.7379
 39.3436  7641.04  86.6737
 39.3856  7831.4  87.1986
 39.4276  7743  87.1976
 39.4696  7781.6  87.0412
 39.5116  7622.11  86.6407
 39.5536  7806.99  88.1138
 39.5956  7820.48  87.2911
 39.6376  7729.82  86.6246
 39.6796  7727.47  86.5214
 39.7216  7865.15  87.3809
 39.7636  7830.37  87.7519
 39.8056  7711.14  86.8701
 39.8476  7627.5  86.6492
 39.8896  7719.25  86.8093
 39.9316  7714.81  87.0292
 39.9736  7821.88  87.1999
 40.0156  7746.36  86.6063
 40.0576  7812.12  87.3299
 40.0996  7790.66  86.3978
 40.1416  7793.25  87.2003
 40.1836  7795.7  87.1037
 40.2256  7831.45  87.3504
 40.2676  7615.22  86.242
 40.3096  7943.03  87.9949
 40.3516  7843.05  87.629
 40.3936  7794.58  86.8492
 40.4356  7744.22  86.7623
 40.4776  7907.8  88.0753
 40.5196  7845.18  87.8574
 40.5616  7807.23  87.2934
 40.6036  7777.64  87.3706
 40.6456  7886.84  87.5964
 40.6876  7949.47  87.9305
 40.7296  7893.19  87.7565
 40.7716  7815.24  87.4465
 40.8136  7787.66  87.2353
 40.8556  7802.15  87.453
 40.8976  7814.93  87.4465
 40.9396  7724.13  87.2829
 40.9816  7918.45  87.6561
 41.0236  7861.33  87.1179
 41.0656  7922.33  87.9945
 41.1076  7875.04  87.5072
 41.1496  7944.88  87.8075
 41.1916  7818.42  87.4243
 41.2336  7789.38  87.257
 41.2756  7768.44  86.7447
 41.3176  7849.71  87.8096
 41.3596  7789.74  87.2036
 41.4016  7831.76  87.6912
 41.4436  7837.2  87.5163
 41.4856  7835  87.6582
 41.5276  7781.16  87.3799
 41.5696  7823.91  87.2338
 41.6116  7765.22  87.3217
 41.6536  7750.5  87.0948
 41.6956  7705.25  86.8961
 41.7376  7694.16  86.8645
 41.7796  7799.92  87.3833
 41.8216  7756.14  87.3276
 41.8636  7785.03  87.427
 41.9056  7689.99  86.6797
 41.9476  7663.95  86.7717
 41.9896  7760.07  86.9802
 42.0316  7804.2  87.3136
 42.0736  7783.77  87.3075
 42.1156  7642.57  86.3506
 42.1576  7686.38  86.6944
 42.1996  7733.21  87.1024
 42.2416  7741.44  86.7313
 42.2836  7583.87  85.9532
 42.3256  7549.67  85.8753
 42.3676  7680.2  86.4241
 42.4096  7809.28  87.106
 42.4516  7695.43  86.5568
 42.4936  7699.57  86.648
 42.5356  7721.85  86.9026
 42.5776  7867.14  87.6555
 42.6196  7714.2  86.7722
 42.6616  7589.47  86.3209
 42.7036  7713.82  86.4134
 42.7456  7675.68  86.5558
 42.7876  7580.39  86.1154
 42.8296  7752.74  86.9823
 42.8716  7535.83  85.8511
 42.9136  7631.56  86.1851
 42.9556  7626.44  86.2871
 42.9976  7669.72  86.4924
 43.0396  7700.77  86.4056
 43.0816  7548.77  85.915
 43.1236  7461.53  85.4799
 43.1656  7653.29  86.4017
 43.2076  7608.75  86.2505
 43.2496  7566.8  85.8266
 43.2916  7544.78  86.0693
 43.3336  7675.03  86.6466
 43.3756  7568.07  85.7952
 43.4176  7437.81  85.1364
 43.4596  7584.18  85.8266
 43.5016  7526.95  85.9029
 43.5436  7516.17  85.7433
 43.5856  7505.03  85.6994
 43.6276  7532.13  85.7564
 43.6696  7555.18  86.0257
 43.7116  7690.69  86.4101
 43.7536  7552.57  86.1128
 43.7956  7495.89  86.9692
 43.8376  7549.88  85.8295
 43.8796  7461.38  85.4048
 43.9216  7434.67  85.1729
 43.9636  7558.16  85.9835
 44.0056  7485.98  85.8008
 44.0476  7384.32  84.8471
 44.0896  7381.93  85.177
 44.1316  7521.62  85.6428
 44.1736  7505.6  85.5364
 44.2156  7520.93  85.4713
 44.2576  7424.43  85.2492
 44.2996  7509.44  85.7051
 44.3416  7376.3  84.7091
 44.3836  7330.94  84.7663
 44.4256  7310.5  84.3022
 44.4676  7261.97  84.1763
 44.5096  7455.84  85.4352
 44.5516  7365.36  84.8695
 44.5936  7320.46  84.5763
 44.6356  7361.26  84.5519
 44.6776  7311.53  84.5805
 44.7196  7436.88  85.5702
 44.7616  7392.81  86.6698
 44.8036  7243.32  84.2362
 44.8456  7326.99  84.9325
 44.8876  7383.18  85.1091
 44.9296  7415.03  84.7478
 44.9716  7284.38  84.4293
 45.0136  7341.55  84.69
 45.0556  7302.28  84.441
 45.0976  7225.71  84.1542
 45.1396  7113.62  83.2598
 45.1816  7309.85  84.1712
 45.2236  7256.17  83.9319
 45.2656  7267.24  84.4902
 45.3076  7226.55  84.0376
 45.3496  7135.62  83.8058
 45.3916  7220.58  84.5691
 45.4336  7278.46  84.7579
 45.4756  7196.79  84.134
 45.5176  7201.84  83.7894
 45.5596  7256.34  84.2265
 45.6016  7198.9  84.3022
 45.6436  7132.67  83.1138
 45.6856  7099.07  83.5587
 45.7276  7189.77  85.8913
 45.7696  7120.15  84.64
 45.8116  7214.37  84.652
 45.8536  7079.33  83.7482
 45.8956  7128.44  83.4095
 45.9376  7232.15  83.487
 45.9796  7198.47  83.9789
 46.0216  7111.02  83.7925
 46.0636  7275.18  83.9
 46.1056  7204.02  83.4808
 46.1476  7201.31  84.0487
 46.1896  7080.55  83.488
 46.2316  7184.66  83.9744
 46.2736  6980  83.1244
 46.3156  7174.08  83.8642
 46.3576  7148.64  83.9107
 46.3996  7026.49  83.3509
 46.4416  7171.44  83.7897
 46.4836  7169.75  84.1321
 46.5256  7119.65  83.7763
 46.5676  7076.84  83.6357
 46.6096  7217.88  84.3897
 46.6516  7197.12  83.3347
 46.6936  7207.34  83.8724
 46.7356  7148.29  83.6403
 46.7776  7053.6  83.9018
 46.8196  7029.11  83.3626
 46.8616  6915.55  82.6256
 46.9036  6903.14  82.2211
 46.9456  6971.48  82.2791
 46.9876  7014.67  82.6192
 47.0296  7021.51  83.334
 47.0716  6957.92  82.782
 47.1136  6983.96  82.6261
 47.1556  7039.07  82.8085
 47.1976  7101.76  83.2591
 47.2396  6976.64  82.9169
 47.2816  6923.78  82.3108
 47.3236  6946.16  82.8059
 47.3656  7007.56  83.099
 47.4076  6917.08  82.3699
 47.4496  6965.51  82.7455
 47.4916  6861.19  82.3068
 47.5336  6961.78  82.7381
 47.5756  6946.5  82.7163
 47.6176  6797.41  81.7653
 47.6596  6986.67  82.6145
 47.7016  7107.24  83.1408
 47.7436  6944.18  82.5087
 47.7856  6948.86  82.5699
 47.8276  6889.45  82.2638
 47.8696  6882.53  82.3088
 47.9116  6924.35  82.276
 47.9536  6896.96  82.0529
 47.9956  6908.51  82.8186
 48.0376  6781.77  81.8345
 48.0796  6935.27  82.8845
 48.1216  6932.92  82.6927
 48.1636  7032.99  82.8672
 48.2056  6889.3  82.2731
 48.2476  7005.86  83.2682
 48.2896  6840.06  82.1911
 48.3316  6838.9  82.1276
 48.3736  6840.27  82.1615
 48.4156  6852.84  82.0833
 48.4576  6786.27  81.9748
 48.4996  6867.07  81.9285
 48.5416  6967.89  82.8507
 48.5836  6973.89  82.561
 48.6256  6866.48  82.1283
 48.6676  6840.21  82.4775
 48.7096  6911.75  82.1779
 48.7516  6783.47  81.5648
 48.7936  6774.39  81.5692
 48.8356  6774.84  81.6206
 48.8776  6768.57  82.0587
 48.9196  6866.01  82.1125
 48.9616  6754.53  81.811
 49.0036  6811.66  82.5056
 49.0456  6698.44  81.7904
 49.0876  6764.15  81.8335
 49.1296  6691.34  81.4521
 49.1716  6688.88  81.3088
 49.2136  6751.18  81.6273
 49.2556  6770.65  81.7736
 49.2976  6730.16  81.5995
 49.3396  6813.13  82.1473
 49.3816  6808.96  81.5747
 49.4236  6719.9  81.445
 49.4656  6640.8  80.9788
 49.5076  6740.98  81.3446
 49.5496  6674.27  80.8788
 49.5916  6841.28  81.9299
 49.6336  6766.72  81.6737
 49.6756  6615.12  80.9938
 49.7176  6678.26  81.3146
 49.7596  6748.26  81.6861
 49.8016  6824.8  81.8822
 49.8436  6654.89  81.1516
 49.8856  6552.15  80.5325
 49.9276  6576.28  80.7801
 49.9696  6793.25  82.0829
 50.0116  6636.46  81.2558
 50.0536  6588.6  80.9122
 50.0956  6549.26  80.7434
 50.1376  6673.6  81.2102
 50.1796  6690.21  81.5746
 50.2216  6691.49  81.5717
 50.2636  6714.58  81.3441
 50.3056  6590.02  80.7527
 50.3476  6673.7  81.2911
 50.3896  6518.61  80.3075
 50.4316  6576.3  80.5052
 50.4736  6557.4  80.5993
 50.5156  6573.7  80.6792
 50.5576  6651.88  80.9299
 50.5996  6625.72  81.0512
 50.6416  6597  80.8053
 50.6836  6620.14  81.0009
 50.7256  6608.52  80.8651
 50.7676  6662.75  81.4667
 50.8096  6466.66  79.842
 50.8516  6527.79  80.6281
 50.8936  6427.41  79.7896
 50.9356  6582.44  80.8545
 50.9776  6608.12  81.1574
 51.0196  6354.14  79.7077
 51.0616  6398.32  79.3321
 51.1036  6522.08  80.4408
 51.1456  6469.73  80.034
 51.1876  6546.18  79.8618
 51.2296  6537.19  80.4258
 51.2716  6395.72  79.2619
 51.3136  6436.4  79.9637
 51.3556  6407.92  79.4223
 51.3976  6373.09  79.3532
 51.4396  6375.51  79.6644
 51.4816  6512.82  80.376
 51.5236  6410.25  79.814
 51.5656  6425.26  79.5284
 51.6076  6506.58  80.1111
 51.6496  6472.21  80.0853
 51.6916  6341.73  79.616
 51.7336  6424.59  80.2268
 51.7756  6384.15  79.6814
 51.8176  6489.67  80.431
 51.8596  6509.17  80.5768
 51.9016  6641.69  81.0052
 51.9436  6346.45  80.6224
 51.9856  6319.86  80.8592
 52.0276  6424.42  80.0637
 52.0696  6363.79  79.7515
 52.1116  6280.39  79.333
 52.1536  6407.91  80.0327
 52.1956  6381.52  79.3293
 52.2376  6533.61  80.4504
 52.2796  6442.36  79.6873
 52.3216  6242.42  79.1267
 52.3636  6442.15  79.9657
 52.4056  6356.29  79.2883
 52.4476  6334.56  79.5119
 52.4896  6322.05  79.4855
 52.5316  6379.87  79.8958
 52.5736  6278.22  78.9819
 52.6156  6431.27  80.3235
 52.6576  6454.69  79.9162
 52.6996  6276.01  79.7523
 52.7416  6333.25  79.9652
 52.7836  6271.72  79.465
 52.8256  6312.23  78.961
 52.8676  6101.62  78.1954
 52.9096  6271.78  79.3516
 52.9516  6339.16  80.1415
 52.9936  6295.43  80.2517
 53.0356  6235.91  78.8991
 53.0776  6143.33  78.5871
 53.1196  6224.91  79.2087
 53.1616  6070.88  78.2687
 53.2036  6108.26  78.4665
 53.2456  6159.23  78.8922
 53.2876  6081.4  78.1054
 53.3296  6215.1  79.2787
 53.3716  6203.39  78.9541
 53.4136  6150.98  78.7687
 53.4556  6155.62  78.8247
 53.4976  6142.13  78.5898
 53.5396  6118.78  78.8231
 53.5816  6160.84  78.7387
 53.6236  6168.88  79.1235
 53.6656  6104.13  78.3446
 53.7076  6120.8  78.4154
 53.7496  6170.61  78.8507
 53.7916  6146.44  78.8223
 53.8336  6032.74  77.9845
 53.8756  6053.54  78.657
 53.9176  6068.27  78.1183
 53.9596  6195.78  79.6815
 54.0016  6031.59  77.9721
 54.0436  6124.67  78.7733
 54.0856  6157.18  78.4302
 54.1276  6155.37  78.6091
 54.1696  6091.31  78.3722
 54.2116  6247.6  79.1316
 54.2536  6107.05  78.0495
 54.2956  6161.67  78.4475
 54.3376  6069.93  78.3355
 54.3796  6112.61  78.5099
 54.4216  6258.51  79.4902
 54.4636  6070.13  78.2449
 54.5056  6143.88  78.5403
 54.5476  6117.17  78.6981
 54.5896  6116.13  78.5253
 54.6316  6131.65  78.4869
 54.6736  6115.51  78.4081
 54.7156  6047.29  78.0418
 54.7576  6094.7  78.341
 54.7996  6157.38  78.8754
 54.8416  6173.65  79.0306
 54.8836  5998.76  78.0151
 54.9256  6050.61  78.1033
 54.9676  6161.89  78.6739
 55.0096  6106.52  78.3907
 55.0516  6152.9  78.85
 55.0936  6113.02  78.2976
 55.1356  6028.68  77.8
 55.1776  6061.41  78.2719
 55.2196  6159.05  78.684
 55.2616  6054.58  78.2271
 55.3036  6021.89  78.1677
 55.3456  6010.26  78.2345
 55.3876  6028.32  78.1044
 55.4296  6058.47  78.2747
 55.4716  6109.29  78.6389
 55.5136  6116.91  78.4468
 55.5556  6012.77  77.8504
 55.5976  6096.2  78.4389
 55.6396  5952.74  77.464
 55.6816  6049.68  77.9703
 55.7236  6072.61  78.2588
 55.7656  6034.77  77.678
 55.8076  6133.63  78.2911
 55.8496  6059.68  78.1371
 55.8916  6093.71  78.5217
 55.9336  5975.34  77.6125
 55.9756  6006.97  77.7071
 56.0176  6012.93  77.8949
 56.0596  6072.32  78.2656
 56.1016  6106.3  78.5166
 56.1436  5968.48  77.8555
 56.1856  6050.27  78.1362
 56.2276  5977.86  77.7277
 56.2696  5969.88  77.6371
 56.3116  6042.98  78.5168
 56.3536  5972.73  77.7218
 56.3956  6094.92  78.5037
 56.4376  6006.86  77.9679
 56.4796  6013.51  77.8156
 56.5216  5952.46  77.7892
 56.5636  6069.75  78.1417
 56.6056  6014.22  78.0121
 56.6476  5966.21  77.3363
 56.6896  6092.3  78.5969
 56.7316  5990.82  77.8521
 56.7736  6002.56  77.9145
 56.8156  6119.38  78.6784
 56.8576  5971.98  77.6633
 56.8996  6037.47  78.0248
 56.9416  6009.44  78.0055
 56.9836  5966.43  77.3826
 57.0256  5969.9  77.7181
 57.0676  6068.32  78.4821
 57.1096  6015.65  77.9314
 57.1516  6017.39  77.9671
 57.1936  5962.02  77.3982
 57.2356  6047.89  78.2656
 57.2776  6044.41  78.2056
 57.3196  5988.93  78.2086
 57.3616  6063.78  78.1917
 57.4036  5998.91  77.8324
 57.4456  5965.06  77.5833
 57.4876  6032.49  77.8802
 57.5296  5943.59  77.5393
 57.5716  5953.34  77.6908
 57.6136  5964.16  77.5756
 57.6556  5993.61  77.8988
 57.6976  6132.98  78.6373
 57.7396  5884.56  77.3936
 57.7816  5850  77.5167
 57.8236  5862.28  77.3944
 57.8656  5988.51  77.886
 57.9076  5947.02  77.647
 57.9496  5973.38  78.1616
 57.9916  5946.08  77.4564
 58.0336  5912.41  77.5521
 58.0756  5888.62  77.0256
 58.1176  5936.51  77.3485
 58.1596  5938.79  77.923
 58.2016  6041.88  77.8309
 58.2436  5956.94  77.679
 58.2856  6001.16  77.8866
 58.3276  6097.16  78.8793
 58.3696  5949.44  77.6693
 58.4116  6023.28  78.0188
 58.4536  5975.23  77.5929
 58.4956  5957.07  77.6547
 58.5376  5988.3  77.4329
 58.5796  6044.02  78.2138
 58.6216  5926.67  77.2538
 58.6636  6041.9  78.2286
 58.7056  6032.3  78.0255
 58.7476  5895.67  77.5759
 58.7896  5979.82  77.7739
 58.8316  5991.54  77.8458
 58.8736  6016.77  78.0204
 58.9156  5955.77  77.6626
 58.9576  6134.7  79.0219
 58.9996  6077.24  78.004
 59.0416  6058.32  78.2624
 59.0836  6022.14  77.9515
 59.1256  5937.49  77.7944
 59.1676  5978.99  78.6635
 59.2096  6202.57  79.4288
 59.2516  6187.95  78.9112
 59.2936  5942.17  77.6536
 59.3356  5953.86  77.6085
 59.3776  5935.08  77.6536
 59.4196  5979.05  77.8771
 59.4616  6118.42  78.6384
 59.5036  5924.2  77.4146
 59.5456  6240.79  79.1452
 59.5876  6010.1  77.8592
 59.6296  5925.26  77.3763
 59.6716  5908.58  77.3246
 59.7136  6158.35  78.9302
 59.7556  6090.63  78.6321
 59.7976  5947.58  77.4473
 59.8396  5901.12  77.0397
 59.8816  6013.89  78.3168
 59.9236  5975.45  77.7115
 59.9656  5947.06  77.7853
 60.0076  6007.34  77.5376
 60.0496  6092.68  78.5926
 60.0916  5946.36  77.0657
 60.1336  5879.6  77.7243
 60.1756  6065.53  80.1304
 60.1996  0.0000000E+00  0.0000000E+00