File: docs/examples/XRD/IS17_D/Data/IS17_D/17_Db_f00066.xye
# /beamlines/bl04/projects/cycle2025-II/20250340211-lsimonelli/DATA/IS17_D/17_Db_f00066.xye : mythproc.py merge -s 0.006 -l 0.5 -f /beamlines/bl04/inhouse/ff/FlatField/ff_20Nov2024rod8mm60s_17keV.raw -b True -c true -o xye /beamlines/bl04/projects/cycle2025-II/20250340211-lsimonelli/DATA/IS17_D/17_Db_00066.dat
# IsMon = [6768559, 6771857, 6774892]  IsPos = [-1.4999, -2.4884, -3.4988]
# Wave = 0.4962  CalPath /beamlines/bl04/projects/cycle2025-II/20250340211-lsimonelli/DATA/Align/Si_Pos1_25keV_f00001.cal
# Date = 2025-09-24_12:05:05 Dt = 4.8000  Bin = 0.0060  <imon> = 6771769 +/- 2586 (Min/Max) 6768559 / 6774892
# icurr 251.2776  mocoIn 1.7146E-05  mocoOut 0.8045  i15 7.09326e+06  imon 6.77177e+06  i7 4.3333  iEMpd_timer 4.8000  iEMpd_1 3.2814E-08  iEMpd_2 7.9194E-08  iEMpd_3 1.5925E-08  iEMpd_4 4.6764E-08  iEMhp_timer 4.8000  iEMhp_1 4.9099E-06  iEMhp_2 -2.4304E-08  iEMhp_3 -2.4216E-08  iEMhp_4 -2.0318E-08
#      9776
 1.5856  43893  215.181
 1.6276  50439.9  226.713
 1.6696  55775.3  237.562
 1.7116  63061.5  253.096
 1.7536  71405.9  268.174
 1.7956  74890.3  275.325
 1.8376  71845.9  270.098
 1.8796  61803.3  248.668
 1.9216  51149.2  227.123
 1.9636  43763.7  209.225
 2.0056  40278.9  199.945
 2.0476  37059.6  193.891
 2.0896  35753.9  189.328
 2.1316  35005.4  186.435
 2.1736  33269.8  183.196
 2.2156  33937.4  183.54
 2.2576  32746.1  180.938
 2.2996  31582.8  178.346
 2.3416  31759.3  177.416
 2.3836  31296  176.226
 2.4256  30288.3  173.93
 2.4676  29626.7  171.776
 2.5096  30369.6  173.973
 2.5516  32221.6  183.269
 2.5936  92271.3  303.737
 2.6356  30061.5  174.222
 2.6776  27734.6  166.235
 2.7196  27054.1  164.668
 2.7616  26816.4  163.74
 2.8036  26518  162.984
 2.8456  26703.7  164.203
 2.8876  25905  161.583
 2.9296  25415.9  160.187
 2.9716  25397.9  159.623
 3.0136  25028.8  158.509
 3.0556  25012  158.855
 3.0976  25030.4  157.842
 3.1396  24652.7  157.351
 3.1816  24323.3  156.244
 3.2236  24229.2  155.919
 3.2656  24148.7  154.72
 3.3076  24162  156.219
 3.3496  23905.7  154.325
 3.3916  24854.9  157.19
 3.4336  24849.5  157.765
 3.4756  25258.9  158.998
 3.5176  26128.1  161.473
 3.5596  25837.6  163.007
 3.6016  25752.5  160.359
 3.6436  25076.1  159.347
 3.6856  24537.8  155.938
 3.7276  23653.8  154.179
 3.7696  23415.6  153.577
 3.8116  23213.5  152.816
 3.8536  23180.5  152.64
 3.8956  23235.4  152.637
 3.9376  23481  153.715
 3.9796  23007.8  151.653
 4.0216  22958.3  150.528
 4.0636  22995.1  152.112
 4.1056  23130.9  152.215
 4.1476  23408.8  153.442
 4.1896  23360.6  153.134
 4.2316  23605.2  153.759
 4.2736  24080.8  155.102
 4.3156  24085.4  155.342
 4.3576  24963.4  158.057
 4.3996  25040.7  158.575
 4.4416  25849.1  160.703
 4.4836  26474.7  162.795
 4.5256  26850.9  164.564
 4.5676  26422  163.489
 4.6096  27094  164.216
 4.6516  27587.9  165.402
 4.6936  27693.3  166.535
 4.7356  28137.5  167.696
 4.7776  27698.9  166.206
 4.8196  27499.1  166.265
 4.8616  26938.2  164.049
 4.9036  26796.9  163.357
 4.9456  26473.8  163.022
 4.9876  26173.5  161.984
 5.0296  26201.4  161.918
 5.0716  25828.6  161.501
 5.1136  26257.2  162.56
 5.1556  26387.6  162.411
 5.1976  31368  177.082
 5.2396  27137.2  164.405
 5.2816  27186.1  165.026
 5.3236  26907.6  163.875
 5.3656  26561.7  163.742
 5.4076  26139.8  162.571
 5.4496  26189.5  162.222
 5.4916  26361.6  162.519
 5.5336  26386.6  162.594
 5.5756  26417.1  162.717
 5.6176  26752.6  163.186
 5.6596  26799.5  164.313
 5.7016  26886.5  163.836
 5.7436  27053  164.623
 5.7856  26866.1  164.119
 5.8276  26895.2  163.916
 5.8696  27336.5  165.437
 5.9116  27168.6  165.524
 5.9536  27559.2  166.458
 5.9956  27675.7  166.199
 6.0376  27720.9  166.945
 6.0796  27869.9  167.23
 6.1216  27805.7  167.225
 6.1636  28236.3  167.579
 6.2056  28103  167.86
 6.2476  28318.2  168.374
 6.2896  28695.9  169.172
 6.3316  28591.5  169.04
 6.3736  28543.1  168.787
 6.4156  28970.3  169.938
 6.4576  28881.7  169.293
 6.4996  28809.8  169.55
 6.5416  28975.6  170.169
 6.5836  29289.5  171.328
 6.6256  29249.8  170.78
 6.6676  29672.1  171.577
 6.7096  29730.5  172.6
 6.7516  29752.6  172.322
 6.7936  30567  174.063
 6.8356  30858.4  174.987
 6.8776  30522.2  174.824
 6.9196  30527.1  175.243
 6.9616  30899  175.757
 7.0036  31364.1  176.726
 7.0456  31363.2  176.022
 7.0876  31315.7  177.574
 7.1296  31205.2  176.398
 7.1716  31237.8  176.032
 7.2136  31027.1  175.223
 7.2556  31281.1  176.092
 7.2976  31474.7  177.135
 7.3396  31152.2  176.438
 7.3816  31156.3  176.669
 7.4236  31651.1  177.36
 7.4656  31787.5  177.206
 7.5076  32079.7  178.167
 7.5496  31806  177.933
 7.5916  31828.3  178.05
 7.6336  32462.1  179.698
 7.6756  32047.9  178.402
 7.7176  32951.6  181.228
 7.7596  32806.2  182.038
 7.8016  36062  193.207
 7.8436  32954.5  181.331
 7.8856  32928.5  180.878
 7.9276  33684.8  183.326
 7.9696  34171.5  184.963
 8.0116  35018.7  185.793
 8.0536  35128.9  186.33
 8.0956  36259.2  190.499
 8.1376  35598.1  188.229
 8.1796  35824.5  189.367
 8.2216  36470.2  189.806
 8.2636  37312.3  192.238
 8.3056  36675.1  191.347
 8.3476  38325.8  194.932
 8.3896  37505.3  192.906
 8.4316  37233.6  192.381
 8.4736  37306.2  192.041
 8.5156  36834.5  191.097
 8.5576  36611.2  191.484
 8.5996  36674.8  190.527
 8.6416  36652.9  191.732
 8.6836  36403.8  190.899
 8.7256  36901.7  191.662
 8.7676  37981.2  197.415
 8.8096  38686.4  196.484
 8.8516  37492.3  192.996
 8.8936  37944.6  194.109
 8.9356  37053.2  192.16
 8.9776  37128.3  192.417
 9.0196  36993.7  191.751
 9.0616  36759.2  190.634
 9.1036  37395  193.465
 9.1456  35940.2  188.984
 9.1876  36290.2  189.852
 9.2296  35556  187.354
 9.2716  35488.3  187.228
 9.3136  35750.8  187.912
 9.3556  35560.3  187.388
 9.3976  34753.9  185.773
 9.4396  34875.1  186.003
 9.4816  34656.4  185.28
 9.5236  34139.8  183.788
 9.5656  34321.5  184.631
 9.6076  33219.4  182.148
 9.6496  33781.8  183.573
 9.6916  33114.4  181.69
 9.7336  33591.7  182.798
 9.7756  33331.7  183.348
 9.8176  32967.6  181.875
 9.8596  33125.6  180.754
 9.9016  32883.9  180.09
 9.9436  32540.5  179.06
 9.9856  32414.8  178.988
 10.0276  31826.1  178.425
 10.0696  32019.1  177.997
 10.1116  31450.1  176.678
 10.1536  31098.6  175.847
 10.1956  30281  173.135
 10.2376  30568.7  173.471
 10.2796  30444  173.221
 10.3216  30176.4  172.742
 10.3636  30020.3  172.324
 10.4056  31049.5  175.662
 10.4476  31740.1  177.201
 10.4896  33329.8  181.006
 10.5316  31360.4  176.327
 10.5736  29419  171.195
 10.6156  29301.1  170.608
 10.6576  31314.3  174.874
 10.6996  28896.5  168.696
 10.7416  28381.1  167.4
 10.7836  28542.2  168.528
 10.8256  27380.5  165.49
 10.8676  27461.5  165.285
 10.9096  27397.7  165.123
 10.9516  27005.2  162.873
 10.9936  27513.8  164.619
 11.0356  27137.9  164.105
 11.0776  27655  164.979
 11.1196  27521.2  165.359
 11.1616  26190.3  160.981
 11.2036  27260.1  164.084
 11.2456  27622.5  165.904
 11.2876  26381.6  161.863
 11.3296  26191.2  161.18
 11.3716  26744.4  162.559
 11.4136  26690.6  163.293
 11.4556  26742.4  163.088
 11.4976  27780.5  165.202
 11.5396  27354.7  164.102
 11.5816  26366.3  161.559
 11.6236  25521.8  159.174
 11.6656  25891.8  159.488
 11.7076  25204.8  158.175
 11.7496  25144.2  161.995
 11.7916  25270.2  157.637
 11.8336  24507.3  156.115
 11.8756  24978.3  157.163
 11.9176  24569.8  155.548
 11.9596  24508.6  155.536
 12.0016  24099.5  154.99
 12.0436  24395.5  155.389
 12.0856  23937.5  154.417
 12.1276  24009.4  154.6
 12.1696  24030.8  153.785
 12.2116  24253.1  154.488
 12.2536  25223.9  158.401
 12.2956  24062.6  154.041
 12.3376  24293.2  155.004
 12.3796  23790.7  153.863
 12.4216  24161.4  154.251
 12.4636  24349.8  155.789
 12.5056  24037.1  154.049
 12.5476  24045.9  153.591
 12.5896  23457.6  152.332
 12.6316  23613  153.008
 12.6736  23652.6  153.611
 12.7156  23962.9  154.469
 12.7576  23660.4  153.73
 12.7996  24010.9  153.504
 12.8416  23753.1  153.732
 12.8836  24443.5  155.77
 12.9256  24355.6  154.519
 12.9676  24213.4  154.47
 13.0096  24220  155.622
 13.0516  24275.8  154.819
 13.0936  24559.4  156.144
 13.1356  24401.4  154.59
 13.1776  24364.1  155.496
 13.2196  24249.5  154.775
 13.2616  23841.9  153.773
 13.3036  24004.3  154.266
 13.3456  23889.6  154.231
 13.3876  24533.8  155.596
 13.4296  24385.4  155.278
 13.4716  24263.1  154.507
 13.5136  24284.7  154.72
 13.5556  24194.6  155.053
 13.5976  24315.5  155.611
 13.6396  24450.8  155.392
 13.6816  24440.1  155.837
 13.7236  24678.9  156.177
 13.7656  26506.1  162.32
 13.8076  27603.9  164.298
 13.8496  26700.2  162.239
 13.8916  24602.1  156.863
 13.9336  23774.1  153.474
 13.9756  23921.5  153.338
 14.0176  23634.3  153.083
 14.0596  24225.7  154.914
 14.1016  23586.4  153.294
 14.1436  23580.3  152.408
 14.1856  23031.3  150.912
 14.2276  23323.8  152.36
 14.2696  23162.3  151.677
 14.3116  22618.7  149.783
 14.3536  22375.6  149.149
 14.3956  22073  147.863
 14.4376  22412  148.783
 14.4796  22304.7  148.422
 14.5216  21823.2  147.595
 14.5636  22226.1  148.525
 14.6056  22054.9  147.505
 14.6476  21834.8  146.019
 14.6896  21442.2  145.242
 14.7316  21160.9  145.316
 14.7736  20928.4  143.658
 14.8156  20946.4  143.742
 14.8576  20789.7  143.068
 14.8996  20507.5  143.283
 14.9416  20190.7  142.18
 14.9836  20051.1  141.668
 15.0256  19482.4  138.563
 15.0676  19553.3  139.124
 15.1096  19277.7  137.88
 15.1516  19059.9  137.654
 15.1936  19065.9  137.107
 15.2356  18813.7  136.47
 15.2776  18881.6  136.311
 15.3196  18541.8  136.061
 15.3616  18322.6  135.011
 15.4036  18426.8  135.261
 15.4456  18564.7  135.418
 15.4876  18323.2  134.222
 15.5296  18099.5  133.685
 15.5716  17685.6  131.756
 15.6136  17777.8  132.425
 15.6556  18800.7  135.406
 15.6976  17915.1  132.476
 15.7396  17644.7  131.842
 15.7816  17353.6  130.283
 15.8236  17209.4  130.413
 15.8656  17396.5  130.923
 15.9076  17186.7  129.954
 15.9496  18197.5  136.585
 15.9916  17401.4  133.96
 16.0336  17597.3  131.581
 16.0756  17454  131.37
 16.1176  17218.5  130.554
 16.1596  16870.8  130.407
 16.2016  16841  129.044
 16.2436  16845.1  129.443
 16.2856  16948.8  129.362
 16.3276  16403.3  127.685
 16.3696  16705  128.694
 16.4116  16318.6  127.625
 16.4536  16669.5  128.813
 16.4956  17236.6  130.72
 16.5376  16573.1  128.361
 16.5796  16591.6  127.795
 16.6216  16497.8  127.699
 16.6636  16256.6  126.947
 16.7056  16348.7  127.171
 16.7476  16474.1  127.184
 16.7896  16708.4  128.847
 16.8316  16371.3  127.514
 16.8736  16581.2  128.59
 16.9156  16498.7  128.581
 16.9576  16170.8  128.11
 16.9996  16060.7  128.123
 17.0416  16301.9  127.484
 17.0836  16295.2  127.222
 17.1256  15974.3  125.968
 17.1676  16380.5  127.526
 17.2096  16054.1  126.142
 17.2516  15897.5  125.311
 17.2936  15793.8  125.254
 17.3356  15554.5  124.292
 17.3776  15277  123.354
 17.4196  15339.8  123.311
 17.4616  15354.7  123.283
 17.5036  15496.8  124.211
 17.5456  15201.8  123.665
 17.5876  15332.6  123.238
 17.6296  15230.2  122.66
 17.6716  15196.6  123.101
 17.7136  15599.4  124.856
 17.7556  15084.1  123.073
 17.7976  15282.7  123.604
 17.8396  15100.8  122.367
 17.8816  14738.9  121.451
 17.9236  14837.9  121.642
 17.9656  14759.6  121.855
 18.0076  15139.2  122.979
 18.0496  15474.9  123.459
 18.0916  17667.6  132.518
 18.1336  16323.2  127.477
 18.1756  15444.9  123.537
 18.2176  15524.5  124.073
 18.2596  14661.2  120.302
 18.3016  15034  122.088
 18.3436  15286.2  123.11
 18.3856  14924.1  121.787
 18.4276  14625.6  120.24
 18.4696  14682.9  120.55
 18.5116  14569  120.36
 18.5536  14568.8  120.723
 18.5956  14415.2  119.653
 18.6376  14506  120.43
 18.6796  14395  119.275
 18.7216  14422.1  119.89
 18.7636  14269.1  119.259
 18.8056  13994.7  118.026
 18.8476  13815  117.888
 18.8896  14085.5  118.371
 18.9316  14036.9  118.141
 18.9736  14008  117.731
 19.0156  14157.3  118.776
 19.0576  14327.1  118.328
 19.0996  14144.8  118.283
 19.1416  14069.8  118.37
 19.1836  13954.9  117.486
 19.2256  13770.8  116.932
 19.2676  13886.3  117.501
 19.3096  13885.5  117.74
 19.3516  13911.2  117.811
 19.3936  13798.8  117.228
 19.4356  13981.5  117.898
 19.4776  13835.9  117.362
 19.5196  13828  117.18
 19.5616  13758.5  117.138
 19.6036  13755.1  116.621
 19.6456  13929.7  117.489
 19.6876  14183.5  118.174
 19.7296  14158.1  118.552
 19.7716  13845.1  117.397
 19.8136  14492.1  120.316
 19.8556  14523.3  119.912
 19.8976  14698  120.692
 19.9396  14787.4  120.636
 19.9816  14705.1  120.548
 20.0236  14652.7  120.524
 20.0656  14047.4  118.015
 20.1076  13904.6  117.887
 20.1496  13537.4  116.308
 20.1916  13844.5  117.16
 20.2336  13731.9  116.597
 20.2756  13432.2  115.748
 20.3176  13373.1  115.247
 20.3596  13389.7  115.298
 20.4016  13451.7  115.36
 20.4436  13369.6  115.567
 20.4856  13385.9  115.44
 20.5276  13281.9  115.446
 20.5696  13286.8  114.927
 20.6116  13103.4  114.403
 20.6536  13138.6  114.074
 20.6956  12967.9  113.455
 20.7376  13016.3  113.87
 20.7796  13113.4  113.983
 20.8216  13185.9  114.022
 20.8636  13220.8  114.555
 20.9056  13703  116.553
 20.9476  13331.9  114.82
 20.9896  13551.6  115.61
 21.0316  13120.5  113.66
 21.0736  13242  114.71
 21.1156  13316.8  115.188
 21.1576  13236  114.881
 21.1996  12939.8  113.575
 21.2416  13013.1  113.726
 21.2836  13052.8  113.867
 21.3256  12987.1  113.666
 21.3676  13066.2  113.527
 21.4096  13066.7  113.868
 21.4516  12856.2  112.815
 21.4936  12648.9  112.17
 21.5356  12809.9  112.825
 21.5776  12928.5  113.182
 21.6196  12872.3  112.973
 21.6616  12728.9  112.422
 21.7036  12800.4  112.508
 21.7456  12611.7  111.755
 21.7876  12601.6  111.474
 21.8296  12529.3  111.002
 21.8716  12616.2  111.613
 21.9136  12744.4  112.371
 21.9556  12843.9  112.486
 21.9976  12573.7  111.334
 22.0396  12441.1  110.994
 22.0816  12451.6  111.558
 22.1236  12788  112.52
 22.1656  12697.4  112.257
 22.2076  12452  110.617
 22.2496  12416.8  110.497
 22.2916  12378.5  110.211
 22.3336  12437.3  111.192
 22.3756  12229.4  109.978
 22.4176  12211.3  109.75
 22.4596  11925.9  109.035
 22.5016  12405.9  110.714
 22.5436  12448.7  110.779
 22.5856  12493.3  111.227
 22.6276  12483.2  111.316
 22.6696  12344.9  111.048
 22.7116  12292.2  110.331
 22.7536  12451.9  111.019
 22.7956  12397.6  110.121
 22.8376  12077.2  109.189
 22.8796  12207.5  109.585
 22.9216  12334  110.688
 22.9636  12375.1  110.034
 23.0056  12140.5  109.116
 23.0476  12345.3  110.599
 23.0896  12557.4  110.926
 23.1316  12538.2  111.278
 23.1736  12447.9  113.816
 23.2156  12547.9  111.652
 23.2576  12720.5  112.563
 23.2996  12498.5  111.336
 23.3416  12805.1  113.244
 23.3836  12558.3  111.376
 23.4256  12782  112.487
 23.4676  12595  111.342
 23.5096  12476.8  111.486
 23.5516  12430.2  110.574
 23.5936  12563.3  112.071
 23.6356  12697.9  112.339
 23.6776  12501.2  111.664
 23.7196  12369.5  110.662
 23.7616  12490.5  111.115
 23.8036  12725.8  112.226
 23.8456  12340.6  110.056
 23.8876  12536  111.291
 23.9296  12196.7  110.257
 23.9716  12237.3  109.648
 24.0136  12446.7  111.489
 24.0556  12009  109.23
 24.0976  12094.8  109.438
 24.1396  12069.1  111.937
 24.1816  12243.9  111.15
 24.2236  12057.5  109.925
 24.2656  12098.4  109.598
 24.3076  12267.9  110.637
 24.3496  12107.7  109.784
 24.3916  12100.1  109.809
 24.4336  12095.9  109.994
 24.4756  12179  110.251
 24.5176  11857  108.411
 24.5596  11775  108.155
 24.6016  11852.4  108.814
 24.6436  11968.4  108.852
 24.6856  11770  107.689
 24.7276  11792.6  108.108
 24.7696  11699.4  107.796
 24.8116  11607.6  107.551
 24.8536  11552.6  107.299
 24.8956  11721.8  107.813
 24.9376  11659.5  107.455
 24.9796  11534.9  107.243
 25.0216  11549.8  107.431
 25.0636  11606.4  107.34
 25.1056  11195.8  106.115
 25.1476  11335.4  108.383
 25.1896  11191.7  106.232
 25.2316  11258.9  105.819
 25.2736  11225.3  105.316
 25.3156  11153.3  105.05
 25.3576  11261.9  105.996
 25.3996  11212.7  105.754
 25.4416  11122.8  105.298
 25.4836  10901.1  104.764
 25.5256  11061.1  104.893
 25.5676  11109.4  104.852
 25.6096  10873.6  104.306
 25.6516  10929  104.077
 25.6936  11075.3  105.092
 25.7356  10975.5  104.744
 25.7776  11121.9  105.033
 25.8196  10755.7  103.537
 25.8616  10911.6  104.206
 25.9036  11146.3  104.775
 25.9456  10779.2  103.629
 25.9876  10764.4  103.624
 26.0296  11054.2  104.522
 26.0716  10978.1  104.588
 26.1136  10912.5  104.198
 26.1556  11086.5  104.411
 26.1976  10774.3  103.856
 26.2396  10751.6  102.902
 26.2816  10958.2  104.508
 26.3236  10895.5  104.36
 26.3656  10968.6  104.44
 26.4076  10840.2  104.027
 26.4496  10919.9  104.001
 26.4916  11130.9  104.893
 26.5336  11483.9  106.891
 26.5756  11659.4  107.583
 26.6176  10970.4  104.368
 26.6596  10744.1  103.6
 26.7016  10736.3  103.324
 26.7436  10736.3  103.458
 26.7856  10519.3  102.389
 26.8276  10458.9  102.066
 26.8696  10552.9  102.389
 26.9116  10642.9  102.765
 26.9536  10505.5  102.144
 26.9956  10466.7  101.991
 27.0376  10531  102.532
 27.0796  10512.4  102.16
 27.1216  10581.4  102.562
 27.1636  10318.9  101.449
 27.2056  10461.6  102.032
 27.2476  10445  101.941
 27.2896  10282.9  101.259
 27.3316  10375.4  101.43
 27.3736  10293.2  101.296
 27.4156  10297.7  101.163
 27.4576  10353.4  101.645
 27.4996  10422  101.604
 27.5416  10281.9  101.203
 27.5836  10285.7  101.079
 27.6256  10301.7  101.339
 27.6676  10200.3  100.828
 27.7096  10380.5  101.59
 27.7516  10418.6  101.923
 27.7936  10622.3  103.069
 27.8356  10628.5  102.703
 27.8776  10649.7  102.881
 27.9196  10386  101.452
 27.9616  10338.1  101.415
 28.0036  10143.7  100.418
 28.0456  10077.9  100.222
 28.0876  10015.3  100.006
 28.1296  10130.4  100.4
 28.1716  10204.1  100.797
 28.2136  10223.1  100.853
 28.2556  10035.7  100.04
 28.2976  10047.3  100.09
 28.3396  10028.1  99.7482
 28.3816  9942.64  99.3396
 28.4236  9951.41  99.526
 28.4656  9975.73  99.6917
 28.5076  9993.43  99.4159
 28.5496  9893.83  99.1865
 28.5916  9902.66  99.0437
 28.6336  9896.76  99.3604
 28.6756  9908.93  98.6108
 28.7176  9854.39  98.8903
 28.7596  9841.88  98.7252
 28.8016  9683.15  97.9638
 28.8436  9768.23  98.63
 28.8856  9722.86  98.2499
 28.9276  9772.73  98.7416
 28.9696  9676.39  97.916
 29.0116  9671.6  98.0763
 29.0536  9566.91  97.7568
 29.0956  9684.13  98.0559
 29.1376  9815.74  98.691
 29.1796  9684.05  98.0774
 29.2216  9601.21  97.4942
 29.2636  9762.5  98.3829
 29.3056  9645.82  97.5798
 29.3476  9649.3  98.1252
 29.3896  9578.48  97.8716
 29.4316  9592.24  97.2681
 29.4736  9458.15  96.6453
 29.5156  9557.84  97.08
 29.5576  9438.72  97.2036
 29.5996  9529.39  96.9332
 29.6416  9552.86  97.172
 29.6836  9446.46  96.5561
 29.7256  9343.55  96.5854
 29.7676  9334.9  96.2047
 29.8096  9346.91  96.213
 29.8516  9148.15  95.4995
 29.8936  9286.09  96.3173
 29.9356  9317.58  96.2406
 29.9776  9289.25  96.2358
 30.0196  9381.74  96.116
 30.0616  9323.46  96.1876
 30.1036  9315.16  95.9721
 30.1456  9230.06  95.7572
 30.1876  9204.53  95.6123
 30.2296  9137.43  95.2027
 30.2716  9186.93  95.1101
 30.3136  9328.99  96.6931
 30.3556  9489.58  97.5307
 30.3976  9342.03  98.2453
 30.4396  9836  98.1507
 30.4816  9633.98  96.7222
 30.5236  9475.7  95.9425
 30.5656  9491.15  96.6711
 30.6076  9513.24  96.2035
 30.6496  9441.53  96.2416
 30.6916  9443.18  96.3374
 30.7336  9402.01  96.2741
 30.7756  9581.11  97.2601
 30.8176  9425.19  96.4086
 30.8596  9406.01  96.046
 30.9016  9284.51  95.7908
 30.9436  9376.68  95.9935
 30.9856  9539.04  96.951
 31.0276  9324.65  95.4866
 31.0696  9346.67  96.1562
 31.1116  9402.35  96.3995
 31.1536  9210.91  95.2883
 31.1956  9415.52  96.4551
 31.2376  9094.13  94.8095
 31.2796  9355.08  95.7029
 31.3216  9214.12  94.8993
 31.3636  9269.97  95.8933
 31.4056  9183.77  96.7252
 31.4476  9307.88  95.3149
 31.4896  9214.08  95.3277
 31.5316  9422.36  95.8008
 31.5736  9838.2  97.7218
 31.6156  9586.71  96.4712
 31.6576  9542.89  96.3402
 31.6996  9439.46  95.4777
 31.7416  9460.98  96.6799
 31.7836  9327.21  94.9914
 31.8256  9230.46  94.7582
 31.8676  9383.84  95.5377
 31.9096  9243.89  95.1918
 31.9516  9292.83  95.6141
 31.9936  9026.38  94.0519
 32.0356  9206.8  95.0428
 32.0776  9382.9  95.8382
 32.1196  9316.9  95.6106
 32.1616  9362.23  95.2844
 32.2036  9242.51  95.1919
 32.2456  9203.76  95.3681
 32.2876  9306.75  95.398
 32.3296  9077.32  94.1765
 32.3716  8918.5  93.452
 32.4136  8975.43  93.9433
 32.4556  9101.68  93.9941
 32.4976  9090.37  93.8435
 32.5396  8894.25  92.89
 32.5816  9051.8  93.8421
 32.6236  8991.15  93.582
 32.6656  9062.64  94.505
 32.7076  8962.8  93.635
 32.7496  8872.88  92.8423
 32.7916  8948.91  93.1875
 32.8336  8920.02  93.1356
 32.8756  8963.94  93.0848
 32.9176  8943.81  93.472
 32.9596  8899.75  93.3059
 33.0016  8964.04  93.4113
 33.0436  8946.24  93.4948
 33.0856  8890.25  93.2997
 33.1276  8855  92.8355
 33.1696  8961.9  93.226
 33.2116  8927.72  93.291
 33.2536  8975.64  93.5377
 33.2956  8855.28  92.9949
 33.3376  8853.89  92.7149
 33.3796  8898  93.1746
 33.4216  8810.08  92.2973
 33.4636  8963.6  93.2618
 33.5056  8786.95  92.576
 33.5476  8811.31  92.6883
 33.5896  8855.9  92.7145
 33.6316  8814.03  92.8075
 33.6736  8570.14  91.7546
 33.7156  8715.49  92.5636
 33.7576  8749.43  92.3855
 33.7996  8871.38  92.7825
 33.8416  8500.73  91.0111
 33.8836  8670.09  91.6871
 33.9256  8775  92.3039
 33.9676  8775.92  92.2019
 34.0096  8628.2  91.7336
 34.0516  8553.17  90.9665
 34.0936  8671.2  91.872
 34.1356  8719.53  91.865
 34.1776  8515.19  90.7718
 34.2196  8629.83  91.5731
 34.2616  8514.64  91.0968
 34.3036  8600.22  91.8031
 34.3456  8574.78  91.4198
 34.3876  8674.28  91.9243
 34.4296  8543.34  90.9024
 34.4716  8709.82  91.9503
 34.5136  8546.58  91.278
 34.5556  8468.79  91.1078
 34.5976  8557.72  91.3982
 34.6396  8482.4  90.7112
 34.6816  8692.24  91.9354
 34.7236  8617.59  91.3111
 34.7656  8624.81  91.556
 34.8076  8479.46  91.1172
 34.8496  8450.77  90.8064
 34.8916  8423.43  90.5282
 34.9336  8571.95  91.298
 34.9756  8562.54  91.1784
 35.0176  8591.85  91.8625
 35.0596  8665.96  92.0804
 35.1016  8631.75  91.6496
 35.1436  8835.58  92.4135
 35.1856  8475.98  90.6315
 35.2276  8548.51  91.1846
 35.2696  8534.1  91.2997
 35.3116  8402.27  90.6982
 35.3536  8394.75  90.3627
 35.3956  8482.99  90.5574
 35.4376  8534.56  91.3998
 35.4796  8482  91.1513
 35.5216  8404.37  90.7005
 35.5636  8204.98  90.3502
 35.6056  8426  90.5787
 35.6476  8425.78  90.4827
 35.6896  8369.63  90.272
 35.7316  8313.77  89.9438
 35.7736  8422.06  90.7111
 35.8156  8396.97  90.5827
 35.8576  8371.94  90.6901
 35.8996  8398.4  90.8
 35.9416  8465.98  90.672
 35.9836  8445.27  90.8999
 36.0256  8548.4  91.4786
 36.0676  8480.39  90.8599
 36.1096  8367.63  90.4012
 36.1516  8540.69  91.2166
 36.1936  8424  90.4305
 36.2356  8322.19  90.5472
 36.2776  8454.2  90.73
 36.3196  8293.81  89.5389
 36.3616  8318.86  89.8039
 36.4036  8269.09  89.6032
 36.4456  8382.67  90.4279
 36.4876  8370.41  90.2973
 36.5296  8315.53  90.0372
 36.5716  8300.98  90.7349
 36.6136  8326.38  89.6504
 36.6556  8259.44  89.4823
 36.6976  8069.45  88.9419
 36.7396  8221.17  89.5089
 36.7816  7925.91  88.2524
 36.8236  8089.02  89.0822
 36.8656  8032.54  88.8318
 36.9076  8069.33  88.9235
 36.9496  7951.26  88.2519
 36.9916  7994.17  88.1268
 37.0336  8118.17  89.1135
 37.0756  8222.77  89.4862
 37.1176  7928.86  88.133
 37.1596  7971.65  88.3816
 37.2016  8013.52  88.8356
 37.2436  8042.85  88.3221
 37.2856  7976.23  88.2145
 37.3276  8128.41  88.4007
 37.3696  7892.05  87.9793
 37.4116  8003.82  88.499
 37.4536  7983.02  88.2561
 37.4956  7893.39  87.7987
 37.5376  8192.98  91.0512
 37.5796  8134.57  90.6548
 37.6216  8050.46  88.4593
 37.6636  8086.15  88.5497
 37.7056  8050.88  88.5461
 37.7476  8234.19  89.0882
 37.7896  7950.72  88.0363
 37.8316  7976.35  88.3348
 37.8736  8066.33  88.3566
 37.9156  8096.89  88.5209
 37.9576  8222.75  89.121
 37.9996  8022.44  87.7415
 38.0416  7990.56  88.3649
 38.0836  8133.6  89.0553
 38.1256  8056.91  88.6117
 38.1676  8014.92  88.4978
 38.2096  8121.82  88.7024
 38.2516  8076.47  88.6657
 38.2936  8175.58  89.0174
 38.3356  8047.9  88.241
 38.3776  7968.56  88.0571
 38.4196  7969.12  87.9106
 38.4616  8071.05  88.7257
 38.5036  8071.69  88.5726
 38.5456  7926.89  88.5968
 38.5876  7975.28  88.891
 38.6296  7816.85  86.9929
 38.6716  8049.9  88.0869
 38.7136  7903.92  87.2241
 38.7556  7853.41  87.4514
 38.7976  7954.06  87.9322
 38.8396  7849.9  87.8148
 38.8816  7964.64  88.2501
 38.9236  7917.12  87.7821
 38.9656  8009  88.2034
 39.0076  7893.72  86.9733
 39.0496  8139.38  88.8775
 39.0916  8033.24  87.939
 39.1336  7968.59  87.9874
 39.1756  7944.48  87.9206
 39.2176  7902.68  88.226
 39.2596  7994.16  88.6602
 39.3016  8027  88.4227
 39.3436  7866.22  87.9399
 39.3856  8032.95  88.3104
 39.4276  8120.93  89.3082
 39.4696  7960.83  88.0417
 39.5116  8013.77  88.8537
 39.5536  8032.68  89.3639
 39.5956  7915.23  87.8152
 39.6376  7924.38  87.8658
 39.6796  7880.27  87.3718
 39.7216  7839.53  87.2398
 39.7636  7916.5  88.2386
 39.8056  7987.41  88.4108
 39.8476  7927.33  88.3318
 39.8896  8020.98  88.4866
 39.9316  7852.56  87.8007
 39.9736  8013.1  88.259
 40.0156  7876.48  87.3389
 40.0576  7899.42  87.8146
 40.0996  8074.67  87.9627
 40.1416  7958.54  88.1225
 40.1836  8044.67  88.4833
 40.2256  7886.73  87.6336
 40.2676  7956.21  88.1303
 40.3096  7964.78  88.1176
 40.3516  8151.97  89.2561
 40.3936  7999.89  87.968
 40.4356  7898.8  87.6228
 40.4776  7949.94  88.3139
 40.5196  7998.41  88.6967
 40.5616  7924.84  87.9429
 40.6036  7847.84  87.7686
 40.6456  7888.44  87.5931
 40.6876  8013.58  88.2872
 40.7296  7936.51  87.9856
 40.7716  8068.14  88.843
 40.8136  7857.68  87.6222
 40.8556  8026.48  88.6976
 40.8976  7961.39  88.2556
 40.9396  7945.3  88.5173
 40.9816  8003.46  88.1287
 41.0236  7891.53  87.2904
 41.0656  8024.43  88.5665
 41.1076  7914.58  87.7239
 41.1496  7985.76  88.0198
 41.1916  7887.26  87.7958
 41.2336  7972.65  88.2773
 41.2756  7866.22  87.2905
 41.3176  7961.8  88.4277
 41.3596  7948.36  88.0891
 41.4016  7896.86  88.0511
 41.4436  8009.17  88.4578
 41.4856  7964.7  88.3853
 41.5276  7891.93  87.9978
 41.5696  7859.64  87.4524
 41.6116  7987.55  88.5589
 41.6536  8012.88  88.5355
 41.6956  7955.03  88.2938
 41.7376  7988.48  88.4965
 41.7796  7851.41  87.6071
 41.8216  7900.12  88.1258
 41.8636  7855.22  87.8135
 41.9056  7918.11  87.965
 41.9476  7984.46  88.5644
 41.9896  8102.07  88.8822
 42.0316  7902.07  87.8602
 42.0736  8046.67  88.7616
 42.1156  7912.34  87.8536
 42.1576  7883  87.7942
 42.1996  7960.94  88.3608
 42.2416  7924.56  87.7421
 42.2836  7866.22  87.5399
 42.3256  7839.4  87.4997
 42.3676  8068.3  88.5755
 42.4096  7932.15  87.7872
 42.4516  7986.36  88.1666
 42.4936  7855.03  87.5114
 42.5356  7784.04  87.2528
 42.5776  7949.08  88.1104
 42.6196  7829.44  87.4986
 42.6616  7706.72  86.9862
 42.7036  7885.54  87.3609
 42.7456  7930.47  87.9761
 42.7876  7811.82  87.3966
 42.8296  7823.71  87.3065
 42.8716  7765.19  87.1452
 42.9136  7838.92  87.3423
 42.9556  7818.3  87.3635
 42.9976  7861.31  87.5696
 43.0396  7824.2  87.0911
 43.0816  7785.67  87.2621
 43.1236  7746.1  87.0923
 43.1656  7777.01  87.0871
 43.2076  7805.96  87.3598
 43.2496  7891.38  87.6538
 43.2916  7709.84  87.0006
 43.3336  7760.54  87.1235
 43.3756  7770.09  86.9343
 43.4176  7736.56  86.8226
 43.4596  7672.21  86.318
 43.5016  7764.08  87.2378
 43.5436  7768.22  87.1645
 43.5856  7631.39  86.4209
 43.6276  7635.38  86.3403
 43.6696  7627.79  86.538
 43.7116  7769.33  86.851
 43.7536  7784.13  87.4289
 43.7956  7647.68  87.8538
 43.8376  7618.71  86.2215
 43.8796  7620.13  86.3045
 43.9216  7638.74  86.3223
 43.9636  7661.65  86.5666
 44.0056  7523.05  86.0108
 44.0476  7560.8  85.8519
 44.0896  7504  85.8745
 44.1316  7611.02  86.0087
 44.1736  7483.43  85.4098
 44.2156  7511.89  85.4337
 44.2576  7513.11  85.7569
 44.2996  7458.65  85.4167
 44.3416  7687.3  86.4727
 44.3836  7404.86  85.1947
 44.4256  7450.65  85.102
 44.4676  7452.55  85.2704
 44.5096  7523.76  85.8215
 44.5516  7593.24  86.179
 44.5936  7382.32  84.9298
 44.6356  7515.12  85.4281
 44.6776  7500.06  85.6616
 44.7196  7540.23  86.1946
 44.7616  7529.22  87.4693
 44.8036  7542.61  85.9671
 44.8456  7768.99  87.4591
 44.8876  7670.16  86.7456
 44.9296  7657.49  86.1161
 44.9716  7620.67  86.3491
 45.0136  7715.49  86.8068
 45.0556  7728.77  86.8733
 45.0976  7623.65  86.4221
 45.1396  7537.94  85.6909
 45.1816  7513.7  85.5008
 45.2236  7645.81  86.1559
 45.2656  7571.7  86.2216
 45.3076  7477.61  85.4816
 45.3496  7488.56  85.8455
 45.3916  7465.67  85.991
 45.4336  7622.57  86.7378
 45.4756  7559.98  86.2299
 45.5176  7648.51  86.3474
 45.5596  7653.75  86.4948
 45.6016  7577.41  86.4887
 45.6436  7502.66  85.2369
 45.6856  7484.6  85.7886
 45.7276  7422.31  86.7432
 45.7696  7463.75  86.6624
 45.8116  7505.96  86.3468
 45.8536  7466.21  86.0168
 45.8956  7593.13  86.089
 45.9376  7510.21  85.0803
 45.9796  7482.77  85.6059
 46.0216  7550.54  86.3343
 46.0636  7849.79  87.1532
 46.1056  7536.66  85.3892
 46.1476  7548.43  86.0538
 46.1896  7512.09  85.9958
 46.2316  7591.68  86.2926
 46.2736  7461.34  85.9476
 46.3156  7379.03  85.0577
 46.3576  7479.2  85.8362
 46.3996  7501.86  86.1226
 46.4416  7439.93  85.3498
 46.4836  7428.5  85.6328
 46.5256  7503.51  86.0048
 46.5676  7365.77  85.3299
 46.6096  7494.72  86.0002
 46.6516  7560.91  85.4186
 46.6936  7552.37  85.8689
 46.7356  7527.37  85.8267
 46.7776  7423.33  86.0663
 46.8196  7378.85  85.4118
 46.8616  7360.33  85.2474
 46.9036  7284.85  84.466
 46.9456  7373.08  84.6139
 46.9876  7365.36  84.6561
 47.0296  7444.68  85.803
 47.0716  7278.59  84.6678
 47.1136  7348.93  84.7567
 47.1556  7486.14  85.4122
 47.1976  7488.99  85.5003
 47.2396  7363.68  85.1846
 47.2816  7323.93  84.6528
 47.3236  7305.54  84.9234
 47.3656  7422.1  85.5191
 47.4076  7304.23  84.6385
 47.4496  7407.29  85.3393
 47.4916  7334.08  85.1016
 47.5336  7408.02  85.3327
 47.5756  7492.22  85.9477
 47.6176  7333.7  84.931
 47.6596  7348.39  84.7263
 47.7016  7563.4  85.7771
 47.7436  7401.65  85.1869
 47.7856  7466.47  85.5958
 47.8276  7375.28  85.1143
 47.8696  7384.44  85.252
 47.9116  7440.17  85.2856
 47.9536  7414.95  85.0775
 47.9956  7293.58  85.096
 48.0376  7328  85.0668
 48.0796  7350.89  85.3298
 48.1216  7380.1  85.3172
 48.1636  7513.59  85.6546
 48.2056  7434.35  85.4659
 48.2476  7442.94  85.8279
 48.2896  7420.05  85.6086
 48.3316  7371.78  85.2592
 48.3736  7351.52  85.171
 48.4156  7398  85.2909
 48.4576  7372.6  85.4406
 48.4996  7545.02  85.8785
 48.5416  7505.14  85.9852
 48.5836  7438.77  85.2627
 48.6256  7493.68  85.7931
 48.6676  7451.86  86.074
 48.7096  7395.85  85.0071
 48.7516  7436.04  85.3996
 48.7936  7260.74  84.4437
 48.8356  7424.77  85.4484
 48.8776  7343.58  85.562
 48.9196  7511.36  85.8939
 48.9616  7339.37  85.2861
 49.0036  7392.05  85.9452
 49.0456  7350.23  85.6829
 49.0876  7404.05  85.5178
 49.1296  7220.63  84.6157
 49.1716  7278.54  84.8202
 49.2136  7451.53  85.7464
 49.2556  7418.64  85.5971
 49.2976  7364.96  85.3569
 49.3396  7328.38  85.1958
 49.3816  7426.42  85.1848
 49.4236  7455.27  85.7692
 49.4656  7252.12  84.6261
 49.5076  7299.01  84.6467
 49.5496  7270.19  84.545
 49.5916  7443.25  85.4437
 49.6336  7377.94  85.2908
 49.6756  7267.85  84.8926
 49.7176  7351.07  85.3077
 49.7596  7260.21  84.5509
 49.8016  7381.94  85.1679
 49.8436  7218.2  84.5216
 49.8856  7220.28  84.5404
 49.9276  7213.76  84.5972
 49.9696  7262.23  84.8656
 50.0116  7275.28  85.0844
 50.0536  7196.8  84.5636
 50.0956  7282.6  85.1409
 50.1376  7308.68  84.9821
 50.1796  7219.47  84.737
 50.2216  7225.73  84.77
 50.2636  7170.63  84.0561
 50.3056  7197.91  84.3985
 50.3476  7125.04  83.9828
 50.3896  7319.44  85.0995
 50.4316  7251.02  84.5309
 50.4736  7128.21  84.0359
 50.5156  7242.13  84.6788
 50.5576  7370.72  85.1908
 50.5996  7178.41  84.364
 50.6416  7316.19  85.0916
 50.6836  7259.98  84.8276
 50.7256  7343.7  85.237
 50.7676  7254.42  85.0358
 50.8096  7195.07  84.2159
 50.8516  7200.11  84.6741
 50.8936  7103.83  83.876
 50.9356  7246.88  84.8244
 50.9776  7179.66  84.6004
 51.0196  6935.67  83.2692
 51.0616  7032.02  83.1663
 51.1036  7147.08  84.2059
 51.1456  7234.21  84.63
 51.1876  7111.96  83.2337
 51.2296  7114.57  83.8984
 51.2716  7036.25  83.13
 51.3136  7064.7  83.7738
 51.3556  6971.95  82.838
 51.3976  7035.29  83.3709
 51.4396  6945.7  83.1516
 51.4816  6981.48  83.2177
 51.5236  7097.46  83.9932
 51.5656  6950.39  82.7109
 51.6076  7110.86  83.7483
 51.6496  6936.64  82.9029
 51.6916  7012.05  83.7215
 51.7336  6956.13  83.4727
 51.7756  7084.85  83.9285
 51.8176  6914.04  83.0239
 51.8596  6983.77  83.4606
 51.9016  7166.74  84.1422
 51.9436  7102.52  85.3006
 51.9856  7085.66  85.6145
 52.0276  7077.71  84.0324
 52.0696  7124.8  84.3855
 52.1116  7037.94  83.9793
 52.1536  7020.72  83.758
 52.1956  6984.76  82.995
 52.2376  7170.65  84.2782
 52.2796  7130.05  83.8562
 52.3216  6967.33  83.5871
 52.3636  6960.67  83.1086
 52.4056  7085.34  83.7052
 52.4476  6997.77  83.558
 52.4896  6919.76  83.1438
 52.5316  7059.45  84.0369
 52.5736  6952.04  83.0932
 52.6156  7063.01  84.1788
 52.6576  6940.16  82.8604
 52.6996  6790.63  82.9593
 52.7416  6823.05  83.0052
 52.7836  6952.77  83.6834
 52.8256  6912.67  82.6406
 52.8676  6820.53  82.6632
 52.9096  7030.59  83.9958
 52.9516  6999.04  84.2114
 52.9936  6941.62  84.2487
 53.0356  7039.7  83.8234
 53.0776  6931.47  83.4525
 53.1196  6880.61  83.2743
 53.1616  7128.68  84.813
 53.2036  6998.56  83.9958
 53.2456  6818.77  83.0114
 53.2876  6926.48  83.3543
 53.3296  7007.86  84.1728
 53.3716  7128.59  84.6459
 53.4136  7043.21  84.2928
 53.4556  6914.53  83.5411
 53.4976  6820.52  82.8048
 53.5396  6877.75  83.5612
 53.5816  6944.95  83.5961
 53.6236  6850.13  83.3858
 53.6656  6953.14  83.6083
 53.7076  6960.06  83.6094
 53.7496  6915.33  83.4741
 53.7916  6886.75  83.4366
 53.8336  6975.49  83.8623
 53.8756  6770.24  83.1767
 53.9176  6901.86  83.3112
 53.9596  6620.2  82.3271
 54.0016  6666.56  81.9584
 54.0436  6502.13  81.1625
 54.0856  6780.02  82.2983
 54.1276  6678.56  81.8701
 54.1696  6591.07  81.4959
 54.2116  6743.17  82.1863
 54.2536  6695.46  81.6863
 54.2956  6711.39  81.8557
 54.3376  6655.2  81.9961
 54.3796  6558.29  81.2759
 54.4216  6613.56  81.6909
 54.4636  6564.92  81.3445
 54.5056  6658.93  81.748
 54.5476  6572.82  81.547
 54.5896  6677.68  82.0408
 54.6316  6569.58  81.1983
 54.6736  6625.05  81.6425
 54.7156  6624.57  81.6676
 54.7576  6550.6  81.1781
 54.7996  6581.62  81.5159
 54.8416  6650.95  82.019
 54.8836  6680.89  82.2945
 54.9256  6585.98  81.4622
 54.9676  6509.23  80.8379
 55.0096  6525.37  80.9664
 55.0516  6451.17  80.7565
 55.0936  6612.87  81.4324
 55.1356  6498.41  80.762
 55.1776  6590.76  81.5757
 55.2196  6591.33  81.3546
 55.2616  6701.05  82.2713
 55.3036  6381.41  80.4555
 55.3456  6405.03  80.7304
 55.3876  6499.49  81.034
 55.4296  6460.46  80.8134
 55.4716  6539.2  81.3242
 55.5136  6483.05  80.7475
 55.5556  6593.3  81.4837
 55.5976  6421.19  80.4902
 55.6396  6572.01  81.3676
 55.6816  6439.5  80.4214
 55.7236  6336.9  79.8269
 55.7656  6495.92  80.5471
 55.8076  6412.89  80.0316
 55.8496  6421.36  80.4003
 55.8916  6435.86  80.7037
 55.9336  6521.89  81.0599
 55.9756  6403.69  80.2025
 56.0176  6360.59  80.0848
 56.0596  6362.92  80.0901
 56.1016  6286.84  79.639
 56.1436  6288.84  79.9071
 56.1856  6299.69  79.7067
 56.2276  6547.29  81.3191
 56.2696  6425.98  80.5224
 56.3116  6519.45  81.507
 56.3536  6411.11  80.4887
 56.3956  6353.36  80.1217
 56.4376  6401.51  80.4687
 56.4796  6291.03  79.5716
 56.5216  6269.83  79.8054
 56.5636  6292.87  79.5257
 56.6056  6464.1  80.8526
 56.6476  6402.78  80.0606
 56.6896  6481.84  81.0265
 56.7316  6325.1  79.9633
 56.7736  6395.77  80.405
 56.8156  6270.9  79.6307
 56.8576  6133.68  78.6973
 56.8996  6335.55  79.8831
 56.9416  6247.89  79.6681
 56.9836  6369.06  79.9401
 57.0256  6282.33  79.7096
 57.0676  6414.28  80.6496
 57.1096  6370.59  80.1668
 57.1516  6224.79  79.2793
 57.1936  6249.38  79.1972
 57.2356  6199.13  79.2106
 57.2776  6155.41  78.9094
 57.3196  6283.85  80.0608
 57.3616  6268.66  79.4662
 57.4036  6332.62  79.9093
 57.4456  6394.93  80.3096
 57.4876  6248.15  79.2365
 57.5296  6191.03  79.2015
 57.5716  6320.95  80.0332
 57.6136  6147.43  78.7642
 57.6556  6169.67  79.025
 57.6976  6299.39  79.6938
 57.7396  6145.39  79.0604
 57.7816  6151.71  79.4729
 57.8236  6180.01  79.4426
 57.8656  6209.38  79.3002
 57.9076  6267.66  79.6753
 57.9496  6204.7  79.6467
 57.9916  6149.81  78.7978
 58.0336  6224.97  79.5598
 58.0756  6211.39  79.1157
 58.1176  6167.38  78.8164
 58.1596  6095.93  78.9548
 58.2016  6086.21  78.0997
 58.2436  5997.18  77.9309
 58.2856  5893.85  77.1831
 58.3276  6013.9  78.333
 58.3696  6001.67  78.0129
 58.4116  5961.99  77.6182
 58.4536  6081.3  78.2777
 58.4956  6000.59  77.9353
 58.5376  6024.72  77.664
 58.5796  5948.12  77.5845
 58.6216  5997.33  77.7233
 58.6636  6029.22  78.1446
 58.7056  5932.27  77.3731
 58.7476  5987.52  78.1731
 58.7896  5922.64  77.3987
 58.8316  5964.95  77.6714
 58.8736  5986.15  77.8175
 58.9156  5892.69  77.2516
 58.9576  5964.31  78.0339
 58.9996  5989.59  77.4597
 59.0416  6026.11  78.0535
 59.0836  6011.92  77.8745
 59.1256  5908.53  77.9014
 59.1676  5926.73  78.3326
 59.2096  5869.14  77.256
 59.2516  5958.2  77.424
 59.2936  5993.06  77.9769
 59.3356  5963.42  77.6623
 59.3776  5945.59  77.7138
 59.4196  5907.47  77.4013
 59.4616  5904.51  77.2431
 59.5036  5824.55  76.7532
 59.5456  6058.22  77.9705
 59.5876  5989.96  77.7202
 59.6296  5850.78  76.8801
 59.6716  5913.21  77.3465
 59.7136  5824.11  76.75
 59.7556  5798.91  76.7175
 59.7976  5753.06  76.162
 59.8396  5844.19  76.6588
 59.8816  5897.85  77.549
 59.9236  6036.43  78.0985
 59.9656  5786.67  76.7201
 60.0076  5978.07  77.34
 60.0496  5980.65  77.8579
 60.0916  5784.98  76.0044
 60.1336  5789.81  77.1201
 60.1756  5830.1  78.5513
 60.1996  0.0000000E+00  0.0000000E+00