File: docs/examples/XRD/IS17_D/Data/IS17_D/17_Da_f00014.xye
# /beamlines/bl04/projects/cycle2025-II/20250340211-lsimonelli/DATA/IS17_D/17_Da_f00014.xye : mythproc.py merge -s 0.006 -l 0.5 -f /beamlines/bl04/inhouse/ff/FlatField/ff_20Nov2024rod8mm60s_17keV.raw -b True -c true -o xye /beamlines/bl04/projects/cycle2025-II/20250340211-lsimonelli/DATA/IS17_D/17_Da_00014.dat
# IsMon = [6764744, 6767932, 6768333]  IsPos = [-1.5000, -2.4885, -3.4986]
# Wave = 0.4962  CalPath /beamlines/bl04/projects/cycle2025-II/20250340211-lsimonelli/DATA/Align/Si_Pos1_25keV_f00001.cal
# Date = 2025-09-23_21:26:14 Dt = 4.8000  Bin = 0.0060  <imon> = 6767003 +/- 1606 (Min/Max) 6764744 / 6768333
# icurr 251.1330  mocoIn 1.7134E-05  mocoOut 0.8039  i15 7.07973e+06  imon 6.767e+06  i7 5.6667  iEMpd_timer 4.8000  iEMpd_1 3.4543E-08  iEMpd_2 7.7303E-08  iEMpd_3 1.7566E-08  iEMpd_4 4.7483E-08  iEMhp_timer 4.8000  iEMhp_1 4.9069E-06  iEMhp_2 -2.4642E-08  iEMhp_3 -2.4633E-08  iEMhp_4 -2.1653E-08
#      9776
 1.5856  37083.6  197.773
 1.6276  44154  212.101
 1.6696  50890.3  226.904
 1.7116  60264.4  247.402
 1.7536  69934.1  265.377
 1.7956  74454.5  274.504
 1.8376  70053.9  266.69
 1.8796  58466.7  241.852
 1.9216  46650.6  216.89
 1.9636  39703.5  199.774
 2.0056  35170  186.822
 2.0476  32372.1  181.201
 2.0896  30896.3  175.985
 2.1316  30507.1  174.032
 2.1736  28776.7  170.365
 2.2156  29449.9  170.963
 2.2576  28210.9  167.93
 2.2996  27218.8  165.555
 2.3416  27455.8  164.946
 2.3836  26912.5  163.407
 2.4256  26375.2  162.295
 2.4676  26242.1  161.655
 2.5096  27275.3  164.861
 2.5516  39692.7  203.328
 2.5936  198690  446.025
 2.6356  32509.8  181.178
 2.6776  25902.7  160.63
 2.7196  24513.1  156.754
 2.7616  24001.9  154.901
 2.8036  23428.4  153.202
 2.8456  23611.2  154.388
 2.8876  22962.8  152.113
 2.9296  22424.6  150.464
 2.9716  22308.1  149.589
 3.0136  22008.6  148.643
 3.0556  22003.2  149.005
 3.0976  22147.7  148.48
 3.1396  21899.1  148.318
 3.1816  21735.6  147.7
 3.2236  21574.8  147.159
 3.2656  21336.3  145.422
 3.3076  21426.9  147.121
 3.3496  21793  147.59
 3.3916  22326.8  148.982
 3.4336  22448.5  149.942
 3.4756  22901.9  151.379
 3.5176  23817.9  154.171
 3.5596  23542.5  156.141
 3.6016  23707.5  153.866
 3.6436  22963.3  152.488
 3.6856  22757.1  150.155
 3.7276  21687.8  147.634
 3.7696  21432  146.751
 3.8116  21071  145.596
 3.8536  21137.9  145.761
 3.8956  21208.1  145.838
 3.9376  22173.7  149.4
 3.9796  21146.9  145.399
 4.0216  21130.5  144.414
 4.0636  21015.8  145.437
 4.1056  21123.1  145.46
 4.1476  21209.9  146.066
 4.1896  21394.2  146.564
 4.2316  21629.6  147.202
 4.2736  22061  148.454
 4.3156  22286.1  149.43
 4.3576  23160.5  152.264
 4.3996  23447.6  153.258
 4.4416  24333.2  155.92
 4.4836  25887.8  160.975
 4.5256  25374.9  159.978
 4.5676  24942.1  158.85
 4.6096  25497  159.648
 4.6516  25965.2  160.473
 4.6936  26091.1  161.647
 4.7356  27389.2  165.456
 4.7776  26338.9  162.084
 4.8196  25643.1  160.565
 4.8616  25407  159.445
 4.9036  25067.2  158.004
 4.9456  25408.7  159.708
 4.9876  24708.7  157.394
 5.0296  24644.5  157.016
 5.0716  24404.6  156.857
 5.1136  24600.6  157.349
 5.1556  25348.8  159.195
 5.1976  37921.2  194.708
 5.2396  26063  161.124
 5.2816  25515.5  159.872
 5.3236  25364.5  159.112
 5.3656  24997.3  158.844
 5.4076  24459.4  157.274
 5.4496  24630  157.32
 5.4916  24679  157.248
 5.5336  24712.8  157.358
 5.5756  24494.9  156.699
 5.6176  24684.4  156.756
 5.6596  24886.5  158.189
 5.7016  24869.9  157.578
 5.7436  25047.7  158.401
 5.7856  25097.7  158.619
 5.8276  25345.4  159.126
 5.8696  25423.6  159.438
 5.9116  25367.3  159.914
 5.9536  25545.1  160.269
 5.9956  25850.5  160.609
 6.0376  25812.7  161.104
 6.0796  26135.4  161.943
 6.1216  26189.3  162.304
 6.1636  26534.6  162.469
 6.2056  26677  163.544
 6.2476  26732.7  163.426
 6.2896  27137.1  164.522
 6.3316  26936.2  164.084
 6.3736  27057.8  164.344
 6.4156  26937.2  163.933
 6.4576  27426  164.977
 6.4996  27617  166.013
 6.5416  27559.7  165.974
 6.5836  28161.7  168.003
 6.6256  27644.3  166.025
 6.6676  28225.8  167.35
 6.7096  27958.2  167.384
 6.7516  28308.3  168.091
 6.7936  30226.8  172.873
 6.8356  30780.8  174.78
 6.8776  29916.4  173.093
 6.9196  28893.2  170.5
 6.9616  29567.6  171.91
 7.0036  29654.8  171.854
 7.0456  30193.3  172.721
 7.0876  29784.9  173.11
 7.1296  29831.9  172.478
 7.1716  29684.7  171.611
 7.2136  29395.6  170.563
 7.2556  29792.5  171.869
 7.2976  29675.5  172.012
 7.3396  29709.1  172.31
 7.3816  29793.5  172.765
 7.4236  30173.2  173.172
 7.4656  30224.3  172.819
 7.5076  30525.2  173.81
 7.5496  30340.3  173.803
 7.5916  30588.2  174.538
 7.6336  31613.6  177.345
 7.6756  30990.2  175.439
 7.7176  31292.5  176.599
 7.7596  31461.9  178.292
 7.8016  39562.4  202.33
 7.8436  32631.7  180.45
 7.8856  32610.1  180.014
 7.9276  33297.6  182.285
 7.9696  33213.9  182.362
 8.0116  34388.4  184.481
 8.0536  35023.4  186.068
 8.0956  38202.5  195.535
 8.1376  35157.5  187.062
 8.1796  35425.8  188.312
 8.2216  36148.3  188.978
 8.2636  37680.1  193.189
 8.3056  36567.4  191.08
 8.3476  38924  196.456
 8.3896  37635.9  193.704
 8.4316  36763.3  191.171
 8.4736  36578.4  190.164
 8.5156  36504.8  190.247
 8.5576  36086.5  190.115
 8.5996  35842.4  188.361
 8.6416  35902.3  189.755
 8.6836  35972.1  189.775
 8.7256  37119.5  192.227
 8.7676  40136.2  202.924
 8.8096  40102.1  200.046
 8.8516  36470.1  190.43
 8.8936  38793.4  196.238
 8.9356  35568  188.251
 8.9776  35577.4  188.358
 9.0196  35149.2  186.91
 9.0616  35995.6  188.62
 9.1036  38462  196.203
 9.1456  35254.1  187.191
 9.1876  34836.6  186.038
 9.2296  34128.7  183.546
 9.2716  33737.5  182.563
 9.3136  33799.8  182.717
 9.3556  34219.3  183.835
 9.3976  32133.8  178.652
 9.4396  33111.5  181.238
 9.4816  32502.4  179.44
 9.5236  32585  179.573
 9.5656  32423.7  179.44
 9.6076  32004.8  178.784
 9.6496  31690.3  177.84
 9.6916  32005.9  178.69
 9.7336  32003.4  178.474
 9.7756  32029.1  179.716
 9.8176  31292  177.2
 9.8596  31051.1  175.015
 9.9016  30700.6  174.019
 9.9436  30863.9  174.229
 9.9856  31367.1  176.031
 10.0276  30146.2  173.646
 10.0696  30355.4  173.314
 10.1116  30057.8  172.721
 10.1536  29128.6  169.719
 10.1956  28650.1  168.394
 10.2376  28683.2  168.021
 10.2796  28603.1  167.905
 10.3216  28562.2  167.899
 10.3636  28372.1  167.52
 10.4056  33907.4  183.543
 10.4476  34499.4  184.748
 10.4896  39923.5  198.108
 10.5316  35379.8  186.911
 10.5736  28886.1  169.618
 10.6156  28388.8  167.929
 10.6576  36027.1  187.566
 10.6996  28381  167.154
 10.7416  27140.5  163.688
 10.7836  28758.8  169.18
 10.8256  26557.1  162.999
 10.8676  26411.9  162.096
 10.9096  26434.6  162.212
 10.9516  26067.8  160.036
 10.9936  27458.4  164.442
 11.0356  26908.1  163.421
 11.0776  29176.3  169.446
 11.1196  28708.8  168.858
 11.1616  26361  161.503
 11.2036  28045  166.433
 11.2456  29989.1  172.856
 11.2876  25463.8  159.022
 11.3296  25803.2  159.974
 11.3716  26159  160.799
 11.4136  25509  159.637
 11.4556  25602.9  159.601
 11.4976  27458.6  164.237
 11.5396  27627.5  164.911
 11.5816  25160.5  157.824
 11.6236  24444  155.993
 11.6656  24469  155.041
 11.7076  23769.2  153.613
 11.7496  24752.6  160.627
 11.7916  25148.1  157.275
 11.8336  23844.2  154.028
 11.8756  24492.9  155.63
 11.9176  23946  153.787
 11.9596  23407.8  151.979
 12.0016  23233.3  152.192
 12.0436  23340.6  151.986
 12.0856  22769.7  150.619
 12.1276  23080.1  151.556
 12.1696  23144.8  150.931
 12.2116  23788.1  153.004
 12.2536  26784.2  163.2
 12.2956  24028.1  153.938
 12.3376  23539.6  152.581
 12.3796  23267.9  152.138
 12.4216  23706.1  152.796
 12.4636  24951.7  157.682
 12.5056  23095  150.994
 12.5476  22920.8  149.969
 12.5896  22866.6  150.403
 12.6316  22557.5  149.546
 12.6736  22962.4  151.2
 12.7156  22904.5  151.03
 12.7576  22737  150.707
 12.7996  23225.3  150.987
 12.8416  23667.8  153.464
 12.8836  24605.7  156.275
 12.9256  23653.7  152.278
 12.9676  23620.2  152.58
 13.0096  23032.1  151.745
 13.0516  23387.2  151.968
 13.0936  22955.2  150.676
 13.1356  23526.3  151.819
 13.1776  23690  153.321
 13.2196  23237.4  151.514
 13.2616  23067.5  151.256
 13.3036  23155.5  151.682
 13.3456  23282.1  152.076
 13.3876  23405.9  151.995
 13.4296  23419.6  152.182
 13.4716  23529  152.151
 13.5136  23415.7  151.944
 13.5556  23672.8  153.366
 13.5976  23501.8  152.96
 13.6396  23961.3  153.819
 13.6816  23317.2  152.1
 13.7236  24185.3  154.684
 13.7656  23879.8  154.231
 13.8076  24838.4  156.072
 13.8496  23656  153.083
 13.8916  23330.7  152.826
 13.9336  23153.7  151.485
 13.9756  23012.5  150.392
 14.0176  23154.9  151.523
 14.0596  24262.4  155.069
 14.1016  22795.1  150.7
 14.1436  22069.3  147.45
 14.1856  22655.8  149.678
 14.2276  22573.8  149.892
 14.2696  22743.5  150.288
 14.3116  22191.3  148.358
 14.3536  21429.3  145.958
 14.3956  21549.4  146.104
 14.4376  21535.8  145.846
 14.4796  21455.1  145.571
 14.5216  21056.4  144.983
 14.5636  21743  146.891
 14.6056  21176  144.553
 14.6476  20997.5  143.196
 14.6896  20618.7  142.416
 14.7316  20118.6  141.67
 14.7736  20222  141.214
 14.8156  20120  140.892
 14.8576  20074.9  140.586
 14.8996  20064.6  141.732
 14.9416  19350.4  139.181
 14.9836  19566.5  139.925
 15.0256  19388.5  138.234
 15.0676  19181.7  137.799
 15.1096  18907.3  136.556
 15.1516  18671  136.234
 15.1936  18658.6  135.639
 15.2356  18830.4  136.536
 15.2776  18689.9  135.617
 15.3196  18518.9  135.982
 15.3616  18294.1  134.916
 15.4036  18288  134.741
 15.4456  18755.6  135.891
 15.4876  18143.4  133.563
 15.5296  17853.4  132.774
 15.5716  17593.3  131.414
 15.6136  17788.9  132.46
 15.6556  20850  142.599
 15.6976  18337.4  133.81
 15.7396  17984.1  133.117
 15.7816  17598.4  131.197
 15.8236  17271.9  130.66
 15.8656  17238.3  130.33
 15.9076  17335.4  130.519
 15.9496  17722.7  134.779
 15.9916  16816.5  131.717
 16.0336  16333.7  126.81
 16.0756  16706.2  128.547
 16.1176  16456.4  127.495
 16.1596  16186.2  127.747
 16.2016  16268.1  126.839
 16.2436  16064.9  126.425
 16.2856  16264.9  126.762
 16.3276  15474.2  124.04
 16.3696  15862.8  125.415
 16.4116  15363.9  123.88
 16.4536  15843.1  125.581
 16.4956  16821.7  129.136
 16.5376  16112.2  126.567
 16.5796  15891.6  125.066
 16.6216  15829.8  125.125
 16.6636  15852.9  125.36
 16.7056  15619  124.311
 16.7476  15593  123.886
 16.7896  15628.9  124.622
 16.8316  15542.4  124.242
 16.8736  15915  125.975
 16.9156  16114.4  127.097
 16.9576  15365.2  124.883
 16.9996  15610.1  126.356
 17.0416  15575.6  124.603
 17.0836  15291.9  123.234
 17.1256  14976.2  121.962
 17.1676  15811.9  125.308
 17.2096  15687.1  124.696
 17.2516  15413.4  123.685
 17.2936  14979.8  121.954
 17.3356  14480.8  119.915
 17.3776  14391.9  119.72
 17.4196  14776.2  121.013
 17.4616  15021.3  121.935
 17.5036  15522.5  124.316
 17.5456  14385.4  120.305
 17.5876  14294  118.996
 17.6296  14335.7  118.982
 17.6716  14725.6  121.166
 17.7136  15486.8  124.401
 17.7556  14456.5  120.481
 17.7976  14722.4  121.189
 17.8396  14419.6  119.575
 17.8816  14188.6  119.15
 17.9236  14082.9  118.515
 17.9656  14312.5  120.166
 18.0076  15255.5  123.471
 18.0496  16374  127.004
 18.0916  23242.2  151.986
 18.1336  19730.1  140.149
 18.1756  16192.5  126.464
 18.2176  17118.2  130.269
 18.2596  14575.5  119.953
 18.3016  15276.1  123.068
 18.3436  16271.6  127.27
 18.3856  14742.4  121.034
 18.4276  14174.2  118.361
 18.4696  14716.4  120.692
 18.5116  14557.7  120.336
 18.5536  14177.4  119.103
 18.5956  14314  119.233
 18.6376  14533.5  120.547
 18.6796  13872.4  117.114
 18.7216  14290.6  119.422
 18.7636  13760.7  117.113
 18.8056  13342  115.254
 18.8476  13259.1  115.202
 18.8896  13335.8  115.187
 18.9316  13770  116.866
 18.9736  13557.3  115.83
 19.0156  14320.3  119.431
 19.0576  14053.8  117.207
 19.0996  13829.2  116.968
 19.1416  13765.2  117.087
 19.1836  13434  115.277
 19.2256  13097  114.026
 19.2676  13367.6  115.293
 19.3096  13401.6  115.671
 19.3516  13375.7  115.356
 19.3936  13549.1  116.232
 19.4356  13261.6  114.814
 19.4776  13512.4  115.98
 19.5196  13402.5  115.361
 19.5616  13513.7  116.094
 19.6036  13432.8  115.117
 19.6456  13798.5  116.926
 19.6876  14136  117.994
 19.7296  13426.3  115.444
 19.7716  13450.6  115.562
 19.8136  13629.8  116.687
 19.8556  13978  117.642
 19.8976  14358.4  119.3
 19.9396  14005.1  117.403
 19.9816  14160.2  118.286
 20.0236  14356.2  119.325
 20.0656  13574.8  116.026
 20.1076  13150.3  114.651
 20.1496  13059.9  114.257
 20.1916  13183.1  114.283
 20.2336  13147  114.104
 20.2756  12883  113.365
 20.3176  12852  112.984
 20.3596  12830.2  112.861
 20.4016  12916.8  113.057
 20.4436  12879  113.44
 20.4856  12720.3  112.525
 20.5276  12721.3  112.984
 20.5696  12672.6  112.329
 20.6116  12832.2  113.212
 20.6536  12659.9  112.028
 20.6956  12718.9  112.35
 20.7376  12675.3  112.382
 20.7796  12539.6  111.474
 20.8216  12758.2  112.159
 20.8636  13160.6  114.279
 20.9056  14736.4  120.876
 20.9476  13042.8  113.564
 20.9896  14441.5  119.356
 21.0316  13000.9  113.145
 21.0736  13352.4  115.178
 21.1156  13732.3  116.97
 21.1576  12906.8  113.455
 21.1996  12665  112.365
 21.2416  12586  111.854
 21.2836  12731.9  112.459
 21.3256  12481  111.431
 21.3676  12696.1  111.939
 21.4096  13096.2  114.053
 21.4516  12652  111.934
 21.4936  12410.7  111.095
 21.5356  12412  111.063
 21.5776  12549  111.505
 21.6196  12899.1  113.086
 21.6616  12776.2  112.637
 21.7036  12401.4  110.756
 21.7456  12310.8  110.42
 21.7876  12173.1  109.563
 21.8296  12110.1  109.136
 21.8716  12241.5  109.954
 21.9136  12396.1  110.844
 21.9556  12682  111.789
 21.9976  12387.1  110.492
 22.0396  12266.6  110.207
 22.0816  12328.3  111.013
 22.1236  12736.2  112.292
 22.1656  12288.2  110.47
 22.2076  12503.2  110.855
 22.2496  12209.2  109.57
 22.2916  12350.6  110.088
 22.3336  12497.4  111.439
 22.3756  12272.9  110.178
 22.4176  12244.2  109.907
 22.4596  11939.1  109.103
 22.5016  12533.3  111.28
 22.5436  12269.9  109.989
 22.5856  12407.9  110.85
 22.6276  12092.2  109.564
 22.6696  12064.1  109.786
 22.7116  12125.7  109.583
 22.7536  12267.1  110.197
 22.7956  12156.3  109.039
 22.8376  12107.7  109.329
 22.8796  12111.9  109.156
 22.9216  12221.8  110.192
 22.9636  12029.1  108.489
 23.0056  12079  108.845
 23.0476  12297.3  110.39
 23.0896  12466.7  110.529
 23.1316  12519.3  111.197
 23.1736  12085.3  112.134
 23.2156  12224.5  110.126
 23.2576  12211  110.279
 23.2996  12044.3  109.307
 23.3416  12012.2  109.677
 23.3836  12165.4  109.596
 23.4256  12071.4  109.313
 23.4676  12248.5  109.812
 23.5096  12145  110.007
 23.5516  12006.7  108.677
 23.5936  12296.6  110.877
 23.6356  12364.2  110.85
 23.6776  12053.6  109.986
 23.7196  11921  108.857
 23.7616  12119.9  109.459
 23.8036  12049.6  109.191
 23.8456  12045  108.737
 23.8876  11735.9  107.684
 23.9296  11802.4  108.467
 23.9716  11924.4  108.232
 24.0136  11824.7  108.658
 24.0556  11901  108.746
 24.0976  11867.6  108.399
 24.1396  11639.4  109.943
 24.1816  11811.7  109.526
 24.2236  11823.7  108.872
 24.2656  11920.1  108.793
 24.3076  11717.9  108.115
 24.3496  12122.3  109.849
 24.3916  12003.5  109.365
 24.4336  11690.5  108.133
 24.4756  11774.4  108.385
 24.5176  11411.1  106.361
 24.5596  11300.1  106.16
 24.6016  11156  105.564
 24.6436  11443.1  106.418
 24.6856  11605.1  106.927
 24.7276  11649.8  107.44
 24.7696  11395.8  106.384
 24.8116  11527.4  107.169
 24.8536  11298.4  106.095
 24.8956  11189.4  105.329
 24.9376  11218.7  105.644
 24.9796  11216.8  105.75
 25.0216  11288.4  106.199
 25.0636  11274.6  105.785
 25.1056  11054.4  105.173
 25.1476  10978  106.722
 25.1896  11093.5  105.767
 25.2316  11137.2  105.139
 25.2736  11036.1  104.431
 25.3156  10762.1  103.204
 25.3576  10765.5  103.63
 25.3996  10820.8  103.877
 25.4416  10852.8  104.013
 25.4836  10803.4  104.292
 25.5256  10860.5  103.942
 25.5676  11106.9  104.841
 25.6096  10739.9  103.665
 25.6516  10772.7  103.323
 25.6936  10684.1  103.214
 25.7356  10738.8  103.61
 25.7776  10955.2  104.327
 25.8196  10621.3  102.886
 25.8616  10810.3  103.713
 25.9036  11090.2  104.521
 25.9456  10685.6  103.18
 25.9876  10573.6  102.567
 26.0296  10696.2  102.899
 26.0716  10730.7  103.406
 26.1136  10996.8  104.618
 26.1556  10844.1  103.176
 26.1976  10611.5  103.071
 26.2396  10766.2  103.217
 26.2816  10540.7  102.497
 26.3236  10758.3  103.624
 26.3656  10606  102.7
 26.4076  10597.4  102.861
 26.4496  10971.6  104.196
 26.4916  10697.7  102.853
 26.5336  10592.9  102.666
 26.5756  10963.5  104.3
 26.6176  10767.9  103.42
 26.6596  10490.9  102.386
 26.7016  10387  101.678
 26.7436  10207.9  100.894
 26.7856  10221.2  100.937
 26.8276  10220.8  100.888
 26.8696  10179.2  100.563
 26.9116  10244.3  100.826
 26.9536  10302.5  101.153
 26.9956  10282.9  101.092
 27.0376  10115.8  100.478
 27.0796  10260.9  100.978
 27.1216  10365.4  101.524
 27.1636  10103.9  100.397
 27.2056  10290.9  101.205
 27.2476  10277.2  101.138
 27.2896  10093.2  100.265
 27.3316  10023.3  99.7064
 27.3736  9993.28  99.8161
 27.4156  10022.4  99.8074
 27.4576  10260.4  101.219
 27.4996  10146.9  100.255
 27.5416  10073.3  100.205
 27.5836  10049.4  99.9081
 27.6256  10216.9  100.913
 27.6676  10151  100.593
 27.7096  10066.7  100.045
 27.7516  10901.2  104.256
 27.7936  10594.9  102.96
 27.8356  10471.1  101.971
 27.8776  10277.2  101.071
 27.9196  10225.3  100.663
 27.9616  10400.9  101.715
 28.0036  10168  100.549
 28.0456  9903.74  99.3561
 28.0876  9824.33  99.0494
 28.1296  10035  99.9449
 28.1716  9985.2  99.7098
 28.2136  9850.46  98.9954
 28.2556  9883.97  99.2828
 28.2976  9837.88  99.0293
 28.3396  9965.06  99.4764
 28.3816  9987.94  99.5727
 28.4236  10133.5  100.45
 28.4656  9740.68  98.5189
 28.5076  9643.38  97.6643
 28.5496  9523.5  97.3149
 28.5916  9709.29  98.0708
 28.6336  9576.63  97.7388
 28.6756  9640.56  97.2716
 28.7176  9683.45  98.0328
 28.7596  9572.46  97.3645
 28.8016  9486.61  97.0418
 28.8436  9456.4  97.0466
 28.8856  9612.67  97.6978
 28.9276  9576.38  97.7567
 28.9696  9482.11  96.9377
 29.0116  9464.75  97.0164
 29.0536  9394.71  96.8608
 29.0956  9588.36  97.5808
 29.1376  9618.45  97.6979
 29.1796  9459.07  96.9308
 29.2216  9365.85  96.2957
 29.2636  9446.38  96.7007
 29.3056  9465.53  96.6746
 29.3476  9431.77  97.0175
 29.3896  9589.14  97.9082
 29.4316  9429.81  96.4451
 29.4736  9350.58  96.1019
 29.5156  9480.92  96.6817
 29.5576  9518.19  97.6164
 29.5996  9388.13  96.2154
 29.6416  9398.63  96.3788
 29.6836  9534.82  97.0095
 29.7256  9396.15  96.8595
 29.7676  9548.82  97.3046
 29.8096  9292.06  95.9317
 29.8516  9340.7  96.5079
 29.8936  9254.3  96.1576
 29.9356  9364.13  96.4826
 29.9776  9343.37  96.5288
 30.0196  9385.36  96.1302
 30.0616  9495.85  97.0765
 30.1036  9260.4  95.6927
 30.1456  9122.72  95.2294
 30.1876  9166.12  95.412
 30.2296  9225.43  95.6688
 30.2716  9298.9  95.6898
 30.3136  9172.78  95.6217
 30.3556  9340.33  96.7725
 30.3976  9279.31  97.9461
 30.4396  9396.2  95.9385
 30.4816  9307.97  95.0839
 30.5236  9220.42  94.6601
 30.5656  9236.74  95.3828
 30.6076  9194.29  94.9376
 30.6496  9192.88  94.9715
 30.6916  9136.36  94.7691
 30.7336  9143.65  94.9605
 30.7756  9215.95  95.6391
 30.8176  9176.16  95.1357
 30.8596  9049.41  94.247
 30.9016  9081.97  94.2953
 30.9436  9278.44  95.5324
 30.9856  9103.95  94.7342
 31.0276  9021.77  93.9236
 31.0696  8946.71  93.9645
 31.1116  8820.87  93.4056
 31.1536  9279.59  95.684
 31.1956  9132.66  95.0134
 31.2376  8960.35  94.1202
 31.2796  8964.72  93.689
 31.3216  8910.93  93.3552
 31.3636  8986.85  94.4295
 31.4056  8949.79  95.5315
 31.4476  8959.85  93.5106
 31.4896  8891.99  93.6463
 31.5316  9159.17  94.4926
 31.5736  10029.4  98.64
 31.6156  9727.17  97.168
 31.6576  9185.44  94.5238
 31.6996  9330.13  94.9355
 31.7416  9083.44  94.5887
 31.7836  9130.26  93.9876
 31.8256  8964.12  93.4704
 31.8676  9192.4  94.5756
 31.9096  8836.39  92.9354
 31.9516  8804.89  93.065
 31.9936  8802.22  92.8755
 32.0356  9023.77  94.1085
 32.0776  8912.45  93.4108
 32.1196  8926.87  93.4909
 32.1616  8923.53  93.025
 32.2036  8782.07  92.7851
 32.2456  8850.09  93.5173
 32.2876  8887.55  93.0507
 32.3296  8759.74  92.5045
 32.3716  8789.93  92.7625
 32.4136  8956.44  93.8596
 32.4556  8915.57  93.0846
 32.4976  8839.32  92.578
 32.5396  8733.81  92.0536
 32.5816  8760.71  92.2123
 32.6236  8801.71  92.6004
 32.6656  8779.21  93.0139
 32.7076  8652.91  92.0053
 32.7496  8675  91.7949
 32.7916  8690.42  91.8325
 32.8336  8725.42  92.1131
 32.8756  8788.5  92.2699
 32.9176  8782.14  92.608
 32.9596  8821.68  92.9018
 33.0016  8800.41  92.5857
 33.0436  8756.7  92.5177
 33.0856  8728.87  92.446
 33.1276  8715.75  92.1091
 33.1696  8747.03  92.1298
 33.2116  8740.25  92.3106
 33.2536  8663.02  91.9071
 33.2956  8688.57  92.1224
 33.3376  8572.1  91.305
 33.3796  8766.81  92.4821
 33.4216  8671.13  91.5723
 33.4636  8606.49  91.3803
 33.5056  8598.24  91.4124
 33.5476  8422.75  90.6276
 33.5896  8713.98  91.9226
 33.6316  8515.94  91.215
 33.6736  8456.03  91.1174
 33.7156  8440.3  91.0866
 33.7576  8487.57  90.9788
 33.7996  8652.05  91.6231
 33.8416  8481.13  90.8911
 33.8836  8566.12  91.1344
 33.9256  8547.22  91.0991
 33.9676  8550.41  91.0073
 34.0096  8326.15  90.1196
 34.0516  8382.12  90.0629
 34.0936  8316.7  89.9687
 34.1356  8479.25  90.5813
 34.1776  8388.57  90.1153
 34.2196  8368.94  90.1868
 34.2616  8339.37  90.2156
 34.3036  8324.86  90.3275
 34.3456  8300.03  89.9454
 34.3876  8427.38  90.6876
 34.4296  8432.76  90.3209
 34.4716  8400.74  90.2992
 34.5136  8386.84  90.4243
 34.5556  8314.9  90.2799
 34.5976  8453.89  90.8803
 34.6396  8387.48  90.1964
 34.6816  8374.67  90.2474
 34.7236  8410.23  90.2222
 34.7656  8447.33  90.6093
 34.8076  8252.73  89.8775
 34.8496  8370.52  90.3746
 34.8916  8355.08  90.1681
 34.9336  8368.63  90.2036
 34.9756  8708.76  91.949
 35.0176  8284.52  90.1951
 35.0596  8310.86  90.1698
 35.1016  8257.23  89.6491
 35.1436  8343.14  89.8049
 35.1856  8108.58  88.6521
 35.2276  8254.47  89.6208
 35.2696  8148.29  89.2292
 35.3116  8377.62  90.5688
 35.3536  8225.77  89.4898
 35.3956  8244.26  89.2725
 35.4376  8325.34  90.2636
 35.4796  8277.51  90.0631
 35.5216  8142.78  89.2085
 35.5636  8122.5  89.905
 35.6056  8275.28  89.772
 35.6476  8236.11  89.4603
 35.6896  8348.17  90.224
 35.7316  8164.68  89.1278
 35.7736  8120.32  89.0833
 35.8156  8050.44  88.693
 35.8576  8182.99  89.6788
 35.8996  8326.33  90.4152
 35.9416  8334.05  89.9679
 35.9836  8190.67  89.627
 36.0256  8241.93  89.8347
 36.0676  8239.21  89.3649
 36.1096  8121.5  89.0715
 36.1516  8254  89.6832
 36.1936  8151.32  88.9774
 36.2356  8077.73  89.2037
 36.2776  8105.68  88.8417
 36.3196  8175.3  88.9002
 36.3616  8074.99  88.4891
 36.4036  8173.88  89.0762
 36.4456  8079.62  88.7661
 36.4876  7948.25  87.9883
 36.5296  8193.64  89.3761
 36.5716  8194.22  90.1565
 36.6136  8421.81  90.1579
 36.6556  8452.27  90.5205
 36.6976  8221.25  89.7791
 36.7396  8196.89  89.47
 36.7816  8168.91  89.5939
 36.8236  8127.21  89.2866
 36.8656  8058.55  88.9741
 36.9076  8127.91  89.3734
 36.9496  8092.68  89.1927
 36.9916  8034.6  88.3548
 37.0336  8217.2  89.6682
 37.0756  8140.58  89.0413
 37.1176  7996.15  88.6053
 37.1596  7903.28  88.0011
 37.2016  8108.79  89.3172
 37.2436  8133.12  88.8216
 37.2856  8094.89  88.865
 37.3276  8125.05  88.3828
 37.3696  7958.36  88.3458
 37.4116  7932.1  88.1056
 37.4536  7792.9  87.2025
 37.4956  7881.88  87.7426
 37.5376  7929.13  89.5437
 37.5796  7789.58  88.7091
 37.6216  7814.42  87.1459
 37.6636  7719.75  86.5274
 37.7056  7849.09  87.4332
 37.7476  7892.61  87.2233
 37.7896  7821.76  87.32
 37.8316  7801.15  87.3739
 37.8736  7907.39  87.493
 37.9156  7651.79  86.0712
 37.9576  7777.7  86.8193
 37.9996  7670.75  85.7883
 38.0416  7822.95  87.444
 38.0836  7894.13  87.7397
 38.1256  7937.38  87.9382
 38.1676  7775.8  87.1779
 38.2096  7949.03  87.7699
 38.2516  8029.84  88.3155
 38.2936  7967.35  87.8734
 38.3356  7838.66  87.0676
 38.3776  7685.53  86.4928
 38.4196  7902.25  87.5561
 38.4616  7792.99  87.1881
 38.5036  7991.12  88.1312
 38.5456  7755.67  87.6404
 38.5876  7737.18  87.5656
 38.6296  7765.3  86.7178
 38.6716  7751.8  86.4407
 38.7136  7693.9  86.06
 38.7556  7727.3  86.7435
 38.7976  7720.96  86.6433
 38.8396  7605.29  86.4387
 38.8816  7593.26  86.1492
 38.9236  7637.98  86.2236
 38.9656  7759.45  86.8214
 39.0076  7751.39  86.1898
 39.0496  7753.41  86.7384
 39.0916  7716.07  86.1794
 39.1336  7704.13  86.5196
 39.1756  7660.16  86.338
 39.2176  7669.39  86.9089
 39.2596  7646.13  86.6986
 39.3016  7726.78  86.7414
 39.3436  7621.83  86.5595
 39.3856  7718.48  86.5674
 39.4276  7666.65  86.7649
 39.4696  7669.39  86.4074
 39.5116  7596.91  86.5055
 39.5536  7845.96  88.3331
 39.5956  7736.93  86.8251
 39.6376  7672.29  86.3052
 39.6796  7769.35  86.7564
 39.7216  7732.24  86.6461
 39.7636  7785.33  87.5118
 39.8056  7770.26  87.1982
 39.8476  7633.74  86.6852
 39.8896  7672.29  86.5394
 39.9316  7688.49  86.88
 39.9736  7780.34  86.9695
 40.0156  7704.18  86.3658
 40.0576  7810.94  87.3219
 40.0996  7875.16  86.8703
 40.1416  7729.64  86.846
 40.1836  7818.29  87.2248
 40.2256  7742.33  86.8539
 40.2676  7668.24  86.6018
 40.3096  7831.31  87.3646
 40.3516  7866.02  87.7605
 40.3936  7770.46  86.7144
 40.4356  7747.83  86.7738
 40.4776  7780.27  87.2036
 40.5196  7869.95  87.9974
 40.5616  7842.06  87.4864
 40.6036  7708.77  86.9904
 40.6456  7708.77  86.6014
 40.6876  7864.25  87.4614
 40.7296  7859.55  87.5674
 40.7716  7791.97  87.3158
 40.8136  7714.21  86.824
 40.8556  7782.78  87.3458
 40.8976  7834.73  87.5588
 40.9396  7612.9  86.6518
 40.9816  7860.4  87.3375
 41.0236  7789.91  86.7276
 41.0656  7924.03  88.0088
 41.1076  7820.36  87.2023
 41.1496  7720.11  86.5553
 41.1916  7744.75  87.0102
 41.2336  7662.09  86.5355
 41.2756  7725.34  86.5035
 41.3176  7734.82  87.1656
 41.3596  7825.63  87.3996
 41.4016  7773.87  87.3704
 41.4436  7783.53  87.212
 41.4856  7781.05  87.3512
 41.5276  7666.19  86.7347
 41.5696  7817.67  87.2024
 41.6116  7691.21  86.9028
 41.6536  7788.42  87.3091
 41.6956  7845.16  87.6071
 41.7376  7677.09  86.7621
 41.7796  7717.42  86.9186
 41.8216  7733.94  87.202
 41.8636  7776.78  87.3818
 41.9056  7675.97  86.6049
 41.9476  7806.88  87.5696
 41.9896  7752.79  86.9374
 42.0316  7748.42  86.9916
 42.0736  7857.84  87.7515
 42.1156  7697.19  86.6581
 42.1576  7689.32  86.7105
 42.1996  7747.43  87.1802
 42.2416  7774.37  86.9135
 42.2836  7578.08  85.9255
 42.3256  7614.54  86.2437
 42.3676  7696.83  86.5159
 42.4096  7667  86.3072
 42.4516  7682.79  86.4857
 42.4936  7659.16  86.4204
 42.5356  7690.89  86.7309
 42.5776  7876.1  87.7085
 42.6196  7745.59  86.9507
 42.6616  7563.89  86.1725
 42.7036  7685.92  86.2563
 42.7456  7677.23  86.5632
 42.7876  7708.29  86.8343
 42.8296  7581.24  86.0175
 42.8716  7601.11  86.2214
 42.9136  7657.96  86.2942
 42.9556  7640.48  86.3638
 42.9976  7682.16  86.5665
 43.0396  7563.8  85.6324
 43.0816  7559.81  85.9764
 43.1236  7578.07  86.1448
 43.1656  7566.1  85.9073
 43.2076  7598.56  86.1957
 43.2496  7554.49  85.7571
 43.2916  7540.54  86.0414
 43.3336  7537.33  85.8641
 43.3756  7515.82  85.501
 43.4176  7470.83  85.3259
 43.4596  7456.22  85.0971
 43.5016  7565.87  86.1229
 43.5436  7478.66  85.521
 43.5856  7568.77  86.0631
 43.6276  7504.34  85.5978
 43.6696  7456.58  85.4637
 43.7116  7515.42  85.419
 43.7536  7575.86  86.2443
 43.7956  7440.2  86.6345
 43.8376  7539.87  85.7692
 43.8796  7457.07  85.3791
 43.9216  7559.7  85.8838
 43.9636  7428.11  85.2408
 44.0056  7408.04  85.352
 44.0476  7347.43  84.6407
 44.0896  7334.57  84.9034
 44.1316  7395.7  84.9202
 44.1736  7383.45  84.8401
 44.2156  7414.27  84.8653
 44.2576  7541.59  85.9217
 44.2996  7419.82  85.1946
 44.3416  7474.06  85.269
 44.3836  7269.73  84.4157
 44.4256  7203.86  83.6862
 44.4676  7378.44  84.8494
 44.5096  7338.53  84.762
 44.5516  7233.54  84.1155
 44.5936  7270.81  84.2889
 44.6356  7313.03  84.2738
 44.6776  7297.37  84.496
 44.7196  7249.99  84.4832
 44.7616  7278.39  85.9945
 44.8036  7212.2  84.2588
 44.8456  7401.59  85.3638
 44.8876  7362.27  84.9873
 44.9296  7405.83  84.7003
 44.9716  7210.58  83.995
 45.0136  7289.94  84.3945
 45.0556  7213.54  84.026
 45.0976  7269.67  84.4024
 45.1396  7154.75  83.5156
 45.1816  7200.67  83.5401
 45.2236  7289.88  84.1246
 45.2656  7250.18  84.3918
 45.3076  7147.17  83.5869
 45.3496  7125.35  83.7438
 45.3916  7202.31  84.4622
 45.4336  7179.17  84.176
 45.4756  7260.52  84.5122
 45.5176  7241.28  84.0215
 45.5596  7158.43  83.6556
 45.6016  7176.92  84.1748
 45.6436  7172.74  83.3451
 45.6856  7151.05  83.8619
 45.7276  7192.02  85.9106
 45.7696  7167.66  84.928
 45.8116  7139.72  84.2107
 45.8536  7095.64  83.8524
 45.8956  7192.76  83.7843
 45.9376  7109.16  82.7708
 45.9796  7204.75  84.0145
 46.0216  7209.29  84.364
 46.0636  7221.19  83.5888
 46.1056  7128.43  83.0412
 46.1476  7220.99  84.1628
 46.1896  7105.72  83.6318
 46.2316  7003.16  82.9057
 46.2736  6997.77  83.0747
 46.3156  7112.51  83.503
 46.3576  7077.24  83.4942
 46.3996  7044.04  83.4535
 46.4416  7185.58  83.8429
 46.4836  6954.35  82.8574
 46.5256  7211.17  84.3111
 46.5676  7103.35  83.791
 46.6096  7224.75  84.4299
 46.6516  6936.41  81.8094
 46.6936  7155.35  83.5749
 46.7356  7138.34  83.5817
 46.7776  7073.03  84.0207
 46.8196  7015.04  83.4135
 46.8616  6892.51  82.4971
 46.9036  6849.76  81.9065
 46.9456  6920.51  81.9809
 46.9876  6976.28  82.3862
 47.0296  7010.35  83.2614
 47.0716  6863.49  82.2167
 47.1136  6940.01  82.3636
 47.1556  6989.94  82.5327
 47.1976  7009.83  82.7936
 47.2396  6907.26  82.5057
 47.2816  6821.42  81.6986
 47.3236  6871.78  82.3569
 47.3656  6967.86  82.858
 47.4076  6919.11  82.3115
 47.4496  6857.15  82.1068
 47.4916  6861.66  82.3228
 47.5336  6885.75  82.2784
 47.5756  6886.48  82.3619
 47.6176  6963.84  82.7568
 47.6596  6814.3  81.5902
 47.7016  6965.43  82.3103
 47.7436  6948.47  82.5361
 47.7856  7022.77  82.9953
 47.8276  6865.55  82.119
 47.8696  6910.43  82.4625
 47.9116  7001.51  82.7297
 47.9536  6974.19  82.5059
 47.9956  6758.57  81.914
 48.0376  6713.76  81.4217
 48.0796  6946.34  82.947
 48.1216  6909.86  82.5533
 48.1636  6918.44  82.191
 48.2056  6846.97  82.0204
 48.2476  6905.2  82.6719
 48.2896  6890.2  82.4938
 48.3316  6865.81  82.2848
 48.3736  6763.51  81.692
 48.4156  6759.39  81.5233
 48.4576  6768.56  81.8673
 48.4996  6842.75  81.7791
 48.5416  6851.82  82.1569
 48.5836  6768.28  81.3348
 48.6256  6830.06  81.9134
 48.6676  6814.94  82.3259
 48.7096  6828.12  81.6843
 48.7516  6828.13  81.8339
 48.7936  6693.85  81.0832
 48.8356  6845.41  82.0474
 48.8776  6833.78  82.4498
 48.9196  6880.59  82.2069
 48.9616  6785.82  82.0072
 49.0036  6800.2  82.4328
 49.0456  6739.25  82.0462
 49.0876  6793.4  82.0169
 49.1296  6649.77  81.205
 49.1716  6744.31  81.6539
 49.2136  6793.15  81.8797
 49.2556  6752.37  81.6601
 49.2976  6815.89  82.1158
 49.3396  6670.85  81.292
 49.3816  6749.33  81.2115
 49.4236  6673.9  81.1627
 49.4656  6648.96  81.0245
 49.5076  6662.68  80.8692
 49.5496  6694.26  81.0021
 49.5916  6692.93  81.0261
 49.6336  6684.94  81.1793
 49.6756  6713.79  81.5915
 49.7176  6616.37  80.9374
 49.7596  6688.24  81.3217
 49.8016  6825.44  81.8994
 49.8436  6700.85  81.4359
 49.8856  6605.52  80.8583
 49.9276  6629.57  81.1053
 49.9696  6643.01  81.1661
 50.0116  6644.89  81.3015
 50.0536  6625.64  81.1383
 50.0956  6528.22  80.6137
 50.1376  6623.45  80.8972
 50.1796  6521.81  80.5429
 50.2216  6567.4  80.814
 50.2636  6542.75  80.2963
 50.3056  6531.2  80.3904
 50.3476  6624.57  80.989
 50.3896  6568.13  80.6142
 50.4316  6571.86  80.4782
 50.4736  6463.23  80.0193
 50.5156  6530.47  80.42
 50.5576  6555.22  80.3397
 50.5996  6493.51  80.2367
 50.6416  6494.99  80.1743
 50.6836  6566.56  80.668
 50.7256  6549.84  80.4913
 50.7676  6551.88  80.7754
 50.8096  6482.6  79.9454
 50.8516  6397.66  79.8226
 50.8936  6551.75  80.5623
 50.9356  6542.59  80.6094
 50.9776  6488.58  80.4246
 51.0196  6333.08  79.576
 51.0616  6440.8  79.5936
 51.1036  6573.56  80.7553
 51.1456  6449.35  79.9071
 51.1876  6475.71  79.4311
 51.2296  6446.68  79.8691
 51.2716  6298.15  78.6546
 51.3136  6295.42  79.0845
 51.3556  6410.31  79.4373
 51.3976  6383.85  79.4188
 51.4396  6339.18  79.4409
 51.4816  6409.85  79.7394
 51.5236  6364.47  79.5341
 51.5656  6438.55  79.6077
 51.6076  6424.2  79.5984
 51.6496  6336.68  79.2411
 51.6916  6346.56  79.6513
 51.7336  6425.11  80.2303
 51.7756  6360.98  79.5377
 51.8176  6463.25  80.2662
 51.8596  6275.94  79.1166
 51.9016  6470.22  79.9512
 51.9436  6282.14  80.1885
 51.9856  6310.55  80.8003
 52.0276  6413.08  79.9961
 52.0696  6338.59  79.5944
 52.1116  6310.01  79.5193
 52.1536  6451.51  80.2419
 52.1956  6420.49  79.5825
 52.2376  6341.39  79.2606
 52.2796  6416.24  79.533
 52.3216  6243.76  79.129
 52.3636  6399.93  79.7049
 52.4056  6326.78  79.1097
 52.4476  6220.02  78.7931
 52.4896  6143.11  78.353
 52.5316  6275.34  79.2344
 52.5736  6313.95  79.2
 52.6156  6323.7  79.6376
 52.6576  6332.06  79.1518
 52.6996  6020.02  78.1051
 52.7416  6339.79  80.0105
 52.7836  6307.97  79.6861
 52.8256  6364.94  79.2753
 52.8676  6180.13  78.6866
 52.9096  6316.6  79.6417
 52.9516  6276.7  79.7515
 52.9936  6209.13  79.6997
 53.0356  6161.21  78.4242
 53.0776  6104.86  78.3422
 53.1196  6092.75  78.3626
 53.1616  6032.58  78.0205
 53.2036  6101.42  78.4194
 53.2456  6194.31  79.1149
 53.2876  6095.75  78.1965
 53.3296  6135.71  78.77
 53.3716  6072.45  78.12
 53.4136  6179.27  78.9432
 53.4556  6111.32  78.5398
 53.4976  5980.07  77.5406
 53.5396  6092.06  78.6492
 53.5816  6170.75  78.8016
 53.6236  6068.22  78.474
 53.6656  6188.91  78.8872
 53.7076  6194.72  78.8836
 53.7496  6048.33  78.0622
 53.7916  6077.31  78.3769
 53.8336  6039.2  78.0301
 53.8756  6017.97  78.4265
 53.9176  6124.13  78.4756
 53.9596  6132.71  79.2777
 54.0016  6107.15  78.4568
 54.0436  6106.04  78.6582
 54.0856  6174.3  78.5363
 54.1276  6141.21  78.5214
 54.1696  6102.91  78.4342
 54.2116  6051.37  77.8752
 54.2536  6037.93  77.6132
 54.2956  6106.75  78.0934
 54.3376  6122.88  78.6731
 54.3796  6133.99  78.6473
 54.4216  6172.66  78.9393
 54.4636  6127.3  78.6083
 54.5056  6080.19  78.1346
 54.5476  5999.01  77.9266
 54.5896  6138.38  78.6624
 54.6316  6221.97  79.0625
 54.6736  6058.15  78.0355
 54.7156  6031.29  77.933
 54.7576  5998.37  77.7145
 54.7996  6083.52  78.4204
 54.8416  6085.73  78.4636
 54.8836  5940.87  77.6363
 54.9256  6072.88  78.2483
 54.9676  6099.17  78.2736
 55.0096  6006.82  77.7502
 55.0516  6033.79  78.0865
 55.0936  5985.96  77.4715
 55.1356  5954.67  77.3133
 55.1776  5974.71  77.7129
 55.2196  6065.15  78.0811
 55.2616  6062.57  78.2721
 55.3036  5986.9  77.9421
 55.3456  6039.67  78.425
 55.3876  6008.48  77.9791
 55.4296  6020.55  78.0318
 55.4716  6000.75  77.9357
 55.5136  6090.78  78.2781
 55.5556  6103.85  78.4381
 55.5976  5962.98  77.5758
 55.6396  6108.79  78.3874
 55.6816  6007.44  77.697
 55.7236  5985.32  77.6953
 55.7656  6041.92  77.7239
 55.8076  6075.84  77.9251
 55.8496  5924.41  77.369
 55.8916  5929.96  77.4559
 55.9336  5969.73  77.5784
 55.9756  6000.72  77.666
 56.0176  5907.86  77.2133
 56.0596  5981.8  77.6793
 56.1016  6001.81  77.8453
 56.1436  5920.64  77.5495
 56.1856  5991.2  77.7536
 56.2276  6011.53  77.9381
 56.2696  5939.11  77.4426
 56.3116  5978.7  78.0939
 56.3536  5924.07  77.4046
 56.3956  5990.01  77.8264
 56.4376  5948.71  77.5875
 56.4796  6011.5  77.7941
 56.5216  5925.48  77.6113
 56.5636  5979.27  77.5579
 56.6056  5939.02  77.5261
 56.6476  5955.29  77.2656
 56.6896  6035.13  78.2259
 56.7316  5947.32  77.5614
 56.7736  5992.43  77.851
 56.8156  5965.04  77.6758
 56.8576  5931.29  77.3908
 56.8996  6005.47  77.8189
 56.9416  5992.18  77.8957
 56.9836  5906.79  77.0003
 57.0256  5819.67  76.7316
 57.0676  5911.69  77.4657
 57.1096  6025.61  77.995
 57.1516  5997.36  77.8362
 57.1936  5984.87  77.5454
 57.2356  5906.45  77.3474
 57.2776  5982.28  77.799
 57.3196  5917.08  77.7366
 57.3616  5956.15  77.496
 57.4036  6007.25  77.8878
 57.4456  5917.81  77.2743
 57.4876  6037.91  77.9063
 57.5296  5960.82  77.6514
 57.5716  5949.76  77.6642
 57.6136  5963.71  77.5706
 57.6556  5974.18  77.7853
 57.6976  5932.72  77.3302
 57.7396  5830.53  77.0352
 57.7816  5833.79  77.4058
 57.8236  5935.61  77.8766
 57.8656  5959.74  77.6963
 57.9076  5885.83  77.2434
 57.9496  5891.59  77.6234
 57.9916  5950.31  77.4847
 58.0336  5951.13  77.8093
 58.0756  6019.68  77.8448
 58.1176  5951.49  77.4484
 58.1596  5882.04  77.5455
 58.2016  5900.41  76.9202
 58.2436  5955.62  77.6715
 58.2856  6001.23  77.8888
 58.3276  5978.72  78.1107
 58.3696  6042.06  78.2696
 58.4116  5979.22  77.7333
 58.4536  5956.63  77.4732
 58.4956  5910.67  77.352
 58.5376  5990.22  77.4445
 58.5796  5902.13  77.2896
 58.6216  5951.55  77.4314
 58.6636  5996.72  77.9385
 58.7056  5908.52  77.2205
 58.7476  5887.17  77.5161
 58.7896  5820.6  76.7292
 58.8316  5985.52  77.8046
 58.8736  5929.38  77.4515
 58.9156  5927.81  77.4823
 58.9576  6098.86  78.7854
 58.9996  6080.24  78.0372
 59.0416  6089.75  78.4652
 59.0836  5890.18  77.0872
 59.1256  5951.17  77.8725
 59.1676  5842.79  77.775
 59.2096  6137.01  79.0098
 59.2516  6028.32  77.8885
 59.2936  5943.43  77.6636
 59.3356  5964.01  77.6764
 59.3776  6013.08  78.1639
 59.4196  5925.03  77.525
 59.4616  5818.05  76.6856
 59.5036  5872.51  77.0787
 59.5456  6001.07  77.6121
 59.5876  6014.34  77.8885
 59.6296  5892.89  77.1664
 59.6716  5878.23  77.1276
 59.7136  6015.36  78.0103
 59.7556  5901.86  77.4057
 59.7976  6003.36  77.8114
 59.8396  5925.24  77.1988
 59.8816  5879.43  77.438
 59.9236  5932.21  77.4315
 59.9656  5935  77.708
 60.0076  5974.66  77.3282
 60.0496  5923.68  77.4963
 60.0916  5960.64  77.16
 60.1336  6067.63  78.9592
 60.1756  5937.4  79.2813
 60.1996  0.0000000E+00  0.0000000E+00