File: docs/examples/XRD/IS17_D/Data/IS17_D/17_Da_f00143.xye
# /beamlines/bl04/projects/cycle2025-II/20250340211-lsimonelli/DATA/IS17_D/17_Da_f00143.xye : mythproc.py merge -s 0.006 -l 0.5 -f /beamlines/bl04/inhouse/ff/FlatField/ff_20Nov2024rod8mm60s_17keV.raw -b True -c true -o xye /beamlines/bl04/projects/cycle2025-II/20250340211-lsimonelli/DATA/IS17_D/17_Da_00143.dat
# IsMon = [6771357, 6773816, 6769939]  IsPos = [-1.4999, -2.4884, -3.4988]
# Wave = 0.4962  CalPath /beamlines/bl04/projects/cycle2025-II/20250340211-lsimonelli/DATA/Align/Si_Pos1_25keV_f00001.cal
# Date = 2025-09-25_09:25:44 Dt = 4.8000  Bin = 0.0060  <imon> = 6771704 +/- 1602 (Min/Max) 6769939 / 6773816
# icurr 251.2811  mocoIn 1.7148E-05  mocoOut 0.8047  i15 7.09031e+06  imon 6.7717e+06  i7 4.3333  iEMpd_timer 4.8000  iEMpd_1 3.6315E-08  iEMpd_2 7.8822E-08  iEMpd_3 1.9312E-08  iEMpd_4 4.9852E-08  iEMhp_timer 4.8000  iEMhp_1 4.9094E-06  iEMhp_2 -2.7121E-08  iEMhp_3 -2.3431E-08  iEMhp_4 -2.2205E-08
#      9776
 1.5856  40688.6  207.134
 1.6276  48564.8  222.412
 1.6696  54817.3  235.463
 1.7116  62987.6  252.894
 1.7536  72242.9  269.684
 1.7956  76734.3  278.635
 1.8376  72896.5  272.008
 1.8796  61358.7  247.716
 1.9216  49786.3  224.029
 1.9636  42093.1  205.15
 2.0056  37316.3  192.41
 2.0476  35180.8  188.872
 2.0896  33620.1  183.552
 2.1316  32424.1  179.391
 2.1736  31159  177.252
 2.2156  31473.7  176.715
 2.2576  30338.4  174.121
 2.2996  29159.3  171.33
 2.3416  29430.2  170.751
 2.3836  28694.5  168.707
 2.4256  28091.7  167.469
 2.4676  27851.1  166.514
 2.5096  27280.7  164.854
 2.5516  27508.4  169.381
 2.5936  39035.1  197.668
 2.6356  26574  163.786
 2.6776  26021.3  160.974
 2.7196  25794.4  160.784
 2.7616  25723.1  160.341
 2.8036  25049.9  158.399
 2.8456  25180  159.417
 2.8876  24654.1  157.618
 2.9296  24461.3  157.13
 2.9716  24055.7  155.319
 3.0136  24076.7  155.453
 3.0556  24032.1  155.702
 3.0976  23829.6  153.999
 3.1396  23749.5  154.448
 3.1816  23392.2  153.207
 3.2236  23743.9  154.357
 3.2656  23406  152.295
 3.3076  23239.6  153.2
 3.3496  23400.5  152.674
 3.3916  23769.7  153.704
 3.4336  24177.5  155.591
 3.4756  24725  157.276
 3.5176  25491.5  159.484
 3.5596  25413.5  161.679
 3.6016  25532.3  159.678
 3.6436  24550.2  157.663
 3.6856  24351.1  155.331
 3.7276  23434.5  153.459
 3.7696  23335.8  153.344
 3.8116  23075.9  152.365
 3.8536  23073.6  152.297
 3.8956  22944.7  151.691
 3.9376  22943.8  151.937
 3.9796  22627.8  150.404
 4.0216  22893.7  150.319
 4.0636  22831.4  151.59
 4.1056  22867.2  151.344
 4.1476  23029.2  152.2
 4.1896  23082.5  152.232
 4.2316  23222.1  152.528
 4.2736  23786.9  154.152
 4.3156  24131.9  155.503
 4.3576  24808  157.589
 4.3996  25035.9  158.556
 4.4416  25435.2  159.412
 4.4836  26149.2  161.779
 4.5256  26422.1  163.241
 4.5676  26368.3  163.329
 4.6096  27020.5  163.988
 4.6516  27327.8  164.629
 4.6936  27482.3  165.911
 4.7356  27901.3  166.995
 4.7776  27688.1  166.185
 4.8196  27355.7  165.838
 4.8616  26941.7  164.052
 4.9036  26581.1  162.701
 4.9456  26559.2  163.285
 4.9876  25938.6  161.267
 5.0296  26029  161.358
 5.0716  26112.4  162.409
 5.1136  26258  162.557
 5.1556  26608.8  163.109
 5.1976  27930.2  167.102
 5.2396  26977.7  163.924
 5.2816  27121.2  164.821
 5.3236  27240.9  164.892
 5.3656  26954.8  164.948
 5.4076  26599.6  164.009
 5.4496  26704.7  163.818
 5.4916  26677.4  163.491
 5.5336  26928.2  164.263
 5.5756  26517.6  163.03
 5.6176  26895.3  163.62
 5.6596  27095.2  165.215
 5.7016  27414.7  165.442
 5.7436  27576.2  166.205
 5.7856  27330.2  165.504
 5.8276  27786.6  166.616
 5.8696  27871.2  167.04
 5.9116  27894.7  167.721
 5.9536  27815.2  167.232
 5.9956  28461.7  168.529
 6.0376  28414.8  169.029
 6.0796  28770.1  169.912
 6.1216  28607.5  169.636
 6.1636  28929.3  169.641
 6.2056  28920.1  170.287
 6.2476  28859.7  169.979
 6.2896  29137.6  170.474
 6.3316  29100.8  170.542
 6.3736  29297.3  171.008
 6.4156  29277.3  170.846
 6.4576  29459  170.981
 6.4996  29508.8  171.61
 6.5416  29410.3  171.456
 6.5836  29730.1  172.62
 6.6256  29721.6  172.152
 6.6676  30361.9  173.566
 6.7096  30087.6  173.631
 6.7516  30415.2  174.231
 6.7936  30627.6  174.264
 6.8356  31082  175.633
 6.8776  31119.3  176.543
 6.9196  31090.2  176.863
 6.9616  31641.2  177.856
 7.0036  31977  178.454
 7.0456  31988.4  177.779
 7.0876  31888.7  179.192
 7.1296  31864.1  178.264
 7.1716  31917.2  177.951
 7.2136  31583  176.795
 7.2556  31890.7  177.816
 7.2976  31987.5  178.587
 7.3396  31679.3  177.931
 7.3816  31896.2  178.761
 7.4236  32199.5  178.895
 7.4656  32576.3  179.421
 7.5076  32463.1  179.242
 7.5496  32445.4  179.742
 7.5916  32052.5  178.668
 7.6336  32952.4  181.06
 7.6756  33093.1  181.297
 7.7176  33305.8  182.18
 7.7596  33348.2  183.559
 7.8016  34196.2  188.087
 7.8436  34140.4  184.588
 7.8856  34491.8  185.145
 7.9276  34793.8  186.359
 7.9696  35287.6  187.982
 8.0116  36103.6  188.665
 8.0536  36461.3  189.864
 8.0956  36676.9  191.597
 8.1376  36805.8  191.415
 8.1796  36895.5  192.188
 8.2216  38100.9  194.031
 8.2636  38126  194.342
 8.3056  37962.3  194.716
 8.3476  38890.8  196.39
 8.3896  38264.9  194.883
 8.4316  38681.5  196.108
 8.4736  38530.9  195.182
 8.5156  37888.3  193.827
 8.5576  37936.7  194.928
 8.5996  38010.9  193.983
 8.6416  37804.4  194.721
 8.6836  37765.4  194.472
 8.7256  38350.2  195.379
 8.7676  38509.8  198.775
 8.8096  38066.3  194.89
 8.8516  37625  193.374
 8.8936  37540.3  193.046
 8.9356  36898.1  191.714
 8.9776  37157.1  192.495
 9.0196  36798.6  191.24
 9.0616  36993.8  191.221
 9.1036  37038.9  192.526
 9.1456  36671.3  190.939
 9.1876  36672.5  190.882
 9.2296  36709.1  190.38
 9.2716  36302.8  189.389
 9.3136  36358.7  189.515
 9.3556  36492.6  189.847
 9.3976  34974.5  186.379
 9.4396  35312.7  187.181
 9.4816  34881.4  185.881
 9.5236  35076.3  186.322
 9.5656  34628.4  185.444
 9.6076  34547  185.775
 9.6496  34328.4  185.103
 9.6916  34559.3  185.701
 9.7336  34422.3  185.104
 9.7756  34557  186.73
 9.8176  33930.2  184.501
 9.8596  33561  181.93
 9.9016  33051.1  180.537
 9.9436  33158  180.74
 9.9856  32634.7  179.535
 10.0276  32233.1  179.54
 10.0696  32623.4  179.65
 10.1116  31663.3  177.254
 10.1536  31567  177.152
 10.1956  31025.3  175.224
 10.2376  30784.8  174.049
 10.2796  31061.4  174.954
 10.3216  30557.6  173.801
 10.3636  30407  173.403
 10.4056  30749.4  174.775
 10.4476  30494.7  173.674
 10.4896  31398.4  175.667
 10.5316  30377.4  173.507
 10.5736  29709  172.002
 10.6156  29494.8  171.151
 10.6576  30852  173.557
 10.6996  29361.1  169.978
 10.7416  28566.7  167.913
 10.7836  29016.6  169.935
 10.8256  28631.1  169.244
 10.8676  28602.4  168.681
 10.9096  28211.7  167.577
 10.9516  28052.1  166.013
 10.9936  28151.6  166.508
 11.0356  27946.4  166.546
 11.0776  27912.4  165.743
 11.1196  27594.7  165.559
 11.1616  27063  163.635
 11.2036  27469  164.719
 11.2456  27628.7  165.91
 11.2876  27047.1  163.886
 11.3296  27020.9  163.704
 11.3716  27376.4  164.469
 11.4136  27303  165.159
 11.4556  27609.5  165.75
 11.4976  27990.4  165.822
 11.5396  27895.6  165.71
 11.5816  27188.3  164.065
 11.6236  26702  162.803
 11.6656  26493.1  161.323
 11.7076  26054.3  160.827
 11.7496  25935.8  164.438
 11.7916  25905.4  159.625
 11.8336  25529.5  159.361
 11.8756  25430.9  158.569
 11.9176  25529.8  158.527
 11.9596  25144.3  157.523
 12.0016  24942.6  157.692
 12.0436  24919  157.032
 12.0856  24693.7  156.851
 12.1276  24802.4  157.107
 12.1696  24775.2  156.154
 12.2116  24982.4  156.8
 12.2536  25254  158.49
 12.2956  24852.9  156.561
 12.3376  24418.8  155.399
 12.3796  24535.8  156.228
 12.4216  24546.3  155.482
 12.4636  24378.4  155.864
 12.5056  24384.4  155.16
 12.5476  24711.2  155.715
 12.5896  24480.9  155.626
 12.6316  24297.2  155.204
 12.6736  24315.6  155.743
 12.7156  24225  155.318
 12.7576  24340  155.924
 12.7996  24380.1  154.695
 12.8416  24383.7  155.764
 12.8836  24936.3  157.349
 12.9256  25045.1  156.699
 12.9676  25113  157.335
 13.0096  24555.4  156.681
 13.0516  24914.5  156.849
 13.0936  24813.2  156.931
 13.1356  25044.7  156.641
 13.1776  25038.3  157.609
 13.2196  24989.4  157.117
 13.2616  25051.8  157.63
 13.3036  25070.8  157.662
 13.3456  24935.5  157.59
 13.3876  24884.1  156.717
 13.4296  24772.6  156.517
 13.4716  25022.9  156.912
 13.5136  24992.9  156.973
 13.5556  24936  157.402
 13.5976  25026.9  157.827
 13.6396  25297.4  158.059
 13.6816  24787.7  156.956
 13.7236  25511.8  158.867
 13.7656  24720.7  156.921
 13.8076  25062.2  156.773
 13.8496  24595.4  155.907
 13.8916  24517.3  156.661
 13.9336  24539.7  155.958
 13.9756  24397.7  154.855
 14.0176  24293.6  155.213
 14.0596  24429.1  155.61
 14.1016  24034.4  154.741
 14.1436  23855.8  153.296
 14.1856  23676.5  153.014
 14.2276  23469.8  152.829
 14.2696  23886.9  154.017
 14.3116  23430.7  152.445
 14.3536  22895.8  150.876
 14.3956  22882  150.552
 14.4376  22870.1  150.293
 14.4796  22882.9  150.329
 14.5216  22499.6  149.869
 14.5636  22666.2  149.976
 14.6056  22790.5  149.966
 14.6476  22502.7  148.238
 14.6896  22106.5  147.472
 14.7316  21940  147.963
 14.7736  21733.1  146.389
 14.8156  21549  145.809
 14.8576  21441.8  145.295
 14.8996  21122.3  145.421
 14.9416  20834.4  144.426
 14.9836  20925.4  144.707
 15.0256  20579.2  142.423
 15.0676  20613.2  142.858
 15.1096  20648.9  142.716
 15.1516  20070.5  141.254
 15.1936  20175.6  141.056
 15.2356  19970.3  140.618
 15.2776  19911  139.992
 15.3196  19502.4  139.556
 15.3616  19504.1  139.321
 15.4036  19259.7  138.302
 15.4456  19667.4  139.399
 15.4876  19329.8  137.873
 15.5296  18941  136.759
 15.5716  18674.1  135.392
 15.6136  18681  135.743
 15.6556  19108.2  136.523
 15.6976  18572.2  134.885
 15.7396  18451.2  134.849
 15.7816  18675.2  135.163
 15.8236  18208.7  134.175
 15.8656  18041.6  133.338
 15.9076  18168.7  133.634
 15.9496  18020.8  135.903
 15.9916  17795.5  135.493
 16.0336  17665.2  131.873
 16.0756  17613.7  131.998
 16.1176  17525.3  131.732
 16.1596  17188.5  131.645
 16.2016  17318.2  130.884
 16.2436  17087.8  130.393
 16.2856  17051.8  129.799
 16.3276  16975.6  129.927
 16.3696  17052.3  130.035
 16.4116  16879.3  129.842
 16.4536  17064.7  130.341
 16.4956  16917.6  129.506
 16.5376  16780.1  129.164
 16.5796  16650.8  128.014
 16.6216  16916.8  129.35
 16.6636  16714.6  128.732
 16.7056  16582.9  128.092
 16.7476  16598.8  127.676
 16.7896  16598.6  128.436
 16.8316  16639.9  128.556
 16.8736  16710.7  129.087
 16.9156  16548.9  128.805
 16.9576  16403.8  129.031
 16.9996  16593.8  130.274
 17.0416  16549.5  128.425
 17.0836  16391.2  127.571
 17.1256  16180.3  126.757
 17.1676  16205.8  126.852
 17.2096  16162.4  126.555
 17.2516  15870.3  125.19
 17.2936  15984.8  125.969
 17.3356  15534.8  124.193
 17.3776  15667.8  124.909
 17.4196  15780.3  125.039
 17.4616  15744.7  124.823
 17.5036  15451.8  124.021
 17.5456  15416  124.522
 17.5876  15366  123.364
 17.6296  15598.9  124.114
 17.6716  15350.6  123.695
 17.7136  15327.9  123.753
 17.7556  15125.4  123.219
 17.7976  15164.8  123.123
 17.8396  15100.1  122.355
 17.8816  15220  123.385
 17.9236  15125.4  122.815
 17.9656  15208  123.701
 18.0076  15354.9  123.874
 18.0496  15361.4  123.015
 18.0916  16052.9  126.312
 18.1336  15602.4  124.625
 18.1756  15430.7  123.459
 18.2176  15327.4  123.278
 18.2596  15015.9  121.751
 18.3016  15236.5  122.905
 18.3436  15378.5  123.475
 18.3856  14871.7  121.562
 18.4276  15056.4  121.984
 18.4696  15003.4  121.877
 18.5116  14963.4  121.997
 18.5536  15045.2  122.7
 18.5956  14722.4  120.922
 18.6376  14687.3  121.182
 18.6796  14714.6  120.608
 18.7216  14816.9  121.523
 18.7636  14585.5  120.565
 18.8056  14467.7  120.016
 18.8476  14491.6  120.75
 18.8896  14570.5  120.402
 18.9316  14774.3  121.23
 18.9736  14475.4  119.687
 19.0156  14618.6  120.683
 19.0576  14506.1  119.073
 19.0996  14679.4  120.508
 19.1416  14313.7  119.394
 19.1836  14265.6  118.791
 19.2256  14343.2  119.331
 19.2676  14260.5  119.08
 19.3096  14535  120.47
 19.3516  14293.3  119.417
 19.3936  14346.7  119.539
 19.4356  14267  119.075
 19.4776  14412.6  119.785
 19.5196  14288.8  119.124
 19.5616  14264.8  119.278
 19.6036  14290.6  118.88
 19.6456  14274.5  118.934
 19.6876  14467.6  119.372
 19.7296  14293.4  119.113
 19.7716  14330.5  119.429
 19.8136  14468.3  120.218
 19.8556  14680.8  120.562
 19.8976  14673.8  120.603
 19.9396  14621.8  119.959
 19.9816  15011.9  121.799
 20.0236  15051.5  122.181
 20.0656  14765.1  121.008
 20.1076  14371.9  119.853
 20.1496  14167.3  119.001
 20.1916  14114.9  118.291
 20.2336  14083.3  118.095
 20.2756  13999.9  118.177
 20.3176  13795.4  117.058
 20.3596  13860.6  117.31
 20.4016  13744.8  116.622
 20.4436  13745.4  117.181
 20.4856  13676.4  116.68
 20.5276  13708.3  117.279
 20.5696  13584.1  116.203
 20.6116  13642.5  116.734
 20.6536  13537.8  115.791
 20.6956  13466.7  115.612
 20.7376  13573.5  116.3
 20.7796  13398.6  115.233
 20.8216  13527.8  115.493
 20.8636  13444.3  115.508
 20.9056  13603.7  116.14
 20.9476  13394  115.081
 20.9896  13817.4  116.744
 21.0316  13589.7  115.675
 21.0736  13418.2  115.473
 21.1156  13461.9  115.815
 21.1576  13366.7  115.457
 21.1996  13228.1  114.838
 21.2416  13271.6  114.857
 21.2836  13269.2  114.81
 21.3256  13198  114.584
 21.3676  13313.9  114.632
 21.4096  13283.2  114.81
 21.4516  13172.2  114.211
 21.4936  12906.3  113.305
 21.5356  13251.8  114.753
 21.5776  13238.6  114.529
 21.6196  13039.4  113.705
 21.6616  13086.5  113.994
 21.7036  13236.3  114.427
 21.7456  13069.1  113.771
 21.7876  13010.6  113.272
 21.8296  12840.2  112.378
 21.8716  12906.2  112.896
 21.9136  13174.9  114.272
 21.9556  13069.5  113.485
 21.9976  12936.6  112.916
 22.0396  12918.1  113.097
 22.0816  12893.4  113.53
 22.1236  13155.4  114.123
 22.1656  13028.7  113.707
 22.2076  13071.1  113.34
 22.2496  13086.5  113.44
 22.2916  13196.2  113.797
 22.3336  12940.6  113.417
 22.3756  12932.9  113.111
 22.4176  12806.5  112.411
 22.4596  12776.1  112.875
 22.5016  12930.7  113.046
 22.5436  13077.9  113.563
 22.5856  12874.2  112.922
 22.6276  12881.4  113.082
 22.6696  12807.9  113.117
 22.7116  12839.1  112.76
 22.7536  12957.2  113.262
 22.7956  12902.3  112.34
 22.8376  12657.1  111.803
 22.8796  12743.4  111.974
 22.9216  13029.9  113.787
 22.9636  12829.3  112.048
 23.0056  12793.1  112.026
 23.0476  12864.1  112.912
 23.0896  13183.6  113.67
 23.1316  13085.2  113.687
 23.1736  12880.5  115.776
 23.2156  12991.6  113.628
 23.2576  12767.8  112.758
 23.2996  12939.4  113.309
 23.3416  12708.4  112.801
 23.3836  12901.6  112.883
 23.4256  12766.7  112.413
 23.4676  12815.1  112.327
 23.5096  12859  113.201
 23.5516  12685.8  111.715
 23.5936  12766.7  112.976
 23.6356  13075.7  113.989
 23.6776  12783.9  112.943
 23.7196  12634.1  111.843
 23.7616  12896.8  112.925
 23.8036  12878.9  112.881
 23.8456  12642.4  111.414
 23.8876  12543.8  111.325
 23.9296  12394.8  111.152
 23.9716  12590.9  111.219
 24.0136  12673.2  112.492
 24.0556  12378.4  110.908
 24.0976  12205.7  109.935
 24.1396  12332.7  113.171
 24.1816  12400.1  111.885
 24.2236  12281.6  110.947
 24.2656  12231.5  110.191
 24.3076  12184  110.217
 24.3496  12181.7  110.101
 24.3916  12068.4  109.644
 24.4336  12140  110.18
 24.4756  11967.1  109.256
 24.5176  11938.9  108.781
 24.5596  11996.9  109.173
 24.6016  11802.2  108.57
 24.6436  11919.7  108.6
 24.6856  11739.1  107.532
 24.7276  11855.7  108.38
 24.7696  11666.9  107.626
 24.8116  11711.6  108.018
 24.8536  11625  107.61
 24.8956  11648.8  107.459
 24.9376  11654.5  107.424
 24.9796  11401.7  106.607
 25.0216  11436.4  106.883
 25.0636  11705.6  107.78
 25.1056  11379.2  106.974
 25.1476  11449.8  108.991
 25.1896  11511.9  107.741
 25.2316  11552.7  107.198
 25.2736  11395.3  106.113
 25.3156  11357.9  106.024
 25.3576  11408.4  106.678
 25.3996  11298.8  106.153
 25.4416  11390.5  106.564
 25.4836  11167.4  106.038
 25.5256  11340.3  106.212
 25.5676  11317  105.829
 25.6096  11134.4  105.551
 25.6516  11222.6  105.46
 25.6936  11211  105.723
 25.7356  11262.6  106.102
 25.7776  11171.8  105.281
 25.8196  11032.5  104.852
 25.8616  11179.5  105.479
 25.9036  11267.1  105.351
 25.9456  11123.9  105.275
 25.9876  11000.6  104.757
 26.0296  11270.2  105.537
 26.0716  11108.7  105.203
 26.1136  11326.5  106.172
 26.1556  11431.2  106.033
 26.1976  11109.1  105.462
 26.2396  11197.3  105.021
 26.2816  11181  105.564
 26.3236  11063.6  105.165
 26.3656  11017  104.668
 26.4076  11048.8  105.035
 26.4496  11685.3  107.463
 26.4916  11279.5  105.607
 26.5336  11197.4  105.553
 26.5756  11761.3  107.984
 26.6176  11114.4  105.074
 26.6596  10914.9  104.434
 26.7016  10940  104.306
 26.7436  10789.6  103.723
 26.7856  10769.7  103.609
 26.8276  10805.2  103.731
 26.8696  10888.9  104.01
 26.9116  10815.6  103.6
 26.9536  10738.8  103.279
 26.9956  10761.9  103.424
 27.0376  10632.2  103.01
 27.0796  10721.7  103.173
 27.1216  10717.6  103.232
 27.1636  10575  102.71
 27.2056  10423.9  101.856
 27.2476  10678  103.091
 27.2896  10592.4  102.789
 27.3316  10565.1  102.369
 27.3736  10603.2  102.819
 27.4156  10503.1  102.174
 27.4576  10671.5  103.224
 27.4996  10486.6  101.919
 27.5416  10495.4  102.283
 27.5836  10471.5  101.98
 27.6256  10820.2  103.825
 27.6676  10758.9  103.558
 27.7096  10365.1  101.511
 27.7516  10614.3  102.883
 27.7936  10588.9  102.929
 27.8356  10521.6  102.219
 27.8776  10437.1  101.85
 27.9196  10296.9  101.013
 27.9616  10389  101.657
 28.0036  10352.2  101.449
 28.0456  10316.4  101.401
 28.0876  10194.6  100.899
 28.1296  10322.1  101.367
 28.1716  10197  100.76
 28.2136  10428.7  101.857
 28.2556  10136.4  100.532
 28.2976  10161  100.655
 28.3396  10286.6  101.035
 28.3816  10199.3  100.621
 28.4236  10156.9  100.567
 28.4656  10011.4  99.876
 28.5076  10136.7  100.132
 28.5496  10156.2  100.497
 28.5916  10126.3  100.155
 28.6336  10008.4  99.9114
 28.6756  10211.2  100.109
 28.7176  10073.4  99.9858
 28.7596  10003.8  99.5377
 28.8016  10052.9  99.8137
 28.8436  9855.09  99.0734
 28.8856  10103.5  100.152
 28.9276  10039.2  100.085
 28.9696  9980.48  99.4452
 29.0116  9875.38  99.1183
 29.0536  9823.52  99.0514
 29.0956  9886.98  99.0878
 29.1376  9939.49  99.3128
 29.1796  9811.88  98.7179
 29.2216  9841.96  98.7134
 29.2636  9873.7  98.945
 29.3056  9829.98  98.5176
 29.3476  9865.05  99.2212
 29.3896  9912.3  99.5554
 29.4316  10096.1  99.8019
 29.4736  9863.86  98.7151
 29.5156  9935.34  98.9868
 29.5576  9833.53  99.221
 29.5996  9768.67  98.1508
 29.6416  9776.81  98.309
 29.6836  10040.4  99.546
 29.7256  9818.28  99.0196
 29.7676  9752.99  98.3524
 29.8096  9804  98.5475
 29.8516  9635.37  98.0339
 29.8936  9807.98  98.9953
 29.9356  9841.91  98.9212
 29.9776  9750.2  98.6147
 30.0196  9797.64  98.2306
 30.0616  9805.51  98.6512
 30.1036  9840.99  98.6483
 30.1456  9656.45  97.9651
 30.1876  9602.02  97.6568
 30.2296  9702.42  98.1138
 30.2716  9812.91  98.3078
 30.3136  9739.93  98.8104
 30.3556  9695.31  98.5942
 30.3976  9576.92  99.5244
 30.4396  9747.17  97.706
 30.4816  9761.6  97.38
 30.5236  9561.28  96.3922
 30.5656  9626.48  97.3781
 30.6076  9692.73  97.1403
 30.6496  9786.5  97.9946
 30.6916  9502.21  96.6597
 30.7336  9463.58  96.6123
 30.7756  9733.17  98.0724
 30.8176  9463.84  96.6211
 30.8596  9630.78  97.2311
 30.9016  9621.95  97.5376
 30.9436  9612.04  97.238
 30.9856  9602.56  97.2905
 31.0276  9597.2  96.8727
 31.0696  9421.77  96.5631
 31.1116  9428.31  96.5733
 31.1536  9574.91  97.2071
 31.1956  9463.46  96.7238
 31.2376  9405.55  96.443
 31.2796  9479.42  96.3491
 31.3216  9410.64  95.942
 31.3636  9382.17  96.4798
 31.4056  9396.16  97.8845
 31.4476  9387.35  95.7023
 31.4896  9368.66  96.1103
 31.5316  9482.84  96.0825
 31.5736  9670.55  96.8542
 31.6156  9359.69  95.3058
 31.6576  9477.42  96.0036
 31.6996  9433.91  95.4466
 31.7416  9343.76  96.0451
 31.7836  9484.38  95.7808
 31.8256  9348.11  95.3678
 31.8676  9546.29  96.3596
 31.9096  9314.12  95.5454
 31.9516  9259.45  95.4225
 31.9936  9201.21  94.9491
 32.0356  9241.05  95.2136
 32.0776  9378.23  95.81
 32.1196  9380.68  95.9064
 32.1616  9326.7  95.0918
 32.2036  9282.52  95.379
 32.2456  9200.68  95.3418
 32.2876  9236.44  95.0191
 32.3296  9277.98  95.1968
 32.3716  9193.09  94.8723
 32.4136  9263.8  95.4591
 32.4556  9382.87  95.4307
 32.4976  9244.92  94.6386
 32.5396  9141.98  94.1805
 32.5816  9112.31  94.1462
 32.6236  9216.73  94.7623
 32.6656  9271.58  95.5843
 32.7076  9084.28  94.267
 32.7496  9187.95  94.4673
 32.7916  9186.53  94.4237
 32.8336  9195.41  94.561
 32.8756  9189.46  94.2577
 32.9176  8925.38  93.3704
 32.9596  9100.97  94.3618
 33.0016  9126.97  94.2863
 33.0436  9218.51  94.9397
 33.0856  9152.3  94.6555
 33.1276  8988.08  93.5409
 33.1696  9148.68  94.2162
 33.2116  9071.22  94.0367
 33.2536  9183.16  94.6215
 33.2956  9072.71  94.137
 33.3376  8991.01  93.453
 33.3796  9065.62  94.0466
 33.4216  9110.04  93.875
 33.4636  9102.43  93.9721
 33.5056  8928.29  93.3147
 33.5476  8919.99  93.264
 33.5896  9214.08  94.5589
 33.6316  8932.06  93.4178
 33.6736  8822.18  93.085
 33.7156  8876.19  93.4098
 33.7576  9004.54  93.7064
 33.7996  9076.25  93.8494
 33.8416  8794.9  92.5609
 33.8836  8898.79  92.878
 33.9256  8894.96  92.9295
 33.9676  8964.54  93.1786
 34.0096  8832.73  92.8161
 34.0516  8739.23  91.9628
 34.0936  8731.55  92.1771
 34.1356  8977.53  93.2166
 34.1776  8802.52  92.315
 34.2196  8822.21  92.5958
 34.2616  8751.94  92.3559
 34.3036  8831.87  93.0308
 34.3456  8758.64  92.3991
 34.3876  8822.15  92.6958
 34.4296  8867.44  92.621
 34.4716  8805.93  92.4462
 34.5136  8691.75  92.056
 34.5556  8768.85  92.7207
 34.5976  8841.62  92.8976
 34.6396  8844.6  92.6281
 34.6816  8753.08  92.2602
 34.7236  8624.62  91.3661
 34.7656  8823.13  92.6062
 34.8076  8698.62  92.2731
 34.8496  8689.93  92.0848
 34.8916  8707.44  92.0551
 34.9336  8835.33  92.6899
 34.9756  8766.16  92.2419
 35.0176  8750.99  92.6936
 35.0596  8680.08  92.1445
 35.1016  8696.31  91.9925
 35.1436  8745.88  91.9451
 35.1856  8520.54  90.8797
 35.2276  8709.61  92.0577
 35.2696  8644.97  91.9098
 35.3116  8644.84  92.0043
 35.3536  8502.87  90.9541
 35.3956  8597.21  91.1605
 35.4376  8559.31  91.5108
 35.4796  8582.91  91.7033
 35.5216  8546.39  91.4725
 35.5636  8383.07  91.3366
 35.6056  8629.19  91.6696
 35.6476  8633.2  91.5932
 35.6896  8709.03  92.0807
 35.7316  8521.84  91.0568
 35.7736  8495.94  91.121
 35.8156  8482.98  91.0362
 35.8576  8632.23  92.0947
 35.8996  8634.21  92.0748
 35.9416  8568.13  91.2281
 35.9836  8523.86  91.3394
 36.0256  8600.67  91.7711
 36.0676  8553.78  91.2749
 36.1096  8426.17  90.7295
 36.1516  8636.99  91.7473
 36.1936  8397.16  90.3037
 36.2356  8531.13  91.6758
 36.2776  8478.89  90.8784
 36.3196  8511.04  90.7125
 36.3616  8497.4  90.7697
 36.4036  8526.61  90.9846
 36.4456  8467.47  90.877
 36.4876  8331.56  90.0831
 36.5296  8462.94  90.8327
 36.5716  8422.06  91.4045
 36.6136  8534.81  90.7749
 36.6556  8586.93  91.2581
 36.6976  8545.73  91.54
 36.7396  8362.34  90.2768
 36.7816  8521.49  91.5181
 36.8236  8361.61  90.5725
 36.8656  8389.51  90.8024
 36.9076  8331.86  90.3607
 36.9496  8326.12  90.3275
 36.9916  8315.71  89.8929
 37.0336  8443.97  90.9091
 37.0756  8423.05  90.5786
 37.1176  8278.62  90.0663
 37.1596  8362.56  90.5305
 37.2016  8439.45  91.1771
 37.2436  8582.13  91.2469
 37.2856  8411.59  90.5917
 37.3276  8502.45  90.4135
 37.3696  8263.26  90.0263
 37.4116  8494.65  91.1863
 37.4536  8285.6  89.9223
 37.4956  8297.06  90.0372
 37.5376  8176.13  90.9168
 37.5796  8271.28  91.4183
 37.6216  8102.08  88.7447
 37.6636  8122.08  88.749
 37.7056  8383.14  90.3656
 37.7476  8231.17  89.0697
 37.7896  8200.63  89.4062
 37.8316  8014.55  88.5625
 37.8736  8430.19  90.3442
 37.9156  8200.23  89.1069
 37.9576  8235.28  89.1856
 37.9996  8034.05  87.8028
 38.0416  8048.83  88.7007
 38.0836  8299.96  89.9709
 38.1256  8219.73  89.5045
 38.1676  8183.77  89.4389
 38.2096  8044.29  88.2972
 38.2516  8125.31  88.948
 38.2936  8193.75  89.1117
 38.3356  8247.68  89.3326
 38.3776  8078.72  88.6816
 38.4196  8196.74  89.1824
 38.4616  8046.42  88.5898
 38.5036  8319.11  89.9277
 38.5456  8104.88  89.5936
 38.5876  8132.81  89.7769
 38.6296  8093.4  88.5209
 38.6716  8000.88  87.806
 38.7136  7963.24  87.5436
 38.7556  7990.23  88.1908
 38.7976  7960.25  87.9672
 38.8396  7979.71  88.5317
 38.8816  7966.89  88.2394
 38.9236  7915.19  87.7645
 38.9656  7997.53  88.1332
 39.0076  7914.69  87.0818
 39.0496  8021.09  88.2078
 39.0916  8028.29  87.8891
 39.1336  8015.7  88.2388
 39.1756  7913.2  87.7439
 39.2176  7991.9  88.7109
 39.2596  8009.46  88.7291
 39.3016  8017.77  88.3389
 39.3436  7880.34  88.003
 39.3856  8073.07  88.5234
 39.4276  8116.8  89.2633
 39.4696  7983.48  88.1497
 39.5116  7939.06  88.4232
 39.5536  8184.04  90.2112
 39.5956  8078.4  88.7184
 39.6376  8075.99  88.7162
 39.6796  8047.78  88.2933
 39.7216  8013.98  88.2091
 39.7636  8074.2  89.1194
 39.8056  8070.52  88.872
 39.8476  8041  88.9667
 39.8896  7971.02  88.2001
 39.9316  7953.05  88.3582
 39.9736  8097.75  88.7207
 40.0156  8065.65  88.3765
 40.0576  7954.42  88.1205
 40.0996  8138.49  88.3103
 40.1416  8126.49  89.0479
 40.1836  8060.81  88.5774
 40.2256  8135.08  89.0298
 40.2676  8068.6  88.7717
 40.3096  8092.66  88.8258
 40.3516  8127.76  89.1284
 40.3936  8063.33  88.3346
 40.4356  8000.47  88.1791
 40.4776  8147.38  89.4102
 40.5196  8176.81  89.6973
 40.5616  8174.58  89.3209
 40.6036  7954.05  88.3651
 40.6456  8210.16  89.382
 40.6876  8215.03  89.3852
 40.7296  8037.69  88.5596
 40.7716  8164.3  89.3779
 40.8136  8141.06  89.1934
 40.8556  8126.39  89.2514
 40.8976  8151.16  89.3053
 40.9396  8017.07  88.9213
 40.9816  8157.94  88.9757
 41.0236  8213.41  89.054
 41.0656  8106.47  89.0147
 41.1076  8148.72  89.0176
 41.1496  8184.19  89.1197
 41.1916  8030.21  88.5982
 41.2336  7994.66  88.3927
 41.2756  8194.32  89.0928
 41.3176  8016.74  88.7371
 41.3596  8210.48  89.5315
 41.4016  8045.33  88.8892
 41.4436  8094.79  88.9401
 41.4856  8152.27  89.4145
 41.5276  8086.01  89.0786
 41.5696  8114.61  88.8584
 41.6116  8076.06  89.0491
 41.6536  8072.41  88.8883
 41.6956  8045.31  88.7904
 41.7376  7920.33  88.1255
 41.7796  7949.69  88.1786
 41.8216  7946.73  88.3925
 41.8636  8007.44  88.669
 41.9056  7896.06  87.8382
 41.9476  7962.11  88.4345
 41.9896  8088.55  88.8023
 42.0316  8169  89.3304
 42.0736  8025.23  88.6506
 42.1156  7983.06  88.254
 42.1576  8070.8  88.8378
 42.1996  8056.4  88.8927
 42.2416  8001.07  88.1785
 42.2836  7876.76  87.6008
 42.3256  7906.18  87.8789
 42.3676  8028.56  88.3576
 42.4096  7969.73  87.9919
 42.4516  8026.08  88.3979
 42.4936  7874.01  87.6236
 42.5356  7915.7  87.9885
 42.5776  8127.56  89.0954
 42.6196  8006  88.4831
 42.6616  7815.04  87.5927
 42.7036  7965.86  87.8137
 42.7456  7962.55  88.1541
 42.7876  7964.86  88.2693
 42.8296  7929.82  87.9083
 42.8716  7927.08  88.0528
 42.9136  7890.79  87.6348
 42.9556  8010.31  88.436
 42.9976  8116.25  88.9726
 43.0396  8032.76  88.2449
 43.0816  7779.13  87.2209
 43.1236  7977.65  88.3871
 43.1656  7853.86  87.5267
 43.2076  7800.83  87.3403
 43.2496  7793.22  87.1029
 43.2916  7824.5  87.6488
 43.3336  7829.22  87.5132
 43.3756  7833.71  87.2841
 43.4176  7784.72  87.0992
 43.4596  7797.19  87.0249
 43.5016  7836.08  87.6469
 43.5436  7813.87  87.4211
 43.5856  7793.15  87.3367
 43.6276  7805.91  87.298
 43.6696  7770.8  87.367
 43.7116  7902.17  87.5899
 43.7536  7823.62  87.6437
 43.7956  7601.8  87.5647
 43.8376  7732.69  86.8591
 43.8796  7751.09  87.0523
 43.9216  7671.47  86.5222
 43.9636  7757.11  87.1181
 44.0056  7727.9  87.1831
 44.0476  7710.16  86.714
 44.0896  7520.68  85.9798
 44.1316  7845.51  87.3321
 44.1736  7661.45  86.4256
 44.2156  7769.3  86.881
 44.2576  7774.6  87.2444
 44.2996  7652.52  86.5157
 44.3416  7709.02  86.6066
 44.3836  7613.35  86.3948
 44.4256  7533.25  85.588
 44.4676  7547.84  85.8241
 44.5096  7660.44  86.6013
 44.5516  7591.72  86.1833
 44.5936  7463.34  85.4014
 44.6356  7522.14  85.4758
 44.6776  7631.53  86.4098
 44.7196  7596.21  86.529
 44.7616  7576.44  87.7399
 44.8036  7500.76  85.7404
 44.8456  7579.89  86.392
 44.8876  7508.32  85.8314
 44.9296  7576.8  85.6757
 44.9716  7473.29  85.51
 45.0136  7599.49  86.1694
 45.0556  7567.6  85.9577
 45.0976  7486.65  85.6654
 45.1396  7426.59  85.0707
 45.1816  7463.13  85.2262
 45.2236  7638.27  86.1199
 45.2656  7486.21  85.7566
 45.3076  7442.68  85.2897
 45.3496  7516.49  86.0238
 45.3916  7557.33  86.5237
 45.4336  7454.25  85.7749
 45.4756  7416.1  85.4096
 45.5176  7422.9  85.0672
 45.5596  7537.01  85.8441
 45.6016  7294.41  84.8614
 45.6436  7422.63  84.7875
 45.6856  7346.85  85.0058
 45.7276  7289.69  85.9742
 45.7696  7375.61  86.1513
 45.8116  7554.18  86.6069
 45.8536  7302.93  85.0565
 45.8956  7474.5  85.4006
 45.9376  7501.11  85.0138
 45.9796  7465.67  85.5005
 46.0216  7484.68  85.9562
 46.0636  7502.49  85.1948
 46.1056  7496.85  85.1503
 46.1476  7455.35  85.5077
 46.1896  7340.46  84.9977
 46.2316  7453.55  85.5189
 46.2736  7277.25  84.8609
 46.3156  7397.2  85.1476
 46.3576  7386.38  85.2863
 46.3996  7337.34  85.1562
 46.4416  7414.46  85.1855
 46.4836  7361.55  85.2383
 46.5256  7431.98  85.5831
 46.5676  7394.5  85.4812
 46.6096  7360.14  85.2207
 46.6516  7341.74  84.1543
 46.6936  7285.88  84.324
 46.7356  7320.52  84.6233
 46.7776  7289.74  85.2968
 46.8196  7307.49  84.9851
 46.8616  7149.49  84.0165
 46.9036  7216.97  84.0714
 46.9456  7192.24  83.5782
 46.9876  7291.13  84.2274
 47.0296  7244.83  84.6496
 47.0716  7182.79  84.107
 47.1136  7241.89  84.126
 47.1556  7296.98  84.3192
 47.1976  7356.7  84.7415
 47.2396  7134.52  83.8425
 47.2816  7115.91  83.4404
 47.3236  7195.16  84.2743
 47.3656  7212.64  84.3074
 47.4076  7131.64  83.6366
 47.4496  7192.88  84.0862
 47.4916  7136.11  83.9539
 47.5336  7286.53  84.6415
 47.5756  7275.1  84.6898
 47.6176  7175.42  84.012
 47.6596  7124.93  83.4263
 47.7016  7236.85  83.899
 47.7436  7169.02  83.8335
 47.7856  7318.46  84.7385
 47.8276  7122.14  83.6388
 47.8696  7107.98  83.6436
 47.9116  7216.47  83.9854
 47.9536  7172.99  83.6829
 47.9956  7092.87  83.9157
 48.0376  7081.18  83.6197
 48.0796  7145.9  84.1298
 48.1216  7207.43  84.3071
 48.1636  7287.54  84.3509
 48.2056  7149.1  83.8091
 48.2476  7245.78  84.6847
 48.2896  7123.88  83.8769
 48.3316  7056.36  83.4221
 48.3736  7123.41  83.8417
 48.4156  7109.08  83.6077
 48.4576  6987.88  83.1816
 48.4996  7064.13  83.0945
 48.5416  7100.86  83.6328
 48.5836  7152.52  83.6145
 48.6256  7122.42  83.6424
 48.6676  7004.74  83.4549
 48.7096  7047.58  82.9967
 48.7516  7130.05  83.6161
 48.7936  6920.3  82.4443
 48.8356  7045.17  83.2362
 48.8776  7058.19  83.8797
 48.9196  7153.66  83.8125
 48.9616  6884.27  82.5948
 49.0036  7020.16  83.7532
 49.0456  6937.58  83.2417
 49.0876  7049.12  83.4499
 49.1296  6927.62  82.8784
 49.1716  6822.64  82.1282
 49.2136  7011.75  83.182
 49.2556  7071.95  83.5729
 49.2976  7081.07  83.6932
 49.3396  6775.29  81.9237
 49.3816  7086.69  83.2207
 49.4236  6943.72  82.7916
 49.4656  6913.59  82.633
 49.5076  7033.04  83.0897
 49.5496  6834.63  81.967
 49.5916  7051.94  83.182
 49.6336  6979.76  82.9586
 49.6756  7025.79  83.4624
 49.7176  6930.5  82.8368
 49.7596  6926.77  82.5842
 49.8016  6866.19  82.1488
 49.8436  6924.66  82.7774
 49.8856  6888.76  82.5778
 49.9276  6871.19  82.5685
 49.9696  6906.43  82.7685
 50.0116  6989.9  83.3941
 50.0536  6882.02  82.693
 50.0956  6903.65  82.8988
 50.1376  6852.23  82.2969
 50.1796  6812.49  82.3158
 50.2216  6815.43  82.3325
 50.2636  6894.7  82.4283
 50.3056  6780.15  81.9095
 50.3476  6840.11  82.293
 50.3896  6741.75  81.6713
 50.4316  6854.85  82.1911
 50.4736  6784.31  81.9856
 50.5156  6853.77  82.389
 50.5576  6853.92  82.157
 50.5996  6787.1  82.0336
 50.6416  6797.97  82.0274
 50.6836  6787.23  82.0141
 50.7256  6888.43  82.5568
 50.7676  6873.03  82.7734
 50.8096  6817.19  81.9834
 50.8516  6837.04  82.5203
 50.8936  6737.42  81.7013
 50.9356  6762.26  81.95
 50.9776  6779.82  82.2147
 51.0196  6694.84  81.8239
 51.0616  6684.44  81.0847
 51.1036  6743.23  81.7983
 51.1456  6778.38  81.9217
 51.1876  6740.3  81.0394
 51.2296  6712.8  81.5061
 51.2716  6734.4  81.348
 51.3136  6705.72  81.6207
 51.3556  6764.21  81.6084
 51.3976  6686.71  81.2875
 51.4396  6557.66  80.8025
 51.4816  6568.24  80.7148
 51.5236  6688.92  81.5387
 51.5656  6707.56  81.2613
 51.6076  6683.56  81.1905
 51.6496  6648.6  81.1801
 51.6916  6619.77  81.3494
 51.7336  6724.18  82.0863
 51.7756  6777.01  82.1045
 51.8176  6640.85  81.375
 51.8596  6724.85  81.9083
 51.9016  6830.44  82.1516
 51.9436  6560.33  81.9432
 51.9856  6562.62  82.4035
 52.0276  6644.7  81.4293
 52.0696  6648.43  81.5138
 52.1116  6629.3  81.5199
 52.1536  6516.57  80.7027
 52.1956  6710.59  81.3686
 52.2376  6640.09  81.1034
 52.2796  6711.06  81.354
 52.3216  6419.94  80.2498
 52.3636  6545.69  80.6101
 52.4056  6451.32  79.8793
 52.4476  6562.2  80.9318
 52.4896  6510.34  80.6661
 52.5316  6468.72  80.4501
 52.5736  6589.99  80.9273
 52.6156  6508.78  80.7987
 52.6576  6600.9  80.8204
 52.6996  6381.41  80.4106
 52.7416  6570.19  81.4556
 52.7836  6524.58  81.0576
 52.8256  6512.28  80.2095
 52.8676  6472.76  80.5419
 52.9096  6480.44  80.6715
 52.9516  6469.57  80.9601
 52.9936  6437.73  81.1505
 53.0356  6463.97  80.3169
 53.0776  6421.5  80.3103
 53.1196  6361.15  80.0611
 53.1616  6348.41  80.0269
 53.2036  6451.85  80.6338
 53.2456  6423.38  80.5592
 53.2876  6292.1  79.4341
 53.3296  6414.3  80.5293
 53.3716  6355.38  79.9058
 53.4136  6457.02  80.6835
 53.4556  6304.39  79.7612
 53.4976  6347.73  79.8833
 53.5396  6355.12  80.3215
 53.5816  6394.2  80.2048
 53.6236  6378.68  80.4449
 53.6656  6446.41  80.4981
 53.7076  6394.91  80.1423
 53.7496  6375.77  80.1407
 53.7916  6537.54  81.2791
 53.8336  6235.3  79.2784
 53.8756  6256.66  79.958
 53.9176  6376.36  80.0606
 53.9596  6405.95  81.0257
 54.0016  6316.52  79.7889
 54.0436  6284.3  79.8032
 54.0856  6345.03  79.612
 54.1276  6405.11  80.1952
 54.1696  6335.89  79.9256
 54.2116  6381.13  79.9679
 54.2536  6479.53  80.3988
 54.2956  6362.52  79.7114
 54.3376  6230.51  79.3629
 54.3796  6284.81  79.6062
 54.4216  6522.1  81.143
 54.4636  6294.84  79.6736
 54.5056  6382.02  80.0507
 54.5476  6402.45  80.5106
 54.5896  6280  79.5749
 54.6316  6387.47  80.1075
 54.6736  6447.35  80.5546
 54.7156  6312.92  79.7342
 54.7576  6271.7  79.4665
 54.7996  6346.88  80.0767
 54.8416  6376.65  80.3188
 54.8836  6201.37  79.3196
 54.9256  6352.84  80.033
 54.9676  6396.4  80.163
 55.0096  6295.91  79.6002
 55.0516  6255.78  79.5799
 55.0936  6368.59  79.914
 55.1356  6265.51  79.3089
 55.1776  6311.39  79.8692
 55.2196  6241.36  79.208
 55.2616  6230.21  79.3471
 55.3036  6244.46  79.6028
 55.3456  6307.3  80.1524
 55.3876  6258.89  79.5854
 55.4296  6290.72  79.7629
 55.4716  6269.7  79.6641
 55.5136  6326.22  79.7772
 55.5556  6282.57  79.5754
 55.5976  6321.06  79.8773
 55.6396  6197.72  79.0414
 55.6816  6258.69  79.3027
 55.7236  6318.07  79.7228
 55.7656  6263.97  79.1391
 55.8076  6355.69  79.7017
 55.8496  6287.91  79.5931
 55.8916  6260.83  79.6247
 55.9336  6175.45  78.8956
 55.9756  6339.06  79.8273
 56.0176  6241.78  79.3662
 56.0596  6235  79.3029
 56.1016  6303.48  79.7519
 56.1436  6242.65  79.6229
 56.1856  6227.19  79.2695
 56.2276  6245.68  79.4416
 56.2696  6304.62  79.7932
 56.3116  6182.25  79.4153
 56.3536  6210.08  79.2492
 56.3956  6280.18  79.6888
 56.4376  6210.86  79.28
 56.4796  6281.05  79.5298
 56.5216  6262.92  79.7901
 56.5636  6283.54  79.509
 56.6056  6156.38  78.9301
 56.6476  6134.6  78.4174
 56.6896  6236.12  79.5176
 56.7316  6326.84  80.0002
 56.7736  6312.66  79.9052
 56.8156  6268.56  79.6223
 56.8576  6185.22  79.0341
 56.8996  6173.79  78.8963
 56.9416  6211.4  79.4401
 56.9836  6139.95  78.5052
 57.0256  6154.49  78.9127
 57.0676  6184.35  79.223
 57.1096  6316.72  79.8583
 57.1516  6269.73  79.6252
 57.1936  6167.98  78.7226
 57.2356  6214.62  79.3439
 57.2776  6201.75  79.213
 57.3196  6202.4  79.5898
 57.3616  6246.41  79.3621
 57.4036  6172.72  78.9531
 57.4456  6177.53  78.9473
 57.4876  6219.27  79.0767
 57.5296  6134.02  78.87
 57.5716  6152.9  78.9793
 57.6136  6169.96  78.9123
 57.6556  6164.5  79.0104
 57.6976  6183.72  78.9559
 57.7396  6067.4  78.5845
 57.7816  6053.24  78.8469
 57.8236  6151.08  79.2796
 57.8656  6180.28  79.1135
 57.9076  6178.17  79.1353
 57.9496  6184.23  79.5256
 57.9916  6109.86  78.5593
 58.0336  6220.95  79.5474
 58.0756  6246.39  79.3431
 58.1176  6265.33  79.4626
 58.1596  6159.12  79.3546
 58.2016  6328.75  79.6528
 58.2436  6234.76  79.4743
 58.2856  6219.28  79.3009
 58.3276  6253.07  79.8889
 58.3696  6160.94  79.0427
 58.4116  6164.17  78.9302
 58.4536  6258.82  79.4145
 58.4956  6139.2  78.8391
 58.5376  6176.51  78.6459
 58.5796  6260.76  79.6152
 58.6216  6218.14  79.1453
 58.6636  6197.46  79.2374
 58.7056  6165.91  78.8903
 58.7476  6115.93  79.014
 58.7896  6180.32  79.0726
 58.8316  6145.87  78.8417
 58.8736  6286.72  79.7538
 58.9156  6126.77  78.7737
 58.9576  6305.8  80.2518
 58.9996  6303.04  79.4528
 59.0416  6330.02  79.9931
 59.0836  6275.84  79.5841
 59.1256  6099.64  79.1528
 59.1676  6221.42  80.2474
 59.2096  6285.32  79.9771
 59.2516  6429.57  80.4573
 59.2936  6271.34  79.7955
 59.3356  6356.22  80.2082
 59.3776  6308.16  80.0771
 59.4196  6238.87  79.5711
 59.4616  6130.4  78.7352
 59.5036  6100.6  78.5793
 59.5456  6473.08  80.625
 59.5876  6291.72  79.6826
 59.6296  6245.93  79.4625
 59.6716  6196.16  79.204
 59.7136  6258.32  79.5883
 59.7556  6143.93  78.9953
 59.7976  6151.87  78.786
 59.8396  6211.32  79.0586
 59.8816  6208.07  79.5913
 59.9236  6185.26  79.0839
 59.9656  6193.8  79.4027
 60.0076  6201.22  78.7987
 60.0496  6231.94  79.5056
 60.0916  6424.94  80.1271
 60.1336  6272.85  80.3017
 60.1756  6170.61  80.8419
 60.1996  0.0000000E+00  0.0000000E+00