File: docs/examples/XRD/IS17_D/Data/IS17_D/17_Db_f00119.xye
# /beamlines/bl04/projects/cycle2025-II/20250340211-lsimonelli/DATA/IS17_D/17_Db_f00119.xye : mythproc.py merge -s 0.006 -l 0.5 -f /beamlines/bl04/inhouse/ff/FlatField/ff_20Nov2024rod8mm60s_17keV.raw -b True -c true -o xye /beamlines/bl04/projects/cycle2025-II/20250340211-lsimonelli/DATA/IS17_D/17_Db_00119.dat
# IsMon = [6747957, 6750915, 6753741]  IsPos = [-1.4999, -2.4883, -3.4988]
# Wave = 0.4962  CalPath /beamlines/bl04/projects/cycle2025-II/20250340211-lsimonelli/DATA/Align/Si_Pos1_25keV_f00001.cal
# Date = 2025-09-25_02:51:45 Dt = 4.8000  Bin = 0.0060  <imon> = 6750871 +/- 2362 (Min/Max) 6747957 / 6753741
# icurr 249.7663  mocoIn 1.7037E-05  mocoOut 0.7993  i15 7.07575e+06  imon 6.75087e+06  i7 5.6667  iEMpd_timer 4.8000  iEMpd_1 3.4085E-08  iEMpd_2 7.9477E-08  iEMpd_3 1.6936E-08  iEMpd_4 4.8290E-08  iEMhp_timer 4.8000  iEMhp_1 4.8799E-06  iEMhp_2 -2.4618E-08  iEMhp_3 -2.4115E-08  iEMhp_4 -1.9968E-08
#      9776
 1.5856  44507.9  216.678
 1.6276  51366.9  228.782
 1.6696  56303.2  238.678
 1.7116  64023.5  255.014
 1.7536  71953.4  269.194
 1.7956  75800.6  276.988
 1.8376  72276.6  270.901
 1.8796  62474.5  250.022
 1.9216  51831.8  228.629
 1.9636  44825  211.742
 2.0056  40810.6  201.256
 2.0476  38091.1  196.566
 2.0896  37177.1  193.055
 2.1316  35951.5  188.933
 2.1736  34348.9  186.139
 2.2156  34778.9  185.798
 2.2576  33716.9  183.596
 2.2996  32489.9  180.885
 2.3416  32870.1  180.488
 2.3836  32050.2  178.332
 2.4256  30830.2  175.475
 2.4676  30573.1  174.494
 2.5096  30257.8  173.649
 2.5516  28969.4  173.793
 2.5936  29118.3  170.744
 2.6356  28644.7  170.067
 2.6776  28321.1  167.984
 2.7196  28373  168.24
 2.7616  28066.6  167.512
 2.8036  27627.4  166.36
 2.8456  27605.9  166.95
 2.8876  26685.2  163.999
 2.9296  26492.7  163.536
 2.9716  26114.7  161.854
 3.0136  26141.1  161.997
 3.0556  25963.4  161.842
 3.0976  26179.7  161.417
 3.1396  25870.1  161.201
 3.1816  25719.2  160.366
 3.2236  25275.8  159.262
 3.2656  24864.3  156.993
 3.3076  25138.6  159.351
 3.3496  25068.8  158.032
 3.3916  25750.3  159.983
 3.4336  25841.9  160.878
 3.4756  26448.9  162.697
 3.5176  26616.6  162.977
 3.5596  26579.3  165.338
 3.6016  26731.6  163.376
 3.6436  25911.2  161.975
 3.6856  25523.4  159.041
 3.7276  24478.5  156.833
 3.7696  24249.2  156.295
 3.8116  23887.9  155.018
 3.8536  24127.6  155.723
 3.8956  23789.6  154.447
 3.9376  23803.6  154.767
 3.9796  23809  154.263
 4.0216  23879.2  153.522
 4.0636  23755  154.594
 4.1056  23688.8  154.036
 4.1476  24053.1  155.536
 4.1896  24206.5  155.887
 4.2316  24291.5  155.981
 4.2736  24563  156.647
 4.3156  24686.3  157.266
 4.3576  25477.3  159.665
 4.3996  25648  160.494
 4.4416  26372.4  162.317
 4.4836  26592.6  163.155
 4.5256  27433.3  166.339
 4.5676  26915.8  165.01
 4.6096  27723.2  166.115
 4.6516  28163  167.112
 4.6936  28056.3  167.626
 4.7356  28319.6  168.241
 4.7776  28128.3  167.493
 4.8196  28153.9  168.238
 4.8616  27427.3  165.532
 4.9036  27421.4  165.245
 4.9456  27192.6  165.213
 4.9876  26514.9  163.037
 5.0296  26743.4  163.584
 5.0716  26584.9  163.843
 5.1136  26718.9  163.984
 5.1556  26978.3  164.226
 5.1976  27655  166.279
 5.2396  27522.7  165.562
 5.2816  27731.2  166.674
 5.3236  27713.4  166.307
 5.3656  27064.4  165.285
 5.4076  26935  165.027
 5.4496  26811.9  164.139
 5.4916  27020.5  164.53
 5.5336  26983.1  164.422
 5.5756  26964.9  164.393
 5.6176  27237.6  164.655
 5.6596  27287.9  165.806
 5.7016  27689  166.266
 5.7436  27690.2  166.549
 5.7856  27281  165.382
 5.8276  27724.1  166.423
 5.8696  27854.6  166.996
 5.9116  27702  166.842
 5.9536  28117.5  168.132
 5.9956  28199.1  167.763
 6.0376  28588.3  169.539
 6.0796  28693  169.681
 6.1216  28587.3  169.609
 6.1636  28870.9  169.452
 6.2056  28590  169.306
 6.2476  29076.9  170.615
 6.2896  29350.9  171.093
 6.3316  29340.8  171.247
 6.3736  29228.1  170.793
 6.4156  29379.5  171.132
 6.4576  29431.7  170.895
 6.4996  29387.1  171.237
 6.5416  29539.5  171.818
 6.5836  29561  172.115
 6.6256  29901.6  172.666
 6.6676  30185.4  173.034
 6.7096  30229.5  174.05
 6.7516  30453.6  174.337
 6.7936  30693.7  174.419
 6.8356  30778.1  174.757
 6.8776  30919  175.96
 6.9196  31122.8  176.94
 6.9616  31524.3  177.521
 7.0036  31977.9  178.45
 7.0456  31999.9  177.802
 7.0876  31964.2  179.406
 7.1296  31914.6  178.397
 7.1716  32238.6  178.829
 7.2136  31553.7  176.687
 7.2556  31905.8  177.838
 7.2976  31893.2  178.297
 7.3396  31899.5  178.546
 7.3816  31878.4  178.694
 7.4236  32220.7  178.946
 7.4656  32038.3  177.897
 7.5076  32580  179.555
 7.5496  32223.6  179.095
 7.5916  32555  180.071
 7.6336  32748.7  180.488
 7.6756  32825  180.542
 7.7176  33516.7  182.777
 7.7596  33159.4  183.018
 7.8016  33906.9  187.337
 7.8436  33652.2  183.238
 7.8856  33763.3  183.161
 7.9276  34305.4  185.012
 7.9696  34392.6  185.563
 8.0116  35236.7  186.371
 8.0536  35494.8  187.303
 8.0956  35543.3  188.612
 8.1376  35860.7  188.924
 8.1796  36241.8  190.468
 8.2216  36931.7  191.001
 8.2636  37096.1  191.715
 8.3056  36883.4  191.894
 8.3476  37483.2  192.783
 8.3896  37063.2  191.78
 8.4316  37594.1  193.314
 8.4736  37641.8  192.906
 8.5156  37247  192.167
 8.5576  36953.5  192.999
 8.5996  36992.7  191.354
 8.6416  36912.7  192.411
 8.6836  36476.3  191.094
 8.7256  37092.6  192.161
 8.7676  37290.3  195.609
 8.8096  37333.7  193.013
 8.8516  37166.1  192.148
 8.8936  36607  190.655
 8.9356  37280.6  192.743
 8.9776  37216.2  192.651
 9.0196  37053.8  191.914
 9.0616  36988.4  191.228
 9.1036  36535.2  191.224
 9.1456  36286.9  189.895
 9.1876  36460.9  190.3
 9.2296  36353.1  189.443
 9.2716  36043.7  188.682
 9.3136  36207.8  189.106
 9.3556  36286.8  189.294
 9.3976  35265.4  187.141
 9.4396  35290  187.104
 9.4816  35305.5  187.004
 9.5236  34713.1  185.32
 9.5656  34720.2  185.697
 9.6076  33952.6  184.15
 9.6496  34116  184.48
 9.6916  33957.4  184.003
 9.7336  34027.5  183.984
 9.7756  33914.1  184.939
 9.8176  33931  184.516
 9.8596  33798.3  182.576
 9.9016  33196.9  180.939
 9.9436  32944.3  180.162
 9.9856  32603.8  179.508
 10.0276  31821.6  178.375
 10.0696  32408  179.071
 10.1116  31680.8  177.317
 10.1536  31481  176.909
 10.1956  31050.8  175.322
 10.2376  31059.1  174.852
 10.2796  30882.8  174.465
 10.3216  30625.3  174.026
 10.3636  30143.5  172.678
 10.4056  29630.3  171.596
 10.4476  29815.4  171.741
 10.4896  29750.9  171.157
 10.5316  29157.1  170.021
 10.5736  29094.7  170.249
 10.6156  29041.6  169.855
 10.6576  28938.4  168.11
 10.6996  28694.9  168.105
 10.7416  28238.1  166.977
 10.7836  27787.9  166.291
 10.8256  27634.5  166.264
 10.8676  27498.5  165.389
 10.9096  27503.7  165.437
 10.9516  27316.6  163.814
 10.9936  27236  163.783
 11.0356  26981.2  163.625
 11.0776  26793.9  162.391
 11.1196  26467.2  162.161
 11.1616  26146.7  160.847
 11.2036  26306.3  161.183
 11.2456  26165.6  161.46
 11.2876  26489.1  162.188
 11.3296  25990.7  160.563
 11.3716  26457.4  161.681
 11.4136  26301.1  162.095
 11.4556  26422  162.117
 11.4976  27079.8  163.106
 11.5396  27343.5  164.075
 11.5816  27681  165.532
 11.6236  26711.9  162.842
 11.6656  26784.4  162.206
 11.7076  25939.6  160.464
 11.7496  25356.5  162.669
 11.7916  25499.9  158.35
 11.8336  25081.1  157.932
 11.8756  24920.7  156.985
 11.9176  24889.5  156.554
 11.9596  25152.3  157.562
 12.0016  24657.6  156.492
 12.0436  24787.6  156.63
 12.0856  24335.4  155.681
 12.1276  24481.3  156.112
 12.1696  24297.5  154.637
 12.2116  24312.9  154.673
 12.2536  24358.8  155.656
 12.2956  23985  153.793
 12.3376  24300.5  155.023
 12.3796  24141  154.989
 12.4216  24285.3  154.644
 12.4636  23898  154.344
 12.5056  23999.8  153.931
 12.5476  24269.7  154.303
 12.5896  23975.3  154.009
 12.6316  24061.8  154.45
 12.6736  23741  154.073
 12.7156  24172.4  155.129
 12.7576  23978.6  154.759
 12.7996  24069.2  153.685
 12.8416  24046.2  154.68
 12.8836  24023.5  154.335
 12.9256  24405.6  154.676
 12.9676  24339.2  154.869
 13.0096  24697.4  157.146
 13.0516  24485.7  155.491
 13.0936  25010.3  157.563
 13.1356  24979.1  156.412
 13.1776  24630.1  156.342
 13.2196  24921.6  156.896
 13.2616  24479  155.813
 13.3036  24832.9  156.898
 13.3456  24412.2  155.91
 13.3876  24886.5  156.693
 13.4296  24430.9  155.42
 13.4716  24691.7  155.874
 13.5136  24862.5  156.552
 13.5556  24592.6  156.324
 13.5976  24847.8  157.303
 13.6396  24749.5  156.338
 13.6816  24816.8  157.037
 13.7236  25239.4  157.925
 13.7656  26572.6  162.507
 13.8076  27322.3  163.429
 13.8496  27060.9  163.308
 13.8916  25045.9  158.25
 13.9336  24294.9  155.153
 13.9756  24300.2  154.55
 14.0176  23988  154.23
 14.0596  24176.1  154.762
 14.1016  23744.5  153.799
 14.1436  24077.8  154.003
 14.1856  23236.7  151.588
 14.2276  23275.5  152.2
 14.2696  23230.5  151.895
 14.3116  22872.1  150.622
 14.3536  22696.5  150.215
 14.3956  22509.3  149.319
 14.4376  22724.5  149.81
 14.4796  22742  149.87
 14.5216  22176.2  148.781
 14.5636  22238.9  148.563
 14.6056  22374.5  148.558
 14.6476  22282.9  147.507
 14.6896  21882.6  146.723
 14.7316  21522.4  146.548
 14.7736  21455  145.457
 14.8156  21295.2  144.924
 14.8576  21079.4  144.055
 14.8996  20871.1  144.544
 14.9416  20482.7  143.205
 14.9836  20331.7  142.656
 15.0256  19979.4  140.315
 15.0676  19824.4  140.211
 15.1096  19658.6  139.236
 15.1516  19476.3  139.152
 15.1936  19476.2  138.576
 15.2356  19223.1  137.83
 15.2776  19024.7  136.826
 15.3196  18681.4  136.573
 15.3616  18749.4  136.576
 15.4036  18555.2  135.737
 15.4456  18767.4  136.157
 15.4876  18492.4  134.841
 15.5296  18201.2  134.063
 15.5716  18117.3  133.356
 15.6136  18144.1  133.782
 15.6556  18097.6  132.852
 15.6976  18049.9  132.977
 15.7396  17827.8  132.529
 15.7816  17643.2  131.367
 15.8236  17365.4  131.005
 15.8656  17437.9  131.08
 15.9076  17303.5  130.396
 15.9496  18077.9  136.13
 15.9916  17946.4  136.001
 16.0336  17952.4  132.908
 16.0756  17572.9  131.81
 16.1176  17681.9  132.303
 16.1596  17163.9  131.534
 16.2016  17020.1  129.736
 16.2436  16954.2  129.875
 16.2856  17048  129.747
 16.3276  16777.1  129.144
 16.3696  16930.3  129.56
 16.4116  16866.4  129.745
 16.4536  17023.6  130.167
 16.4956  16791.4  129.02
 16.5376  16670.5  128.737
 16.5796  16613.6  127.879
 16.6216  16746  128.668
 16.6636  16307.1  127.14
 16.7056  16606.4  128.17
 16.7476  16668.1  127.937
 16.7896  16490.3  128
 16.8316  16604.5  128.42
 16.8736  16776.6  129.348
 16.9156  16529.9  128.707
 16.9576  16437.9  129.156
 16.9996  16396.4  129.448
 17.0416  16627.3  128.749
 17.0836  16648  128.592
 17.1256  16430.3  127.75
 17.1676  16368.3  127.463
 17.2096  16169.9  126.593
 17.2516  16100.9  126.112
 17.2936  16123.6  126.555
 17.3356  16054.9  126.273
 17.3776  15853.5  125.661
 17.4196  15614  124.406
 17.4616  15562.9  124.117
 17.5036  15293.7  123.386
 17.5456  15232.8  123.782
 17.5876  15348.2  123.301
 17.6296  15423.6  123.431
 17.6716  15270.1  123.399
 17.7136  15136.6  122.991
 17.7556  15206.6  123.552
 17.7976  15010.3  122.499
 17.8396  15009.2  121.994
 17.8816  14783.6  121.636
 17.9236  14918.3  121.976
 17.9656  14730.8  121.723
 18.0076  14824.8  121.697
 18.0496  14703.5  120.33
 18.0916  14743.8  121.055
 18.1336  14635.9  120.704
 18.1756  14680.3  120.441
 18.2176  14528.3  120.022
 18.2596  14413.1  119.282
 18.3016  14675.2  120.62
 18.3436  14529.6  120.024
 18.3856  14401.3  119.632
 18.4276  14419  119.387
 18.4696  14431.9  119.527
 18.5116  14448.8  119.859
 18.5536  14350  119.812
 18.5956  14317.3  119.239
 18.6376  14122.2  118.826
 18.6796  14230.2  118.58
 18.7216  14256  119.2
 18.7636  14169  118.839
 18.8056  14110.5  118.513
 18.8476  14013.8  118.729
 18.8896  14119.5  118.516
 18.9316  14277.8  119.149
 18.9736  14093  118.083
 19.0156  14071.1  118.413
 19.0576  14277.4  118.122
 19.0996  14191.6  118.621
 19.1416  14052.1  118.291
 19.1836  14009.2  117.712
 19.2256  13966.6  117.756
 19.2676  13978.5  117.891
 19.3096  13881.3  117.723
 19.3516  13896.8  117.754
 19.3936  14023.2  118.18
 19.4356  14138.8  118.547
 19.4776  13949.9  117.839
 19.5196  13939  117.65
 19.5616  13798.5  117.316
 19.6036  13870  117.108
 19.6456  13978.8  117.688
 19.6876  13950.5  117.199
 19.7296  14168.8  118.589
 19.7716  13865.5  117.48
 19.8136  14185.9  119.037
 19.8556  14374.7  119.297
 19.8976  14294.4  119.013
 19.9396  14262.3  118.476
 19.9816  14526.8  119.886
 20.0236  15026.5  122.064
 20.0656  15002.8  121.967
 20.1076  15025.2  122.553
 20.1496  14640.8  120.961
 20.1916  14503.8  119.909
 20.2336  14312.9  119.048
 20.2756  13894.2  117.706
 20.3176  13711.7  116.69
 20.3596  13704.4  116.643
 20.4016  13823.4  116.94
 20.4436  13470.5  116.001
 20.4856  13643.3  116.545
 20.5276  13413.4  116.016
 20.5696  13542.3  116.023
 20.6116  13354.1  115.483
 20.6536  13549.4  115.836
 20.6956  13356.8  115.143
 20.7376  13163.6  114.511
 20.7796  13266.8  114.653
 20.8216  13417.3  115.019
 20.8636  13334.4  115.046
 20.9056  13248.5  114.604
 20.9476  13245.6  114.44
 20.9896  13306  114.562
 21.0316  13210.2  114.045
 21.0736  13132.2  114.233
 21.1156  13009.4  113.852
 21.1576  13038.9  114.032
 21.1996  13122.1  114.374
 21.2416  13091.6  114.068
 21.2836  12926.1  113.316
 21.3256  13059.4  113.976
 21.3676  12985.1  113.178
 21.4096  12928.4  113.257
 21.4516  12893.7  112.974
 21.4936  12559.6  111.773
 21.5356  12923.4  113.321
 21.5776  13054.9  113.73
 21.6196  12806.8  112.687
 21.6616  12782.6  112.664
 21.7036  12890.6  112.9
 21.7456  12817  112.661
 21.7876  12781.3  112.264
 21.8296  12860.3  112.454
 21.8716  12840.2  112.599
 21.9136  12945.6  113.268
 21.9556  12799.1  112.292
 21.9976  12661.1  111.716
 22.0396  12662.2  111.975
 22.0816  12645.5  112.42
 22.1236  12916  113.079
 22.1656  12692.9  112.238
 22.2076  12501.4  110.84
 22.2496  12399.7  110.422
 22.2916  12442.7  110.496
 22.3336  12488.1  111.419
 22.3756  12507.9  111.226
 22.4176  12267.9  110
 22.4596  12298.7  110.728
 22.5016  12253.9  110.039
 22.5436  12480.3  110.923
 22.5856  12558.6  111.519
 22.6276  12448.4  111.2
 22.6696  12396.4  111.284
 22.7116  12459.7  111.081
 22.7536  12308.4  110.379
 22.7956  12491.3  110.532
 22.8376  12285.7  110.126
 22.8796  12296.2  109.984
 22.9216  12362.8  110.817
 22.9636  12323.7  109.808
 23.0056  12360.2  110.103
 23.0476  12446.6  111.057
 23.0896  12673.1  111.436
 23.1316  12527.1  111.229
 23.1736  12762.4  115.035
 23.2156  12718.8  112.405
 23.2576  13003.1  113.807
 23.2996  12668.8  112.094
 23.3416  12885.9  113.6
 23.3836  12869.2  112.742
 23.4256  12886.1  112.943
 23.4676  12720.4  111.902
 23.5096  12622.5  112.128
 23.5516  12564.6  111.166
 23.5936  12627.9  112.362
 23.6356  12807.6  112.819
 23.6776  12554.8  111.904
 23.7196  12709.5  112.176
 23.7616  12536.1  111.318
 23.8036  12896.7  112.978
 23.8456  12646  111.408
 23.8876  12565.7  111.426
 23.9296  12333.6  110.876
 23.9716  12362.7  110.209
 24.0136  12753.9  112.856
 24.0556  12329  110.676
 24.0976  12276.4  110.256
 24.1396  12187.5  112.482
 24.1816  12177.6  110.868
 24.2236  12237.3  110.733
 24.2656  12236.2  110.219
 24.3076  12165.3  110.171
 24.3496  12058.5  109.564
 24.3916  12339.5  110.885
 24.4336  12098.6  110.002
 24.4756  12075.4  109.782
 24.5176  12000.6  109.056
 24.5596  11868.1  108.585
 24.6016  11901.1  109.035
 24.6436  11958.7  108.806
 24.6856  11857.3  108.082
 24.7276  11707.8  107.716
 24.7696  11730.7  107.934
 24.8116  11648.9  107.728
 24.8536  11543.1  107.254
 24.8956  11765.7  108.01
 24.9376  11562.3  106.997
 24.9796  11421.9  106.718
 25.0216  11402.7  106.74
 25.0636  11454.2  106.63
 25.1056  11409.8  107.119
 25.1476  11337.7  108.41
 25.1896  11273.6  106.616
 25.2316  11237.2  105.717
 25.2736  11229.7  105.334
 25.3156  11213.8  105.335
 25.3576  11072.2  105.089
 25.3996  11172.9  105.564
 25.4416  11161.7  105.479
 25.4836  10970  105.095
 25.5256  11001.2  104.604
 25.5676  11125.1  104.923
 25.6096  10939.6  104.616
 25.6516  11018.1  104.496
 25.6936  11070.6  105.069
 25.7356  11051.7  105.108
 25.7776  11032.8  104.618
 25.8196  10863.1  104.051
 25.8616  10936.2  104.323
 25.9036  11095  104.527
 25.9456  10940.9  104.405
 25.9876  10883.8  104.196
 26.0296  11084.1  104.663
 26.0716  10948.2  104.449
 26.1136  11029.2  104.761
 26.1556  10999  103.996
 26.1976  10895.6  104.439
 26.2396  10870.5  103.473
 26.2816  10952.2  104.478
 26.3236  10774.8  103.776
 26.3656  11069.5  104.907
 26.4076  10861.4  104.094
 26.4496  11024.5  104.497
 26.4916  11200.3  105.203
 26.5336  11296.9  106.016
 26.5756  11635.7  107.474
 26.6176  11040  104.676
 26.6596  10828.6  104.001
 26.7016  10894.6  104.079
 26.7436  10920.7  104.347
 26.7856  10697.3  103.244
 26.8276  10687.9  103.179
 26.8696  10609.4  102.666
 26.9116  10670.6  102.898
 26.9536  10518.5  102.203
 26.9956  10467.4  101.992
 27.0376  10623.4  102.982
 27.0796  10561.2  102.398
 27.1216  10609.6  102.691
 27.1636  10375.5  101.729
 27.2056  10405  101.751
 27.2476  10420.1  101.817
 27.2896  10440  102.052
 27.3316  10348.6  101.309
 27.3736  10256.6  101.116
 27.4156  10388.4  101.602
 27.4576  10409.2  101.927
 27.4996  10417.4  101.582
 27.5416  10232.6  100.979
 27.5836  10249.3  100.893
 27.6256  10278.8  101.217
 27.6676  10328.6  101.452
 27.7096  10405.5  101.715
 27.7516  10195  100.824
 27.7936  10471.1  102.325
 27.8356  10383.3  101.506
 27.8776  10488.2  102.092
 27.9196  10264.8  100.854
 27.9616  10215.8  100.81
 28.0036  10189.5  100.638
 28.0456  10029.5  99.9882
 28.0876  10090.4  100.374
 28.1296  9948.72  99.4385
 28.1716  10158.7  100.576
 28.2136  10076.9  100.128
 28.2556  10101.7  100.373
 28.2976  10036.4  100.037
 28.3396  9959.66  99.3993
 28.3816  10019.5  99.7129
 28.4236  9891.31  99.2291
 28.4656  9977.72  99.7019
 28.5076  9944.13  99.1839
 28.5496  10024.6  99.8283
 28.5916  9920.82  99.1214
 28.6336  9892.59  99.337
 28.6756  10019.3  99.1505
 28.7176  9840.15  98.7116
 28.7596  9926.04  99.142
 28.8016  9924.02  99.1719
 28.8436  9792.82  98.753
 28.8856  9796.35  98.6712
 28.9276  9882.78  99.302
 28.9696  9729.65  98.1907
 29.0116  9768.56  98.5647
 29.0536  9738.61  98.6276
 29.0956  9790.51  98.5881
 29.1376  9761.56  98.4173
 29.1796  9726.16  98.2875
 29.2216  9536.8  97.166
 29.2636  9750.29  98.3248
 29.3056  9627.08  97.4868
 29.3476  9721.66  98.4866
 29.3896  9724.25  98.6118
 29.4316  9575.08  97.1813
 29.4736  9517.89  96.9509
 29.5156  9535.13  96.9676
 29.5576  9506.13  97.5539
 29.5996  9530.64  96.9397
 29.6416  9336.37  96.0603
 29.6836  9453.33  96.5916
 29.7256  9543.46  97.3832
 29.7676  9471.98  96.9091
 29.8096  9418.45  96.5816
 29.8516  9211.07  95.8348
 29.8936  9396.22  96.8888
 29.9356  9452.86  96.9376
 29.9776  9265.83  96.1205
 30.0196  9255.54  95.7369
 30.0616  9292.43  96.0287
 30.1036  9342.03  96.1098
 30.1456  9302.66  96.1327
 30.1876  9275.03  95.9793
 30.2296  9215.34  95.6102
 30.2716  9497.01  96.6976
 30.3136  9454.81  97.3434
 30.3556  9507.16  97.6183
 30.3976  9422.37  98.6704
 30.4396  9784.29  97.8863
 30.4816  9539.24  96.2529
 30.5236  9645.8  96.7851
 30.5656  9524.21  96.8227
 30.6076  9569.13  96.4805
 30.6496  9577.58  96.932
 30.6916  9399.35  96.1067
 30.7336  9462.03  96.5839
 30.7756  9444.63  96.5427
 30.8176  9488.41  96.723
 30.8596  9526.32  96.6641
 30.9016  9550.2  97.1501
 30.9436  9618.21  97.2357
 30.9856  9618.6  97.3631
 31.0276  9367.45  95.709
 31.0696  9358.55  96.2171
 31.1116  9357.43  96.1944
 31.1536  9387.46  96.212
 31.1956  9346.63  96.0915
 31.2376  9270.6  95.7248
 31.2796  9399.28  95.9128
 31.3216  9406.53  95.8904
 31.3636  9368.6  96.4
 31.4056  9252.19  97.0957
 31.4476  9393.97  95.7522
 31.4896  9361.1  96.0882
 31.5316  9375.9  95.5635
 31.5736  9521.28  96.1323
 31.6156  9311.82  95.0677
 31.6576  9463.18  95.9173
 31.6996  9493.22  95.7413
 31.7416  9276.72  95.7319
 31.7836  9522.51  95.9853
 31.8256  9385.72  95.5551
 31.8676  9406.13  95.6528
 31.9096  9253.77  95.2333
 31.9516  9129.53  94.7684
 31.9936  9163.57  94.7616
 32.0356  9197.4  94.9747
 32.0776  9340.78  95.6266
 32.1196  9255.78  95.2942
 32.1616  9318.22  95.0598
 32.2036  9225.52  95.1014
 32.2456  9210.67  95.4034
 32.2876  9228.76  94.9963
 32.3296  9166.67  94.6266
 32.3716  8944.62  93.5876
 32.4136  8904.14  93.5704
 32.4556  9129.85  94.1377
 32.4976  9067.5  93.7224
 32.5396  9022.32  93.5613
 32.5816  9001.04  93.576
 32.6236  9116.33  94.225
 32.6656  9008.45  94.2162
 32.7076  9010.38  93.8776
 32.7496  8970.78  93.3431
 32.7916  9072.23  93.8374
 32.8336  8989.41  93.4979
 32.8756  9068.79  93.6296
 32.9176  8822.02  92.8312
 32.9596  8963.26  93.639
 33.0016  8901.69  93.0935
 33.0436  9007.02  93.808
 33.0856  8828.6  92.9796
 33.1276  8798.03  92.5463
 33.1696  8894.65  92.8937
 33.2116  8905.36  93.1821
 33.2536  9027.56  93.7998
 33.2956  8966.56  93.5743
 33.3376  8855.93  92.7359
 33.3796  8915.92  93.2645
 33.4216  8925.62  92.897
 33.4636  8890.45  92.8716
 33.5056  8837.03  92.843
 33.5476  8827.88  92.7782
 33.5896  8869.28  92.7847
 33.6316  8919.48  93.3611
 33.6736  8718.32  92.5432
 33.7156  8728.2  92.6228
 33.7576  8864.19  92.9871
 33.7996  8850.22  92.6697
 33.8416  8587.32  91.4725
 33.8836  8744.38  92.0758
 33.9256  8840.09  92.6451
 33.9676  8865.7  92.6666
 34.0096  8721.23  92.2281
 34.0516  8721.26  91.854
 34.0936  8557.76  91.2696
 34.1356  8879.05  92.6987
 34.1776  8568.67  91.0582
 34.2196  8628.71  91.5593
 34.2616  8623.64  91.6755
 34.3036  8664.77  92.1513
 34.3456  8596.68  91.5351
 34.3876  8719.56  92.1633
 34.4296  8570.2  91.0578
 34.4716  8617.76  91.4564
 34.5136  8674.38  91.9539
 34.5556  8525.75  91.4159
 34.5976  8730.86  92.3196
 34.6396  8554.8  91.2214
 34.6816  8730.22  92.1333
 34.7236  8671.85  91.6018
 34.7656  8636.87  91.6282
 34.8076  8616.75  91.8521
 34.8496  8488.3  91.0778
 34.8916  8663.13  91.8022
 34.9336  8575.23  91.3218
 34.9756  8608.35  91.4183
 35.0176  8674.69  92.3028
 35.0596  8669.93  92.0998
 35.1016  8688.63  91.9529
 35.1436  8891.51  92.7058
 35.1856  8500.6  90.751
 35.2276  8580.87  91.3694
 35.2696  8632.35  91.8265
 35.3116  8443.14  90.9187
 35.3536  8425.52  90.5375
 35.3956  8444.48  90.3513
 35.4376  8561.8  91.546
 35.4796  8527.25  91.4031
 35.5216  8498.71  91.2107
 35.5636  8309.67  90.9205
 35.6056  8480.96  90.8618
 35.6476  8487.03  90.8114
 35.6896  8569.25  91.341
 35.7316  8423.34  90.5312
 35.7736  8361.95  90.3836
 35.8156  8480.8  91.0332
 35.8576  8507.61  91.4148
 35.8996  8526.75  91.4958
 35.9416  8398.35  90.3136
 35.9836  8520.09  91.2958
 36.0256  8555.47  91.5035
 36.0676  8641.03  91.7134
 36.1096  8547.52  91.372
 36.1516  8599.35  91.5301
 36.1936  8557  91.1388
 36.2356  8523.97  91.6196
 36.2776  8339.4  90.1083
 36.3196  8404.29  90.1329
 36.3616  8322.18  89.8168
 36.4036  8392.37  90.2664
 36.4456  8432.53  90.696
 36.4876  8190.48  89.3211
 36.5296  8334.41  90.138
 36.5716  8251.01  90.4577
 36.6136  8386.91  89.9737
 36.6556  8245.47  89.4082
 36.6976  8117.53  89.2075
 36.7396  8046.41  88.7218
 36.7816  8168.02  89.591
 36.8236  8175.36  89.5456
 36.8656  8042.94  88.8898
 36.9076  8080.62  88.9857
 36.9496  8000.69  88.5294
 36.9916  8070.23  88.5482
 37.0336  8124.51  89.1535
 37.0756  8181.45  89.2625
 37.1176  7916.79  88.0687
 37.1596  8112.07  89.1577
 37.2016  7939.69  88.4257
 37.2436  8097.73  88.6233
 37.2856  7963.56  88.1356
 37.3276  8137.35  88.4499
 37.3696  7986.26  88.5
 37.4116  8092.76  88.9908
 37.4536  7952.33  87.9394
 37.4956  7951.23  88.1238
 37.5376  8133.72  90.7336
 37.5796  8031.83  90.08
 37.6216  8156.52  89.0422
 37.6636  8194.45  89.1321
 37.7056  8117.77  88.9109
 37.7476  8229.66  89.0607
 37.7896  7975.8  88.1756
 37.8316  8070.21  88.8581
 37.8736  8093.42  88.5049
 37.9156  8232.17  89.2625
 37.9576  8159.35  88.7765
 37.9996  7909.57  87.12
 38.0416  7980.04  88.314
 38.0836  8104.1  88.9001
 38.1256  8104.87  88.8766
 38.1676  7992.81  88.3783
 38.2096  8185.52  89.0413
 38.2516  8079.57  88.6858
 38.2936  8124.64  88.7338
 38.3356  8097.91  88.5143
 38.3776  8059.44  88.5455
 38.4196  8003.26  88.0958
 38.4616  8023.61  88.4587
 38.5036  8245.37  89.5171
 38.5456  7897.76  88.4292
 38.5876  7933.77  88.8151
 38.6296  8033.49  88.1975
 38.6716  8068.97  88.1861
 38.7136  7979.47  87.6412
 38.7556  7996.01  88.2385
 38.7976  8012.81  88.2631
 38.8396  8004.99  88.4882
 38.8816  7929.82  88.0586
 38.9236  8054.62  88.5418
 38.9656  8025.15  88.2984
 39.0076  8061.2  87.881
 39.0496  8113.9  88.7382
 39.0916  8123.57  88.4299
 39.1336  7998.74  88.1514
 39.1756  7982.95  88.1196
 39.2176  7945.31  88.4578
 39.2596  8039.64  88.9119
 39.3016  7926.61  87.793
 39.3436  7979.52  88.5703
 39.3856  8043.75  88.3748
 39.4276  8057.3  88.9585
 39.4696  7972.46  88.1066
 39.5116  8048.28  89.0408
 39.5536  8053.75  89.4729
 39.5956  7928.67  87.8907
 39.6376  7936.23  87.9314
 39.6796  8013.09  88.1038
 39.7216  7936.47  87.7774
 39.7636  7964.26  88.482
 39.8056  7981.62  88.3802
 39.8476  7829.91  87.7834
 39.8896  8030.14  88.5375
 39.9316  7894.49  88.0309
 39.9736  8012.09  88.3411
 40.0156  7892.66  87.4276
 40.0576  7915.66  87.9027
 40.0996  7978.36  87.4382
 40.1416  8009.56  88.4129
 40.1836  7997.37  88.2248
 40.2256  7916.84  87.8126
 40.2676  7928.84  87.9857
 40.3096  7937.9  87.9605
 40.3516  8150.87  89.2486
 40.3936  8033.3  88.1598
 40.4356  7877.99  87.5042
 40.4776  8093.6  89.1017
 40.5196  8004.14  88.6659
 40.5616  8123.04  89.0321
 40.6036  7890.14  88.0056
 40.6456  7950.4  87.9365
 40.6876  8130.27  88.9254
 40.7296  8016.61  88.3207
 40.7716  7995.11  88.4374
 40.8136  7820.3  87.4164
 40.8556  8100.89  89.1086
 40.8976  7882.07  87.8142
 40.9396  8048.79  89.09
 40.9816  8044.09  88.343
 41.0236  7980.22  87.7739
 41.0656  8056.28  88.7346
 41.1076  8059.21  88.5189
 41.1496  8051.55  88.3838
 41.1916  7912.76  87.9371
 41.2336  7920.44  87.9794
 41.2756  7974.57  87.8869
 41.3176  8016.77  88.7297
 41.3596  8049.62  88.6439
 41.4016  7954.54  88.3791
 41.4436  7969.52  88.2518
 41.4856  7897.26  88.0045
 41.5276  7905.96  88.0738
 41.5696  7936.16  87.8747
 41.6116  7921.23  88.1936
 41.6536  8013  88.5491
 41.6956  8063.4  88.8895
 41.7376  7982  88.4706
 41.7796  7850.66  87.6175
 41.8216  7953.39  88.4165
 41.8636  7864.47  87.8639
 41.9056  7893.76  87.8234
 41.9476  7926.91  88.1378
 41.9896  8127.66  89.0209
 42.0316  8052.96  88.6952
 42.0736  8101.63  89.0689
 42.1156  7930.19  87.9472
 42.1576  8019.03  88.5264
 42.1996  8013  88.6483
 42.2416  7946.41  87.8593
 42.2836  7946.36  87.9831
 42.3256  7946.28  88.0978
 42.3676  8007  88.2305
 42.4096  7919.65  87.7158
 42.4516  7996.55  88.2147
 42.4936  7895.66  87.7322
 42.5356  7852.91  87.639
 42.5776  8013.93  88.4701
 42.6196  7916.95  87.9914
 42.6616  7804.57  87.5318
 42.7036  7963.22  87.7963
 42.7456  7977.32  88.2287
 42.7876  7851.46  87.6213
 42.8296  7962.96  88.0773
 42.8716  7771.95  87.1847
 42.9136  7925.62  87.8255
 42.9556  7846.93  87.5164
 42.9976  7895.32  87.7492
 43.0396  7958.02  87.8306
 43.0816  7806.66  87.3757
 43.1236  7772.02  87.2304
 43.1656  7894.28  87.7451
 43.2076  7829.2  87.489
 43.2496  7755.1  86.8963
 43.2916  7784.33  87.4217
 43.3336  7814.78  87.4211
 43.3756  7867.39  87.473
 43.4176  7665.24  86.4211
 43.4596  7736.43  86.6798
 43.5016  7838.85  87.654
 43.5436  7848.89  87.6122
 43.5856  7681.55  86.7041
 43.6276  7762.43  87.0548
 43.6696  7743.4  87.1973
 43.7116  7905.86  87.5955
 43.7536  7888.67  88.0123
 43.7956  7666.41  87.9727
 43.8376  7670.92  86.5154
 43.8796  7550.97  85.9137
 43.9216  7674.34  86.5285
 43.9636  7712.28  86.8492
 44.0056  7634.95  86.6434
 44.0476  7568.56  85.8998
 44.0896  7609.32  86.4769
 44.1316  7700.11  86.5114
 44.1736  7585.53  85.9927
 44.2156  7715.16  86.5709
 44.2576  7552.35  85.9814
 44.2996  7617.63  86.325
 44.3416  7679.7  86.4283
 44.3836  7425.41  85.3125
 44.4256  7631.43  86.1291
 44.4676  7528.96  85.7076
 44.5096  7550.95  85.9768
 44.5516  7520.86  85.7729
 44.5936  7486.23  85.5263
 44.6356  7669.13  86.2983
 44.6776  7571.03  85.9853
 44.7196  7560.99  86.3126
 44.7616  7645.11  88.1387
 44.8036  7585.1  86.2079
 44.8456  7762.15  87.4202
 44.8876  7703.18  86.9302
 44.9296  7702.9  86.3694
 44.9716  7714.94  86.8684
 45.0136  7671.85  86.5616
 45.0556  7719.42  86.8148
 45.0976  7758.95  87.1945
 45.1396  7601.22  86.0647
 45.1816  7589.73  85.9256
 45.2236  7772.35  86.8647
 45.2656  7646.03  86.652
 45.3076  7704.19  86.757
 45.3496  7588.16  86.416
 45.3916  7566.56  86.5684
 45.4336  7616.11  86.7032
 45.4756  7661.1  86.7989
 45.5176  7646.95  86.334
 45.5596  7749.37  87.033
 45.6016  7538.16  86.2621
 45.6436  7550.07  85.493
 45.6856  7610.61  86.5049
 45.7276  7514.68  87.286
 45.7696  7532.82  87.0669
 45.8116  7598.94  86.8771
 45.8536  7635.46  86.969
 45.8956  7654.98  86.4346
 45.9376  7714.6  86.2269
 45.9796  7548.48  85.9802
 46.0216  7711.41  87.2552
 46.0636  7762.33  86.6647
 46.1056  7603.23  85.7651
 46.1476  7525.38  85.921
 46.1896  7756.14  87.3647
 46.2316  7542.76  86.0302
 46.2736  7493.32  86.1311
 46.3156  7520.33  85.8663
 46.3576  7418.29  85.4812
 46.3996  7643.78  86.9377
 46.4416  7529.3  85.8552
 46.4836  7533.41  86.2411
 46.5256  7491.51  85.9325
 46.5676  7537.98  86.3147
 46.6096  7326.35  85.0274
 46.6516  7515.57  85.1546
 46.6936  7625.44  86.2826
 46.7356  7560.03  86.0153
 46.7776  7488.42  86.4499
 46.8196  7490.11  86.0573
 46.8616  7329.36  85.0636
 46.9036  7392.41  85.0872
 46.9456  7439.18  84.996
 46.9876  7505.98  85.4493
 47.0296  7473.05  85.9691
 47.0716  7446.23  85.6358
 47.1136  7499.38  85.6202
 47.1556  7479.4  85.3479
 47.1976  7506.39  85.6061
 47.2396  7416.23  85.4852
 47.2816  7427.35  85.2471
 47.3236  7448.24  85.7421
 47.3656  7530.52  86.1488
 47.4076  7384.29  85.1003
 47.4496  7346.88  84.9813
 47.4916  7404.77  85.5054
 47.5336  7552.09  86.1622
 47.5756  7530.74  86.1721
 47.6176  7404.86  85.3391
 47.6596  7443.38  85.2741
 47.7016  7424.45  84.9814
 47.7436  7525.11  85.9029
 47.7856  7548.83  86.0523
 47.8276  7440.88  85.484
 47.8696  7440.15  85.5733
 47.9116  7525.6  85.7745
 47.9536  7430.88  85.161
 47.9956  7275.19  84.9888
 48.0376  7359.36  85.2386
 48.0796  7423.98  85.7498
 48.1216  7371.27  85.2639
 48.1636  7526.82  85.7264
 48.2056  7532.69  86.0297
 48.2476  7527.64  86.3133
 48.2896  7550.63  86.3481
 48.3316  7418.28  85.5292
 48.3736  7496.57  85.9994
 48.4156  7453.59  85.6069
 48.4576  7398.74  85.5935
 48.4996  7546.41  85.8834
 48.5416  7548.18  86.2339
 48.5836  7426.51  85.2051
 48.6256  7533.25  86.0258
 48.6676  7495.28  86.325
 48.7096  7440.73  85.2643
 48.7516  7450.18  85.4772
 48.7936  7252.28  84.3971
 48.8356  7447.05  85.5768
 48.8776  7532.44  86.6493
 48.9196  7648.06  86.6642
 48.9616  7435.95  85.8435
 49.0036  7459.03  86.3326
 49.0456  7449.33  86.2395
 49.0876  7398.44  85.4744
 49.1296  7250.95  84.7874
 49.1716  7287.18  84.8724
 49.2136  7468.09  85.8337
 49.2556  7413.14  85.6748
 49.2976  7353.39  85.2934
 49.3396  7384.15  85.5181
 49.3816  7583.27  86.0773
 49.4236  7435.79  85.6721
 49.4656  7249.4  84.5688
 49.5076  7508.05  85.8478
 49.5496  7328.96  84.8887
 49.5916  7487.5  85.7062
 49.6336  7332.72  85.014
 49.6756  7422.85  85.7954
 49.7176  7328.62  85.1834
 49.7596  7384.02  85.2642
 49.8016  7426.09  85.4283
 49.8436  7310.59  85.0581
 49.8856  7392.01  85.5325
 49.9276  7297.63  85.0919
 49.9696  7382.41  85.5713
 50.0116  7219.62  84.7616
 50.0536  7419.83  85.8601
 50.0956  7292.3  85.1932
 50.1376  7288.49  84.8698
 50.1796  7246.78  84.8986
 50.2216  7260.29  84.9632
 50.2636  7362.39  85.1646
 50.3056  7300.43  84.9899
 50.3476  7241.75  84.6683
 50.3896  7269.96  84.8133
 50.4316  7324.32  84.9582
 50.4736  7298.26  85.0315
 50.5156  7308.84  85.0687
 50.5576  7255.72  84.519
 50.5996  7340.75  85.4296
 50.6416  7268.13  84.8155
 50.6836  7345.04  85.3251
 50.7256  7375.34  85.4296
 50.7676  7295.61  85.2893
 50.8096  7323.15  84.9621
 50.8516  7258.8  85.0168
 50.8936  7225.77  84.5934
 50.9356  7263.66  84.9336
 50.9776  7323.02  85.4343
 51.0196  6963.37  83.4345
 51.0616  7161.64  83.9294
 51.1036  7209.68  84.5749
 51.1456  7240.57  84.6668
 51.1876  7194.13  83.715
 51.2296  7172.06  84.3663
 51.2716  7033.67  83.1236
 51.3136  7100.39  83.9878
 51.3556  6996.85  82.9862
 51.3976  7062.41  83.5311
 51.4396  6950.12  83.1788
 51.4816  7117.74  84.0266
 51.5236  7013.35  83.5152
 51.5656  7049.07  83.2952
 51.6076  7101.67  83.6949
 51.6496  7107.59  83.9189
 51.6916  7049.02  83.9441
 51.7336  6983.94  83.642
 51.7756  7016.15  83.5218
 51.8176  6976.86  83.4009
 51.8596  7033.06  83.7557
 51.9016  7277.23  84.7903
 51.9436  7052.77  85.0085
 51.9856  7040.68  85.3455
 52.0276  7245.12  85.0038
 52.0696  7246.72  85.0967
 52.1116  6984.41  83.6585
 52.1536  7160.07  84.5933
 52.1956  7118.68  83.7928
 52.2376  7072.74  83.7015
 52.2796  7252.72  84.5748
 52.3216  7005.16  83.8134
 52.3636  7095.83  83.8913
 52.4056  7084.32  83.7082
 52.4476  7081.36  84.0566
 52.4896  6958.72  83.3755
 52.5316  7100.49  84.2794
 52.5736  6987.59  83.3044
 52.6156  7138.82  84.6246
 52.6576  7055.17  83.5322
 52.6996  6923.82  83.7652
 52.7416  6934.96  83.6803
 52.7836  7053.24  84.2862
 52.8256  7049.05  83.4501
 52.8676  6784.81  82.4541
 52.9096  7070.06  84.2361
 52.9516  7063.06  84.5952
 52.9936  6983.39  84.4959
 53.0356  6993.55  83.5464
 53.0776  6961.59  83.6384
 53.1196  6957.99  83.7432
 53.1616  7095.22  84.61
 53.2036  6897.56  83.3857
 53.2456  7038.14  84.3408
 53.2876  7035.78  84.0048
 53.3296  6936.51  83.742
 53.3716  7112.19  84.5357
 53.4136  7018.66  84.1432
 53.4556  6973.12  83.8974
 53.4976  6935.07  83.4879
 53.5396  6969.61  84.1062
 53.5816  6935.5  83.5338
 53.6236  6838.57  83.2405
 53.6656  6924.36  83.4153
 53.7076  6984.82  83.7313
 53.7496  7112.76  84.6511
 53.7916  6995.59  84.0838
 53.8336  6936.56  83.6144
 53.8756  6971.52  84.3957
 53.9176  6864.41  83.0751
 53.9596  6734.69  83.0554
 54.0016  6718.52  82.2659
 54.0436  6588.39  81.6955
 54.0856  6807.13  82.461
 54.1276  6705.76  82.0448
 54.1696  6677.07  82.0353
 54.2116  6866.97  82.9378
 54.2536  6770.11  82.1431
 54.2956  6805.71  82.3536
 54.3376  6668.86  82.0745
 54.3796  6612.15  81.6258
 54.4216  6675.72  82.0826
 54.4636  6704.65  82.2699
 54.5056  6782.16  82.4847
 54.5476  6652.18  82.0489
 54.5896  6720.85  82.2916
 54.6316  6717.29  82.1134
 54.6736  6733.47  82.2977
 54.7156  6577.52  81.384
 54.7576  6524.27  81.0065
 54.7996  6625.4  81.7913
 54.8416  6653.63  81.9364
 54.8836  6630.05  81.9939
 54.9256  6678.24  82.0255
 54.9676  6595.37  81.3748
 55.0096  6723.45  82.2141
 55.0516  6546.14  81.3435
 55.0936  6618.2  81.4643
 55.1356  6481.98  80.6609
 55.1776  6677.09  82.1153
 55.2196  6579.73  81.3638
 55.2616  6650.69  81.957
 55.3036  6611.5  81.8946
 55.3456  6454.32  81.0443
 55.3876  6590.46  81.6114
 55.4296  6397.63  80.456
 55.4716  6489.5  81.0263
 55.5136  6469.58  80.6618
 55.5556  6606.52  81.5751
 55.5976  6538.58  81.2277
 55.6396  6637.3  81.7757
 55.6816  6541.79  81.0227
 55.7236  6403.52  80.2342
 55.7656  6479.14  80.4468
 55.8076  6495.96  80.5451
 55.8496  6427.21  80.4459
 55.8916  6376.87  80.3342
 55.9336  6553.95  81.2716
 55.9756  6500.86  80.8223
 56.0176  6406.35  80.3521
 56.0596  6437.26  80.557
 56.1016  6370.62  80.1575
 56.1436  6511.37  81.2945
 56.1856  6361.42  80.1004
 56.2276  6584.08  81.5531
 56.2696  6401.41  80.41
 56.3116  6489.31  81.3211
 56.3536  6397.94  80.4125
 56.3956  6369.34  80.1967
 56.4376  6400.15  80.4278
 56.4796  6243.59  79.2624
 56.5216  6398.44  80.6192
 56.5636  6359.72  79.9398
 56.6056  6498.97  81.0659
 56.6476  6382.36  79.9371
 56.6896  6542.77  81.4146
 56.7316  6344.09  80.0657
 56.7736  6364.09  80.1987
 56.8156  6338.9  80.0597
 56.8576  6266.74  79.548
 56.8996  6348.84  79.9561
 56.9416  6281.22  79.8624
 56.9836  6465.32  80.5279
 57.0256  6222.09  79.3178
 57.0676  6466.69  80.9813
 57.1096  6370.74  80.1676
 57.1516  6309.85  79.8372
 57.1936  6349.31  79.821
 57.2356  6198.77  79.2011
 57.2776  6366.46  80.2351
 57.3196  6311.73  80.0426
 57.3616  6318.57  79.7702
 57.4036  6381.76  80.2352
 57.4456  6410.11  80.4059
 57.4876  6339.52  79.8188
 57.5296  6246.86  79.5481
 57.5716  6283.12  79.7823
 57.6136  6199.41  79.0905
 57.6556  6198.78  79.2097
 57.6976  6249.07  79.279
 57.7396  6108.83  78.7999
 57.7816  6221.96  79.917
 57.8236  6304.36  80.232
 57.8656  6256.99  79.5911
 57.9076  6293  79.8351
 57.9496  6300.14  80.2603
 57.9916  6269.04  79.567
 58.0336  6212.52  79.4793
 58.0756  6310.84  79.7515
 58.1176  6243.73  79.308
 58.1596  6148.33  79.2934
 58.2016  5989.69  77.4767
 58.2436  6024.13  78.1105
 58.2856  5986.48  77.7861
 58.3276  6021.05  78.3847
 58.3696  5967.68  77.7923
 58.4116  5992.31  77.8154
 58.4536  6020.39  77.8818
 58.4956  5941.11  77.5494
 58.5376  6046.36  77.9318
 58.5796  5934.36  77.4972
 58.6216  6022.09  77.889
 58.6636  6026.12  78.1228
 58.7056  5930.24  77.3583
 58.7476  5920.58  77.7355
 58.7896  5835.45  76.8274
 58.8316  5935.36  77.5803
 58.8736  5948.64  77.5757
 58.9156  5949.69  77.6239
 58.9576  5977.75  78.1249
 58.9996  6069.5  77.9757
 59.0416  5975.13  77.7192
 59.0836  6061.94  78.1949
 59.1256  6030.8  78.704
 59.1676  5939.33  78.4166
 59.2096  5983.32  78.0053
 59.2516  6006.09  77.7358
 59.2936  6021.84  78.1652
 59.3356  6033.77  78.1205
 59.3776  5944.82  77.7101
 59.4196  5908.57  77.41
 59.4616  5964.05  77.6329
 59.5036  5924.15  77.406
 59.5456  6137.1  78.4778
 59.5876  6001.07  77.7937
 59.6296  5863.85  76.9673
 59.6716  5826.52  76.7788
 59.7136  6044.61  78.1908
 59.7556  6021.59  78.178
 59.7976  5989.11  77.7101
 59.8396  5925.88  77.1941
 59.8816  5939.73  77.8254
 59.9236  5823.07  76.7072
 59.9656  5817.34  76.9242
 60.0076  5877.43  76.6877
 60.0496  5933.24  77.5504
 60.0916  5962.28  77.1618
 60.1336  5837.68  77.4397
 60.1756  5977.58  79.54
 60.1996  0.0000000E+00  0.0000000E+00