File: docs/examples/XRD/IS17_D/Data/IS17_D/17_Db_f00142.xye
# /beamlines/bl04/projects/cycle2025-II/20250340211-lsimonelli/DATA/IS17_D/17_Db_f00142.xye : mythproc.py merge -s 0.006 -l 0.5 -f /beamlines/bl04/inhouse/ff/FlatField/ff_20Nov2024rod8mm60s_17keV.raw -b True -c true -o xye /beamlines/bl04/projects/cycle2025-II/20250340211-lsimonelli/DATA/IS17_D/17_Db_00142.dat
# IsMon = [6786411, 6788866, 6785959]  IsPos = [-1.4999, -2.4883, -3.4989]
# Wave = 0.4962  CalPath /beamlines/bl04/projects/cycle2025-II/20250340211-lsimonelli/DATA/Align/Si_Pos1_25keV_f00001.cal
# Date = 2025-09-25_09:17:29 Dt = 4.8000  Bin = 0.0060  <imon> = 6787079 +/- 1277 (Min/Max) 6785959 / 6788866
# icurr 253.2033  mocoIn 1.7275E-05  mocoOut 0.8102  i15 7.10964e+06  imon 6.78708e+06  i7 5.6667  iEMpd_timer 4.8000  iEMpd_1 3.6413E-08  iEMpd_2 7.9057E-08  iEMpd_3 1.8221E-08  iEMpd_4 4.7093E-08  iEMhp_timer 4.8000  iEMhp_1 4.9461E-06  iEMhp_2 -2.6755E-08  iEMhp_3 -2.4222E-08  iEMhp_4 -2.1499E-08
#      9776
 1.5856  45551.6  219.168
 1.6276  52227.6  230.652
 1.6696  57332.6  240.81
 1.7116  64982.2  256.873
 1.7536  72655.6  270.46
 1.7956  75811.7  276.962
 1.8376  73161  272.508
 1.8796  63209.2  251.435
 1.9216  52377.1  229.79
 1.9636  45146.8  212.467
 2.0056  41408.9  202.692
 2.0476  38249.1  196.941
 2.0896  36825.3  192.107
 2.1316  35861.9  188.666
 2.1736  33807.8  184.637
 2.2156  34604  185.299
 2.2576  33251.6  182.293
 2.2996  32107.5  179.787
 2.3416  32532.9  179.531
 2.3836  31432.5  176.576
 2.4256  30827.9  175.44
 2.4676  30412.2  174.006
 2.5096  30107.2  173.187
 2.5516  29645.3  175.781
 2.5936  45485.7  213.378
 2.6356  28717.1  170.254
 2.6776  27953.9  166.868
 2.7196  27926.6  166.893
 2.7616  27596.1  166.077
 2.8036  27033.6  164.543
 2.8456  27062.8  165.275
 2.8876  26326.9  162.867
 2.9296  26148.6  162.451
 2.9716  26028.2  161.563
 3.0136  25538  160.105
 3.0556  25856.7  161.493
 3.0976  25671  159.811
 3.1396  25476.1  159.931
 3.1816  25136.6  158.507
 3.2236  25078.6  158.611
 3.2656  24832.1  156.87
 3.3076  24635.6  157.735
 3.3496  24814.1  157.203
 3.3916  25354.7  158.731
 3.4336  25525.2  159.866
 3.4756  26091.6  161.57
 3.5176  26553.8  162.758
 3.5596  26514.4  165.12
 3.6016  26487.3  162.63
 3.6436  25643.4  161.132
 3.6856  25253.4  158.198
 3.7276  24295.4  156.241
 3.7696  24112.6  155.855
 3.8116  23836.8  154.856
 3.8536  23969.9  155.221
 3.8956  23950.8  154.975
 3.9376  23969.8  155.302
 3.9796  23695.2  153.896
 4.0216  23791.7  153.23
 4.0636  23873.8  154.993
 4.1056  23640.1  153.87
 4.1476  24081.2  155.621
 4.1896  24116.7  155.584
 4.2316  24247  155.85
 4.2736  24572.9  156.681
 4.3156  24752.4  157.491
 4.3576  25482.5  159.7
 4.3996  25749.3  160.798
 4.4416  26275.3  162.016
 4.4836  26945.1  164.227
 4.5256  27327.9  166.011
 4.5676  27062.6  165.46
 4.6096  27780.4  166.274
 4.6516  28029.4  166.72
 4.6936  28277.6  168.299
 4.7356  28490.2  168.748
 4.7776  28112.1  167.449
 4.8196  28161.2  168.251
 4.8616  27628  166.128
 4.9036  27585.4  165.733
 4.9456  27215  165.279
 4.9876  26652  163.46
 5.0296  26898.5  164.054
 5.0716  26610.7  163.938
 5.1136  26982.5  164.792
 5.1556  27152.7  164.763
 5.1976  28956.8  170.13
 5.2396  27854.5  166.561
 5.2816  27679.1  166.51
 5.3236  27866.9  166.764
 5.3656  27027.5  165.169
 5.4076  26974.7  165.146
 5.4496  26893  164.394
 5.4916  27305  165.4
 5.5336  27322.6  165.535
 5.5756  27122.6  164.866
 5.6176  27332.8  164.937
 5.6596  27530.7  166.53
 5.7016  27722.8  166.365
 5.7436  27603.5  165.911
 5.7856  27747.9  166.788
 5.8276  27932.2  167.051
 5.8696  28195.1  168.014
 5.9116  28130.8  168.125
 5.9536  28433.5  169.074
 5.9956  28739.8  169.36
 6.0376  28802.7  170.173
 6.0796  28848.8  170.136
 6.1216  28886  170.503
 6.1636  29222.6  170.485
 6.2056  28866.2  170.122
 6.2476  29007  170.411
 6.2896  29384.7  171.192
 6.3316  29393.7  171.391
 6.3736  29511.3  171.633
 6.4156  29605.5  171.78
 6.4576  29490.3  171.065
 6.4996  29684  172.108
 6.5416  29563.1  171.89
 6.5836  29858  172.833
 6.6256  29748.3  172.219
 6.6676  30269.3  173.287
 6.7096  30270.6  174.157
 6.7516  30719  175.097
 6.7936  31004.5  175.308
 6.8356  31007.1  175.416
 6.8776  31085.6  176.441
 6.9196  31216.9  177.212
 6.9616  31575.3  177.664
 7.0036  31943.2  178.355
 7.0456  32137.5  178.186
 7.0876  31819.6  178.994
 7.1296  31987.3  178.597
 7.1716  32064.7  178.356
 7.2136  31891.1  177.637
 7.2556  31943.1  177.94
 7.2976  32046.4  178.728
 7.3396  31849.3  178.397
 7.3816  31844.4  178.599
 7.4236  32119.4  178.669
 7.4656  32452.4  179.053
 7.5076  32652  179.746
 7.5496  32330.7  179.41
 7.5916  32425.6  179.708
 7.6336  33222.5  181.863
 7.6756  33075.3  181.237
 7.7176  33661  183.159
 7.7596  33236.8  183.219
 7.8016  34877.9  189.987
 7.8436  33503.5  183.008
 7.8856  33703.7  183.009
 7.9276  34364.6  185.2
 7.9696  34426.1  185.669
 8.0116  35564.3  187.253
 8.0536  35851.6  188.254
 8.0956  36092.1  190.068
 8.1376  36061.9  189.468
 8.1796  36322.6  190.685
 8.2216  37379  191.907
 8.2636  37675.6  193.21
 8.3056  37185.6  192.707
 8.3476  37957.9  194.012
 8.3896  37787.4  193.657
 8.4316  37775.1  193.794
 8.4736  37979.9  193.787
 8.5156  37630.4  193.169
 8.5576  36937.8  192.974
 8.5996  36885.3  191.093
 8.6416  37198.9  193.16
 8.6836  36623.5  191.509
 8.7256  37471.2  193.133
 8.7676  37921  197.273
 8.8096  38442.9  195.876
 8.8516  37581.5  193.232
 8.8936  37696  193.483
 8.9356  37265.5  192.708
 8.9776  37330.9  192.957
 9.0196  37638.5  193.414
 9.0616  36912  191.1
 9.1036  37478.8  193.69
 9.1456  36445.8  190.327
 9.1876  36460  190.307
 9.2296  36307.1  189.347
 9.2716  36366.2  189.523
 9.3136  36554.8  190.027
 9.3556  36493.5  189.844
 9.3976  35413.7  187.527
 9.4396  35562.8  187.832
 9.4816  35351.7  187.125
 9.5236  34993.7  186.076
 9.5656  35291.5  187.233
 9.6076  34316.8  185.159
 9.6496  34369.8  185.177
 9.6916  34212.8  184.702
 9.7336  34296.5  184.726
 9.7756  34189.8  185.708
 9.8176  34202.8  185.228
 9.8596  34075.8  183.308
 9.9016  33244  181.054
 9.9436  33338.1  181.212
 9.9856  33054.4  180.717
 10.0276  32077.2  179.069
 10.0696  32900.9  180.412
 10.1116  31854.5  177.779
 10.1536  31825.5  177.857
 10.1956  31477.6  176.499
 10.2376  31135.6  175.042
 10.2796  31088.8  175.022
 10.3216  30750.5  174.355
 10.3636  30789.5  174.491
 10.4056  30812.1  174.956
 10.4476  31084.5  175.335
 10.4896  32161.9  177.936
 10.5316  30891.9  174.983
 10.5736  30035.8  172.945
 10.6156  29753.1  171.893
 10.6576  31433  175.179
 10.6996  29520  170.478
 10.7416  29109.5  169.509
 10.7836  29049.7  170.02
 10.8256  28272.9  168.181
 10.8676  28284.6  167.734
 10.9096  28206  167.538
 10.9516  27771.3  165.169
 10.9936  28122.6  166.431
 11.0356  27741.8  165.919
 11.0776  27889.7  165.676
 11.1196  27528.1  165.379
 11.1616  26837.2  162.952
 11.2036  27565.4  164.998
 11.2456  27647.7  165.969
 11.2876  27336.5  164.754
 11.3296  26875.7  163.274
 11.3716  27279.4  164.183
 11.4136  27116  164.589
 11.4556  27372.7  165.018
 11.4976  28120  166.209
 11.5396  27922.9  165.799
 11.5816  27217.3  164.141
 11.6236  26396.5  161.877
 11.6656  26792  162.232
 11.7076  25881.6  160.275
 11.7496  25498  162.302
 11.7916  25783  159.231
 11.8336  25011.5  157.72
 11.8756  25207.2  157.886
 11.9176  25200  157.524
 11.9596  25343.5  158.156
 12.0016  24775.1  156.86
 12.0436  25057.4  157.472
 12.0856  24477.1  156.146
 12.1276  24485.8  156.015
 12.1696  24627  155.682
 12.2116  24489.8  155.249
 12.2536  25257  158.495
 12.2956  24452.3  155.164
 12.3376  24591.8  155.94
 12.3796  24529.5  156.233
 12.4216  24323.3  154.758
 12.4636  24544  156.41
 12.5056  24200.4  154.652
 12.5476  24384.3  154.671
 12.5896  24058  154.277
 12.6316  24323.4  155.28
 12.6736  23951.9  154.754
 12.7156  24194.2  155.193
 12.7576  24362.8  155.99
 12.7996  24264.3  154.312
 12.8416  24123.8  154.918
 12.8836  24298.6  155.221
 12.9256  24909.7  156.272
 12.9676  24674.3  155.937
 13.0096  24839.1  157.588
 13.0516  24646.9  156
 13.0936  25100.9  157.841
 13.1356  25080  156.727
 13.1776  24899.7  157.197
 13.2196  24542.2  155.704
 13.2616  24527.8  155.973
 13.3036  24806.2  156.818
 13.3456  24652  156.86
 13.3876  25125.5  157.442
 13.4296  24743.3  156.41
 13.4716  24857.4  156.395
 13.5136  24920.2  156.721
 13.5556  24930.9  157.047
 13.5976  24925.6  157.548
 13.6396  24861.3  156.695
 13.6816  24920.9  157.352
 13.7236  25314.1  158.182
 13.7656  26661.9  162.801
 13.8076  27842.6  164.97
 13.8496  27051.6  163.308
 13.8916  25157.2  158.617
 13.9336  24331.4  155.264
 13.9756  24520.9  155.252
 14.0176  24207.6  154.837
 14.0596  24321.3  155.213
 14.1016  24135.1  155.06
 14.1436  24149.2  154.233
 14.1856  23656.3  152.948
 14.2276  23480.9  152.821
 14.2696  23708  153.452
 14.3116  22973.1  150.964
 14.3536  22815.4  150.599
 14.3956  22825  150.356
 14.4376  22930.3  150.49
 14.4796  22716.7  149.789
 14.5216  22577.1  150.123
 14.5636  22472.1  149.335
 14.6056  22535.2  149.106
 14.6476  22320.2  147.631
 14.6896  21988.1  147.073
 14.7316  21637.2  146.94
 14.7736  21472.2  145.508
 14.8156  21406.2  145.304
 14.8576  21350.4  144.986
 14.8996  20937.8  144.778
 14.9416  20745.5  144.121
 14.9836  20598.3  143.598
 15.0256  20124  140.839
 15.0676  20076.3  141.044
 15.1096  19923  140.183
 15.1516  19565.3  139.47
 15.1936  19691.7  139.347
 15.2356  19586.1  139.128
 15.2776  19257  138.097
 15.3196  18779  136.941
 15.3616  18892.3  137.116
 15.4036  18736.2  136.408
 15.4456  18941.5  136.798
 15.4876  18616.9  135.305
 15.5296  18613.3  135.574
 15.5716  18060.7  133.159
 15.6136  18199.9  133.992
 15.6556  18492.3  134.681
 15.6976  18169.2  133.416
 15.7396  17943.9  132.983
 15.7816  17742.4  131.741
 15.8236  17806.9  132.62
 15.8656  17729.4  132.182
 15.9076  17424.7  130.864
 15.9496  18362.7  137.19
 15.9916  17884.2  135.805
 16.0336  18072.8  133.351
 16.0756  17915.1  133.09
 16.1176  17560  131.85
 16.1596  17136.1  131.437
 16.2016  17302.6  130.821
 16.2436  17232.4  130.937
 16.2856  17165.6  130.186
 16.3276  16916.6  129.685
 16.3696  17189.2  130.554
 16.4116  16677  129.015
 16.4536  17065.5  130.337
 16.4956  17186.5  130.522
 16.5376  16937.3  129.768
 16.5796  16727.5  128.328
 16.6216  16893.1  129.223
 16.6636  16629  128.408
 16.7056  16682.2  128.469
 16.7476  16771.6  128.343
 16.7896  16700.2  128.825
 16.8316  16774.1  129.068
 16.8736  17202.6  130.975
 16.9156  16804.5  129.786
 16.9576  16421.4  129.089
 16.9996  16527.9  129.979
 17.0416  16628.7  128.738
 17.0836  16537.4  128.145
 17.1256  16434.5  127.748
 17.1676  16724.8  128.848
 17.2096  16308  127.112
 17.2516  16349.2  127.066
 17.2936  16166.2  126.703
 17.3356  15995.1  126.013
 17.3776  15967.1  126.092
 17.4196  15830  125.246
 17.4616  15851.4  125.237
 17.5036  15830.3  125.522
 17.5456  15497.6  124.836
 17.5876  15646.9  124.478
 17.6296  15802.5  124.918
 17.6716  15518.3  124.377
 17.7136  15719.2  125.32
 17.7556  15490.4  124.696
 17.7976  15500.8  124.451
 17.8396  15414.2  123.618
 17.8816  15273  123.616
 17.9236  15202.2  123.112
 17.9656  15165.9  123.507
 18.0076  15260  123.477
 18.0496  15365.3  123.019
 18.0916  16451.9  127.779
 18.1336  15949.2  126.008
 18.1756  15390.5  123.319
 18.2176  15107.9  122.39
 18.2596  14893.5  121.244
 18.3016  15138.5  122.511
 18.3436  15119.7  122.433
 18.3856  15050  122.492
 18.4276  14938.4  121.511
 18.4696  14980.8  121.776
 18.5116  14998.5  122.127
 18.5536  14756  121.499
 18.5956  14798.2  121.227
 18.6376  14587.3  120.767
 18.6796  14670.3  120.408
 18.7216  14768.5  121.317
 18.7636  14834.2  121.594
 18.8056  14460  119.971
 18.8476  14189.4  119.478
 18.8896  14446.4  119.881
 18.9316  14520.3  120.174
 18.9736  14342.8  119.127
 19.0156  14413.8  119.842
 19.0576  14536.9  119.186
 19.0996  14412.6  119.533
 19.1416  14531  120.291
 19.1836  14389.6  119.3
 19.2256  14236.1  118.981
 19.2676  14268  119.105
 19.3096  14265.3  119.347
 19.3516  14324.9  119.55
 19.3936  14131.5  118.636
 19.4356  14463.6  119.9
 19.4776  14346.1  119.507
 19.5196  14213.2  118.801
 19.5616  14077.3  118.49
 19.6036  14056.6  117.905
 19.6456  14234  118.755
 19.6876  14257.5  118.475
 19.7296  14342.7  119.307
 19.7716  14130.9  118.597
 19.8136  14459.1  120.164
 19.8556  14659  120.467
 19.8976  14679.7  120.613
 19.9396  14855  120.913
 19.9816  14870.1  121.303
 20.0236  15010.9  121.997
 20.0656  14630.1  120.44
 20.1076  14549  120.594
 20.1496  14184.9  119.071
 20.1916  14237.9  118.804
 20.2336  14023.8  117.825
 20.2756  13822  117.422
 20.3176  13733.2  116.777
 20.3596  13611.1  116.253
 20.4016  13666.5  116.286
 20.4436  13633.7  116.61
 20.4856  13586.8  116.301
 20.5276  13673.2  117.139
 20.5696  13676.6  116.599
 20.6116  13572.8  116.428
 20.6536  13457.6  115.42
 20.6956  13343.8  115.086
 20.7376  13400.2  115.536
 20.7796  13236.8  114.525
 20.8216  13632.6  115.933
 20.8636  13482.3  115.677
 20.9056  13679.2  116.447
 20.9476  13392.4  115.073
 20.9896  13729.6  116.367
 21.0316  13347.3  114.64
 21.0736  13459.9  115.641
 21.1156  13292.4  115.089
 21.1576  13295.8  115.146
 21.1996  13228.9  114.839
 21.2416  13187.8  114.46
 21.2836  13175  114.405
 21.3256  13195.2  114.606
 21.3676  13213.4  114.183
 21.4096  13139  114.182
 21.4516  13124.2  113.98
 21.4936  12848.6  113.043
 21.5356  13132.4  114.238
 21.5776  13058.8  113.74
 21.6196  13012.7  113.586
 21.6616  12934.6  113.332
 21.7036  13044.1  113.577
 21.7456  13059  113.723
 21.7876  12860.4  112.608
 21.8296  12848.6  112.406
 21.8716  12952.8  113.086
 21.9136  13128.3  114.062
 21.9556  12874.2  112.617
 21.9976  12908.2  112.804
 22.0396  12809.3  112.626
 22.0816  12818.4  113.203
 22.1236  13050.1  113.664
 22.1656  12994.9  113.931
 22.2076  12544.8  111.046
 22.2496  12683.9  111.681
 22.2916  12621.5  111.299
 22.3336  12721.5  112.456
 22.3756  12746.5  112.291
 22.4176  12453.3  110.848
 22.4596  12292.2  110.714
 22.5016  12464.4  110.991
 22.5436  12633.9  111.731
 22.5856  12798.6  112.585
 22.6276  12696  112.308
 22.6696  12643  112.396
 22.7116  12542.6  111.451
 22.7536  12664.5  111.974
 22.7956  12716.8  111.529
 22.8376  12462.6  110.937
 22.8796  12465.9  110.749
 22.9216  12660.1  112.16
 22.9636  12377.8  110.056
 23.0056  12512.6  110.788
 23.0476  12664  112.031
 23.0896  12974.9  112.766
 23.1316  12790.2  112.399
 23.1736  12799.2  115.199
 23.2156  12692.5  112.311
 23.2576  12999.3  113.786
 23.2996  12561.6  111.639
 23.3416  12988.3  114.047
 23.3836  12837.3  112.607
 23.4256  13013.1  113.5
 23.4676  12589.3  111.33
 23.5096  12846.4  113.122
 23.5516  12784  112.138
 23.5936  12894.7  113.553
 23.6356  13057.9  113.926
 23.6776  12656.8  112.375
 23.7196  12668.9  112.003
 23.7616  12760  112.319
 23.8036  12990.6  113.382
 23.8456  12774.4  111.838
 23.8876  12730.1  112.153
 23.9296  12275.2  110.615
 23.9716  12624.3  111.376
 24.0136  12588.8  112.13
 24.0556  12382.1  110.916
 24.0976  12321.4  110.466
 24.1396  12222.4  112.642
 24.1816  12403.2  111.868
 24.2236  12388  111.418
 24.2656  12325  110.601
 24.3076  12266.6  110.614
 24.3496  12277.7  110.54
 24.3916  12262.7  110.525
 24.4336  12258.8  110.709
 24.4756  12179.2  110.235
 24.5176  12213  110.012
 24.5596  12020.8  109.262
 24.6016  12007.8  109.499
 24.6436  12224.4  109.991
 24.6856  12067.9  109.024
 24.7276  12015.3  109.11
 24.7696  11869.2  108.558
 24.8116  11781.1  108.328
 24.8536  11917.6  108.963
 24.8956  11634.7  107.396
 24.9376  11737.1  107.778
 24.9796  11593.5  107.5
 25.0216  11574.1  107.522
 25.0636  11632.9  107.445
 25.1056  11503.3  107.555
 25.1476  11465.9  109.031
 25.1896  11402.8  107.226
 25.2316  11362.6  106.309
 25.2736  11299.9  105.662
 25.3156  11365  106.05
 25.3576  11264.2  106.006
 25.3996  11328.8  106.301
 25.4416  11277  106.029
 25.4836  11189.6  106.137
 25.5256  11294.7  105.994
 25.5676  11161.5  105.087
 25.6096  11064  105.21
 25.6516  11213.5  105.418
 25.6936  11133.1  105.359
 25.7356  11066.2  105.179
 25.7776  11283.1  105.8
 25.8196  11054.6  104.963
 25.8616  11007.3  104.667
 25.9036  11264.9  105.324
 25.9456  10998.3  104.677
 25.9876  10838.6  103.972
 26.0296  11154  104.991
 26.0716  11175.8  105.526
 26.1136  11184.8  105.492
 26.1556  11075.1  104.361
 26.1976  11017.9  105.029
 26.2396  11108.1  104.603
 26.2816  11143.6  105.389
 26.3236  10995.5  104.835
 26.3656  11212  105.582
 26.4076  10943.7  104.479
 26.4496  11141.9  105.05
 26.4916  11203.3  105.228
 26.5336  11240.5  105.834
 26.5756  11806.3  108.257
 26.6176  11107.8  104.997
 26.6596  10898.8  104.343
 26.7016  10976.8  104.477
 26.7436  11008.9  104.761
 26.7856  10686.7  103.204
 26.8276  10636  102.921
 26.8696  10852.1  103.836
 26.9116  10829.9  103.672
 26.9536  10619.4  102.699
 26.9956  10583.3  102.562
 27.0376  10681.1  103.26
 27.0796  10678.3  102.965
 27.1216  10760.8  103.42
 27.1636  10381.6  101.747
 27.2056  10534.5  102.388
 27.2476  10619.6  102.794
 27.2896  10470.4  102.211
 27.3316  10551.9  102.292
 27.3736  10336.2  101.507
 27.4156  10586.1  102.574
 27.4576  10489.4  102.324
 27.4996  10526.8  102.11
 27.5416  10407  101.832
 27.5836  10348.5  101.385
 27.6256  10463.1  102.121
 27.6676  10320.1  101.42
 27.7096  10423.6  101.802
 27.7516  10483.5  102.15
 27.7936  10775.6  103.811
 27.8356  10603.4  102.584
 27.8776  10643.7  102.839
 27.9196  10241.7  100.742
 27.9616  10385.4  101.653
 28.0036  10376.1  101.564
 28.0456  10142.7  100.552
 28.0876  10171.8  100.78
 28.1296  10269.2  101.032
 28.1716  10336.6  101.447
 28.2136  10201  100.744
 28.2556  10273.1  101.214
 28.2976  10139  100.548
 28.3396  10069.6  99.9621
 28.3816  10231.1  100.76
 28.4236  10092.9  100.233
 28.4656  10005.7  99.8502
 28.5076  9992.54  99.4168
 28.5496  10055.1  99.9846
 28.5916  10227  100.649
 28.6336  10104.5  100.389
 28.6756  10074.7  99.4303
 28.7176  10030.5  99.664
 28.7596  9919.34  99.1085
 28.8016  9949.96  99.2961
 28.8436  9795.62  98.766
 28.8856  9962.04  99.4926
 28.9276  9995.86  99.8698
 28.9696  9976.67  99.4231
 29.0116  9817.16  98.824
 29.0536  9736.21  98.6144
 29.0956  9903.84  99.1527
 29.1376  9858.96  98.9065
 29.1796  9879.98  99.0571
 29.2216  9792.08  98.4575
 29.2636  9873.29  98.9325
 29.3056  9885.73  98.7726
 29.3476  9753.32  98.6548
 29.3896  9816.09  99.0839
 29.4316  9655.03  97.5964
 29.4736  9629.76  97.5358
 29.5156  9713.27  97.8752
 29.5576  9543.56  97.7479
 29.5996  9679.72  97.7037
 29.6416  9590.53  97.3686
 29.6836  9655.85  97.6298
 29.7256  9626.6  97.8067
 29.7676  9576.62  97.4556
 29.8096  9448.32  96.7397
 29.8516  9336.16  96.4982
 29.8936  9467.82  97.2654
 29.9356  9617.79  97.7858
 29.9776  9508.86  97.3857
 30.0196  9405.95  96.5163
 30.0616  9508.05  97.1446
 30.1036  9561.16  97.2375
 30.1456  9453.18  96.9248
 30.1876  9459.62  96.9306
 30.2296  9411.26  96.639
 30.2716  9526.12  96.8591
 30.3136  9583.16  98.01
 30.3556  9665.35  98.4305
 30.3976  9430.62  98.708
 30.4396  9927.76  98.6043
 30.4816  9745.71  97.2884
 30.5236  9708.81  97.114
 30.5656  9609.14  97.2746
 30.6076  9660.52  96.9469
 30.6496  9677.6  97.4431
 30.6916  9437.05  96.3088
 30.7336  9626.65  97.4108
 30.7756  9614.21  97.4386
 30.8176  9688.7  97.7381
 30.8596  9608.09  97.0978
 30.9016  9722.15  98.0228
 30.9436  9604.72  97.1714
 30.9856  9719.67  97.8558
 31.0276  9461.48  96.1931
 31.0696  9455.2  96.7249
 31.1116  9327.87  96.0316
 31.1536  9540.37  96.9947
 31.1956  9466.13  96.7176
 31.2376  9258.51  95.6771
 31.2796  9375.65  95.8102
 31.3216  9503.02  96.382
 31.3636  9538.67  97.267
 31.4056  9390.35  97.8164
 31.4476  9564.45  96.601
 31.4896  9392.99  96.2403
 31.5316  9467.18  96.0119
 31.5736  9744.67  97.239
 31.6156  9678.93  96.9097
 31.6576  9559.9  96.3882
 31.6996  9628.39  96.403
 31.7416  9444.47  96.5806
 31.7836  9508.89  95.902
 31.8256  9573.6  96.4957
 31.8676  9603.96  96.6364
 31.9096  9438.27  96.1739
 31.9516  9230.02  95.2745
 31.9936  9309.88  95.5018
 32.0356  9450.42  96.2741
 32.0776  9542.31  96.6383
 32.1196  9392.29  95.9809
 32.1616  9435.61  95.6406
 32.2036  9453.25  96.2512
 32.2456  9395.62  96.3392
 32.2876  9463.38  96.1729
 32.3296  9285.69  95.2274
 32.3716  9065.88  94.2209
 32.4136  9149.3  94.8625
 32.4556  9215.95  94.573
 32.4976  9155.68  94.1823
 32.5396  9012.4  93.5006
 32.5816  9177.73  94.4858
 32.6236  9248.05  94.9094
 32.6656  9175.05  95.0864
 32.7076  9155.4  94.6338
 32.7496  9018.21  93.5915
 32.7916  9052.73  93.7346
 32.8336  9057.86  93.8509
 32.8756  9232.58  94.4754
 32.9176  8966.62  93.5909
 32.9596  9087.32  94.2827
 33.0016  9055.06  93.8831
 33.0436  9203.58  94.558
 33.0856  9034.99  94.0554
 33.1276  8926.77  93.2183
 33.1696  9058.53  93.7446
 33.2116  9077.69  94.0721
 33.2536  9266.01  95.0307
 33.2956  9115.54  94.3512
 33.3376  9039.29  93.6897
 33.3796  9108  94.2681
 33.4216  9061.22  93.6163
 33.4636  9039.38  93.6493
 33.5056  8855.93  92.94
 33.5476  9006.09  93.6982
 33.5896  9003.25  93.4766
 33.6316  9016.07  93.8631
 33.6736  8799.38  92.9712
 33.7156  8724.96  92.342
 33.7576  9031.39  93.8605
 33.7996  8982.32  93.3669
 33.8416  8824.07  92.7255
 33.8836  8766.65  92.3278
 33.9256  8909.01  93.0002
 33.9676  8913.56  92.9197
 34.0096  8899.39  93.1659
 34.0516  8832.34  92.448
 34.0936  8706.47  91.9677
 34.1356  8931.14  92.9763
 34.1776  8760.68  92.0851
 34.2196  8727.62  92.093
 34.2616  8675.88  91.9545
 34.3036  8781.74  92.7637
 34.3456  8679.42  91.9648
 34.3876  8850.38  92.8432
 34.4296  8809.25  92.3176
 34.4716  8780.46  92.2723
 34.5136  8717  92.1835
 34.5556  8687.76  92.2871
 34.5976  8811  92.7428
 34.6396  8663.75  91.7965
 34.6816  8821.27  92.6049
 34.7236  8613.84  91.2904
 34.7656  8637.27  91.6192
 34.8076  8580.84  91.6612
 34.8496  8567.33  91.5131
 34.8916  8739.78  92.2101
 34.9336  8836.55  92.7035
 34.9756  8699.24  91.8995
 35.0176  8781.92  92.8717
 35.0596  8692.56  92.221
 35.1016  8716.97  92.1039
 35.1436  8819.78  92.3262
 35.1856  8561.57  91.0874
 35.2276  8597.41  91.4517
 35.2696  8690.08  92.1421
 35.3116  8650.69  92.0237
 35.3536  8535.48  91.1178
 35.3956  8591.46  91.1222
 35.4376  8731.6  92.4446
 35.4796  8666.64  92.1438
 35.5216  8602.16  91.7655
 35.5636  8371.82  91.2591
 35.6056  8569.48  91.3503
 35.6476  8567.65  91.2392
 35.6896  8628.78  91.6547
 35.7316  8485.65  90.8696
 35.7736  8604.85  91.6833
 35.8156  8669.85  92.0334
 35.8576  8542.6  91.6076
 35.8996  8663.8  92.2274
 35.9416  8620.75  91.4908
 35.9836  8612.85  91.7984
 36.0256  8822.26  92.9225
 36.0676  8602.08  91.5045
 36.1096  8613.73  91.7215
 36.1516  8642.56  91.7685
 36.1936  8618.51  91.4698
 36.2356  8522.95  91.6296
 36.2776  8480.35  90.8752
 36.3196  8569.33  90.9955
 36.3616  8515.55  90.7968
 36.4036  8427.13  90.4497
 36.4456  8557.69  91.3643
 36.4876  8429.4  90.6194
 36.5296  8441.3  90.7196
 36.5716  8275.98  90.3727
 36.6136  8391.54  90.005
 36.6556  8388.28  90.1909
 36.6976  8085.84  89.0378
 36.7396  8080.71  88.9125
 36.7816  8135.52  89.4201
 36.8236  8212.26  89.755
 36.8656  8202.62  89.7814
 36.9076  8174.82  89.5039
 36.9496  8083.78  88.9985
 36.9916  8107.76  88.7583
 37.0336  8296.16  90.1063
 37.0756  8294.25  89.8835
 37.1176  8113.99  89.1684
 37.1596  8045.72  88.8015
 37.2016  8208.34  89.9178
 37.2436  8078.09  88.5219
 37.2856  8160.77  89.2303
 37.3276  8175.92  88.8399
 37.3696  8176.53  89.5495
 37.4116  8133.81  89.231
 37.4536  8101.63  88.7655
 37.4956  7913.02  88.1227
 37.5376  8267.31  91.4692
 37.5796  8255.77  91.3317
 37.6216  8127.27  88.8889
 37.6636  8313.9  89.789
 37.7056  8177.15  89.243
 37.7476  8336.15  89.6372
 37.7896  8070.22  88.7093
 37.8316  8210.52  89.6286
 37.8736  8258.02  89.4138
 37.9156  8237.87  89.2933
 37.9576  8142.9  88.6934
 37.9996  8084.9  88.088
 38.0416  8121.48  89.0944
 38.0836  8153.21  89.1763
 38.1256  8136.63  89.053
 38.1676  8165.54  89.3382
 38.2096  8237.53  89.3419
 38.2516  8219.71  89.4632
 38.2936  8383.23  90.1343
 38.3356  8020.2  88.1006
 38.3776  8096.94  88.7771
 38.4196  8231.62  89.3583
 38.4616  8187.84  89.3678
 38.5036  8266.54  89.6416
 38.5456  8040.57  89.2325
 38.5876  8105.78  89.7762
 38.6296  8129.58  88.7
 38.6716  8073.24  88.1978
 38.7136  8020.51  87.8418
 38.7556  8123.85  88.933
 38.7976  8075.13  88.5794
 38.8396  8069.98  88.8331
 38.8816  7918.59  87.9828
 38.9236  8080.6  88.6692
 38.9656  8196.38  89.2168
 39.0076  8104.63  88.1127
 39.0496  8148.15  88.9105
 39.0916  8093.09  88.2522
 39.1336  8064.25  88.5062
 39.1756  8103.26  88.7884
 39.2176  8119.46  89.4093
 39.2596  7976.95  88.5449
 39.3016  8044.14  88.4275
 39.3436  8010.48  88.7225
 39.3856  8144.78  88.9108
 39.4276  8185.85  89.6461
 39.4696  8169.39  89.1744
 39.5116  8149.85  89.5923
 39.5536  8170.96  90.1249
 39.5956  8082.15  88.7343
 39.6376  8043.27  88.5307
 39.6796  8102.47  88.5861
 39.7216  8104.06  88.7083
 39.7636  8117.58  89.3415
 39.8056  8086.35  88.9631
 39.8476  7892.97  88.1434
 39.8896  8117.59  89.0116
 39.9316  8010.2  88.6758
 39.9736  8153.16  89.1104
 40.0156  7918  87.5685
 40.0576  8079.63  88.8065
 40.0996  8217.25  88.7294
 40.1416  8020.09  88.4707
 40.1836  8106.73  88.8262
 40.2256  8059.56  88.614
 40.2676  8002.61  88.3971
 40.3096  8079.28  88.7476
 40.3516  8198.66  89.5121
 40.3936  8156.23  88.8261
 40.4356  7977  88.0563
 40.4776  8003.66  88.6014
 40.5196  8090.29  89.1331
 40.5616  8196.42  89.4402
 40.6036  7979.79  88.5031
 40.6456  8020.63  88.3375
 40.6876  8231.25  89.4742
 40.7296  8004.32  88.2599
 40.7716  8139.95  89.2376
 40.8136  7930.25  88.0268
 40.8556  8191.79  89.5986
 40.8976  8136.64  89.2157
 40.9396  8158.31  89.6944
 40.9816  8167.83  89.0279
 41.0236  7993.16  87.8543
 41.0656  8163.54  89.3314
 41.1076  8073  88.6021
 41.1496  8157.07  88.9633
 41.1916  8032.34  88.5923
 41.2336  8147.68  89.2342
 41.2756  8172.77  88.9729
 41.3176  7995.88  88.6108
 41.3596  8107.53  88.9656
 41.4016  7995.98  88.6148
 41.4436  8217.82  89.612
 41.4856  8052.31  88.8717
 41.5276  8078.54  89.0335
 41.5696  8036.58  88.4305
 41.6116  8060.5  88.9469
 41.6536  8049.72  88.7477
 41.6956  8205.81  89.672
 41.7376  8108.49  89.1594
 41.7796  7948.33  88.1603
 41.8216  8159.75  89.5566
 41.8636  8022.24  88.7471
 41.9056  8048.62  88.6812
 41.9476  8015.87  88.6196
 41.9896  8138.52  89.0766
 42.0316  8109.05  89
 42.0736  8112.09  89.1177
 42.1156  8044.54  88.5811
 42.1576  8036.96  88.6271
 42.1996  8113.89  89.2102
 42.2416  8166.06  88.9829
 42.2836  8071.46  88.6702
 42.3256  7977.37  88.2679
 42.3676  8080.83  88.6277
 42.4096  8023.28  88.2933
 42.4516  7978.34  88.1863
 42.4936  8002  88.33
 42.5356  7914.6  87.9791
 42.5776  8005.44  88.4229
 42.6196  7982.12  88.347
 42.6616  7789.85  87.447
 42.7036  7924.4  87.5769
 42.7456  8069.5  88.7408
 42.7876  7917.38  87.9942
 42.8296  7990.95  88.2381
 42.8716  7858.74  87.6663
 42.9136  7922.72  87.8084
 42.9556  7918.81  87.9141
 42.9976  8097.76  88.8705
 43.0396  7849.76  87.2367
 43.0816  7880.19  87.7889
 43.1236  7877.5  87.8257
 43.1656  7962.22  88.1223
 43.2076  7866.84  87.7002
 43.2496  7780.94  87.0366
 43.2916  7840.14  87.7321
 43.3336  7879.57  87.7752
 43.3756  7942.52  87.8849
 43.4176  7877.46  87.6068
 43.4596  7833.57  87.2228
 43.5016  7833.25  87.6234
 43.5436  7861.95  87.6911
 43.5856  7808.13  87.4198
 43.6276  7797.84  87.2516
 43.6696  7867.43  87.8441
 43.7116  7911.1  87.6288
 43.7536  7870.6  87.907
 43.7956  7716.01  88.25
 43.8376  7622.57  86.2446
 43.8796  7703.64  86.7852
 43.9216  7735.32  86.8756
 43.9636  7687.61  86.7242
 44.0056  7727.12  87.1777
 44.0476  7575.82  86.0684
 44.0896  7812.59  87.6313
 44.1316  7794.52  87.0474
 44.1736  7708.02  86.6836
 44.2156  7717.48  86.5956
 44.2576  7721.66  86.9468
 44.2996  7661.94  86.5784
 44.3416  7687.96  86.4855
 44.3836  7598.39  86.3022
 44.4256  7667.05  86.3435
 44.4676  7586.36  86.0394
 44.5096  7661.98  86.6144
 44.5516  7559.35  85.9972
 44.5936  7554.53  85.9228
 44.6356  7598.15  85.9064
 44.6776  7535.05  85.7861
 44.7196  7603.59  86.5687
 44.7616  7715.54  88.5425
 44.8036  7738.87  87.0887
 44.8456  7831.16  87.8134
 44.8876  7732.11  87.1991
 44.9296  7826.17  87.0587
 44.9716  7673.32  86.6457
 45.0136  7784.11  87.2038
 45.0556  7855.7  87.5809
 45.0976  7705.43  86.8937
 45.1396  7656.82  86.3779
 45.1816  7626.66  86.1448
 45.2236  7897.46  87.5676
 45.2656  7581.59  86.2948
 45.3076  7724.24  86.8805
 45.3496  7594.58  86.4626
 45.3916  7521.25  86.3062
 45.4336  7788.12  87.6704
 45.4756  7687.36  86.9521
 45.5176  7795.23  87.1723
 45.5596  7671.05  86.5938
 45.6016  7720.92  87.3089
 45.6436  7628.72  85.9514
 45.6856  7587.57  86.3797
 45.7276  7491.56  87.1498
 45.7696  7562.35  87.2324
 45.8116  7588.43  86.8035
 45.8536  7593.82  86.7367
 45.8956  7705.07  86.7012
 45.9376  7653.46  85.8745
 45.9796  7638.84  86.4811
 46.0216  7722.4  87.2978
 46.0636  7756.59  86.6155
 46.1056  7721.06  86.4163
 46.1476  7687.36  86.8268
 46.1896  7590.46  86.428
 46.2316  7711.64  86.978
 46.2736  7449.47  85.8625
 46.3156  7569.64  86.1343
 46.3576  7593.32  86.4686
 46.3996  7654.29  86.9758
 46.4416  7719.08  86.9169
 46.4836  7554.92  86.3422
 46.5256  7440.16  85.6278
 46.5676  7590.68  86.6066
 46.6096  7776.38  87.5839
 46.6516  7559.63  85.3869
 46.6936  7559.37  85.8953
 46.7356  7721.57  86.9005
 46.7776  7536.06  86.7923
 46.8196  7512.17  86.1743
 46.8616  7440.39  85.7177
 46.9036  7466.22  85.5079
 46.9456  7535.03  85.5453
 46.9876  7545.58  85.6866
 47.0296  7494.66  85.9992
 47.0716  7539.98  86.1742
 47.1136  7589.76  86.1268
 47.1556  7520.43  85.601
 47.1976  7657.08  86.4559
 47.2396  7412.29  85.4626
 47.2816  7466.79  85.4737
 47.3236  7530.29  86.221
 47.3656  7550.48  86.2538
 47.4076  7506.8  85.8113
 47.4496  7497.26  85.8522
 47.4916  7527.99  86.2135
 47.5336  7558.08  86.2014
 47.5756  7527.96  86.1533
 47.6176  7545.34  86.1466
 47.6596  7481.38  85.4876
 47.7016  7632.29  86.1618
 47.7436  7545.47  86.0078
 47.7856  7637.89  86.5681
 47.8276  7454.16  85.5697
 47.8696  7509.42  85.9761
 47.9116  7588  86.1281
 47.9536  7490.36  85.5139
 47.9956  7536.02  86.4988
 48.0376  7353.42  85.2111
 48.0796  7547.93  86.4679
 48.1216  7553.14  86.3084
 48.1636  7535.27  85.7697
 48.2056  7551.29  86.1351
 48.2476  7536.43  86.3534
 48.2896  7486.51  85.986
 48.3316  7604.88  86.6043
 48.3736  7482.25  85.9287
 48.4156  7511.77  86.0558
 48.4576  7491.48  86.1276
 48.4996  7670.69  86.5873
 48.5416  7652.04  86.8204
 48.5836  7441.32  85.2884
 48.6256  7568.85  86.2273
 48.6676  7515.47  86.4445
 48.7096  7517.07  85.7054
 48.7516  7542.21  85.999
 48.7936  7378.06  85.2264
 48.8356  7506.86  85.9197
 48.8776  7518.24  86.5669
 48.9196  7662.54  86.7458
 48.9616  7532.8  86.4024
 49.0036  7441.78  86.2321
 49.0456  7501.33  86.556
 49.0876  7519.86  86.1831
 49.1296  7407.04  85.7004
 49.1716  7402.93  85.7704
 49.2136  7430.23  85.6343
 49.2556  7529.74  86.3396
 49.2976  7550.08  86.4202
 49.3396  7459  85.9614
 49.3816  7441.05  85.417
 49.4236  7601.5  86.616
 49.4656  7420.83  85.5658
 49.5076  7497.11  85.7875
 49.5496  7408.94  85.348
 49.5916  7536.17  85.9948
 49.6336  7409.59  85.4709
 49.6756  7453.19  85.9576
 49.7176  7432.86  85.7872
 49.7596  7412.7  85.4339
 49.8016  7485.65  85.7619
 49.8436  7466.38  85.9662
 49.8856  7331.32  85.1889
 49.9276  7321.77  85.2264
 49.9696  7423.91  85.796
 50.0116  7401.13  85.8121
 50.0536  7381.21  85.6362
 50.0956  7242.3  84.8948
 50.1376  7410.95  85.5771
 50.1796  7328.38  85.3768
 50.2216  7370.23  85.6113
 50.2636  7272.41  84.6545
 50.3056  7290.27  84.9322
 50.3476  7259.89  84.7768
 50.3896  7308.16  85.0343
 50.4316  7400.52  85.3949
 50.4736  7255.19  84.779
 50.5156  7384.82  85.5263
 50.5576  7406.68  85.4027
 50.5996  7319.79  85.3094
 50.6416  7250.93  84.708
 50.6836  7368.72  85.4586
 50.7256  7328.96  85.1463
 50.7676  7393.49  85.8513
 50.8096  7276.64  84.6885
 50.8516  7367.86  85.6601
 50.8936  7233.74  84.6491
 50.9356  7380.09  85.6126
 50.9776  7242.56  84.9716
 51.0196  7156.28  84.594
 51.0616  7242.91  84.4051
 51.1036  7336.88  85.3246
 51.1456  7318.61  85.1233
 51.1876  7260.2  84.1088
 51.2296  7195.01  84.5014
 51.2716  7198.82  84.1064
 51.3136  7042.5  83.6484
 51.3556  7116.27  83.7026
 51.3976  7109.34  83.8117
 51.4396  7023.66  83.6242
 51.4816  7051.3  83.6406
 51.5236  7025.41  83.5914
 51.5656  6951.63  82.7272
 51.6076  7076.62  83.5488
 51.6496  7057.48  83.635
 51.6916  7118.63  84.3591
 51.7336  7045.66  84.0242
 51.7756  7131.86  84.2088
 51.8176  6966.08  83.3487
 51.8596  7005.12  83.5961
 51.9016  7163.53  84.132
 51.9436  7122.88  85.4069
 51.9856  7161.08  86.0694
 52.0276  7234.88  84.9569
 52.0696  7203.19  84.8471
 52.1116  7193.1  84.9103
 52.1536  7186.4  84.7534
 52.1956  7156.07  84.027
 52.2376  7274.34  84.8888
 52.2796  7240.62  84.5092
 52.3216  6995.74  83.7652
 52.3636  7148.11  84.2162
 52.4056  7164.77  84.1843
 52.4476  7033.1  83.7744
 52.4896  7089.69  84.168
 52.5316  7177.78  84.7352
 52.5736  7002.92  83.415
 52.6156  7211.48  85.0573
 52.6576  7078.38  83.684
 52.6996  6857.29  83.3735
 52.7416  7146.67  85.0334
 52.7836  7001.36  83.9813
 52.8256  7082.25  83.6569
 52.8676  6890.68  83.0987
 52.9096  7061.36  84.2001
 52.9516  7057.27  84.5656
 52.9936  7064.79  84.9877
 53.0356  7028.61  83.7478
 53.0776  7125.92  84.6025
 53.1196  7052.55  84.2948
 53.1616  6983.07  83.9341
 53.2036  7018.27  84.1012
 53.2456  6976.28  83.9585
 53.2876  6991.44  83.7291
 53.3296  7146.86  84.9988
 53.3716  7187.34  84.9766
 53.4136  7086.07  84.5355
 53.4556  6939.7  83.6837
 53.4976  7018.09  83.9944
 53.5396  6914.03  83.7667
 53.5816  7061.64  84.2778
 53.6236  6987.8  84.1334
 53.6656  7142.75  84.7041
 53.7076  7057.71  84.1848
 53.7496  7077.65  84.4212
 53.7916  7034.31  84.2987
 53.8336  7047.93  84.2651
 53.8756  6935.88  84.1602
 53.9176  6979.01  83.7451
 53.9596  6663.76  82.6179
 54.0016  6759.19  82.5079
 54.0436  6741.33  82.642
 54.0856  6868.52  82.8291
 54.1276  6943.24  83.4784
 54.1696  6827.76  82.9429
 54.2116  6874.61  82.975
 54.2536  6752.22  82.0375
 54.2956  6870.49  82.7441
 54.3376  6752.79  82.6056
 54.3796  6631.54  81.7369
 54.4216  6710.75  82.1312
 54.4636  6708.5  82.2966
 54.5056  6748.72  82.2838
 54.5476  6622.27  81.8557
 54.5896  6760.87  82.5406
 54.6316  6827.54  82.7721
 54.6736  6699.78  82.0958
 54.7156  6699.85  82.1287
 54.7576  6577.67  81.3369
 54.7996  6602.31  81.6443
 54.8416  6692.48  82.18
 54.8836  6604.04  81.8196
 54.9256  6675.59  82.0153
 54.9676  6612.24  81.492
 55.0096  6690.51  82.0145
 55.0516  6566.14  81.4845
 55.0936  6671.96  81.7876
 55.1356  6567.66  81.1773
 55.1776  6772.98  82.6958
 55.2196  6604.16  81.5108
 55.2616  6809.16  82.9174
 55.3036  6602.47  81.8303
 55.3456  6509.67  81.4004
 55.3876  6516.13  81.1493
 55.4296  6428.39  80.6472
 55.4716  6633.16  81.9122
 55.5136  6472.39  80.6662
 55.5556  6757.32  82.4838
 55.5976  6556.59  81.3322
 55.6396  6639.28  81.7884
 55.6816  6578.79  81.2896
 55.7236  6463.91  80.6318
 55.7656  6626.01  81.3153
 55.8076  6545.56  80.8583
 55.8496  6561.05  81.2625
 55.8916  6464.2  80.8812
 55.9336  6674.74  82.0097
 55.9756  6588.45  81.348
 56.0176  6550.03  81.2715
 56.0596  6359.92  80.0673
 56.1016  6391.95  80.2885
 56.1436  6462.15  80.9933
 56.1856  6375.49  80.2005
 56.2276  6632.67  81.8341
 56.2696  6499.32  81.0321
 56.3116  6559.48  81.7353
 56.3536  6422.19  80.5605
 56.3956  6517.62  81.1366
 56.4376  6424.43  80.5997
 56.4796  6421.75  80.3898
 56.5216  6452.6  80.9708
 56.5636  6370.14  80.0133
 56.6056  6532.7  81.2731
 56.6476  6402.96  80.0602
 56.6896  6666.92  82.1662
 56.7316  6409.52  80.4935
 56.7736  6282.99  79.6766
 56.8156  6400.78  80.443
 56.8576  6278.74  79.6246
 56.8996  6483.48  80.8194
 56.9416  6383.89  80.5204
 56.9836  6559.57  81.1212
 57.0256  6251.8  79.5136
 57.0676  6513.33  81.2577
 57.1096  6416.74  80.4525
 57.1516  6316.22  79.8762
 57.1936  6401.83  80.1565
 57.2356  6319.58  79.9739
 57.2776  6356.33  80.1892
 57.3196  6366.01  80.3936
 57.3616  6315.55  79.7656
 57.4036  6407.43  80.3983
 57.4456  6460.29  80.7092
 57.4876  6382.78  80.0855
 57.5296  6320.79  80.0364
 57.5716  6277.38  79.7633
 57.6136  6298.39  79.7178
 57.6556  6344.44  80.139
 57.6976  6332.6  79.8073
 57.7396  6217.4  79.5105
 57.7816  6244.22  80.0706
 57.8236  6208.86  79.6827
 57.8656  6316.17  79.9783
 57.9076  6363.76  80.2919
 57.9496  6305.24  80.29
 57.9916  6339.24  79.9949
 58.0336  6336.35  80.2818
 58.0756  6324.78  79.8289
 58.1176  6261.23  79.4217
 58.1596  6186.63  79.5298
 58.2016  6114.52  78.2908
 58.2436  6067.23  78.3854
 58.2856  6099.25  78.5272
 58.3276  6071.79  78.7201
 58.3696  6042.35  78.2798
 58.4116  6032.92  78.0849
 58.4536  6096.2  78.3747
 58.4956  6023.44  78.0904
 58.5376  6055.33  77.9893
 58.5796  6060.01  78.3254
 58.6216  6013.74  77.8407
 58.6636  5995.52  77.9373
 58.7056  6124.45  78.6229
 58.7476  5972.89  78.0856
 58.7896  6058.49  78.286
 58.8316  6108.2  78.7104
 58.8736  6182.26  79.0899
 58.9156  6036.39  78.1877
 58.9576  6119.34  79.0556
 58.9996  6092.33  78.1215
 59.0416  6122.6  78.6872
 59.0836  6171.02  78.9062
 59.1256  5990.91  78.4496
 59.1676  6021.17  78.9599
 59.2096  6041.9  78.4094
 59.2516  6004.66  77.7496
 59.2936  6223.44  79.4864
 59.3356  6175.71  79.0573
 59.3776  6030.02  78.2881
 59.4196  5994.65  77.9927
 59.4616  6023.96  78.0449
 59.5036  5912.69  77.356
 59.5456  6094.89  78.2306
 59.5876  6073.02  78.2817
 59.6296  5905.91  77.2656
 59.6716  5897.15  77.2656
 59.7136  6016.55  78.0321
 59.7556  5974.91  77.8974
 59.7976  6109.64  78.5114
 59.8396  5904.52  77.0776
 59.8816  6003.96  78.2674
 59.9236  6118.38  78.6514
 59.9656  5996.1  78.1205
 60.0076  6015.78  77.6079
 60.0496  6062.87  77.9359
 60.0916  6093.95  78.0321
 60.1336  6019.22  78.6577
 60.1756  5899.87  79.0447
 60.1996  6083.78  82.5121