File: docs/examples/XRD/IS17_D/Data/IS17_D/17_Da_f00038.xye
# /beamlines/bl04/projects/cycle2025-II/20250340211-lsimonelli/DATA/IS17_D/17_Da_f00038.xye : mythproc.py merge -s 0.006 -l 0.5 -f /beamlines/bl04/inhouse/ff/FlatField/ff_20Nov2024rod8mm60s_17keV.raw -b True -c true -o xye /beamlines/bl04/projects/cycle2025-II/20250340211-lsimonelli/DATA/IS17_D/17_Da_00038.dat
# IsMon = [6765560, 6763354, 6767707]  IsPos = [-1.5000, -2.4885, -3.4989]
# Wave = 0.4962  CalPath /beamlines/bl04/projects/cycle2025-II/20250340211-lsimonelli/DATA/Align/Si_Pos1_25keV_f00001.cal
# Date = 2025-09-24_04:08:41 Dt = 4.8000  Bin = 0.0060  <imon> = 6765540 +/- 1777 (Min/Max) 6763354 / 6767707
# icurr 250.5821  mocoIn 1.7094E-05  mocoOut 0.8025  i15 7.07967e+06  imon 6.76554e+06  i7 3.6667  iEMpd_timer 4.8000  iEMpd_1 3.4861E-08  iEMpd_2 7.7061E-08  iEMpd_3 1.6264E-08  iEMpd_4 4.8820E-08  iEMhp_timer 4.8000  iEMhp_1 4.8965E-06  iEMhp_2 -2.5102E-08  iEMhp_3 -2.3680E-08  iEMhp_4 -2.2372E-08
#      9776
 1.5856  40566.9  206.818
 1.6276  47688.3  220.39
 1.6696  54266.6  234.271
 1.7116  62917.2  252.746
 1.7536  72759.5  270.639
 1.7956  77379.2  279.796
 1.8376  73340.8  272.829
 1.8796  61645.8  248.297
 1.9216  49862  224.193
 1.9636  42073.6  205.616
 2.0056  37589.5  193.108
 2.0476  35011.2  188.411
 2.0896  33817.8  184.086
 2.1316  32590.6  179.847
 2.1736  30983.7  176.748
 2.2156  32156.3  178.616
 2.2576  30363.3  174.186
 2.2996  29450.8  172.18
 2.3416  29580.2  171.181
 2.3836  29207.2  170.202
 2.4256  28072.2  167.406
 2.4676  27723  166.126
 2.5096  27291.3  164.881
 2.5516  26774  167.1
 2.5936  26900.6  164.122
 2.6356  26402.9  163.276
 2.6776  26271.4  161.769
 2.7196  25914.9  161.182
 2.7616  25808.5  160.629
 2.8036  25565.7  160.046
 2.8456  25393.8  160.118
 2.8876  25001.8  158.728
 2.9296  24660.3  157.789
 2.9716  24365.7  156.341
 3.0136  24146.8  155.702
 3.0556  24375.5  156.837
 3.0976  23853.5  154.077
 3.1396  23826.7  154.724
 3.1816  23543.5  153.727
 3.2236  23280.2  152.866
 3.2656  23351.7  152.15
 3.3076  23086.7  152.718
 3.3496  23434.6  153.056
 3.3916  23721.2  153.569
 3.4336  24280.2  155.944
 3.4756  24482.1  156.51
 3.5176  25606.9  159.873
 3.5596  25357  162.052
 3.6016  25438.8  159.385
 3.6436  24569.9  157.74
 3.6856  24252.8  155.021
 3.7276  23410.1  153.392
 3.7696  23074.7  152.264
 3.8116  22556.8  150.641
 3.8536  22695.9  151.032
 3.8956  22826.4  151.301
 3.9376  22500.1  150.463
 3.9796  22593.8  150.289
 4.0216  22518.5  149.09
 4.0636  22565.2  150.705
 4.1056  22465.5  150.02
 4.1476  22627.1  150.865
 4.1896  23053.7  152.142
 4.2316  23112.5  152.155
 4.2736  23467.7  153.118
 4.3156  23723.5  154.17
 4.3576  24299.6  155.967
 4.3996  24940.4  158.271
 4.4416  25419.5  159.363
 4.4836  25738.8  160.521
 4.5256  26257.7  162.73
 4.5676  25949.7  162.025
 4.6096  26711.5  163.409
 4.6516  27007.1  163.659
 4.6936  27190.3  165.017
 4.7356  27307  165.208
 4.7776  27512  165.659
 4.8196  26912.8  164.485
 4.8616  26577.8  163.08
 4.9036  26368  162.046
 4.9456  26071.5  161.779
 4.9876  25682.2  160.468
 5.0296  26008.1  161.292
 5.0716  25934.8  161.705
 5.1136  26008.7  161.789
 5.1556  26242.6  161.982
 5.1976  26509.1  162.794
 5.2396  26512.5  162.507
 5.2816  26642  163.351
 5.3236  26885.2  163.811
 5.3656  26292.3  162.905
 5.4076  26135.1  162.571
 5.4496  26221.4  162.33
 5.4916  26279.5  162.267
 5.5336  26215.2  162.159
 5.5756  25916.5  161.178
 5.6176  26050.9  161.037
 5.6596  26382.2  162.874
 5.7016  26587.8  162.928
 5.7436  26775.9  163.391
 5.7856  26495.3  162.972
 5.8276  26962.9  164.13
 5.8696  27007.6  164.325
 5.9116  27055.8  165.179
 5.9536  27067.4  164.969
 5.9956  27438.7  165.466
 6.0376  27320.3  165.741
 6.0796  27791.9  166.994
 6.1216  27832  167.322
 6.1636  27983.7  166.846
 6.2056  27979  167.494
 6.2476  28130.6  167.637
 6.2896  28353.3  168.165
 6.3316  28204.5  167.891
 6.3736  28422.8  168.44
 6.4156  28238.3  167.847
 6.4576  28728.7  168.849
 6.4996  28824.3  169.607
 6.5416  28864.4  169.859
 6.5836  29131  170.729
 6.6256  29038  170.163
 6.6676  29470.3  170.998
 6.7096  29320.2  171.406
 6.7516  29629.5  171.965
 6.7936  29891.4  172.15
 6.8356  29853.5  172.126
 6.8776  30278.7  174.145
 6.9196  30429.9  174.976
 6.9616  30788.2  175.421
 7.0036  31249.6  176.413
 7.0456  31133.5  175.389
 7.0876  31242.6  177.287
 7.1296  31149.9  176.252
 7.1716  31172.4  175.849
 7.2136  30693.7  174.289
 7.2556  30976.1  175.246
 7.2976  30970.6  175.724
 7.3396  30881.6  175.685
 7.3816  30845  175.791
 7.4236  31116.1  175.856
 7.4656  31302.4  175.878
 7.5076  31272.7  175.925
 7.5496  31391.2  176.783
 7.5916  31464.7  177.028
 7.6336  31857.4  178.109
 7.6756  32001.6  178.282
 7.7176  32025.5  178.657
 7.7596  32148  180.223
 7.8016  32496  183.34
 7.8436  32927.3  181.42
 7.8856  33432.8  182.282
 7.9276  33797.5  183.655
 7.9696  34117.1  184.838
 8.0116  35237.9  186.394
 8.0536  35204.4  186.558
 8.0956  35091.3  187.433
 8.1376  35567.2  188.169
 8.1796  35425.1  188.337
 8.2216  36542  189.732
 8.2636  36379.4  189.839
 8.3056  36516.4  190.954
 8.3476  37269.4  192.254
 8.3896  36759.1  191.01
 8.4316  36530.2  190.58
 8.4736  36980.2  191.215
 8.5156  36545.8  190.367
 8.5576  36091.7  190.153
 8.5996  36324.3  189.639
 8.6416  36064.9  190.211
 8.6836  35854.4  189.465
 8.7256  36464.4  190.544
 8.7676  35761.7  191.537
 8.8096  35811.3  189.006
 8.8516  35520.7  187.911
 8.8936  35191.6  186.879
 8.9356  34851.1  186.309
 8.9776  35375.9  187.803
 9.0196  34851.2  186.095
 9.0616  35194.1  186.557
 9.1036  34688.5  186.298
 9.1456  34788.9  185.93
 9.1876  34468.9  185.027
 9.2296  34897  185.583
 9.2716  34164.4  183.691
 9.3136  34151.3  183.637
 9.3556  34220.2  183.809
 9.3976  32764  180.375
 9.4396  33558.5  182.444
 9.4816  32872.7  180.435
 9.5236  32905.1  180.433
 9.5656  32778  180.399
 9.6076  32504.7  180.164
 9.6496  32413.6  179.838
 9.6916  32537  180.148
 9.7336  32166.6  178.908
 9.7756  32392.7  180.733
 9.8176  31494.6  177.782
 9.8596  31511.5  176.314
 9.9016  31328.4  175.795
 9.9436  31113  174.948
 9.9856  30595.1  173.855
 10.0276  30257.1  173.978
 10.0696  30536.8  173.839
 10.1116  29810.1  172.014
 10.1536  29252  170.073
 10.1956  29217.3  170.067
 10.2376  28787.5  168.327
 10.2796  29041.4  169.194
 10.3216  28932.9  169
 10.3636  28585.5  168.151
 10.4056  28182.4  167.358
 10.4476  27830.3  165.938
 10.4896  28048.8  166.055
 10.5316  27591.4  165.063
 10.5736  27403.5  165.222
 10.6156  26995.6  163.752
 10.6576  27037  162.491
 10.6996  26836.2  162.544
 10.7416  26480.4  161.681
 10.7836  26710.7  163.056
 10.8256  26505.2  162.835
 10.8676  26367.6  161.972
 10.9096  25989.8  160.833
 10.9516  25783  159.155
 10.9936  25965.6  159.905
 11.0356  25755.7  159.884
 11.0776  25520.5  158.484
 11.1196  25193.3  158.189
 11.1616  25008.2  157.316
 11.2036  24969  157.044
 11.2456  24920.4  157.583
 11.2876  24829.1  157.02
 11.3296  24531  155.974
 11.3716  24995  157.176
 11.4136  25007.8  158.064
 11.4556  24879.4  157.329
 11.4976  25189.1  157.302
 11.5396  25512.8  158.485
 11.5816  25855.4  159.978
 11.6236  26112.4  161.224
 11.6656  25590.3  158.552
 11.7076  24973.3  157.457
 11.7496  24444.5  158.845
 11.7916  24394.8  154.901
 11.8336  24063.8  154.742
 11.8756  23824.9  153.485
 11.9176  24111.7  154.075
 11.9596  23592.2  152.585
 12.0016  23782  153.978
 12.0436  23751.2  153.31
 12.0856  23247.5  152.191
 12.1276  23599.4  153.139
 12.1696  23286.5  151.392
 12.2116  23692.3  152.705
 12.2536  23112.5  151.601
 12.2956  23219.2  151.217
 12.3376  23049.3  150.977
 12.3796  23097.8  151.59
 12.4216  23113.8  150.872
 12.4636  22953.8  151.244
 12.5056  23235.3  151.524
 12.5476  23129.9  150.652
 12.5896  23198.6  151.493
 12.6316  22772.7  150.244
 12.6736  22882.1  151.084
 12.7156  22901.6  151.013
 12.7576  23109.7  151.929
 12.7996  23050.7  150.418
 12.8416  23028.8  151.377
 12.8836  23387.7  152.383
 12.9256  23604.9  152.118
 12.9676  23646.9  152.674
 13.0096  23452.7  153.115
 13.0516  23588.1  152.621
 13.0936  23597.6  152.763
 13.1356  24249.6  154.135
 13.1776  23792.9  153.646
 13.2196  23838.8  153.46
 13.2616  23850.3  153.806
 13.3036  23760.8  153.649
 13.3456  23885.5  154.214
 13.3876  23830.5  153.364
 13.4296  23679.5  153.026
 13.4716  24028.6  153.762
 13.5136  23913.4  153.54
 13.5556  24001.4  154.15
 13.5976  23923.5  154.324
 13.6396  24079.6  154.205
 13.6816  23479.3  152.626
 13.7236  24467.5  155.559
 13.7656  23448.8  152.83
 13.8076  23748  152.604
 13.8496  23520.9  152.647
 13.8916  23488.8  153.346
 13.9336  23540.5  152.755
 13.9756  23358.4  151.524
 14.0176  23002.1  150.945
 14.0596  23527.7  152.707
 14.1016  22867.3  150.941
 14.1436  22744.8  149.687
 14.1856  22662.1  149.704
 14.2276  22302.8  148.93
 14.2696  22567.6  149.709
 14.3116  22398.1  149.048
 14.3536  21960.7  147.756
 14.3956  21985.9  147.586
 14.4376  22178.3  148.002
 14.4796  21944.1  147.215
 14.5216  21678.6  147.102
 14.5636  21468.5  145.965
 14.6056  21600.3  145.99
 14.6476  21501.6  144.899
 14.6896  21164.2  144.286
 14.7316  20886.2  144.348
 14.7736  20905.5  143.582
 14.8156  20596  142.543
 14.8576  20440.4  141.86
 14.8996  20035.2  141.631
 14.9416  19852  140.984
 14.9836  20013.2  141.511
 15.0256  19708.7  139.378
 15.0676  19661.9  139.442
 15.1096  19603.5  139.059
 15.1516  19182.1  138.109
 15.1936  19118.7  137.313
 15.2356  18844.1  136.597
 15.2776  19017.6  137.222
 15.3196  18546.7  136.096
 15.3616  18645.7  136.208
 15.4036  18273.2  134.708
 15.4456  18752.1  136.119
 15.4876  18303.1  134.164
 15.5296  18164.5  133.941
 15.5716  18044.3  133.096
 15.6136  17846.4  132.695
 15.6556  17823.1  132.212
 15.6976  17725.9  131.566
 15.7396  17540.3  131.469
 15.7816  17641.9  131.371
 15.8236  17365.8  130.974
 15.8656  17253.5  130.394
 15.9076  17165.3  129.892
 15.9496  17006.6  132.027
 15.9916  17113  132.871
 16.0336  16817.9  128.658
 16.0756  16999.1  129.655
 16.1176  16825.5  128.903
 16.1596  16623.9  129.446
 16.2016  16501.1  127.733
 16.2436  16389.9  127.68
 16.2856  16221.5  126.576
 16.3276  15949.5  125.921
 16.3696  16407.8  127.541
 16.4116  15927.8  126.116
 16.4536  16144.5  126.754
 16.4956  15931.7  125.663
 16.5376  15970.1  125.988
 16.5796  15914.5  125.135
 16.6216  15947.2  125.572
 16.6636  15902.8  125.547
 16.7056  15871.1  125.293
 16.7476  15984  125.271
 16.7896  15804.9  125.298
 16.8316  15927.3  125.749
 16.8736  15727.8  125.222
 16.9156  15686.5  125.385
 16.9576  15684.8  126.179
 16.9996  15817.9  127.191
 17.0416  15976.6  126.205
 17.0836  15647.2  124.654
 17.1256  15577.9  124.393
 17.1676  15622.4  124.569
 17.2096  15457.9  123.785
 17.2516  15339.1  123.379
 17.2936  15245.7  123.044
 17.3356  14948.3  121.835
 17.3776  15018.7  122.306
 17.4196  15118  122.414
 17.4616  14801.9  121.044
 17.5036  14689.8  120.947
 17.5456  14534  120.926
 17.5876  14510.2  119.897
 17.6296  14705.7  120.504
 17.6716  14563.7  120.5
 17.7136  14178.4  119.03
 17.7556  14289.5  119.783
 17.7976  14141.4  118.786
 17.8396  14177.8  118.575
 17.8816  14249.1  119.404
 17.9236  14101  118.6
 17.9656  14200  119.693
 18.0076  14128.8  118.812
 18.0496  14064.3  117.705
 18.0916  13898.7  117.453
 18.1336  14050.6  118.272
 18.1756  14267.6  118.7
 18.2176  13980.3  117.739
 18.2596  13827.3  116.841
 18.3016  13981.3  117.738
 18.3436  14018.7  118.128
 18.3856  13808.3  117.317
 18.4276  13930.2  117.336
 18.4696  13716.4  116.521
 18.5116  13882.9  117.512
 18.5536  13951.4  118.15
 18.5956  13639.3  116.389
 18.6376  13658.8  116.873
 18.6796  13523.8  115.634
 18.7216  13779.7  117.269
 18.7636  13428.5  115.677
 18.8056  13495.9  115.915
 18.8476  13464  116.384
 18.8896  13632.7  116.46
 18.9316  13646.6  116.348
 18.9736  13461.7  115.419
 19.0156  13411  115.597
 19.0576  13325  114.123
 19.0996  13574.4  115.886
 19.1416  13369.5  115.382
 19.1836  13542.1  115.739
 19.2256  13297.4  114.985
 19.2676  13535.3  116.015
 19.3096  13572.4  116.412
 19.3516  13419.1  115.536
 19.3936  13324.8  115.21
 19.4356  13348.1  115.18
 19.4776  13279.3  114.976
 19.5196  13346.5  115.122
 19.5616  13143.3  114.495
 19.6036  13353.7  114.91
 19.6456  13357.5  115.051
 19.6876  13562  115.579
 19.7296  13375.1  115.221
 19.7716  13333  115.058
 19.8136  13443  115.879
 19.8556  13718.6  116.547
 19.8976  13579.3  116.018
 19.9396  13587.8  115.637
 19.9816  13853.8  116.999
 20.0236  13958.3  117.661
 20.0656  14197.4  118.656
 20.1076  14231.5  119.262
 20.1496  14441.1  120.149
 20.1916  14318.6  119.103
 20.2336  14063  118.011
 20.2756  13774.7  117.224
 20.3176  13499.3  115.795
 20.3596  13510.3  115.818
 20.4016  13398.2  115.144
 20.4436  13304.8  115.183
 20.4856  13085.9  114.13
 20.5276  13068.7  114.515
 20.5696  13194.6  114.632
 20.6116  13041.2  114.13
 20.6536  13159  114.176
 20.6956  12931.6  113.29
 20.7376  12835.1  113.094
 20.7796  12698.4  112.183
 20.8216  12961.9  113.053
 20.8636  12772.8  112.584
 20.9056  12734.1  112.367
 20.9476  12648.7  111.831
 20.9896  12957.5  113.052
 21.0316  12962.1  112.976
 21.0736  12696.5  112.321
 21.1156  12716.9  112.567
 21.1576  12745.9  112.743
 21.1996  12643.8  112.274
 21.2416  12549  111.684
 21.2836  12682.8  112.243
 21.3256  12590  111.956
 21.3676  12664.1  111.795
 21.4096  12647.3  112.088
 21.4516  12568  111.561
 21.4936  12363.9  110.905
 21.5356  12479.9  111.363
 21.5776  12633  111.876
 21.6196  12289.2  110.368
 21.6616  12291.4  110.476
 21.7036  12410  110.788
 21.7456  12490.7  111.226
 21.7876  12330.7  110.265
 21.8296  12275.2  109.877
 21.8716  12375.3  110.555
 21.9136  12563.8  111.591
 21.9556  12304.2  110.109
 21.9976  12156.4  109.462
 22.0396  12253.3  110.133
 22.0816  12324.5  110.994
 22.1236  12447.5  111.013
 22.1656  12296.5  110.796
 22.2076  12448.5  110.623
 22.2496  12198.1  109.535
 22.2916  12458.4  110.567
 22.3336  12308.9  110.602
 22.3756  12214.8  109.927
 22.4176  12136  109.428
 22.4596  12178.3  110.195
 22.5016  12283.5  110.166
 22.5436  12348.2  110.462
 22.5856  12221.4  110.02
 22.6276  12082.8  109.535
 22.6696  12299.7  110.85
 22.7116  12213.8  109.994
 22.7536  12449.9  111.023
 22.7956  12386.6  110.081
 22.8376  12226.3  109.872
 22.8796  12314.5  110.076
 22.9216  12325.6  110.66
 22.9636  12281.9  109.633
 23.0056  12310.8  109.895
 23.0476  12434.1  111.012
 23.0896  12607  111.159
 23.1316  12388.4  110.624
 23.1736  12143.7  112.424
 23.2156  12301.8  110.544
 23.2576  12333.1  110.812
 23.2996  12445  111.102
 23.3416  12353  111.206
 23.3836  12461.9  110.939
 23.4256  12351  110.553
 23.4676  12272  109.905
 23.5096  12149.3  110.016
 23.5516  12235.9  109.7
 23.5936  12345.3  111.083
 23.6356  12509.2  111.486
 23.6776  12307  110.794
 23.7196  12084.5  109.581
 23.7616  12264.5  110.099
 23.8036  12357.4  110.56
 23.8456  12250  109.504
 23.8876  11992.9  108.835
 23.9296  11999  109.35
 23.9716  11980.8  108.473
 24.0136  12172.2  110.227
 24.0556  11984.7  109.111
 24.0976  12011  109.049
 24.1396  11843.7  110.896
 24.1816  11966.3  110.242
 24.2236  11799.1  108.76
 24.2656  11697.8  107.773
 24.3076  11654.7  107.812
 24.3496  11675.8  107.817
 24.3916  11603.4  107.528
 24.4336  11501  107.257
 24.4756  11540.2  107.313
 24.5176  11511.2  106.829
 24.5596  11310  106.201
 24.6016  11238.5  105.96
 24.6436  11294.5  105.718
 24.6856  11216.6  105.126
 24.7276  11366.8  106.145
 24.7696  11209.1  105.513
 24.8116  11255.5  105.915
 24.8536  11166.4  105.482
 24.8956  11047  104.663
 24.9376  10878.7  104.031
 24.9796  10972.6  104.597
 25.0216  10779.8  103.776
 25.0636  11023.2  104.607
 25.1056  10868.9  104.292
 25.1476  10946.4  106.564
 25.1896  11008.6  105.369
 25.2316  10985.4  104.522
 25.2736  10856.7  103.579
 25.3156  10808.6  103.42
 25.3576  10781.6  103.711
 25.3996  10915.5  104.331
 25.4416  10796  103.745
 25.4836  10704  103.815
 25.5256  10748.7  103.406
 25.5676  10817.2  103.473
 25.6096  10653.1  103.242
 25.6516  10891.7  103.902
 25.6936  10667.1  103.119
 25.7356  10676.2  103.305
 25.7776  10785.9  103.517
 25.8196  10564.5  102.603
 25.8616  10669.1  103.034
 25.9036  10725.7  102.787
 25.9456  10593.6  102.744
 25.9876  10751.3  103.425
 26.0296  10622.5  102.546
 26.0716  10564.1  102.593
 26.1136  10583.8  102.635
 26.1556  10704.2  102.599
 26.1976  10491.4  102.486
 26.2396  10564.1  102.256
 26.2816  10519.1  102.387
 26.3236  10610.5  102.998
 26.3656  10505.9  102.207
 26.4076  10679  103.245
 26.4496  10927.7  103.938
 26.4916  10682.2  102.778
 26.5336  10665.5  103.094
 26.5756  10904.7  104.013
 26.6176  10540.9  102.326
 26.6596  10452.4  102.196
 26.7016  10419.7  101.803
 26.7436  10343.9  101.559
 26.7856  10206.4  100.864
 26.8276  10319.6  101.376
 26.8696  10399.4  101.638
 26.9116  10432.7  101.751
 26.9536  10209  100.691
 26.9956  10295.1  101.152
 27.0376  10168.9  100.737
 27.0796  10263.6  101.026
 27.1216  10247.8  100.943
 27.1636  10078  100.26
 27.2056  10177.9  100.646
 27.2476  10252.3  101.014
 27.2896  10180.3  100.77
 27.3316  10008.2  99.6343
 27.3736  10093.2  100.319
 27.4156  9948.61  99.4356
 27.4576  10019.5  100.021
 27.4996  9976.61  99.4106
 27.5416  9950.94  99.595
 27.5836  9985.72  99.582
 27.6256  10306.8  101.347
 27.6676  10044.1  100.061
 27.7096  10028.1  99.8461
 27.7516  9809.76  98.8233
 27.7936  9950.74  99.7801
 27.8356  10008.6  99.6859
 27.8776  9826.9  98.8268
 27.9196  9803.68  98.5658
 27.9616  9792.69  98.7006
 28.0036  9825.34  98.8331
 28.0456  9908.81  99.3803
 28.0876  9771.43  98.7822
 28.1296  9795.05  98.7459
 28.1716  9598.57  97.7543
 28.2136  9822.1  98.8489
 28.2556  9638.16  98.0372
 28.2976  9518.81  97.4203
 28.3396  9646.64  97.8712
 28.3816  9708.59  98.1681
 28.4236  9647.02  98.0124
 28.4656  9627.3  97.9449
 28.5076  9549.65  97.1909
 28.5496  9663.74  98.0303
 28.5916  9641.61  97.7294
 28.6336  9526.63  97.4774
 28.6756  9646.48  97.3037
 28.7176  9540.07  97.2987
 28.7596  9523.7  97.1184
 28.8016  9539.2  97.2326
 28.8436  9418.77  96.8538
 28.8856  9564.27  97.4503
 28.9276  9564.31  97.6909
 28.9696  9497.92  97.0194
 29.0116  9536.15  97.3898
 29.0536  9367.97  96.7184
 29.0956  9484.23  97.0499
 29.1376  9440.61  96.7882
 29.1796  9319.59  96.2111
 29.2216  9402.04  96.4791
 29.2636  9429.44  96.613
 29.3056  9338.92  96.0231
 29.3476  9387.65  96.7866
 29.3896  9428.19  97.0865
 29.4316  9619.44  97.4186
 29.4736  9472.26  96.7266
 29.5156  9361.62  96.0821
 29.5576  9313.7  96.5721
 29.5996  9353.23  96.0443
 29.6416  9319.52  95.9849
 29.6836  9401.53  96.3328
 29.7256  9391.23  96.8425
 29.7676  9343.62  96.2593
 29.8096  9242.64  95.6844
 29.8516  9231.16  95.9481
 29.8936  9292.77  96.3651
 29.9356  9393.58  96.6434
 29.9776  9194.7  95.7596
 30.0196  9307.98  95.7475
 30.0616  9208.78  95.6045
 30.1036  9310.55  95.9653
 30.1456  9293.39  96.0955
 30.1876  9174.78  95.4714
 30.2296  9243.22  95.7632
 30.2716  9301.07  95.7097
 30.3136  9332.27  96.7161
 30.3556  9253.69  96.3222
 30.3976  9056.37  96.791
 30.4396  9223.27  95.0377
 30.4816  9140.46  94.2164
 30.5236  9037.59  93.704
 30.5656  9170.58  95.029
 30.6076  9062.28  94.2469
 30.6496  9247.5  95.2447
 30.6916  9020.2  94.1572
 30.7336  8948.43  93.931
 30.7756  9014.48  94.3663
 30.8176  9049.51  94.4665
 30.8596  9165.51  94.8465
 30.9016  9151.07  94.6409
 30.9436  9160.17  94.9106
 30.9856  9223.58  95.346
 31.0276  9065.54  94.1431
 31.0696  9037.74  94.5566
 31.1116  9108.76  94.9066
 31.1536  9163.01  95.073
 31.1956  9003.66  94.3297
 31.2376  8920.4  93.9017
 31.2796  9045.15  94.1011
 31.3216  9073.76  94.1957
 31.3636  9042.15  94.7198
 31.4056  8976.71  95.6779
 31.4476  9014.86  93.7933
 31.4896  8937.42  93.8892
 31.5316  8961.12  93.4682
 31.5736  9109.38  94.0049
 31.6156  8905.35  92.9702
 31.6576  8968.41  93.4011
 31.6996  9019.27  93.3446
 31.7416  8766.28  92.9149
 31.7836  9078.52  93.724
 31.8256  8777.7  92.4978
 31.8676  8925.25  93.1922
 31.9096  8859.92  93.0671
 31.9516  8844.79  93.2797
 31.9936  8803.84  92.8946
 32.0356  8699.69  92.3971
 32.0776  8949.83  93.6099
 32.1196  8879.24  93.2387
 32.1616  8925.61  93.0355
 32.2036  8754.67  92.6391
 32.2456  8828.86  93.409
 32.2876  8761.75  92.3973
 32.3296  8705.39  92.2262
 32.3716  8697.76  92.2858
 32.4136  8738.25  92.7027
 32.4556  8845.28  92.7197
 32.4976  8826.24  92.5088
 32.5396  8718.99  91.9768
 32.5816  8582.44  91.3637
 32.6236  8780.66  92.4844
 32.6656  8981.67  94.0802
 32.7076  8650.31  91.9894
 32.7496  8734.26  92.1124
 32.7916  8757.79  92.1884
 32.8336  8648.22  91.7144
 32.8756  8740.14  91.9138
 32.9176  8753.45  92.466
 32.9596  8624.28  91.8514
 33.0016  8608.56  91.5715
 33.0436  8773.59  92.3474
 33.0856  8667.26  92.1158
 33.1276  8514.94  91.0521
 33.1696  8704.6  91.8979
 33.2116  8699.43  92.0965
 33.2536  8602.94  91.5801
 33.2956  8617.56  91.7406
 33.3376  8608.18  91.5149
 33.3796  8618.51  91.6985
 33.4216  8719.04  91.8344
 33.4636  8619.49  91.4558
 33.5056  8571.87  91.4399
 33.5476  8547.05  91.2938
 33.5896  8781.92  92.2861
 33.6316  8572.99  91.517
 33.6736  8426.93  90.9748
 33.7156  8519.19  91.2415
 33.7576  8560  91.3613
 33.7996  8648.19  91.6096
 33.8416  8437.18  90.6676
 33.8836  8485.24  90.8426
 33.9256  8593.09  91.3369
 33.9676  8459.92  90.5264
 34.0096  8413.69  90.5882
 34.0516  8481.47  90.5921
 34.0936  8455.65  90.6199
 34.1356  8572.15  91.083
 34.1776  8485.6  90.6355
 34.2196  8389.49  90.2971
 34.2616  8372.43  90.3409
 34.3036  8350.96  90.4605
 34.3456  8357.14  90.2577
 34.3876  8382.48  90.4488
 34.4296  8384.58  90.0615
 34.4716  8447.42  90.5025
 34.5136  8237.43  89.6171
 34.5556  8327.52  90.3492
 34.5976  8404.9  90.607
 34.6396  8345.93  89.9726
 34.6816  8277.33  89.7182
 34.7236  8383.91  90.0795
 34.7656  8390.44  90.3068
 34.8076  8155.12  89.3505
 34.8496  8273.28  89.8516
 34.8916  8313.44  89.9457
 34.9336  8512.09  90.9803
 34.9756  8578.91  91.2632
 35.0176  8335.65  90.479
 35.0596  8287.98  90.0443
 35.1016  8317.68  89.974
 35.1436  8361.46  89.896
 35.1856  8093.81  88.5743
 35.2276  8340.53  90.0883
 35.2696  8291.22  90.006
 35.3116  8303.62  90.164
 35.3536  8178.82  89.2339
 35.3956  8272.8  89.431
 35.4376  8143.03  89.264
 35.4796  8257.23  89.9522
 35.5216  8195.95  89.5681
 35.5636  8068.85  89.6072
 35.6056  8339.32  90.1241
 35.6476  8287.89  89.7394
 35.6896  8215.62  89.5084
 35.7316  8076.72  88.6464
 35.7736  8203.91  89.5412
 35.8156  8078.82  88.852
 35.8576  8159.52  89.5371
 35.8996  8334.94  90.4564
 35.9416  8238.2  89.4458
 35.9836  8077.72  89.013
 36.0256  8193.93  89.5745
 36.0676  8266.14  89.511
 36.1096  8049.42  88.6807
 36.1516  8202.18  89.4062
 36.1936  8194.2  89.2155
 36.2356  8035.51  88.9762
 36.2776  8095.58  88.7825
 36.3196  8095.56  88.4684
 36.3616  8151.27  88.859
 36.4036  8035.78  88.3286
 36.4456  8134.1  89.0689
 36.4876  8013.35  88.3522
 36.5296  8097.06  88.8481
 36.5716  8080.77  89.295
 36.6136  8226.56  89.1096
 36.6556  8180.25  89.064
 36.6976  8067.56  88.9435
 36.7396  8017.91  88.4056
 36.7816  8051.4  88.9578
 36.8236  7931.85  88.2214
 36.8656  8076.23  89.0925
 36.9076  7984.26  88.5862
 36.9496  8034.51  88.7221
 36.9916  7936.68  87.8203
 37.0336  8164.2  89.3814
 37.0756  8037.07  88.4814
 37.1176  7928.73  88.1477
 37.1596  7913.7  88.0647
 37.2016  7888.59  88.1091
 37.2436  8069.36  88.4755
 37.2856  7968.44  88.1835
 37.3276  8011.38  87.9307
 37.3696  7874.21  87.8916
 37.4116  7982.25  88.39
 37.4536  7932.22  87.9831
 37.4956  7678.25  86.8087
 37.5376  7881.74  89.2829
 37.5796  7845.55  89.0268
 37.6216  7765.94  86.8616
 37.6636  7730.14  86.5746
 37.7056  7790.91  87.0991
 37.7476  7937.49  87.4586
 37.7896  7821.35  87.308
 37.8316  7705.29  86.8219
 37.8736  7934.99  87.6384
 37.9156  7723.57  86.4644
 37.9576  7902.48  87.3464
 37.9996  7653.8  85.6913
 38.0416  7737.71  86.9571
 38.0836  7768.55  87.0352
 38.1256  7869.1  87.5438
 38.1676  7611.44  86.2429
 38.2096  7791.05  86.8853
 38.2516  7853.78  87.429
 38.2936  7793.4  86.9012
 38.3356  7845.65  87.1151
 38.3776  7584.94  85.913
 38.4196  7825.28  87.1194
 38.4616  7772.3  87.0573
 38.5036  7829.49  87.2265
 38.5456  7750.42  87.6142
 38.5876  7672.69  87.2088
 38.6296  7541.63  85.459
 38.6716  7648.43  85.8641
 38.7136  7663.42  85.8906
 38.7556  7609.59  86.0803
 38.7976  7656.72  86.2895
 38.8396  7531.11  86.0196
 38.8816  7597.09  86.1709
 38.9236  7651.94  86.3055
 38.9656  7659.55  86.2634
 39.0076  7617.49  85.4382
 39.0496  7657.93  86.2022
 39.0916  7735.08  86.2808
 39.1336  7566.74  85.7457
 39.1756  7548.56  85.7104
 39.2176  7672.64  86.9364
 39.2596  7520.63  85.9921
 39.3016  7538.94  85.6726
 39.3436  7612.68  86.5149
 39.3856  7775.46  86.8872
 39.4276  7674.17  86.8027
 39.4696  7587.23  85.9474
 39.5116  7587.48  86.4457
 39.5536  7673.52  87.3546
 39.5956  7759.61  86.958
 39.6376  7763.08  86.9739
 39.6796  7747.68  86.6391
 39.7216  7722.12  86.5865
 39.7636  7682.28  86.9269
 39.8056  7725.22  86.9398
 39.8476  7733.83  87.2465
 39.8896  7624.77  86.2624
 39.9316  7551.94  86.1035
 39.9736  7733.07  86.7061
 40.0156  7709.43  86.3985
 40.0576  7719.44  86.8145
 40.0996  7793.22  86.4152
 40.1416  7714.19  86.7572
 40.1836  7796.84  87.1022
 40.2256  7720.99  86.7349
 40.2676  7811.1  87.4052
 40.3096  7721.26  86.7658
 40.3516  7771.7  87.1626
 40.3936  7778.55  86.7606
 40.4356  7709.32  86.5678
 40.4776  7779.1  87.1947
 40.5196  7666.67  86.8531
 40.5616  7812.03  87.3168
 40.6036  7685.62  86.8552
 40.6456  7812.64  87.1829
 40.6876  7820.65  87.2082
 40.7296  7771.74  87.0757
 40.7716  7796.09  87.347
 40.8136  7622.93  86.3143
 40.8556  7710.26  86.9353
 40.8976  7670.11  86.6292
 40.9396  7679.15  87.0266
 40.9816  7760.34  86.781
 41.0236  7812.97  86.8541
 41.0656  7773.49  87.1718
 41.1076  7800.45  87.0943
 41.1496  7808.02  87.0445
 41.1916  7773.67  87.179
 41.2336  7701.04  86.7543
 41.2756  7690.27  86.3074
 41.3176  7688.34  86.8999
 41.3596  7781.33  87.1589
 41.4016  7763.65  87.3129
 41.4436  7800.9  87.3108
 41.4856  7770.08  87.2983
 41.5276  7746.53  87.185
 41.5696  7768.84  86.9322
 41.6116  7671.15  86.7878
 41.6536  7773.09  87.2242
 41.6956  7784.51  87.2684
 41.7376  7677.61  86.7659
 41.7796  7653.9  86.5639
 41.8216  7812.79  87.6458
 41.8636  7736.42  87.1569
 41.9056  7632.32  86.3591
 41.9476  7645.87  86.6651
 41.9896  7677.67  86.5208
 42.0316  7703.99  86.7406
 42.0736  7719.5  86.9742
 42.1156  7754.4  86.9784
 42.1576  7681.81  86.67
 42.1996  7699.44  86.9117
 42.2416  7798.76  86.9628
 42.2836  7642.81  86.2915
 42.3256  7589.27  86.0971
 42.3676  7624.37  86.1045
 42.4096  7602.02  85.9392
 42.4516  7648.94  86.3501
 42.4936  7540.61  85.7501
 42.5356  7598.6  86.2032
 42.5776  7700.44  86.7244
 42.6196  7636.85  86.4234
 42.6616  7488.86  85.7405
 42.7036  7653.68  86.0767
 42.7456  7603.03  86.1409
 42.7876  7656.49  86.5419
 42.8296  7624.16  86.187
 42.8716  7553.48  85.9499
 42.9136  7532.56  85.581
 42.9556  7694.86  86.6716
 42.9976  7630.69  86.2772
 43.0396  7631.91  86.017
 43.0816  7584.49  86.1193
 43.1236  7480.41  85.5859
 43.1656  7621.9  86.2262
 43.2076  7468.02  85.4412
 43.2496  7556.09  85.7699
 43.2916  7495.84  85.7878
 43.3336  7574.64  86.0786
 43.3756  7543.03  85.6547
 43.4176  7385.93  84.8356
 43.4596  7459.58  85.1189
 43.5016  7527.26  85.905
 43.5436  7429.75  85.243
 43.5856  7429.33  85.2693
 43.6276  7441.52  85.2345
 43.6696  7584.21  86.1321
 43.7116  7516.05  85.4233
 43.7536  7487.4  85.7424
 43.7956  7347.52  86.0953
 43.8376  7483.91  85.4635
 43.8796  7428.09  85.2204
 43.9216  7388.68  84.9148
 43.9636  7404.51  85.1039
 44.0056  7396.31  85.2888
 44.0476  7251.01  84.2052
 44.0896  7379.73  85.1685
 44.1316  7408.99  85.0129
 44.1736  7441.68  85.1804
 44.2156  7405.76  84.8364
 44.2576  7324.36  84.6816
 44.2996  7443.54  85.3365
 44.3416  7515.28  85.5073
 44.3836  7185.82  83.9386
 44.4256  7239.29  83.8933
 44.4676  7344.84  84.6632
 44.5096  7287.06  84.4693
 44.5516  7336.49  84.7031
 44.5936  7258.75  84.226
 44.6356  7372.91  84.6261
 44.6776  7277.64  84.3953
 44.7196  7312.65  84.8932
 44.7616  7343.83  86.3875
 44.8036  7279.89  84.6527
 44.8456  7310.85  84.8299
 44.8876  7240.65  84.3746
 44.9296  7350.34  84.3752
 44.9716  7210.69  83.9897
 45.0136  7214.5  83.946
 45.0556  7287.33  84.4504
 45.0976  7320.49  84.6977
 45.1396  7135.08  83.3863
 45.1816  7221.97  83.8152
 45.2236  7168.32  83.4098
 45.2656  7104.29  83.5257
 45.3076  7191.42  83.8308
 45.3496  7134.29  83.7929
 45.3916  7120.43  83.9721
 45.4336  7117.5  83.7994
 45.4756  7034.21  83.1723
 45.5176  7176.93  83.6331
 45.5596  7179.32  83.7664
 45.6016  7108.38  83.7622
 45.6436  7167.93  83.3069
 45.6856  7029.46  83.1378
 45.7276  7075.44  84.6949
 45.7696  7123.53  84.664
 45.8116  7171.22  84.4089
 45.8536  7082.21  83.7749
 45.8956  7141.89  83.4881
 45.9376  7199.79  83.302
 45.9796  7165.74  83.7849
 46.0216  7060.72  83.4932
 46.0636  7136.74  83.1026
 46.1056  7089.2  82.8137
 46.1476  7127.09  83.6166
 46.1896  7140.19  83.8395
 46.2316  7144.92  83.7404
 46.2736  7093.86  83.637
 46.3156  7049.54  83.1327
 46.3576  7016.05  83.1327
 46.3996  7118.76  83.8991
 46.4416  7213.13  84.0118
 46.4836  6948.99  82.8287
 46.5256  7053.94  83.3905
 46.5676  7032.68  83.3747
 46.6096  7083.3  83.6127
 46.6516  7062.94  82.5522
 46.6936  7219.89  83.9474
 46.7356  7027.55  82.9269
 46.7776  6882.62  82.9435
 46.8196  7022.48  83.4634
 46.8616  6838.21  82.1693
 46.9036  6896.24  82.1885
 46.9456  6965.66  82.2407
 46.9876  6908.56  81.992
 47.0296  7075.1  83.5644
 47.0716  6952.34  82.746
 47.1136  6925.2  82.2774
 47.1556  6904.63  82.0273
 47.1976  6976.44  82.6025
 47.2396  6816.13  81.9539
 47.2816  6890.43  82.113
 47.3236  6952.92  82.8479
 47.3656  6936.59  82.6827
 47.4076  6961.77  82.5649
 47.4496  6948.34  82.651
 47.4916  6868.95  82.3551
 47.5336  7008.94  83.0126
 47.5756  7034.97  83.2802
 47.6176  6872.51  82.2207
 47.6596  6868.79  81.9169
 47.7016  7001.64  82.522
 47.7436  6944  82.5183
 47.7856  6922.07  82.4072
 47.8276  6836.35  81.9459
 47.8696  6809.9  81.8681
 47.9116  6930.55  82.314
 47.9536  6829.54  81.6464
 47.9956  6777.26  82.0277
 48.0376  6736.75  81.5658
 48.0796  6921.99  82.8004
 48.1216  6849.46  82.1961
 48.1636  6982.83  82.5701
 48.2056  6883.53  82.2387
 48.2476  6841.41  82.2674
 48.2896  6836.64  82.1698
 48.3316  6866.52  82.2913
 48.3736  6685.07  81.2186
 48.4156  6749.08  81.5706
 48.4576  6699.57  81.4443
 48.4996  6785.04  81.4422
 48.5416  6878.3  82.3142
 48.5836  6846.21  81.8023
 48.6256  6861.38  82.0967
 48.6676  6809.5  82.2773
 48.7096  6806.57  81.5446
 48.7516  6806.22  81.702
 48.7936  6625.33  80.7682
 48.8356  6783.19  81.674
 48.8776  6710.55  81.7138
 48.9196  6849.56  82.0058
 48.9616  6694.88  81.4499
 49.0036  6720.59  81.9487
 49.0456  6700.42  81.8093
 49.0876  6679.57  81.3217
 49.1296  6642.16  81.1647
 49.1716  6579.2  80.8675
 49.2136  6726.69  81.4713
 49.2556  6651.44  81.0506
 49.2976  6725.16  81.5673
 49.3396  6656.37  81.1914
 49.3816  6749.27  81.3522
 49.4236  6705.64  81.3485
 49.4656  6542.99  80.37
 49.5076  6643.6  80.7511
 49.5496  6618.84  80.6691
 49.5916  6671.44  80.9031
 49.6336  6693.1  81.2353
 49.6756  6629.79  81.0742
 49.7176  6699.79  81.4432
 49.7596  6634.41  80.8184
 49.8016  6677.72  81.0147
 49.8436  6608.12  80.8725
 49.8856  6600.3  80.8274
 49.9276  6600.09  80.9272
 49.9696  6613.41  80.9929
 50.0116  6650.65  81.3434
 50.0536  6675.16  81.4424
 50.0956  6627.98  81.2245
 50.1376  6645.31  81.0269
 50.1796  6510.78  80.4739
 50.2216  6571.89  80.8404
 50.2636  6608.12  80.6959
 50.3056  6469.54  80.0154
 50.3476  6557.89  80.5775
 50.3896  6589.37  80.7433
 50.4316  6559.04  80.3992
 50.4736  6548.78  80.5486
 50.5156  6561.1  80.6109
 50.5576  6637.25  80.8446
 50.5996  6530.79  80.4681
 50.6416  6467.84  80.0095
 50.6836  6505.22  80.3021
 50.7256  6659.84  81.1761
 50.7676  6496.35  80.4342
 50.8096  6497.48  80.0328
 50.8516  6570.98  80.8938
 50.8936  6512.01  80.3035
 50.9356  6490.45  80.2877
 50.9776  6470.2  80.3079
 51.0196  6298.71  79.3658
 51.0616  6317.53  78.8391
 51.1036  6481.82  80.1988
 51.1456  6447.26  79.9051
 51.1876  6368.21  78.7751
 51.2296  6363.94  79.3614
 51.2716  6418.86  79.4104
 51.3136  6330.88  79.3088
 51.3556  6423.99  79.5242
 51.3976  6412.35  79.6041
 51.4396  6164.11  78.3417
 51.4816  6432.08  79.8778
 51.5236  6361.78  79.524
 51.5656  6386.71  79.2964
 51.6076  6373.9  79.2981
 51.6496  6388.07  79.5663
 51.6916  6267.1  79.1624
 51.7336  6351.68  79.7741
 51.7756  6375.2  79.6309
 51.8176  6386.68  79.8091
 51.8596  6293.79  79.2395
 51.9016  6557.83  80.4967
 51.9436  6316.11  80.4107
 51.9856  6255.83  80.4443
 52.0276  6338.95  79.5214
 52.0696  6418.24  80.0783
 52.1116  6385.3  79.9886
 52.1536  6271.15  79.1165
 52.1956  6369.59  79.2564
 52.2376  6418.81  79.7307
 52.2796  6426.62  79.5924
 52.3216  6105.3  78.243
 52.3636  6267.47  78.8668
 52.4056  6297.03  78.9143
 52.4476  6179.13  78.5233
 52.4896  6271.47  79.1502
 52.5316  6277.71  79.2438
 52.5736  6381.51  79.6255
 52.6156  6246.68  79.1354
 52.6576  6283.94  78.8402
 52.6996  6083.95  78.5176
 52.7416  6168.25  78.9867
 52.7836  6364.56  80.0401
 52.8256  6325.62  79.0369
 52.8676  6130.43  78.3708
 52.9096  6233.26  79.1042
 52.9516  6255.63  79.6052
 52.9936  6137.51  79.2414
 53.0356  6140.61  78.2952
 53.0776  6155.93  78.6657
 53.1196  6037.3  78.0068
 53.1616  6185.65  79.0063
 53.2036  5981.56  77.6493
 53.2456  6078.87  78.3769
 53.2876  6092.06  78.1755
 53.3296  6181.91  79.069
 53.3716  6175.91  78.7819
 53.4136  6063.02  78.2045
 53.4556  6072.84  78.2971
 53.4976  6035.14  77.9062
 53.5396  6151.42  79.0396
 53.5816  6044.9  77.9963
 53.6236  6037.1  78.2751
 53.6656  6072.09  78.1436
 53.7076  6108.91  78.3415
 53.7496  6146.91  78.6975
 53.7916  6169.82  78.9738
 53.8336  6048.94  78.0912
 53.8756  5883.58  77.5444
 53.9176  6159.06  78.7054
 53.9596  6108.36  79.1149
 54.0016  6048.93  78.0842
 54.0436  6096.04  78.5959
 54.0856  6123.58  78.2126
 54.1276  6084.82  78.1474
 54.1696  6018.4  77.9001
 54.2116  6041.4  77.8127
 54.2536  6059.94  77.7479
 54.2956  6115.27  78.154
 54.3376  6043.64  78.1647
 54.3796  6074.39  78.268
 54.4216  6156.88  78.6613
 54.4636  6078.22  78.2978
 54.5056  6062.32  78.0174
 54.5476  6038.31  78.1882
 54.5896  6095.19  78.3839
 54.6316  6118.68  78.4037
 54.6736  6077.56  78.1672
 54.7156  6115.27  78.4792
 54.7576  6028.65  77.9201
 54.7996  6081.33  78.4018
 54.8416  5995.39  77.8825
 54.8836  6035.08  78.2437
 54.9256  6049.31  78.0945
 54.9676  6112.4  78.3608
 55.0096  6004.45  77.7296
 55.0516  6089.71  78.4504
 55.0936  5958.15  77.3024
 55.1356  6053.9  77.9642
 55.1776  6003.24  77.8951
 55.2196  6023.59  77.8118
 55.2616  6011.08  77.9431
 55.3036  5990.38  77.9634
 55.3456  5993.63  78.1255
 55.3876  6031.36  78.1272
 55.4296  6031.25  78.1016
 55.4716  6086.93  78.4939
 55.5136  6057.84  78.0727
 55.5556  5975.27  77.6025
 55.5976  5957.86  77.5482
 55.6396  5967.17  77.4804
 55.6816  6002.02  77.6562
 55.7236  6047.27  77.9907
 55.7656  6046.59  77.7538
 55.8076  6072.81  77.9079
 55.8496  6030.69  78.059
 55.8916  6018.38  78.0339
 55.9336  5973.27  77.5958
 55.9756  5949.84  77.3365
 56.0176  5924.89  77.3177
 56.0596  5907.31  77.1899
 56.1016  5999.99  77.8379
 56.1436  5886.07  77.3253
 56.1856  6009.21  77.8703
 56.2276  5915.17  77.3115
 56.2696  5958.55  77.5709
 56.3116  5994.01  78.1942
 56.3536  5900.2  77.2486
 56.3956  6067.95  78.3301
 56.4376  5988.47  77.8473
 56.4796  6004.39  77.7546
 56.5216  5822.04  76.9288
 56.5636  6041.88  77.9647
 56.6056  5925.94  77.4371
 56.6476  5925.99  77.0775
 56.6896  5954.1  77.6954
 56.7316  5959.54  77.6478
 56.7736  5978.15  77.7315
 56.8156  5904.99  77.2758
 56.8576  5880.1  77.0616
 56.8996  5957.08  77.5064
 56.9416  5793.28  76.7288
 56.9836  5879.8  76.8213
 57.0256  5909.15  77.324
 57.0676  5959.67  77.7717
 57.1096  5968.02  77.6222
 57.1516  5964.46  77.6238
 57.1936  5950.98  77.3255
 57.2356  5904.76  77.3398
 57.2776  5913.62  77.3553
 57.3196  5966.78  78.0657
 57.3616  5887.08  77.0451
 57.4036  5909.34  77.2491
 57.4456  5879.32  77.0203
 57.4876  5912.02  77.0987
 57.5296  5948.37  77.569
 57.5716  5903.68  77.3687
 57.6136  5953.94  77.5228
 57.6556  5963.09  77.7148
 57.6976  5902.46  77.135
 57.7396  5911.87  77.5716
 57.7816  5837.6  77.4321
 57.8236  5948.64  78.0047
 57.8656  5901.41  77.3097
 57.9076  5914.26  77.4322
 57.9496  5812.64  77.1032
 57.9916  5896.63  77.1787
 58.0336  5933.39  77.6911
 58.0756  5951.53  77.4107
 58.1176  5937.36  77.3531
 58.1596  5868.28  77.4471
 58.2016  5908.31  76.958
 58.2436  5996.93  77.9456
 58.2856  5919.3  77.3574
 58.3276  5888.41  77.521
 58.3696  5882.97  77.2435
 58.4116  5917.31  77.3354
 58.4536  5881.57  76.9915
 58.4956  5879.02  77.1505
 58.5376  6079.3  78.0257
 58.5796  5986.19  77.8415
 58.6216  5922.18  77.2482
 58.6636  6097.53  78.5918
 58.7056  5854.98  76.8766
 58.7476  5842.09  77.2262
 58.7896  5794.98  76.5688
 58.8316  5875.33  77.0955
 58.8736  5861.87  77.0163
 58.9156  5909.97  77.3761
 58.9576  6127.55  79.0815
 58.9996  6105.74  78.2092
 59.0416  6033.71  78.1065
 59.0836  6026.86  77.9872
 59.1256  5928.91  78.0444
 59.1676  5864.14  77.9103
 59.2096  6076.31  78.6132
 59.2516  6086.17  78.2565
 59.2936  5894.43  77.338
 59.3356  5893.13  77.2087
 59.3776  6126.44  78.8924
 59.4196  5932.21  77.5676
 59.4616  5820.3  76.6957
 59.5036  5932.54  77.4669
 59.5456  6100.9  78.2501
 59.5876  6098.81  78.4287
 59.6296  5861.5  76.9559
 59.6716  5867.63  77.0532
 59.7136  6004.74  77.9366
 59.7556  6030.1  78.2373
 59.7976  5902.52  77.1504
 59.8396  5961.28  77.4284
 59.8816  5862.45  77.3215
 59.9236  5843.46  76.8454
 59.9656  5945.62  77.7727
 60.0076  6003.88  77.5123
 60.0496  5952.14  77.2022
 60.0916  6132.02  78.2565
 60.1336  5832.45  77.4091
 60.1756  5874.35  78.8544
 60.1996  5904.82  81.2697