File: docs/examples/XRD/IS17_D/Data/IS17_D/17_Da_f00092.xye
# /beamlines/bl04/projects/cycle2025-II/20250340211-lsimonelli/DATA/IS17_D/17_Da_f00092.xye : mythproc.py merge -s 0.006 -l 0.5 -f /beamlines/bl04/inhouse/ff/FlatField/ff_20Nov2024rod8mm60s_17keV.raw -b True -c true -o xye /beamlines/bl04/projects/cycle2025-II/20250340211-lsimonelli/DATA/IS17_D/17_Da_00092.dat
# IsMon = [6753517, 6749294, 6754928]  IsPos = [-1.4999, -2.4884, -3.4988]
# Wave = 0.4962  CalPath /beamlines/bl04/projects/cycle2025-II/20250340211-lsimonelli/DATA/Align/Si_Pos1_25keV_f00001.cal
# Date = 2025-09-24_19:12:42 Dt = 4.8000  Bin = 0.0060  <imon> = 6752580 +/- 2394 (Min/Max) 6749294 / 6754928
# icurr 249.5795  mocoIn 1.7017E-05  mocoOut 0.7987  i15 7.07549e+06  imon 6.75258e+06  i7 6.3333  iEMpd_timer 4.8000  iEMpd_1 3.4630E-08  iEMpd_2 7.7997E-08  iEMpd_3 1.6167E-08  iEMpd_4 4.7848E-08  iEMhp_timer 4.8000  iEMhp_1 4.8737E-06  iEMhp_2 -2.5991E-08  iEMhp_3 -2.5721E-08  iEMhp_4 -2.0964E-08
#      9776
 1.5856  39802.8  204.847
 1.6276  47204.8  219.255
 1.6696  53784.6  233.212
 1.7116  62338.4  251.564
 1.7536  71696.8  268.637
 1.7956  76483  278.151
 1.8376  72846.2  271.889
 1.8796  60774.2  246.519
 1.9216  49336.5  222.994
 1.9636  41018.9  202.496
 2.0056  37647.8  193.245
 2.0476  34634.7  187.383
 2.0896  32890.3  181.532
 2.1316  32067.4  178.385
 2.1736  30571.9  175.558
 2.2156  31122  175.708
 2.2576  29768.7  172.461
 2.2996  28562.8  169.552
 2.3416  28978.4  169.42
 2.3836  28732.4  168.802
 2.4256  27676.8  166.212
 2.4676  27281.3  164.786
 2.5096  26959.3  163.864
 2.5516  26327.5  165.723
 2.5936  26388.2  162.551
 2.6356  25773.3  161.324
 2.6776  26007.2  160.945
 2.7196  25537.4  160.002
 2.7616  25509.9  159.697
 2.8036  25096.8  158.568
 2.8456  25070.1  159.09
 2.8876  24506.4  157.184
 2.9296  24340.8  156.766
 2.9716  24037  155.284
 3.0136  23858.8  154.772
 3.0556  24149.6  156.107
 3.0976  23727.4  153.679
 3.1396  23624.4  154.055
 3.1816  23182.4  152.546
 3.2236  23223.8  152.678
 3.2656  23188.7  151.617
 3.3076  23135.7  152.881
 3.3496  23180.9  151.987
 3.3916  23650.9  153.342
 3.4336  23994.2  155.024
 3.4756  24526.6  156.651
 3.5176  25250.5  158.753
 3.5596  25149.2  160.818
 3.6016  25507.8  159.602
 3.6436  24539.4  157.646
 3.6856  24085.6  154.478
 3.7276  23144  152.52
 3.7696  23035.7  152.338
 3.8116  22665.1  151.006
 3.8536  22547.3  150.538
 3.8956  22773.5  151.124
 3.9376  22493.9  150.439
 3.9796  22552  150.151
 4.0216  22773.4  149.936
 4.0636  22576.5  150.74
 4.1056  22672.2  150.711
 4.1476  22823.9  151.513
 4.1896  23018.1  152.021
 4.2316  23117.3  152.169
 4.2736  23631.4  153.649
 4.3156  23792.8  154.396
 4.3576  24503.9  156.622
 4.3996  24886.2  158.101
 4.4416  25230.2  158.768
 4.4836  25873.7  160.94
 4.5256  26065.1  162.131
 4.5676  26226.6  162.889
 4.6096  26688.3  162.971
 4.6516  27086.3  163.901
 4.6936  27341.6  165.474
 4.7356  27578  166.025
 4.7776  27321.3  165.085
 4.8196  27124.9  165.127
 4.8616  26663.4  163.221
 4.9036  26492.8  162.43
 4.9456  26311.2  162.521
 4.9876  25935.2  161.257
 5.0296  26113.2  161.633
 5.0716  25910.7  161.766
 5.1136  26382.8  162.951
 5.1556  26329.8  162.255
 5.1976  26959.9  164.171
 5.2396  27107.9  164.321
 5.2816  26874.7  164.065
 5.3236  27140.4  164.588
 5.3656  26432.3  163.339
 5.4076  26332.6  163.185
 5.4496  26724.4  163.877
 5.4916  26735  163.667
 5.5336  26695.5  163.557
 5.5756  26408.7  162.693
 5.6176  26647.3  162.868
 5.6596  26730.8  164.092
 5.7016  27073.7  164.411
 5.7436  27062.6  164.65
 5.7856  27071.9  164.74
 5.8276  27666.2  166.26
 5.8696  27632.1  166.327
 5.9116  27443.4  166.357
 5.9536  27772.1  167.1
 5.9956  28170.7  167.666
 6.0376  28103.9  168.098
 6.0796  28463.2  169.005
 6.1216  28545.2  169.455
 6.1636  28600.3  168.677
 6.2056  28555.7  169.215
 6.2476  28801.7  169.807
 6.2896  28894.4  169.763
 6.3316  28789.6  169.623
 6.3736  28793.6  169.534
 6.4156  29018.9  170.085
 6.4576  29378.4  170.748
 6.4996  29287.2  170.966
 6.5416  29287.8  171.099
 6.5836  29305.9  171.389
 6.6256  29341  171.048
 6.6676  29852.3  172.104
 6.7096  29674.5  172.435
 6.7516  30081.8  173.276
 6.7936  30183.8  172.99
 6.8356  30425.4  173.768
 6.8776  30710.9  175.386
 6.9196  30649.9  175.608
 6.9616  31222.5  176.694
 7.0036  31718.5  177.734
 7.0456  31564.7  176.599
 7.0876  31450.6  177.962
 7.1296  31345.7  176.806
 7.1716  31403.6  176.497
 7.2136  31178.5  175.656
 7.2556  31480.8  176.671
 7.2976  31239.7  176.485
 7.3396  31382.1  177.109
 7.3816  31186.5  176.761
 7.4236  31469.9  176.857
 7.4656  31565.9  176.614
 7.5076  32017.3  178.007
 7.5496  31855.2  178.086
 7.5916  31956.5  178.404
 7.6336  32284.1  179.214
 7.6756  32420.7  179.447
 7.7176  32683.5  180.486
 7.7596  32663.7  181.664
 7.8016  33134.7  185.132
 7.8436  33476.6  182.793
 7.8856  33717.7  183.062
 7.9276  34219.6  184.797
 7.9696  34562.4  186.047
 8.0116  35424  186.89
 8.0536  35534.3  187.439
 8.0956  35462.5  188.433
 8.1376  35876.1  188.99
 8.1796  36038.7  189.973
 8.2216  37119.5  191.522
 8.2636  37114.3  191.755
 8.3056  36988.8  192.19
 8.3476  37536  192.946
 8.3896  36928.8  191.46
 8.4316  37525.5  193.165
 8.4736  37633.7  192.91
 8.5156  37165.4  191.976
 8.5576  36881.4  192.232
 8.5996  36784.2  190.836
 8.6416  36740.6  191.994
 8.6836  36646.3  191.553
 8.7256  37288.7  192.697
 8.7676  36600.9  193.766
 8.8096  36438.9  190.65
 8.8516  36203  189.646
 8.8936  35790.4  188.455
 8.9356  35811.7  188.857
 8.9776  35968.4  189.362
 9.0196  35790.4  188.571
 9.0616  35999.6  188.585
 9.1036  35538.5  188.547
 9.1456  35389  187.519
 9.1876  35470.1  187.688
 9.2296  35750.8  187.844
 9.2716  34720.7  185.179
 9.3136  35280.1  186.638
 9.3556  35328.4  186.756
 9.3976  33933  183.554
 9.4396  34415.1  184.742
 9.4816  33747.2  182.807
 9.5236  33913.7  183.168
 9.5656  33600.2  182.646
 9.6076  33447.3  182.749
 9.6496  33169.2  181.914
 9.6916  33352.7  182.388
 9.7336  33369.1  182.214
 9.7756  33533.8  183.929
 9.8176  32602.7  180.881
 9.8596  32606.8  179.353
 9.9016  32116.5  177.994
 9.9436  32093.7  177.843
 9.9856  31666.2  176.882
 10.0276  30910.9  175.848
 10.0696  31371.5  176.199
 10.1116  30512.4  174.027
 10.1536  30718.5  174.783
 10.1956  30087.3  172.579
 10.2376  29613.4  170.718
 10.2796  29983.6  171.913
 10.3216  29589.3  171.056
 10.3636  29316.5  170.294
 10.4056  29226.9  170.435
 10.4476  29339.5  170.379
 10.4896  29479.9  170.24
 10.5316  28829.5  169.062
 10.5736  28909.4  169.699
 10.6156  28288.6  167.628
 10.6576  28409.5  166.567
 10.6996  28206.7  166.624
 10.7416  27595.9  165.06
 10.7836  27963.9  166.84
 10.8256  27562.5  166.055
 10.8676  27698  166.011
 10.9096  27294.1  164.814
 10.9516  27086.3  163.126
 10.9936  27050.4  163.211
 11.0356  26924.5  163.472
 11.0776  26805.3  162.423
 11.1196  26305.3  161.643
 11.1616  26171.6  160.936
 11.2036  26159.2  160.736
 11.2456  26190.9  161.554
 11.2876  26095.7  160.971
 11.3296  25845.9  160.108
 11.3716  26236.9  161.002
 11.4136  26285.4  162.05
 11.4556  26391.8  162.04
 11.4976  26622.5  161.72
 11.5396  26855.4  162.609
 11.5816  26770.4  162.803
 11.6236  26134.8  161.084
 11.6656  25842.7  159.328
 11.7076  25425  158.874
 11.7496  25109.6  161.802
 11.7916  25082.7  157.07
 11.8336  24749.6  156.896
 11.8756  24496.5  155.637
 11.9176  24600.3  155.626
 11.9596  24207.8  154.557
 12.0016  24154.8  155.18
 12.0436  24132.9  154.533
 12.0856  24026.4  154.716
 12.1276  24212  155.216
 12.1696  24189.3  154.296
 12.2116  24354.4  154.823
 12.2536  23894.2  154.175
 12.2956  23999.1  153.852
 12.3376  23743.7  153.229
 12.3796  23965.4  154.399
 12.4216  23882.3  153.362
 12.4636  23546.7  153.186
 12.5056  23754.7  153.137
 12.5476  24069.5  153.68
 12.5896  23907.6  153.79
 12.6316  23478.3  152.559
 12.6736  23723.7  153.837
 12.7156  23542.3  153.107
 12.7576  23694.6  153.842
 12.7996  23716.6  152.574
 12.8416  23604  153.255
 12.8836  24058.2  154.555
 12.9256  24193.7  154.006
 12.9676  24362.5  154.969
 13.0096  23946.2  154.717
 13.0516  24174.7  154.506
 13.0936  24031.7  154.432
 13.1356  24648.3  155.395
 13.1776  24272.5  155.192
 13.2196  24290.9  154.907
 13.2616  24397.3  155.558
 13.3036  24351  155.38
 13.3456  24357.1  155.756
 13.3876  24271.2  154.771
 13.4296  23970.9  153.963
 13.4716  24363.1  154.831
 13.5136  24236.2  154.569
 13.5556  24419  155.78
 13.5976  24320.5  155.596
 13.6396  24586.5  155.82
 13.6816  24092.9  154.735
 13.7236  24778.7  156.567
 13.7656  23967.9  154.507
 13.8076  24250.5  154.213
 13.8496  23937.5  153.802
 13.8916  24083.3  155.275
 13.9336  23896.6  153.912
 13.9756  23912  153.3
 14.0176  23802.1  153.63
 14.0596  23804.9  153.61
 14.1016  23322.1  152.433
 14.1436  23339.2  151.621
 14.1856  23111.1  151.176
 14.2276  22613.5  150.004
 14.2696  23081.5  151.406
 14.3116  22710.8  150.091
 14.3536  22361.2  149.105
 14.3956  22410.7  149.009
 14.4376  22640.3  149.537
 14.4796  22372.7  148.642
 14.5216  22061.3  148.398
 14.5636  21963.1  147.634
 14.6056  22101.7  147.668
 14.6476  22034.5  146.688
 14.6896  21597.8  145.763
 14.7316  21351.8  145.944
 14.7736  21053.6  144.1
 14.8156  20996.1  143.924
 14.8576  21106.4  144.152
 14.8996  20567.3  143.5
 14.9416  20202.7  142.218
 14.9836  20250.8  142.345
 15.0256  20220.2  141.181
 15.0676  20180  141.357
 15.1096  20249.4  141.336
 15.1516  19714  140.022
 15.1936  19746.2  139.552
 15.2356  19271.2  138.141
 15.2776  19280.2  137.761
 15.3196  18979.5  137.679
 15.3616  18803.5  136.786
 15.4036  18814.1  136.688
 15.4456  19219.9  137.81
 15.4876  18852.2  136.166
 15.5296  18575.9  135.456
 15.5716  18364.9  134.275
 15.6136  18447.6  134.915
 15.6556  18413.9  134.024
 15.6976  18103.5  133.188
 15.7396  18088  133.507
 15.7816  17818.4  132.031
 15.8236  17729.8  132.389
 15.8656  17761.1  132.304
 15.9076  17608.8  131.566
 15.9496  17377  133.447
 15.9916  17495.8  134.355
 16.0336  17089  129.686
 16.0756  17277.3  130.705
 16.1176  17233.6  130.61
 16.1596  16728.5  129.848
 16.2016  16986.5  129.596
 16.2436  16840.7  129.423
 16.2856  16670  128.313
 16.3276  16666.7  128.716
 16.3696  16718.8  128.732
 16.4116  16298.8  127.566
 16.4536  16598.2  128.507
 16.4956  16362.1  127.341
 16.5376  16308.1  127.31
 16.5796  16212.7  126.306
 16.6216  16466.4  127.595
 16.6636  16244.1  126.886
 16.7056  16241.2  126.736
 16.7476  16318.1  126.57
 16.7896  16156.5  126.685
 16.8316  16225.5  126.918
 16.8736  16146.4  126.867
 16.9156  16262.4  127.658
 16.9576  15971.1  127.327
 16.9996  16104.4  128.339
 17.0416  16177.8  127.001
 17.0836  16187.2  126.791
 17.1256  15916.4  125.737
 17.1676  15976.4  125.973
 17.2096  15834.7  125.286
 17.2516  15579.4  124.052
 17.2936  15530.4  124.185
 17.3356  15349.4  123.452
 17.3776  15427.8  123.965
 17.4196  15485.4  123.895
 17.4616  15295.7  123.047
 17.5036  15079.5  122.547
 17.5456  14905  122.46
 17.5876  14903.7  121.513
 17.6296  14965.3  121.579
 17.6716  14941.9  122.047
 17.7136  14716.2  121.266
 17.7556  14719  121.573
 17.7976  14715.8  121.306
 17.8396  14640.4  120.496
 17.8816  14690.7  121.252
 17.9236  14478.7  120.177
 17.9656  14909.5  122.486
 18.0076  14723.6  121.294
 18.0496  14920.9  121.239
 18.0916  14718.9  120.948
 18.1336  14738.8  121.125
 18.1756  14864.1  121.173
 18.2176  14522.8  120.003
 18.2596  14672.8  120.361
 18.3016  14923.1  121.635
 18.3436  14920.4  121.633
 18.3856  14533.1  120.165
 18.4276  14614.3  120.178
 18.4696  14534.4  119.948
 18.5116  14631.7  120.64
 18.5536  14702  121.283
 18.5956  14399.3  119.584
 18.6376  14254.4  119.393
 18.6796  14182.8  118.411
 18.7216  14403.6  119.828
 18.7636  14022  118.212
 18.8056  14223.5  118.999
 18.8476  14094.7  119.08
 18.8896  14096.3  118.425
 18.9316  14401.4  119.685
 18.9736  14137.4  118.28
 19.0156  14081.8  118.452
 19.0576  14011.3  117.02
 19.0996  14104  118.124
 19.1416  13937.4  117.808
 19.1836  13906.7  117.286
 19.2256  13854.6  117.277
 19.2676  13938.1  117.724
 19.3096  13965.3  118.086
 19.3516  13884.4  117.701
 19.3936  14016  118.163
 19.4356  13935.9  117.691
 19.4776  13906  117.658
 19.5196  14021.3  117.993
 19.5616  13823  117.418
 19.6036  13903.4  117.249
 19.6456  13856.8  117.182
 19.6876  14093.8  117.827
 19.7296  13950.8  117.672
 19.7716  13843.5  117.393
 19.8136  13923.1  117.926
 19.8556  14266.9  118.851
 19.8976  14165.7  118.496
 19.9396  14071  117.679
 19.9816  14286  118.819
 20.0236  14490.9  119.884
 20.0656  14677.2  120.649
 20.1076  14357.3  119.787
 20.1496  14265.2  119.413
 20.1916  14016.1  117.875
 20.2336  13803.9  116.917
 20.2756  13594.4  116.454
 20.3176  13552.5  116.022
 20.3596  13611.2  116.254
 20.4016  13558.6  115.83
 20.4436  13439.7  115.876
 20.4856  13320.5  115.151
 20.5276  13316.4  115.592
 20.5696  13300.4  114.982
 20.6116  13227  114.943
 20.6536  13217.4  114.413
 20.6956  13152.7  114.255
 20.7376  13143.1  114.445
 20.7796  13179.8  114.289
 20.8216  13209  114.117
 20.8636  13004.7  113.593
 20.9056  13071.7  113.847
 20.9476  12993.1  113.332
 20.9896  13342.8  114.726
 21.0316  13146  113.779
 21.0736  12966.9  113.51
 21.1156  13015.6  113.881
 21.1576  12956.7  113.675
 21.1996  13031.6  113.979
 21.2416  12934.5  113.387
 21.2836  13048.4  113.849
 21.3256  12846.5  113.046
 21.3676  12993.1  113.242
 21.4096  12912.2  113.198
 21.4516  12748.3  112.359
 21.4936  12642.1  112.145
 21.5356  12933  113.368
 21.5776  12793.5  112.583
 21.6196  12765.9  112.501
 21.6616  12689.1  112.247
 21.7036  12781.3  112.433
 21.7456  12760.3  112.415
 21.7876  12647.5  111.67
 21.8296  12636.3  111.483
 21.8716  12662.3  111.831
 21.9136  12851.6  112.86
 21.9556  12603.8  111.443
 21.9976  12574.3  111.32
 22.0396  12607.2  111.727
 22.0816  12534.5  111.936
 22.1236  12572.4  111.57
 22.1656  12843.3  112.883
 22.2076  12807.2  112.209
 22.2496  12562.8  111.165
 22.2916  12564.2  111.052
 22.3336  12682.6  112.3
 22.3756  12650.2  111.873
 22.4176  12617.2  111.583
 22.4596  12457.5  111.451
 22.5016  12844.1  112.641
 22.5436  12755.6  112.15
 22.5856  12576.4  111.612
 22.6276  12631.3  112.003
 22.6696  12613.3  112.256
 22.7116  12536.1  111.442
 22.7536  12554.9  111.495
 22.7956  12601.6  111.036
 22.8376  12515.8  111.17
 22.8796  12377.5  110.362
 22.9216  12659.7  112.153
 22.9636  12526.5  110.724
 23.0056  12548.9  110.957
 23.0476  12690.7  112.155
 23.0896  12884.3  112.377
 23.1316  12789  112.402
 23.1736  12510.4  114.106
 23.2156  12760.4  112.583
 23.2576  12569.2  111.861
 23.2996  12606.9  111.817
 23.3416  12429.5  111.543
 23.3836  12573.8  111.427
 23.4256  12555.6  111.456
 23.4676  12459  110.723
 23.5096  12383.2  111.065
 23.5516  12516.9  110.948
 23.5936  12483.1  111.691
 23.6356  12716.4  112.401
 23.6776  12534  111.803
 23.7196  12285.1  110.265
 23.7616  12520.3  111.232
 23.8036  12587  111.577
 23.8456  12524.2  110.869
 23.8876  12352.3  110.454
 23.9296  12297.4  110.697
 23.9716  12213.1  109.519
 24.0136  12383.9  111.174
 24.0556  12160.1  109.905
 24.0976  11929.5  108.666
 24.1396  12055.3  111.894
 24.1816  12045.7  110.271
 24.2236  11935.8  109.391
 24.2656  11817.2  108.326
 24.3076  11851.4  108.736
 24.3496  11934.2  109.009
 24.3916  11782.8  108.35
 24.4336  11882.7  109.023
 24.4756  11754.1  108.302
 24.5176  11504.4  106.797
 24.5596  11722.2  107.928
 24.6016  11628.6  107.785
 24.6436  11607.7  107.172
 24.6856  11541.9  106.641
 24.7276  11545.9  106.977
 24.7696  11588.1  107.283
 24.8116  11509  107.101
 24.8536  11344.7  106.322
 24.8956  11432.8  106.475
 24.9376  11241.9  105.522
 24.9796  11199.9  105.675
 25.0216  11121.1  105.405
 25.0636  11142.9  105.173
 25.1056  11002.6  105.204
 25.1476  11177.6  107.673
 25.1896  11211.8  106.34
 25.2316  11256.8  105.814
 25.2736  11157.5  105.012
 25.3156  11125.4  104.926
 25.3576  11109.4  105.273
 25.3996  11077.8  105.102
 25.4416  11028.9  104.854
 25.4836  10904.5  104.776
 25.5256  10879.1  104.031
 25.5676  11054.1  104.601
 25.6096  10753.7  103.731
 25.6516  11007  104.451
 25.6936  10843.1  103.972
 25.7356  10968.5  104.708
 25.7776  10932  104.137
 25.8196  10756.1  103.534
 25.8616  10927.8  104.275
 25.9036  10987.5  104.035
 25.9456  10878  104.115
 25.9876  10765.9  103.634
 26.0296  10981.4  104.18
 26.0716  10743.6  103.459
 26.1136  10810.5  103.73
 26.1556  10975.2  103.887
 26.1976  10847.7  104.212
 26.2396  10913.1  103.681
 26.2816  10814.6  103.815
 26.3236  10833.3  104.076
 26.3656  10779  103.527
 26.4076  10885.3  104.252
 26.4496  11339.5  105.85
 26.4916  10928.6  103.957
 26.5336  10808  103.703
 26.5756  10961.1  104.309
 26.6176  10707.7  103.137
 26.6596  10663.1  103.225
 26.7016  10701.1  103.171
 26.7436  10574  102.678
 26.7856  10390.7  101.768
 26.8276  10528  102.396
 26.8696  10642.4  102.827
 26.9116  10544.7  102.284
 26.9536  10418.6  101.727
 26.9956  10540.8  102.356
 27.0376  10298.4  101.379
 27.0796  10527.2  102.245
 27.1216  10283.8  101.119
 27.1636  10337.7  101.553
 27.2056  10297.5  101.237
 27.2476  10455.6  102.013
 27.2896  10338.1  101.548
 27.3316  10383.4  101.478
 27.3736  10194.7  100.824
 27.4156  10341  101.378
 27.4576  10214.4  100.99
 27.4996  10271.3  100.863
 27.5416  10301.9  101.335
 27.5836  10343.9  101.352
 27.6256  10527.9  102.423
 27.6676  10424.6  101.942
 27.7096  10281.4  101.105
 27.7516  10185.3  100.775
 27.7936  10128.2  100.663
 27.8356  10146.8  100.375
 27.8776  10136.2  100.371
 27.9196  10013.5  99.609
 27.9616  10043.5  99.9516
 28.0036  9992.03  99.675
 28.0456  10000.9  99.8479
 28.0876  9951.26  99.6854
 28.1296  9976.5  99.6522
 28.1716  9983.94  99.6986
 28.2136  10097.5  100.231
 28.2556  9819.2  98.9518
 28.2976  9899.5  99.3491
 28.3396  9984.28  99.5324
 28.3816  9956.03  99.4136
 28.4236  9955.63  99.5642
 28.4656  9768.43  98.6596
 28.5076  9887.37  98.8943
 28.5496  9807.43  98.7532
 28.5916  9941.81  99.2392
 28.6336  9661.94  98.1609
 28.6756  9893.09  98.5393
 28.7176  9840.87  98.8224
 28.7596  9754.25  98.2889
 28.8016  9819.35  98.6559
 28.8436  9605.3  97.8094
 28.8856  9701.26  98.1444
 28.9276  9764.04  98.7059
 28.9696  9728.69  98.1826
 29.0116  9676.11  98.1034
 29.0536  9519.25  97.505
 29.0956  9746.6  98.3781
 29.1376  9649.19  97.8514
 29.1796  9594.94  97.6242
 29.2216  9532.82  97.1464
 29.2636  9680.94  97.9739
 29.3056  9578.8  97.248
 29.3476  9573.98  97.743
 29.3896  9597.6  97.9542
 29.4316  9747.88  98.0703
 29.4736  9732.78  98.0496
 29.5156  9891.1  98.7647
 29.5576  9654.32  98.3296
 29.5996  9647.9  97.549
 29.6416  9491.67  96.8736
 29.6836  9597.07  97.3344
 29.7256  9696.42  98.4076
 29.7676  9630.65  97.7236
 29.8096  9580.93  97.4233
 29.8516  9425.29  96.9548
 29.8936  9572.92  97.8101
 29.9356  9721.57  98.3196
 29.9776  9505.38  97.3732
 30.0196  9562.71  97.0544
 30.0616  9538.38  97.3048
 30.1036  9535.55  97.1181
 30.1456  9506.8  97.1944
 30.1876  9514.25  97.2244
 30.2296  9342.69  96.2799
 30.2716  9501.89  96.7411
 30.3136  9533.87  97.7636
 30.3556  9504.83  97.6201
 30.3976  9446.54  98.8371
 30.4396  9370.33  95.7866
 30.4816  9449.17  95.7914
 30.5236  9366.06  95.3919
 30.5656  9326.8  95.8314
 30.6076  9368.1  95.4797
 30.6496  9486.3  96.4634
 30.6916  9362.22  95.9203
 30.7336  9348.64  96.0046
 30.7756  9330.03  96.0008
 30.8176  9408  96.3141
 30.8596  9355.72  95.8176
 30.9016  9360.92  96.1845
 30.9436  9486.1  96.5798
 30.9856  9313.68  95.8027
 31.0276  9239.23  95.0353
 31.0696  9164.93  95.2211
 31.1116  9239.02  95.58
 31.1536  9338.65  95.9772
 31.1956  9122.41  94.9461
 31.2376  9220.24  95.4622
 31.2796  9254.04  95.1766
 31.3216  9149.03  94.5818
 31.3636  9306.01  96.0932
 31.4056  9317.62  97.4612
 31.4476  9196.91  94.7402
 31.4896  9123.71  94.8577
 31.5316  9126.92  94.291
 31.5736  9228.47  94.6267
 31.6156  9202.92  94.5183
 31.6576  9171.85  94.4512
 31.6996  9276.95  94.6684
 31.7416  9042.81  94.512
 31.7836  9083.6  93.75
 31.8256  9123.78  94.2223
 31.8676  9178.42  94.5043
 31.9096  9006.16  93.9679
 31.9516  9004.86  94.1187
 31.9936  9044.39  94.1582
 32.0356  9202.8  95.0371
 32.0776  9156.35  94.6841
 32.1196  9185.46  94.9241
 32.1616  9173.82  94.3224
 32.2036  9015.71  94.0047
 32.2456  9080.97  94.7345
 32.2876  9049.34  94.0642
 32.3296  8890.98  93.2061
 32.3716  8916.94  93.4394
 32.4136  8971.75  93.9315
 32.4556  9122.67  94.1048
 32.4976  8992.63  93.3364
 32.5396  8956.86  93.224
 32.5816  8858.15  92.8177
 32.6236  8968.65  93.4771
 32.6656  9082.77  94.6053
 32.7076  8978.72  93.7197
 32.7496  8912.42  93.0462
 32.7916  8943.83  93.163
 32.8336  8979.47  93.4507
 32.8756  8995.74  93.2504
 32.9176  8831.26  92.8722
 32.9596  8876.75  93.1814
 33.0016  8886.69  93.0368
 33.0436  8893.86  93.2435
 33.0856  8858.59  93.1306
 33.1276  8803.8  92.5889
 33.1696  8952.08  93.1988
 33.2116  8900.28  93.1567
 33.2536  8862.58  92.9519
 33.2956  8805.18  92.7383
 33.3376  8747.71  92.1713
 33.3796  8978.3  93.5872
 33.4216  8886.73  92.7028
 33.4636  8858.31  92.7071
 33.5056  8689.45  92.0633
 33.5476  8735.72  92.2939
 33.5896  8887.09  92.8647
 33.6316  8696.29  92.1736
 33.6736  8580.3  91.8035
 33.7156  8660.85  92.2745
 33.7576  8783.29  92.5511
 33.7996  8844.37  92.6368
 33.8416  8539.88  91.2136
 33.8836  8741.06  92.0582
 33.9256  8684.1  91.8195
 33.9676  8736.71  91.9935
 34.0096  8484.11  90.9612
 34.0516  8546.16  90.9379
 34.0936  8546.71  91.2031
 34.1356  8708.76  91.8052
 34.1776  8635.26  91.4338
 34.2196  8525.57  91.0269
 34.2616  8436.64  90.6877
 34.3036  8495.73  91.2457
 34.3456  8480.84  90.9226
 34.3876  8520.96  91.0967
 34.4296  8534.69  90.8657
 34.4716  8712.03  91.9578
 34.5136  8565.81  91.3859
 34.5556  8545.93  91.5368
 34.5976  8572.55  91.4765
 34.6396  8464.07  90.6123
 34.6816  8515.77  90.9949
 34.7236  8572.67  91.0895
 34.7656  8408.49  90.3945
 34.8076  8440.86  90.8954
 34.8496  8493.27  91.0379
 34.8916  8455.35  90.71
 34.9336  8618.48  91.5377
 34.9756  8466.81  90.6549
 35.0176  8549.95  91.6238
 35.0596  8465.69  90.9975
 35.1016  8368.11  90.2442
 35.1436  8541.52  90.8566
 35.1856  8396.51  90.2174
 35.2276  8529.77  91.1066
 35.2696  8358.84  90.3687
 35.3116  8454.11  90.9853
 35.3536  8333.63  90.0425
 35.3956  8338.3  89.7806
 35.4376  8357.71  90.4276
 35.4796  8410.34  90.7751
 35.5216  8374.87  90.5414
 35.5636  8180.22  90.2208
 35.6056  8341.8  90.1369
 35.6476  8488.6  90.8217
 35.6896  8486.91  90.9055
 35.7316  8235.87  89.5163
 35.7736  8329.83  90.2262
 35.8156  8236.03  89.7056
 35.8576  8280.37  90.2085
 35.8996  8460.45  91.1325
 35.9416  8625.31  91.4875
 35.9836  8308.31  90.1804
 36.0256  8364.77  90.5042
 36.0676  8426.09  90.6008
 36.1096  8128.17  89.1133
 36.1516  8301.44  89.942
 36.1936  8295.68  89.7608
 36.2356  8393.81  90.9368
 36.2776  8259.74  89.6878
 36.3196  8376.13  89.9853
 36.3616  8236.29  89.366
 36.4036  8291.44  89.7172
 36.4456  8259.1  89.759
 36.4876  8252.16  89.6591
 36.5296  8331.3  90.1234
 36.5716  8177.61  90.0627
 36.6136  8408.48  90.1015
 36.6556  8415.13  90.3338
 36.6976  8215.61  89.7587
 36.7396  8156.61  89.1715
 36.7816  8283.65  90.234
 36.8236  8165.85  89.5173
 36.8656  8181.03  89.6591
 36.9076  8243.42  89.894
 36.9496  8155.1  89.3885
 36.9916  8096.1  88.7025
 37.0336  8272.22  89.9706
 37.0756  8284.98  89.8346
 37.1176  8163.47  89.4436
 37.1596  8109.04  89.1461
 37.2016  8056.07  89.0848
 37.2436  8012.16  88.1679
 37.2856  8074.98  88.7661
 37.3276  8262.42  89.1338
 37.3696  8079.1  89.031
 37.4116  8093.85  89.0004
 37.4536  8139.83  89.1328
 37.4956  8086.25  88.8744
 37.5376  8105.42  90.526
 37.5796  8102.75  90.4788
 37.6216  7970.95  88.0002
 37.6636  8030.37  88.2359
 37.7056  8054.48  88.5592
 37.7476  7973.65  87.6522
 37.7896  7945.71  87.9949
 37.8316  7750.08  87.0728
 37.8736  8048.03  88.2541
 37.9156  7969.92  87.8267
 37.9576  7984.75  87.7909
 37.9996  7839.88  86.721
 38.0416  7868.58  87.6852
 38.0836  8122.32  88.9842
 38.1256  8026.06  88.4268
 38.1676  7785.01  87.2119
 38.2096  7912.33  87.545
 38.2516  8024.39  88.375
 38.2936  7957.21  87.8052
 38.3356  8040.19  88.1656
 38.3776  7847.28  87.3848
 38.4196  7969.03  87.9123
 38.4616  7954.38  88.0694
 38.5036  7928.59  87.7663
 38.5456  7830.4  88.0627
 38.5876  7858.45  88.2608
 38.6296  7869.72  87.3021
 38.6716  7798.21  86.6951
 38.7136  7772.66  86.5013
 38.7556  7856.17  87.4634
 38.7976  7842.42  87.3307
 38.8396  7817.38  87.6392
 38.8816  7824.1  87.4581
 38.9236  7780.67  87.0292
 38.9656  7758.03  86.8165
 39.0076  7816.27  86.5541
 39.0496  7775.41  86.8496
 39.0916  7811.14  86.7042
 39.1336  7779.38  86.943
 39.1756  7778.9  87.0066
 39.2176  7851.07  87.946
 39.2596  7752.35  87.3075
 39.3016  7832.94  87.3265
 39.3436  7655.79  86.759
 39.3856  7809.23  87.0781
 39.4276  7788.77  87.4431
 39.4696  7716.29  86.6752
 39.5116  7691.43  87.0383
 39.5536  7868.1  88.4564
 39.5956  7925.73  87.8861
 39.6376  7775.71  87.0452
 39.6796  7845.82  87.1848
 39.7216  7851.47  87.3048
 39.7636  7726.48  87.1749
 39.8056  7880.78  87.8158
 39.8476  7606.36  86.5282
 39.8896  7733.89  86.8734
 39.9316  7726.52  87.092
 39.9736  7895.21  87.6161
 40.0156  7825.28  87.0441
 40.0576  7790.41  87.2139
 40.0996  7965.57  87.3672
 40.1416  7783.31  87.1444
 40.1836  7907.98  87.7272
 40.2256  7885.45  87.6514
 40.2676  7822.12  87.4002
 40.3096  7913.84  87.8357
 40.3516  7794.66  87.2825
 40.3936  7927.67  87.588
 40.4356  7834.19  87.2675
 40.4776  7919.6  88.1462
 40.5196  7864.08  87.9613
 40.5616  7891.58  87.759
 40.6036  7843.26  87.7471
 40.6456  7910.83  87.7288
 40.6876  8010.95  88.2683
 40.7296  7931.87  87.9739
 40.7716  7951.1  88.1968
 40.8136  7942.45  88.1038
 40.8556  7898.93  87.992
 40.8976  7896.06  87.8984
 40.9396  7821.94  87.8312
 40.9816  7975.32  87.9749
 41.0236  8001.11  87.8858
 41.0656  8015.98  88.5162
 41.1076  7960.09  87.9793
 41.1496  7944.58  87.8046
 41.1916  7859.76  87.6625
 41.2336  7812.53  87.3818
 41.2756  7867.83  87.2969
 41.3176  7821.44  87.6477
 41.3596  7915.97  87.9105
 41.4016  7828.13  87.6762
 41.4436  7956.42  88.1781
 41.4856  7961.37  88.3671
 41.5276  7874.11  87.9041
 41.5696  7901.73  87.6932
 41.6116  7804.95  87.5377
 41.6536  7877.66  87.8068
 41.6956  7896.42  87.9607
 41.7376  7824.16  87.5869
 41.7796  7848.93  87.615
 41.8216  7829.2  87.7322
 41.8636  7923.16  88.2041
 41.9056  7719.91  86.8561
 41.9476  7855.25  87.8367
 41.9896  7898.46  87.7443
 42.0316  7899.82  87.8422
 42.0736  7778.03  87.273
 42.1156  7701.29  86.6809
 42.1576  7872.81  87.7416
 42.1996  7797.23  87.4565
 42.2416  7847.01  87.3216
 42.2836  7701.49  86.6226
 42.3256  7752.06  87.02
 42.3676  7828.67  87.2485
 42.4096  7826.28  87.2018
 42.4516  7843.28  87.3836
 42.4936  7628.93  86.2507
 42.5356  7743.77  87.0293
 42.5776  7804  87.2978
 42.6196  7832.61  87.5216
 42.6616  7661.62  86.7298
 42.7036  7814.47  86.9756
 42.7456  7695.31  86.661
 42.7876  7726.31  86.9358
 42.8296  7699.27  86.6131
 42.8716  7662.87  86.5703
 42.9136  7738.42  86.7878
 42.9556  7778.91  87.1472
 42.9976  7824.31  87.3676
 43.0396  7762.68  86.7521
 43.0816  7692.36  86.7296
 43.1236  7632.43  86.4513
 43.1656  7707.76  86.71
 43.2076  7673.93  86.6152
 43.2496  7819.65  87.2557
 43.2916  7583.65  86.2896
 43.3336  7770.14  87.1821
 43.3756  7650.58  86.2661
 43.4176  7666.79  86.4367
 43.4596  7614.35  85.9975
 43.5016  7612.55  86.3899
 43.5436  7591.57  86.1637
 43.5856  7596.58  86.2216
 43.6276  7556.62  85.8927
 43.6696  7537.64  86.0402
 43.7116  7779.4  86.9079
 43.7536  7672.04  86.7934
 43.7956  7510.16  87.0372
 43.8376  7646.86  86.3919
 43.8796  7597.54  86.1904
 43.9216  7644.43  86.3705
 43.9636  7652.53  86.5234
 44.0056  7466.97  85.7022
 44.0476  7497.09  85.5023
 44.0896  7376.43  85.1553
 44.1316  7644.75  86.2118
 44.1736  7533.14  85.7004
 44.2156  7581.09  85.8386
 44.2576  7508.09  85.741
 44.2996  7498.28  85.6542
 44.3416  7485.58  85.3309
 44.3836  7389.31  85.1188
 44.4256  7351.89  84.5467
 44.4676  7432.21  85.1685
 44.5096  7350.39  84.8391
 44.5516  7504.13  85.6772
 44.5936  7322.77  84.599
 44.6356  7561.36  85.7037
 44.6776  7391.4  85.0522
 44.7196  7349.87  85.1089
 44.7616  7348.13  86.417
 44.8036  7301.13  84.5713
 44.8456  7453.79  85.654
 44.8876  7332.43  84.8043
 44.9296  7459.28  84.9904
 44.9716  7371  84.8979
 45.0136  7391.76  84.9666
 45.0556  7328.22  84.5723
 45.0976  7216.34  84.0796
 45.1396  7283.12  84.2376
 45.1816  7284.26  84.1837
 45.2236  7221.14  83.7171
 45.2656  7140.79  83.739
 45.3076  7322.64  84.5823
 45.3496  7240.48  84.4118
 45.3916  7224.64  84.581
 45.4336  7340.71  85.1035
 45.4756  7141.36  83.8021
 45.5176  7157.68  83.5178
 45.5596  7213.44  83.9637
 45.6016  7129.22  83.8815
 45.6436  7234.61  83.6845
 45.6856  7181.38  84.0294
 45.7276  7155.38  85.1757
 45.7696  7239.24  85.3498
 45.8116  7260.12  84.9268
 45.8536  7228.73  84.6374
 45.8956  7311.94  84.4759
 45.9376  7252.24  83.6025
 45.9796  7242.1  84.2176
 46.0216  7175.65  84.1751
 46.0636  7400.28  84.6258
 46.1056  7229.25  83.6295
 46.1476  7297.24  84.6098
 46.1896  7307  84.8159
 46.2316  7171.49  83.8969
 46.2736  7112.39  83.9104
 46.3156  7151.83  83.7367
 46.3576  7163.74  84.0051
 46.3996  7207.43  84.4139
 46.4416  7195.61  83.9297
 46.4836  7139.01  83.9498
 46.5256  7257.58  84.5842
 46.5676  7079.57  83.6534
 46.6096  7280.58  84.7634
 46.6516  7103.37  82.7902
 46.6936  7231.77  84.0206
 46.7356  7189.98  83.8727
 46.7776  7178.03  84.6392
 46.8196  7132.19  83.9752
 46.8616  6999.42  83.1282
 46.9036  7116  83.4857
 46.9456  6965.2  82.2369
 46.9876  7153.08  83.4237
 47.0296  7131.93  83.9794
 47.0716  7045.74  83.3031
 47.1136  6996.94  82.6938
 47.1556  7101.28  83.1837
 47.1976  7115.17  83.3376
 47.2396  7083.34  83.5439
 47.2816  7019.95  82.8826
 47.3236  7070.81  83.5434
 47.3656  7121.55  83.7832
 47.4076  6952.2  82.5727
 47.4496  6956.15  82.6969
 47.4916  7014.26  83.2166
 47.5336  7078.97  83.4271
 47.5756  7122.42  83.7873
 47.6176  7010.76  83.0369
 47.6596  7003.1  82.715
 47.7016  7089.41  83.0377
 47.7436  7005.55  82.8784
 47.7856  7089.53  83.3999
 47.8276  6937.82  82.549
 47.8696  6986.5  82.92
 47.9116  7039.53  82.951
 47.9536  7034.99  82.8686
 47.9956  6949.56  83.0612
 48.0376  6919.57  82.6675
 48.0796  6987.73  83.1952
 48.1216  7061.45  83.4595
 48.1636  7027.52  82.8289
 48.2056  7030.61  83.1096
 48.2476  7016.67  83.3328
 48.2896  6991.53  83.0978
 48.3316  6912.45  82.5615
 48.3736  6915.25  82.6059
 48.4156  6853.52  82.0934
 48.4576  6938.7  82.89
 48.4996  7031.53  82.9121
 48.5416  6962.76  82.8147
 48.5836  6969.49  82.5375
 48.6256  6889.82  82.2713
 48.6676  6913.44  82.9128
 48.7096  6935.33  82.3241
 48.7516  6901.71  82.2717
 48.7936  6772.72  81.5634
 48.8356  6853.61  82.0909
 48.8776  6867.49  82.7478
 48.9196  6999.23  82.9001
 48.9616  6807.42  82.1346
 49.0036  6888.43  82.9613
 49.0456  6782.45  82.3069
 49.0876  6845.07  82.2294
 49.1296  6767.06  81.9259
 49.1716  6756.62  81.7254
 49.2136  6803.72  81.9335
 49.2556  6885  82.4647
 49.2976  6851.44  82.3209
 49.3396  6791.87  82.0227
 49.3816  6894.11  82.0703
 49.4236  6801.54  81.9347
 49.4656  6719.48  81.4643
 49.5076  6800.66  81.7031
 49.5496  6826.26  81.9299
 49.5916  6855.61  82.0033
 49.6336  6790.71  81.8237
 49.6756  6799.57  82.1049
 49.7176  6726.27  81.6064
 49.7596  6738.19  81.4466
 49.8016  6736.31  81.3705
 49.8436  6750.05  81.7372
 49.8856  6752.9  81.7603
 49.9276  6655.06  81.2682
 49.9696  6671.67  81.3478
 50.0116  6818.4  82.3696
 50.0536  6721.43  81.727
 50.0956  6658.92  81.4142
 50.1376  6741.73  81.614
 50.1796  6620.62  81.1484
 50.2216  6750.72  81.9381
 50.2636  6629.71  80.8266
 50.3056  6610.84  80.8878
 50.3476  6702.03  81.459
 50.3896  6579.98  80.6885
 50.4316  6764.41  81.6472
 50.4736  6638.28  81.0972
 50.5156  6736.34  81.6749
 50.5576  6628.97  80.8003
 50.5996  6585.44  80.8051
 50.6416  6617.98  80.9349
 50.6836  6588.49  80.8142
 50.7256  6610.99  80.8809
 50.7676  6667.63  81.5369
 50.8096  6667.74  81.08
 50.8516  6543.24  80.7258
 50.8936  6524.05  80.3949
 50.9356  6614.58  81.0508
 50.9776  6702.74  81.7429
 51.0196  6531.82  80.8206
 51.0616  6538.61  80.2071
 51.1036  6571.18  80.7454
 51.1456  6585.64  80.7632
 51.1876  6549.37  79.8898
 51.2296  6605.51  80.8594
 51.2716  6504.92  79.9419
 51.3136  6453.14  80.0716
 51.3556  6569.35  80.4199
 51.3976  6475.39  79.9961
 51.4396  6446.45  80.1195
 51.4816  6484.28  80.2063
 51.5236  6510.13  80.4551
 51.5656  6421.21  79.5134
 51.6076  6583.04  80.593
 51.6496  6478.39  80.1247
 51.6916  6421.87  80.1311
 51.7336  6459.22  80.4479
 51.7756  6512.34  80.4871
 51.8176  6422.28  80.0285
 51.8596  6550.02  80.8357
 51.9016  6556.79  80.4893
 51.9436  6465.98  81.362
 51.9856  6303.49  80.7542
 52.0276  6473.7  80.3605
 52.0696  6559.46  80.9537
 52.1116  6537.44  80.934
 52.1536  6363.38  79.7392
 52.1956  6495.54  80.0304
 52.2376  6553.26  80.5626
 52.2796  6488.62  79.976
 52.3216  6299.7  79.4756
 52.3636  6449.17  79.9984
 52.4056  6501.32  80.1712
 52.4476  6350.81  79.6026
 52.4896  6190.11  78.6415
 52.5316  6375.95  79.8463
 52.5736  6445.44  80.02
 52.6156  6341.23  79.7392
 52.6576  6364.83  79.3456
 52.6996  6129.3  78.7965
 52.7416  6331.96  79.95
 52.7836  6412.64  80.3393
 52.8256  6376.12  79.3499
 52.8676  6200.63  78.8054
 52.9096  6224.21  79.044
 52.9516  6365.5  80.3097
 52.9936  6308.07  80.3351
 53.0356  6313.11  79.3881
 53.0776  6207.7  78.9769
 53.1196  6143.23  78.6896
 53.1616  6208.21  79.1507
 53.2036  6200.87  79.0612
 53.2456  6157.13  78.8806
 53.2876  6246.12  79.1585
 53.3296  6242.21  79.4541
 53.3716  6199.79  78.9298
 53.4136  6196.66  79.0578
 53.4556  6166.25  78.8967
 53.4976  6119.23  78.4475
 53.5396  6239.37  79.6019
 53.5816  6181  78.8683
 53.6236  6118.43  78.8044
 53.6656  6271.26  79.4147
 53.7076  6327.53  79.7284
 53.7496  6222.02  79.1755
 53.7916  6271.08  79.6189
 53.8336  6159.07  78.7977
 53.8756  6051.32  78.6454
 53.9176  6234.25  79.178
 53.9596  6249.78  80.0283
 54.0016  6132.91  78.6277
 54.0436  6174.66  79.099
 54.0856  6283.65  79.2234
 54.1276  6199.68  78.8927
 54.1696  6172.97  78.8945
 54.2116  6190.52  78.7644
 54.2536  6257.93  79.0112
 54.2956  6141.8  78.3264
 54.3376  6092.88  78.4791
 54.3796  6123.78  78.5825
 54.4216  6263.86  79.522
 54.4636  6217.3  79.1865
 54.5056  6240.9  79.1563
 54.5476  6154.76  78.9394
 54.5896  6195.9  79.037
 54.6316  6206.27  78.9625
 54.6736  6137.03  78.5923
 54.7156  6079.66  78.2472
 54.7576  6166.89  78.8091
 54.7996  6198.81  79.1389
 54.8416  6174.7  79.0342
 54.8836  6064.38  78.4366
 54.9256  6186.26  78.9737
 54.9676  6160.5  78.6677
 55.0096  6078.25  78.209
 55.0516  6136.01  78.8091
 55.0936  6066.43  78.0019
 55.1356  6116.4  78.3665
 55.1776  6111.27  78.5888
 55.2196  6103.62  78.3266
 55.2616  6171.23  78.9718
 55.3036  6169.15  79.1177
 55.3456  6192.72  79.4145
 55.3876  6149.8  78.891
 55.4296  6067.08  78.3329
 55.4716  6140.47  78.841
 55.5136  6096.46  78.3183
 55.5556  6077.28  78.2595
 55.5976  6038.46  78.0715
 55.6396  6031.03  77.9665
 55.6816  6135.78  78.525
 55.7236  6138.73  78.578
 55.7656  6088.42  78.0229
 55.8076  6177.26  78.571
 55.8496  6031.11  77.9522
 55.8916  6043.79  78.2392
 55.9336  6090.34  78.3429
 55.9756  6030.08  77.8582
 56.0176  6181.41  78.9802
 56.0596  5965.68  77.5765
 56.1016  6106.36  78.4876
 56.1436  6152.27  79.0478
 56.1856  6070.42  78.2696
 56.2276  6148.03  78.8129
 56.2696  6059.78  78.2216
 56.3116  6030.74  78.4322
 56.3536  6080.5  78.4193
 56.3956  6003.39  77.9097
 56.4376  6015.23  78.0207
 56.4796  6127.61  78.5513
 56.5216  6052.42  78.4319
 56.5636  6080.45  78.2146
 56.6056  6094.98  78.5341
 56.6476  6099.46  78.1959
 56.6896  6141.22  78.9018
 56.7316  6018.21  78.0253
 56.7736  6054.97  78.2601
 56.8156  6079.98  78.4207
 56.8576  5941.29  77.4635
 56.8996  6057.37  78.1515
 56.9416  6037.67  78.3313
 56.9836  5990.41  77.5399
 57.0256  6118.49  78.6793
 57.0676  5945.72  77.6723
 57.1096  6069.14  78.2781
 57.1516  6079.85  78.406
 57.1936  6001.06  77.6512
 57.2356  6029.65  78.1485
 57.2776  6065.72  78.344
 57.3196  6094.36  78.8859
 57.3616  6058.11  78.1557
 57.4036  6165.34  78.9054
 57.4456  6028.91  77.9915
 57.4876  5941.89  77.2855
 57.5296  5954.42  77.6993
 57.5716  5971.31  77.8002
 57.6136  6046.98  78.114
 57.6556  6005.2  77.9858
 57.6976  5959.18  77.5122
 57.7396  6013.69  78.2365
 57.7816  5925.94  78.0115
 57.8236  5924.56  77.8032
 57.8656  5979.26  77.8245
 57.9076  5960.23  77.7236
 57.9496  6034.73  78.561
 57.9916  5978.79  77.7156
 58.0336  5935.17  77.7006
 58.0756  5937.64  77.3628
 58.1176  6031.59  77.9608
 58.1596  5978.5  78.1798
 58.2016  6008.96  77.6125
 58.2436  6018.67  78.0908
 58.2856  5992.46  77.833
 58.3276  6024.28  78.4167
 58.3696  5968.4  77.7994
 58.4116  6023.19  78.0273
 58.4536  6128.92  78.5987
 58.4956  5900.61  77.2942
 58.5376  5967.36  77.3067
 58.5796  6045.19  78.2262
 58.6216  5970.36  77.5604
 58.6636  6151.15  78.9353
 58.7056  6104.71  78.4997
 58.7476  5902.83  77.6321
 58.7896  5991.15  77.8569
 58.8316  6017.04  78.0238
 58.8736  6012.38  77.9989
 58.9156  5991.7  77.9137
 58.9576  6218.73  79.6871
 58.9996  6124.49  78.3206
 59.0416  6245.13  79.4556
 59.0836  6020.53  77.9477
 59.1256  5911.75  77.9285
 59.1676  5997.52  78.807
 59.2096  6080.08  78.6365
 59.2516  6187.3  78.9029
 59.2936  6266.54  79.7407
 59.3356  5968.05  77.6968
 59.3776  6241.36  79.6278
 59.4196  5979.65  77.8766
 59.4616  5942.75  77.4972
 59.5036  5941.77  77.526
 59.5456  6132.59  78.452
 59.5876  6237.36  79.3135
 59.6296  6021.57  77.9985
 59.6716  6001.78  77.928
 59.7136  6004.57  77.9344
 59.7556  5912.78  77.4714
 59.7976  6086.69  78.3437
 59.8396  6067.44  78.1137
 59.8816  5937.26  77.8122
 59.9236  6117.22  78.6238
 59.9656  5975.5  77.9626
 60.0076  5975.75  77.3294
 60.0496  6146.64  78.9351
 60.0916  6145.86  78.3437
 60.1336  5876.06  77.6968
 60.1756  6029.96  79.8909
 60.1996  0.0000000E+00  0.0000000E+00