File: docs/examples/XRD/IS17_D/Data/IS17_D/17_Db_f00073.xye
# /beamlines/bl04/projects/cycle2025-II/20250340211-lsimonelli/DATA/IS17_D/17_Db_f00073.xye : mythproc.py merge -s 0.006 -l 0.5 -f /beamlines/bl04/inhouse/ff/FlatField/ff_20Nov2024rod8mm60s_17keV.raw -b True -c true -o xye /beamlines/bl04/projects/cycle2025-II/20250340211-lsimonelli/DATA/IS17_D/17_Db_00073.dat
# IsMon = [6780390, 6781851, 6779337]  IsPos = [-1.4999, -2.4883, -3.4988]
# Wave = 0.4962  CalPath /beamlines/bl04/projects/cycle2025-II/20250340211-lsimonelli/DATA/Align/Si_Pos1_25keV_f00001.cal
# Date = 2025-09-24_14:00:56 Dt = 4.8000  Bin = 0.0060  <imon> = 6780526 +/- 1031 (Min/Max) 6779337 / 6781851
# icurr 252.3100  mocoIn 1.7214E-05  mocoOut 0.8077  i15 7.10237e+06  imon 6.78053e+06  i7 6.3333  iEMpd_timer 4.8000  iEMpd_1 3.2954E-08  iEMpd_2 7.9009E-08  iEMpd_3 1.5314E-08  iEMpd_4 4.7378E-08  iEMhp_timer 4.8000  iEMhp_1 4.9280E-06  iEMhp_2 -2.5754E-08  iEMhp_3 -2.4775E-08  iEMhp_4 -2.1872E-08
#      9776
 1.5856  43411.2  213.948
 1.6276  49123.9  223.685
 1.6696  55165.6  236.206
 1.7116  62804.4  252.522
 1.7536  70640.3  266.672
 1.7956  74885.7  275.254
 1.8376  71551.2  269.483
 1.8796  61342.4  247.685
 1.9216  50776.8  226.243
 1.9636  43582.8  208.746
 2.0056  39187  197.171
 2.0476  36142.3  191.433
 2.0896  35584  188.834
 2.1316  34506.9  185.06
 2.1736  32488  180.99
 2.2156  33333.3  181.858
 2.2576  32127.2  179.177
 2.2996  30740  175.91
 2.3416  31546.2  176.778
 2.3836  30875.5  174.998
 2.4256  29829.8  172.569
 2.4676  29478.6  171.307
 2.5096  29877.9  172.52
 2.5516  36407  194.763
 2.5936  168012  409.696
 2.6356  31157.9  177.338
 2.6776  27932.7  166.808
 2.7196  27251.5  164.863
 2.7616  26771  163.577
 2.8036  26308.9  162.322
 2.8456  26093.3  162.288
 2.8876  25461  160.173
 2.9296  25056.3  159.015
 2.9716  24664  157.275
 3.0136  24668.4  157.348
 3.0556  24904.7  158.49
 3.0976  24738.8  156.878
 3.1396  24248.9  156.042
 3.1816  24237.7  155.66
 3.2236  23899.8  154.84
 3.2656  23892.9  153.874
 3.3076  23674.4  154.623
 3.3496  23642.2  153.457
 3.3916  24479.5  155.969
 3.4336  24682.2  157.205
 3.4756  25045.4  158.295
 3.5176  25827.2  160.51
 3.5596  25330.8  161.381
 3.6016  25666.6  160.091
 3.6436  24693.5  158.122
 3.6856  24340.1  155.306
 3.7276  23320.4  153.082
 3.7696  23121  152.619
 3.8116  22880.7  151.715
 3.8536  22944.3  151.863
 3.8956  23085  152.143
 3.9376  23795.8  154.738
 3.9796  22763.6  150.842
 4.0216  22770.4  149.912
 4.0636  22804.9  151.476
 4.1056  22838.5  151.247
 4.1476  23079.2  152.346
 4.1896  23210  152.646
 4.2316  23314.5  152.819
 4.2736  23711.1  153.91
 4.3156  23883.4  154.704
 4.3576  24619.6  156.96
 4.3996  24821.5  157.882
 4.4416  25613.2  159.961
 4.4836  27185.5  164.962
 4.5256  26780.7  164.338
 4.5676  26308.2  163.138
 4.6096  27037.6  164.035
 4.6516  27538.2  165.256
 4.6936  27386.5  165.626
 4.7356  28443.4  168.606
 4.7776  27479.8  165.552
 4.8196  27351.8  165.818
 4.8616  26563.4  162.902
 4.9036  26588.7  162.718
 4.9456  26906.6  164.338
 4.9876  25986.5  161.402
 5.0296  25880.5  160.916
 5.0716  25646.5  160.938
 5.1136  25978.2  161.696
 5.1556  26157.4  161.714
 5.1976  36429.5  190.801
 5.2396  26951.9  163.841
 5.2816  26871.5  164.064
 5.3236  26508.2  162.652
 5.3656  26073.3  162.23
 5.4076  25912.5  161.867
 5.4496  26032.4  161.743
 5.4916  25995.3  161.383
 5.5336  25955.7  161.266
 5.5756  26063  161.617
 5.6176  26130.7  161.277
 5.6596  26417.2  163.129
 5.7016  26493.3  162.634
 5.7436  26600.5  163.238
 5.7856  26602.2  163.31
 5.8276  26814.4  163.678
 5.8696  27086.7  164.679
 5.9116  26819.6  164.16
 5.9536  27308.1  165.688
 5.9956  27436.2  165.476
 6.0376  27529.8  166.371
 6.0796  27591.2  166.389
 6.1216  27663.1  166.851
 6.1636  27824.5  166.354
 6.2056  27815.9  166.999
 6.2476  27984  167.377
 6.2896  28396.5  168.287
 6.3316  28210.7  167.906
 6.3736  28314.6  168.112
 6.4156  28513.3  168.578
 6.4576  28548.4  168.308
 6.4996  28423.6  168.42
 6.5416  28658.4  169.238
 6.5836  29086.2  170.736
 6.6256  28946.2  169.882
 6.6676  29187.1  170.157
 6.7096  29445.5  171.768
 6.7516  29566.7  171.782
 6.7936  30798.7  174.719
 6.8356  31379.4  176.454
 6.8776  30724.2  175.417
 6.9196  30221.5  174.364
 6.9616  30565.8  174.8
 7.0036  30947.7  175.555
 7.0456  31252  175.718
 7.0876  30960  176.564
 7.1296  31155.7  176.258
 7.1716  31031.8  175.449
 7.2136  30662.1  174.185
 7.2556  31024.3  175.367
 7.2976  30945.9  175.634
 7.3396  30970.1  175.916
 7.3816  30910.2  175.964
 7.4236  31460.3  176.823
 7.4656  31532.7  176.486
 7.5076  31591.4  176.806
 7.5496  31361.3  176.697
 7.5916  31603.6  177.422
 7.6336  32481  179.749
 7.6756  32161.2  178.713
 7.7176  32684.1  180.479
 7.7596  32427.5  180.984
 7.8016  39506.5  202.208
 7.8436  32909.3  181.23
 7.8856  32911.9  180.846
 7.9276  33657.8  183.286
 7.9696  33731.5  183.791
 8.0116  34733.9  185.058
 8.0536  35416.5  187.114
 8.0956  37701.9  194.264
 8.1376  35575.4  188.19
 8.1796  35804.6  189.324
 8.2216  36832.1  190.767
 8.2636  38277.8  194.753
 8.3056  36925.6  192.036
 8.3476  39620.1  198.223
 8.3896  38162.6  194.613
 8.4316  36973  191.73
 8.4736  37201.2  191.791
 8.5156  36696.5  190.761
 8.5576  36455.7  191.715
 8.5996  36307.7  189.595
 8.6416  36524.8  191.403
 8.6836  36389.6  190.898
 8.7256  37178.1  192.385
 8.7676  40110.8  202.893
 8.8096  41071.4  202.453
 8.8516  37351.1  192.636
 8.8936  39966  199.22
 8.9356  36925  191.82
 8.9776  36832.7  191.658
 9.0196  36746.4  191.107
 9.0616  37144  191.637
 9.1036  39964.2  200.005
 9.1456  36321.4  190.01
 9.1876  36004.6  189.112
 9.2296  35587.7  187.464
 9.2716  35258.1  186.632
 9.3136  35212.8  186.508
 9.3556  35656.4  187.652
 9.3976  34521.2  185.147
 9.4396  34603.7  185.28
 9.4816  34333.2  184.412
 9.5236  34069.5  183.602
 9.5656  33787.1  183.192
 9.6076  33119.6  181.9
 9.6496  33573.2  183.025
 9.6916  32824.7  180.93
 9.7336  33602.3  182.846
 9.7756  33229.8  183.088
 9.8176  32767.9  181.285
 9.8596  32866.6  180.02
 9.9016  32571.1  179.203
 9.9436  32500.3  178.922
 9.9856  32732.3  179.834
 10.0276  31339.7  177.006
 10.0696  31760.7  177.249
 10.1116  31214.4  175.988
 10.1536  31069.7  175.725
 10.1956  30316.9  173.209
 10.2376  30408.3  172.982
 10.2796  30181  172.447
 10.3216  29920.1  171.978
 10.3636  29750  171.52
 10.4056  33433.8  182.258
 10.4476  34003.5  183.384
 10.4896  38235.5  194.005
 10.5316  34078  183.773
 10.5736  29756.5  172.148
 10.6156  29622.7  171.515
 10.6576  35216.4  185.42
 10.6996  29441.3  170.247
 10.7416  28545.6  167.86
 10.7836  29221  170.521
 10.8256  27243.8  165.079
 10.8676  27369.5  164.995
 10.9096  27511.7  165.471
 10.9516  26961.4  162.747
 10.9936  28122.8  166.431
 11.0356  27757.7  165.97
 11.0776  29261.2  169.699
 11.1196  28888.3  169.417
 11.1616  26646.2  162.371
 11.2036  27883.8  165.951
 11.2456  30015.9  172.933
 11.2876  26633.4  162.625
 11.3296  26473.1  162.045
 11.3716  26841.3  162.853
 11.4136  26249  161.932
 11.4556  26543.3  162.496
 11.4976  28155.9  166.308
 11.5396  27662.4  165.018
 11.5816  26096.7  160.727
 11.6236  25315.9  158.531
 11.6656  25889.2  159.467
 11.7076  24931.6  157.315
 11.7496  25603.3  163.451
 11.7916  25865.8  159.477
 11.8336  24496.3  156.09
 11.8756  25173.4  157.779
 11.9176  24496.4  155.309
 11.9596  24401.1  155.182
 12.0016  24268.1  155.248
 12.0436  24288.1  155.038
 12.0856  23750.2  153.808
 12.1276  23936.8  154.368
 12.1696  23806.8  153.068
 12.2116  24274  154.563
 12.2536  27344.8  164.923
 12.2956  24489.2  155.406
 12.3376  24480  155.582
 12.3796  24229.7  155.272
 12.4216  24476.3  155.255
 12.4636  25555.7  159.603
 12.5056  23709.7  152.995
 12.5476  23730.6  152.582
 12.5896  23515.2  152.53
 12.6316  23659.4  153.145
 12.6736  23232.7  152.415
 12.7156  24105.9  154.91
 12.7576  23530.3  153.308
 12.7996  23982.2  153.414
 12.8416  24169  155.07
 12.8836  25076.6  157.694
 12.9256  24485.9  154.933
 12.9676  24300.7  154.755
 13.0096  24236.1  155.663
 13.0516  24119.1  154.325
 13.0936  24151.9  154.828
 13.1356  24387.5  154.553
 13.1776  24559.5  156.119
 13.2196  23985  153.922
 13.2616  23787.2  153.602
 13.3036  24025.6  154.334
 13.3456  23833.9  154.063
 13.3876  24533  155.574
 13.4296  24038.5  154.17
 13.4716  24441.8  155.083
 13.5136  24325.5  154.847
 13.5556  24572.1  156.265
 13.5976  24162.7  155.115
 13.6396  24499  155.553
 13.6816  24625.7  156.43
 13.7236  24987.1  157.151
 13.7656  26539.9  162.372
 13.8076  28237.3  166.18
 13.8496  26800.3  162.537
 13.8916  24957  157.998
 13.9336  23779.2  153.509
 13.9756  23766.9  152.845
 14.0176  23520.2  152.724
 14.0596  24921.1  157.137
 14.1016  23720.7  153.728
 14.1436  23485.6  152.097
 14.1856  23109.1  151.163
 14.2276  23206.3  151.968
 14.2696  23433.5  152.555
 14.3116  22575.6  149.65
 14.3536  22251.1  148.73
 14.3956  22011.8  147.657
 14.4376  22257.5  148.267
 14.4796  22050.9  147.579
 14.5216  21937.3  147.98
 14.5636  22483.3  149.377
 14.6056  21998.7  147.316
 14.6476  21688.5  145.532
 14.6896  21307.8  144.786
 14.7316  20907.4  144.434
 14.7736  20725.1  142.955
 14.8156  20728.8  142.995
 14.8576  20779.9  143.032
 14.8996  20725.6  144.042
 14.9416  20087.3  141.82
 14.9836  20170.2  142.099
 15.0256  19709.2  139.382
 15.0676  19491.7  139.051
 15.1096  19118.2  137.323
 15.1516  18929.1  137.186
 15.1936  18839  136.305
 15.2356  19024.4  137.12
 15.2776  18904.7  136.409
 15.3196  18697.6  136.648
 15.3616  18286.3  134.901
 15.4036  18281.5  134.735
 15.4456  18930.7  136.765
 15.4876  18467.2  134.763
 15.5296  17914.5  133.005
 15.5716  17591.9  131.422
 15.6136  17850.1  132.698
 15.6556  20746.4  142.257
 15.6976  18251.8  133.721
 15.7396  17954.8  133.023
 15.7816  17901.1  132.335
 15.8236  17251.1  130.595
 15.8656  17243.8  130.36
 15.9076  17412.4  130.818
 15.9496  18896  139.168
 15.9916  17396.5  133.938
 16.0336  17755.7  132.182
 16.0756  17606.9  131.957
 16.1176  17126.9  130.218
 16.1596  16889.3  130.478
 16.2016  16790.2  128.871
 16.2436  16851  129.472
 16.2856  16727  128.523
 16.3276  16316.7  127.374
 16.3696  16508.4  127.937
 16.4116  16435  128.077
 16.4536  16502.1  128.171
 16.4956  17544.3  131.878
 16.5376  16743.2  129.022
 16.5796  16548.1  127.631
 16.6216  16524.9  127.784
 16.6636  16394.4  127.501
 16.7056  16349.5  127.182
 16.7476  16243.7  126.299
 16.7896  16441.8  127.814
 16.8316  16253  127.061
 16.8736  16721  129.127
 16.9156  16479.5  128.527
 16.9576  16022.2  127.514
 16.9996  16239  128.83
 17.0416  16245.4  127.246
 17.0836  15933  125.78
 17.1256  16005.6  126.076
 17.1676  16537.1  128.106
 17.2096  16257.1  126.921
 17.2516  16150.7  126.288
 17.2936  15562.7  124.315
 17.3356  15279.6  123.158
 17.3776  15449.9  124.038
 17.4196  15226.4  122.836
 17.4616  15649.4  124.441
 17.5036  16168  126.851
 17.5456  15087.4  123.161
 17.5876  15219.4  122.765
 17.6296  15111.7  122.163
 17.6716  15452  124.112
 17.7136  16482.3  128.316
 17.7556  15197.7  123.516
 17.7976  15461.8  124.309
 17.8396  15291.8  123.121
 17.8816  14675.8  121.176
 17.9236  14708.7  121.105
 17.9656  14911.7  122.476
 18.0076  15669.7  125.125
 18.0496  16458.8  127.33
 18.0916  20741.5  143.588
 18.1336  18651.1  136.268
 18.1756  16034.2  125.868
 18.2176  16396.5  127.512
 18.2596  14903.3  121.285
 18.3016  15482.7  123.897
 18.3436  16021.6  126.03
 18.3856  15237.1  123.044
 18.4276  14753.3  120.76
 18.4696  15034.7  121.994
 18.5116  14962.2  121.972
 18.5536  14587.5  120.813
 18.5956  14792.8  121.21
 18.6376  14859.4  121.888
 18.6796  14404.4  119.317
 18.7216  14521.5  120.3
 18.7636  14493.3  120.189
 18.8056  13940.8  117.801
 18.8476  13850.3  118.045
 18.8896  13754.2  116.976
 18.9316  14180.3  118.756
 18.9736  14073.7  118.008
 19.0156  14405.6  119.809
 19.0576  14750.3  120.059
 19.0996  14117  118.303
 19.1416  14389.2  119.698
 19.1836  13852  117.051
 19.2256  13645.9  116.398
 19.2676  13885.9  117.503
 19.3096  13717.5  117.03
 19.3516  13768.3  117.211
 19.3936  13932.9  117.795
 19.4356  13972  117.848
 19.4776  13915.9  117.7
 19.5196  13864.8  117.334
 19.5616  13870.6  117.62
 19.6036  13879  117.156
 19.6456  14102.9  118.202
 19.6876  14475.1  119.386
 19.7296  13974.5  117.766
 19.7716  13657.9  116.598
 19.8136  14279.7  119.418
 19.8556  14730.9  120.765
 19.8976  14848.4  121.305
 19.9396  14549.6  119.665
 19.9816  14502.9  119.797
 20.0236  14919.4  121.628
 20.0656  13793.4  116.95
 20.1076  13679.8  116.933
 20.1496  13454.2  115.956
 20.1916  13765.1  116.815
 20.2336  13565.7  115.889
 20.2756  13267.9  115.033
 20.3176  13336.6  115.079
 20.3596  13260.1  114.743
 20.4016  13333.9  114.857
 20.4436  13285.6  115.209
 20.4856  13202.2  114.639
 20.5276  13165.4  114.941
 20.5696  13252.4  114.77
 20.6116  13300.3  115.255
 20.6536  13044.2  113.66
 20.6956  13122.5  114.128
 20.7376  12998.2  113.793
 20.7796  13024.4  113.609
 20.8216  13098.4  113.637
 20.8636  13595.1  116.159
 20.9056  14682.4  120.629
 20.9476  13457.1  115.345
 20.9896  14289.2  118.718
 21.0316  13262.2  114.275
 21.0736  13460.4  115.652
 21.1156  13841.1  117.438
 21.1576  13269.9  115.031
 21.1996  12881.5  113.321
 21.2416  12912.9  113.27
 21.2836  13266.1  114.795
 21.3256  13032.2  113.855
 21.3676  12971.2  113.13
 21.4096  13333.5  115.019
 21.4516  12949  113.216
 21.4936  12743.8  112.583
 21.5356  13007.7  113.69
 21.5776  12977.6  113.394
 21.6196  13086.5  113.904
 21.6616  13050.8  113.835
 21.7036  12911.7  112.997
 21.7456  12681.5  112.06
 21.7876  12528.3  111.154
 21.8296  12515.9  110.942
 21.8716  12580.7  111.451
 21.9136  12937.7  113.234
 21.9556  13005.4  113.193
 21.9976  12706.3  111.918
 22.0396  12627  111.818
 22.0816  12572.7  112.107
 22.1236  13073.4  113.772
 22.1656  12637.5  112.002
 22.2076  12435.2  110.558
 22.2496  12359.2  110.246
 22.2916  12533.1  110.909
 22.3336  12527.4  111.598
 22.3756  12403.3  110.771
 22.4176  12324.1  110.274
 22.4596  11962.5  109.223
 22.5016  12311  110.307
 22.5436  12467  110.88
 22.5856  12744.1  112.351
 22.6276  12422.3  111.093
 22.6696  12290.8  110.821
 22.7116  12182.9  109.843
 22.7536  12353  110.59
 22.7956  12330.4  109.822
 22.8376  12184.8  109.696
 22.8796  12191.1  109.523
 22.9216  12294.6  110.532
 22.9636  12079.6  108.721
 23.0056  12289.9  109.799
 23.0476  12418.9  110.943
 23.0896  12565.6  110.976
 23.1316  12475.5  111.011
 23.1736  12271.5  112.793
 23.2156  12461.3  111.284
 23.2576  12867.4  113.205
 23.2996  12401  110.915
 23.3416  12686.6  112.713
 23.3836  12570.4  111.427
 23.4256  12728.2  112.244
 23.4676  12618.4  111.452
 23.5096  12551.4  111.813
 23.5516  12352.6  110.235
 23.5936  12786.3  113.071
 23.6356  12822.5  112.892
 23.6776  12454.9  111.477
 23.7196  12214.6  109.974
 23.7616  12586.6  111.556
 23.8036  12585.6  111.602
 23.8456  12277.5  109.788
 23.8876  12340.2  110.418
 23.9296  12267.3  110.578
 23.9716  12264.9  109.778
 24.0136  12305.6  110.86
 24.0556  12347.9  110.762
 24.0976  12192.1  109.883
 24.1396  11956.1  111.418
 24.1816  12229.4  111.074
 24.2236  12081.4  110.026
 24.2656  12265.6  110.335
 24.3076  12250.2  110.54
 24.3496  12399.9  111.088
 24.3916  12332.9  110.843
 24.4336  12216.6  110.526
 24.4756  12135.3  110.037
 24.5176  12025.7  109.162
 24.5596  11956.6  108.973
 24.6016  11624.6  107.742
 24.6436  12091.8  109.392
 24.6856  11890  108.209
 24.7276  11927  108.709
 24.7696  11748.3  108.003
 24.8116  11783.1  108.335
 24.8536  11809.3  108.468
 24.8956  11559.2  107.035
 24.9376  11743.1  107.822
 24.9796  11699.8  107.992
 25.0216  11678  108.007
 25.0636  11787.9  108.157
 25.1056  11383  106.99
 25.1476  11367.2  108.558
 25.1896  11287.2  106.682
 25.2316  11313.5  106.085
 25.2736  11402.5  106.141
 25.3156  11204.1  105.293
 25.3576  11179.5  105.605
 25.3996  11194.8  105.671
 25.4416  11155  105.456
 25.4836  11013.2  105.299
 25.5256  11213.3  105.615
 25.5676  11176.4  105.166
 25.6096  10947.2  104.659
 25.6516  11095.5  104.863
 25.6936  11147.9  105.428
 25.7356  10907.5  104.415
 25.7776  11210.9  105.457
 25.8196  11015.5  104.776
 25.8616  11117.8  105.193
 25.9036  11265.6  105.338
 25.9456  10956  104.477
 25.9876  10830.7  103.938
 26.0296  11041.6  104.453
 26.0716  11120.5  105.264
 26.1136  11274.6  105.922
 26.1556  11260.1  105.233
 26.1976  10791.9  103.941
 26.2396  10953.8  103.873
 26.2816  10813  103.81
 26.3236  10995.2  104.828
 26.3656  11098.4  105.038
 26.4076  10725.8  103.448
 26.4496  11053.9  104.628
 26.4916  11191.5  105.178
 26.5336  11463.1  106.798
 26.5756  11804.3  108.25
 26.6176  11169.7  105.289
 26.6596  10932.7  104.502
 26.7016  10672.5  103.019
 26.7436  10695.8  103.254
 26.7856  10590.6  102.741
 26.8276  10614.4  102.82
 26.8696  10557.1  102.415
 26.9116  10497.9  102.055
 26.9536  10414.8  101.704
 26.9956  10393.2  101.637
 27.0376  10450.4  102.134
 27.0796  10499.2  102.102
 27.1216  10632.1  102.799
 27.1636  10401.7  101.858
 27.2056  10452.6  101.988
 27.2476  10527.2  102.347
 27.2896  10311.1  101.432
 27.3316  10349.6  101.307
 27.3736  10260.1  101.139
 27.4156  10427.6  101.8
 27.4576  10473.3  102.233
 27.4996  10487.1  101.918
 27.5416  10413.2  101.865
 27.5836  10392.6  101.6
 27.6256  10305.9  101.359
 27.6676  10215.1  100.901
 27.7096  10342.7  101.404
 27.7516  10806.8  103.813
 27.7936  10985.8  104.811
 27.8356  10832.9  103.686
 27.8776  10809.1  103.623
 27.9196  10420.6  101.618
 27.9616  10687.5  103.113
 28.0036  10462.1  101.987
 28.0456  10150.2  100.591
 28.0876  10121  100.53
 28.1296  10114.6  100.266
 28.1716  10311.5  101.32
 28.2136  10162.7  100.553
 28.2556  10156.8  100.64
 28.2976  10048.4  100.096
 28.3396  10111.5  100.173
 28.3816  10100.4  100.118
 28.4236  10091.2  100.231
 28.4656  9999.97  99.813
 28.5076  9804.11  98.4758
 28.5496  9935.73  99.3859
 28.5916  9862.7  98.8398
 28.6336  9930.9  99.5234
 28.6756  9966.32  98.8969
 28.7176  10010.8  99.5559
 28.7596  9699.3  98.0066
 28.8016  9714.22  98.1141
 28.8436  9802  98.7962
 28.8856  9814.94  98.7591
 28.9276  9928.62  99.5335
 28.9696  9811.34  98.5907
 29.0116  9689.62  98.1771
 29.0536  9734.91  98.6111
 29.0956  9804.39  98.6652
 29.1376  9639.97  97.8008
 29.1796  9742.22  98.364
 29.2216  9743.9  98.2172
 29.2636  9670.15  97.9111
 29.3056  9558.94  97.1389
 29.3476  9715.15  98.452
 29.3896  9704.27  98.5183
 29.4316  9696.63  97.8058
 29.4736  9504.35  96.8952
 29.5156  9695.09  97.7841
 29.5576  9475.42  97.3977
 29.5996  9421.54  96.3935
 29.6416  9417.48  96.4862
 29.6836  9372.64  96.1839
 29.7256  9429.43  96.8035
 29.7676  9513.56  97.1364
 29.8096  9317.42  96.0684
 29.8516  9192.61  95.7563
 29.8936  9406.1  96.9495
 29.9356  9492.77  97.152
 29.9776  9443.61  97.0485
 30.0196  9346.95  96.2175
 30.0616  9408.19  96.6348
 30.1036  9431.24  96.5708
 30.1456  9274.4  96.006
 30.1876  9244.02  95.8218
 30.2296  9268.55  95.905
 30.2716  9293.66  95.6717
 30.3136  9281.76  96.4586
 30.3556  9552.7  97.8628
 30.3976  9594.56  99.5949
 30.4396  9897.1  98.4485
 30.4816  9520.39  96.1637
 30.5236  9573.34  96.4269
 30.5656  9450.63  96.4705
 30.6076  9470.14  95.9915
 30.6496  9533.29  96.7035
 30.6916  9426.48  96.2609
 30.7336  9454.92  96.5497
 30.7756  9385.7  96.2836
 30.8176  9394.17  96.2396
 30.8596  9342.45  95.7258
 30.9016  9260.76  95.6748
 30.9436  9455.06  96.4196
 30.9856  9659.74  97.5576
 31.0276  9410.42  95.9306
 31.0696  9410.04  96.4893
 31.1116  9221.73  95.4955
 31.1536  9403.28  96.2979
 31.1956  9538.95  97.0819
 31.2376  9083.55  94.7587
 31.2796  9238.9  95.1062
 31.3216  9360.19  95.6273
 31.3636  9221.99  95.6378
 31.4056  9272.96  97.2228
 31.4476  9375.17  95.6438
 31.4896  9351.54  96.0212
 31.5316  9418.54  95.7674
 31.5736  10232.6  99.6457
 31.6156  9977.24  98.3987
 31.6576  9682.28  97.009
 31.6996  9649.22  96.5111
 31.7416  9377.31  96.2365
 31.7836  9463.98  95.6671
 31.8256  9455.98  95.9014
 31.8676  9544.66  96.3394
 31.9096  9264.59  95.2836
 31.9516  9190.56  95.073
 31.9936  9137.57  94.617
 32.0356  9285.1  95.4402
 32.0776  9350.86  95.6432
 32.1196  9425.04  96.1486
 32.1616  9282.82  94.8705
 32.2036  9359.15  95.7738
 32.2456  9229.58  95.4825
 32.2876  9206.22  94.8645
 32.3296  9155.55  94.5696
 32.3716  9035.23  94.0597
 32.4136  8981.62  93.9874
 32.4556  9189.71  94.4427
 32.4976  9065.73  93.7176
 32.5396  8980.18  93.3243
 32.5816  9074.77  93.9551
 32.6236  8947.74  93.3586
 32.6656  9106.25  94.7293
 32.7076  8938.15  93.5082
 32.7496  8922.42  93.0971
 32.7916  8934.57  93.1164
 32.8336  8942.63  93.2529
 32.8756  9068.31  93.6281
 32.9176  9011.76  93.828
 32.9596  9027.92  93.9781
 33.0016  9028.46  93.7514
 33.0436  9042.94  94.013
 33.0856  8900.41  93.3569
 33.1276  8864.23  92.8888
 33.1696  8934.24  93.0893
 33.2116  8910.33  93.202
 33.2536  9134.13  94.3562
 33.2956  8926.09  93.3649
 33.3376  8939.96  93.1761
 33.3796  8956.59  93.4802
 33.4216  8903.98  92.7965
 33.4636  8864.31  92.7325
 33.5056  8680.93  92.0167
 33.5476  8891.21  93.0996
 33.5896  8872.97  92.799
 33.6316  8739.48  92.4033
 33.6736  8650.9  92.1831
 33.7156  8682.18  92.3813
 33.7576  8850.82  92.9146
 33.7996  8857.38  92.7135
 33.8416  8585.61  91.4644
 33.8836  8661.71  91.6428
 33.9256  8839.76  92.6378
 33.9676  8881.01  92.7481
 34.0096  8733.63  92.2902
 34.0516  8574.2  91.0896
 34.0936  8494.88  90.9326
 34.1356  8719.6  91.8627
 34.1776  8501.47  90.7058
 34.2196  8540.61  91.101
 34.2616  8577.27  91.4299
 34.3036  8549.68  91.5251
 34.3456  8530.4  91.178
 34.3876  8680.86  91.9535
 34.4296  8555.93  90.9817
 34.4716  8783.7  92.3367
 34.5136  8674.93  91.9632
 34.5556  8485.2  91.2005
 34.5976  8645.69  91.8699
 34.6396  8608.51  91.5034
 34.6816  8654.88  91.7325
 34.7236  8569.13  91.0542
 34.7656  8557.53  91.1975
 34.8076  8503.78  91.2422
 34.8496  8506.98  91.1913
 34.8916  8631.65  91.6411
 34.9336  8560.59  91.2461
 34.9756  8669.92  91.7483
 35.0176  8599.21  91.9031
 35.0596  8548.75  91.4519
 35.1016  8703.53  92.0288
 35.1436  8773.85  92.0918
 35.1856  8494.15  90.7136
 35.2276  8520.92  91.0446
 35.2696  8516.37  91.215
 35.3116  8551.34  91.5068
 35.3536  8468.91  90.7634
 35.3956  8481.89  90.5537
 35.4376  8580.98  91.645
 35.4796  8523.4  91.3683
 35.5216  8499.66  91.2173
 35.5636  8264.83  90.6778
 35.6056  8403.05  90.4574
 35.6476  8536.16  91.068
 35.6896  8523.98  91.0939
 35.7316  8365.04  90.2223
 35.7736  8488.1  91.0606
 35.8156  8394.78  90.5707
 35.8576  8416.56  90.9352
 35.8996  8465.96  91.1746
 35.9416  8404.56  90.3438
 35.9836  8497.08  91.1801
 36.0256  8574.11  91.6059
 36.0676  8539.95  91.1869
 36.1096  8581.55  91.5496
 36.1516  8483.95  90.9243
 36.1936  8565.32  91.1865
 36.2356  8415.8  91.0522
 36.2776  8344.31  90.1446
 36.3196  8323.39  89.6924
 36.3616  8323.57  89.8263
 36.4036  8301.86  89.7795
 36.4456  8421.36  90.6337
 36.4876  8239.55  89.5897
 36.5296  8258.22  89.7286
 36.5716  8442.62  91.5115
 36.6136  8429.02  90.2091
 36.6556  8434.26  90.4409
 36.6976  8207.8  89.7125
 36.7396  7959.18  88.2487
 36.7816  8143.98  89.4677
 36.8236  8146.35  89.3962
 36.8656  8066.47  89.0404
 36.9076  8148.93  89.3635
 36.9496  7989.04  88.4799
 36.9916  8079.31  88.6041
 37.0336  8165.08  89.3902
 37.0756  8072.94  88.678
 37.1176  7996.48  88.5229
 37.1596  8084.81  89.0187
 37.2016  8091.19  89.2734
 37.2436  8124.74  88.7824
 37.2856  8102.2  88.9078
 37.3276  8150.81  88.5302
 37.3696  7886.95  87.9505
 37.4116  8011.11  88.5555
 37.4536  7973.8  88.0618
 37.4956  7898.52  87.8446
 37.5376  8167.63  90.9181
 37.5796  8136.12  90.6663
 37.6216  8003.11  88.2063
 37.6636  8150.03  88.8895
 37.7056  8198.09  89.3533
 37.7476  8199.11  88.8947
 37.7896  7986.67  88.2491
 37.8316  8080.04  88.905
 37.8736  8041.85  88.2387
 37.9156  8053.95  88.2787
 37.9576  8206.26  89.0363
 37.9996  8019.83  87.7323
 38.0416  8030.37  88.5963
 38.0836  8102.39  88.8899
 38.1256  8146.19  89.1078
 38.1676  8121.86  89.0944
 38.2096  8154.75  88.8885
 38.2516  8035.55  88.4491
 38.2936  8116  88.691
 38.3356  8020.21  88.0992
 38.3776  7973.98  88.0862
 38.4196  8126.78  88.7965
 38.4616  8029.35  88.4984
 38.5036  8245.58  89.5267
 38.5456  7958.86  88.7769
 38.5876  7973.39  89.0531
 38.6296  8018.34  88.099
 38.6716  7951.92  87.531
 38.7136  7938.86  87.4075
 38.7556  7977  88.1221
 38.7976  8056.02  88.4907
 38.8396  7977.3  88.3224
 38.8816  7903.23  87.8836
 38.9236  8044.17  88.4758
 38.9656  8030.12  88.3046
 39.0076  8025.3  87.6773
 39.0496  8076.53  88.5167
 39.0916  8097.19  88.2743
 39.1336  7994.73  88.122
 39.1756  7966.57  88.0316
 39.2176  7894.61  88.1634
 39.2596  7888.85  88.0553
 39.3016  7848.67  87.3523
 39.3436  7890.56  88.0501
 39.3856  8101.78  88.6638
 39.4276  8115.34  89.2625
 39.4696  7998.3  88.2362
 39.5116  8090.93  89.2653
 39.5536  8071.84  89.5799
 39.5956  7923.86  87.8638
 39.6376  7928.43  87.8964
 39.6796  7924.49  87.6133
 39.7216  7930.29  87.7511
 39.7636  8170.48  89.6345
 39.8056  7981.63  88.3867
 39.8476  7937.69  88.3922
 39.8896  8005.83  88.3963
 39.9316  7873.48  87.9157
 39.9736  8059.99  88.6036
 40.0156  7902.27  87.4816
 40.0576  7865.2  87.6219
 40.0996  7965.8  87.3639
 40.1416  7928.94  87.9657
 40.1836  8033.97  88.4324
 40.2256  8015.33  88.3511
 40.2676  7913.13  87.9034
 40.3096  8009.23  88.3659
 40.3516  8012.23  88.4847
 40.3936  8044.84  88.2244
 40.4356  7882.77  87.5317
 40.4776  7967.96  88.4121
 40.5196  8005.17  88.6632
 40.5616  8058.49  88.6801
 40.6036  7922.71  88.1892
 40.6456  7998.09  88.2118
 40.6876  7947.66  87.9217
 40.7296  7943.86  87.9232
 40.7716  7889.44  87.8484
 40.8136  7924.56  87.9922
 40.8556  7947.6  88.2597
 40.8976  7954.43  88.2092
 40.9396  7864.58  88.0633
 40.9816  8045.54  88.3581
 41.0236  7997.21  87.8764
 41.0656  8096.79  88.9633
 41.1076  7949.47  87.9193
 41.1496  7923.39  87.6809
 41.1916  7851.08  87.5867
 41.2336  8076.48  88.8447
 41.2756  8010.86  88.086
 41.3176  8026.15  88.7809
 41.3596  8000.01  88.3762
 41.4016  7883.19  87.9881
 41.4436  7864.06  87.6636
 41.4856  7957.28  88.3476
 41.5276  7993.72  88.5657
 41.5696  7927.63  87.8293
 41.6116  7966.27  88.4318
 41.6536  7944.66  88.1693
 41.6956  8023.65  88.6681
 41.7376  7896.91  87.9954
 41.7796  7775.03  87.2039
 41.8216  7907.16  88.167
 41.8636  7904.06  88.0924
 41.9056  7876.53  87.7324
 41.9476  7898.5  87.9767
 41.9896  8041.5  88.5396
 42.0316  8050.83  88.6812
 42.0736  8009.93  88.5577
 42.1156  7953  88.0852
 42.1576  7918.86  87.9774
 42.1996  7990.69  88.5253
 42.2416  7954.3  87.912
 42.2836  7855.32  87.4779
 42.3256  7876.29  87.6989
 42.3676  8099.15  88.7343
 42.4096  7955.77  87.9202
 42.4516  7956.07  87.9971
 42.4936  7858.91  87.5272
 42.5356  7873.73  87.755
 42.5776  7918.74  87.9415
 42.6196  7882.04  87.7922
 42.6616  7768.86  87.335
 42.7036  8010.61  88.0573
 42.7456  7932.7  87.9744
 42.7876  7833.92  87.5245
 42.8296  7917.5  87.8318
 42.8716  7765.84  87.1467
 42.9136  7862.2  87.4737
 42.9556  7934.74  88.0144
 42.9976  7856.15  87.5351
 43.0396  7771.14  86.7966
 43.0816  7828.87  87.5009
 43.1236  7832.24  87.5663
 43.1656  7828.75  87.3618
 43.2076  7837.67  87.5356
 43.2496  7793.51  87.1104
 43.2916  7821.33  87.6257
 43.3336  7927.31  88.0462
 43.3756  7786.97  87.0138
 43.4176  7760.53  86.9611
 43.4596  7777.36  86.9107
 43.5016  7834.37  87.6223
 43.5436  7839.53  87.5661
 43.5856  7793.04  87.3263
 43.6276  7809.49  87.3124
 43.6696  7639.78  86.6202
 43.7116  7690.79  86.4043
 43.7536  7868.53  87.8959
 43.7956  7589.01  87.5274
 43.8376  7507  85.5923
 43.8796  7564.21  85.9976
 43.9216  7572.84  85.9669
 43.9636  7667.38  86.611
 44.0056  7568.58  86.28
 44.0476  7526.08  85.6718
 44.0896  7482.24  85.7604
 44.1316  7703.78  86.541
 44.1736  7615.39  86.1676
 44.2156  7562.26  85.7159
 44.2576  7507.75  85.7336
 44.2996  7580.63  86.121
 44.3416  7561.79  85.7722
 44.3836  7502.84  85.7645
 44.4256  7399.64  84.8213
 44.4676  7443.19  85.2265
 44.5096  7426.3  85.2715
 44.5516  7575.98  86.0909
 44.5936  7513.94  85.6933
 44.6356  7567.61  85.7353
 44.6776  7496.36  85.5676
 44.7196  7508.52  86.0281
 44.7616  7621.32  87.9992
 44.8036  7470.41  85.5626
 44.8456  7617.21  86.6029
 44.8876  7599  86.3333
 44.9296  7727.78  86.5115
 44.9716  7677.05  86.66
 45.0136  7763.16  87.0829
 45.0556  7737.6  86.9167
 45.0976  7549.78  86.0171
 45.1396  7606.97  86.0794
 45.1816  7478.86  85.3056
 45.2236  7669.06  86.287
 45.2656  7562.4  86.1902
 45.3076  7579.42  86.0661
 45.3496  7326.54  84.919
 45.3916  7494.49  86.1608
 45.4336  7616.1  86.6968
 45.4756  7626.09  86.6034
 45.5176  7582.15  85.9714
 45.5596  7684.53  86.6728
 45.6016  7450.57  85.7657
 45.6436  7611.33  85.8504
 45.6856  7578.2  86.3284
 45.7276  7463.56  86.9783
 45.7696  7579.45  87.3353
 45.8116  7554.56  86.6183
 45.8536  7421.13  85.7414
 45.8956  7548.84  85.8236
 45.9376  7615.68  85.6631
 45.9796  7530.79  85.8712
 46.0216  7570.04  86.4301
 46.0636  7673.14  86.1531
 46.1056  7560.14  85.5098
 46.1476  7666.24  86.7099
 46.1896  7720.42  87.1647
 46.2316  7582.7  86.2469
 46.2736  7407.86  85.625
 46.3156  7579.8  86.1918
 46.3576  7514.25  86.0204
 46.3996  7408.4  85.5722
 46.4416  7551.43  85.9617
 46.4836  7408.59  85.4982
 46.5256  7378.85  85.2746
 46.5676  7407.61  85.5564
 46.6096  7610.79  86.6565
 46.6516  7646.96  85.8836
 46.6936  7616.61  86.2195
 46.7356  7663.26  86.5792
 46.7776  7400.53  85.9417
 46.8196  7500.1  86.1081
 46.8616  7307.32  84.9443
 46.9036  7285.16  84.4634
 46.9456  7475.11  85.2009
 46.9876  7467.6  85.2443
 47.0296  7507.07  86.1701
 47.0716  7363.6  85.1612
 47.1136  7423.61  85.1783
 47.1556  7505.32  85.5182
 47.1976  7445.73  85.2521
 47.2396  7379.59  85.2759
 47.2816  7412.95  85.1652
 47.3236  7458.05  85.7999
 47.3656  7436.93  85.6097
 47.4076  7356.35  84.948
 47.4496  7426.82  85.4429
 47.4916  7364.35  85.2776
 47.5336  7479.04  85.7513
 47.5756  7605.54  86.5983
 47.6176  7365.59  85.1173
 47.6596  7313.85  84.5289
 47.7016  7570.79  85.8207
 47.7436  7436.59  85.3935
 47.7856  7518.82  85.8947
 47.8276  7348.85  84.9592
 47.8696  7372.41  85.1892
 47.9116  7432.96  85.2422
 47.9536  7361.16  84.7747
 47.9956  7365.82  85.5152
 48.0376  7317.48  84.9998
 48.0796  7519.06  86.2935
 48.1216  7352.6  85.1567
 48.1636  7520  85.6857
 48.2056  7433.72  85.4619
 48.2476  7511.63  86.2173
 48.2896  7377.48  85.3541
 48.3316  7428.66  85.5877
 48.3736  7446.36  85.7091
 48.4156  7298.82  84.716
 48.4576  7428.86  85.7693
 48.4996  7494.29  85.5843
 48.5416  7509.67  86.0089
 48.5836  7456.67  85.3711
 48.6256  7399.34  85.2559
 48.6676  7415.13  85.8694
 48.7096  7431.69  85.2289
 48.7516  7396.22  85.1647
 48.7936  7267.85  84.4908
 48.8356  7361.73  85.085
 48.8776  7391.61  85.8383
 48.9196  7545.48  86.0786
 48.9616  7329.24  85.2239
 49.0036  7513.37  86.6481
 49.0456  7311.42  85.4566
 49.0876  7442.44  85.7402
 49.1296  7339.91  85.31
 49.1716  7253.48  84.6779
 49.2136  7502.76  86.0271
 49.2556  7398.53  85.5931
 49.2976  7517.71  86.2298
 49.3396  7351.21  85.3305
 49.3816  7499.31  85.6061
 49.4236  7295.96  84.8692
 49.4656  7298.9  84.8599
 49.5076  7405.09  85.2575
 49.5496  7270.08  84.5421
 49.5916  7361.31  84.986
 49.6336  7356.18  85.163
 49.6756  7406.82  85.688
 49.7176  7306.55  85.0547
 49.7596  7335.39  84.9863
 49.8016  7347.66  84.9791
 49.8436  7294.92  84.9684
 49.8856  7357.86  85.341
 49.9276  7289.13  85.0419
 49.9696  7414.31  85.7506
 50.0116  7282.59  85.1127
 50.0536  7332.04  85.3502
 50.0956  7339.52  85.4702
 50.1376  7333.98  85.1361
 50.1796  7252.9  84.9338
 50.2216  7298.71  85.2014
 50.2636  7246.41  84.4985
 50.3056  7164.47  84.1975
 50.3476  7278.85  84.894
 50.3896  7172.89  84.2416
 50.4316  7358.4  85.1536
 50.4736  7128.84  84.0393
 50.5156  7270.03  84.8602
 50.5576  7270.86  84.6019
 50.5996  7284.21  85.1025
 50.6416  7205.96  84.4543
 50.6836  7275.86  84.9124
 50.7256  7345.2  85.2436
 50.7676  7314.74  85.3767
 50.8096  7337.5  85.0491
 50.8516  7169.84  84.4975
 50.8936  7122.9  83.9971
 50.9356  7318.68  85.243
 50.9776  7238.12  84.9501
 51.0196  7031.82  83.849
 51.0616  7069.83  83.3917
 51.1036  7161.73  84.302
 51.1456  7210.71  84.4969
 51.1876  7012.89  82.6624
 51.2296  7007.87  83.3944
 51.2716  7028.13  83.103
 51.3136  6979.92  83.2806
 51.3556  6990.46  82.9587
 51.3976  7096.23  83.7297
 51.4396  6854.32  82.612
 51.4816  7028.62  83.5066
 51.5236  7112.22  84.1092
 51.5656  7028.14  83.1783
 51.6076  7083.26  83.5837
 51.6496  6930  82.8795
 51.6916  6994.25  83.6173
 51.7336  6991.96  83.704
 51.7756  6978.79  83.3094
 51.8176  7018.59  83.6621
 51.8596  6976.94  83.4285
 51.9016  7146.53  84.0316
 51.9436  7047.27  84.9602
 51.9856  7086.5  85.6192
 52.0276  7097.82  84.1514
 52.0696  7270.93  85.2424
 52.1116  6907.89  83.1974
 52.1536  7157.91  84.5812
 52.1956  7114.78  83.7858
 52.2376  7139.99  84.1033
 52.2796  7164.43  84.062
 52.3216  6972.5  83.6172
 52.3636  7133.41  84.136
 52.4056  7005.54  83.2451
 52.4476  6948.08  83.2667
 52.4896  7045.35  83.9
 52.5316  7081.8  84.1643
 52.5736  6907.96  82.8475
 52.6156  7060.8  84.1581
 52.6576  6934.75  82.829
 52.6996  6865.46  83.4204
 52.7416  6871.21  83.3086
 52.7836  6985.71  83.8796
 52.8256  7036.09  83.374
 52.8676  6833.58  82.7524
 52.9096  6983.43  83.7327
 52.9516  6970.68  84.043
 52.9936  7000.9  84.6095
 53.0356  7012.75  83.651
 53.0776  7013.5  83.9337
 53.1196  6867.86  83.1804
 53.1616  7019.9  84.1509
 53.2036  6888.98  83.3237
 53.2456  6974.75  83.9476
 53.2876  7045.28  84.0517
 53.3296  7053.25  84.446
 53.3716  7064.07  84.2444
 53.4136  6976.85  83.8785
 53.4556  6924.38  83.5961
 53.4976  6970.65  83.7056
 53.5396  6828.37  83.246
 53.5816  6943.54  83.579
 53.6236  6864.25  83.3829
 53.6656  6965.47  83.6759
 53.7076  7061.53  84.187
 53.7496  7013.76  84.049
 53.7916  6918.36  83.6038
 53.8336  6952.32  83.7065
 53.8756  6875.6  83.7951
 53.9176  6874.14  83.1122
 53.9596  6563.01  81.983
 54.0016  6677.84  82.0255
 54.0436  6607.58  81.808
 54.0856  6793.25  82.3756
 54.1276  6732.96  82.2094
 54.1696  6688.32  82.0887
 54.2116  6836.84  82.754
 54.2536  6676.16  81.5823
 54.2956  6630.69  81.2884
 54.3376  6566.53  81.4514
 54.3796  6642.5  81.8168
 54.4216  6697.55  82.2215
 54.4636  6574.05  81.4688
 54.5056  6659.08  81.7488
 54.5476  6656.07  82.0637
 54.5896  6704.45  82.2025
 54.6316  6646.91  81.694
 54.6736  6613.08  81.5589
 54.7156  6578.11  81.3802
 54.7576  6557.41  81.2214
 54.7996  6671.69  82.0675
 54.8416  6622.31  81.739
 54.8836  6557.75  81.5074
 54.9256  6508.58  80.9933
 54.9676  6543.9  81.0628
 55.0096  6606.49  81.4851
 55.0516  6383.08  80.3299
 55.0936  6495.13  80.6951
 55.1356  6547.67  81.0647
 55.1776  6659.34  82.0064
 55.2196  6585.47  81.4015
 55.2616  6673.2  82.0933
 55.3036  6491.88  81.142
 55.3456  6387.43  80.6311
 55.3876  6522.21  81.1966
 55.4296  6474.66  80.9417
 55.4716  6559.64  81.4543
 55.5136  6496.78  80.8299
 55.5556  6719.47  82.2387
 55.5976  6479.2  80.8466
 55.6396  6558.84  81.2912
 55.6816  6551.35  81.1168
 55.7236  6395.41  80.1906
 55.7656  6531.81  80.7443
 55.8076  6494.11  80.5355
 55.8496  6465.43  80.6749
 55.8916  6418.1  80.5933
 55.9336  6602.1  81.5703
 55.9756  6437.71  80.4179
 56.0176  6433.61  80.5287
 56.0596  6432.28  80.5305
 56.1016  6264.22  79.4943
 56.1436  6337.2  80.2075
 56.1856  6273.14  79.5425
 56.2276  6598.59  81.622
 56.2696  6469.26  80.8502
 56.3116  6488.39  81.3023
 56.3536  6359.02  80.14
 56.3956  6392.92  80.3686
 56.4376  6393.18  80.4056
 56.4796  6276.36  79.4801
 56.5216  6372.57  80.4613
 56.5636  6360.56  79.9466
 56.6056  6498.27  81.0452
 56.6476  6236.95  79.0351
 56.6896  6522.08  81.2888
 56.7316  6326.42  79.9767
 56.7736  6400.19  80.4309
 56.8156  6334.32  80.0414
 56.8576  6220.38  79.2378
 56.8996  6385.55  80.2049
 56.9416  6270.73  79.7958
 56.9836  6447  80.4237
 57.0256  6261.83  79.5822
 57.0676  6442.42  80.8181
 57.1096  6288.23  79.6283
 57.1516  6272.42  79.6068
 57.1936  6245.26  79.1774
 57.2356  6144.74  78.8618
 57.2776  6280.84  79.7061
 57.3196  6315.6  80.0638
 57.3616  6284.93  79.5641
 57.4036  6283.99  79.628
 57.4456  6375.75  80.1703
 57.4876  6330.01  79.7572
 57.5296  6248.04  79.5614
 57.5716  6190.21  79.2091
 57.6136  6150.62  78.7876
 57.6556  6262.62  79.6313
 57.6976  6292.74  79.5573
 57.7396  6134.97  78.9898
 57.7816  6118.25  79.2634
 57.8236  6070.92  78.7411
 57.8656  6216.66  79.3431
 57.9076  6254.43  79.5896
 57.9496  6187.89  79.535
 57.9916  6233.82  79.3393
 58.0336  6166.47  79.1898
 58.0756  6191.38  78.9757
 58.1176  6231.48  79.2276
 58.1596  6167.71  79.4149
 58.2016  5964.47  77.33
 58.2436  5976.17  77.8047
 58.2856  5931.23  77.4417
 58.3276  5847.95  77.251
 58.3696  5934.56  77.5784
 58.4116  5996.08  77.8466
 58.4536  6050.74  78.0861
 58.4956  5930.56  77.4873
 58.5376  6055.22  77.9834
 58.5796  5998.18  77.9264
 58.6216  6005.24  77.7905
 58.6636  5951.92  77.6547
 58.7056  6041.06  78.088
 58.7476  5895.64  77.5814
 58.7896  5894.56  77.2226
 58.8316  5961.62  77.7638
 58.8736  5958.86  77.6502
 58.9156  5999.05  77.9516
 58.9576  5921.82  77.7693
 58.9996  5976.16  77.376
 59.0416  5934.92  77.4734
 59.0836  6061.96  78.2052
 59.1256  5897.72  77.8385
 59.1676  5945.21  78.4518
 59.2096  5921.05  77.6216
 59.2516  5988.83  77.6474
 59.2936  5972.24  77.8661
 59.3356  5833.78  76.8379
 59.3776  5894.26  77.4022
 59.4196  5875.98  77.2161
 59.4616  5793.51  76.5379
 59.5036  5932.45  77.4844
 59.5456  6009.28  77.6796
 59.5876  6147.43  78.7602
 59.6296  5906.96  77.2729
 59.6716  6036.54  78.1738
 59.7136  5937.53  77.5184
 59.7556  6008.46  78.1162
 59.7976  6035.34  78.0329
 59.8396  5927.45  77.2275
 59.8816  5932.03  77.7983
 59.9236  5948.26  77.5507
 59.9656  5940.72  77.7597
 60.0076  5965.89  77.2858
 60.0496  5984.66  77.9088
 60.0916  6126.05  78.2378
 60.1336  5850.92  77.5507
 60.1756  5861.2  78.7856
 60.1996  0.0000000E+00  0.0000000E+00