File: docs/examples/XRD/IS17_D/Data/IS17_D/17_Da_f00002.xye
# /beamlines/bl04/projects/cycle2025-II/20250340211-lsimonelli/DATA/IS17_D/17_Da_f00002.xye : mythproc.py merge -s 0.006 -l 0.5 -f /beamlines/bl04/inhouse/ff/FlatField/ff_20Nov2024rod8mm60s_17keV.raw -b True -c true -o xye /beamlines/bl04/projects/cycle2025-II/20250340211-lsimonelli/DATA/IS17_D/17_Da_00002.dat
# IsMon = [6754486, 6757228, 6763395]  IsPos = [-1.5000, -2.4886, -3.4988]
# Wave = 0.4962  CalPath /beamlines/bl04/projects/cycle2025-II/20250340211-lsimonelli/DATA/Align/Si_Pos1_25keV_f00001.cal
# Date = 2025-09-23_18:07:44 Dt = 4.8000  Bin = 0.0060  <imon> = 6758370 +/- 3726 (Min/Max) 6754486 / 6763395
# icurr 250.7266  mocoIn 1.7102E-05  mocoOut 0.8025  i15 7.06163e+06  imon 6.75837e+06  i7 5.0000  iEMpd_timer 4.8000  iEMpd_1 3.5336E-08  iEMpd_2 7.7822E-08  iEMpd_3 1.6992E-08  iEMpd_4 4.7813E-08  iEMhp_timer 4.8000  iEMhp_1 4.8991E-06  iEMhp_2 -2.5058E-08  iEMhp_3 -2.2759E-08  iEMhp_4 -2.1056E-08
#      9776
 1.5856  40552.4  206.841
 1.6276  47549.9  220.133
 1.6696  54802.5  235.493
 1.7116  63695.6  254.378
 1.7536  72488.5  270.213
 1.7956  77378.3  279.874
 1.8376  73385.2  272.99
 1.8796  62049.2  249.187
 1.9216  49801.5  224.122
 1.9636  42625.6  207.02
 2.0056  37625.3  193.256
 2.0476  34795.6  187.884
 2.0896  33469.9  183.19
 2.1316  33056.1  181.179
 2.1736  31465  178.167
 2.2156  31782.6  177.627
 2.2576  30321.8  174.116
 2.2996  29076.2  171.131
 2.3416  29685.2  171.535
 2.3836  29033.4  169.744
 2.4256  27935.1  167.045
 2.4676  27407.4  165.225
 2.5096  27450.7  165.41
 2.5516  26637.9  166.702
 2.5936  26988.7  164.408
 2.6356  26190.2  162.64
 2.6776  26128.8  161.342
 2.7196  25768.5  160.738
 2.7616  25713.6  160.352
 2.8036  25167.8  158.811
 2.8456  25234  159.627
 2.8876  24813.9  158.146
 2.9296  24473.3  157.208
 2.9716  24294.3  156.129
 3.0136  24094.7  155.552
 3.0556  23984.6  155.589
 3.0976  23889.1  154.219
 3.1396  23559.3  153.865
 3.1816  23398.5  153.272
 3.2236  23238.3  152.746
 3.2656  23398.6  152.31
 3.3076  23040.3  152.581
 3.3496  23519.6  153.345
 3.3916  23791.7  153.814
 3.4336  24217.2  155.757
 3.4756  24603.4  156.923
 3.5176  25376.6  159.158
 3.5596  25149.1  161.38
 3.6016  25547.8  159.726
 3.6436  24567.3  157.728
 3.6856  24047.1  154.367
 3.7276  23210.7  152.734
 3.7696  22988.8  151.988
 3.8116  22634.5  150.903
 3.8536  22796.8  151.369
 3.8956  22724.6  150.963
 3.9376  22479.3  150.385
 3.9796  22470.1  149.877
 4.0216  22554.4  149.208
 4.0636  22589.6  150.782
 4.1056  22536  150.253
 4.1476  22515.2  150.499
 4.1896  22978.7  151.893
 4.2316  23195  152.429
 4.2736  23569.3  153.447
 4.3156  23796.5  154.4
 4.3576  24620.5  156.984
 4.3996  24866.9  158.034
 4.4416  25157.7  158.539
 4.4836  25728.9  160.483
 4.5256  26170.1  162.471
 4.5676  26098.2  162.49
 4.6096  26497  162.75
 4.6516  27130.3  164.032
 4.6936  27231.4  165.13
 4.7356  27177  164.815
 4.7776  27425.4  165.39
 4.8196  27097.8  165.065
 4.8616  26634.9  163.251
 4.9036  26247.2  161.685
 4.9456  26182.3  162.122
 4.9876  25495.5  159.885
 5.0296  25781.1  160.597
 5.0716  25846.2  161.421
 5.1136  25924.4  161.526
 5.1556  26202.8  161.845
 5.1976  26504.7  162.793
 5.2396  26594.4  162.758
 5.2816  26584.5  163.192
 5.3236  26606  162.959
 5.3656  26337.6  163.044
 5.4076  25805.4  161.538
 5.4496  26009.5  161.662
 5.4916  26028.3  161.489
 5.5336  26133.2  161.891
 5.5756  25903.7  161.149
 5.6176  26089.4  161.159
 5.6596  26292.1  162.596
 5.7016  26374.7  162.274
 5.7436  26606.8  163.028
 5.7856  26221  162.129
 5.8276  26858.7  163.805
 5.8696  26893.6  163.987
 5.9116  26809.7  164.43
 5.9536  27044.3  164.909
 5.9956  27530  165.734
 6.0376  27257.8  165.55
 6.0796  27559.4  166.296
 6.1216  27677.2  166.844
 6.1636  27649  165.841
 6.2056  27919.6  167.305
 6.2476  28075.1  167.484
 6.2896  28381  168.247
 6.3316  28296.1  168.18
 6.3736  28391.7  168.348
 6.4156  28362.8  168.214
 6.4576  28695  168.751
 6.4996  28961.3  170.001
 6.5416  28894.4  169.949
 6.5836  28911.4  170.166
 6.6256  29168.5  170.549
 6.6676  29486  171.043
 6.7096  29262.1  171.245
 6.7516  29833.6  172.559
 6.7936  30006.2  172.618
 6.8356  30147.7  172.969
 6.8776  30571.1  174.974
 6.9196  30490.5  175.148
 6.9616  30861.9  175.631
 7.0036  31340.3  176.671
 7.0456  31460.2  176.305
 7.0876  31232.2  177.272
 7.1296  31218.1  176.447
 7.1716  31253.9  176.466
 7.2136  30933.6  174.963
 7.2556  31199.8  175.879
 7.2976  31094.7  176.076
 7.3396  31303.4  177.134
 7.3816  31072.7  176.437
 7.4236  31358.9  176.544
 7.4656  31588.4  176.677
 7.5076  31882  177.629
 7.5496  31768  177.832
 7.5916  31582.5  177.36
 7.6336  31975  178.352
 7.6756  32068.4  178.467
 7.7176  32252.9  179.3
 7.7596  32422.3  180.994
 7.8016  32732.6  184.019
 7.8436  33530.7  182.909
 7.8856  33598.8  182.709
 7.9276  34110.8  184.472
 7.9696  34271  185.226
 8.0116  35018.6  185.815
 8.0536  35408.6  187.075
 8.0956  35126.5  187.504
 8.1376  35837.7  188.855
 8.1796  35955.3  189.721
 8.2216  37057.5  191.329
 8.2636  36677.3  190.588
 8.3056  36799.5  191.661
 8.3476  37585.5  193.038
 8.3896  37164  192.033
 8.4316  37180.7  192.241
 8.4736  37339.2  192.12
 8.5156  37071.5  191.706
 8.5576  36771.2  191.912
 8.5996  36789  190.82
 8.6416  36651.4  191.729
 8.6836  36369.6  190.796
 8.7256  36810.4  191.205
 8.7676  36294.3  192.94
 8.8096  36079  189.708
 8.8516  35713.2  188.443
 8.8936  35547  187.815
 8.9356  35381.1  187.741
 8.9776  35747.3  188.782
 9.0196  35297  187.302
 9.0616  35572.1  187.469
 9.1036  34800.6  186.605
 9.1456  35106.7  186.77
 9.1876  35124.1  186.786
 9.2296  35175.4  186.312
 9.2716  34279.3  184.004
 9.3136  34500.8  184.583
 9.3556  34646  184.953
 9.3976  33377.2  182.075
 9.4396  33817.5  183.153
 9.4816  33220  181.403
 9.5236  33368.9  181.706
 9.5656  33096.5  181.284
 9.6076  32749.9  180.836
 9.6496  32655.5  180.512
 9.6916  32799.6  180.866
 9.7336  32812.9  180.701
 9.7756  32767.7  181.779
 9.8176  32251.9  179.925
 9.8596  31898.2  177.412
 9.9016  31649.2  176.709
 9.9436  31463.5  175.937
 9.9856  31156  175.47
 10.0276  30570.5  174.884
 10.0696  30977.3  175.106
 10.1116  30171.9  173.072
 10.1536  29719.3  171.455
 10.1956  29280.9  170.27
 10.2376  28832.2  168.478
 10.2796  29196.6  169.662
 10.3216  29272.3  170.004
 10.3636  28752.7  168.661
 10.4056  28435  168.112
 10.4476  28384.3  167.597
 10.4896  28367.8  167.017
 10.5316  27727.1  165.495
 10.5736  27475.1  165.452
 10.6156  27220.9  164.463
 10.6576  27343.3  163.428
 10.6996  27091.9  163.459
 10.7416  26561.1  161.948
 10.7836  26872  163.542
 10.8256  26380.4  162.456
 10.8676  26221.8  161.834
 10.9096  26171.4  161.393
 10.9516  25927.9  159.601
 10.9936  26079.9  160.262
 11.0356  25994.7  160.626
 11.0776  25665.9  158.935
 11.1196  25079.2  157.835
 11.1616  25138.5  157.715
 11.2036  25346.9  158.226
 11.2456  25059.8  158.473
 11.2876  25020.1  157.634
 11.3296  24515.2  155.924
 11.3716  24997.1  157.178
 11.4136  24955  157.897
 11.4556  25004.3  157.706
 11.4976  25308.3  157.682
 11.5396  25379.1  158.07
 11.5816  25844.3  159.953
 11.6236  26323.6  161.874
 11.6656  26091.2  160.106
 11.7076  25300.1  158.483
 11.7496  24943.4  161.258
 11.7916  24539.7  155.359
 11.8336  24410.7  155.842
 11.8756  23981.4  153.995
 11.9176  24327.7  154.762
 11.9596  23833.7  153.376
 12.0016  23865.3  154.246
 12.0436  23956.9  153.969
 12.0856  23559.1  153.207
 12.1276  23698.6  153.565
 12.1696  23620.2  152.471
 12.2116  23840.2  153.165
 12.2536  23413.1  152.593
 12.2956  23602.8  152.564
 12.3376  23133  151.261
 12.3796  23492  152.861
 12.4216  23382.3  151.75
 12.4636  23329.6  152.48
 12.5056  23454.1  152.051
 12.5476  23448.9  151.686
 12.5896  23497  152.46
 12.6316  23109.8  151.365
 12.6736  23279.7  152.386
 12.7156  22962.8  151.225
 12.7576  23220.5  152.303
 12.7996  23422.2  151.625
 12.8416  23116.8  151.667
 12.8836  23663.7  153.271
 12.9256  23834.4  152.86
 12.9676  23795.1  153.142
 13.0096  23663.4  153.81
 13.0516  23737.8  153.095
 13.0936  24147.4  154.537
 13.1356  24177.2  153.904
 13.1776  23984  154.095
 13.2196  24120.6  154.367
 13.2616  24146.2  154.744
 13.3036  23898.2  154.098
 13.3456  24049.3  154.551
 13.3876  24075.4  154.159
 13.4296  23959.3  153.926
 13.4716  24244.4  154.451
 13.5136  24087.1  154.102
 13.5556  24072.6  154.661
 13.5976  24093.6  154.866
 13.6396  24232.9  154.677
 13.6816  23633.5  153.136
 13.7236  24467.8  155.571
 13.7656  24074  154.865
 13.8076  24021.8  153.485
 13.8496  23859.2  153.738
 13.8916  23601.1  153.713
 13.9336  23681.3  153.196
 13.9756  23533.3  152.085
 14.0176  23529.1  152.786
 14.0596  23576.2  152.862
 14.1016  23373.9  152.604
 14.1436  23032.1  150.635
 14.1856  22704.2  149.842
 14.2276  22448.6  149.468
 14.2696  22645.4  149.968
 14.3116  22363.1  148.926
 14.3536  22025.6  147.98
 14.3956  22131.1  148.029
 14.4376  22215.4  148.13
 14.4796  22084.3  147.68
 14.5216  21976.3  148.116
 14.5636  21383.7  145.674
 14.6056  21910.6  146.909
 14.6476  21646.4  145.389
 14.6896  21272.2  144.661
 14.7316  20848.2  144.226
 14.7736  20923.9  143.68
 14.8156  20642.1  142.706
 14.8576  20558.8  142.275
 14.8996  20072.4  141.763
 14.9416  19823  140.874
 14.9836  20003.2  141.47
 15.0256  19825.5  139.77
 15.0676  19781.7  139.929
 15.1096  19676.3  139.297
 15.1516  19382.7  138.814
 15.1936  19305.7  137.962
 15.2356  19034.8  137.265
 15.2776  18949.6  136.548
 15.3196  18740.2  136.782
 15.3616  18576.5  135.934
 15.4036  18737.8  136.383
 15.4456  18907.6  136.661
 15.4876  18446  134.662
 15.5296  18225.9  134.151
 15.5716  17944.4  132.712
 15.6136  17807.1  132.532
 15.6556  17807.1  131.776
 15.6976  17935.4  132.323
 15.7396  17655.3  131.874
 15.7816  17645  131.368
 15.8236  17470.9  131.395
 15.8656  17580.6  131.609
 15.9076  17033.7  129.376
 15.9496  17013.9  132.052
 15.9916  17099.4  133.323
 16.0336  16869.5  128.871
 16.0756  16756.4  128.729
 16.1176  16876.3  129.093
 16.1596  16328.8  128.29
 16.2016  16640.2  128.266
 16.2436  16307.1  127.365
 16.2856  16336.9  127.032
 16.3276  16029.9  126.244
 16.3696  16464.1  127.758
 16.4116  15858.6  125.858
 16.4536  16285.5  127.288
 16.4956  16134.1  126.473
 16.5376  15977.1  126.022
 16.5796  16007.9  125.517
 16.6216  15919.1  125.462
 16.6636  15847.1  125.321
 16.7056  15889.3  125.368
 16.7476  15958  125.176
 16.7896  15801.7  125.299
 16.8316  15906.7  125.68
 16.8736  15891.6  125.884
 16.9156  16010  126.674
 16.9576  15605.1  125.864
 16.9996  15730.2  126.838
 17.0416  15665.4  125.178
 17.0836  15626.9  124.593
 17.1256  15576.8  124.404
 17.1676  15770.2  125.154
 17.2096  15366.2  123.43
 17.2516  15437.2  123.799
 17.2936  15208  122.896
 17.3356  15094.9  122.345
 17.3776  15054.4  122.463
 17.4196  15199.9  122.752
 17.4616  15110.1  122.313
 17.5036  14907.3  121.846
 17.5456  14486.9  120.745
 17.5876  14361.5  119.292
 17.6296  14739.8  120.661
 17.6716  14448.3  120.032
 17.7136  14271.2  119.441
 17.7556  14260.6  119.679
 17.7976  14249.2  119.241
 17.8396  14060.5  118.096
 17.8816  14140.5  118.954
 17.9236  14066.8  118.469
 17.9656  14148.2  119.475
 18.0076  14084.6  118.633
 18.0496  14026  117.547
 18.0916  14038.4  118.118
 18.1336  13969.1  117.924
 18.1756  14018.1  117.601
 18.2176  13806.6  117.008
 18.2596  13792.1  116.69
 18.3016  13996.6  117.8
 18.3436  14000.7  118.046
 18.3856  13665.1  116.531
 18.4276  13789.4  116.743
 18.4696  13732.1  116.573
 18.5116  13754.2  116.964
 18.5536  13764.6  117.333
 18.5956  13574.9  116.113
 18.6376  13615  116.679
 18.6796  13506.9  115.57
 18.7216  13755.1  117.164
 18.7636  13511.1  116.05
 18.8056  13415.6  115.568
 18.8476  13487  116.475
 18.8896  13517.4  115.969
 18.9316  13740.8  116.741
 18.9736  13437.3  115.314
 19.0156  13523.7  116.085
 19.0576  13577.8  115.21
 19.0996  13763.8  116.684
 19.1416  13290.1  115.05
 19.1836  13304.9  114.723
 19.2256  13307.9  114.935
 19.2676  13469.9  115.735
 19.3096  13446.7  115.865
 19.3516  13201  114.604
 19.3936  13296.7  115.087
 19.4356  13334.2  115.124
 19.4776  13371.2  115.376
 19.5196  13417.6  115.431
 19.5616  13239.3  114.907
 19.6036  13382.4  115.106
 19.6456  13408.2  115.261
 19.6876  13426.9  114.995
 19.7296  13310.9  114.955
 19.7716  13381  115.261
 19.8136  13537.4  116.289
 19.8556  13628.7  116.161
 19.8976  13535.5  115.83
 19.9396  13469  115.136
 19.9816  13726.9  116.458
 20.0236  13753.3  116.791
 20.0656  14048.8  118.029
 20.1076  13980.3  118.217
 20.1496  14189.6  119.097
 20.1916  14426  119.545
 20.2336  14301.3  119.005
 20.2756  14061.5  118.438
 20.3176  13720.2  116.738
 20.3596  13800.2  117.044
 20.4016  13480.1  115.494
 20.4436  13435.2  115.856
 20.4856  13184.8  114.574
 20.5276  13200  115.083
 20.5696  13102.5  114.223
 20.6116  13070.6  114.261
 20.6536  13055.5  113.767
 20.6956  12919.9  113.234
 20.7376  13022.2  113.908
 20.7796  12814.3  112.692
 20.8216  13055.6  113.458
 20.8636  12771.6  112.585
 20.9056  12770.1  112.525
 20.9476  12695  112.043
 20.9896  12976.1  113.128
 21.0316  12904.9  112.72
 21.0736  12782.9  112.704
 21.1156  12731.2  112.625
 21.1576  12871.4  113.299
 21.1996  12652.3  112.306
 21.2416  12684.7  112.295
 21.2836  12814.6  112.824
 21.3256  12495.6  111.496
 21.3676  12629.4  111.646
 21.4096  12669.8  112.177
 21.4516  12503.8  111.273
 21.4936  12353.6  110.641
 21.5356  12589.9  111.854
 21.5776  12660.5  111.998
 21.6196  12540.9  111.504
 21.6616  12516  111.481
 21.7036  12440.3  110.927
 21.7456  12616.2  111.783
 21.7876  12476.2  110.909
 21.8296  12467.9  110.737
 21.8716  12432.4  110.815
 21.9136  12525  111.418
 21.9556  12373.4  110.419
 21.9976  12371.4  110.428
 22.0396  12180.9  109.821
 22.0816  12440.4  111.502
 22.1236  12479.4  111.149
 22.1656  12410.2  111.021
 22.2076  12393.3  110.361
 22.2496  12327.4  110.098
 22.2916  12544.6  110.943
 22.3336  12287.6  110.493
 22.3756  12164.6  109.685
 22.4176  12362.6  110.431
 22.4596  12141.2  110.005
 22.5016  12491.5  111.069
 22.5436  12359.8  110.373
 22.5856  12313.5  110.416
 22.6276  12144.2  109.801
 22.6696  12310.2  110.89
 22.7116  12216.2  109.993
 22.7536  12495.5  111.211
 22.7956  12553  110.598
 22.8376  12215  109.803
 22.8796  12259.6  109.815
 22.9216  12372.7  110.848
 22.9636  12350.3  109.923
 23.0056  12228.3  109.511
 23.0476  12375.4  110.73
 23.0896  12578.2  111.014
 23.1316  12555.8  111.35
 23.1736  12246  112.895
 23.2156  12461.7  111.246
 23.2576  12421.2  111.226
 23.2996  12518.6  111.425
 23.3416  12396.6  111.415
 23.3836  12510.9  111.16
 23.4256  12405.2  110.808
 23.4676  12472.2  110.795
 23.5096  12390.9  111.104
 23.5516  12260.9  109.818
 23.5936  12141.5  110.169
 23.6356  12562.6  111.719
 23.6776  12327  110.877
 23.7196  12119.8  109.757
 23.7616  12364.9  110.547
 23.8036  12328.7  110.445
 23.8456  12357  110.123
 23.8876  12028  109.012
 23.9296  12026.4  109.474
 23.9716  12086.1  108.951
 24.0136  12128.4  110.03
 24.0556  11835.3  108.436
 24.0976  11833  108.229
 24.1396  11857.9  110.957
 24.1816  11952.4  110.182
 24.2236  11892.7  109.204
 24.2656  11684  107.724
 24.3076  11754.8  108.299
 24.3496  11718.5  107.993
 24.3916  11668.7  107.841
 24.4336  11510.3  107.31
 24.4756  11602.5  107.617
 24.5176  11433  106.478
 24.5596  11326  106.298
 24.6016  11268.8  106.115
 24.6436  11435  106.34
 24.6856  11227.1  105.186
 24.7276  11327.8  105.969
 24.7696  11322.9  106.058
 24.8116  11164.1  105.489
 24.8536  11165.9  105.493
 24.8956  11123.8  105.037
 24.9376  11086.3  105.038
 24.9796  11028.7  104.873
 25.0216  10765.5  103.727
 25.0636  11016.2  104.583
 25.1056  10936.5  104.623
 25.1476  10979.4  106.734
 25.1896  11051.6  105.569
 25.2316  11030.6  104.734
 25.2736  10946.4  104.008
 25.3156  10961.2  104.15
 25.3576  10919.3  104.357
 25.3996  10891.2  104.21
 25.4416  10922.7  104.346
 25.4836  10778.2  104.08
 25.5256  10757  103.443
 25.5676  10805.2  103.414
 25.6096  10680.1  103.374
 25.6516  10841.2  103.687
 25.6936  10711.7  103.345
 25.7356  10592.9  102.903
 25.7776  10762.6  103.396
 25.8196  10659.8  103.071
 25.8616  10711.5  103.179
 25.9036  10725.7  102.789
 25.9456  10676  103.138
 25.9876  10545.4  102.436
 26.0296  10690.5  102.873
 26.0716  10592.7  102.735
 26.1136  10635.2  102.875
 26.1556  10716.2  102.652
 26.1976  10441.4  102.243
 26.2396  10644.5  102.635
 26.2816  10574.6  102.66
 26.3236  10585.8  102.876
 26.3656  10519  102.282
 26.4076  10698.1  103.343
 26.4496  11047  104.521
 26.4916  10806.2  103.371
 26.5336  10651.9  102.947
 26.5756  11074.8  104.827
 26.6176  10525.5  102.246
 26.6596  10432.3  102.102
 26.7016  10493.3  102.16
 26.7436  10406.9  101.874
 26.7856  10329.2  101.468
 26.8276  10441.4  101.964
 26.8696  10306.2  101.186
 26.9116  10402  101.603
 26.9536  10357.1  101.427
 26.9956  10351.8  101.426
 27.0376  10226.8  101.023
 27.0796  10198.7  100.702
 27.1216  10150.5  100.47
 27.1636  10173.4  100.74
 27.2056  10204.8  100.78
 27.2476  10229.4  100.902
 27.2896  10164.3  100.686
 27.3316  10054.9  99.8593
 27.3736  10147.4  100.579
 27.4156  9959.76  99.4997
 27.4576  10160.2  100.723
 27.4996  9992.69  99.4952
 27.5416  10006.1  99.8705
 27.5836  10060.5  99.9609
 27.6256  10211.1  100.868
 27.6676  10159.7  100.63
 27.7096  9900.46  99.2159
 27.7516  10033.8  99.9633
 27.7936  9899.09  99.5229
 27.8356  9880.9  99.0522
 27.8776  9854.84  98.9727
 27.9196  9772.96  98.4055
 27.9616  9905.15  99.159
 28.0036  9836.19  98.8936
 28.0456  9836.75  99.0189
 28.0876  9800.21  98.928
 28.1296  9715.37  98.339
 28.1716  9758.66  98.5737
 28.2136  9774.67  98.6128
 28.2556  9635.78  98.0306
 28.2976  9703.22  98.3596
 28.3396  9791.3  98.6016
 28.3816  9803.25  98.6486
 28.4236  9747.32  98.5121
 28.4656  9638.91  98.0022
 28.5076  9594.16  97.419
 28.5496  9653.23  97.9745
 28.5916  9914.25  99.0998
 28.6336  9545.6  97.5805
 28.6756  9668.56  97.4138
 28.7176  9640.05  97.8083
 28.7596  9518.41  97.0934
 28.8016  9677.89  97.9306
 28.8436  9493.9  97.2379
 28.8856  9644.66  97.8613
 28.9276  9481.29  97.2645
 28.9696  9472.87  96.8911
 29.0116  9548.76  97.4476
 29.0536  9333.94  96.5513
 29.0956  9511.71  97.1874
 29.1376  9542.68  97.3103
 29.1796  9423.05  96.7485
 29.2216  9405.94  96.5015
 29.2636  9421.48  96.5784
 29.3056  9442.64  96.5572
 29.3476  9426.61  96.991
 29.3896  9490.12  97.3965
 29.4316  9601.46  97.3134
 29.4736  9453.49  96.615
 29.5156  9501.23  96.7748
 29.5576  9567.78  97.8703
 29.5996  9471.66  96.6366
 29.6416  9360.93  96.1929
 29.6836  9555.72  97.1111
 29.7256  9408.58  96.9194
 29.7676  9466.62  96.8716
 29.8096  9382.35  96.3924
 29.8516  9325.92  96.4208
 29.8936  9412.22  96.9658
 29.9356  9429.01  96.8117
 29.9776  9243.57  96.0056
 30.0196  9424.57  96.3415
 30.0616  9439.74  96.7792
 30.1036  9337.94  96.0953
 30.1456  9318.63  96.2115
 30.1876  9326.41  96.414
 30.2296  9242.74  95.7398
 30.2716  9275.44  95.5646
 30.3136  9433.74  97.2311
 30.3556  9198.45  96.0313
 30.3976  9133.76  97.2001
 30.4396  9367.97  95.7931
 30.4816  9147.95  94.2488
 30.5236  9140.4  94.25
 30.5656  9175.69  95.0585
 30.6076  9237.4  95.1467
 30.6496  9236.13  95.1908
 30.6916  9196.19  95.0656
 30.7336  9067.22  94.5554
 30.7756  9050.8  94.5604
 30.8176  9133.84  94.9096
 30.8596  9169.78  94.8718
 30.9016  9148.09  94.6396
 30.9436  9273.52  95.4991
 30.9856  9203.52  95.2507
 31.0276  9156.24  94.6033
 31.0696  9192.6  95.3684
 31.1116  9190.46  95.336
 31.1536  9171.96  95.1149
 31.1956  9133.32  95.0101
 31.2376  9012.34  94.3795
 31.2796  9248.99  95.1537
 31.3216  9083.47  94.2489
 31.3636  9116.93  95.1154
 31.4056  9138.07  96.5267
 31.4476  8999.57  93.7295
 31.4896  8875.9  93.5752
 31.5316  9031.57  93.8376
 31.5736  9071.05  93.8293
 31.6156  8900.29  92.9564
 31.6576  9197.08  94.5888
 31.6996  8988.68  93.1899
 31.7416  8737.99  92.7854
 31.7836  8986.53  93.2577
 31.8256  8873.92  93.0104
 31.8676  8973.62  93.4488
 31.9096  8910.29  93.3334
 31.9516  8723.26  92.6473
 31.9936  8728.58  92.6342
 32.0356  8844.83  93.1791
 32.0776  8918.55  93.4556
 32.1196  8872.95  93.2177
 32.1616  8955.27  93.1978
 32.2036  8769.19  92.7275
 32.2456  8731.94  92.9053
 32.2876  8760.2  92.3929
 32.3296  8693.97  92.1762
 32.3716  8708.11  92.338
 32.4136  8790.78  92.9797
 32.4556  8822.98  92.6009
 32.4976  8781.19  92.2655
 32.5396  8733.6  92.0553
 32.5816  8736.5  92.1897
 32.6236  8851.11  92.8603
 32.6656  8891.52  93.6142
 32.7076  8781.77  92.6851
 32.7496  8729.86  92.0889
 32.7916  8746.15  92.1284
 32.8336  8725.99  92.2281
 32.8756  8802.49  92.2384
 32.9176  8585.58  91.5648
 32.9596  8655.58  92.0167
 33.0016  8738.75  92.2588
 33.0436  8782.52  92.6554
 33.0856  8745.55  92.5254
 33.1276  8577.73  91.385
 33.1696  8719.03  91.9798
 33.2116  8742.56  92.1305
 33.2536  8633.48  91.7505
 33.2956  8582.98  91.5582
 33.3376  8637.87  91.6684
 33.3796  8669.8  91.9662
 33.4216  8633.8  91.413
 33.4636  8688.43  91.8152
 33.5056  8646.95  91.8319
 33.5476  8597.87  91.5713
 33.5896  8711.5  91.9061
 33.6316  8556.37  91.4433
 33.6736  8504.51  91.3978
 33.7156  8577.93  91.829
 33.7576  8693.69  92.0733
 33.7996  8679.14  91.7679
 33.8416  8326.57  90.0652
 33.8836  8663.42  91.645
 33.9256  8605.59  91.4079
 33.9676  8723.89  91.9221
 34.0096  8493.7  91.0237
 34.0516  8471.31  90.542
 34.0936  8468.52  90.7798
 34.1356  8608.92  91.273
 34.1776  8422.22  90.2879
 34.2196  8383.85  90.2662
 34.2616  8408.08  90.5852
 34.3036  8435.69  90.9251
 34.3456  8414.86  90.5662
 34.3876  8592.06  91.5733
 34.4296  8446.76  90.4031
 34.4716  8518.66  91.0805
 34.5136  8463.19  90.8305
 34.5556  8422.41  90.8635
 34.5976  8507.06  91.1653
 34.6396  8378.53  90.1485
 34.6816  8310.02  89.9007
 34.7236  8397.11  90.1522
 34.7656  8313.65  89.8944
 34.8076  8299.34  90.1352
 34.8496  8429.87  90.6903
 34.8916  8412.62  90.4818
 34.9336  8517  90.9942
 34.9756  8654.4  91.6487
 35.0176  8428.2  90.9701
 35.0596  8278.94  89.99
 35.1016  8398.86  90.4132
 35.1436  8359.6  89.89
 35.1856  8314.2  89.7737
 35.2276  8412.56  90.4714
 35.2696  8305.57  90.0809
 35.3116  8312.84  90.2358
 35.3536  8208.39  89.4038
 35.3956  8300.36  89.577
 35.4376  8321.31  90.2313
 35.4796  8360.14  90.5065
 35.5216  8256.72  89.8909
 35.5636  8068.99  89.6084
 35.6056  8302.22  89.9106
 35.6476  8306.01  89.8372
 35.6896  8320.49  90.0828
 35.7316  8109.96  88.8348
 35.7736  8196.65  89.4991
 35.8156  8133.51  89.1562
 35.8576  8214.37  89.8426
 35.8996  8346.82  90.5777
 35.9416  8221.96  89.3535
 35.9836  8160.7  89.4573
 36.0256  8326.35  90.293
 36.0676  8208.47  89.1988
 36.1096  8120.21  89.0696
 36.1516  8145.92  89.0992
 36.1936  8094.43  88.6642
 36.2356  8111.42  89.3915
 36.2776  8171.43  89.3543
 36.3196  8228.69  89.1959
 36.3616  8161.1  88.9532
 36.4036  8104.7  88.7088
 36.4456  8190.73  89.3513
 36.4876  8083.34  88.7299
 36.5296  8068.98  88.6862
 36.5716  8085.43  89.5583
 36.6136  8207.07  89.0017
 36.6556  8172.32  88.9981
 36.6976  8076.01  88.9772
 36.7396  8081  88.7432
 36.7816  8006.75  88.6953
 36.8236  8089.72  89.0861
 36.8656  8060.95  88.998
 36.9076  8063.08  89.008
 36.9496  8138.07  89.2786
 36.9916  8037.99  88.3657
 37.0336  8124.53  89.1496
 37.0756  8136.12  89.0105
 37.1176  8044.27  88.7747
 37.1596  8016.6  88.6281
 37.2016  7980.92  88.611
 37.2436  8088.37  88.5718
 37.2856  8016.35  88.4365
 37.3276  8068.78  88.0736
 37.3696  7949.68  88.2963
 37.4116  7959.56  88.2464
 37.4536  7916.74  87.8861
 37.4956  7885.16  87.7367
 37.5376  7995  89.9204
 37.5796  7908.69  89.3817
 37.6216  7710.28  86.5557
 37.6636  7893.11  87.4883
 37.7056  7850.45  87.4373
 37.7476  7920.73  87.3713
 37.7896  7834.21  87.3689
 37.8316  7714.3  86.8871
 37.8736  7888.29  87.3745
 37.9156  7876.99  87.3194
 37.9576  7904.44  87.3652
 37.9996  7785.73  86.4115
 38.0416  7864.79  87.6689
 38.0836  7878.38  87.6421
 38.1256  7923.4  87.8616
 38.1676  7762.63  87.0937
 38.2096  7774.26  86.8031
 38.2516  7963.58  88.0397
 38.2936  7765.92  86.7569
 38.3356  7934.4  87.5887
 38.3776  7815.34  87.2126
 38.4196  7886.06  87.4548
 38.4616  7896.4  87.753
 38.5036  7825.36  87.2008
 38.5456  7713.58  87.4037
 38.5876  7788.68  87.861
 38.6296  7651.83  86.093
 38.6716  7827.54  86.8722
 38.7136  7657.24  85.8668
 38.7556  7723.94  86.7347
 38.7976  7726.21  86.6836
 38.8396  7626.27  86.5705
 38.8816  7498.3  85.6181
 38.9236  7722.49  86.7117
 38.9656  7740.83  86.727
 39.0076  7646.67  85.6178
 39.0496  7823.34  87.137
 39.0916  7730.28  86.261
 39.1336  7676.84  86.3761
 39.1756  7594.44  85.9761
 39.2176  7735.9  87.2995
 39.2596  7735.41  87.2206
 39.3016  7623.32  86.1668
 39.3436  7563.19  86.2416
 39.3856  7683.43  86.3816
 39.4276  7692.87  86.9232
 39.4696  7646.79  86.288
 39.5116  7627.21  86.689
 39.5536  7871.21  88.4743
 39.5956  7814.78  87.2627
 39.6376  7816.74  87.2626
 39.6796  7673.4  86.2194
 39.7216  7867.27  87.3855
 39.7636  7800.56  87.5935
 39.8056  7765.64  87.1711
 39.8476  7617.76  86.5919
 39.8896  7701.39  86.7067
 39.9316  7684.75  86.8556
 39.9736  7751.54  86.8091
 40.0156  7733.6  86.5332
 40.0576  7697.5  86.6898
 40.0996  7914.27  87.0826
 40.1416  7722.86  86.8044
 40.1836  7845.76  87.3864
 40.2256  7851.46  87.4625
 40.2676  7662.8  86.5656
 40.3096  7737.72  86.8517
 40.3516  7794.89  87.292
 40.3936  7883.9  87.3453
 40.4356  7761.01  86.8531
 40.4776  7776.31  87.1893
 40.5196  7739.17  87.2608
 40.5616  7868.82  87.6416
 40.6036  7786.15  87.4287
 40.6456  7916.89  87.7561
 40.6876  7915.28  87.7406
 40.7296  7785.77  87.1574
 40.7716  7796.56  87.3438
 40.8136  7789.53  87.2474
 40.8556  7855.36  87.7566
 40.8976  7893.46  87.8833
 40.9396  7763.5  87.5095
 40.9816  7828.94  87.1619
 41.0236  7821.35  86.8947
 41.0656  7897.42  87.8595
 41.1076  7822.89  87.2127
 41.1496  7883.25  87.4641
 41.1916  7765.92  87.1323
 41.2336  7797.35  87.3026
 41.2756  7769.53  86.75
 41.3176  7731.64  87.1509
 41.3596  7697.75  86.6807
 41.4016  7802.33  87.5249
 41.4436  7801.64  87.317
 41.4856  7829.75  87.635
 41.5276  7817.95  87.5891
 41.5696  7782.99  87.0037
 41.6116  7648.55  86.6662
 41.6536  7775.89  87.2391
 41.6956  7842.62  87.5922
 41.7376  7765.36  87.2645
 41.7796  7753.58  87.1204
 41.8216  7782.57  87.4753
 41.8636  7809.54  87.5629
 41.9056  7633.36  86.3696
 41.9476  7714.83  87.0546
 41.9896  7804.88  87.2421
 42.0316  7851.2  87.5741
 42.0736  7840.23  87.6519
 42.1156  7754.31  86.9801
 42.1576  7757.32  87.0888
 42.1996  7723.08  87.0425
 42.2416  7722.78  86.6248
 42.2836  7604.47  86.0717
 42.3256  7642.11  86.3976
 42.3676  7668.94  86.3637
 42.4096  7693.61  86.4594
 42.4516  7693.76  86.5496
 42.4936  7603.39  86.1057
 42.5356  7600.68  86.2097
 42.5776  7735.17  86.9192
 42.6196  7765.65  87.1465
 42.6616  7545.74  86.0707
 42.7036  7798.41  86.8811
 42.7456  7720.76  86.8102
 42.7876  7641.95  86.4593
 42.8296  7698.2  86.6101
 42.8716  7512.13  85.7156
 42.9136  7674.66  86.3849
 42.9556  7684.67  86.6179
 42.9976  7802.58  87.2589
 43.0396  7633.29  86.0256
 43.0816  7576.76  86.0663
 43.1236  7624.32  86.406
 43.1656  7679.55  86.5447
 43.2076  7518.78  85.7418
 43.2496  7537.32  85.6655
 43.2916  7543.51  86.058
 43.3336  7592.85  86.1798
 43.3756  7595.62  85.9542
 43.4176  7484.77  85.4047
 43.4596  7498.49  85.3397
 43.5016  7565.11  86.1213
 43.5436  7475.33  85.5064
 43.5856  7536.71  85.8758
 43.6276  7494.8  85.5436
 43.6696  7523.89  85.8458
 43.7116  7601.52  85.9086
 43.7536  7562.29  86.1741
 43.7956  7432.82  86.6018
 43.8376  7569.83  85.7645
 43.8796  7434.56  85.2456
 43.9216  7456.24  85.2896
 43.9636  7470.53  85.4704
 44.0056  7438.28  85.5228
 44.0476  7479.04  85.3836
 44.0896  7444.09  85.5294
 44.1316  7488.01  85.4535
 44.1736  7463.25  85.2883
 44.2156  7405.67  84.8252
 44.2576  7422.42  85.2329
 44.2996  7344.37  84.9461
 44.3416  7526.21  85.5537
 44.3836  7208.78  84.0552
 44.4256  7319.95  84.345
 44.4676  7341.52  84.6275
 44.5096  7258.97  84.2956
 44.5516  7498.9  85.6408
 44.5936  7255.02  84.1922
 44.6356  7430.33  84.9403
 44.6776  7356.94  84.8425
 44.7196  7240.96  84.4626
 44.7616  7265.55  85.9243
 44.8036  7218.69  84.2984
 44.8456  7236.71  84.4043
 44.8876  7347.26  84.893
 44.9296  7378.46  84.5362
 44.9716  7256.51  84.2695
 45.0136  7248.62  84.1463
 45.0556  7216.99  84.0435
 45.0976  7203.99  84.0215
 45.1396  7006.32  82.6351
 45.1816  7257.12  84.0171
 45.2236  7388.17  84.6881
 45.2656  7278.06  84.5331
 45.3076  7222.96  84.0146
 45.3496  7097.86  83.5711
 45.3916  7335.42  85.233
 45.4336  7236.95  84.5099
 45.4756  7134.95  83.7728
 45.5176  7282.66  84.2605
 45.5596  7286.49  84.3862
 45.6016  7144.65  83.979
 45.6436  7135.6  83.1233
 45.6856  7174.9  83.9907
 45.7276  7188.89  85.3735
 45.7696  7113.93  84.6093
 45.8116  7245.01  84.8377
 45.8536  7226.69  84.6335
 45.8956  7262.12  84.1998
 45.9376  7298.76  83.8783
 45.9796  7148.24  83.6967
 46.0216  7191.11  84.2746
 46.0636  7208.28  83.523
 46.1056  7250.74  83.7603
 46.1476  7108.16  83.5146
 46.1896  7196.07  84.1734
 46.2316  7264.02  84.447
 46.2736  7054.06  83.3491
 46.3156  7124.41  83.5834
 46.3576  7160.17  83.9933
 46.3996  7137.59  84.0147
 46.4416  7240.73  84.1823
 46.4836  7069.39  83.55
 46.5256  7167.32  84.064
 46.5676  7113.96  83.8652
 46.6096  7060.37  83.4763
 46.6516  7150.54  83.0713
 46.6936  7152.05  83.5519
 46.7356  7152.04  83.6643
 46.7776  7043.26  83.8443
 46.8196  7031.67  83.5205
 46.8616  6901.6  82.5431
 46.9036  7009.17  82.8576
 46.9456  6954.93  82.1786
 46.9876  7094.75  83.0807
 47.0296  7043.86  83.456
 47.0716  6928.14  82.6035
 47.1136  7013.23  82.8002
 47.1556  7035.22  82.7888
 47.1976  7030.98  82.8712
 47.2396  7027.95  83.2203
 47.2816  6950.11  82.4679
 47.3236  6861.85  82.2972
 47.3656  6917.32  82.6473
 47.4076  6985.49  82.7025
 47.4496  6900.32  82.3636
 47.4916  6992.71  83.0973
 47.5336  7004.79  82.9861
 47.5756  7015.68  83.1722
 47.6176  6910.33  82.4418
 47.6596  6919.55  82.2206
 47.7016  7131.68  83.2866
 47.7436  7013.17  82.8599
 47.7856  6997.21  82.8601
 47.8276  6892.58  82.2799
 47.8696  6928.74  82.5737
 47.9116  7023.47  82.8562
 47.9536  6954.12  82.3876
 47.9956  6820.7  82.2899
 48.0376  6842.13  82.1957
 48.0796  6928.47  82.8435
 48.1216  6932.48  82.8018
 48.1636  7110.98  83.3299
 48.2056  6889.83  82.2769
 48.2476  7014.97  83.3326
 48.2896  6856.47  82.2893
 48.3316  6817.01  81.9938
 48.3736  6823.79  82.0616
 48.4156  6774.73  81.6159
 48.4576  6728.53  81.6264
 48.4996  6893.42  82.0739
 48.5416  6948.49  82.7371
 48.5836  6878.02  82.0002
 48.6256  6835.85  81.9476
 48.6676  6934.12  83.0341
 48.7096  6776.47  81.3847
 48.7516  6894.48  82.2274
 48.7936  6694  81.0818
 48.8356  6771.85  81.6022
 48.8776  6825.56  82.4034
 48.9196  6817.01  81.8289
 48.9616  6760.53  81.8509
 49.0036  6845.76  82.7129
 49.0456  6785.27  82.327
 49.0876  6810  82.1098
 49.1296  6567.51  80.6936
 49.1716  6595.77  80.7493
 49.2136  6794.11  81.8842
 49.2556  6787.43  81.8694
 49.2976  6825.32  82.1792
 49.3396  6655.29  81.1915
 49.3816  6765.86  81.3177
 49.4236  6723.71  81.4646
 49.4656  6659.51  81.0942
 49.5076  6710.86  81.1638
 49.5496  6682.97  81.0539
 49.5916  6715.61  81.1754
 49.6336  6688.34  81.2012
 49.6756  6723.32  81.6443
 49.7176  6687.01  81.3649
 49.7596  6658.69  80.9705
 49.8016  6799.16  81.7362
 49.8436  6605.15  80.8495
 49.8856  6556.31  80.5509
 49.9276  6628.06  81.0972
 49.9696  6585.33  80.8204
 50.0116  6645.86  81.3072
 50.0536  6663.76  81.3785
 50.0956  6563.2  80.831
 50.1376  6700.75  81.3633
 50.1796  6623.92  81.1714
 50.2216  6621.59  81.147
 50.2636  6581.24  80.5255
 50.3056  6543.77  80.4727
 50.3476  6566.39  80.6275
 50.3896  6549.96  80.5015
 50.4316  6605.74  80.6813
 50.4736  6517.46  80.3549
 50.5156  6653.52  81.1742
 50.5576  6586.17  80.5348
 50.5996  6611.97  80.9678
 50.6416  6479.88  80.0854
 50.6836  6581.74  80.7761
 50.7256  6622.62  80.9378
 50.7676  6668.32  81.5137
 50.8096  6497.24  80.0343
 50.8516  6446.69  80.129
 50.8936  6508.27  80.2909
 50.9356  6582.57  80.8578
 50.9776  6503.68  80.5075
 51.0196  6403.65  80.0143
 51.0616  6470.06  79.7751
 51.1036  6523.97  80.4415
 51.1456  6545.14  80.4984
 51.1876  6500.33  79.5761
 51.2296  6412.91  79.6577
 51.2716  6363.21  79.0486
 51.3136  6358.61  79.474
 51.3556  6444.7  79.6362
 51.3976  6407.43  79.56
 51.4396  6325.81  79.3462
 51.4816  6356.77  79.3948
 51.5236  6403.12  79.7799
 51.5656  6415.47  79.4612
 51.6076  6449.93  79.7548
 51.6496  6433.06  79.8328
 51.6916  6421.54  80.1827
 51.7336  6483.54  80.5842
 51.7756  6513.97  80.4846
 51.8176  6334.42  79.4693
 51.8596  6318.73  79.386
 51.9016  6519.02  80.2446
 51.9436  6348.8  80.6241
 51.9856  6310.8  80.8022
 52.0276  6340.45  79.5357
 52.0696  6425.33  80.1344
 52.1116  6321.48  79.5789
 52.1536  6415.22  80.0211
 52.1956  6547.73  80.3475
 52.2376  6577.5  80.718
 52.2796  6375.75  79.2809
 52.3216  6272.03  79.3092
 52.3636  6311.81  79.1483
 52.4056  6420.97  79.6778
 52.4476  6297.34  79.2745
 52.4896  6279.8  79.2105
 52.5316  6318.39  79.5088
 52.5736  6388.77  79.6665
 52.6156  6313.94  79.5794
 52.6576  6448.07  79.8624
 52.6996  6251.35  79.592
 52.7416  6340.46  79.9992
 52.7836  6364.49  80.0478
 52.8256  6311.21  78.934
 52.8676  6340.86  79.7083
 52.9096  6364.99  79.94
 52.9516  6308.37  79.9529
 52.9936  6160.93  79.3927
 53.0356  6204.45  78.7097
 53.0776  6116.41  78.4238
 53.1196  6136.27  78.651
 53.1616  6152.94  78.8032
 53.2036  6217.34  79.164
 53.2456  6198.4  79.1557
 53.2876  6119.89  78.3617
 53.3296  6251.29  79.5192
 53.3716  6196.3  78.9939
 53.4136  6226.57  79.257
 53.4556  6144.06  78.7627
 53.4976  6229.45  79.1588
 53.5396  6268.07  79.7893
 53.5816  6171.26  78.8144
 53.6236  6020.1  78.1716
 53.6656  6087.44  78.2499
 53.7076  6127.96  78.4702
 53.7496  6131.32  78.6098
 53.7916  6186.28  79.0871
 53.8336  6092.5  78.3924
 53.8756  6026.53  78.4925
 53.9176  6115.85  78.4317
 53.9596  6192.13  79.6532
 54.0016  6100.4  78.4167
 54.0436  6110.24  78.68
 54.0856  6246.04  78.995
 54.1276  6111.95  78.3327
 54.1696  6113.53  78.5155
 54.2116  6135.22  78.4178
 54.2536  6110.56  78.0747
 54.2956  6140.81  78.3152
 54.3376  6050.91  78.211
 54.3796  6117.31  78.5394
 54.4216  6201.14  79.1187
 54.4636  6142.12  78.7013
 54.5056  6143.6  78.535
 54.5476  6122.08  78.7301
 54.5896  6113.85  78.4972
 54.6316  6124.66  78.4419
 54.6736  6171.65  78.7664
 54.7156  6174.03  78.8548
 54.7576  6036.13  77.9658
 54.7996  6097.37  78.5085
 54.8416  6164.48  78.9666
 54.8836  6042.98  78.3036
 54.9256  6096.13  78.392
 54.9676  6175.15  78.7559
 55.0096  6090.76  78.2863
 55.0516  6069.79  78.3164
 55.0936  6090.53  78.1511
 55.1356  6029.84  77.8094
 55.1776  6033  78.0902
 55.2196  6121.71  78.446
 55.2616  6104.78  78.554
 55.3036  6015.54  78.128
 55.3456  6091.26  78.7574
 55.3876  6073.58  78.3936
 55.4296  6089.3  78.4697
 55.4716  5982.09  77.8175
 55.5136  6032.71  77.9056
 55.5556  6091.64  78.3621
 55.5976  6064.46  78.2409
 55.6396  6057.13  78.0559
 55.6816  6063.51  78.0616
 55.7236  6099.03  78.3206
 55.7656  6138.13  78.3397
 55.8076  6166.2  78.4981
 55.8496  5959.59  77.5989
 55.8916  6034.15  78.1387
 55.9336  6018.93  77.89
 55.9756  6048.92  77.9778
 56.0176  5927.42  77.3386
 56.0596  6014.09  77.8898
 56.1016  6036.05  78.0616
 56.1436  5948.62  77.7226
 56.1856  6061.78  78.2061
 56.2276  6069.59  78.319
 56.2696  6062.28  78.2411
 56.3116  5983.6  78.1295
 56.3536  6069.97  78.3534
 56.3956  6067.79  78.3299
 56.4376  5979.81  77.7921
 56.4796  5990.92  77.6631
 56.5216  5967.97  77.8853
 56.5636  6044.91  77.9809
 56.6056  5914.33  77.366
 56.6476  6075.46  78.0442
 56.6896  5979.55  77.8686
 56.7316  6063.25  78.3126
 56.7736  6043.6  78.3958
 56.8156  5980.04  77.773
 56.8576  5978.74  77.7047
 56.8996  6026.53  77.9543
 56.9416  6015.1  78.1817
 56.9836  5967.2  77.3926
 57.0256  5985.73  77.8258
 57.0676  5995.97  78.0194
 57.1096  6029.68  78.021
 57.1516  5993.24  77.8042
 57.1936  5962.25  77.3979
 57.2356  5922.02  77.4451
 57.2776  5936.02  77.4976
 57.3196  5951.89  77.9662
 57.3616  6045.4  78.0739
 57.4036  6075.9  78.332
 57.4456  5967.77  77.6023
 57.4876  6040.62  77.9307
 57.5296  5918.84  77.3729
 57.5716  5953.45  77.6909
 57.6136  6040.05  78.068
 57.6556  6014.7  78.047
 57.6976  5994.72  77.7295
 57.7396  5906.04  77.5344
 57.7816  5925.1  78.0113
 57.8236  5917.07  77.7554
 57.8656  5955.28  77.6692
 57.9076  5945.24  77.6325
 57.9496  5911.96  77.7582
 57.9916  5947.64  77.5171
 58.0336  5915.67  77.5746
 58.0756  5959.28  77.4456
 58.1176  5933.58  77.3282
 58.1596  5912.42  77.7442
 58.2016  6051.25  77.8696
 58.2436  5993.48  77.913
 58.2856  5963.75  77.6343
 58.3276  5982.06  78.1272
 58.3696  5896.49  77.3264
 58.4116  6045.78  78.1589
 58.4536  6050.23  78.0735
 58.4956  6013.42  78.0129
 58.5376  5883.4  76.7471
 58.5796  5908.74  77.3198
 58.6216  5968.39  77.5267
 58.6636  6051.68  78.2778
 58.7056  5936.71  77.3961
 58.7476  5920.76  77.736
 58.7896  5955.77  77.6119
 58.8316  5926.66  77.4232
 58.8736  6097.45  78.5373
 58.9156  5917.34  77.4096
 58.9576  6139.77  79.1623
 58.9996  6200.89  78.7989
 59.0416  6141.33  78.7794
 59.0836  6093.25  78.3937
 59.1256  5905.77  77.8791
 59.1676  6074.85  79.2998
 59.2096  6049.19  78.421
 59.2516  5988.29  77.6082
 59.2936  5992.36  77.9613
 59.3356  5915.32  77.3376
 59.3776  6006.84  78.102
 59.4196  6019.39  78.1198
 59.4616  5953.25  77.5503
 59.5036  5913.4  77.3224
 59.5456  6109.27  78.2872
 59.5876  5983.32  77.6661
 59.6296  5974.7  77.679
 59.6716  6046.8  78.2042
 59.7136  6061.45  78.2872
 59.7556  6053.13  78.37
 59.7976  6139.75  78.6689
 59.8396  5965.71  77.4408
 59.8816  5936.46  77.7913
 59.9236  5972.46  77.6725
 59.9656  5926.4  77.6307
 60.0076  6070.21  77.9228
 60.0496  6029.59  78.164
 60.0916  6123.42  78.1851
 60.1336  5907.77  77.8908
 60.1756  5930.38  79.2128
 60.1996  0.0000000E+00  0.0000000E+00