File: docs/examples/XRD/IS17_D/Data/IS17_D/17_Db_f00016.xye
# /beamlines/bl04/projects/cycle2025-II/20250340211-lsimonelli/DATA/IS17_D/17_Db_f00016.xye : mythproc.py merge -s 0.006 -l 0.5 -f /beamlines/bl04/inhouse/ff/FlatField/ff_20Nov2024rod8mm60s_17keV.raw -b True -c true -o xye /beamlines/bl04/projects/cycle2025-II/20250340211-lsimonelli/DATA/IS17_D/17_Db_00016.dat
# IsMon = [6754119, 6751442, 6750983]  IsPos = [-1.5000, -2.4885, -3.4986]
# Wave = 0.4962  CalPath /beamlines/bl04/projects/cycle2025-II/20250340211-lsimonelli/DATA/Align/Si_Pos1_25keV_f00001.cal
# Date = 2025-09-23_22:10:26 Dt = 4.8000  Bin = 0.0060  <imon> = 6752181 +/- 1383 (Min/Max) 6750983 / 6754119
# icurr 250.0609  mocoIn 1.7057E-05  mocoOut 0.8001  i15 7.07098e+06  imon 6.75218e+06  i7 6.6667  iEMpd_timer 4.8000  iEMpd_1 3.5907E-08  iEMpd_2 7.9425E-08  iEMpd_3 1.7830E-08  iEMpd_4 4.7928E-08  iEMhp_timer 4.8000  iEMhp_1 4.8858E-06  iEMhp_2 -2.4214E-08  iEMhp_3 -2.2926E-08  iEMhp_4 -1.9884E-08
#      9776
 1.5856  41331.9  208.729
 1.6276  48368.7  221.925
 1.6696  53646.2  232.895
 1.7116  61106.3  249.047
 1.7536  69269  264.03
 1.7956  73658.3  272.946
 1.8376  70069.5  266.637
 1.8796  60260.5  245.459
 1.9216  49173.4  222.609
 1.9636  42535.2  206.711
 2.0056  38513.9  195.441
 2.0476  35558.4  189.851
 2.0896  34464.7  185.812
 2.1316  33367.1  181.951
 2.1736  31971.4  179.517
 2.2156  32546.2  179.67
 2.2576  31137.4  176.37
 2.2996  30123.7  174.111
 2.3416  30198.6  172.937
 2.3836  30279.4  173.274
 2.4256  28942.4  169.957
 2.4676  29112  170.213
 2.5096  28968.5  169.848
 2.5516  37930.9  198.809
 2.5936  168730  410.984
 2.6356  33033.7  182.606
 2.6776  27451.8  165.364
 2.7196  26254.2  162.194
 2.7616  25997.5  161.193
 2.8036  25239.1  158.979
 2.8456  25237.2  159.598
 2.8876  24851.4  158.21
 2.9296  24510.1  157.281
 2.9716  24028.2  155.232
 3.0136  24181.7  155.789
 3.0556  23771.3  154.844
 3.0976  23865  154.062
 3.1396  23504.5  153.618
 3.1816  23326.3  152.975
 3.2236  23041.1  152.036
 3.2656  22902.7  150.658
 3.3076  22884.3  152.02
 3.3496  23253  152.427
 3.3916  23417.7  152.551
 3.4336  23692  154.016
 3.4756  24265.4  155.803
 3.5176  24703.9  156.981
 3.5596  24709.9  159.952
 3.6016  24457  156.271
 3.6436  23933.3  155.672
 3.6856  23536.6  152.725
 3.7276  22642.5  150.846
 3.7696  22527.5  150.44
 3.8116  22103.9  149.121
 3.8536  22244.2  149.521
 3.8956  22380.1  149.801
 3.9376  22849.6  151.667
 3.9796  22028.6  148.392
 4.0216  21942.3  147.166
 4.0636  22081.1  149.058
 4.1056  21944  148.256
 4.1476  22207.4  149.431
 4.1896  22326.6  149.707
 4.2316  22487.3  150.079
 4.2736  22818  150.983
 4.3156  23021.1  151.884
 4.3576  23796.9  154.32
 4.3996  24045.6  155.201
 4.4416  24861  157.599
 4.4836  26287.7  162.221
 4.5256  26040  162.046
 4.5676  25548.1  160.766
 4.6096  25856.7  160.777
 4.6516  26577.7  162.342
 4.6936  26611.7  163.262
 4.7356  27791.9  166.661
 4.7776  26696  163.184
 4.8196  26529.8  163.299
 4.8616  25902  160.993
 4.9036  25865.6  160.48
 4.9456  25939  161.359
 4.9876  24946.8  158.135
 5.0296  25143.2  158.613
 5.0716  24943.7  158.571
 5.1136  24973.2  158.531
 5.1556  25488.3  159.64
 5.1976  36536.9  191.089
 5.2396  26314.8  161.896
 5.2816  25800.5  160.754
 5.3236  25850.8  160.619
 5.3656  25390.9  160.093
 5.4076  25015.6  159.033
 5.4496  25007.4  158.533
 5.4916  25265.4  159.101
 5.5336  25006.6  158.297
 5.5756  25079.1  158.522
 5.6176  25182.3  158.317
 5.6596  25502.6  160.131
 5.7016  25425.2  159.324
 5.7436  25563.3  160.021
 5.7856  25252  159.112
 5.8276  25629.9  160.027
 5.8696  25852.5  160.765
 5.9116  25539.3  160.462
 5.9536  26137.8  162.095
 5.9956  26124.1  161.472
 6.0376  26234.7  162.411
 6.0796  26604  163.383
 6.1216  26467.2  163.165
 6.1636  26739.4  163.075
 6.2056  26844.1  164.066
 6.2476  27039.5  164.339
 6.2896  27160.5  164.579
 6.3316  27264.1  165.06
 6.3736  27326.2  165.145
 6.4156  27184.3  164.657
 6.4576  27460.2  165.073
 6.4996  27268.1  164.959
 6.5416  27801.2  166.687
 6.5836  27911.1  167.251
 6.6256  27706.7  166.21
 6.6676  27988.8  166.636
 6.7096  28233.6  168.19
 6.7516  28487.5  168.619
 6.7936  30200.2  172.767
 6.8356  30791.8  174.801
 6.8776  29679.5  172.411
 6.9196  29086.1  171.065
 6.9616  29495.3  171.691
 7.0036  29885  172.508
 7.0456  30109.8  172.474
 7.0876  30117.1  174.051
 7.1296  29854.9  172.535
 7.1716  29584.7  171.31
 7.2136  29621.4  171.202
 7.2556  29799.2  171.871
 7.2976  29977.4  172.863
 7.3396  29683.5  172.23
 7.3816  29955.6  173.228
 7.4236  30098  172.947
 7.4656  30487.6  173.53
 7.5076  30539.8  173.831
 7.5496  30201.5  173.395
 7.5916  30348.7  173.859
 7.6336  31267.4  176.361
 7.6756  30998.3  175.457
 7.7176  31412.3  176.931
 7.7596  31223.9  177.589
 7.8016  38074.2  198.505
 7.8436  31949.7  178.576
 7.8856  31733.7  177.596
 7.9276  32411.2  179.873
 7.9696  32473.1  180.341
 8.0116  33307.1  181.588
 8.0536  33901.1  183.084
 8.0956  36584.8  191.381
 8.1376  34167  184.441
 8.1796  34265  185.223
 8.2216  35394.3  187.024
 8.2636  36559.5  190.326
 8.3056  35348.5  187.898
 8.3476  37604.9  193.125
 8.3896  36435.8  190.615
 8.4316  35254.1  187.234
 8.4736  35516.1  187.412
 8.5156  35141  186.688
 8.5576  35081  187.467
 8.5996  34629.9  185.175
 8.6416  34826.9  186.923
 8.6836  34587.4  186.121
 8.7256  35609.6  188.309
 8.7676  38908.4  199.825
 8.8096  39226  197.843
 8.8516  36592.7  190.689
 8.8936  38149.2  194.625
 8.9356  35703.5  188.601
 8.9776  35052.7  186.96
 9.0196  35311.1  187.317
 9.0616  35782.8  188.079
 9.1036  37903.3  194.763
 9.1456  34780.7  185.922
 9.1876  34379.4  184.779
 9.2296  33672.6  182.339
 9.2716  33516.2  181.95
 9.3136  33264.9  181.254
 9.3556  34065.8  183.405
 9.3976  32822.8  180.515
 9.4396  32649.8  179.96
 9.4816  32683.4  179.902
 9.5236  32346.3  178.893
 9.5656  32289.6  179.071
 9.6076  31405.5  177.12
 9.6496  31893.6  178.376
 9.6916  31416.2  176.996
 9.7336  31873.2  178.056
 9.7756  31470  178.112
 9.8176  31360.5  177.353
 9.8596  31122.3  175.179
 9.9016  31052.5  174.966
 9.9436  30514.7  173.2
 9.9856  30848.1  174.581
 10.0276  30117.5  173.55
 10.0696  30389.4  173.388
 10.1116  29804.2  171.967
 10.1536  29735.7  171.428
 10.1956  28702  168.538
 10.2376  28701.4  168.05
 10.2796  28390.6  167.246
 10.3216  28217.4  166.876
 10.3636  28525.9  167.952
 10.4056  32527  179.775
 10.4476  33408.1  181.778
 10.4896  38164  193.64
 10.5316  34788.5  185.28
 10.5736  28676.4  168.997
 10.6156  28409  167.952
 10.6576  35354.9  185.786
 10.6996  28019.3  166.088
 10.7416  27264  164.04
 10.7836  28057.2  167.096
 10.8256  25996.8  161.252
 10.8676  25880.8  160.451
 10.9096  26059.7  161.033
 10.9516  25552.9  158.431
 10.9936  26667.3  162.062
 11.0356  26311.5  161.581
 11.0776  28140.1  166.422
 11.1196  27711.2  165.928
 11.1616  25533.2  158.952
 11.2036  27055.2  163.466
 11.2456  29150.8  170.422
 11.2876  25205.4  158.196
 11.3296  25042.5  157.604
 11.3716  25392.2  158.443
 11.4136  24811.8  157.436
 11.4556  24935.4  157.499
 11.4976  26932  162.663
 11.5396  27116.4  163.39
 11.5816  25314.7  158.275
 11.6236  24413.3  155.882
 11.6656  24513.7  155.165
 11.7076  23704.5  153.397
 11.7496  24110.3  158.623
 11.7916  24667.2  155.737
 11.8336  23199.5  151.929
 11.8756  24099  154.371
 11.9176  23333.7  151.825
 11.9596  23305  151.642
 12.0016  22815.3  150.801
 12.0436  22768.7  150.113
 12.0856  22556.7  149.889
 12.1276  22730.3  150.424
 12.1696  22798.4  149.791
 12.2116  23149.6  150.946
 12.2536  26209.2  161.423
 12.2956  23253.5  151.44
 12.3376  23238.4  151.579
 12.3796  22683.8  150.236
 12.4216  23140  150.953
 12.4636  24526.3  156.355
 12.5056  22638.6  149.501
 12.5476  22649.8  149.051
 12.5896  22244.2  148.356
 12.6316  22328.4  148.765
 12.6736  22190.5  148.651
 12.7156  22658.5  150.184
 12.7576  22580.9  150.181
 12.7996  22675.8  149.169
 12.8416  23006  151.288
 12.8836  23990.4  154.309
 12.9256  23120.1  150.553
 12.9676  22934.4  150.342
 13.0096  22994.2  151.612
 13.0516  23073.9  150.935
 13.0936  22812.8  150.208
 13.1356  23207.7  150.766
 13.1776  23228.2  151.826
 13.2196  22989.6  150.693
 13.2616  22527.1  149.481
 13.3036  23139.6  151.624
 13.3456  22644.6  149.975
 13.3876  23604.1  152.599
 13.4296  23146.5  151.28
 13.4716  23217.4  151.145
 13.5136  23172.3  151.124
 13.5556  23300  152.16
 13.5976  23074.1  151.585
 13.6396  23482.9  152.296
 13.6816  23584.7  152.957
 13.7236  23908  153.703
 13.7656  25736  159.916
 13.8076  27115.5  162.818
 13.8496  24798.5  156.522
 13.8916  23809  154.314
 13.9336  22699.5  149.973
 13.9756  22681  149.309
 14.0176  22664.2  149.925
 14.0596  23711.1  153.261
 14.1016  22594.4  150.033
 14.1436  22377.3  148.452
 14.1856  21970  147.388
 14.2276  22494.2  149.609
 14.2696  22373.9  149.068
 14.3116  21517.9  146.108
 14.3536  21213.6  145.218
 14.3956  21003.7  144.232
 14.4376  21294.6  145.029
 14.4796  21131.7  144.467
 14.5216  20643.8  143.552
 14.5636  21483  146.014
 14.6056  21062.7  144.139
 14.6476  20582.6  141.754
 14.6896  20261.5  141.186
 14.7316  19961.2  141.137
 14.7736  19805.2  139.753
 14.8156  19672.4  139.303
 14.8576  19730.1  139.361
 14.8996  19632.1  140.179
 14.9416  19163.5  138.515
 14.9836  19163  138.504
 15.0256  18685.6  135.725
 15.0676  18318.9  134.686
 15.1096  18137.3  133.765
 15.1516  17975  133.698
 15.1936  17986.7  133.195
 15.2356  17998  133.505
 15.2776  17852.2  132.564
 15.3196  17704.5  132.979
 15.3616  17498.7  131.971
 15.4036  17561.8  132.073
 15.4456  17915.3  132.835
 15.4876  17439.9  130.971
 15.5296  17203.7  130.357
 15.5716  16780.2  128.362
 15.6136  17085.6  129.844
 15.6556  19345  137.379
 15.6976  17577.4  131.031
 15.7396  17115.6  129.886
 15.7816  17167.7  129.604
 15.8236  16391.8  127.309
 15.8656  16383.8  127.079
 15.9076  16659.7  127.968
 15.9496  17910.4  135.484
 15.9916  16592  130.803
 16.0336  16868.2  128.821
 16.0756  16657.1  128.317
 16.1176  16131.1  126.209
 16.1596  16159.4  127.612
 16.2016  16027.2  125.906
 16.2436  15841.2  125.527
 16.2856  16179.2  126.376
 16.3276  15426.5  123.842
 16.3696  15812.3  125.204
 16.4116  15725.9  125.281
 16.4536  15846.8  125.585
 16.4956  16781.7  128.969
 16.5376  16154.5  126.726
 16.5796  15764.3  124.568
 16.6216  15565.3  124.041
 16.6636  15460.9  123.802
 16.7056  15468.6  123.698
 16.7476  15468.7  123.375
 16.7896  15521.1  124.163
 16.8316  15325.5  123.37
 16.8736  15999.8  126.294
 16.9156  15785.7  125.78
 16.9576  15232.5  124.32
 16.9996  15462.5  125.719
 17.0416  15266.4  123.353
 17.0836  15239.5  123.013
 17.1256  15021.7  122.135
 17.1676  15709.8  124.88
 17.2096  15819.2  125.197
 17.2516  15559.3  124.243
 17.2936  14860.7  121.476
 17.3356  14685.1  120.746
 17.3776  14560.8  120.408
 17.4196  14592.3  120.256
 17.4616  14808.9  121.049
 17.5036  15233.1  123.138
 17.5456  14483.7  120.686
 17.5876  14433.5  119.547
 17.6296  14528.3  119.757
 17.6716  14614.5  120.702
 17.7136  15582.8  124.762
 17.7556  14408.6  120.264
 17.7976  14434.8  119.977
 17.8396  14455.6  119.711
 17.8816  14033.8  118.499
 17.9236  13785.8  117.238
 17.9656  14132.9  119.374
 18.0076  14873.5  121.899
 18.0496  15668.3  124.229
 18.0916  21812.1  147.222
 18.1336  18657.1  136.259
 18.1756  15669.9  124.432
 18.2176  16467.9  127.781
 18.2596  14101.4  117.979
 18.3016  14996.5  121.936
 18.3436  15818.5  125.473
 18.3856  14696.6  120.828
 18.4276  14011.2  117.686
 18.4696  14222.5  118.656
 18.5116  14339.7  119.417
 18.5536  13928.7  118.049
 18.5956  13883.9  117.421
 18.6376  14209  119.194
 18.6796  13926.1  117.326
 18.7216  14050.2  118.407
 18.7636  13801.6  117.281
 18.8056  13408.4  115.523
 18.8476  13179.2  114.85
 18.8896  13129.3  114.283
 18.9316  13450.7  115.507
 18.9736  13326.5  114.833
 19.0156  13923.2  117.773
 19.0576  13866.4  116.402
 19.0996  13415.5  115.195
 19.1416  13598.6  116.361
 19.1836  13180.6  114.173
 19.2256  13010.6  113.658
 19.2676  13101.4  114.131
 19.3096  13106  114.395
 19.3516  13359.2  115.267
 19.3936  13201.1  114.728
 19.4356  13376.5  115.298
 19.4776  13147.7  114.404
 19.5196  13000.2  113.614
 19.5616  13223.1  114.838
 19.6036  13303  114.562
 19.6456  13347.9  115.005
 19.6876  13654.4  115.957
 19.7296  13315  114.955
 19.7716  13195.4  114.466
 19.8136  13452.5  115.908
 19.8556  13710.3  116.506
 19.8976  13980.4  117.699
 19.9396  13765.7  116.394
 19.9816  13891.8  117.179
 20.0236  14453.5  119.701
 20.0656  13497.8  115.686
 20.1076  13344.3  115.479
 20.1496  12952.3  113.77
 20.1916  13267.5  114.641
 20.2336  13169.2  114.174
 20.2756  12669.8  112.417
 20.3176  12644.7  112.064
 20.3596  12725.4  112.409
 20.4016  12864.5  112.814
 20.4436  12653.6  112.449
 20.4856  12697.3  112.426
 20.5276  12390.8  111.51
 20.5696  12451.1  111.347
 20.6116  12736.1  112.783
 20.6536  12340  110.603
 20.6956  12491.3  111.35
 20.7376  12494  111.57
 20.7796  12275.2  110.287
 20.8216  12626.4  111.576
 20.8636  12938.3  113.314
 20.9056  14329.8  119.185
 20.9476  12904.4  112.947
 20.9896  14045  117.7
 21.0316  12496.4  110.928
 21.0736  13058.1  113.903
 21.1156  13378.1  115.466
 21.1576  12839  113.15
 21.1996  12360.9  111.004
 21.2416  12407.2  111.033
 21.2836  12676  112.216
 21.3256  12476.2  111.393
 21.3676  12402.6  110.617
 21.4096  12770.2  112.621
 21.4516  12366.9  110.646
 21.4936  12141.8  109.897
 21.5356  12372.7  110.885
 21.5776  12433  110.992
 21.6196  12546.2  111.535
 21.6616  12553.5  111.646
 21.7036  12349.3  110.508
 21.7456  12210.1  109.962
 21.7876  11943.7  108.528
 21.8296  11948.9  108.398
 21.8716  12050.4  109.077
 21.9136  12283.4  110.329
 21.9556  12471.1  110.849
 21.9976  12121.3  109.313
 22.0396  12048.3  109.225
 22.0816  12021.3  109.622
 22.1236  12457.3  111.056
 22.1656  12019.2  109.278
 22.2076  11732.9  107.402
 22.2496  11719  107.358
 22.2916  11807.3  107.66
 22.3336  12107.7  109.706
 22.3756  11865.3  108.351
 22.4176  11802.6  107.92
 22.4596  11587.2  107.501
 22.5016  11845.8  108.213
 22.5436  11777.5  107.777
 22.5856  12108.9  109.524
 22.6276  12137.7  109.777
 22.6696  11666  107.972
 22.7116  11598.6  107.189
 22.7536  11715.6  107.703
 22.7956  11796  107.428
 22.8376  11495.2  106.552
 22.8796  11558  106.65
 22.9216  11510.2  106.953
 22.9636  11569.4  106.412
 23.0056  11660.5  106.962
 23.0476  11801.2  108.159
 23.0896  12150.4  109.134
 23.1316  12053.2  109.125
 23.1736  11936.4  111.456
 23.2156  12186.6  109.965
 23.2576  12134.2  109.923
 23.2996  11792.7  108.154
 23.3416  12143.4  110.261
 23.3836  11902.5  108.407
 23.4256  12144.7  109.634
 23.4676  12156  109.389
 23.5096  12164.1  110.061
 23.5516  11930.3  108.319
 23.5936  12167.4  110.293
 23.6356  12353.8  110.802
 23.6776  12004.2  109.747
 23.7196  12073.6  109.535
 23.7616  12002  108.925
 23.8036  12195.3  109.842
 23.8456  11766.9  107.47
 23.8876  11878.6  108.321
 23.9296  11643.4  107.72
 23.9716  11820  107.76
 24.0136  11824  108.66
 24.0556  11724.4  107.917
 24.0976  11717.8  107.715
 24.1396  11404  108.812
 24.1816  11757.4  109.249
 24.2236  11780.7  108.645
 24.2656  11808.5  108.264
 24.3076  11646.5  107.782
 24.3496  11928  108.959
 24.3916  11749.2  108.181
 24.4336  11670  108.011
 24.4756  11742.7  108.241
 24.5176  11456.3  106.535
 24.5596  11357.2  106.388
 24.6016  11285.6  106.156
 24.6436  11560.9  106.957
 24.6856  11551.9  106.658
 24.7276  11464.9  106.591
 24.7696  11463.6  106.688
 24.8116  11347.5  106.322
 24.8536  11468  106.886
 24.8956  11126.7  105.02
 24.9376  11434.7  106.638
 24.9796  11103.3  105.198
 25.0216  11247.3  105.983
 25.0636  11286  105.824
 25.1056  11049.5  105.141
 25.1476  10791.1  105.76
 25.1896  10984.8  105.247
 25.2316  10852.6  103.788
 25.2736  10923.8  103.89
 25.3156  10720  102.987
 25.3576  10665.4  103.15
 25.3996  10837.9  103.969
 25.4416  10753.4  103.538
 25.4836  10585.7  103.234
 25.5256  10674.4  103.041
 25.5676  10743.9  103.113
 25.6096  10542.8  102.7
 25.6516  10698.5  102.969
 25.6936  10657.9  103.084
 25.7356  10512.5  102.508
 25.7776  10605.9  102.648
 25.8196  10558.7  102.581
 25.8616  10557.6  102.509
 25.9036  10917.6  103.693
 25.9456  10352  101.556
 25.9876  10517.3  102.275
 26.0296  10586.5  102.365
 26.0716  10664.5  103.08
 26.1136  10880.1  104.046
 26.1556  10854.7  103.22
 26.1976  10410.6  102.089
 26.2396  10444.2  101.674
 26.2816  10529.4  102.439
 26.3236  10558.6  102.651
 26.3656  10690.1  103.091
 26.4076  10253.8  101.176
 26.4496  10672.5  102.813
 26.4916  10809.3  103.362
 26.5336  11173.2  105.437
 26.5756  11055.7  104.761
 26.6176  10728.8  103.224
 26.6596  10588.5  102.854
 26.7016  10287.9  101.188
 26.7436  10275.1  101.198
 26.7856  10066.7  100.161
 26.8276  10089.2  100.24
 26.8696  10116  100.253
 26.9116  10070.6  99.9604
 26.9536  10101.2  100.162
 26.9956  10013.5  99.765
 27.0376  10071.8  100.264
 27.0796  10037.6  99.8724
 27.1216  10283.3  101.096
 27.1636  9997.42  99.8563
 27.2056  10013.1  99.8154
 27.2476  9982.33  99.6451
 27.2896  9937.4  99.4751
 27.3316  9886.91  99.0185
 27.3736  9778.93  98.7443
 27.4156  9897  99.1674
 27.4576  9960.26  99.7007
 27.4996  10052.9  99.7783
 27.5416  10025.4  99.9511
 27.5836  9897.46  99.1499
 27.6256  9824.41  98.9512
 27.6676  9867.96  99.1682
 27.7096  9953.36  99.4798
 27.7516  10672.4  103.165
 27.7936  10746.1  103.67
 27.8356  10432.4  101.727
 27.8776  10351.4  101.419
 27.9196  10076.9  99.9318
 27.9616  10252.4  100.995
 28.0036  10022  99.8037
 28.0456  9682.91  98.2451
 28.0876  9719.74  98.5135
 28.1296  9813.04  98.817
 28.1716  10037  99.9629
 28.2136  9654.46  98.0058
 28.2556  9702.37  98.3596
 28.2976  9679.81  98.2381
 28.3396  9750.81  98.4046
 28.3816  9612.97  97.6739
 28.4236  9815.03  98.8465
 28.4656  9608.15  97.8435
 28.5076  9347.65  96.1606
 28.5496  9482.82  97.1041
 28.5916  9506.78  97.0345
 28.6336  9478.35  97.2229
 28.6756  9574.35  96.9327
 28.7176  9508.49  97.1417
 28.7596  9389.44  96.4204
 28.8016  9284.71  96.0045
 28.8436  9339.78  96.4476
 28.8856  9393.43  96.5737
 28.9276  9530.91  97.5144
 28.9696  9274.76  95.8585
 29.0116  9264.01  95.9761
 29.0536  9289.75  96.3274
 29.0956  9395.61  96.5861
 29.1376  9437.48  96.7633
 29.1796  9307.04  96.14
 29.2216  9162.96  95.2419
 29.2636  9383.33  96.368
 29.3056  9201.55  95.2986
 29.3476  9345.83  96.5686
 29.3896  9355.06  96.7289
 29.4316  9242.03  95.4902
 29.4736  9131.41  94.9807
 29.5156  9195.56  95.2345
 29.5576  9049.83  95.1973
 29.5996  9164.91  95.0792
 29.6416  9013.27  94.4005
 29.6836  9100.47  94.7896
 29.7256  8923.16  94.406
 29.7676  9135.6  95.1939
 29.8096  9016.94  94.517
 29.8516  8826.2  93.8309
 29.8936  8909.85  94.3657
 29.9356  9096.38  95.1093
 29.9776  9189.46  95.731
 30.0196  9230.36  95.3595
 30.0616  9247.9  95.8156
 30.1036  8935.23  94.0123
 30.1456  8763.17  93.3458
 30.1876  8843.53  93.7315
 30.2296  8810.32  93.5088
 30.2716  8860.21  93.4207
 30.3136  8817.73  93.7686
 30.3556  9148.55  95.7557
 30.3976  9082.26  96.8823
 30.4396  9471.6  96.2981
 30.4816  9267.45  94.8665
 30.5236  9165.67  94.3378
 30.5656  9143.36  94.8838
 30.6076  9060.15  94.2235
 30.6496  9158.01  94.782
 30.6916  8907.7  93.5706
 30.7336  9156.95  95.0069
 30.7756  8865.19  93.7759
 30.8176  9123.31  94.85
 30.8596  9021.25  94.0526
 30.9016  9108.15  94.3836
 30.9436  9050.54  94.3186
 30.9856  9192.62  95.1557
 31.0276  8943.86  93.5162
 31.0696  8981.63  94.1196
 31.1116  8967.55  94.1599
 31.1536  9104.54  94.7643
 31.1956  9066.4  94.6546
 31.2376  8712.98  92.8087
 31.2796  8958.87  93.6424
 31.3216  9052.72  94.0617
 31.3636  8871.52  93.8011
 31.4056  8739.48  94.3668
 31.4476  8894.1  93.1517
 31.4896  8916.92  93.7605
 31.5316  9135.97  94.3639
 31.5736  9972.77  98.3721
 31.6156  9536.55  96.1991
 31.6576  9344.2  95.2946
 31.6996  9172.58  94.1057
 31.7416  9231.64  95.3395
 31.7836  9100.97  93.8156
 31.8256  9064.05  93.9619
 31.8676  9233.83  94.7425
 31.9096  8875.53  93.1227
 31.9516  8753.02  92.7809
 31.9936  8751.28  92.6
 32.0356  8908.52  93.4678
 32.0776  8875.68  93.1997
 32.1196  8989.79  93.808
 32.1616  8866.76  92.7111
 32.2036  8837.87  93.0623
 32.2456  8776.28  93.1153
 32.2876  8657.66  91.8289
 32.3296  8725.78  92.3213
 32.3716  8708.2  92.345
 32.4136  8628.19  92.1148
 32.4556  8781.65  92.3844
 32.4976  8839.18  92.5808
 32.5396  8576.16  91.2149
 32.5816  8649.16  91.6264
 32.6236  8672.01  91.8961
 32.6656  8795.06  93.0976
 32.7076  8463.21  90.9747
 32.7496  8524.01  90.9989
 32.7916  8572.55  91.2124
 32.8336  8566.68  91.2766
 32.8756  8651.71  91.5311
 32.9176  8592.91  91.6165
 32.9596  8653.49  92.0087
 33.0016  8640.84  91.7151
 33.0436  8566.91  91.5083
 33.0856  8452.34  90.9746
 33.1276  8438.66  90.6368
 33.1696  8598.87  91.3151
 33.2116  8475.18  90.8955
 33.2536  8696.65  92.069
 33.2956  8549.82  91.3728
 33.3376  8345.11  90.0831
 33.3796  8611.42  91.6593
 33.4216  8501.9  90.6688
 33.4636  8521.72  90.9227
 33.5056  8326.56  89.9702
 33.5476  8511.46  91.0782
 33.5896  8436.1  90.463
 33.6316  8438.25  90.792
 33.6736  8199.27  89.7465
 33.7156  8259.95  90.1076
 33.7576  8488.08  90.9892
 33.7996  8353.81  90.0388
 33.8416  8277.02  89.8027
 33.8836  8387.69  90.1843
 33.9256  8499.72  90.8299
 33.9676  8582.57  91.1784
 34.0096  8285.45  89.8882
 34.0516  8256.01  89.3715
 34.0936  8306.67  89.9165
 34.1356  8307.47  89.6688
 34.1776  8121.42  88.6549
 34.2196  8329.16  89.9678
 34.2616  8188.82  89.4063
 34.3036  8226.88  89.7822
 34.3456  8230.56  89.5617
 34.3876  8247.68  89.7154
 34.4296  8238.79  89.2759
 34.4716  8381.49  90.1982
 34.5136  8264.36  89.7448
 34.5556  8202.8  89.6777
 34.5976  8441.97  90.8059
 34.6396  8185.68  89.1106
 34.6816  8347.6  90.0746
 34.7236  8191.83  89.0263
 34.7656  8244.2  89.5224
 34.8076  8144.33  89.2978
 34.8496  8085.45  88.8322
 34.8916  8236.82  89.5229
 34.9336  8207.97  89.3501
 34.9756  8353.35  90.0663
 35.0176  8250.84  90.0208
 35.0596  8270.13  89.9412
 35.1016  8232.8  89.5087
 35.1436  8344.86  89.8071
 35.1856  8323.73  89.8113
 35.2276  8100.2  88.7726
 35.2696  8162.82  89.2957
 35.3116  8170.73  89.4463
 35.3536  8227.55  89.4875
 35.3956  8141.78  88.7111
 35.4376  8334.92  90.3196
 35.4796  8167.48  89.4457
 35.5216  8157.4  89.2777
 35.5636  8012.91  89.2842
 35.6056  8009.3  88.3121
 35.6476  8120.4  88.8276
 35.6896  8176.38  89.3007
 35.7316  8072  88.6223
 35.7736  8046.46  88.6661
 35.8156  8083.81  88.8716
 35.8576  8012.56  88.7221
 35.8996  8141.58  89.4041
 35.9416  8167.61  89.0487
 35.9836  8061.42  88.9247
 36.0256  8299.26  90.1188
 36.0676  8229.98  89.2726
 36.1096  7973.72  88.2483
 36.1516  8182.48  89.2866
 36.1936  8125.29  88.8157
 36.2356  8049.51  89.0486
 36.2776  8121.36  88.9111
 36.3196  8067.45  88.3055
 36.3616  8058.54  88.3864
 36.4036  8005.87  88.162
 36.4456  8037.25  88.5403
 36.4876  7896.07  87.7001
 36.5296  7986.03  88.2215
 36.5716  8078.56  89.5091
 36.6136  8082.16  88.3411
 36.6556  8037.36  88.2846
 36.6976  7813.86  87.5396
 36.7396  7793.03  87.2526
 36.7816  7750.36  87.2863
 36.8236  7865.71  87.8583
 36.8656  7764.95  87.3591
 36.9076  7852.76  87.8612
 36.9496  7593.77  86.4122
 36.9916  7669.35  86.3335
 37.0336  7943.7  88.1771
 37.0756  7872.56  87.5768
 37.1176  7648.19  86.6707
 37.1596  7748.2  87.1511
 37.2016  7689  86.9859
 37.2436  7733.82  86.623
 37.2856  7714.24  86.7594
 37.3276  7738.23  86.2684
 37.3696  7677.73  86.7841
 37.4116  7637.36  86.4696
 37.4536  7547.65  85.8327
 37.4956  7475.04  85.4648
 37.5376  7796.49  88.8286
 37.5796  7795.77  88.752
 37.6216  7738.57  86.7296
 37.6636  7861.91  87.2983
 37.7056  7707.32  86.6256
 37.7476  7959.66  87.5745
 37.7896  7750.34  86.9278
 37.8316  7766.75  87.1489
 37.8736  7742.03  86.5753
 37.9156  7794.74  86.8548
 37.9576  7742.32  86.6199
 37.9996  7718.45  86.059
 38.0416  7748.54  87.0156
 38.0836  7813.09  87.2775
 38.1256  7704.77  86.6487
 38.1676  7721.24  86.8527
 38.2096  8008.34  88.0734
 38.2516  8002.98  88.1774
 38.2936  7854.59  87.2385
 38.3356  7846.01  87.1338
 38.3776  7805.31  87.1411
 38.4196  7742.8  86.6613
 38.4616  7788.31  87.1535
 38.5036  7957.64  87.9404
 38.5456  7623.4  86.882
 38.5876  7664.03  87.135
 38.6296  7629.09  85.9244
 38.6716  7710.33  86.1885
 38.7136  7572.99  85.3653
 38.7556  7714.53  86.6617
 38.7976  7592.71  85.9059
 38.8396  7598.93  86.3856
 38.8816  7603.51  86.2146
 38.9236  7671.26  86.3994
 38.9656  7667.72  86.2857
 39.0076  7759.56  86.2225
 39.0496  7780.24  86.8752
 39.0916  7754.22  86.3806
 39.1336  7731.36  86.6532
 39.1756  7561.6  85.7689
 39.2176  7584.56  86.4159
 39.2596  7623.53  86.5577
 39.3016  7747.31  86.855
 39.3436  7762.65  87.3386
 39.3856  7720.75  86.5617
 39.4276  7731.34  87.1195
 39.4696  7696.32  86.5537
 39.5116  7663.05  86.8675
 39.5536  7721.88  87.6223
 39.5956  7608.02  86.0958
 39.6376  7645.69  86.1543
 39.6796  7619.65  85.9157
 39.7216  7597.86  85.8892
 39.7636  7637.05  86.662
 39.8056  7752.38  87.094
 39.8476  7565.7  86.2949
 39.8896  7624.87  86.2657
 39.9316  7539.37  86.0245
 39.9736  7702.94  86.5305
 40.0156  7611.6  85.8571
 40.0576  7574.44  85.9883
 40.0996  7581.11  85.2306
 40.1416  7642.09  86.3529
 40.1836  7772.82  86.9787
 40.2256  7583.67  85.9466
 40.2676  7471.04  85.4826
 40.3096  7652.5  86.3712
 40.3516  7595.34  86.2338
 40.3936  7743.64  86.5554
 40.4356  7507.34  85.4255
 40.4776  7727.45  86.8935
 40.5196  7795.31  87.5761
 40.5616  7789.26  87.1752
 40.6036  7602.17  86.3876
 40.6456  7741.6  86.7813
 40.6876  7712.89  86.6165
 40.7296  7609.47  86.1578
 40.7716  7673.24  86.643
 40.8136  7501.42  85.6166
 40.8556  7806.88  87.4636
 40.8976  7690.73  86.7455
 40.9396  7762.8  87.4851
 40.9816  7677.31  86.3072
 41.0236  7619.24  85.7757
 41.0656  7775.07  87.1744
 41.1076  7695.75  86.506
 41.1496  7734.84  86.635
 41.1916  7663.25  86.5375
 41.2336  7728.57  86.9055
 41.2756  7698.42  86.3451
 41.3176  7722.84  87.0848
 41.3596  7640.18  86.3621
 41.4016  7618.48  86.4965
 41.4436  7688.98  86.6857
 41.4856  7593.26  86.3084
 41.5276  7570.09  86.1873
 41.5696  7674.93  86.3995
 41.6116  7746.76  87.2033
 41.6536  7679.4  86.6848
 41.6956  7732.6  86.9716
 41.7376  7591.89  86.2733
 41.7796  7500.76  85.6908
 41.8216  7628.86  86.5985
 41.8636  7574.88  86.2409
 41.9056  7606.12  86.2092
 41.9476  7665.51  86.772
 41.9896  7714.89  86.7277
 42.0316  7727.46  86.8844
 42.0736  7721.9  86.9822
 42.1156  7512.25  85.5982
 42.1576  7635.57  86.4098
 42.1996  7755.56  87.2055
 42.2416  7600.68  85.9374
 42.2836  7550.56  85.7671
 42.3256  7537.81  85.8007
 42.3676  7701.9  86.5175
 42.4096  7567.23  85.7363
 42.4516  7612.47  86.0667
 42.4936  7593.71  86.0365
 42.5356  7542.85  85.8946
 42.5776  7644.61  86.4073
 42.6196  7620.74  86.25
 42.6616  7513.34  85.8863
 42.7036  7697.97  86.3236
 42.7456  7631.89  86.2934
 42.7876  7539.32  85.8691
 42.8296  7610.86  86.1651
 42.8716  7460.53  85.4184
 42.9136  7413.03  84.9047
 42.9556  7599.25  86.1316
 42.9976  7547.92  85.8074
 43.0396  7490.65  85.2123
 43.0816  7526.51  85.7954
 43.1236  7449.19  85.4062
 43.1656  7415.05  85.0346
 43.2076  7501.6  85.6361
 43.2496  7448.16  85.1589
 43.2916  7521.63  85.926
 43.3336  7524.97  85.7867
 43.3756  7566.68  85.784
 43.4176  7449.72  85.2007
 43.4596  7431.59  84.9555
 43.5016  7418.96  85.2679
 43.5436  7481.81  85.5426
 43.5856  7422.94  85.2327
 43.6276  7512.25  85.6364
 43.6696  7405.97  85.1727
 43.7116  7507.76  85.3693
 43.7536  7585.36  86.3029
 43.7956  7260.81  85.6217
 43.8376  7275.27  84.2684
 43.8796  7288.22  84.4175
 43.9216  7321.65  84.5351
 43.9636  7365.56  84.886
 44.0056  7324.06  84.8768
 44.0476  7317.16  84.477
 44.0896  7331.31  84.8974
 44.1316  7181.31  83.6991
 44.1736  7262.76  84.1537
 44.2156  7354.68  84.5451
 44.2576  7370.46  84.9527
 44.2996  7323.04  84.6452
 44.3416  7348.67  84.5643
 44.3836  7103.68  83.4503
 44.4256  7135.4  83.3008
 44.4676  7149.02  83.5314
 44.5096  7210.53  84.0326
 44.5516  7201.57  83.9484
 44.5936  7239.82  84.1221
 44.6356  7089.2  82.9878
 44.6776  7190.05  83.8849
 44.7196  7251.32  84.5036
 44.7616  7308.73  86.1763
 44.8036  7419.38  85.4675
 44.8456  7370.58  85.1841
 44.8876  7328.52  84.7782
 44.9296  7535.54  85.4264
 44.9716  7334.15  84.6759
 45.0136  7313.81  84.5169
 45.0556  7349.39  84.8136
 45.0976  7270.67  84.4035
 45.1396  7309.12  84.3849
 45.1816  7390.73  84.6294
 45.2236  7382.49  84.6567
 45.2656  7298.33  84.657
 45.3076  7236.43  84.0666
 45.3496  7258.3  84.5177
 45.3916  7255.35  84.7654
 45.4336  7380.42  85.3323
 45.4756  7260.48  84.4933
 45.5176  7316.85  84.4466
 45.5596  7432.77  85.231
 45.6016  7229  84.4732
 45.6436  7325.35  84.2073
 45.6856  7248.14  84.4213
 45.7276  7237.86  86.1641
 45.7696  7186.17  85.0368
 45.8116  7266.62  84.9515
 45.8536  7126.4  84.006
 45.8956  7238.69  84.0383
 45.9376  7231.78  83.4734
 45.9796  7298.26  84.5462
 46.0216  7264.07  84.6713
 46.0636  7338.4  84.2483
 46.1056  7176.51  83.31
 46.1476  7248.9  84.3139
 46.1896  7335.3  84.9582
 46.2316  7288.22  84.5515
 46.2736  7350.81  85.1269
 46.3156  7274.36  84.4351
 46.3576  7285.26  84.6961
 46.3996  7192.4  84.3158
 46.4416  7222.19  84.0526
 46.4836  7044.21  83.3726
 46.5256  7235.86  84.4427
 46.5676  7227.22  84.5096
 46.6096  7222.65  84.418
 46.6516  7153.16  83.0605
 46.6936  7261.12  84.1833
 46.7356  7387.6  84.9988
 46.7776  7143.73  84.4348
 46.8196  7168.12  84.3276
 46.8616  7030.11  83.3177
 46.9036  7095.83  83.3638
 46.9456  7231.18  83.8045
 46.9876  7212.3  83.7588
 47.0296  7102.23  83.8024
 47.0716  7123  83.7584
 47.1136  7055.18  83.0342
 47.1556  7152.52  83.4803
 47.1976  7234.83  84.1067
 47.2396  7083.86  83.5538
 47.2816  7124.1  83.493
 47.3236  7158.53  84.0595
 47.3656  7185.61  84.1484
 47.4076  7113.66  83.4631
 47.4496  7113.44  83.6262
 47.4916  7112.82  83.8109
 47.5336  7125.73  83.6966
 47.5756  7136.59  83.8415
 47.6176  7046.98  83.2543
 47.6596  7219.89  83.9864
 47.7016  7181.68  83.5774
 47.7436  7174.1  83.8677
 47.7856  7198.37  84.0224
 47.8276  7089.41  83.4502
 47.8696  7127.31  83.7475
 47.9116  7225.28  84.0396
 47.9536  7093.5  83.2179
 47.9956  7026.37  83.5215
 48.0376  7044.55  83.4062
 48.0796  7141.68  84.1047
 48.1216  7138.55  83.9118
 48.1636  7235.56  84.0455
 48.2056  7210.02  84.1664
 48.2476  7263.27  84.7771
 48.2896  7128.2  83.8988
 48.3316  7109.05  83.7344
 48.3736  7070.45  83.5307
 48.4156  7102.44  83.5713
 48.4576  7085.56  83.7597
 48.4996  7129.5  83.4764
 48.5416  7268.44  84.6109
 48.5836  7143.93  83.5687
 48.6256  7212.19  84.165
 48.6676  7090.63  83.9682
 48.7096  7099.74  83.294
 48.7516  7147.18  83.725
 48.7936  6984.03  82.8278
 48.8356  7052.73  83.2796
 48.8776  7097.61  84.0305
 48.9196  7239.95  84.3167
 48.9616  7155.87  84.2084
 49.0036  7109.04  84.2793
 49.0456  7045.61  83.8872
 49.0876  7159.8  84.2051
 49.1296  7114.16  83.9838
 49.1716  7032.98  83.3877
 49.2136  7176.78  84.1483
 49.2556  7161.67  84.102
 49.2976  7084.94  83.7002
 49.3396  6985.84  83.178
 49.3816  7138.62  83.5101
 49.4236  7071.41  83.5538
 49.4656  7029.2  83.3215
 49.5076  7014.63  82.98
 49.5496  7118.72  83.5376
 49.5916  7113.25  83.5367
 49.6336  7018.24  83.1873
 49.6756  7121.82  84.0174
 49.7176  7026.04  83.4029
 49.7596  7120.7  83.9015
 49.8016  7160.68  83.8818
 49.8436  6930.87  82.823
 49.8856  6996.52  83.2212
 49.9276  7047.97  83.6249
 49.9696  6915.52  82.8108
 50.0116  6997.62  83.422
 50.0536  6930.77  82.9886
 50.0956  7018.76  83.579
 50.1376  7059.11  83.5194
 50.1796  7019.78  83.5567
 50.2216  6951.96  83.1451
 50.2636  7033.63  83.2476
 50.3056  6950.46  82.9347
 50.3476  6927.62  82.8178
 50.3896  6931.11  82.8094
 50.4316  7121.44  83.7691
 50.4736  6931.22  82.8611
 50.5156  6976.29  83.1255
 50.5576  7032.31  83.2151
 50.5996  6986.06  83.2184
 50.6416  6974.27  83.082
 50.6836  7025.47  83.4377
 50.7256  7077.8  83.667
 50.7676  7159.06  84.4234
 50.8096  6988.03  82.9905
 50.8516  7052.13  83.8
 50.8936  6871.42  82.5048
 50.9356  7022.86  83.5089
 50.9776  6943.84  83.2039
 51.0196  6756.51  82.2067
 51.0616  6769.87  81.6095
 51.1036  6817.58  82.258
 51.1456  6908.43  82.7143
 51.1876  6912.35  82.0743
 51.2296  6820.75  82.1586
 51.2716  6813.18  81.8262
 51.3136  6747.24  81.8865
 51.3556  6842.53  82.0773
 51.3976  6821.49  82.1002
 51.4396  6641.15  81.3234
 51.4816  6696.1  81.5132
 51.5236  6783.04  82.1238
 51.5656  6766.15  81.6176
 51.6076  6820.19  82.0289
 51.6496  6802.61  82.1156
 51.6916  6820.76  82.5813
 51.7336  6630.05  81.514
 51.7756  6823.45  82.3908
 51.8176  6681.97  81.6275
 51.8596  6832.79  82.5669
 51.9016  6842.61  82.2341
 51.9436  6817.47  83.567
 51.9856  6845.9  84.1462
 52.0276  6805.56  82.3867
 52.0696  6926.62  83.1939
 52.1116  6798.66  82.5489
 52.1536  6883.46  82.8906
 52.1956  6761.84  81.6734
 52.2376  6850.9  82.3791
 52.2796  6890.61  82.4337
 52.3216  6845.59  82.8555
 52.3636  6785.26  82.0505
 52.4056  6800.6  82.0103
 52.4476  6707.56  81.8055
 52.4896  6640.65  81.4541
 52.5316  6818.53  82.582
 52.5736  6640.4  81.2205
 52.6156  6942.24  83.4414
 52.6576  6734.85  81.6266
 52.6996  6518.94  81.2806
 52.7416  6718.24  82.3702
 52.7836  6828.62  82.9284
 52.8256  6720.03  81.4819
 52.8676  6616.46  81.4262
 52.9096  6726.81  82.1603
 52.9516  6701.62  82.4028
 52.9936  6702.03  82.7781
 53.0356  6819.92  82.4968
 53.0776  6896.14  83.2548
 53.1196  6666.03  81.9528
 53.1616  6724.63  82.3635
 53.2036  6660.33  81.9292
 53.2456  6735.73  82.4965
 53.2876  6802.34  82.5777
 53.3296  6756.96  82.6425
 53.3716  6729.06  82.2155
 53.4136  6652.77  81.8864
 53.4556  6704.82  82.2568
 53.4976  6714.87  82.1504
 53.5396  6569.84  81.6635
 53.5816  6718.47  82.2113
 53.6236  6683.85  82.3535
 53.6656  6654.16  81.7717
 53.7076  6733.62  82.2154
 53.7496  6704  82.1678
 53.7916  6709.02  82.3291
 53.8336  6630.51  81.7364
 53.8756  6553.82  81.819
 53.9176  6574.03  81.2834
 53.9596  6438.91  81.2204
 54.0016  6375.07  80.1428
 54.0436  6293.92  79.8446
 54.0856  6528.37  80.7452
 54.1276  6509.57  80.8273
 54.1696  6405.02  80.3531
 54.2116  6514.95  80.7804
 54.2536  6478.75  80.3738
 54.2956  6470.93  80.3718
 54.3376  6425.46  80.5778
 54.3796  6371.64  80.1169
 54.4216  6464.71  80.7552
 54.4636  6386.37  80.2287
 54.5056  6487.61  80.6661
 54.5476  6334.6  80.0602
 54.5896  6351.7  80.0164
 54.6316  6414.81  80.2456
 54.6736  6330.73  79.7631
 54.7156  6292.75  79.5877
 54.7576  6284.18  79.5101
 54.7996  6416.31  80.5114
 54.8416  6368.01  80.2478
 54.8836  6440.98  80.779
 54.9256  6326.69  79.8546
 54.9676  6242.73  79.168
 55.0096  6250.27  79.2599
 55.0516  6300.35  79.7651
 55.0936  6293.41  79.4398
 55.1356  6255.29  79.2373
 55.1776  6355.64  80.1002
 55.2196  6314.99  79.6118
 55.2616  6459.26  80.7635
 55.3036  6322.83  80.0719
 55.3456  6119.67  78.9178
 55.3876  6372.1  80.2609
 55.4296  6176.07  79.0214
 55.4716  6209.76  79.2502
 55.5136  6244.02  79.2426
 55.5556  6408.18  80.3107
 55.5976  6209.95  79.1538
 55.6396  6312.01  79.6645
 55.6816  6256.01  79.2382
 55.7236  6216.35  79.1585
 55.7656  6318.16  79.4377
 55.8076  6164.67  78.4641
 55.8496  6278.64  79.6078
 55.8916  6203.43  79.1948
 55.9336  6338.57  79.9189
 55.9756  6149.69  78.5939
 56.0176  6161.54  78.8232
 56.0596  6191.05  78.9964
 56.1016  6071.85  78.2966
 56.1436  6117.26  78.7839
 56.1856  6139.14  78.6978
 56.2276  6312.64  79.8344
 56.2696  6080.62  78.3369
 56.3116  6189.71  79.413
 56.3536  6184.05  79.0392
 56.3956  6199.38  79.122
 56.4376  6140.59  78.7715
 56.4796  6038.59  77.9606
 56.5216  6102.39  78.7473
 56.5636  6071.91  78.1174
 56.6056  6172.42  79.0033
 56.6476  6147.79  78.4355
 56.6896  6209.73  79.3112
 56.7316  6109.27  78.5668
 56.7736  6113.47  78.6099
 56.8156  6055.11  78.2509
 56.8576  5947.54  77.4926
 56.8996  6065.01  78.1468
 56.9416  6003.02  77.9425
 56.9836  6231.28  79.0599
 57.0256  6016.51  77.9988
 57.0676  6154.19  78.9916
 57.1096  6039.69  78.0592
 57.1516  5996.09  77.7929
 57.1936  6082.88  78.1421
 57.2356  5889.05  77.1934
 57.2776  6069.44  78.3529
 57.3196  6068.06  78.682
 57.3616  6053.52  78.0787
 57.4036  6033.58  78.0148
 57.4456  6200.23  79.0521
 57.4876  6090.39  78.2415
 57.5296  5984.08  77.7653
 57.5716  5930.67  77.5223
 57.6136  5914.88  77.2635
 57.6556  5963.28  77.6873
 57.6976  6125.33  78.5749
 57.7396  5927.03  77.636
 57.7816  5901.53  77.8361
 57.8236  5906.89  77.655
 57.8656  6004.82  77.9655
 57.9076  5922.51  77.4584
 57.9496  5905.89  77.6972
 57.9916  6020.4  77.9112
 58.0336  5936.16  77.6929
 58.0756  6006.75  77.7431
 58.1176  6025.41  77.893
 58.1596  5913.89  77.7618
 58.2016  5657.56  75.3332
 58.2436  5673.64  75.8223
 58.2856  5840.84  76.8514
 58.3276  5675.6  76.1076
 58.3696  5686.51  75.9478
 58.4116  5731.7  76.1194
 58.4536  5769.71  76.2579
 58.4956  5704.33  75.9996
 58.5376  5683.46  75.447
 58.5796  5712.48  76.051
 58.6216  5787.86  76.3752
 58.6636  5729.58  76.1952
 58.7056  5717.68  75.9746
 58.7476  5581.37  75.4877
 58.7896  5653.7  75.6349
 58.8316  5694.1  75.8979
 58.8736  5777.12  76.4622
 58.9156  5681.37  75.8669
 58.9576  5692.24  76.1436
 58.9996  5733.04  75.792
 59.0416  5696.72  75.904
 59.0836  5658.33  75.5642
 59.1256  5665.15  75.9982
 59.1676  5705.23  76.8638
 59.2096  5552.41  75.1665
 59.2516  5833.83  76.6361
 59.2936  5671.72  75.8818
 59.3356  5733.96  76.1778
 59.3776  5675.78  75.9542
 59.4196  5607.54  75.435
 59.4616  5658.97  75.6441
 59.5036  5573.31  75.1031
 59.5456  5903.69  76.9942
 59.5876  5759.82  76.2369
 59.6296  5503.21  74.5854
 59.6716  5732.21  76.1778
 59.7136  5804.11  76.6426
 59.7556  5667.67  75.8686
 59.7976  5685.35  75.7366
 59.8396  5662.01  75.4786
 59.8816  5754.08  76.6225
 59.9236  5663.33  75.6706
 59.9656  5661.52  75.9102
 60.0076  5507.29  74.256
 60.0496  5661.76  75.7769
 60.0916  5619.48  74.9333
 60.1336  5431.48  74.7194
 60.1756  5652.46  77.3701
 60.1996  0.0000000E+00  0.0000000E+00