File: docs/examples/XRD/IS17_D/Data/IS17_D/17_Db_f00043.xye
# /beamlines/bl04/projects/cycle2025-II/20250340211-lsimonelli/DATA/IS17_D/17_Db_f00043.xye : mythproc.py merge -s 0.006 -l 0.5 -f /beamlines/bl04/inhouse/ff/FlatField/ff_20Nov2024rod8mm60s_17keV.raw -b True -c true -o xye /beamlines/bl04/projects/cycle2025-II/20250340211-lsimonelli/DATA/IS17_D/17_Db_00043.dat
# IsMon = [6787736, 6788896, 6786174]  IsPos = [-1.4999, -2.4884, -3.4986]
# Wave = 0.4962  CalPath /beamlines/bl04/projects/cycle2025-II/20250340211-lsimonelli/DATA/Align/Si_Pos1_25keV_f00001.cal
# Date = 2025-09-24_05:39:35 Dt = 4.8000  Bin = 0.0060  <imon> = 6787602 +/- 1115 (Min/Max) 6786174 / 6788896
# icurr 252.6308  mocoIn 1.7236E-05  mocoOut 0.8090  i15 7.1051e+06  imon 6.7876e+06  i7 4.3333  iEMpd_timer 4.8000  iEMpd_1 3.4947E-08  iEMpd_2 7.7700E-08  iEMpd_3 1.5400E-08  iEMpd_4 4.7770E-08  iEMhp_timer 4.8000  iEMhp_1 4.9358E-06  iEMhp_2 -2.4645E-08  iEMhp_3 -2.3219E-08  iEMhp_4 -2.0135E-08
#      9776
 1.5856  45166.8  218.227
 1.6276  52277.4  230.749
 1.6696  57873.6  241.929
 1.7116  65491.6  257.863
 1.7536  73077.2  271.227
 1.7956  78112.4  281.116
 1.8376  73719.9  273.531
 1.8796  64247.9  253.486
 1.9216  53034.6  231.214
 1.9636  46026.8  214.515
 2.0056  41585.5  203.112
 2.0476  38960.6  198.752
 2.0896  37452.7  193.725
 2.1316  37005.3  191.639
 2.1736  35002.9  187.861
 2.2156  36151.1  189.385
 2.2576  34635.9  186.039
 2.2996  33006.7  182.276
 2.3416  33978.9  183.466
 2.3836  32684  180.046
 2.4256  32176.5  179.225
 2.4676  31636.1  177.462
 2.5096  31504  177.149
 2.5516  30227.1  177.501
 2.5936  30051.3  173.431
 2.6356  29469.6  172.467
 2.6776  29367  171.031
 2.7196  29019.1  170.516
 2.7616  28948.4  170.097
 2.8036  28358.5  168.522
 2.8456  28315.4  169.053
 2.8876  27843.5  167.499
 2.9296  27458.9  166.471
 2.9716  27196.3  165.149
 3.0136  26973.3  164.541
 3.0556  26865.1  164.605
 3.0976  26962.2  163.78
 3.1396  26340.9  162.634
 3.1816  26203.6  162.147
 3.2236  25959.6  161.373
 3.2656  25838.1  160.017
 3.3076  25101.7  159.218
 3.3496  25550.7  159.529
 3.3916  25988.4  160.706
 3.4336  26244.3  162.097
 3.4756  26635.3  163.236
 3.5176  27515.4  165.678
 3.5596  27313.7  167.595
 3.6016  27108.3  164.526
 3.6436  26246.7  163.018
 3.6856  26001.1  160.521
 3.7276  24952.5  158.345
 3.7696  24723.1  157.821
 3.8116  24204.1  156.042
 3.8536  24516.9  156.981
 3.8956  24317.4  156.152
 3.9376  23950.1  155.277
 3.9796  24191.1  155.498
 4.0216  24170.4  154.451
 4.0636  24127.7  155.812
 4.1056  24112.7  155.405
 4.1476  24447.9  156.787
 4.1896  24536.6  156.954
 4.2316  24641.4  157.103
 4.2736  24973.3  157.953
 4.3156  25132.8  158.694
 4.3576  25826.3  160.772
 4.3996  25958.8  161.257
 4.4416  26685.8  163.28
 4.4836  27092.1  164.678
 4.5256  27654.6  167
 4.5676  27456.9  166.661
 4.6096  27989.8  166.906
 4.6516  28324.6  167.591
 4.6936  28090.7  167.742
 4.7356  28661.3  169.25
 4.7776  28504.4  168.618
 4.8196  28285.6  168.625
 4.8616  27650.7  166.202
 4.9036  27503.3  165.483
 4.9456  27354  165.701
 4.9876  26659.2  163.477
 5.0296  26809.9  163.781
 5.0716  26583  163.848
 5.1136  27059.6  165.029
 5.1556  27263.8  165.096
 5.1976  27771.1  166.62
 5.2396  27806.1  166.418
 5.2816  27757.2  166.739
 5.3236  27760.7  166.45
 5.3656  27201.5  165.702
 5.4076  26977.3  165.159
 5.4496  26989.5  164.692
 5.4916  27254.4  165.239
 5.5336  27040  164.605
 5.5756  27109.7  164.823
 5.6176  27253.1  164.699
 5.6596  27506.7  166.458
 5.7016  27299.6  165.087
 5.7436  27647  166.421
 5.7856  27524.3  166.118
 5.8276  27628.9  166.147
 5.8696  27993.6  167.413
 5.9116  27566.6  166.71
 5.9536  28259.9  168.555
 5.9956  28181.5  167.703
 6.0376  28296.4  168.675
 6.0796  28703.3  169.711
 6.1216  28446.4  169.154
 6.1636  28830  169.339
 6.2056  28583.4  169.29
 6.2476  28947.6  170.235
 6.2896  29316.8  170.993
 6.3316  29283.4  171.065
 6.3736  29253.5  170.878
 6.4156  29233  170.698
 6.4576  29241.4  170.346
 6.4996  29603  171.881
 6.5416  29587.1  171.957
 6.5836  29576.2  172.17
 6.6256  29827.5  172.455
 6.6676  30196.5  173.082
 6.7096  30258.3  174.122
 6.7516  30690.6  175.014
 6.7936  31075.8  175.248
 6.8356  30675  174.466
 6.8776  31122.3  176.549
 6.9196  31029.4  176.685
 6.9616  31565.3  177.636
 7.0036  32001.3  178.511
 7.0456  32293.4  178.622
 7.0876  31989.3  179.47
 7.1296  32067.3  178.821
 7.1716  32126.9  178.524
 7.2136  31707.6  177.135
 7.2556  32044.5  178.229
 7.2976  32082.5  178.831
 7.3396  31867.3  178.451
 7.3816  31769.1  178.399
 7.4236  32168.7  178.805
 7.4656  32202.3  178.351
 7.5076  32447.6  179.184
 7.5496  32380.2  179.546
 7.5916  32416  179.683
 7.6336  32885  180.861
 7.6756  33011.5  181.068
 7.7176  33500.3  182.717
 7.7596  33135.8  182.952
 7.8016  33851.9  187.16
 7.8436  33599.7  183.117
 7.8856  33605.4  182.741
 7.9276  34282.4  184.983
 7.9696  34460.2  185.767
 8.0116  35421.1  187.256
 8.0536  35508.7  187.357
 8.0956  35678.2  188.981
 8.1376  36073.7  189.505
 8.1796  36215.6  190.406
 8.2216  36957.2  191.09
 8.2636  36890.2  191.172
 8.3056  37019.2  192.281
 8.3476  37397.9  192.584
 8.3896  37053.3  192.224
 8.4316  37333.2  192.662
 8.4736  37584.9  192.781
 8.5156  37167.3  191.982
 8.5576  36557.7  191.352
 8.5996  36432.1  189.921
 8.6416  36606.7  191.621
 8.6836  36406.5  190.942
 8.7256  37060.3  192.081
 8.7676  36622.9  193.861
 8.8096  37312  192.971
 8.8516  36711.7  190.987
 8.8936  36393.6  190.108
 8.9356  36873.4  191.683
 8.9776  36867.2  191.755
 9.0196  36889.4  191.48
 9.0616  36372  189.636
 9.1036  35924.2  189.627
 9.1456  35719.9  188.429
 9.1876  36103  189.366
 9.2296  35829.3  188.1
 9.2716  35492.7  187.245
 9.3136  35545  187.376
 9.3556  35657.8  187.655
 9.3976  34621.7  185.416
 9.4396  34781.5  185.749
 9.4816  34926.8  185.994
 9.5236  34328.2  184.296
 9.5656  34027.6  183.845
 9.6076  33345.9  182.522
 9.6496  33824.3  183.7
 9.6916  33305.2  182.24
 9.7336  33399.2  182.275
 9.7756  33240.5  183.11
 9.8176  33250.1  182.633
 9.8596  33036.2  180.481
 9.9016  32457  178.887
 9.9436  32523  178.985
 9.9856  31943.2  177.649
 10.0276  31434  177.296
 10.0696  32021.3  177.98
 10.1116  31110.8  175.691
 10.1536  31009.7  175.562
 10.1956  30402.9  173.455
 10.2376  30568.4  173.43
 10.2796  30263.2  172.68
 10.3216  29910.4  171.954
 10.3636  29460.2  170.682
 10.4056  28860.5  169.332
 10.4476  29375.9  170.451
 10.4896  29042.6  168.937
 10.5316  28694.4  168.632
 10.5736  28220.6  167.646
 10.6156  28339.4  167.752
 10.6576  28202  165.928
 10.6996  27754.6  165.301
 10.7416  27636.5  165.155
 10.7836  27155.8  164.382
 10.8256  26988.8  164.304
 10.8676  27039.6  163.999
 10.9096  26783.4  163.263
 10.9516  26379.5  160.985
 10.9936  26701.1  162.172
 11.0356  26300.5  161.538
 11.0776  26139.5  160.399
 11.1196  25556.7  159.35
 11.1616  25414.7  158.579
 11.2036  25432.3  158.489
 11.2456  25329.9  158.859
 11.2876  25620.2  159.5
 11.3296  25318  158.472
 11.3716  25459.6  158.607
 11.4136  25179.6  158.601
 11.4556  25179.5  158.275
 11.4976  25477.6  158.209
 11.5396  25583.8  158.703
 11.5816  26144  160.876
 11.6236  26650.1  162.646
 11.6656  27309.9  163.786
 11.7076  26205.5  161.286
 11.7496  25456.7  162.989
 11.7916  25215.3  157.462
 11.8336  24783.1  157
 11.8756  24465  155.54
 11.9176  24558.9  155.754
 11.9596  24744  156.267
 12.0016  24324.7  155.709
 12.0436  24423.6  155.471
 12.0856  24016.2  154.675
 12.1276  24005.3  154.588
 12.1696  23970.9  153.598
 12.2116  23992.9  153.662
 12.2536  23945.9  154.322
 12.2956  23835.3  153.319
 12.3376  24015.5  154.102
 12.3796  23901.5  154.221
 12.4216  23913.4  153.454
 12.4636  23548.5  153.209
 12.5056  23839.5  153.416
 12.5476  24053.7  153.624
 12.5896  23734  153.235
 12.6316  23797.5  153.592
 12.6736  23526.5  153.061
 12.7156  23840.4  154.063
 12.7576  23648.7  153.694
 12.7996  23850.7  152.988
 12.8416  23538  153.035
 12.8836  23957.2  154.198
 12.9256  24259.3  154.218
 12.9676  24202.7  154.442
 13.0096  24259  155.734
 13.0516  24194.8  154.563
 13.0936  24631.2  156.36
 13.1356  24680.2  155.474
 13.1776  24502.6  155.938
 13.2196  24557.8  155.748
 13.2616  24434.1  155.678
 13.3036  24740.8  156.616
 13.3456  24399.4  155.88
 13.3876  24883.7  156.691
 13.4296  24312.9  155.043
 13.4716  24806.8  156.239
 13.5136  24612.6  155.756
 13.5556  24549.2  156.184
 13.5976  24470.3  156.104
 13.6396  24643.1  156.012
 13.6816  24598  156.339
 13.7236  25033.3  157.306
 13.7656  26602.7  162.601
 13.8076  27411.7  163.688
 13.8496  26758.2  162.386
 13.8916  24876.7  157.761
 13.9336  23970.5  154.121
 13.9756  24210.5  154.256
 14.0176  23713.4  153.348
 14.0596  24009.9  154.225
 14.1016  23671.4  153.569
 14.1436  23701  152.792
 14.1856  23377.3  152.042
 14.2276  23212.2  151.979
 14.2696  23061.4  151.345
 14.3116  22809.6  150.422
 14.3536  22652.9  150.071
 14.3956  22363.4  148.829
 14.4376  22614.6  149.45
 14.4796  22627.3  149.494
 14.5216  22231.4  148.971
 14.5636  22014.9  147.811
 14.6056  22473.6  148.904
 14.6476  22172.5  147.139
 14.6896  21662.6  145.983
 14.7316  21499.6  146.473
 14.7736  21475.1  145.52
 14.8156  21151  144.447
 14.8576  21286  144.763
 14.8996  20879  144.577
 14.9416  20410.6  142.954
 14.9836  20311.6  142.596
 15.0256  19849.1  139.878
 15.0676  19903.6  140.378
 15.1096  19710.8  139.439
 15.1516  19260.3  138.377
 15.1936  19395.2  138.304
 15.2356  19124.1  137.609
 15.2776  18875.7  136.304
 15.3196  18625.9  136.387
 15.3616  18455.2  135.525
 15.4036  18509.9  135.58
 15.4456  18541.5  135.131
 15.4876  18342  134.306
 15.5296  18192.7  134.037
 15.5716  17957  132.778
 15.6136  17994.1  133.237
 15.6556  17911.8  132.183
 15.6976  17736.1  131.82
 15.7396  17577  131.62
 15.7816  17528.2  130.948
 15.8236  17322.8  130.87
 15.8656  17628.7  131.81
 15.9076  17371.2  130.663
 15.9496  18051.2  136.027
 15.9916  17595.9  134.705
 16.0336  17825.3  132.447
 16.0756  17418.9  131.239
 16.1176  17348  131.051
 16.1596  16815.5  130.199
 16.2016  16968.5  129.556
 16.2436  16951.1  129.86
 16.2856  16932.9  129.301
 16.3276  16497  128.065
 16.3696  16898.8  129.447
 16.4116  16385.1  127.903
 16.4536  16872.1  129.599
 16.4956  16796.2  129.036
 16.5376  16523.9  128.174
 16.5796  16353.9  126.882
 16.6216  16475.1  127.597
 16.6636  16082.2  126.278
 16.7056  16396.9  127.369
 16.7476  16196.5  126.264
 16.7896  16221.4  126.958
 16.8316  16242.4  127.019
 16.8736  16397.9  127.871
 16.9156  16102.9  127.048
 16.9576  16026.3  127.526
 16.9996  16104.7  128.315
 17.0416  16332.7  127.583
 17.0836  16352.2  127.423
 17.1256  16240.6  126.995
 17.1676  16322.3  127.263
 17.2096  16177.8  126.605
 17.2516  16083  126.024
 17.2936  16089.8  126.4
 17.3356  15946.6  125.83
 17.3776  15798.7  125.424
 17.4196  15612.9  124.385
 17.4616  15556.2  124.061
 17.5036  15218.1  123.079
 17.5456  15365.8  124.306
 17.5876  15218.8  122.764
 17.6296  15157.5  122.345
 17.6716  15130.9  122.816
 17.7136  14855.2  121.809
 17.7556  15061.8  122.958
 17.7976  14884.4  121.955
 17.8396  14568.8  120.183
 17.8816  14566.4  120.723
 17.9236  14636.8  120.802
 17.9656  14490.5  120.725
 18.0076  14540.5  120.531
 18.0496  14316.9  118.742
 18.0916  14399.5  119.632
 18.1336  14341  119.486
 18.1756  14523.6  119.796
 18.2176  14151.1  118.458
 18.2596  13997.2  117.538
 18.3016  14251.2  118.859
 18.3436  14296.6  119.054
 18.3856  14201.1  118.789
 18.4276  14137.3  118.215
 18.4696  13997.3  117.71
 18.5116  14133.6  118.554
 18.5536  14024.8  118.452
 18.5956  13959  117.744
 18.6376  13751.8  117.256
 18.6796  13869.6  117.082
 18.7216  13990.7  118.085
 18.7636  13966.8  117.982
 18.8056  13783.9  117.139
 18.8476  13617.3  116.746
 18.8896  13909  117.625
 18.9316  13821.4  117.248
 18.9736  13674.4  116.319
 19.0156  13803.3  117.263
 19.0576  13994.3  116.944
 19.0996  13893.6  117.235
 19.1416  13862.6  117.486
 19.1836  13612.6  116.037
 19.2256  13617.7  116.275
 19.2676  13598.7  116.286
 19.3096  13659.5  116.783
 19.3516  13517.6  116.137
 19.3936  13626.8  116.559
 19.4356  13816.2  117.189
 19.4776  13727.6  116.902
 19.5196  13618.3  116.289
 19.5616  13536.7  116.196
 19.6036  13553.9  115.638
 19.6456  13707.4  116.546
 19.6876  13592.4  115.701
 19.7296  13877  117.359
 19.7716  13534.2  116.067
 19.8136  13735.3  117.122
 19.8556  13930.4  117.438
 19.8976  13676.9  116.415
 19.9396  13836.9  116.692
 19.9816  13794.6  116.763
 20.0236  13954.9  117.624
 20.0656  14067.1  118.098
 20.1076  14340.2  119.724
 20.1496  14442.7  120.145
 20.1916  14908.3  121.574
 20.2336  14972  121.752
 20.2756  14681.7  121.014
 20.3176  14339  119.331
 20.3596  14090.6  118.284
 20.4016  14002.8  117.703
 20.4436  13729.9  117.118
 20.4856  13715  116.846
 20.5276  13507.6  116.425
 20.5696  13576.5  116.163
 20.6116  13308  115.292
 20.6536  13274.9  114.659
 20.6956  13207.1  114.496
 20.7376  13162.7  114.512
 20.7796  13219.3  114.458
 20.8216  13412.9  115.002
 20.8636  13268.7  114.756
 20.9056  13129  114.074
 20.9476  12986.5  113.313
 20.9896  13285.8  114.471
 21.0316  13095  113.552
 21.0736  12988.9  113.61
 21.1156  12848.2  113.152
 21.1576  13043  114.034
 21.1996  13041.9  114.027
 21.2416  12982.8  113.593
 21.2836  12973.7  113.525
 21.3256  12844  113.029
 21.3676  12887.2  112.758
 21.4096  12793.9  112.671
 21.4516  12785.6  112.505
 21.4936  12498.7  111.5
 21.5356  12864  113.063
 21.5776  12948.2  113.264
 21.6196  12811.3  112.7
 21.6616  12725.9  112.404
 21.7036  12783.3  112.432
 21.7456  12738.1  112.314
 21.7876  12678.4  111.81
 21.8296  12607.2  111.349
 21.8716  12695.6  111.958
 21.9136  12741.8  112.369
 21.9556  12619.6  111.506
 21.9976  12662.8  111.725
 22.0396  12541.1  111.441
 22.0816  12587.8  112.173
 22.1236  12736  112.292
 22.1656  12685.6  112.211
 22.2076  12319.5  110.043
 22.2496  12435.9  110.589
 22.2916  12440.7  110.494
 22.3336  12352.2  110.816
 22.3756  12417.5  110.836
 22.4176  12195.3  109.689
 22.4596  12220.1  110.393
 22.5016  12257.8  110.068
 22.5436  12418.6  110.666
 22.5856  12597.9  111.704
 22.6276  12807.7  112.751
 22.6696  12274.8  110.75
 22.7116  12397.1  110.806
 22.7536  12110.6  109.501
 22.7956  12299.9  109.693
 22.8376  12195.1  109.741
 22.8796  12278.7  109.918
 22.9216  12302.8  110.57
 22.9636  12166.7  109.113
 23.0056  12419.6  110.378
 23.0476  12293.5  110.382
 23.0896  12331.1  109.934
 23.1316  12168.2  109.636
 23.1736  12478  113.95
 23.2156  12774.7  112.596
 23.2576  12827.3  113.031
 23.2996  12595.1  111.785
 23.3416  12880.6  113.565
 23.3836  12690  111.943
 23.4256  12941.5  113.182
 23.4676  12808  112.288
 23.5096  12793.2  112.899
 23.5516  12582.3  111.255
 23.5936  12623  112.348
 23.6356  12774.7  112.681
 23.6776  12468.9  111.856
 23.7196  12474  111.136
 23.7616  12536.4  111.333
 23.8036  12621.4  111.757
 23.8456  12394.5  110.312
 23.8876  12483  111.054
 23.9296  12424.5  111.289
 23.9716  12390.9  110.335
 24.0136  12515.6  111.801
 24.0556  12241.6  110.29
 24.0976  12277.1  110.264
 24.1396  11980.4  111.526
 24.1816  12227.5  111.087
 24.2236  12175.7  110.457
 24.2656  12177.6  109.935
 24.3076  12027.6  109.528
 24.3496  11951.6  109.056
 24.3916  12119.4  109.868
 24.4336  11970.1  109.398
 24.4756  12065  109.713
 24.5176  11870.3  108.452
 24.5596  11861.2  108.53
 24.6016  11716.5  108.165
 24.6436  11891.8  108.478
 24.6856  11753  107.589
 24.7276  11655  107.464
 24.7696  11752.7  108.013
 24.8116  11523  107.14
 24.8536  11596.8  107.483
 24.8956  11539.5  106.956
 24.9376  11525.1  106.811
 24.9796  11340.5  106.318
 25.0216  11274.8  106.12
 25.0636  11355.5  106.149
 25.1056  11201.5  106.128
 25.1476  11288.9  108.185
 25.1896  11271.6  106.609
 25.2316  11077.6  104.85
 25.2736  11207.3  105.229
 25.3156  11189.3  105.219
 25.3576  11125.5  105.352
 25.3996  11103.4  105.239
 25.4416  11141.7  105.393
 25.4836  10905  104.781
 25.5256  10967.4  104.452
 25.5676  11017.5  104.406
 25.6096  10815.2  104.022
 25.6516  10939.3  104.12
 25.6936  10936.7  104.427
 25.7356  10943.8  104.593
 25.7776  11030.4  104.608
 25.8196  10868.5  104.073
 25.8616  10793.3  103.648
 25.9036  10967.8  103.933
 25.9456  10827.8  103.863
 25.9876  10684.6  103.236
 26.0296  10894.6  103.762
 26.0716  10856.6  104.008
 26.1136  10756.9  103.465
 26.1556  10876.2  103.334
 26.1976  10670.9  103.359
 26.2396  10827.9  103.277
 26.2816  10760.6  103.555
 26.3236  10703.5  103.358
 26.3656  10707.6  103.177
 26.4076  10766.7  103.68
 26.4496  10953  104.151
 26.4916  11141.5  104.951
 26.5336  11338.4  106.21
 26.5756  11386.1  106.312
 26.6176  10987  104.459
 26.6596  10773.4  103.742
 26.7016  10790.2  103.629
 26.7436  10841.8  103.958
 26.7856  10633.1  102.944
 26.8276  10672.2  103.099
 26.8696  10628.2  102.757
 26.9116  10635.3  102.726
 26.9536  10397.9  101.622
 26.9956  10351.1  101.432
 27.0376  10576.5  102.751
 27.0796  10536.3  102.271
 27.1216  10418.5  101.754
 27.1636  10321.4  101.466
 27.2056  10283.9  101.16
 27.2476  10215.9  100.815
 27.2896  10318.3  101.348
 27.3316  10169.2  100.423
 27.3736  10226.4  100.977
 27.4156  10319.8  101.268
 27.4576  10207.2  100.932
 27.4996  10262.1  100.82
 27.5416  10202.7  100.835
 27.5836  10192.3  100.614
 27.6256  10246.1  101.064
 27.6676  10176.6  100.714
 27.7096  10187.5  100.645
 27.7516  10168.9  100.695
 27.7936  10472  102.323
 27.8356  10305.3  101.123
 27.8776  10319  101.251
 27.9196  10169.6  100.388
 27.9616  10112.6  100.303
 28.0036  10109.9  100.244
 28.0456  10055.6  100.114
 28.0876  9896.59  99.4092
 28.1296  9972.84  99.6262
 28.1716  9987.51  99.7098
 28.2136  9896.34  99.2213
 28.2556  10054.6  100.132
 28.2976  9945.8  99.5813
 28.3396  9885.91  99.0497
 28.3816  10018.7  99.7165
 28.4236  9823.7  98.8986
 28.4656  9752.16  98.5774
 28.5076  9817.71  98.5467
 28.5496  9883.94  99.1267
 28.5916  9903.63  99.0436
 28.6336  9807.46  98.9053
 28.6756  9803.96  98.0831
 28.7176  9752.87  98.3828
 28.7596  9688.45  97.9405
 28.8016  9716.72  98.2116
 28.8436  9575.93  97.6556
 28.8856  9752.35  98.4006
 28.9276  9746.16  98.6153
 28.9696  9628.63  97.6778
 29.0116  9689.1  98.1573
 29.0536  9562.99  97.7351
 29.0956  9638.96  97.8265
 29.1376  9707.03  98.1433
 29.1796  9605.72  97.6731
 29.2216  9613.65  97.5579
 29.2636  9765.01  98.3969
 29.3056  9580.71  97.2486
 29.3476  9571.53  97.7219
 29.3896  9670.71  98.3481
 29.4316  9581.64  97.2275
 29.4736  9447.21  96.6093
 29.5156  9511.12  96.8538
 29.5576  9372.58  96.8715
 29.5996  9452.66  96.554
 29.6416  9337.49  96.077
 29.6836  9364.3  96.1466
 29.7256  9294.46  96.3438
 29.7676  9308.43  96.085
 29.8096  9343.12  96.2046
 29.8516  9218.85  95.8926
 29.8936  9185.22  95.8052
 29.9356  9374.36  96.5451
 29.9776  9061.8  95.069
 30.0196  9403.19  96.2322
 30.0616  9319.69  96.1791
 30.1036  9243.58  95.6077
 30.1456  9209.71  95.6903
 30.1876  9191.55  95.5481
 30.2296  9189.69  95.4953
 30.2716  9362  96.021
 30.3136  9249.35  96.0344
 30.3556  9418.33  97.1688
 30.3976  9300.44  98.0297
 30.4396  9611.65  97.0127
 30.4816  9467.33  95.8953
 30.5236  9495.2  96.0215
 30.5656  9444.31  96.4339
 30.6076  9459.54  95.9216
 30.6496  9235.69  95.178
 30.6916  9434.02  96.2911
 30.7336  9513.68  96.8496
 30.7756  9317.03  96.149
 30.8176  9354.1  96.0419
 30.8596  9337.08  95.706
 30.9016  9376.54  96.2714
 30.9436  9543.94  96.8601
 30.9856  9640.88  97.4726
 31.0276  9265.39  95.1901
 31.0696  9427.02  96.4374
 31.1116  9352.72  96.1642
 31.1536  9396.37  96.268
 31.1956  9271.62  95.7191
 31.2376  9065.21  94.6676
 31.2796  9346.93  95.6586
 31.3216  9226.62  94.9743
 31.3636  9268.92  95.8774
 31.4056  9353.6  97.628
 31.4476  9446.53  96.0025
 31.4896  9203.55  95.2622
 31.5316  9249.96  94.9046
 31.5736  9514.26  96.081
 31.6156  9164.52  94.3029
 31.6576  9400.99  95.5931
 31.6996  9374.94  95.1172
 31.7416  9243.31  95.5454
 31.7836  9279.09  94.736
 31.8256  9356.93  95.3821
 31.8676  9327.06  95.242
 31.9096  9080.59  94.3367
 31.9516  9139.08  94.8053
 31.9936  9061.36  94.2183
 32.0356  9167.85  94.8226
 32.0776  9302.6  95.4089
 32.1196  9284.87  95.4303
 32.1616  9253.83  94.7193
 32.2036  9218.36  95.0493
 32.2456  9122.59  94.9205
 32.2876  9146.63  94.5578
 32.3296  9002.1  93.7695
 32.3716  8940.29  93.5578
 32.4136  8931.47  93.7216
 32.4556  9088.02  93.9195
 32.4976  8961  93.1792
 32.5396  8944.06  93.1482
 32.5816  9002.5  93.4861
 32.6236  9097.38  94.1351
 32.6656  9076.69  94.5712
 32.7076  8849.76  93.0437
 32.7496  8966.34  93.323
 32.7916  9025.13  93.5901
 32.8336  8929.08  93.1829
 32.8756  9051.64  93.6268
 32.9176  8849.34  92.9715
 32.9596  8798.36  92.7792
 33.0016  8881.35  92.9919
 33.0436  8880.23  93.1603
 33.0856  8894.91  93.3284
 33.1276  8718.93  92.1328
 33.1696  8892.28  92.8758
 33.2116  8807.15  92.6563
 33.2536  8974.53  93.5208
 33.2956  8891.99  93.1824
 33.3376  8805.79  92.4329
 33.3796  8847.8  92.9114
 33.4216  8826.62  92.3942
 33.4636  8887.28  92.862
 33.5056  8743.99  92.1914
 33.5476  8846.5  92.8575
 33.5896  8853.3  92.6963
 33.6316  8799.99  92.7211
 33.6736  8768.79  92.8115
 33.7156  8706.59  92.5107
 33.7576  8924.06  93.2959
 33.7996  8864.4  92.7509
 33.8416  8660.39  91.8616
 33.8836  8772.38  92.2288
 33.9256  8891.45  92.9019
 33.9676  8856.76  92.6251
 34.0096  8700.97  92.117
 34.0516  8666.05  91.5695
 34.0936  8672.74  91.8802
 34.1356  8685.26  91.6835
 34.1776  8531  90.8658
 34.2196  8580.61  91.3146
 34.2616  8543.95  91.3184
 34.3036  8623.94  91.9224
 34.3456  8622.58  91.6786
 34.3876  8616.67  91.6155
 34.4296  8592.2  91.1728
 34.4716  8603.47  91.3871
 34.5136  8617.56  91.6583
 34.5556  8519.41  91.3809
 34.5976  8631.85  91.7955
 34.6396  8567.11  91.1641
 34.6816  8598.61  91.4371
 34.7236  8664.62  91.5651
 34.7656  8516.53  90.9835
 34.8076  8525.64  91.365
 34.8496  8426.22  90.6814
 34.8916  8478.6  90.8125
 34.9336  8495.46  90.8992
 34.9756  8578.56  91.2564
 35.0176  8647.57  92.1599
 35.0596  8639.03  91.9361
 35.1016  8481.58  90.8499
 35.1436  8732.76  91.8772
 35.1856  8582.3  91.1919
 35.2276  8621.78  91.5837
 35.2696  8583.92  91.5744
 35.3116  8480.52  91.1234
 35.3536  8488.18  90.8704
 35.3956  8440.61  90.3313
 35.4376  8678.89  92.1674
 35.4796  8593.78  91.7508
 35.5216  8554.31  91.4317
 35.5636  8274.48  90.7317
 35.6056  8431.47  90.6102
 35.6476  8493.35  90.8451
 35.6896  8581.4  91.4038
 35.7316  8420.68  90.5192
 35.7736  8448.33  90.8456
 35.8156  8428.85  90.7521
 35.8576  8413.03  90.9079
 35.8996  8377.14  90.6821
 35.9416  8407.2  90.3602
 35.9836  8415.84  90.7423
 36.0256  8496.18  91.1971
 36.0676  8493.36  90.9233
 36.1096  8436.06  90.7773
 36.1516  8532.16  91.1777
 36.1936  8493.68  90.7974
 36.2356  8391.33  90.9159
 36.2776  8271.15  89.7498
 36.3196  8370.93  89.9559
 36.3616  8358.07  90.009
 36.4036  8299.43  89.7679
 36.4456  8305.64  90.0032
 36.4876  8230.44  89.5194
 36.5296  8320.66  90.0647
 36.5716  8221.21  90.2891
 36.6136  8082.55  88.3382
 36.6556  8239.67  89.3947
 36.6976  8006.04  88.6039
 36.7396  8073.19  88.7976
 36.7816  8055.83  88.984
 36.8236  8154.99  89.4437
 36.8656  8046.07  88.9142
 36.9076  8020.73  88.6604
 36.9496  7978.86  88.5711
 36.9916  7961.56  87.9571
 37.0336  8159.21  89.3576
 37.0756  8099.32  88.8236
 37.1176  7966.48  88.4533
 37.1596  8018.07  88.6504
 37.2016  8002.42  88.7865
 37.2436  8038.6  88.2991
 37.2856  7967.58  88.1615
 37.3276  8105.29  88.2844
 37.3696  8055.3  88.8829
 37.4116  8091.93  89.0033
 37.4536  7826.88  87.4002
 37.4956  7794.31  87.2643
 37.5376  8199.29  91.0854
 37.5796  8067.16  90.2798
 37.6216  7994.32  88.1576
 37.6636  8115.71  88.7095
 37.7056  8087.25  88.7455
 37.7476  8162.59  88.698
 37.7896  8008.39  88.3686
 37.8316  8028.62  88.6191
 37.8736  8056.49  88.3165
 37.9156  8041.95  88.2316
 37.9576  7902.84  87.5138
 37.9996  7956.86  87.3857
 38.0416  7847  87.5752
 38.0836  8162.65  89.2262
 38.1256  7933.39  87.9344
 38.1676  7842.51  87.5474
 38.2096  8052.79  88.3188
 38.2516  8228.87  89.4202
 38.2936  8117.32  88.6888
 38.3356  8018.54  88.0914
 38.3776  8027.61  88.389
 38.4196  8011.11  88.1503
 38.4616  7926.74  87.9305
 38.5036  8180.97  89.1739
 38.5456  7901.37  88.4606
 38.5876  7983.5  88.9359
 38.6296  7882.24  87.3356
 38.6716  7950.76  87.5232
 38.7136  7870.81  87.03
 38.7556  7887.65  87.632
 38.7976  7971.58  88.0241
 38.8396  7848.85  87.7986
 38.8816  7851.51  87.6034
 38.9236  7951.52  87.9644
 38.9656  8104.7  88.7064
 39.0076  8068.42  87.9148
 39.0496  8063.25  88.4453
 39.0916  7982.5  87.6461
 39.1336  7912.62  87.6676
 39.1756  7872.91  87.5121
 39.2176  7775.18  87.498
 39.2596  8053.77  88.9731
 39.3016  7967.41  88.0747
 39.3436  7770.29  87.3908
 39.3856  7945.71  87.812
 39.4276  8100.33  89.1789
 39.4696  7971.47  88.0869
 39.5116  7937.48  88.4124
 39.5536  7930.3  88.7965
 39.5956  7873.07  87.5816
 39.6376  7986.43  88.0468
 39.6796  7846.81  87.188
 39.7216  7870.07  87.4168
 39.7636  7922.16  88.2684
 39.8056  7944.87  88.1818
 39.8476  7805.62  87.6558
 39.8896  7896.42  87.7894
 39.9316  7853.83  87.8026
 39.9736  7905.45  87.6642
 40.0156  7849.73  87.1884
 40.0576  7814.55  87.3334
 40.0996  7984.02  87.4657
 40.1416  7822.45  87.367
 40.1836  7924.66  87.8242
 40.2256  7876.75  87.5939
 40.2676  7798.87  87.269
 40.3096  7961.27  88.0979
 40.3516  8000.38  88.5184
 40.3936  7996.13  87.956
 40.4356  7869.52  87.4545
 40.4776  7986.49  88.5174
 40.5196  7951.13  88.4457
 40.5616  8015.96  88.4427
 40.6036  7808.85  87.5487
 40.6456  7813.57  87.1918
 40.6876  8008.19  88.2592
 40.7296  7940.3  88.0114
 40.7716  7994.91  88.4316
 40.8136  7840.5  87.5305
 40.8556  7947.85  88.2585
 40.8976  7943.58  88.1497
 40.9396  7882.14  88.1559
 40.9816  7980.22  87.9982
 41.0236  7983.01  87.7999
 41.0656  8144.31  89.2236
 41.1076  7933.3  87.83
 41.1496  7943.78  87.7981
 41.1916  7932.43  88.051
 41.2336  8025.63  88.5662
 41.2756  7926.5  87.6218
 41.3176  7953.26  88.3677
 41.3596  7952.64  88.1144
 41.4016  7932.51  88.2635
 41.4436  7982.8  88.3199
 41.4856  7971.6  88.4288
 41.5276  7855.08  87.7947
 41.5696  7964.2  88.0341
 41.6116  8022.75  88.7483
 41.6536  7911.33  87.9873
 41.6956  7987.05  88.462
 41.7376  7849.22  87.7249
 41.7796  7863.4  87.6872
 41.8216  7872.05  87.97
 41.8636  7838.2  87.7224
 41.9056  7826.68  87.4568
 41.9476  7977.73  88.5206
 41.9896  7927.29  87.9133
 42.0316  7988.01  88.3352
 42.0736  7964.88  88.3116
 42.1156  7845.93  87.4899
 42.1576  7862.06  87.6821
 42.1996  7890.39  87.9641
 42.2416  7882.61  87.5085
 42.2836  7893.18  87.6928
 42.3256  7792.88  87.2447
 42.3676  7965.59  88.0011
 42.4096  7937.11  87.8186
 42.4516  7870.59  87.5177
 42.4936  7774.17  87.0585
 42.5356  7692.12  86.7361
 42.5776  7840.48  87.4983
 42.6196  7853.82  87.5584
 42.6616  7757.41  87.2646
 42.7036  7947.13  87.708
 42.7456  7946.02  88.0574
 42.7876  7867.57  87.7031
 42.8296  8056.02  88.6582
 42.8716  7841.67  87.5723
 42.9136  7854.83  87.435
 42.9556  7889.23  87.7608
 42.9976  7865.27  87.5817
 43.0396  7890.84  87.46
 43.0816  7767.81  87.1612
 43.1236  7785.48  87.3112
 43.1656  7851.14  87.5
 43.2076  7820.97  87.4441
 43.2496  7758.93  86.9175
 43.2916  7682.92  86.8496
 43.3336  7767.98  87.1629
 43.3756  7755.93  86.8479
 43.4176  7644.98  86.3067
 43.4596  7703.69  86.4953
 43.5016  7627.73  86.4737
 43.5436  7794.61  87.3112
 43.5856  7644.73  86.5038
 43.6276  7657.08  86.4584
 43.6696  7682.43  86.8628
 43.7116  7842.07  87.2531
 43.7536  7748.58  87.2217
 43.7956  7689.35  88.1024
 43.8376  7687.89  86.6088
 43.8796  7597.03  86.1845
 43.9216  7626.73  86.2733
 43.9636  7473.06  85.508
 44.0056  7518.3  85.99
 44.0476  7529.86  85.693
 44.0896  7544.12  86.1129
 44.1316  7652.96  86.2558
 44.1736  7485.34  85.4279
 44.2156  7570.08  85.7645
 44.2576  7566.99  86.0734
 44.2996  7525.02  85.8044
 44.3416  7480.56  85.3175
 44.3836  7492.27  85.6999
 44.4256  7488.6  85.3312
 44.4676  7377.95  84.8542
 44.5096  7616.06  86.3576
 44.5516  7410.56  85.1469
 44.5936  7408.54  85.0903
 44.6356  7502.79  85.3687
 44.6776  7509.41  85.7215
 44.7196  7424.02  85.4982
 44.7616  7530.66  87.4717
 44.8036  7544.04  85.9839
 44.8456  7685.7  86.9924
 44.8876  7630.61  86.5256
 44.9296  7700.79  86.3691
 44.9716  7621.35  86.3458
 45.0136  7719.96  86.8443
 45.0556  7749.13  86.9811
 45.0976  7499.06  85.7396
 45.1396  7671.75  86.4636
 45.1816  7666.1  86.1945
 45.2236  7681.9  86.3627
 45.2656  7592.01  86.3533
 45.3076  7564.22  85.9761
 45.3496  7537.97  86.1448
 45.3916  7586.37  86.6855
 45.4336  7698.14  87.1596
 45.4756  7490.31  85.8204
 45.5176  7550.86  85.7924
 45.5596  7617.5  86.2934
 45.6016  7606.6  86.659
 45.6436  7555.98  85.5359
 45.6856  7472.83  85.7185
 45.7276  7411.13  87.1961
 45.7696  7580.65  87.3435
 45.8116  7487.9  86.2262
 45.8536  7457.25  85.9498
 45.8956  7475.73  85.4055
 45.9376  7595.89  85.5488
 45.9796  7548.38  85.9681
 46.0216  7435.85  85.6641
 46.0636  7518.56  85.2787
 46.1056  7550.23  85.4537
 46.1476  7504.2  85.7848
 46.1896  7503.98  85.9363
 46.2316  7475.37  85.64
 46.2736  7394.24  85.546
 46.3156  7522.08  85.8615
 46.3576  7469.9  85.7697
 46.3996  7508.76  86.1562
 46.4416  7446.1  85.3625
 46.4836  7459.36  85.8047
 46.5256  7487.52  85.9007
 46.5676  7543.3  86.3334
 46.6096  7409.19  85.4985
 46.6516  7564.95  85.421
 46.6936  7520.81  85.6732
 46.7356  7591.14  86.1749
 46.7776  7437.2  86.155
 46.8196  7464.06  85.8957
 46.8616  7356.72  85.2303
 46.9036  7331.84  84.7402
 46.9456  7350.43  84.4938
 46.9876  7542.21  85.6699
 47.0296  7406.09  85.5857
 47.0716  7403.75  85.3907
 47.1136  7464.47  85.4166
 47.1556  7453.75  85.207
 47.1976  7482.47  85.4635
 47.2396  7304.82  84.8423
 47.2816  7392.93  85.0521
 47.3236  7269  84.7047
 47.3656  7491.22  85.9187
 47.4076  7370.72  85.03
 47.4496  7332.21  84.8955
 47.4916  7374.75  85.3358
 47.5336  7475.03  85.7265
 47.5756  7463.5  85.7469
 47.6176  7364.26  85.1085
 47.6596  7369.68  84.8513
 47.7016  7527.17  85.5478
 47.7436  7412.56  85.2515
 47.7856  7512.36  85.8487
 47.8276  7381.85  85.1499
 47.8696  7398.75  85.3363
 47.9116  7515.38  85.7147
 47.9536  7395.55  84.9701
 47.9956  7324.26  85.2744
 48.0376  7337.63  85.1188
 48.0796  7334.51  85.2327
 48.1216  7285.72  84.7664
 48.1636  7419.83  85.1125
 48.2056  7517.32  85.9398
 48.2476  7504.35  86.1818
 48.2896  7392.18  85.44
 48.3316  7501.72  86.0175
 48.3736  7391.02  85.3926
 48.4156  7362.06  85.0854
 48.4576  7326.03  85.1677
 48.4996  7512.2  85.6877
 48.5416  7534.5  86.1518
 48.5836  7446.07  85.3136
 48.6256  7529.39  85.9998
 48.6676  7343.63  85.4501
 48.7096  7386.18  84.9633
 48.7516  7408.38  85.2374
 48.7936  7208.77  84.1461
 48.8356  7375.47  85.165
 48.8776  7371.24  85.7146
 48.9196  7460.52  85.5925
 48.9616  7404.84  85.6666
 49.0036  7356.32  85.7352
 49.0456  7252.01  85.1133
 49.0876  7401.34  85.4996
 49.1296  7285.03  84.9979
 49.1716  7216.33  84.4627
 49.2136  7353.89  85.1954
 49.2556  7352.46  85.2125
 49.2976  7477.17  86.0045
 49.3396  7348.42  85.313
 49.3816  7421.66  85.1509
 49.4236  7333.86  85.0826
 49.4656  7236.61  84.5372
 49.5076  7341.71  84.894
 49.5496  7299.84  84.5872
 49.5916  7378.35  85.0823
 49.6336  7309.95  84.8985
 49.6756  7287.46  85.0029
 49.7176  7264.37  84.8076
 49.7596  7350.48  85.2521
 49.8016  7398.47  85.2553
 49.8436  7271.16  84.838
 49.8856  7280.2  84.8853
 49.9276  7225.73  84.6635
 49.9696  7265.77  84.8816
 50.0116  7262.74  85.0073
 50.0536  7399.25  85.7439
 50.0956  7211.06  84.7114
 50.1376  7292.38  84.8837
 50.1796  7281.71  85.1038
 50.2216  7261.3  84.9711
 50.2636  7267.15  84.6166
 50.3056  7200.97  84.4092
 50.3476  7213.8  84.5085
 50.3896  7194.52  84.3726
 50.4316  7216.45  84.3291
 50.4736  7176.5  84.317
 50.5156  7256.28  84.7779
 50.5576  7316.67  84.881
 50.5996  7253.81  84.8032
 50.6416  7275.51  84.8512
 50.6836  7245.59  84.7416
 50.7256  7365.56  85.3601
 50.7676  7381.21  85.7759
 50.8096  7202.62  84.2624
 50.8516  7230.27  84.8544
 50.8936  7172.43  84.2831
 50.9356  7347.5  85.4217
 50.9776  7112.9  84.211
 51.0196  7059.25  84.0202
 51.0616  7058.23  83.3239
 51.1036  7083.47  83.8396
 51.1456  7202.74  84.4477
 51.1876  7136.69  83.3898
 51.2296  7044.49  83.4955
 51.2716  6945.12  82.6129
 51.3136  7052.49  83.7131
 51.3556  7003.95  83.0424
 51.3976  6967.65  82.9732
 51.4396  6928.43  83.055
 51.4816  7034.32  83.5412
 51.5236  7083.43  83.9168
 51.5656  6853.07  82.136
 51.6076  6938.92  82.7327
 51.6496  7068.81  83.7061
 51.6916  7027.5  83.8178
 51.7336  6981.67  83.6455
 51.7756  7061.33  83.8054
 51.8176  7002.5  83.5563
 51.8596  6903.2  82.9887
 51.9016  7156.45  84.093
 51.9436  7126.04  85.4336
 51.9856  7036.57  85.2996
 52.0276  7187.51  84.6845
 52.0696  7171.06  84.6507
 52.1116  7037.85  83.9853
 52.1536  7136.92  84.4506
 52.1956  7108.76  83.7495
 52.2376  7218.53  84.5606
 52.2796  7119.19  83.7962
 52.3216  6995.14  83.7616
 52.3636  6997.46  83.3337
 52.4056  7073.94  83.6528
 52.4476  7015.16  83.676
 52.4896  6893.87  82.9995
 52.5316  7086.69  84.1932
 52.5736  6934.35  83.0075
 52.6156  7090.17  84.337
 52.6576  7052.03  83.5339
 52.6996  6844.38  83.2904
 52.7416  6904.81  83.508
 52.7836  6928.87  83.5427
 52.8256  6966.03  82.9662
 52.8676  6840.66  82.7993
 52.9096  7018.13  83.9271
 52.9516  7000.64  84.2274
 52.9936  6923.16  84.1348
 53.0356  6960.95  83.3458
 53.0776  6976.69  83.7161
 53.1196  6974.01  83.8237
 53.1616  6930.51  83.6108
 53.2036  6942.49  83.6462
 53.2456  6934.39  83.7052
 53.2876  6874.63  83.0254
 53.3296  7036.68  84.3338
 53.3716  7042.3  84.1123
 53.4136  7078.28  84.4824
 53.4556  6938.84  83.6814
 53.4976  6941.66  83.5297
 53.5396  6882.26  83.5701
 53.5816  6925.37  83.4716
 53.6236  6797.56  83.05
 53.6656  6946.3  83.5226
 53.7076  7061.94  84.2004
 53.7496  6968.95  83.7745
 53.7916  6867.77  83.3057
 53.8336  6988.28  83.9156
 53.8756  6833.18  83.5431
 53.9176  6791.25  82.6269
 53.9596  6624.25  82.3749
 54.0016  6711.72  82.2323
 54.0436  6596.36  81.7549
 54.0856  6857.18  82.7665
 54.1276  6782.26  82.514
 54.1696  6707.35  82.2105
 54.2116  6785.84  82.4377
 54.2536  6685.39  81.6485
 54.2956  6665.6  81.573
 54.3376  6618.81  81.7774
 54.3796  6584.89  81.4585
 54.4216  6786.35  82.7603
 54.4636  6634.46  81.7827
 54.5056  6644.97  81.6494
 54.5476  6625.79  81.8741
 54.5896  6577.77  81.4244
 54.6316  6726.08  82.1768
 54.6736  6658.72  81.8475
 54.7156  6514.54  80.978
 54.7576  6584.54  81.3809
 54.7996  6662.81  82.0289
 54.8416  6611.1  81.7633
 54.8836  6599.21  81.7765
 54.9256  6606.13  81.5919
 54.9676  6496.19  80.7665
 55.0096  6620.6  81.5537
 55.0516  6511.48  81.1385
 55.0936  6627.31  81.5158
 55.1356  6526.13  80.93
 55.1776  6691.85  82.1976
 55.2196  6553.59  81.1348
 55.2616  6660.11  82.0124
 55.3036  6480.19  81.0693
 55.3456  6410.05  80.7702
 55.3876  6491.47  81.0171
 55.4296  6451.47  80.7629
 55.4716  6509.56  81.1359
 55.5136  6555.03  81.184
 55.5556  6604.56  81.5361
 55.5976  6488.83  80.9105
 55.6396  6599.63  81.547
 55.6816  6420.79  80.2893
 55.7236  6465.77  80.7471
 55.7656  6422.4  80.1023
 55.8076  6438.65  80.1954
 55.8496  6432.5  80.4744
 55.8916  6447.13  80.7696
 55.9336  6565.02  81.3375
 55.9756  6461.11  80.5452
 56.0176  6426.75  80.4968
 56.0596  6425.99  80.4929
 56.1016  6356.1  80.0678
 56.1436  6326.52  80.1369
 56.1856  6321.94  79.8495
 56.2276  6534.88  81.2327
 56.2696  6404.11  80.3928
 56.3116  6458.52  81.1337
 56.3536  6428.15  80.601
 56.3956  6437.86  80.6259
 56.4376  6429.94  80.6318
 56.4796  6305.25  79.6568
 56.5216  6430.63  80.8164
 56.5636  6379.85  80.0836
 56.6056  6495.66  81.0289
 56.6476  6300.01  79.4373
 56.6896  6523.96  81.2965
 56.7316  6367.93  80.2147
 56.7736  6389.34  80.374
 56.8156  6319.84  79.9404
 56.8576  6244.47  79.4126
 56.8996  6358.37  80.0301
 56.9416  6281.56  79.7433
 56.9836  6418.77  80.2495
 57.0256  6244.15  79.4601
 57.0676  6423.08  80.7005
 57.1096  6282.64  79.5877
 57.1516  6257.17  79.4836
 57.1936  6270.62  79.3466
 57.2356  6247.27  79.5105
 57.2776  6253.2  79.5304
 57.3196  6283.14  80.0481
 57.3616  6304.13  79.6847
 57.4036  6316.19  79.8266
 57.4456  6384.57  80.2414
 57.4876  6269.82  79.3701
 57.5296  6281.39  79.7748
 57.5716  6260.05  79.6423
 57.6136  6171.75  78.924
 57.6556  6238.4  79.4672
 57.6976  6260.53  79.4466
 57.7396  6083.15  78.6494
 57.7816  6153.93  79.4749
 57.8236  6170.47  79.3752
 57.8656  6273.53  79.7011
 57.9076  6242.51  79.5184
 57.9496  6171.9  79.43
 57.9916  6186.2  78.9834
 58.0336  6220.94  79.5393
 58.0756  6267.28  79.4597
 58.1176  6215.13  79.1203
 58.1596  6138.94  79.2353
 58.2016  6014.28  77.6649
 58.2436  5994.42  77.9258
 58.2856  6020.51  78.0226
 58.3276  5918.11  77.7182
 58.3696  5987.08  77.922
 58.4116  5912.02  77.3021
 58.4536  6056.8  78.1255
 58.4956  5876.13  77.1318
 58.5376  6067.53  77.9476
 58.5796  5886.68  77.1992
 58.6216  5997.76  77.7388
 58.6636  5996.13  77.9381
 58.7056  5966.22  77.6016
 58.7476  5889.41  77.5411
 58.7896  5951.49  77.5957
 58.8316  5890.76  77.1885
 58.8736  5967.44  77.7021
 58.9156  5997.59  77.9395
 58.9576  6032.21  78.3785
 58.9996  6050.7  77.8561
 59.0416  5930.42  77.445
 59.0836  6011.99  77.8917
 59.1256  5938.22  77.8106
 59.1676  5945.92  78.4629
 59.2096  5875.05  77.3209
 59.2516  6055.61  78.0805
 59.2936  5957.67  77.7724
 59.3356  5988.18  77.8495
 59.3776  5884.63  77.3403
 59.4196  6022.5  78.1759
 59.4616  5920.35  77.3726
 59.5036  5789.92  76.5504
 59.5456  6087.2  78.1829
 59.5876  5947.39  77.4695
 59.6296  5784.45  76.4687
 59.6716  5897.42  77.2691
 59.7136  5807.26  76.6647
 59.7556  5925.93  77.5792
 59.7976  5722.22  75.9831
 59.8396  5978.36  77.5599
 59.8816  5902.51  77.6038
 59.9236  6056.32  78.2533
 59.9656  5804.34  76.8618
 60.0076  6060.02  77.8945
 60.0496  5926.46  77.5304
 60.0916  6103.23  78.0933
 60.1336  5953.31  78.2277
 60.1756  5882.19  78.9279
 60.1996  0.0000000E+00  0.0000000E+00