File: docs/examples/XRD/IS17_D/Data/IS17_D/17_Da_f00150.xye
# /beamlines/bl04/projects/cycle2025-II/20250340211-lsimonelli/DATA/IS17_D/17_Da_f00150.xye : mythproc.py merge -s 0.006 -l 0.5 -f /beamlines/bl04/inhouse/ff/FlatField/ff_20Nov2024rod8mm60s_17keV.raw -b True -c true -o xye /beamlines/bl04/projects/cycle2025-II/20250340211-lsimonelli/DATA/IS17_D/17_Da_00150.dat
# IsMon = [6773032, 6782072, 6778115]  IsPos = [-1.4999, -2.4883, -3.4988]
# Wave = 0.4962  CalPath /beamlines/bl04/projects/cycle2025-II/20250340211-lsimonelli/DATA/Align/Si_Pos1_25keV_f00001.cal
# Date = 2025-09-25_11:21:41 Dt = 4.8000  Bin = 0.0060  <imon> = 6777740 +/- 3700 (Min/Max) 6773032 / 6782072
# icurr 252.1586  mocoIn 1.7200E-05  mocoOut 0.8066  i15 7.09674e+06  imon 6.77774e+06  i7 6.6667  iEMpd_timer 4.8000  iEMpd_1 3.3907E-08  iEMpd_2 7.8145E-08  iEMpd_3 1.6346E-08  iEMpd_4 4.8341E-08  iEMhp_timer 4.8000  iEMhp_1 4.9260E-06  iEMhp_2 -2.4718E-08  iEMhp_3 -2.3374E-08  iEMhp_4 -2.0016E-08
#      9776
 1.5856  41021.4  208.046
 1.6276  48442.8  222.204
 1.6696  54634.9  235.146
 1.7116  63530.8  254.064
 1.7536  72569.7  270.38
 1.7956  77408.7  279.947
 1.8376  73859.4  273.887
 1.8796  61694.4  248.484
 1.9216  50398.1  225.474
 1.9636  41976.3  204.932
 2.0056  38060.5  194.382
 2.0476  35102.8  188.723
 2.0896  33473.9  183.212
 2.1316  33064.1  181.211
 2.1736  30892.2  176.548
 2.2156  31629.1  177.208
 2.2576  30483.3  174.594
 2.2996  29398.8  172.088
 2.3416  29709.5  171.615
 2.3836  29372.9  170.744
 2.4256  28365.4  168.337
 2.4676  27667  166.016
 2.5096  27606.7  165.889
 2.5516  26990.6  167.758
 2.5936  27143  164.848
 2.6356  26373.9  163.181
 2.6776  26343.9  161.973
 2.7196  26087.2  161.339
 2.7616  25851.5  160.752
 2.8036  25411.8  159.548
 2.8456  25517.6  160.499
 2.8876  25223.8  159.429
 2.9296  24743.5  158.044
 2.9716  24535.6  156.874
 3.0136  24423.4  156.581
 3.0556  24487.1  157.184
 3.0976  24314.7  155.577
 3.1396  23875.9  154.864
 3.1816  23910  154.634
 3.2236  23587.2  153.855
 3.2656  23654.6  153.104
 3.3076  23656.2  154.58
 3.3496  23974.1  154.531
 3.3916  24065.9  154.671
 3.4336  24527.1  156.724
 3.4756  24959.7  158.043
 3.5176  25934.5  160.878
 3.5596  25856.7  163.094
 3.6016  26139.6  161.566
 3.6436  24953.7  158.949
 3.6856  24687.7  156.407
 3.7276  23849.7  154.81
 3.7696  23596.1  154.183
 3.8116  23118.4  152.506
 3.8536  23243.9  152.862
 3.8956  23312.2  152.902
 3.9376  23182.8  152.731
 3.9796  22819.4  151.039
 4.0216  23259.3  151.505
 4.0636  23203.3  152.817
 4.1056  23014.3  151.819
 4.1476  23062.9  152.325
 4.1896  23342.4  153.088
 4.2316  23739.3  154.222
 4.2736  24318.3  155.861
 4.3156  24314.6  156.085
 4.3576  25168.8  158.73
 4.3996  25263.4  159.273
 4.4416  25953.9  161.028
 4.4836  26262.2  162.122
 4.5256  26675.2  164.034
 4.5676  26737.1  164.466
 4.6096  27172.2  164.462
 4.6516  27396.3  164.836
 4.6936  27486.5  165.917
 4.7356  28000.6  167.292
 4.7776  27842.7  166.642
 4.8196  27666.1  166.786
 4.8616  27202.5  164.835
 4.9036  26833.3  163.486
 4.9456  26912.2  164.365
 4.9876  26210.2  162.109
 5.0296  26581.7  163.065
 5.0716  26479.1  163.538
 5.1136  26481.7  163.252
 5.1556  26913  164.028
 5.1976  27085.6  164.569
 5.2396  27384.5  165.159
 5.2816  27354.8  165.542
 5.3236  27482  165.618
 5.3656  26962.7  164.97
 5.4076  26719.6  164.38
 5.4496  27061.3  164.896
 5.4916  27035.5  164.581
 5.5336  27217.8  165.134
 5.5756  26982.4  164.471
 5.6176  27169.7  164.456
 5.6596  27388.8  166.117
 5.7016  27596.1  165.989
 5.7436  27601.4  166.28
 5.7856  27664.5  166.527
 5.8276  28125.3  167.619
 5.8696  28304  168.336
 5.9116  28159.1  168.201
 5.9536  28381  168.939
 5.9956  28684.8  169.185
 6.0376  28853  170.327
 6.0796  28809.6  170.03
 6.1216  29218.3  171.485
 6.1636  29245.7  170.57
 6.2056  29061.6  170.69
 6.2476  29068.9  170.597
 6.2896  29495.4  171.52
 6.3316  29241.9  170.967
 6.3736  29553  171.755
 6.4156  29570.8  171.715
 6.4576  29380.9  170.755
 6.4996  29792.8  172.422
 6.5416  29670.7  172.215
 6.5836  29897.2  173.096
 6.6256  29891.6  172.649
 6.6676  30598  174.24
 6.7096  30387.3  174.509
 6.7516  30556.7  174.636
 6.7936  30828.8  174.845
 6.8356  30872.5  175.036
 6.8776  31466.7  177.513
 6.9196  31313.7  177.497
 6.9616  31853  178.445
 7.0036  32294.3  179.337
 7.0456  32208.4  178.39
 7.0876  31955.3  179.383
 7.1296  32085.4  178.882
 7.1716  31972.3  178.11
 7.2136  31851.6  177.545
 7.2556  32281.6  178.905
 7.2976  32183.6  179.134
 7.3396  32006  178.836
 7.3816  31834.1  178.587
 7.4236  32457.8  179.609
 7.4656  32526.4  179.282
 7.5076  32708.1  179.918
 7.5496  32732.3  180.527
 7.5916  32628  180.272
 7.6336  33010  181.219
 7.6756  33019.1  181.09
 7.7176  33602  182.993
 7.7596  33342.4  183.54
 7.8016  33778.8  186.95
 7.8436  34333.2  185.08
 7.8856  34406.3  184.882
 7.9276  35248.7  187.543
 7.9696  35326.8  188.057
 8.0116  36193.9  188.873
 8.0536  36288.9  189.38
 8.0956  36423.5  190.903
 8.1376  37009.6  191.912
 8.1796  37046.7  192.547
 8.2216  38093.1  193.98
 8.2636  38005.5  194.022
 8.3056  37906.8  194.543
 8.3476  38782.3  196.085
 8.3896  38160.6  194.588
 8.4316  38900.4  196.631
 8.4736  38530.4  195.152
 8.5156  38221.3  194.648
 8.5576  37930.4  195.522
 8.5996  38095.8  194.172
 8.6416  37998  195.186
 8.6836  37792.7  194.51
 8.7256  38210  195
 8.7676  37588.5  196.384
 8.8096  37265.5  192.837
 8.8516  37615.4  193.364
 8.8936  36789.2  191.109
 8.9356  36785.8  191.459
 8.9776  37073.8  192.311
 9.0196  36972  191.72
 9.0616  37037  191.336
 9.1036  36600.8  191.419
 9.1456  36619  190.802
 9.1876  36516.6  190.495
 9.2296  36882.6  190.83
 9.2716  36297.6  189.387
 9.3136  36379.8  189.581
 9.3556  36602.8  190.146
 9.3976  35023  186.542
 9.4396  35699.3  188.212
 9.4816  35046.4  186.348
 9.5236  35252.1  186.801
 9.5656  34877.3  186.135
 9.6076  34651.4  186.053
 9.6496  34533  185.669
 9.6916  34484.3  185.501
 9.7336  34588  185.563
 9.7756  34823.2  187.439
 9.8176  33692.1  183.866
 9.8596  33689.7  182.293
 9.9016  33277.5  181.169
 9.9436  32996.3  180.313
 9.9856  32741.8  179.846
 10.0276  32362.8  179.87
 10.0696  32765.4  180.054
 10.1116  31614.4  177.13
 10.1536  31517  177.026
 10.1956  31332.7  176.107
 10.2376  30905.1  174.415
 10.2796  30751.7  174.092
 10.3216  30801.3  174.507
 10.3636  30750  174.392
 10.4056  30116.5  172.966
 10.4476  30053  172.425
 10.4896  30407.8  173.012
 10.5316  29759.8  171.749
 10.5736  29647.5  171.842
 10.6156  29110.7  170.06
 10.6576  29547.9  169.862
 10.6996  29108.3  169.261
 10.7416  28526  167.804
 10.7836  28785.7  169.25
 10.8256  28260.4  168.145
 10.8676  28589  168.634
 10.9096  28324.5  167.918
 10.9516  27919.3  165.621
 10.9936  27972.2  165.985
 11.0356  28025.1  166.778
 11.0776  27600.5  164.817
 11.1196  27304.7  164.686
 11.1616  27018.8  163.494
 11.2036  27347.3  164.352
 11.2456  27116.1  164.354
 11.2876  27183.6  164.308
 11.3296  26982  163.579
 11.3716  27342.8  164.371
 11.4136  27207.9  164.873
 11.4556  27544.7  165.548
 11.4976  27794.2  165.239
 11.5396  27995.2  166.003
 11.5816  27570  165.216
 11.6236  26974.2  163.628
 11.6656  26574.7  161.586
 11.7076  26138.4  161.09
 11.7496  25832.2  164.093
 11.7916  25735.5  159.101
 11.8336  25527.8  159.35
 11.8756  25394.7  158.461
 11.9176  25415.4  158.173
 11.9596  24879.4  156.705
 12.0016  25338.6  158.639
 12.0436  24945.1  157.126
 12.0856  24726.3  156.956
 12.1276  24836.9  157.217
 12.1696  24726.2  155.994
 12.2116  25087  157.116
 12.2536  24646.2  156.583
 12.2956  24580.8  155.692
 12.3376  24543  155.808
 12.3796  24696.4  156.736
 12.4216  24511.6  155.371
 12.4636  24407.5  155.954
 12.5056  24683  156.104
 12.5476  24780.6  155.934
 12.5896  24654.3  156.167
 12.6316  24184.2  154.85
 12.6736  24235.3  155.66
 12.7156  24004.1  154.619
 12.7576  24197.3  155.472
 12.7996  24511.6  155.112
 12.8416  24347  155.647
 12.8836  24888.2  157.104
 12.9256  25088.5  156.831
 12.9676  24949  156.81
 13.0096  24829.2  157.56
 13.0516  25175  157.67
 13.0936  24860.5  157.094
 13.1356  25361.2  157.627
 13.1776  24916.8  157.236
 13.2196  25060.1  157.342
 13.2616  25008.3  157.484
 13.3036  25162.8  157.95
 13.3456  25044.3  157.925
 13.3876  24938.3  156.894
 13.4296  24785.3  156.555
 13.4716  25134.2  157.251
 13.5136  25059.7  157.184
 13.5556  24907.8  157.316
 13.5976  25199.1  158.384
 13.6396  25238.6  157.863
 13.6816  24870.5  157.214
 13.7236  25594.6  159.126
 13.7656  24845.6  157.33
 13.8076  25045.1  156.719
 13.8496  24756.2  156.427
 13.8916  24639.6  157.056
 13.9336  24708.9  156.486
 13.9756  24564.9  155.39
 14.0176  24610.6  156.215
 14.0596  24477.5  155.764
 14.1016  24079.8  154.889
 14.1436  23981.3  153.713
 14.1856  23798.1  153.407
 14.2276  23454.3  152.797
 14.2696  23761.4  153.623
 14.3116  23464.5  152.546
 14.3536  23061.8  151.418
 14.3956  23044.7  151.082
 14.4376  23171.2  151.281
 14.4796  23006.2  150.738
 14.5216  22965.3  151.402
 14.5636  22535.5  149.551
 14.6056  22713.2  149.716
 14.6476  22698.8  148.883
 14.6896  22320.8  148.187
 14.7316  22089.7  148.458
 14.7736  21862.6  146.82
 14.8156  21484.8  145.59
 14.8576  21670.3  146.065
 14.8996  21024.8  145.087
 14.9416  20765.5  144.189
 14.9836  21044.9  145.115
 15.0256  20666.6  142.703
 15.0676  20769.8  143.52
 15.1096  20820.1  143.284
 15.1516  20130.3  141.441
 15.1936  20172  141.02
 15.2356  20170.9  141.168
 15.2776  19887.1  139.884
 15.3196  19574.2  139.79
 15.3616  19434.5  139.051
 15.4036  19315.5  138.478
 15.4456  19620.1  139.208
 15.4876  19293.9  137.723
 15.5296  19076.8  137.226
 15.5716  18966.9  136.429
 15.6136  18761.2  136.013
 15.6556  18794.5  135.376
 15.6976  18646.2  135.13
 15.7396  18549.4  135.176
 15.7816  18533.8  134.629
 15.8236  18241.4  134.274
 15.8656  18296.7  134.257
 15.9076  18051.1  133.179
 15.9496  17824.3  135.156
 15.9916  17949.2  136.073
 16.0336  17590.5  131.615
 16.0756  17614.9  132.013
 16.1176  17586.4  131.974
 16.1596  17310.1  132.123
 16.2016  17495.2  131.551
 16.2436  17276.6  131.12
 16.2856  17049.6  129.801
 16.3276  17108.6  130.448
 16.3696  17217.5  130.677
 16.4116  16926.9  130.034
 16.4536  17211.4  130.903
 16.4956  17014.4  129.896
 16.5376  16819.2  129.327
 16.5796  16813.9  128.664
 16.6216  16909.1  129.331
 16.6636  16764.8  128.927
 16.7056  16692.7  128.527
 16.7476  16781  128.389
 16.7896  16594.8  128.427
 16.8316  16725.1  128.892
 16.8736  16668.1  128.945
 16.9156  16743.8  129.573
 16.9576  16533.3  129.543
 16.9996  16525  129.999
 17.0416  16630.7  128.736
 17.0836  16545.1  128.174
 17.1256  16266  127.104
 17.1676  16181.9  126.768
 17.2096  16032.9  126.057
 17.2516  16222.7  126.581
 17.2936  15977.8  125.945
 17.3356  15828.2  125.369
 17.3776  15900.6  125.84
 17.4196  15961.7  125.764
 17.4616  15649.5  124.456
 17.5036  15412.1  123.861
 17.5456  15392.7  124.438
 17.5876  15454.2  123.727
 17.6296  15448.6  123.51
 17.6716  15390  123.867
 17.7136  15191.7  123.219
 17.7556  15245  123.719
 17.7976  15346.9  123.87
 17.8396  15206.8  122.796
 17.8816  15277.2  123.611
 17.9236  15111.7  122.768
 17.9656  15166.3  123.526
 18.0076  15249.3  123.451
 18.0496  15177.5  122.277
 18.0916  15254.5  123.139
 18.1336  15287.6  123.366
 18.1756  15355.1  123.162
 18.2176  15023.4  122.05
 18.2596  15018.7  121.757
 18.3016  15183.6  122.692
 18.3436  15213.5  122.802
 18.3856  14931.2  121.813
 18.4276  14942.6  121.523
 18.4696  14860  121.291
 18.5116  14992.5  122.118
 18.5536  15059.4  122.756
 18.5956  14838  121.393
 18.6376  14702.9  121.24
 18.6796  14812.3  121.01
 18.7216  14742.6  121.211
 18.7636  14552.5  120.439
 18.8056  14458.5  119.978
 18.8476  14456.5  120.6
 18.8896  14724.9  121.037
 18.9316  14641.4  120.68
 18.9736  14620.4  120.284
 19.0156  14548.1  120.388
 19.0576  14535.2  119.202
 19.0996  14565.8  120.168
 19.1416  14380  119.678
 19.1836  14397.4  119.335
 19.2256  14258.6  118.973
 19.2676  14472.6  119.957
 19.3096  14437  120.056
 19.3516  14288.5  119.398
 19.3936  14399.1  119.751
 19.4356  14390.8  119.596
 19.4776  14317.5  119.387
 19.5196  14481.1  119.919
 19.5616  14277.6  119.33
 19.6036  14307.7  118.946
 19.6456  14250.6  118.834
 19.6876  14432.2  119.221
 19.7296  14366.7  119.427
 19.7716  14231.1  119.001
 19.8136  14308  119.56
 19.8556  14806  121.08
 19.8976  14601.4  120.303
 19.9396  14552.3  119.675
 19.9816  14819.1  121.081
 20.0236  15045.5  122.155
 20.0656  15104.5  122.382
 20.1076  14561.4  120.652
 20.1496  14388.9  119.93
 20.1916  14219  118.739
 20.2336  14106.2  118.188
 20.2756  14065  118.45
 20.3176  13936.5  117.655
 20.3596  13859  117.297
 20.4016  13847.4  117.056
 20.4436  13835.5  117.557
 20.4856  13679.7  116.706
 20.5276  13711.5  117.295
 20.5696  13526.7  115.967
 20.6116  13624.6  116.659
 20.6536  13544.3  115.818
 20.6956  13612.7  116.232
 20.7376  13551.3  116.198
 20.7796  13464.6  115.52
 20.8216  13612.5  115.851
 20.8636  13401.7  115.33
 20.9056  13439.7  115.439
 20.9476  13212.6  114.308
 20.9896  13500.6  115.404
 21.0316  13608.6  115.751
 21.0736  13399.2  115.385
 21.1156  13543.4  116.16
 21.1576  13476.6  115.932
 21.1996  13412.9  115.634
 21.2416  13266.5  114.842
 21.2836  13403.6  115.392
 21.3256  13276  114.933
 21.3676  13449.4  115.214
 21.4096  13190.6  114.411
 21.4516  13222.7  114.426
 21.4936  13019.2  113.788
 21.5356  13315.9  115.03
 21.5776  13335.6  114.952
 21.6196  13097.8  113.948
 21.6616  12988.8  113.564
 21.7036  13203.8  114.287
 21.7456  13196.1  114.324
 21.7876  13019.6  113.3
 21.8296  13022.4  113.172
 21.8716  12995.6  113.289
 21.9136  13215  114.446
 21.9556  12936.3  112.904
 21.9976  12967.1  113.052
 22.0396  12987.7  113.398
 22.0816  12948.3  113.77
 22.1236  13043.6  113.638
 22.1656  12967.5  113.431
 22.2076  13191.6  113.852
 22.2496  13024.8  113.155
 22.2916  13039.1  113.099
 22.3336  13007.9  113.694
 22.3756  13047.5  113.593
 22.4176  12809.9  112.406
 22.4596  12872.4  113.281
 22.5016  12863.5  112.715
 22.5436  13061  113.474
 22.5856  12980.9  113.371
 22.6276  12958.9  113.449
 22.6696  12878.4  113.408
 22.7116  12848.1  112.782
 22.7536  13048.4  113.64
 22.7956  12928.1  112.434
 22.8376  12795.6  112.396
 22.8796  12779.3  112.116
 22.9216  13016.5  113.712
 22.9636  12882.9  112.264
 23.0056  13028.4  113.034
 23.0476  13018.3  113.568
 23.0896  13326.7  114.265
 23.1316  13097  113.724
 23.1736  12827.6  115.333
 23.2156  13071.3  113.973
 23.2576  12811.2  112.974
 23.2996  12974.1  113.463
 23.3416  12856.2  113.482
 23.3836  12801.7  112.468
 23.4256  12936.4  113.179
 23.4676  12798.9  112.265
 23.5096  12847.8  113.16
 23.5516  12712.4  111.839
 23.5936  12900.2  113.576
 23.6356  13017.3  113.757
 23.6776  12786.1  112.955
 23.7196  12624.4  111.809
 23.7616  12742.2  112.246
 23.8036  12885.2  112.927
 23.8456  12683.3  111.593
 23.8876  12549.6  111.37
 23.9296  12492  111.597
 23.9716  12600.3  111.272
 24.0136  12667.5  112.471
 24.0556  12457.8  111.274
 24.0976  12467.1  111.116
 24.1396  12403.9  113.487
 24.1816  12447.3  112.107
 24.2236  12296.2  111.021
 24.2656  12213.5  110.117
 24.3076  12183.9  110.231
 24.3496  12270  110.505
 24.3916  12138  109.969
 24.4336  12088.5  109.955
 24.4756  12114.3  109.943
 24.5176  11975.2  108.954
 24.5596  11814.7  108.345
 24.6016  11864.9  108.867
 24.6436  11842.4  108.264
 24.6856  11868.8  108.133
 24.7276  11853.5  108.368
 24.7696  11677.1  107.682
 24.8116  11784.2  108.35
 24.8536  11682.4  107.884
 24.8956  11593.4  107.213
 24.9376  11522.9  106.825
 24.9796  11446.2  106.822
 25.0216  11451.9  106.973
 25.0636  11619.2  107.39
 25.1056  11291.8  106.57
 25.1476  11555.7  109.497
 25.1896  11579.9  108.056
 25.2316  11579.5  107.324
 25.2736  11532.1  106.742
 25.3156  11522.4  106.791
 25.3576  11343.2  106.372
 25.3996  11350.7  106.402
 25.4416  11378.9  106.507
 25.4836  11258.5  106.469
 25.5256  11322.8  106.132
 25.5676  11269.8  105.6
 25.6096  11249.9  106.093
 25.6516  11320.5  105.913
 25.6936  11063.4  105.031
 25.7356  11201.7  105.811
 25.7776  11301.8  105.895
 25.8196  11132.7  105.33
 25.8616  11203.4  105.585
 25.9036  11362.1  105.795
 25.9456  11138.8  105.34
 25.9876  11059.7  105.037
 26.0296  11349.2  105.897
 26.0716  11231.2  105.784
 26.1136  11161.2  105.392
 26.1556  11227.5  105.082
 26.1976  11045.6  105.156
 26.2396  11199.8  105.034
 26.2816  11257.8  105.922
 26.3236  11103.6  105.347
 26.3656  10981.8  104.504
 26.4076  11151.4  105.483
 26.4496  11647.8  107.318
 26.4916  11340.4  105.895
 26.5336  11142.3  105.295
 26.5756  11707.2  107.733
 26.6176  11057.6  104.779
 26.6596  10978.4  104.74
 26.7016  10948.8  104.345
 26.7436  10827.8  103.917
 26.7856  10759.4  103.561
 26.8276  10929.8  104.332
 26.8696  10792.8  103.553
 26.9116  10714.5  103.114
 26.9536  10794.4  103.546
 26.9956  10726.4  103.245
 27.0376  10573.7  102.734
 27.0796  10772.4  103.411
 27.1216  10585.1  102.601
 27.1636  10518.2  102.433
 27.2056  10673.6  103.07
 27.2476  10624  102.83
 27.2896  10663.5  103.161
 27.3316  10604.5  102.552
 27.3736  10604.5  102.816
 27.4156  10538.7  102.354
 27.4576  10426.3  102.034
 27.4996  10629  102.617
 27.5416  10482.9  102.222
 27.5836  10538.6  102.305
 27.6256  10721.9  103.366
 27.6676  10831.9  103.906
 27.7096  10461.1  101.98
 27.7516  10406.6  101.86
 27.7936  10316.2  101.604
 27.8356  10406.8  101.658
 27.8776  10352  101.437
 27.9196  10348  101.26
 27.9616  10400.5  101.718
 28.0036  10292.9  101.162
 28.0456  10402.6  101.827
 28.0876  10336.5  101.597
 28.1296  10250.6  100.941
 28.1716  10242.9  100.993
 28.2136  10365.3  101.547
 28.2556  10143.4  100.582
 28.2976  10111.5  100.406
 28.3396  10231.7  100.754
 28.3816  10151.5  100.385
 28.4236  10192.6  100.739
 28.4656  10091.8  100.281
 28.5076  10133.5  100.113
 28.5496  10092.6  100.182
 28.5916  10214.8  100.589
 28.6336  10097  100.363
 28.6756  10154.2  99.8306
 28.7176  10038  99.7049
 28.7596  10081.8  99.9244
 28.8016  10179.5  100.433
 28.8436  9901.87  99.2948
 28.8856  9997.69  99.669
 28.9276  10013.3  99.9589
 28.9696  9907.17  99.0865
 29.0116  9947.7  99.4722
 29.0536  9925.53  99.5613
 29.0956  9949  99.4029
 29.1376  9956.39  99.3994
 29.1796  9871.95  99.0213
 29.2216  9849.86  98.7501
 29.2636  9933.89  99.2473
 29.3056  9883.7  98.7866
 29.3476  9882.63  99.3092
 29.3896  9988.58  99.935
 29.4316  10041.3  99.5143
 29.4736  9971.07  99.2357
 29.5156  10048.2  99.5314
 29.5576  9858.73  99.3302
 29.5996  10002.7  99.3058
 29.6416  9779.35  98.3023
 29.6836  9967.5  99.1774
 29.7256  9801.74  98.676
 29.7676  9879.22  98.9673
 29.8096  9813.48  98.5781
 29.8516  9676.95  98.228
 29.8936  9938.86  99.6417
 29.9356  9914.74  99.2703
 29.9776  9835.75  99.031
 30.0196  9725.04  98.1259
 30.0616  9690.02  98.0552
 30.1036  9727.34  98.0592
 30.1456  9847.22  98.9125
 30.1876  9736.7  98.3228
 30.2296  9656.71  97.8763
 30.2716  9715.83  97.8031
 30.3136  9771.43  98.9467
 30.3556  9800.56  99.1243
 30.3976  9576.98  99.5234
 30.4396  9853.9  98.2597
 30.4816  9753.18  97.3446
 30.5236  9710.69  97.1575
 30.5656  9579.93  97.1506
 30.6076  9656.76  96.968
 30.6496  9664.29  97.3905
 30.6916  9621.13  97.26
 30.7336  9564.07  97.1316
 30.7756  9528.42  97.0412
 30.8176  9593.73  97.2895
 30.8596  9469.11  96.423
 30.9016  9608.75  97.4785
 30.9436  9580.83  97.087
 30.9856  9673.24  97.6681
 31.0276  9486.39  96.313
 31.0696  9502.89  96.9818
 31.1116  9535.61  97.1287
 31.1536  9536.06  97.0082
 31.1956  9454.04  96.6822
 31.2376  9307.67  95.9381
 31.2796  9643.36  97.1856
 31.3216  9486.21  96.3347
 31.3636  9439.79  96.7784
 31.4056  9533.67  98.607
 31.4476  9465.47  96.1056
 31.4896  9380.02  96.1796
 31.5316  9410.2  95.7217
 31.5736  9571.34  96.3589
 31.6156  9459.71  95.8209
 31.6576  9468.49  95.9648
 31.6996  9445.97  95.5171
 31.7416  9241.83  95.5271
 31.7836  9317  94.9394
 31.8256  9339.77  95.3403
 31.8676  9477.45  96.0233
 31.9096  9255.33  95.2512
 31.9516  9163.26  94.9335
 31.9936  9260.08  95.2511
 32.0356  9335.69  95.7159
 32.0776  9225.44  95.0338
 32.1196  9445.45  96.2513
 32.1616  9458.6  95.7694
 32.2036  9181.14  94.8747
 32.2456  9327.05  96.0022
 32.2876  9240.29  95.0487
 32.3296  9223.34  94.9252
 32.3716  9123.5  94.5109
 32.4136  9293.35  95.6057
 32.4556  9329.26  95.1517
 32.4976  9290.86  94.8752
 32.5396  9333.15  95.1583
 32.5816  9087.74  94.0275
 32.6236  9220.97  94.7786
 32.6656  9245.85  95.4487
 32.7076  9108.1  94.3896
 32.7496  9226.79  94.6615
 32.7916  9194.08  94.4596
 32.8336  9205.54  94.6095
 32.8756  9223.47  94.4335
 32.9176  9126.39  94.4176
 32.9596  9111.85  94.4183
 33.0016  9082.4  94.0548
 33.0436  9297.84  95.3371
 33.0856  9028.19  94.0209
 33.1276  9028.89  93.7433
 33.1696  9203.66  94.4949
 33.2116  9215.83  94.7853
 33.2536  9049.54  93.939
 33.2956  9189.44  94.7371
 33.3376  9105.23  94.0489
 33.3796  9123.85  94.3469
 33.4216  9136.33  94.0048
 33.4636  9099.35  93.9642
 33.5056  8976.8  93.5565
 33.5476  8922.64  93.2848
 33.5896  9159.2  94.2732
 33.6316  8923.67  93.381
 33.6736  8884.66  93.4164
 33.7156  8938.3  93.7369
 33.7576  9161.67  94.5226
 33.7996  9170.44  94.3299
 33.8416  8882.59  93.0238
 33.8836  8965.22  93.2238
 33.9256  8927.38  93.1035
 33.9676  8868.79  92.684
 34.0096  8819.47  92.7512
 34.0516  9023.96  93.4471
 34.0936  8846.5  92.792
 34.1356  8967.83  93.1593
 34.1776  8896.11  92.7976
 34.2196  8810.25  92.5338
 34.2616  8787.35  92.5393
 34.3036  8830.79  93.0369
 34.3456  8866.11  92.9665
 34.3876  8860.93  92.9099
 34.4296  8793.45  92.2373
 34.4716  8844.62  92.6479
 34.5136  8776.84  92.5058
 34.5556  8806.65  92.9162
 34.5976  8810.61  92.7382
 34.6396  8680.1  91.8805
 34.6816  8731.56  92.1497
 34.7236  8718.25  91.8601
 34.7656  8663.45  91.7631
 34.8076  8698.65  92.2752
 34.8496  8724.66  92.3399
 34.8916  8614.93  91.5568
 34.9336  8830.82  92.66
 34.9756  8846.88  92.6707
 35.0176  8763.98  92.7663
 35.0596  8754.84  92.554
 35.1016  8697.85  92.0093
 35.1436  8832.07  92.3922
 35.1856  8691.66  91.7846
 35.2276  8760.96  92.3224
 35.2696  8626.18  91.8097
 35.3116  8604.9  91.7846
 35.3536  8673.28  91.8636
 35.3956  8585.92  91.0968
 35.4376  8603.84  91.7631
 35.4796  8633.13  91.9784
 35.5216  8602.44  91.7709
 35.5636  8454.66  91.7254
 35.6056  8623.57  91.6373
 35.6476  8683.82  91.8558
 35.6896  8651.07  91.7669
 35.7316  8533.03  91.1184
 35.7736  8556.61  91.4458
 35.8156  8487  91.0771
 35.8576  8623  92.0491
 35.8996  8584.45  91.8158
 35.9416  8588.53  91.3382
 35.9836  8512.46  91.2797
 36.0256  8555.42  91.5302
 36.0676  8612.18  91.5815
 36.1096  8459.17  90.9039
 36.1516  8511.32  91.0776
 36.1936  8509.78  90.9156
 36.2356  8507.63  91.534
 36.2776  8535.37  91.1776
 36.3196  8601.22  91.1874
 36.3616  8503.81  90.8059
 36.4036  8472.03  90.6954
 36.4456  8560.97  91.381
 36.4876  8414.14  90.5272
 36.5296  8431.81  90.6703
 36.5716  8516.07  91.9092
 36.6136  8617.04  91.1897
 36.6556  8500.35  90.7819
 36.6976  8447.14  90.9959
 36.7396  8418.34  90.7428
 36.7816  8320.35  90.4171
 36.8236  8449.5  91.031
 36.8656  8417.11  90.9355
 36.9076  8420.58  90.826
 36.9496  8381.81  90.6107
 36.9916  8498.42  90.8618
 37.0336  8540.66  91.4133
 37.0756  8473.56  90.8363
 37.1176  8389.08  90.6548
 37.1596  8369.46  90.5459
 37.2016  8280.63  90.3006
 37.2436  8367.31  90.0791
 37.2856  8329.46  90.1315
 37.3276  8435.89  90.0472
 37.3696  8232.33  89.842
 37.4116  8491.52  91.1594
 37.4536  8325.6  89.9698
 37.4956  8256.61  89.7956
 37.5376  8317.05  91.7081
 37.5796  8184.41  90.9341
 37.6216  8095.05  88.6946
 37.6636  8131.74  88.82
 37.7056  8125.92  88.9742
 37.7476  8322.81  89.5841
 37.7896  8229.84  89.5743
 37.8316  7963.15  88.2929
 37.8736  8273.48  89.4985
 37.9156  8217.24  89.2061
 37.9576  8294.63  89.5072
 37.9996  8133.09  88.3521
 38.0416  8077.13  88.8652
 38.0836  8216.26  89.5277
 38.1256  8162.21  89.1836
 38.1676  7951.63  88.1671
 38.2096  8198.94  89.1556
 38.2516  8149.19  89.0818
 38.2936  8180.53  89.0546
 38.3356  8251.85  89.3522
 38.3776  8074.52  88.6655
 38.4196  8163.58  88.9984
 38.4616  8246.63  89.6973
 38.5036  8223.65  89.4088
 38.5456  8071  89.408
 38.5876  8047.68  89.4807
 38.6296  8114.33  88.6307
 38.6716  8085.2  88.2769
 38.7136  8126.82  88.4452
 38.7556  7970.63  88.0959
 38.7976  7968.58  88.0221
 38.8396  8051.5  88.7285
 38.8816  7948.42  88.1346
 38.9236  8055.79  88.5478
 38.9656  8025.15  88.2917
 39.0076  8042.13  87.7892
 39.0496  8094.6  88.629
 39.0916  8045.57  87.9878
 39.1336  7940.44  87.8313
 39.1756  7906.3  87.7117
 39.2176  8012.33  88.823
 39.2596  8068.36  89.0625
 39.3016  7945.06  87.8778
 39.3436  7979.58  88.5688
 39.3856  8036.77  88.3312
 39.4276  8081.46  89.0844
 39.4696  8056.15  88.5592
 39.5116  7893.63  88.1828
 39.5536  8096.06  89.731
 39.5956  8042.46  88.5148
 39.6376  8040.84  88.5198
 39.6796  8131.45  88.7466
 39.7216  8089.6  88.6167
 39.7636  8090.72  89.2137
 39.8056  8040.82  88.7192
 39.8476  8054.22  89.039
 39.8896  8164.41  89.2788
 39.9316  7966.08  88.4291
 39.9736  8194.89  89.335
 40.0156  7955.63  87.7645
 40.0576  8077.91  88.7997
 40.0996  8220.35  88.7519
 40.1416  8032.29  88.532
 40.1836  8134.41  88.9858
 40.2256  8073.8  88.6934
 40.2676  8041.69  88.6269
 40.3096  8118.19  88.9715
 40.3516  8127.47  89.1278
 40.3936  8297.45  89.6071
 40.4356  8092.31  88.6809
 40.4776  8190.53  89.6414
 40.5196  8190.6  89.6817
 40.5616  8127.83  89.0725
 40.6036  8174.01  89.5783
 40.6456  8135.38  88.967
 40.6876  8204.47  89.3301
 40.7296  8195.52  89.3064
 40.7716  8154.39  89.3312
 40.8136  8008.08  88.4605
 40.8556  8185.91  89.5832
 40.8976  8164.78  89.3835
 40.9396  8001.6  88.8387
 40.9816  8098.2  88.6488
 41.0236  8241.12  89.2037
 41.0656  8060.72  88.7668
 41.1076  8192.51  89.2497
 41.1496  8193.87  89.1693
 41.1916  8087.36  88.9078
 41.2336  8062.4  88.7728
 41.2756  8032.36  88.2027
 41.3176  8028.74  88.8103
 41.3596  8071.03  88.7637
 41.4016  8027.78  88.7893
 41.4436  8131.84  89.1413
 41.4856  8122.43  89.2521
 41.5276  8025.99  88.7442
 41.5696  8077.73  88.6527
 41.6116  8050.2  88.9139
 41.6536  8122.47  89.1619
 41.6956  8053.47  88.8437
 41.7376  8079.8  89.0117
 41.7796  8067.77  88.8288
 41.8216  8130.78  89.412
 41.8636  8004.62  88.6487
 41.9056  8039.59  88.6262
 41.9476  8042.78  88.7747
 41.9896  8137.6  89.0751
 42.0316  8079.61  88.8363
 42.0736  8021.97  88.6387
 42.1156  7989.65  88.2906
 42.1576  8004.77  88.4432
 42.1996  8132.74  89.3174
 42.2416  8119.71  88.8201
 42.2836  8000.11  88.2845
 42.3256  7996  88.3778
 42.3676  8028.12  88.3648
 42.4096  7956.69  87.9192
 42.4516  7947.78  87.9719
 42.4936  7974.49  88.1807
 42.5356  7933.16  88.0773
 42.5776  8033.31  88.582
 42.6196  7977.25  88.3186
 42.6616  7738.77  87.1654
 42.7036  7904.1  87.47
 42.7456  8001.82  88.3775
 42.7876  7952.22  88.1953
 42.8296  8030.09  88.465
 42.8716  7948.79  88.1706
 42.9136  7960.88  88.0261
 42.9556  7985.82  88.2985
 42.9976  8111.78  88.9468
 43.0396  7877.76  87.3915
 43.0816  7891.4  87.8347
 43.1236  7905.45  87.9859
 43.1656  7890.28  87.7305
 43.2076  7891.4  87.8398
 43.2496  7872.11  87.5461
 43.2916  7877.3  87.9439
 43.3336  7932.51  88.0885
 43.3756  7840.21  87.3231
 43.4176  7722.38  86.7491
 43.4596  7779.8  86.9266
 43.5016  7828.6  87.607
 43.5436  7869.08  87.7337
 43.5856  7789.27  87.3106
 43.6276  7874.97  87.6848
 43.6696  7740.47  87.1929
 43.7116  7935.65  87.7743
 43.7536  7847.03  87.7775
 43.7956  7724.35  88.2752
 43.8376  7669.45  86.492
 43.8796  7859.42  87.6451
 43.9216  7730.81  86.8433
 43.9636  7697.45  86.7684
 44.0056  7702.35  87.0228
 44.0476  7713.46  86.7193
 44.0896  7630.56  86.5912
 44.1316  7624.36  86.075
 44.1736  7802.48  87.2049
 44.2156  7756.22  86.7932
 44.2576  7683.03  86.7123
 44.2996  7708.94  86.8272
 44.3416  7696.74  86.523
 44.3836  7503.85  85.7542
 44.4256  7603.01  85.9697
 44.4676  7541.3  85.7727
 44.5096  7591.55  86.1938
 44.5516  7630.67  86.3911
 44.5936  7607.22  86.2068
 44.6356  7731.45  86.644
 44.6776  7711.99  86.7759
 44.7196  7571.18  86.3742
 44.7616  7646.54  88.1368
 44.8036  7476.78  85.5983
 44.8456  7464.3  85.738
 44.8876  7549.56  86.0728
 44.9296  7690.56  86.3261
 44.9716  7518.64  85.7828
 45.0136  7513.11  85.6854
 45.0556  7591.58  86.1114
 45.0976  7464.38  85.5369
 45.1396  7512.32  85.586
 45.1816  7507.52  85.4758
 45.2236  7638.87  86.1303
 45.2656  7518.15  85.947
 45.3076  7430.9  85.2344
 45.3496  7475.43  85.7886
 45.3916  7447.19  85.8936
 45.4336  7475  85.9057
 45.4756  7373.2  85.1699
 45.5176  7477.67  85.3935
 45.5596  7562.9  85.997
 45.6016  7344.12  85.1603
 45.6436  7366.73  84.4669
 45.6856  7441.27  85.5614
 45.7276  7423.91  86.7645
 45.7696  7419.64  86.404
 45.8116  7488.81  86.2367
 45.8536  7384.37  85.5382
 45.8956  7440.98  85.2166
 45.9376  7412.63  84.5187
 45.9796  7409.67  85.1824
 46.0216  7492.77  86.0103
 46.0636  7525.7  85.3291
 46.1056  7368.87  84.4268
 46.1476  7397.39  85.1811
 46.1896  7354.72  85.0832
 46.2316  7424.35  85.3598
 46.2736  7364.35  85.3781
 46.3156  7374.43  85.0222
 46.3576  7371.39  85.2086
 46.3996  7357.12  85.2861
 46.4416  7383.66  85.0124
 46.4836  7291.2  84.8314
 46.5256  7347.91  85.0981
 46.5676  7294.06  84.9053
 46.6096  7410.42  85.5096
 46.6516  7554.22  85.3721
 46.6936  7386.55  84.911
 46.7356  7442.69  85.3411
 46.7776  7311.41  85.4225
 46.8196  7315.2  85.0408
 46.8616  7176.67  84.1797
 46.9036  7236.57  84.1763
 46.9456  7214.93  83.7027
 46.9876  7275.67  84.137
 47.0296  7230.22  84.5628
 47.0716  7243.61  84.4644
 47.1136  7357.32  84.8087
 47.1556  7261.07  84.1142
 47.1976  7359.46  84.7675
 47.2396  7124.87  83.783
 47.2816  7130.32  83.521
 47.3236  7261.61  84.6663
 47.3656  7213.23  84.3044
 47.4076  7235.49  84.2393
 47.4496  7170.7  83.9647
 47.4916  7154.08  84.0574
 47.5336  7186.44  84.0588
 47.5756  7202.69  84.262
 47.6176  7193.66  84.1147
 47.6596  7097.99  83.2658
 47.7016  7291.83  84.2223
 47.7436  7318.09  84.6968
 47.7856  7282.06  84.5223
 47.8276  7027.12  83.0816
 47.8696  7140.95  83.8416
 47.9116  7197.06  83.8757
 47.9536  7142.36  83.5028
 47.9956  7153.62  84.2751
 48.0376  7120.67  83.8451
 48.0796  7053.3  83.5873
 48.1216  7313.49  84.9198
 48.1636  7339.02  84.6554
 48.2056  7205.48  84.1401
 48.2476  7183.85  84.3287
 48.2896  7105.24  83.7673
 48.3316  7153.44  83.9931
 48.3736  6981.49  83.0013
 48.4156  7042.68  83.2161
 48.4576  7074.06  83.6937
 48.4996  7200.69  83.8895
 48.5416  7126.27  83.7919
 48.5836  7124.49  83.4514
 48.6256  7109.69  83.5754
 48.6676  7021.37  83.5497
 48.7096  7096.88  83.2855
 48.7516  7090.84  83.3945
 48.7936  6970.19  82.7374
 48.8356  7086.61  83.4805
 48.8776  7064.76  83.906
 48.9196  7126.74  83.6629
 48.9616  7085.1  83.7979
 49.0036  7016.17  83.7381
 49.0456  6963.37  83.3819
 49.0876  7011.27  83.2147
 49.1296  6854.85  82.4425
 49.1716  6856.55  82.3279
 49.2136  6986.11  83.0362
 49.2556  6996.77  83.2281
 49.2976  6987.69  83.1508
 49.3396  6941.48  82.9244
 49.3816  7082.27  83.1965
 49.4236  6995.84  83.0991
 49.4656  6964.64  82.8931
 49.5076  6940.5  82.5369
 49.5496  6972.11  82.7872
 49.5916  6945.87  82.5572
 49.6336  6974.16  82.928
 49.6756  6967.31  83.1229
 49.7176  6882.81  82.5489
 49.7596  6981.26  82.9143
 49.8016  6997.66  82.9201
 49.8436  6939.27  82.865
 49.8856  6838.61  82.2775
 49.9276  6865.16  82.526
 49.9696  6974.57  83.1709
 50.0116  6923.18  83.0023
 50.0536  6986.46  83.3236
 50.0956  6828.88  82.4493
 50.1376  6910.14  82.6426
 50.1796  6784.79  82.1518
 50.2216  6844.12  82.4995
 50.2636  6819.94  81.9753
 50.3056  6810  82.0843
 50.3476  6790.25  81.9947
 50.3896  6866.06  82.4197
 50.4316  6791.37  81.8112
 50.4736  6783.28  81.9786
 50.5156  6900.91  82.6784
 50.5576  6977.03  82.8909
 50.5996  6807.33  82.2756
 50.6416  6741.47  81.6877
 50.6836  6759.38  81.8555
 50.7256  6863.09  82.4083
 50.7676  6791.54  82.2873
 50.8096  6851.74  82.1897
 50.8516  6720.31  81.8107
 50.8936  6757.9  81.8193
 50.9356  6851.49  82.4938
 50.9776  6793.94  82.2972
 51.0196  6599.36  81.2236
 51.0616  6712.32  81.2427
 51.1036  6840.07  82.364
 51.1456  6798.56  82.0289
 51.1876  6767.77  81.1945
 51.2296  6704.63  81.5496
 51.2716  6776.13  81.5849
 51.3136  6716  81.6733
 51.3556  6670.09  81.0268
 51.3976  6652.09  81.0644
 51.4396  6647  81.3351
 51.4816  6673.97  81.3595
 51.5236  6751.93  81.9342
 51.5656  6689.63  81.141
 51.6076  6802.31  81.895
 51.6496  6686.46  81.3976
 51.6916  6653.96  81.542
 51.7336  6712.76  82.0033
 51.7756  6655.77  81.3525
 51.8176  6574.24  80.9586
 51.8596  6587.97  81.0525
 51.9016  6954.21  82.8789
 51.9436  6655.74  82.5388
 51.9856  6553.37  82.3487
 52.0276  6586.16  81.0754
 52.0696  6620.52  81.3554
 52.1116  6639.6  81.5791
 52.1536  6597.87  81.2208
 52.1956  6651.43  81.0096
 52.2376  6790.87  82.0308
 52.2796  6724.03  81.4242
 52.3216  6611.8  81.4393
 52.3636  6641.98  81.2075
 52.4056  6674  81.2475
 52.4476  6634.17  81.3838
 52.4896  6509.99  80.6694
 52.5316  6560.8  81.0325
 52.5736  6580.45  80.8736
 52.6156  6557.47  81.1078
 52.6576  6661.54  81.1821
 52.6996  6402.94  80.5552
 52.7416  6553.88  81.3557
 52.7836  6556.92  81.2596
 52.8256  6551.1  80.4567
 52.8676  6531.15  80.8999
 52.9096  6626.28  81.5797
 52.9516  6517.93  81.2687
 52.9936  6385.71  80.8223
 53.0356  6476.27  80.4005
 53.0776  6356.3  79.9092
 53.1196  6321.53  79.8176
 53.1616  6378.17  80.2204
 53.2036  6361.1  80.0661
 53.2456  6404.98  80.443
 53.2876  6353.11  79.8278
 53.3296  6390.88  80.3853
 53.3716  6397.93  80.1891
 53.4136  6387.95  80.2655
 53.4556  6309.42  79.8027
 53.4976  6316.73  79.6977
 53.5396  6332.99  80.1808
 53.5816  6441.77  80.5073
 53.6236  6337.14  80.1157
 53.6656  6447.55  80.5162
 53.7076  6373.02  80.0081
 53.7496  6389.89  80.2407
 53.7916  6465.89  80.8339
 53.8336  6393.6  80.2907
 53.8756  6344.09  80.5191
 53.9176  6424.86  80.3691
 53.9596  6405.26  81.0156
 54.0016  6330.92  79.8773
 54.0436  6381.41  80.4146
 54.0856  6403.25  79.9769
 54.1276  6332.65  79.7432
 54.1696  6370.94  80.1497
 54.2116  6335.81  79.6921
 54.2536  6367.02  79.6991
 54.2956  6477.43  80.3721
 54.3376  6326.31  79.9707
 54.3796  6357.01  80.0579
 54.4216  6385.1  80.287
 54.4636  6310.17  79.823
 54.5056  6440.42  80.4203
 54.5476  6354.24  80.2081
 54.5896  6421.23  80.4653
 54.6316  6370.95  80.0028
 54.6736  6370.41  80.0752
 54.7156  6355.79  80.0046
 54.7576  6328.94  79.8238
 54.7996  6405.26  80.4488
 54.8416  6348.57  80.0424
 54.8836  6262.77  79.7168
 54.9256  6360.58  80.0803
 54.9676  6466.47  80.6028
 55.0096  6301.73  79.6365
 55.0516  6355.28  80.2063
 55.0936  6286.64  79.3998
 55.1356  6384.38  80.0572
 55.1776  6265.05  79.5821
 55.2196  6306.16  79.6716
 55.2616  6332.73  80.0056
 55.3036  6209.22  79.3765
 55.3456  6290.41  80.0394
 55.3876  6353.08  80.1831
 55.4296  6301.15  79.8693
 55.4716  6311.77  79.9325
 55.5136  6321.22  79.7418
 55.5556  6263.89  79.4622
 55.5976  6313.02  79.8285
 55.6396  6208.06  79.1126
 55.6816  6317.81  79.679
 55.7236  6366.68  80.0344
 55.7656  6324.6  79.5172
 55.8076  6309.42  79.4059
 55.8496  6216.22  79.1379
 55.8916  6254.22  79.5802
 55.9336  6343.12  79.9673
 55.9756  6256.31  79.3046
 56.0176  6253  79.4374
 56.0596  6188.13  79.0051
 56.1016  6243.57  79.3719
 56.1436  6185.34  79.2583
 56.1856  6294.33  79.693
 56.2276  6250.41  79.4831
 56.2696  6141.71  78.7709
 56.3116  6235.59  79.7579
 56.3536  6282.67  79.711
 56.3956  6185.57  79.0849
 56.4376  6280.31  79.7145
 56.4796  6313.52  79.7273
 56.5216  6249.61  79.702
 56.5636  6304.22  79.6351
 56.6056  6221.62  79.3509
 56.6476  6261.6  79.2274
 56.6896  6268.89  79.7317
 56.7316  6250.18  79.5174
 56.7736  6307.21  79.87
 56.8156  6188.61  79.1113
 56.8576  6198.55  79.1161
 56.8996  6167.68  78.8639
 56.9416  6189.61  79.2964
 56.9836  6137.82  78.4914
 57.0256  6147.91  78.8673
 57.0676  6152.71  79.0305
 57.1096  6178.66  78.9787
 57.1516  6236.46  79.4117
 57.1936  6214.66  79.0187
 57.2356  6233.02  79.456
 57.2776  6309.4  79.8961
 57.3196  6210.89  79.4289
 57.3616  6218.88  79.1864
 57.4036  6244.27  79.4096
 57.4456  6171.18  78.9109
 57.4876  6272.56  79.4077
 57.5296  6156.26  79.0154
 57.5716  6130.76  78.8417
 57.6136  6219.31  79.2162
 57.6556  6232.67  79.4434
 57.6976  6289.3  79.532
 57.7396  6110.4  78.8643
 57.7816  6106.21  79.1948
 57.8236  6177.68  79.4492
 57.8656  6192.9  79.2019
 57.9076  6181.58  79.1627
 57.9496  6223.07  79.776
 57.9916  6135.34  78.7212
 58.0336  6161.39  79.1696
 58.0756  6252.65  79.3898
 58.1176  6239.56  79.2931
 58.1596  6125.08  79.1305
 58.2016  6219.64  78.9541
 58.2436  6311.71  79.9445
 58.2856  6290.96  79.7437
 58.3276  6150.37  79.2172
 58.3696  6127.15  78.8119
 58.4116  6220.93  79.282
 58.4536  6271.26  79.4813
 58.4956  6154.93  78.9261
 58.5376  6233.76  79.118
 58.5796  6143.18  78.8479
 58.6216  6202.54  79.0391
 58.6636  6277.57  79.738
 58.7056  6234.84  79.3165
 58.7476  6159.96  79.2883
 58.7896  6132.87  78.7557
 58.8316  6241.64  79.5556
 58.8736  6235.69  79.4098
 58.9156  6145.5  78.8799
 58.9576  6275.65  80.0457
 58.9996  6335.25  79.6427
 59.0416  6368.67  80.2289
 59.0836  6196.05  79.0577
 59.1256  6212.46  79.8752
 59.1676  6171.82  79.9245
 59.2096  6302.01  80.0705
 59.2516  6389.79  80.1953
 59.2936  6349.16  80.2763
 59.3356  6219.81  79.3303
 59.3776  6211.7  79.45
 59.4196  6204.5  79.3396
 59.4616  6222.43  79.3114
 59.5036  6236.02  79.4341
 59.5456  6356.5  79.883
 59.5876  6376.95  80.2078
 59.6296  6085.66  78.424
 59.6716  6277.19  79.7076
 59.7136  6407.54  80.5188
 59.7556  6233.57  79.5569
 59.7976  6185.61  78.9893
 59.8396  6216.32  79.0779
 59.8816  6255.07  79.8792
 59.9236  6208.03  79.2168
 59.9656  6224.28  79.5851
 60.0076  6176.28  78.6277
 60.0496  6187.7  79.2105
 60.0916  6295.79  79.3051
 60.1336  6202.76  79.8392
 60.1756  6201.72  81.0325
 60.1996  0.0000000E+00  0.0000000E+00