File: docs/examples/XRD/IS17_D/Data/IS17_D/17_Db_f00152.xye
# /beamlines/bl04/projects/cycle2025-II/20250340211-lsimonelli/DATA/IS17_D/17_Db_f00152.xye : mythproc.py merge -s 0.006 -l 0.5 -f /beamlines/bl04/inhouse/ff/FlatField/ff_20Nov2024rod8mm60s_17keV.raw -b True -c true -o xye /beamlines/bl04/projects/cycle2025-II/20250340211-lsimonelli/DATA/IS17_D/17_Db_00152.dat
# IsMon = [6764281, 6759994, 6761449]  IsPos = [-1.4999, -2.4883, -3.4988]
# Wave = 0.4962  CalPath /beamlines/bl04/projects/cycle2025-II/20250340211-lsimonelli/DATA/Align/Si_Pos1_25keV_f00001.cal
# Date = 2025-09-25_12:05:26 Dt = 4.8000  Bin = 0.0060  <imon> = 6761908 +/- 1780 (Min/Max) 6759994 / 6764281
# icurr 251.2962  mocoIn 1.7137E-05  mocoOut 0.8043  i15 7.08623e+06  imon 6.76191e+06  i7 3.0000  iEMpd_timer 4.8000  iEMpd_1 3.4841E-08  iEMpd_2 7.7931E-08  iEMpd_3 1.7970E-08  iEMpd_4 4.8438E-08  iEMhp_timer 4.8000  iEMhp_1 4.9081E-06  iEMhp_2 -2.4328E-08  iEMhp_3 -2.4283E-08  iEMhp_4 -2.0803E-08
#      9776
 1.5856  45173.7  218.208
 1.6276  51327.7  228.605
 1.6696  57039  240.139
 1.7116  64361.3  255.586
 1.7536  71988.5  269.154
 1.7956  75437  276.214
 1.8376  72412.1  271.049
 1.8796  63094.9  251.15
 1.9216  52296.1  229.56
 1.9636  45201  212.546
 2.0056  40838.1  201.245
 2.0476  37875  195.931
 2.0896  37314.6  193.336
 2.1316  36076.5  189.187
 2.1736  33957.2  185.003
 2.2156  34912.9  186.082
 2.2576  33549  183.066
 2.2996  32183.4  179.959
 2.3416  32531  179.482
 2.3836  32279.1  178.898
 2.4256  30873.2  175.529
 2.4676  30591.4  174.478
 2.5096  30246.2  173.548
 2.5516  28972.8  173.793
 2.5936  28916.7  170.134
 2.6356  28313.9  169.063
 2.6776  28439.4  168.316
 2.7196  28079.8  167.337
 2.7616  27840.8  166.818
 2.8036  27338.6  165.468
 2.8456  27452.4  166.461
 2.8876  26617.2  163.786
 2.9296  26375.7  163.165
 2.9716  26271.1  162.318
 3.0136  26067.3  161.758
 3.0556  26144.7  162.397
 3.0976  25972.7  160.732
 3.1396  25857.3  161.13
 3.1816  25590.2  159.932
 3.2236  25215.8  159.049
 3.2656  24951.1  157.262
 3.3076  24899.6  158.567
 3.3496  25127.8  158.212
 3.3916  25618.8  159.572
 3.4336  26092  161.628
 3.4756  26108.7  161.613
 3.5176  26890.1  163.778
 3.5596  26653.8  165.549
 3.6016  26815.7  163.629
 3.6436  25844.4  161.773
 3.6856  25540.9  159.094
 3.7276  24574  157.153
 3.7696  24403.4  156.794
 3.8116  24160.5  155.897
 3.8536  24170.3  155.857
 3.8956  24030.3  155.228
 3.9376  23917.1  155.131
 3.9796  23596.4  153.582
 4.0216  23739.6  153.077
 4.0636  23841.7  154.886
 4.1056  23682.7  154.023
 4.1476  24218.6  156.054
 4.1896  24058.6  155.405
 4.2316  24369.5  156.225
 4.2736  24652.2  156.935
 4.3156  24976.7  158.196
 4.3576  25750.5  160.528
 4.3996  25806.4  160.99
 4.4416  26460.1  162.587
 4.4836  26622.8  163.256
 4.5256  27420.8  166.284
 4.5676  27174.3  165.803
 4.6096  27797  166.32
 4.6516  28105.4  166.938
 4.6936  28252.2  168.22
 4.7356  28422.4  168.547
 4.7776  28260.6  167.898
 4.8196  28161.8  168.247
 4.8616  27570.6  165.97
 4.9036  27554.1  165.638
 4.9456  27185.4  165.193
 4.9876  26761.2  163.797
 5.0296  26978.6  164.299
 5.0716  26581  163.842
 5.1136  27060.6  165.031
 5.1556  27123.7  164.684
 5.1976  27723  166.469
 5.2396  27710.5  166.125
 5.2816  27816.9  166.914
 5.3236  27674.1  166.19
 5.3656  27533.7  166.71
 5.4076  27022.2  165.296
 5.4496  27012.4  164.764
 5.4916  27369.4  165.593
 5.5336  27067.4  164.691
 5.5756  27345.9  165.536
 5.6176  27296.4  164.83
 5.6596  27624  166.808
 5.7016  27652.3  166.156
 5.7436  28182.4  168.021
 5.7856  27626.5  166.426
 5.8276  28031.1  167.355
 5.8696  28324.6  168.398
 5.9116  28321.4  168.705
 5.9536  28628.1  169.638
 5.9956  28514.6  168.697
 6.0376  28611.8  169.611
 6.0796  29202.1  171.17
 6.1216  28858.6  170.418
 6.1636  29083.1  170.078
 6.2056  28901.7  170.238
 6.2476  29143  170.804
 6.2896  29570.3  171.731
 6.3316  29540.1  171.807
 6.3736  29419.2  171.355
 6.4156  29740.9  172.158
 6.4576  29542  171.219
 6.4996  29634.7  171.979
 6.5416  29750.8  172.429
 6.5836  29633  172.337
 6.6256  29839.6  172.485
 6.6676  30441.6  173.783
 6.7096  30242.7  174.064
 6.7516  30609.9  174.784
 6.7936  30749.1  174.576
 6.8356  30675.2  174.472
 6.8776  31076.3  176.425
 6.9196  31091.6  176.86
 6.9616  31711.6  178.058
 7.0036  32128.2  178.872
 7.0456  31853.7  177.396
 7.0876  32005.9  179.52
 7.1296  31848.9  178.2
 7.1716  32146  178.569
 7.2136  31786.7  177.349
 7.2556  31998.8  178.108
 7.2976  32044.2  178.721
 7.3396  31857.9  178.436
 7.3816  31873.5  178.688
 7.4236  32107.3  178.632
 7.4656  32233.9  178.442
 7.5076  32568.8  179.516
 7.5496  32233.2  179.126
 7.5916  32506.2  179.932
 7.6336  32752.2  180.5
 7.6756  32886.6  180.723
 7.7176  33527.5  182.794
 7.7596  33288.6  183.364
 7.8016  33965.5  187.479
 7.8436  33570.6  183.055
 7.8856  33598.7  182.737
 7.9276  34128.2  184.574
 7.9696  34607.2  186.174
 8.0116  35224.4  186.376
 8.0536  35582.3  187.572
 8.0956  35496.9  188.529
 8.1376  35682.4  188.489
 8.1796  36271.7  190.579
 8.2216  36632.9  190.269
 8.2636  37160.8  191.917
 8.3056  36794.4  191.703
 8.3476  37824.1  193.69
 8.3896  37306.9  192.436
 8.4316  37562.9  193.271
 8.4736  37777.6  193.292
 8.5156  37392.3  192.578
 8.5576  36650.7  192.242
 8.5996  36799.3  190.892
 8.6416  36950.8  192.547
 8.6836  36420.2  190.987
 8.7256  37446  193.109
 8.7676  37149  195.248
 8.8096  37260  192.811
 8.8516  37397.2  192.733
 8.8936  37069.6  191.843
 8.9356  37148.3  192.373
 8.9776  37104.9  192.344
 9.0196  37079.5  191.941
 9.0616  36988.8  191.211
 9.1036  36420.2  190.914
 9.1456  36156.2  189.56
 9.1876  36572.4  190.581
 9.2296  36368.7  189.487
 9.2716  36181.6  189.028
 9.3136  35839.6  188.135
 9.3556  36376.7  189.515
 9.3976  35230.3  187.018
 9.4396  35416  187.426
 9.4816  35221.1  186.754
 9.5236  34712.3  185.299
 9.5656  34652.8  185.504
 9.6076  33980.3  184.23
 9.6496  34276.8  184.904
 9.6916  33605.1  183.052
 9.7336  34263.8  184.602
 9.7756  33772.9  184.574
 9.8176  33646.7  183.718
 9.8596  33594.7  182.008
 9.9016  33098.1  180.654
 9.9436  32958.9  180.186
 9.9856  32491.8  179.176
 10.0276  31882  178.543
 10.0696  32665.2  179.764
 10.1116  31546.9  176.929
 10.1536  31325.1  176.442
 10.1956  30943.9  174.998
 10.2376  31246.4  175.342
 10.2796  30719.6  173.976
 10.3216  30404.3  173.371
 10.3636  30380.6  173.333
 10.4056  29685.6  171.755
 10.4476  29923.8  172.038
 10.4896  29760.4  171.169
 10.5316  29415.4  170.74
 10.5736  29434.1  171.217
 10.6156  29264.9  170.469
 10.6576  29283  169.078
 10.6996  28993.9  168.957
 10.7416  28622.6  168.085
 10.7836  28219.8  167.581
 10.8256  27758.4  166.624
 10.8676  27864.9  166.49
 10.9096  27781.8  166.267
 10.9516  27613  164.701
 10.9936  27567.9  164.776
 11.0356  27293.3  164.563
 11.0776  27241.9  163.74
 11.1196  26758  163.047
 11.1616  26324.9  161.402
 11.2036  26685.3  162.346
 11.2456  26430.2  162.285
 11.2876  26947  163.565
 11.3296  26428.6  161.909
 11.3716  26835.6  162.832
 11.4136  26854.1  163.789
 11.4556  26660.3  162.854
 11.4976  27233.9  163.57
 11.5396  27416.8  164.302
 11.5816  27401.2  164.7
 11.6236  26668.2  162.718
 11.6656  26711.7  161.977
 11.7076  25680.8  159.656
 11.7496  25230.3  162.263
 11.7916  25424.8  158.116
 11.8336  25039.7  157.807
 11.8756  24862.4  156.796
 11.9176  24750.2  156.119
 11.9596  25053.8  157.235
 12.0016  24637.4  156.434
 12.0436  24879.5  156.902
 12.0856  24284.2  155.526
 12.1276  24254.8  155.386
 12.1696  24445.1  155.106
 12.2116  24370.2  154.871
 12.2536  24222.9  155.217
 12.2956  24072.8  154.088
 12.3376  24353.3  155.176
 12.3796  24194.8  155.159
 12.4216  24348  154.848
 12.4636  23937.8  154.466
 12.5056  24015.7  153.98
 12.5476  24374.3  154.636
 12.5896  24106.6  154.441
 12.6316  24150.4  154.719
 12.6736  23818.4  154.334
 12.7156  24116.4  154.934
 12.7576  24026.5  154.913
 12.7996  24104.5  153.8
 12.8416  23869.5  154.108
 12.8836  24084.3  154.542
 12.9256  24495.7  154.958
 12.9676  24514.3  155.437
 13.0096  24605.8  156.833
 13.0516  24588.3  155.812
 13.0936  24964.6  157.408
 13.1356  24869.7  156.073
 13.1776  24668  156.46
 13.2196  24532.2  155.67
 13.2616  24557.6  156.074
 13.3036  24901  157.115
 13.3456  24410.9  155.923
 13.3876  24791.5  156.397
 13.4296  24500.9  155.647
 13.4716  24741.1  156.028
 13.5136  24723.8  156.103
 13.5556  24741.7  156.8
 13.5976  24789.1  157.118
 13.6396  24714.2  156.241
 13.6816  24695  156.643
 13.7236  25092.6  157.493
 13.7656  26545.8  162.433
 13.8076  27467.9  163.86
 13.8496  26939.5  162.928
 13.8916  25193.9  158.737
 13.9336  24333.6  155.293
 13.9756  24410.5  154.894
 14.0176  23921.7  154.027
 14.0596  24115.4  154.583
 14.1016  23928.6  154.402
 14.1436  24026.3  153.834
 14.1856  23407.8  152.142
 14.2276  23411  152.629
 14.2696  23443.5  152.588
 14.3116  22837.6  150.523
 14.3536  22672.2  150.136
 14.3956  22591.1  149.596
 14.4376  22870.2  150.294
 14.4796  22731.6  149.837
 14.5216  22325.4  149.282
 14.5636  22243.1  148.577
 14.6056  22444.5  148.8
 14.6476  22299.2  147.56
 14.6896  21835.2  146.561
 14.7316  21554.2  146.659
 14.7736  21472.9  145.518
 14.8156  21309  144.978
 14.8576  21329.5  144.912
 14.8996  20823.7  144.38
 14.9416  20469  143.161
 14.9836  20477.5  143.175
 15.0256  19824.8  139.804
 15.0676  19813.2  140.199
 15.1096  19695.5  139.391
 15.1516  19518.9  139.329
 15.1936  19369.4  138.222
 15.2356  19301.5  138.133
 15.2776  19211.6  137.525
 15.3196  18705.7  136.688
 15.3616  18622.2  136.14
 15.4036  18610.8  135.967
 15.4456  18887.8  136.617
 15.4876  18495  134.877
 15.5296  18434.3  134.943
 15.5716  18106  133.34
 15.6136  18139.2  133.791
 15.6556  17994.9  132.501
 15.6976  17952.6  132.642
 15.7396  17922.8  132.91
 15.7816  17879.9  132.271
 15.8236  17385.7  131.11
 15.8656  17619.9  131.788
 15.9076  17254.2  130.237
 15.9496  18012.6  135.88
 15.9916  17719.1  135.154
 16.0336  17912.8  132.732
 16.0756  17773.5  132.559
 16.1176  17462.6  131.467
 16.1596  17167.2  131.536
 16.2016  17218.2  130.488
 16.2436  17040.5  130.187
 16.2856  17079.8  129.826
 16.3276  16754.6  129.044
 16.3696  17071.6  130.087
 16.4116  16805.8  129.512
 16.4536  16728.1  129.027
 16.4956  16942.9  129.576
 16.5376  16637.6  128.593
 16.5796  16665.1  128.069
 16.6216  16590  128.045
 16.6636  16444.3  127.678
 16.7056  16501.7  127.756
 16.7476  16756.9  128.263
 16.7896  16628.6  128.525
 16.8316  16591.2  128.36
 16.8736  16747.5  129.212
 16.9156  16672  129.261
 16.9576  16421.4  129.087
 16.9996  16517.4  129.935
 17.0416  16589.1  128.597
 17.0836  16604.6  128.405
 17.1256  16316.4  127.298
 17.1676  16239.2  126.943
 17.2096  16137.6  126.446
 17.2516  16255.7  126.704
 17.2936  16185.9  126.782
 17.3356  15957  125.857
 17.3776  15646.7  124.825
 17.4196  15845.3  125.32
 17.4616  15742.5  124.815
 17.5036  15297.7  123.41
 17.5456  15463.2  124.69
 17.5876  15411.9  123.538
 17.6296  15426.5  123.432
 17.6716  15387.1  123.854
 17.7136  15346.7  123.816
 17.7556  15289.2  123.889
 17.7976  15284.1  123.575
 17.8396  15268.1  123.026
 17.8816  15044.2  122.697
 17.9236  15002.6  122.311
 17.9656  14888.3  122.383
 18.0076  14904.5  122.019
 18.0496  14865.1  120.995
 18.0916  14943.6  121.867
 18.1336  14860.2  121.627
 18.1756  15031.3  121.872
 18.2176  14813.6  121.2
 18.2596  14658  120.286
 18.3016  14852  121.34
 18.3436  14770.3  121.021
 18.3856  14753.1  121.07
 18.4276  14607.2  120.163
 18.4696  14606.3  120.236
 18.5116  14578.7  120.397
 18.5536  14645.8  121.051
 18.5956  14414.8  119.649
 18.6376  14359.5  119.827
 18.6796  14500.2  119.717
 18.7216  14342.9  119.565
 18.7636  14507.3  120.24
 18.8056  14323.5  119.402
 18.8476  14034  118.816
 18.8896  14331.3  119.391
 18.9316  14396.8  119.653
 18.9736  14374.9  119.261
 19.0156  14258.8  119.206
 19.0576  14370  118.479
 19.0996  14201.5  118.664
 19.1416  14281.3  119.243
 19.1836  14245  118.706
 19.2256  14085.7  118.258
 19.2676  14314.4  119.296
 19.3096  14069.1  118.526
 19.3516  14122.3  118.705
 19.3936  14024.2  118.179
 19.4356  14353.3  119.439
 19.4776  14046  118.249
 19.5196  14180.6  118.664
 19.5616  13961.6  118.006
 19.6036  13965.6  117.521
 19.6456  14049.7  117.98
 19.6876  14033.9  117.559
 19.7296  14099.2  118.283
 19.7716  13942.9  117.815
 19.8136  14315.5  119.567
 19.8556  14360.8  119.235
 19.8976  14367.8  119.327
 19.9396  14413.8  119.099
 19.9816  14372.5  119.253
 20.0236  14818.3  121.195
 20.0656  14849.4  121.353
 20.1076  14789.7  121.58
 20.1496  14437.5  120.116
 20.1916  14407.9  119.503
 20.2336  14165.5  118.428
 20.2756  13808.3  117.362
 20.3176  13799  117.064
 20.3596  13538.6  115.947
 20.4016  13629.6  116.122
 20.4436  13589.2  116.52
 20.4856  13544.4  116.111
 20.5276  13416.9  116.033
 20.5696  13677.6  116.581
 20.6116  13460.4  115.95
 20.6536  13293.4  114.74
 20.6956  13339.1  115.065
 20.7376  13175  114.577
 20.7796  13232.4  114.51
 20.8216  13443.1  115.127
 20.8636  13351.1  115.103
 20.9056  13284.4  114.767
 20.9476  13150.1  114.008
 20.9896  13327.7  114.653
 21.0316  13268.9  114.306
 21.0736  13202.5  114.541
 21.1156  13082.7  114.178
 21.1576  13150  114.516
 21.1996  12975  113.734
 21.2416  13144.6  114.29
 21.2836  13092.3  114.041
 21.3256  13155.6  114.39
 21.3676  13104.9  113.71
 21.4096  13057.6  113.826
 21.4516  12950.2  113.238
 21.4936  12645.4  112.154
 21.5356  13035.4  113.813
 21.5776  13071.1  113.801
 21.6196  12874.4  112.984
 21.6616  12768.2  112.6
 21.7036  12857  112.741
 21.7456  12986.2  113.401
 21.7876  12738  112.078
 21.8296  12749.2  111.967
 21.8716  12853.8  112.657
 21.9136  13043.3  113.691
 21.9556  12841.6  112.478
 21.9976  12654  111.687
 22.0396  12817.2  112.659
 22.0816  12718.8  112.76
 22.1236  12851.8  112.801
 22.1656  12721.6  112.372
 22.2076  12589  111.252
 22.2496  12472.3  110.765
 22.2916  12537.5  110.935
 22.3336  12444.8  111.245
 22.3756  12464.8  111.055
 22.4176  12382.2  110.54
 22.4596  12275.9  110.649
 22.5016  12327.5  110.387
 22.5436  12518.6  111.117
 22.5856  12645.9  111.926
 22.6276  12510.4  111.496
 22.6696  12606.6  112.247
 22.7116  12497.9  111.273
 22.7536  12513  111.314
 22.7956  12578.7  110.939
 22.8376  12284.2  110.145
 22.8796  12261.4  109.849
 22.9216  12458.9  111.272
 22.9636  12324.6  109.829
 23.0056  12236  109.57
 23.0476  12329.3  110.554
 23.0896  12723.4  111.679
 23.1316  12665.4  111.861
 23.1736  12663.6  114.593
 23.2156  12651  112.115
 23.2576  13166.4  114.496
 23.2996  12612.6  111.844
 23.3416  12843.1  113.391
 23.3836  12868.4  112.729
 23.4256  12938.6  113.147
 23.4676  12767.7  112.102
 23.5096  12624.6  112.123
 23.5516  12626.7  111.435
 23.5936  12675.4  112.563
 23.6356  12897.6  113.21
 23.6776  12677.6  112.457
 23.7196  12493.7  111.203
 23.7616  12530.4  111.295
 23.8036  12925.9  113.082
 23.8456  12467.5  110.627
 23.8876  12650.6  111.78
 23.9296  12429.3  111.293
 23.9716  12465.2  110.655
 24.0136  12500.7  111.721
 24.0556  12354.3  110.775
 24.0976  12401.5  110.809
 24.1396  12204.7  112.554
 24.1816  12432.2  111.998
 24.2236  12495.1  111.895
 24.2656  12347.3  110.702
 24.3076  12234.7  110.472
 24.3496  12102.7  109.752
 24.3916  12221.3  110.342
 24.4336  12177.8  110.347
 24.4756  12147.4  110.096
 24.5176  11984.7  108.966
 24.5596  11899.7  108.723
 24.6016  11953.6  109.262
 24.6436  11850.9  108.292
 24.6856  11993.5  108.682
 24.7276  11776  108.03
 24.7696  11740.9  107.965
 24.8116  11610.1  107.543
 24.8536  11734.6  108.126
 24.8956  11751.7  107.929
 24.9376  11601.3  107.161
 24.9796  11409.4  106.645
 25.0216  11522.6  107.276
 25.0636  11651.2  107.533
 25.1056  11333  106.757
 25.1476  11397.9  108.697
 25.1896  11383.8  107.14
 25.2316  11304.4  106.034
 25.2736  11255  105.457
 25.3156  11299.7  105.735
 25.3576  11260.1  105.989
 25.3996  11318.5  106.249
 25.4416  11193.1  105.634
 25.4836  10911.6  104.814
 25.5256  11153.9  105.329
 25.5676  11169.2  105.141
 25.6096  11048.4  105.139
 25.6516  11111.3  104.939
 25.6936  11170.3  105.532
 25.7356  10984.7  104.78
 25.7776  11196  105.376
 25.8196  10952.6  104.478
 25.8616  10918.3  104.244
 25.9036  11050.4  104.323
 25.9456  11024.8  104.814
 25.9876  11022.1  104.859
 26.0296  11019.5  104.359
 26.0716  11027.3  104.816
 26.1136  10997.7  104.612
 26.1556  11007.1  104.037
 26.1976  10905.6  104.491
 26.2396  10977.4  103.976
 26.2816  10978  104.599
 26.3236  10968.8  104.717
 26.3656  11097.3  105.036
 26.4076  10920.4  104.385
 26.4496  11182.5  105.24
 26.4916  11243.3  105.43
 26.5336  11359.9  106.306
 26.5756  11646.1  107.522
 26.6176  11045.7  104.707
 26.6596  10947.7  104.57
 26.7016  10872  103.975
 26.7436  10897.2  104.214
 26.7856  10689.2  103.217
 26.8276  10696.6  103.219
 26.8696  10784.3  103.502
 26.9116  10673  102.906
 26.9536  10547.5  102.354
 26.9956  10492.3  102.123
 27.0376  10588.6  102.804
 27.0796  10611.1  102.648
 27.1216  10631.5  102.789
 27.1636  10459.2  102.137
 27.2056  10495.1  102.19
 27.2476  10531.5  102.357
 27.2896  10460.2  102.163
 27.3316  10451.1  101.795
 27.3736  10387.8  101.775
 27.4156  10456.8  101.937
 27.4576  10385.8  101.809
 27.4996  10498.6  101.968
 27.5416  10282.6  101.226
 27.5836  10293.9  101.116
 27.6256  10502.4  102.317
 27.6676  10218.2  100.914
 27.7096  10408.4  101.732
 27.7516  10271.3  101.21
 27.7936  10615.7  103.023
 27.8356  10512.9  102.135
 27.8776  10511.1  102.195
 27.9196  10232.3  100.691
 27.9616  10437.8  101.898
 28.0036  10253.3  100.953
 28.0456  10139.1  100.539
 28.0876  10195.7  100.896
 28.1296  10068.2  100.041
 28.1716  10168.5  100.611
 28.2136  10089.3  100.192
 28.2556  10123.4  100.467
 28.2976  9976.04  99.7305
 28.3396  10089.1  100.054
 28.3816  10063.4  99.9369
 28.4236  9992.12  99.74
 28.4656  9970.85  99.6697
 28.5076  9890.75  98.9055
 28.5496  9999.2  99.6987
 28.5916  9953.28  99.2963
 28.6336  9916.1  99.4442
 28.6756  9906.56  98.5909
 28.7176  9839.85  98.7092
 28.7596  9821.21  98.6223
 28.8016  9890.83  99.0088
 28.8436  9741.61  98.4961
 28.8856  9810.54  98.7433
 28.9276  9803.94  98.9084
 28.9696  9754.7  98.3163
 29.0116  9762.79  98.5476
 29.0536  9694.38  98.4049
 29.0956  9759.89  98.4264
 29.1376  9783.45  98.5214
 29.1796  9794.2  98.625
 29.2216  9823.49  98.6175
 29.2636  9890.92  99.0288
 29.3056  9883.71  98.7663
 29.3476  9784.94  98.8066
 29.3896  9679.74  98.3929
 29.4316  9588.32  97.2693
 29.4736  9498.84  96.8757
 29.5156  9566.89  97.1412
 29.5576  9540.06  97.7459
 29.5996  9580.98  97.2153
 29.6416  9422.38  96.5229
 29.6836  9558.34  97.1457
 29.7256  9502.85  97.1928
 29.7676  9442.29  96.7764
 29.8096  9444.36  96.733
 29.8516  9301.12  96.3227
 29.8936  9447.76  97.174
 29.9356  9519.49  97.2977
 29.9776  9336.09  96.5052
 30.0196  9258.09  95.769
 30.0616  9409.93  96.6528
 30.1036  9376.39  96.3062
 30.1456  9246.24  95.8618
 30.1876  9387.96  96.5793
 30.2296  9225.03  95.6827
 30.2716  9517.46  96.8258
 30.3136  9465.04  97.4156
 30.3556  9604.08  98.1202
 30.3976  9485.03  98.9854
 30.4396  9823.49  98.0662
 30.4816  9535.18  96.2255
 30.5236  9709.96  97.1024
 30.5656  9620.76  97.3191
 30.6076  9593.72  96.583
 30.6496  9554.68  96.8087
 30.6916  9451.82  96.3718
 30.7336  9563.56  97.0861
 30.7756  9434.99  96.5253
 30.8176  9609.62  97.3236
 30.8596  9616.95  97.1197
 30.9016  9578.34  97.2933
 30.9436  9597.62  97.1268
 30.9856  9698.61  97.7413
 31.0276  9411.6  95.9239
 31.0696  9444  96.6466
 31.1116  9547.62  97.149
 31.1536  9368.39  96.1047
 31.1956  9361.8  96.1629
 31.2376  9205.12  95.3868
 31.2796  9299.52  95.4148
 31.3216  9622.48  96.9534
 31.3636  9444.02  96.7907
 31.4056  9342.9  97.5936
 31.4476  9362.35  95.5753
 31.4896  9428.68  96.4228
 31.5316  9399.83  95.6807
 31.5736  9494.4  95.9864
 31.6156  9448.63  95.7507
 31.6576  9453.11  95.8592
 31.6996  9617.66  96.3535
 31.7416  9374.11  96.2213
 31.7836  9302.26  94.8454
 31.8256  9487.19  96.0486
 31.8676  9549.38  96.3614
 31.9096  9260.63  95.2693
 31.9516  9200.43  95.1282
 31.9936  9201.41  94.9453
 32.0356  9203.72  95
 32.0776  9325.09  95.5296
 32.1196  9420.67  96.1278
 32.1616  9440.07  95.6711
 32.2036  9273.83  95.3344
 32.2456  9274.19  95.7247
 32.2876  9405.01  95.8828
 32.3296  9189.73  94.738
 32.3716  8995.29  93.8581
 32.4136  9044.21  94.31
 32.4556  9054.27  93.7469
 32.4976  9056.6  93.6745
 32.5396  9160.92  94.2757
 32.5816  9113.26  94.1473
 32.6236  9107.31  94.18
 32.6656  9310.69  95.7745
 32.7076  9009.41  93.8764
 32.7496  8957.61  93.282
 32.7916  9098.14  93.9707
 32.8336  9051.64  93.8219
 32.8756  9085.59  93.7154
 32.9176  9077.1  94.1618
 32.9596  8886.53  93.2363
 33.0016  9019.47  93.6878
 33.0436  9011.85  93.8469
 33.0856  8959.08  93.6619
 33.1276  8858.6  92.8677
 33.1696  9057.42  93.7385
 33.2116  8998.15  93.6607
 33.2536  9028.36  93.8051
 33.2956  9002.77  93.7602
 33.3376  8931.87  93.1182
 33.3796  9056.19  93.9932
 33.4216  8868.26  92.6046
 33.4636  8975.49  93.3227
 33.5056  8876.35  93.0533
 33.5476  8911.36  93.1984
 33.5896  8858.86  92.7334
 33.6316  8866.65  93.0764
 33.6736  8783.45  92.8913
 33.7156  8783.51  92.9168
 33.7576  8939.61  93.3773
 33.7996  8854.43  92.6972
 33.8416  8763.86  92.406
 33.8836  8771  92.2236
 33.9256  8894.55  92.9142
 33.9676  8909.01  92.8903
 34.0096  8669.55  91.9482
 34.0516  8719.28  91.8499
 34.0936  8680.39  91.9184
 34.1356  8857.86  92.5888
 34.1776  8632.36  91.4081
 34.2196  8709.53  91.9926
 34.2616  8595.92  91.536
 34.3036  8835.39  93.0413
 34.3456  8743.07  92.308
 34.3876  8779.82  92.4704
 34.4296  8566.58  91.039
 34.4716  8749.15  92.1545
 34.5136  8741.21  92.3084
 34.5556  8576.4  91.696
 34.5976  8684.07  92.0713
 34.6396  8633.85  91.6438
 34.6816  8686.7  91.8898
 34.7236  8769.86  92.1209
 34.7656  8758.21  92.2647
 34.8076  8610.64  91.82
 34.8496  8482.98  91.0553
 34.8916  8567.55  91.2987
 34.9336  8667.77  91.8202
 34.9756  8537.68  91.0444
 35.0176  8609.78  91.9526
 35.0596  8681.95  92.1549
 35.1016  8665.23  91.8207
 35.1436  8742.67  91.922
 35.1856  8721.82  91.9362
 35.2276  8630.32  91.6371
 35.2696  8625.49  91.8008
 35.3116  8505.9  91.2628
 35.3536  8509.16  90.9668
 35.3956  8403.25  90.1308
 35.4376  8628.43  91.8973
 35.4796  8533.97  91.4291
 35.5216  8465.87  91.0292
 35.5636  8373.95  91.2732
 35.6056  8491.12  90.9282
 35.6476  8518.15  90.973
 35.6896  8475.7  90.8469
 35.7316  8420.56  90.5139
 35.7736  8557.09  91.4331
 35.8156  8533.44  91.3027
 35.8576  8590.71  91.8652
 35.8996  8582.99  91.7955
 35.9416  8469.52  90.6742
 35.9836  8500.43  91.1941
 36.0256  8650.86  92.0107
 36.0676  8647.68  91.7555
 36.1096  8530.14  91.276
 36.1516  8611.4  91.6046
 36.1936  8558.26  91.1358
 36.2356  8463.93  91.3096
 36.2776  8372.42  90.297
 36.3196  8486.2  90.5713
 36.3616  8425.55  90.3775
 36.4036  8432.34  90.4803
 36.4456  8455.22  90.8129
 36.4876  8259.81  89.6936
 36.5296  8404.96  90.5204
 36.5716  8313.93  90.8036
 36.6136  8177.28  88.8599
 36.6556  8296.23  89.7045
 36.6976  8122.36  89.249
 36.7396  8124.64  89.1692
 36.7816  8149.35  89.5047
 36.8236  8179.83  89.5934
 36.8656  8013.86  88.751
 36.9076  8061.79  88.8986
 36.9496  8017.01  88.6362
 36.9916  8216.93  89.3571
 37.0336  8179.37  89.475
 37.0756  8226.03  89.5213
 37.1176  8004.6  88.5758
 37.1596  8054.54  88.8583
 37.2016  7930.37  88.3925
 37.2436  8158.62  88.9734
 37.2856  8086.84  88.837
 37.3276  8177.83  88.6857
 37.3696  8044.31  88.8386
 37.4116  8061.18  88.8368
 37.4536  8042.04  88.4493
 37.4956  7844.22  87.5464
 37.5376  8139.54  90.7611
 37.5796  8146.74  90.7282
 37.6216  7991.43  88.1314
 37.6636  8349.73  89.9608
 37.7056  8191.96  89.3099
 37.7476  8314.26  89.5063
 37.7896  8097.79  88.8513
 37.8316  8093.92  88.9709
 37.8736  8133.2  88.7299
 37.9156  8175.23  88.9334
 37.9576  8076.5  88.3191
 37.9996  8156.59  88.4654
 38.0416  8109.96  89.0177
 38.0836  8211.66  89.4765
 38.1256  8179.43  89.2786
 38.1676  7963.83  88.2149
 38.2096  8179.2  88.9923
 38.2516  8105.43  88.8259
 38.2936  8220.26  89.2466
 38.3356  8143.7  88.7632
 38.3776  8016.24  88.308
 38.4196  8002.66  88.1019
 38.4616  8108.37  88.9254
 38.5036  8305.05  89.8296
 38.5456  7974.25  88.8616
 38.5876  8006.43  89.2225
 38.6296  8096.24  88.5205
 38.6716  8123.27  88.4784
 38.7136  7959.51  87.5173
 38.7556  7992.05  88.2022
 38.7976  8016.65  88.2795
 38.8396  7974.64  88.316
 38.8816  8003.1  88.4524
 38.9236  8036.84  88.438
 38.9656  8036.68  88.3381
 39.0076  8131.03  88.2502
 39.0496  8054.56  88.3955
 39.0916  8071.07  88.1335
 39.1336  8035.66  88.3458
 39.1756  8049.62  88.4909
 39.2176  8052.49  89.0526
 39.2596  8061.83  89.0143
 39.3016  7929.36  87.8019
 39.3436  8021.5  88.7962
 39.3856  8079.05  88.5496
 39.4276  8122.26  89.297
 39.4696  8055.74  88.554
 39.5116  8073.63  89.158
 39.5536  8092.4  89.6866
 39.5956  7973.74  88.1473
 39.6376  7901.81  87.7509
 39.6796  7990.4  87.9838
 39.7216  7956.88  87.8951
 39.7636  7994.05  88.6624
 39.8056  7999.12  88.4782
 39.8476  7965.39  88.5409
 39.8896  7968.66  88.1842
 39.9316  7890.46  88.0098
 39.9736  8038.25  88.4828
 40.0156  7994.24  87.9864
 40.0576  7948.94  88.0923
 40.0996  7982.78  87.4648
 40.1416  7888.04  87.7427
 40.1836  7998.73  88.2315
 40.2256  7932.88  87.905
 40.2676  7978.56  88.2465
 40.3096  7957.37  88.078
 40.3516  8036.6  88.6288
 40.3936  8105.97  88.5542
 40.4356  7921.3  87.7553
 40.4776  7963.63  88.3826
 40.5196  8080.5  89.0881
 40.5616  8129.3  89.0627
 40.6036  7879.68  87.9458
 40.6456  7952.02  87.961
 40.6876  8151  89.0403
 40.7296  8040.94  88.4563
 40.7716  7989.42  88.4053
 40.8136  7888.61  87.8015
 40.8556  8143.23  89.3315
 40.8976  7989.66  88.4174
 40.9396  7994.9  88.7871
 40.9816  8106.33  88.6921
 41.0236  7983.77  87.8019
 41.0656  8127.32  89.1256
 41.1076  8028.01  88.3572
 41.1496  8125.28  88.7906
 41.1916  8035.13  88.6162
 41.2336  8050.05  88.697
 41.2756  7922.96  87.5994
 41.3176  7961.32  88.4216
 41.3596  8079.24  88.812
 41.4016  7911.69  88.1394
 41.4436  7992.52  88.3723
 41.4856  8013.99  88.6632
 41.5276  8029.43  88.7614
 41.5696  7983.23  88.1421
 41.6116  8075.39  89.0279
 41.6536  7950.23  88.197
 41.6956  8146.47  89.3439
 41.7376  7864.88  87.8116
 41.7796  7788.9  87.269
 41.8216  7982.12  88.5796
 41.8636  8007.41  88.6704
 41.9056  7882.49  87.7575
 41.9476  7928.75  88.1524
 41.9896  8025.34  88.4467
 42.0316  7950.02  88.125
 42.0736  8097.59  89.0374
 42.1156  7955.41  88.0924
 42.1576  7943.33  88.1106
 42.1996  8112.75  89.183
 42.2416  7976.76  88.031
 42.2836  7855.63  87.4833
 42.3256  7973.92  88.2367
 42.3676  8066.93  88.5488
 42.4096  8023.85  88.2947
 42.4516  8012.03  88.2917
 42.4936  7820.59  87.3215
 42.5356  7867.81  87.7297
 42.5776  7995.95  88.3747
 42.6196  7892.06  87.8507
 42.6616  7778.42  87.3886
 42.7036  7875.57  87.3101
 42.7456  8009.78  88.402
 42.7876  7924.08  88.0275
 42.8296  7854.19  87.4766
 42.8716  7771.24  87.1699
 42.9136  7859.36  87.4606
 42.9556  7869.79  87.6506
 42.9976  7964.69  88.1417
 43.0396  7886.17  87.439
 43.0816  7832.31  87.5225
 43.1236  7822.43  87.5079
 43.1656  7819.25  87.317
 43.2076  7815.57  87.4144
 43.2496  7913.03  87.7747
 43.2916  7817.3  87.6001
 43.3336  7857.12  87.6591
 43.3756  7877.67  87.5275
 43.4176  7767.03  86.9974
 43.4596  7785.6  86.9575
 43.5016  7941.01  88.2249
 43.5436  7812.82  87.4198
 43.5856  7707.62  86.8566
 43.6276  7784.51  87.1695
 43.6696  7739.98  87.1807
 43.7116  7806.95  87.0484
 43.7536  7906.88  88.1119
 43.7956  7738.77  88.3897
 43.8376  7693.92  86.6612
 43.8796  7583.21  86.1137
 43.9216  7664.19  86.4923
 43.9636  7726.43  86.9511
 44.0056  7694.56  87.0002
 44.0476  7686.25  86.5832
 44.0896  7434.76  85.496
 44.1316  7677.21  86.3903
 44.1736  7515.15  85.6096
 44.2156  7672.96  86.3562
 44.2576  7731.32  87.0088
 44.2996  7661.06  86.5876
 44.3416  7570.49  85.8308
 44.3836  7503.27  85.7748
 44.4256  7441.39  85.0667
 44.4676  7543.27  85.8068
 44.5096  7584.61  86.1862
 44.5516  7548.32  85.9443
 44.5936  7445.95  85.3104
 44.6356  7530.01  85.5284
 44.6776  7634.58  86.3604
 44.7196  7544.68  86.2401
 44.7616  7646.22  88.1462
 44.8036  7628.32  86.4526
 44.8456  7652.36  86.7931
 44.8876  7714.49  86.9868
 44.9296  7838.34  87.123
 44.9716  7721.62  86.8947
 45.0136  7761.66  87.0681
 45.0556  7760.64  87.0353
 45.0976  7609.93  86.354
 45.1396  7553.81  85.7674
 45.1816  7541.84  85.6574
 45.2236  7708.72  86.5025
 45.2656  7614.18  86.4736
 45.3076  7645.15  86.427
 45.3496  7621.62  86.6134
 45.3916  7555.45  86.4989
 45.4336  7724.5  87.2968
 45.4756  7611.56  86.5154
 45.5176  7764.03  86.9845
 45.5596  7761.32  87.099
 45.6016  7471.44  85.8752
 45.6436  7623.51  85.8991
 45.6856  7604.33  86.4677
 45.7276  7448.67  86.9066
 45.7696  7442.59  86.5361
 45.8116  7638.95  87.1006
 45.8536  7521.77  86.3109
 45.8956  7642.26  86.3523
 45.9376  7663.31  85.9314
 45.9796  7544.23  85.9466
 46.0216  7583.48  86.5097
 46.0636  7678.16  86.1821
 46.1056  7680.29  86.1859
 46.1476  7553.15  86.0664
 46.1896  7667.34  86.8629
 46.2316  7570.59  86.1871
 46.2736  7518.23  86.2623
 46.3156  7564.86  86.1093
 46.3576  7557.37  86.2667
 46.3996  7669.68  87.0687
 46.4416  7589.91  86.1937
 46.4836  7465.48  85.833
 46.5256  7422.33  85.5341
 46.5676  7543.79  86.3432
 46.6096  7583.89  86.498
 46.6516  7692.26  86.1431
 46.6936  7605.37  86.1539
 46.7356  7655.5  86.5341
 46.7776  7463  86.3067
 46.8196  7479.59  85.9889
 46.8616  7346.22  85.1703
 46.9036  7376.86  85.0034
 46.9456  7433.6  84.9664
 46.9876  7401.27  84.8662
 47.0296  7382.05  85.4401
 47.0716  7259.54  84.5572
 47.1136  7404.32  85.0678
 47.1556  7449.7  85.192
 47.1976  7601.18  86.1422
 47.2396  7385.39  85.3094
 47.2816  7385.84  85.0174
 47.3236  7469.19  85.8629
 47.3656  7487.94  85.901
 47.4076  7393.67  85.1644
 47.4496  7427.1  85.4455
 47.4916  7378.78  85.349
 47.5336  7425.44  85.4418
 47.5756  7437.02  85.6298
 47.6176  7363.56  85.1096
 47.6596  7415.89  85.1179
 47.7016  7535.43  85.6153
 47.7436  7464.91  85.5536
 47.7856  7489.49  85.7135
 47.8276  7431.59  85.4361
 47.8696  7451.37  85.6324
 47.9116  7463.36  85.4145
 47.9536  7399.09  84.9875
 47.9956  7335.18  85.3381
 48.0376  7313.9  84.9893
 48.0796  7428.47  85.7808
 48.1216  7409.98  85.4931
 48.1636  7597.42  86.1121
 48.2056  7556.93  86.1671
 48.2476  7460.98  85.9278
 48.2896  7447.15  85.7488
 48.3316  7435.57  85.6317
 48.3736  7467.67  85.8402
 48.4156  7433.19  85.4973
 48.4576  7483.36  86.0821
 48.4996  7505.92  85.6527
 48.5416  7495.76  85.9257
 48.5836  7514.97  85.7062
 48.6256  7449.62  85.5398
 48.6676  7500.74  86.3665
 48.7096  7475.23  85.4675
 48.7516  7473.02  85.6066
 48.7936  7325.59  84.8282
 48.8356  7461.78  85.6586
 48.8776  7423.7  86.027
 48.9196  7632.63  86.5685
 48.9616  7381.87  85.5339
 49.0036  7400.68  85.9925
 49.0456  7414.56  86.0562
 49.0876  7390.16  85.4414
 49.1296  7281.46  84.9776
 49.1716  7197.07  84.3541
 49.2136  7504.52  86.0538
 49.2556  7352.31  85.327
 49.2976  7473.83  85.9788
 49.3396  7312.64  85.103
 49.3816  7428.23  85.1864
 49.4236  7386.92  85.379
 49.4656  7366.04  85.2474
 49.5076  7365.88  85.0328
 49.5496  7368.1  85.114
 49.5916  7361.25  84.9868
 49.6336  7304.13  84.8633
 49.6756  7421.37  85.7802
 49.7176  7304.37  85.0417
 49.7596  7387.57  85.2853
 49.8016  7446.98  85.5487
 49.8436  7244.3  84.677
 49.8856  7383.69  85.4879
 49.9276  7306.15  85.145
 49.9696  7326.83  85.247
 50.0116  7344.28  85.4837
 50.0536  7266.8  84.9671
 50.0956  7281.5  85.1305
 50.1376  7243.27  84.5977
 50.1796  7311.56  85.2736
 50.2216  7289.68  85.1427
 50.2636  7285.92  84.7281
 50.3056  7198.71  84.4025
 50.3476  7271.53  84.8525
 50.3896  7170.62  84.2272
 50.4316  7214.31  84.3026
 50.4736  7314.81  85.1205
 50.5156  7300.27  85.0377
 50.5576  7393.08  85.3211
 50.5996  7302.65  85.2018
 50.6416  7238.54  84.637
 50.6836  7372.58  85.4791
 50.7256  7337.65  85.215
 50.7676  7384.79  85.8023
 50.8096  7285.42  84.7514
 50.8516  7299.01  85.2549
 50.8936  7166.71  84.2612
 50.9356  7334.46  85.3482
 50.9776  7245.9  84.9937
 51.0196  7069.79  84.0921
 51.0616  7125.09  83.7297
 51.1036  7307.09  85.1612
 51.1456  7151.79  84.1572
 51.1876  7157.98  83.5071
 51.2296  6970.11  83.1794
 51.2716  6999.06  82.9346
 51.3136  7046.22  83.6832
 51.3556  6990.08  82.96
 51.3976  7019.32  83.2896
 51.4396  6986.13  83.4104
 51.4816  7065.78  83.7344
 51.5236  7066.26  83.8414
 51.5656  7024.9  83.1686
 51.6076  7098.5  83.6913
 51.6496  6992.93  83.2568
 51.6916  7013.89  83.7466
 51.7336  6986.39  83.6762
 51.7756  7063  83.8252
 51.8176  6995.96  83.5366
 51.8596  6984.42  83.4792
 51.9016  7109.94  83.8242
 51.9436  7184.62  85.7825
 51.9856  7158.83  86.0378
 52.0276  7114.63  84.2391
 52.0696  7253.75  85.1246
 52.1116  7080.39  84.2375
 52.1536  7189.31  84.7426
 52.1956  7086.23  83.6046
 52.2376  7300.15  85.0292
 52.2796  7180.23  84.1443
 52.3216  6952.54  83.4902
 52.3636  7153.34  84.2438
 52.4056  7151.99  84.0949
 52.4476  7109.11  84.2179
 52.4896  6974.15  83.4672
 52.5316  7152.66  84.5811
 52.5736  6989.2  83.3248
 52.6156  7198.84  84.9665
 52.6576  7040.08  83.4509
 52.6996  6944.78  83.8848
 52.7416  6907.62  83.5193
 52.7836  7054.41  84.2871
 52.8256  6994.95  83.1146
 52.8676  6868.3  82.9558
 52.9096  7028.15  83.9833
 52.9516  7015.95  84.3214
 52.9936  7042.66  84.8577
 53.0356  7053.78  83.9013
 53.0776  6974.76  83.7073
 53.1196  7078.96  84.451
 53.1616  7045.27  84.3007
 53.2036  7018.28  84.1042
 53.2456  7054.95  84.4321
 53.2876  7007.2  83.8265
 53.3296  7096.37  84.6929
 53.3716  7106.36  84.4925
 53.4136  6946.59  83.7012
 53.4556  6982.64  83.9447
 53.4976  6987.37  83.7925
 53.5396  6911.7  83.76
 53.5816  7057.17  84.2621
 53.6236  6815.22  83.0938
 53.6656  6978.08  83.7457
 53.7076  6973.5  83.667
 53.7496  7065.41  84.3391
 53.7916  6853.28  83.2221
 53.8336  6977.01  83.8525
 53.8756  6876.99  83.8176
 53.9176  6912.91  83.3628
 53.9596  6705.11  82.8705
 54.0016  6743.11  82.4292
 54.0436  6551.37  81.4707
 54.0856  6878.13  82.8742
 54.1276  6701.12  81.9963
 54.1696  6761.46  82.5397
 54.2116  6910.83  83.1933
 54.2536  6686.86  81.65
 54.2956  6752.54  82.0317
 54.3376  6687.25  82.1939
 54.3796  6571.23  81.3555
 54.4216  6641.41  81.8715
 54.4636  6655.68  81.975
 54.5056  6711  82.0479
 54.5476  6584.95  81.6307
 54.5896  6710.99  82.2408
 54.6316  6694.55  81.9776
 54.6736  6689.48  82.0368
 54.7156  6592.68  81.4751
 54.7576  6521.68  81.0122
 54.7996  6639.76  81.8764
 54.8416  6619.84  81.7396
 54.8836  6663.4  82.1774
 54.9256  6630.54  81.7245
 54.9676  6569.47  81.2191
 55.0096  6629.9  81.6304
 55.0516  6437.9  80.6744
 55.0936  6596.78  81.3232
 55.1356  6546.71  81.0653
 55.1776  6749.01  82.5466
 55.2196  6488.28  80.7931
 55.2616  6706.66  82.2906
 55.3036  6403.39  80.5795
 55.3456  6400.69  80.7109
 55.3876  6525.89  81.2249
 55.4296  6441.37  80.7316
 55.4716  6604.84  81.7267
 55.5136  6475.17  80.6874
 55.5556  6626.39  81.6703
 55.5976  6478.53  80.8398
 55.6396  6624.04  81.6986
 55.6816  6553.58  81.1229
 55.7236  6519.11  80.9725
 55.7656  6581.04  81.0507
 55.8076  6429.67  80.1392
 55.8496  6515.43  80.9937
 55.8916  6482.66  80.9989
 55.9336  6591.67  81.4972
 55.9756  6394.75  80.1576
 56.0176  6378.09  80.185
 56.0596  6363.46  80.0974
 56.1016  6372.77  80.1746
 56.1436  6362.73  80.3708
 56.1856  6311.87  79.7953
 56.2276  6644.96  81.9056
 56.2696  6430.83  80.5922
 56.3116  6528.71  81.5385
 56.3536  6434.22  80.6313
 56.3956  6316.88  79.8648
 56.4376  6387.08  80.3631
 56.4796  6274.28  79.4761
 56.5216  6450.23  80.97
 56.5636  6353.62  79.9261
 56.6056  6591.1  81.6134
 56.6476  6341.1  79.6951
 56.6896  6515.54  81.2405
 56.7316  6289.07  79.7368
 56.7736  6428.55  80.6009
 56.8156  6353.6  80.1491
 56.8576  6277.83  79.6224
 56.8996  6273.1  79.4795
 56.9416  6191.94  79.2985
 56.9836  6359.04  79.8661
 57.0256  6287.61  79.7354
 57.0676  6481.12  81.0599
 57.1096  6333.78  79.9242
 57.1516  6276.71  79.6105
 57.1936  6281.52  79.4047
 57.2356  6268.91  79.6735
 57.2776  6306.95  79.8646
 57.3196  6331.15  80.1495
 57.3616  6310.86  79.7431
 57.4036  6363.05  80.1189
 57.4456  6408.71  80.3892
 57.4876  6333.59  79.7838
 57.5296  6279.19  79.7681
 57.5716  6258.83  79.634
 57.6136  6235.87  79.3347
 57.6556  6311.43  79.9373
 57.6976  6258.57  79.3452
 57.7396  6192.1  79.3528
 57.7816  6129.66  79.3211
 57.8236  6142.68  79.1969
 57.8656  6330.1  80.0707
 57.9076  6298.98  79.8932
 57.9496  6212.74  79.6902
 57.9916  6310.35  79.8231
 58.0336  6157.81  79.1252
 58.0756  6275.5  79.5137
 58.1176  6260.84  79.427
 58.1596  6179.11  79.4873
 58.2016  6059.46  77.9463
 58.2436  5978.42  77.8248
 58.2856  6026  78.0578
 58.3276  5991.34  78.2068
 58.3696  6042.58  78.2941
 58.4116  5997.55  77.8659
 58.4536  6055.65  78.1267
 58.4956  5946.41  77.5991
 58.5376  6001.35  77.6525
 58.5796  5883.65  77.1794
 58.6216  5966.59  77.5392
 58.6636  6050.42  78.2959
 58.7056  5994.52  77.7925
 58.7476  5960.49  78.0137
 58.7896  6062.79  78.3235
 58.8316  5980.49  77.894
 58.8736  6037.24  78.1666
 58.9156  5977.76  77.8184
 58.9576  5891.99  77.5799
 58.9996  6036.5  77.7747
 59.0416  6097.74  78.5326
 59.0836  5999.92  77.8138
 59.1256  5814.59  77.2955
 59.1676  5929.07  78.3624
 59.2096  6033.45  78.3507
 59.2516  5981.23  77.5939
 59.2936  5913.47  77.4778
 59.3356  5950.76  77.6004
 59.3776  6033.37  78.306
 59.4196  5817.99  76.8329
 59.4616  5811.68  76.6538
 59.5036  5917.66  77.3833
 59.5456  6017.6  77.7291
 59.5876  5985.2  77.7098
 59.6296  5903.35  77.2451
 59.6716  6027  78.1078
 59.7136  5896.37  77.2451
 59.7556  5931.98  77.6133
 59.7976  5913.74  77.2387
 59.8396  6091.83  78.2869
 59.8816  5917.64  77.6996
 59.9236  5911.02  77.3034
 59.9656  5810.4  76.8963
 60.0076  6063.15  77.9091
 60.0496  5998  77.9915
 60.0916  6111.37  78.1398
 60.1336  5853.21  77.5617
 60.1756  5897.41  79.0243
 60.1996  0.0000000E+00  0.0000000E+00