File: docs/examples/XRD/IS17_D/Data/IS17_D/17_Da_f00095.xye
# /beamlines/bl04/projects/cycle2025-II/20250340211-lsimonelli/DATA/IS17_D/17_Da_f00095.xye : mythproc.py merge -s 0.006 -l 0.5 -f /beamlines/bl04/inhouse/ff/FlatField/ff_20Nov2024rod8mm60s_17keV.raw -b True -c true -o xye /beamlines/bl04/projects/cycle2025-II/20250340211-lsimonelli/DATA/IS17_D/17_Da_00095.dat
# IsMon = [6782135, 6783755, 6779182]  IsPos = [-1.4999, -2.4884, -3.4988]
# Wave = 0.4962  CalPath /beamlines/bl04/projects/cycle2025-II/20250340211-lsimonelli/DATA/Align/Si_Pos1_25keV_f00001.cal
# Date = 2025-09-24_20:02:33 Dt = 4.8000  Bin = 0.0060  <imon> = 6781691 +/- 1893 (Min/Max) 6779182 / 6783755
# icurr 251.9781  mocoIn 1.7189E-05  mocoOut 0.8069  i15 7.1006e+06  imon 6.78169e+06  i7 4.0000  iEMpd_timer 4.8000  iEMpd_1 3.4872E-08  iEMpd_2 7.9177E-08  iEMpd_3 1.6903E-08  iEMpd_4 4.7369E-08  iEMhp_timer 4.8000  iEMhp_1 4.9234E-06  iEMhp_2 -2.5392E-08  iEMhp_3 -2.3669E-08  iEMhp_4 -2.0984E-08
#      9776
 1.5856  40319.7  206.181
 1.6276  47851.3  220.759
 1.6696  54817.8  235.45
 1.7116  63550.4  254.007
 1.7536  71973.2  269.164
 1.7956  77217.4  279.495
 1.8376  73784.5  273.644
 1.8796  61746.9  248.481
 1.9216  49685.3  223.789
 1.9636  41847.6  204.537
 2.0056  37812.9  193.675
 2.0476  35029.8  188.455
 2.0896  33371.7  182.862
 2.1316  32711.5  180.174
 2.1736  31040.3  176.904
 2.2156  31999.1  178.174
 2.2576  30604  174.872
 2.2996  29435  172.128
 2.3416  29838.4  171.919
 2.3836  29043  169.718
 2.4256  28514.1  168.714
 2.4676  27737.4  166.164
 2.5096  27891.8  166.68
 2.5516  26878.4  167.402
 2.5936  27067.1  164.6
 2.6356  26451.2  163.403
 2.6776  26213.6  161.562
 2.7196  26141.1  161.855
 2.7616  26096.7  161.497
 2.8036  25553.3  159.978
 2.8456  25625.9  160.816
 2.8876  25098  159.03
 2.9296  24798.5  158.205
 2.9716  24576.6  156.989
 3.0136  24242.4  155.982
 3.0556  24202.7  156.251
 3.0976  24145.5  155.014
 3.1396  24172.2  155.812
 3.1816  23742.7  154.353
 3.2236  23716.2  154.262
 3.2656  23646.6  153.076
 3.3076  23403.3  153.734
 3.3496  23674.7  153.563
 3.3916  24253.3  155.256
 3.4336  24503.9  156.634
 3.4756  24646.2  157.019
 3.5176  25836.8  160.563
 3.5596  25589.5  162.245
 3.6016  25768.6  160.416
 3.6436  24806.7  158.481
 3.6856  24434.2  155.593
 3.7276  23450  153.512
 3.7696  23483.2  153.829
 3.8116  22907.5  151.811
 3.8536  23072.7  152.291
 3.8956  23044.1  152.02
 3.9376  22848  151.624
 3.9796  22714.6  150.69
 4.0216  23101.7  150.996
 4.0636  22848  151.644
 4.1056  22921.9  151.523
 4.1476  23003.2  152.113
 4.1896  23394  153.261
 4.2316  23428.8  153.201
 4.2736  23829.7  154.287
 4.3156  24159.8  155.596
 4.3576  24834.5  157.671
 4.3996  25268.9  159.295
 4.4416  25832.1  160.65
 4.4836  26171.8  161.852
 4.5256  26546.3  163.621
 4.5676  26549.6  163.889
 4.6096  27114.6  164.273
 4.6516  27520.3  165.207
 4.6936  27417.3  165.714
 4.7356  27557.6  165.964
 4.7776  27742.2  166.354
 4.8196  27571.7  166.482
 4.8616  27103.9  164.548
 4.9036  26827.2  163.454
 4.9456  26642.1  163.538
 4.9876  26234.5  162.182
 5.0296  26347.4  162.351
 5.0716  26387.3  163.264
 5.1136  26537.8  163.428
 5.1556  26772.3  163.61
 5.1976  27212.7  164.939
 5.2396  27344.7  165.037
 5.2816  27139.9  164.876
 5.3236  27500.5  165.676
 5.3656  26846.3  164.616
 5.4076  26586.2  163.969
 5.4496  26839.6  164.23
 5.4916  26932.4  164.269
 5.5336  27077.5  164.722
 5.5756  26633.8  163.388
 5.6176  26963.4  163.831
 5.6596  27144.8  165.36
 5.7016  27265.3  164.992
 5.7436  27672.2  166.493
 5.7856  27406.7  165.747
 5.8276  27828.4  166.745
 5.8696  27935  167.225
 5.9116  27736.5  167.246
 5.9536  28128  168.168
 5.9956  28424  168.412
 6.0376  28516  169.327
 6.0796  28736.3  169.813
 6.1216  28589.6  169.584
 6.1636  28888  169.521
 6.2056  28711.5  169.67
 6.2476  28783.4  169.754
 6.2896  29173.1  170.579
 6.3316  28865.2  169.846
 6.3736  29170.9  170.643
 6.4156  29227.9  170.699
 6.4576  29455.3  170.971
 6.4996  29532.1  171.68
 6.5416  29442.3  171.551
 6.5836  29556.5  172.119
 6.6256  29639.5  171.92
 6.6676  30166.2  173.007
 6.7096  29958.9  173.26
 6.7516  30236.9  173.722
 6.7936  30587.3  174.156
 6.8356  30762.3  174.724
 6.8776  31059.3  176.376
 6.9196  31077.9  176.827
 6.9616  31572.2  177.663
 7.0036  31811.6  177.992
 7.0456  31922.1  177.594
 7.0876  31862.6  179.123
 7.1296  31750.9  177.946
 7.1716  31668.3  177.258
 7.2136  31634.9  176.939
 7.2556  31790.3  177.537
 7.2976  31726.6  177.856
 7.3396  31635.4  177.805
 7.3816  31537.6  177.753
 7.4236  32014.5  178.379
 7.4656  32053.7  177.977
 7.5076  32541.6  179.459
 7.5496  32198.1  179.058
 7.5916  32283  179.313
 7.6336  32450.3  179.676
 7.6756  32837.8  180.595
 7.7176  33067.4  181.527
 7.7596  33087  182.842
 7.8016  33088.5  185.004
 7.8436  33788.5  183.641
 7.8856  34253.8  184.51
 7.9276  34690.1  186.087
 7.9696  34876.9  186.892
 8.0116  35828  187.951
 8.0536  36114.7  188.96
 8.0956  35702.8  189.043
 8.1376  36140.2  189.68
 8.1796  36380.8  190.843
 8.2216  37225.2  191.789
 8.2636  37155.2  191.857
 8.3056  37171.3  192.684
 8.3476  37994.9  194.117
 8.3896  37793.3  193.685
 8.4316  37770.7  193.791
 8.4736  37881.4  193.541
 8.5156  37738.7  193.451
 8.5576  37258.4  193.181
 8.5996  37247  192.034
 8.6416  37077.3  192.843
 8.6836  37039.8  192.6
 8.7256  37573  193.4
 8.7676  36774.4  194.236
 8.8096  36763.8  191.538
 8.8516  36775.8  191.179
 8.8936  35912.8  188.817
 8.9356  36114.2  189.67
 8.9776  36042.2  189.588
 9.0196  35935.5  188.981
 9.0616  36053  188.778
 9.1036  35956  189.71
 9.1456  36027.9  189.255
 9.1876  35642  188.182
 9.2296  35863.6  188.177
 9.2716  35368.5  186.932
 9.3136  35408.3  187.014
 9.3556  35353.5  186.861
 9.3976  34271.5  184.497
 9.4396  34659.9  185.435
 9.4816  33993.4  183.498
 9.5236  34262.2  184.147
 9.5656  33949.5  183.626
 9.6076  33740.2  183.592
 9.6496  33634.1  183.221
 9.6916  33639.6  183.218
 9.7336  33760.7  183.316
 9.7756  33818.7  184.73
 9.8176  32719.4  181.174
 9.8596  32725.2  179.647
 9.9016  32570.7  179.215
 9.9436  32173.6  178.033
 9.9856  31740.2  177.056
 10.0276  31617.7  177.814
 10.0696  31704.3  177.102
 10.1116  31097  175.657
 10.1536  30816  175.028
 10.1956  30354.2  173.307
 10.2376  30006.6  171.831
 10.2796  30115.7  172.263
 10.3216  29828.3  171.701
 10.3636  29685.3  171.327
 10.4056  29295.4  170.588
 10.4476  29324.5  170.304
 10.4896  29318.8  169.744
 10.5316  28656.1  168.52
 10.5736  28796.7  169.341
 10.6156  28330.5  167.727
 10.6576  28662.2  167.28
 10.6996  28248.6  166.726
 10.7416  27794  165.618
 10.7836  28064.2  167.124
 10.8256  27544  166.001
 10.8676  27835.7  166.405
 10.9096  27318.6  164.903
 10.9516  27329.7  163.857
 10.9936  27203.4  163.682
 11.0356  26988.4  163.667
 11.0776  26868.7  162.621
 11.1196  26403.7  161.939
 11.1616  26290.9  161.283
 11.2036  26424.8  161.554
 11.2456  26322.1  161.94
 11.2876  26176  161.226
 11.3296  26072.6  160.8
 11.3716  26414.4  161.552
 11.4136  26279.6  162.034
 11.4556  26480.8  162.328
 11.4976  26693.1  161.931
 11.5396  27011.7  163.067
 11.5816  26897.2  163.184
 11.6236  26613.3  162.536
 11.6656  26154.4  160.29
 11.7076  25602.3  159.424
 11.7496  25211.1  162.122
 11.7916  25343.4  157.884
 11.8336  25033.4  157.805
 11.8756  24625.1  156.049
 11.9176  24895.6  156.547
 11.9596  24478  155.416
 12.0016  24609.3  156.634
 12.0436  24499.1  155.702
 12.0856  24246.6  155.426
 12.1276  24286.4  155.466
 12.1696  24247.7  154.485
 12.2116  24504  155.296
 12.2536  24099  154.835
 12.2956  24104.2  154.187
 12.3376  23992  154.03
 12.3796  24114  154.878
 12.4216  23945.2  153.565
 12.4636  23851.5  154.168
 12.5056  23960.2  153.797
 12.5476  24346.2  154.562
 12.5896  24008.2  154.119
 12.6316  23676.9  153.207
 12.6736  23740.9  153.894
 12.7156  23714.4  153.668
 12.7576  23986.4  154.795
 12.7996  24029  153.577
 12.8416  23699.8  153.566
 12.8836  24140.8  154.821
 12.9256  24500.2  154.979
 12.9676  24564.7  155.608
 13.0096  24188  155.49
 13.0516  24446.2  155.37
 13.0936  24322.6  155.374
 13.1356  24800.8  155.877
 13.1776  24500.2  155.922
 13.2196  24499  155.572
 13.2616  24429.7  155.662
 13.3036  24601.8  156.18
 13.3456  24535  156.325
 13.3876  24493.7  155.478
 13.4296  24334.6  155.126
 13.4716  24643.6  155.712
 13.5136  24618.8  155.797
 13.5556  24606.1  156.356
 13.5976  24784.7  157.073
 13.6396  24727.4  156.269
 13.6816  24542  156.166
 13.7236  25058  157.446
 13.7656  24267.9  155.472
 13.8076  24552.9  155.172
 13.8496  24081.3  154.269
 13.8916  24158.2  155.516
 13.9336  24212.7  154.922
 13.9756  24159.3  154.096
 14.0176  24005.9  154.292
 14.0596  24098.5  154.551
 14.1016  23655.3  153.514
 14.1436  23562.8  152.349
 14.1856  23371  152.024
 14.2276  22865.8  150.85
 14.2696  23287.3  152.078
 14.3116  23010.2  151.069
 14.3536  22524.6  149.645
 14.3956  22637.4  149.742
 14.4376  22818.8  150.129
 14.4796  22638.3  149.521
 14.5216  22300.8  149.206
 14.5636  22349  148.915
 14.6056  22384.2  148.623
 14.6476  22292.3  147.545
 14.6896  21875.7  146.694
 14.7316  21561.1  146.667
 14.7736  21457.5  145.458
 14.8156  21271.1  144.868
 14.8576  21165.7  144.359
 14.8996  20687.7  143.918
 14.9416  20457.6  143.12
 14.9836  20555  143.429
 15.0256  20550.8  142.329
 15.0676  20479.5  142.4
 15.1096  20143.8  140.965
 15.1516  19832.2  140.421
 15.1936  19783.5  139.681
 15.2356  19605.6  139.332
 15.2776  19501.2  138.545
 15.3196  19348.8  139.006
 15.3616  19226.7  138.331
 15.4036  19014.1  137.417
 15.4456  19432.8  138.568
 15.4876  18916  136.394
 15.5296  18727.2  135.989
 15.5716  18663.9  135.365
 15.6136  18433.9  134.849
 15.6556  18468.2  134.22
 15.6976  18315.2  133.946
 15.7396  18265.3  134.174
 15.7816  18172.6  133.332
 15.8236  18098.9  133.774
 15.8656  18024.4  133.282
 15.9076  17728.8  132.01
 15.9496  17553.9  134.13
 15.9916  17622.7  134.829
 16.0336  17284.6  130.444
 16.0756  17478.9  131.492
 16.1176  17336.4  131.011
 16.1596  16961.3  130.771
 16.2016  17070.6  129.942
 16.2436  16826  129.391
 16.2856  16834.2  128.969
 16.3276  16501  128.098
 16.3696  16861.6  129.305
 16.4116  16816.1  129.6
 16.4536  16822.6  129.397
 16.4956  16596.7  128.268
 16.5376  16448.3  127.884
 16.5796  16417.7  127.125
 16.6216  16624.6  128.232
 16.6636  16414.3  127.571
 16.7056  16436.2  127.524
 16.7476  16484  127.237
 16.7896  16438.2  127.812
 16.8316  16429.9  127.747
 16.8736  16304.9  127.51
 16.9156  16409.7  128.262
 16.9576  16130.6  127.948
 16.9996  16237  128.87
 17.0416  16278.9  127.368
 17.0836  16176.6  126.726
 17.1256  16053.5  126.254
 17.1676  15910.9  125.689
 17.2096  15866.1  125.387
 17.2516  15794.4  124.885
 17.2936  15837.1  125.381
 17.3356  15458.1  123.877
 17.3776  15637.4  124.779
 17.4196  15599.7  124.326
 17.4616  15500  123.847
 17.5036  15189.1  122.959
 17.5456  15156.4  123.465
 17.5876  15324.2  123.192
 17.6296  15305.4  122.934
 17.6716  15057.9  122.508
 17.7136  14832.9  121.734
 17.7556  14889.2  122.253
 17.7976  14845.2  121.813
 17.8396  14860.4  121.376
 17.8816  14796  121.653
 17.9236  14683  121.002
 17.9656  14850.7  122.238
 18.0076  14812.1  121.665
 18.0496  14899.1  121.15
 18.0916  14769.4  121.166
 18.1336  14735.1  121.119
 18.1756  14916.9  121.388
 18.2176  14656.7  120.55
 18.2596  14619.6  120.13
 18.3016  14854.6  121.355
 18.3436  14744  120.908
 18.3856  14625.2  120.546
 18.4276  14683.2  120.462
 18.4696  14565  120.081
 18.5116  14671.1  120.802
 18.5536  14709.6  121.33
 18.5956  14324.6  119.275
 18.6376  14315.9  119.645
 18.6796  14465.2  119.589
 18.7216  14569.7  120.505
 18.7636  14239.2  119.114
 18.8056  14264.3  119.171
 18.8476  14089.4  119.065
 18.8896  14208.2  118.895
 18.9316  14377.9  119.597
 18.9736  14266.4  118.82
 19.0156  14157.1  118.764
 19.0576  14186.6  117.755
 19.0996  14384.6  119.291
 19.1416  13988.6  118.028
 19.1836  13984.9  117.614
 19.2256  14065.6  118.161
 19.2676  14090.6  118.367
 19.3096  14087.6  118.601
 19.3516  13999.6  118.188
 19.3936  13903  117.675
 19.4356  14016.9  118.023
 19.4776  13887.8  117.583
 19.5196  13906.7  117.516
 19.5616  13925.8  117.849
 19.6036  14003.5  117.683
 19.6456  14116.5  118.266
 19.6876  14084.9  117.785
 19.7296  13983.5  117.811
 19.7716  14046.5  118.245
 19.8136  14065.6  118.527
 19.8556  14312.7  119.043
 19.8976  14212.8  118.694
 19.9396  14416.2  119.115
 19.9816  14504.8  119.727
 20.0236  14617.1  120.405
 20.0656  14785.5  121.093
 20.1076  14624.4  120.897
 20.1496  14553.5  120.613
 20.1916  14239.5  118.81
 20.2336  14147.5  118.363
 20.2756  13814.8  117.394
 20.3176  13668.9  116.521
 20.3596  13699.5  116.631
 20.4016  13587.7  115.953
 20.4436  13708.1  117.023
 20.4856  13453.8  115.725
 20.5276  13459  116.212
 20.5696  13427.5  115.524
 20.6116  13270.8  115.133
 20.6536  13432.3  115.341
 20.6956  13350.2  115.111
 20.7376  13321.2  115.217
 20.7796  13134  114.079
 20.8216  13477.9  115.274
 20.8636  13176.6  114.349
 20.9056  13216.8  114.478
 20.9476  13054.6  113.606
 20.9896  13365.2  114.823
 21.0316  13380.4  114.788
 21.0736  13202.3  114.538
 21.1156  13202.6  114.696
 21.1576  13126.1  114.41
 21.1996  13010.8  113.889
 21.2416  13012.2  113.725
 21.2836  13056.7  113.89
 21.3256  12950.3  113.505
 21.3676  13141.5  113.889
 21.4096  12900.8  113.147
 21.4516  12926.2  113.134
 21.4936  12872.8  113.151
 21.5356  13096.8  114.081
 21.5776  13024.5  113.602
 21.6196  12833  112.788
 21.6616  12891.6  113.143
 21.7036  12837  112.687
 21.7456  12957.7  113.285
 21.7876  12824.7  112.455
 21.8296  12773.2  112.083
 21.8716  12797.6  112.413
 21.9136  12895.6  113.055
 21.9556  12677  111.767
 21.9976  12664.7  111.721
 22.0396  12683.8  112.055
 22.0816  12788.4  113.076
 22.1236  12848.5  112.786
 22.1656  12866.7  112.996
 22.2076  12839  112.342
 22.2496  12792.2  112.16
 22.2916  12753.1  111.871
 22.3336  12729.5  112.494
 22.3756  12665.4  111.935
 22.4176  12606.4  111.533
 22.4596  12582.2  112.02
 22.5016  12760.1  112.286
 22.5436  12795.4  112.338
 22.5856  12780.8  112.515
 22.6276  12672.4  112.168
 22.6696  12514.6  111.822
 22.7116  12679.3  112.058
 22.7536  12810.7  112.622
 22.7956  12654.3  111.254
 22.8376  12686  111.935
 22.8796  12608  111.383
 22.9216  12740.8  112.524
 22.9636  12707.9  111.52
 23.0056  12685.5  111.552
 23.0476  12647  111.961
 23.0896  12988.4  112.826
 23.1316  12859.3  112.708
 23.1736  12699.6  114.96
 23.2156  12742.8  112.537
 23.2576  12717.6  112.535
 23.2996  12790.3  112.66
 23.3416  12609.6  112.365
 23.3836  12626.2  111.679
 23.4256  12753.7  112.356
 23.4676  12521.1  111.033
 23.5096  12589.2  112.007
 23.5516  12589.1  111.288
 23.5936  12516.4  111.867
 23.6356  12827.7  112.913
 23.6776  12689  112.521
 23.7196  12715.7  112.209
 23.7616  12715.3  112.126
 23.8036  12653.2  111.89
 23.8456  12601.7  111.239
 23.8876  12393.8  110.654
 23.9296  12381.3  111.088
 23.9716  12355.6  110.176
 24.0136  12575.7  112.064
 24.0556  12363.8  110.836
 24.0976  12182.9  109.833
 24.1396  12218.7  112.64
 24.1816  12127.3  110.647
 24.2236  12025.1  109.78
 24.2656  12065.4  109.435
 24.3076  12163.5  110.126
 24.3496  11920.5  108.918
 24.3916  12012.7  109.391
 24.4336  11985.6  109.474
 24.4756  11937.3  109.119
 24.5176  11766.4  107.989
 24.5596  11791  108.23
 24.6016  11659.7  107.91
 24.6436  11773.1  107.922
 24.6856  11697.8  107.339
 24.7276  11538.9  106.922
 24.7696  11545.3  107.062
 24.8116  11560.9  107.315
 24.8536  11346.3  106.306
 24.8956  11512.5  106.827
 24.9376  11450  106.476
 24.9796  11203.5  105.673
 25.0216  11187  105.708
 25.0636  11318.9  105.976
 25.1056  11030.8  105.321
 25.1476  11286.1  108.204
 25.1896  11331  106.893
 25.2316  11409.9  106.541
 25.2736  11274.4  105.55
 25.3156  11203.1  105.297
 25.3576  11172.2  105.573
 25.3996  11202.6  105.697
 25.4416  11239.5  105.853
 25.4836  11024.1  105.354
 25.5256  11101.6  105.091
 25.5676  11206.7  105.312
 25.6096  11028.8  105.049
 25.6516  11045  104.617
 25.6936  10881.3  104.157
 25.7356  11086.1  105.268
 25.7776  11040.4  104.655
 25.8196  10861.6  104.042
 25.8616  11024.9  104.753
 25.9036  11036.2  104.266
 25.9456  11005.5  104.713
 25.9876  10940.9  104.466
 26.0296  11098.1  104.727
 26.0716  10853.9  103.985
 26.1136  10984.4  104.555
 26.1556  11045.6  104.228
 26.1976  10834  104.147
 26.2396  10907.9  103.662
 26.2816  10908.6  104.254
 26.3236  10867.7  104.229
 26.3656  10872.4  103.978
 26.4076  11024.7  104.91
 26.4496  11307.5  105.725
 26.4916  10904.9  103.843
 26.5336  10920.6  104.242
 26.5756  10942.1  104.207
 26.6176  10782.2  103.495
 26.6596  10816.4  103.96
 26.7016  10702.5  103.169
 26.7436  10661.7  103.107
 26.7856  10508.2  102.342
 26.8276  10636.9  102.921
 26.8696  10758.7  103.389
 26.9116  10560.4  102.368
 26.9536  10586  102.541
 26.9956  10500.6  102.159
 27.0376  10571.1  102.703
 27.0796  10548.4  102.334
 27.1216  10345  101.42
 27.1636  10368.6  101.705
 27.2056  10353.6  101.512
 27.2476  10437  101.92
 27.2896  10468.1  102.184
 27.3316  10481  101.955
 27.3736  10425.6  101.959
 27.4156  10284.3  101.1
 27.4576  10340.2  101.609
 27.4996  10268.6  100.853
 27.5416  10357.8  101.611
 27.5836  10262.8  100.961
 27.6256  10609.5  102.801
 27.6676  10529.2  102.451
 27.7096  10234.6  100.872
 27.7516  10213.7  100.918
 27.7936  10204.2  101.043
 27.8356  10185.4  100.57
 27.8776  10147.1  100.421
 27.9196  10079.8  99.9446
 27.9616  10184.5  100.654
 28.0036  10126.4  100.342
 28.0456  10144.3  100.562
 28.0876  10039.1  100.126
 28.1296  9979.19  99.6686
 28.1716  9991.07  99.7337
 28.2136  10067.2  100.076
 28.2556  9987.28  99.795
 28.2976  10017.3  99.9344
 28.3396  10033.5  99.784
 28.3816  10139  100.324
 28.4236  10089  100.232
 28.4656  9907.05  99.3565
 28.5076  9917.3  99.0451
 28.5496  10042.9  99.9346
 28.5916  10047.2  99.7645
 28.6336  9835.16  99.0433
 28.6756  9968.55  98.9152
 28.7176  9837.71  98.8096
 28.7596  9820.5  98.6212
 28.8016  9876.51  98.9329
 28.8436  9735.09  98.4639
 28.8856  10004.4  99.6702
 28.9276  9766.44  98.718
 28.9696  9786.73  98.4819
 29.0116  9703.22  98.2475
 29.0536  9665.85  98.2506
 29.0956  9721.09  98.2541
 29.1376  9713.91  98.1816
 29.1796  9709.74  98.1997
 29.2216  9580.17  97.3916
 29.2636  9725.41  98.1972
 29.3056  9673.1  97.7288
 29.3476  9667.99  98.2207
 29.3896  9756.62  98.7701
 29.4316  9887.42  98.768
 29.4736  9860.59  98.7036
 29.5156  9734.55  97.9804
 29.5576  9704  98.5668
 29.5996  9761.12  98.118
 29.6416  9641.86  97.626
 29.6836  9799.72  98.3569
 29.7256  9685.76  98.3492
 29.7676  9624.61  97.7043
 29.8096  9556.14  97.2875
 29.8516  9546.41  97.5824
 29.8936  9711.79  98.5149
 29.9356  9637.31  97.8909
 29.9776  9616.39  97.9388
 30.0196  9642.07  97.4513
 30.0616  9513.86  97.1782
 30.1036  9624.03  97.5559
 30.1456  9530.4  97.3269
 30.1876  9483.1  97.0516
 30.2296  9393.89  96.551
 30.2716  9630.17  97.3909
 30.3136  9544.96  97.8192
 30.3556  9627.9  98.2511
 30.3976  9422.49  98.7107
 30.4396  9484.69  96.3817
 30.4816  9586.54  96.5027
 30.5236  9368.83  95.4143
 30.5656  9448.48  96.4724
 30.6076  9511.07  96.2197
 30.6496  9475.64  96.4265
 30.6916  9403.17  96.1551
 30.7336  9435.73  96.4699
 30.7756  9362.17  96.1835
 30.8176  9385.61  96.2209
 30.8596  9402.02  96.072
 30.9016  9287.27  95.8261
 30.9436  9518.84  96.7641
 30.9856  9424.48  96.3818
 31.0276  9451.63  96.1174
 31.0696  9344.19  96.1637
 31.1116  9302.36  95.926
 31.1536  9468.28  96.6639
 31.1956  9181.3  95.2713
 31.2376  9232.59  95.5446
 31.2796  9283.71  95.348
 31.3216  9346.26  95.6145
 31.3636  9383.52  96.4846
 31.4056  9324.87  97.5066
 31.4476  9237.16  94.9314
 31.4896  9324  95.8794
 31.5316  9300.86  95.1603
 31.5736  9328.85  95.1311
 31.6156  9230.69  94.6404
 31.6576  9275.47  94.9712
 31.6996  9331.79  94.9319
 31.7416  9105.07  94.8117
 31.7836  9261.07  94.6453
 31.8256  9175.23  94.4762
 31.8676  9279.27  95.0026
 31.9096  9105.33  94.4671
 31.9516  9055.38  94.3651
 31.9936  9120.07  94.526
 32.0356  9032.54  94.134
 32.0776  9233.27  95.0634
 32.1196  9057.14  94.243
 32.1616  9210.65  94.4913
 32.2036  9054.51  94.2012
 32.2456  9029.71  94.4487
 32.2876  9131.69  94.473
 32.3296  8975.49  93.6282
 32.3716  8950.22  93.6121
 32.4136  9118.1  94.7054
 32.4556  9197.98  94.4871
 32.4976  9094.57  93.8659
 32.5396  9115.47  94.0441
 32.5816  8886.55  92.9729
 32.6236  9017.78  93.7269
 32.6656  9133.55  94.8702
 32.7076  8982.14  93.7355
 32.7496  8929.91  93.1295
 32.7916  8890.05  92.8881
 32.8336  9029.24  93.7028
 32.8756  9064.86  93.614
 32.9176  8945.71  93.474
 32.9596  8893.05  93.2804
 33.0016  8979.03  93.5201
 33.0436  8992.23  93.7654
 33.0856  8947.89  93.5972
 33.1276  8838.11  92.7555
 33.1696  9021.58  93.5651
 33.2116  9044.17  93.8973
 33.2536  8926.26  93.2878
 33.2956  8985.54  93.6806
 33.3376  8840.52  92.6674
 33.3796  8897.09  93.1665
 33.4216  8928.16  92.9368
 33.4636  9018.29  93.5346
 33.5056  8759.4  92.4246
 33.5476  8745.31  92.3457
 33.5896  8922.46  93.041
 33.6316  8819.23  92.8221
 33.6736  8768.79  92.8025
 33.7156  8790.01  92.9605
 33.7576  8878.86  93.0538
 33.7996  8977.49  93.3372
 33.8416  8678.39  91.95
 33.8836  8859.44  92.6804
 33.9256  8769.1  92.2662
 33.9676  8862.01  92.6506
 34.0096  8691.01  92.0678
 34.0516  8779.24  92.1691
 34.0936  8628.89  91.6455
 34.1356  8811.15  92.342
 34.1776  8777.82  92.184
 34.2196  8675.75  91.824
 34.2616  8609.27  91.6027
 34.3036  8585.5  91.7258
 34.3456  8557.5  91.3334
 34.3876  8651.27  91.796
 34.4296  8565.17  91.0214
 34.4716  8846.33  92.6613
 34.5136  8682.58  92.0043
 34.5556  8619.34  91.926
 34.5976  8664.91  91.9578
 34.6396  8527.9  90.9464
 34.6816  8581.23  91.3459
 34.7236  8591.76  91.1894
 34.7656  8645.33  91.6721
 34.8076  8524.29  91.3428
 34.8496  8551.94  91.3547
 34.8916  8556.34  91.2496
 34.9336  8690.44  91.9266
 34.9756  8657.77  91.6738
 35.0176  8714.69  92.5034
 35.0596  8479.79  91.0777
 35.1016  8549.01  91.216
 35.1436  8690.09  91.6466
 35.1856  8443.55  90.4673
 35.2276  8526.69  91.0889
 35.2696  8530.05  91.2967
 35.3116  8536.27  91.4222
 35.3536  8375.5  90.2706
 35.3956  8534.84  90.8289
 35.4376  8479.88  91.0868
 35.4796  8462.01  91.0612
 35.5216  8442.15  90.9125
 35.5636  8321.67  90.9993
 35.6056  8538.99  91.1948
 35.6476  8443.89  90.5744
 35.6896  8467.95  90.7998
 35.7316  8404.73  90.4349
 35.7736  8419.31  90.707
 35.8156  8308.23  90.106
 35.8576  8449.55  91.1194
 35.8996  8516.42  91.4495
 35.9416  8577.45  91.2355
 35.9836  8355.83  90.4351
 36.0256  8526.87  91.3745
 36.0676  8480.52  90.8824
 36.1096  8252.37  89.7892
 36.1516  8448.51  90.735
 36.1936  8378.7  90.2097
 36.2356  8390.36  90.9143
 36.2776  8389.55  90.4007
 36.3196  8360.23  89.9002
 36.3616  8312.76  89.7795
 36.4036  8304.69  89.7913
 36.4456  8356.54  90.2738
 36.4876  8262.11  89.7106
 36.5296  8385.63  90.4219
 36.5716  8248.04  90.4554
 36.6136  8327.03  89.6614
 36.6556  8459.52  90.5789
 36.6976  8346.26  90.4683
 36.7396  8361.46  90.2755
 36.7816  8353.38  90.6125
 36.8236  8294.01  90.2028
 36.8656  8296.25  90.3032
 36.9076  8191.71  89.5991
 36.9496  8273.21  90.044
 36.9916  8290.51  89.7582
 37.0336  8393.16  90.6365
 37.0756  8289.38  89.8608
 37.1176  8143.29  89.3338
 37.1596  8208.46  89.6933
 37.2016  8218.9  89.9804
 37.2436  8331.41  89.9019
 37.2856  8237.78  89.6527
 37.3276  8215.72  88.8848
 37.3696  8218.68  89.7853
 37.4116  8293.16  90.1063
 37.4536  8287.2  89.9346
 37.4956  8158.43  89.2739
 37.5376  8099.74  90.4955
 37.5796  8161.71  90.7954
 37.6216  8008.44  88.2302
 37.6636  7980.51  87.9713
 37.7056  8151.32  89.106
 37.7476  8065.61  88.1666
 37.7896  8109.15  88.91
 37.8316  7890.86  87.874
 37.8736  8146.11  88.8123
 37.9156  8008.3  88.0557
 37.9576  8025.27  88.0323
 37.9996  8002.05  87.6232
 38.0416  7962.74  88.2261
 38.0836  8059.65  88.6639
 38.1256  8039.52  88.5003
 38.1676  7888.71  87.8142
 38.2096  7899.03  87.4924
 38.2516  8136.13  89.007
 38.2936  7991.5  88.0037
 38.3356  8037.78  88.1822
 38.3776  7755.13  86.8865
 38.4196  8092.8  88.6156
 38.4616  7970.63  88.1702
 38.5036  8086.13  88.6377
 38.5456  7975.03  88.8659
 38.5876  7906.97  88.5254
 38.6296  7874.99  87.3164
 38.6716  7838.9  86.9042
 38.7136  7900.56  87.196
 38.7556  7875.68  87.5611
 38.7976  7964.42  87.9917
 38.8396  7971.75  88.485
 38.8816  7749.17  87.0021
 38.9236  7857.47  87.4392
 38.9656  7826.71  87.1844
 39.0076  7876.14  86.8682
 39.0496  8012.54  88.1606
 39.0916  7830.03  86.794
 39.1336  7826.27  87.1902
 39.1756  7880.54  87.5456
 39.2176  7786.77  87.5625
 39.2596  7747.82  87.2624
 39.3016  7817.49  87.2289
 39.3436  7709.68  87.0493
 39.3856  7941.83  87.7985
 39.4276  8000.44  88.621
 39.4696  7824.4  87.2659
 39.5116  7755.59  87.3906
 39.5536  7904.66  88.6631
 39.5956  7951.85  88.0202
 39.6376  8056.66  88.6083
 39.6796  7885.96  87.404
 39.7216  7953.98  87.8822
 39.7636  7919.29  88.2564
 39.8056  7974.51  88.3444
 39.8476  7799.51  87.6189
 39.8896  7930.4  87.977
 39.9316  7839.7  87.731
 39.9736  8089.44  88.6762
 40.0156  7877.73  87.339
 40.0576  7858.69  87.5853
 40.0996  7998.39  87.5464
 40.1416  7973.66  88.2071
 40.1836  7977.44  88.1182
 40.2256  7844.01  87.4223
 40.2676  7957.47  88.1601
 40.3096  7911.68  87.8253
 40.3516  7879.52  87.753
 40.3936  8087.39  88.4644
 40.4356  7929.85  87.7871
 40.4776  7943.8  88.2748
 40.5196  8008.12  88.7674
 40.5616  8018.96  88.4653
 40.6036  7962.26  88.4106
 40.6456  8033.26  88.4112
 40.6876  8055.44  88.5083
 40.7296  8095.53  88.8769
 40.7716  8001.48  88.4873
 40.8136  7999.16  88.4127
 40.8556  7959.53  88.3298
 40.8976  8037.06  88.6814
 40.9396  7917.21  88.3629
 40.9816  7998.73  88.1031
 41.0236  8107.93  88.4852
 41.0656  8145.45  89.2272
 41.1076  8031.69  88.3748
 41.1496  7974.1  87.9643
 41.1916  7955.27  88.1835
 41.2336  7926.69  88.0175
 41.2756  7886.57  87.4022
 41.3176  7917.19  88.183
 41.3596  7972.09  88.2173
 41.4016  7977.13  88.5164
 41.4436  8044.84  88.6637
 41.4856  7918.78  88.1331
 41.5276  7964.96  88.4062
 41.5696  7979.65  88.1199
 41.6116  7876.85  87.943
 41.6536  7915.35  88.0193
 41.6956  8014.36  88.6155
 41.7376  7867.04  87.831
 41.7796  7876.18  87.7698
 41.8216  7918.32  88.2351
 41.8636  7917.78  88.1705
 41.9056  7901.95  87.8736
 41.9476  7914.69  88.1746
 41.9896  7898.95  87.7541
 42.0316  7961.94  88.1869
 42.0736  7812.08  87.4641
 42.1156  7850.77  87.5194
 42.1576  7851.97  87.6265
 42.1996  7908.45  88.0829
 42.2416  7879.53  87.5004
 42.2836  7820.84  87.2897
 42.3256  7780.65  87.18
 42.3676  7872.96  87.4959
 42.4096  7868.33  87.435
 42.4516  7863.56  87.4965
 42.4936  7779.92  87.0972
 42.5356  7775.83  87.2065
 42.5776  7914.21  87.9124
 42.6196  7893.72  87.8605
 42.6616  7734.09  87.1395
 42.7036  7826.28  87.0389
 42.7456  7804.79  87.2749
 42.7876  7841.13  87.5787
 42.8296  7818.72  87.2907
 42.8716  7777.19  87.2139
 42.9136  7777.84  87.0092
 42.9556  7793.52  87.2227
 42.9976  7896.19  87.7599
 43.0396  7694.65  86.3702
 43.0816  7748.87  87.0498
 43.1236  7733.44  87.0229
 43.1656  7818.66  87.3304
 43.2076  7758.88  87.1063
 43.2496  7665.55  86.3841
 43.2916  7701.55  86.9581
 43.3336  7833.39  87.5327
 43.3756  7730.8  86.7101
 43.4176  7569.39  85.8852
 43.4596  7709.76  86.5346
 43.5016  7681.24  86.7755
 43.5436  7664.87  86.5896
 43.5856  7726.11  86.9617
 43.6276  7714.17  86.7859
 43.6696  7703.19  86.988
 43.7116  7765.29  86.8291
 43.7536  7699.33  86.9445
 43.7956  7584.03  87.4735
 43.8376  7650.38  86.4032
 43.8796  7686.84  86.6941
 43.9216  7645.95  86.3793
 43.9636  7695.72  86.7748
 44.0056  7612.22  86.5284
 44.0476  7513.24  85.6021
 44.0896  7500.54  85.8651
 44.1316  7672.64  86.3672
 44.1736  7633.6  86.2739
 44.2156  7589.64  85.8714
 44.2576  7595.6  86.2379
 44.2996  7664  86.5932
 44.3416  7474.21  85.2837
 44.3836  7403.18  85.1931
 44.4256  7521.11  85.5231
 44.4676  7329.21  84.5741
 44.5096  7489.45  85.6363
 44.5516  7516.02  85.7553
 44.5936  7335.1  84.669
 44.6356  7549.32  85.6328
 44.6776  7504.67  85.6902
 44.7196  7476.37  85.8486
 44.7616  7553.1  87.5998
 44.8036  7307.82  84.6259
 44.8456  7486.88  85.8602
 44.8876  7455.24  85.5281
 44.9296  7515.34  85.3266
 44.9716  7466.79  85.4737
 45.0136  7490.39  85.5487
 45.0556  7377.54  84.8709
 45.0976  7421.04  85.2933
 45.1396  7299.95  84.3489
 45.1816  7373.52  84.7165
 45.2236  7446.31  85.0297
 45.2656  7251.91  84.411
 45.3076  7253.46  84.205
 45.3496  7366.02  85.1588
 45.3916  7373.09  85.4624
 45.4336  7435.6  85.6636
 45.4756  7311.84  84.8067
 45.5176  7362.91  84.7205
 45.5596  7329.81  84.6557
 45.6016  7309.81  84.9531
 45.6436  7416.74  84.7514
 45.6856  7404.38  85.342
 45.7276  7239.27  85.6832
 45.7696  7318.26  85.8155
 45.8116  7239.92  84.7903
 45.8536  7261.53  84.8152
 45.8956  7394.21  84.9382
 45.9376  7451.55  84.7304
 45.9796  7301.43  84.5496
 46.0216  7298.73  84.8804
 46.0636  7354.87  84.3495
 46.1056  7314.71  84.1047
 46.1476  7318.11  84.7157
 46.1896  7152.95  83.8976
 46.2316  7344.72  84.8886
 46.2736  7146.46  84.096
 46.3156  7280.82  84.4732
 46.3576  7305.86  84.82
 46.3996  7377.23  85.3939
 46.4416  7218.52  84.048
 46.4836  7293.78  84.8428
 46.5256  7316.61  84.9143
 46.5676  7152.21  84.067
 46.6096  7192.26  84.2345
 46.6516  7153.65  83.0685
 46.6936  7181.15  83.7063
 46.7356  7292.82  84.4722
 46.7776  7174.07  84.6202
 46.8196  7151.23  84.0794
 46.8616  7084.09  83.6428
 46.9036  7170.44  83.7979
 46.9456  7106.07  83.0782
 46.9876  7127.52  83.2806
 47.0296  7105.28  83.835
 47.0716  7060.49  83.3886
 47.1136  7059.33  83.0658
 47.1556  7090.13  83.1107
 47.1976  7213.04  83.906
 47.2396  7142.85  83.8973
 47.2816  7132  83.5327
 47.3236  7006.66  83.1656
 47.3656  7150.37  83.9438
 47.4076  7078.97  83.3274
 47.4496  6935.96  82.5807
 47.4916  6979.4  83.0221
 47.5336  7106.88  83.5904
 47.5756  7143.79  83.9248
 47.6176  7072.44  83.4082
 47.6596  7070.5  83.1094
 47.7016  7124.75  83.248
 47.7436  7081.76  83.3278
 47.7856  7142.58  83.702
 47.8276  6926.67  82.4882
 47.8696  7030.52  83.1789
 47.9116  7160.42  83.6583
 47.9536  7116.61  83.3561
 47.9956  6957.4  83.1086
 48.0376  6978.9  83.0129
 48.0796  7016.09  83.3665
 48.1216  7097.63  83.658
 48.1636  7174.31  83.6927
 48.2056  7031.3  83.1167
 48.2476  7133.58  84.0239
 48.2896  7066.24  83.536
 48.3316  6981.45  82.9775
 48.3736  6955.92  82.8491
 48.4156  6927.38  82.5354
 48.4576  6876.74  82.5185
 48.4996  6977.14  82.5814
 48.5416  6992.57  82.9897
 48.5836  6897.92  82.1156
 48.6256  7064.44  83.2984
 48.6676  7000.5  83.4389
 48.7096  7027.14  82.8613
 48.7516  6958.25  82.611
 48.7936  6877.56  82.192
 48.8356  6890.3  82.3148
 48.8776  6902.85  82.9498
 48.9196  7066.97  83.3055
 48.9616  6858.62  82.446
 49.0036  6946.58  83.3144
 49.0456  6865.33  82.8074
 49.0876  6919.3  82.6703
 49.1296  6828.24  82.2819
 49.1716  6847.31  82.2766
 49.2136  6930.23  82.7012
 49.2556  6974.7  82.9913
 49.2976  6968.56  83.0154
 49.3396  6855.28  82.4083
 49.3816  6966.03  82.5009
 49.4236  6851.62  82.2439
 49.4656  6751.09  81.6534
 49.5076  6911.58  82.3694
 49.5496  6844.07  82.0258
 49.5916  6803  81.6901
 49.6336  6766.78  81.6807
 49.6756  6774.86  81.9618
 49.7176  6821.31  82.1797
 49.7596  6795.44  81.7957
 49.8016  6819.63  81.8662
 49.8436  6811.49  82.1024
 49.8856  6748.79  81.731
 49.9276  6765.66  81.926
 49.9696  6822.15  82.257
 50.0116  6859.75  82.6146
 50.0536  6861.5  82.5704
 50.0956  6744.12  81.9365
 50.1376  6786.72  81.8976
 50.1796  6760.79  82.0054
 50.2216  6723.58  81.7726
 50.2636  6584.73  80.5519
 50.3056  6683.2  81.3218
 50.3476  6701.94  81.4588
 50.3896  6567.87  80.6133
 50.4316  6835.73  82.0702
 50.4736  6760.32  81.8404
 50.5156  6726.35  81.6304
 50.5576  6801.15  81.8311
 50.5996  6684.32  81.4078
 50.6416  6636.02  81.0435
 50.6836  6707.53  81.5346
 50.7256  6766.22  81.8251
 50.7676  6685.48  81.6337
 50.8096  6685.33  81.186
 50.8516  6652.49  81.398
 50.8936  6590.65  80.8021
 50.9356  6714.5  81.6641
 50.9776  6729.75  81.9062
 51.0196  6585.31  81.1535
 51.0616  6512.19  80.0341
 51.1036  6658.13  81.2858
 51.1456  6639.04  81.074
 51.1876  6687.93  80.7302
 51.2296  6572.18  80.6519
 51.2716  6562.68  80.3048
 51.3136  6618.12  81.0863
 51.3556  6528.45  80.1777
 51.3976  6484.02  80.0431
 51.4396  6530.34  80.6266
 51.4816  6561.3  80.6789
 51.5236  6596.95  80.9771
 51.5656  6567.76  80.4138
 51.6076  6565.41  80.4752
 51.6496  6482.77  80.1619
 51.6916  6485.1  80.5135
 51.7336  6582.88  81.2231
 51.7756  6478.87  80.2775
 51.8176  6598.19  81.1199
 51.8596  6495.16  80.4996
 51.9016  6747.8  81.6571
 51.9436  6541.56  81.8325
 51.9856  6390.61  81.3103
 52.0276  6537.93  80.773
 52.0696  6518.63  80.7134
 52.1116  6546.17  81.0072
 52.1536  6449.9  80.2918
 52.1956  6560.37  80.4514
 52.2376  6572.6  80.6849
 52.2796  6566.96  80.4715
 52.3216  6332.12  79.6901
 52.3636  6456.12  80.0546
 52.4056  6473.33  80.0195
 52.4476  6335.3  79.5243
 52.4896  6361.35  79.7358
 52.5316  6453.93  80.3531
 52.5736  6418.66  79.8719
 52.6156  6452.73  80.4477
 52.6576  6498.66  80.1968
 52.6996  6223.01  79.413
 52.7416  6467.73  80.8241
 52.7836  6515.15  80.9939
 52.8256  6387.25  79.4284
 52.8676  6391.15  80.0248
 52.9096  6452.64  80.4869
 52.9516  6514.77  81.2465
 52.9936  6372.22  80.7342
 53.0356  6356.81  79.646
 53.0776  6255.7  79.2658
 53.1196  6335.35  79.8954
 53.1616  6334.52  79.9381
 53.2036  6221.83  79.1771
 53.2456  6324.04  79.9243
 53.2876  6323.11  79.6307
 53.3296  6296.97  79.7835
 53.3716  6270.91  79.3688
 53.4136  6305.73  79.7411
 53.4556  6228.75  79.2814
 53.4976  6116.29  78.4126
 53.5396  6189.69  79.268
 53.5816  6296.18  79.5872
 53.6236  6105.44  78.6992
 53.6656  6311.09  79.6494
 53.7076  6266.97  79.3325
 53.7496  6297.79  79.6476
 53.7916  6379.15  80.2829
 53.8336  6234.86  79.2688
 53.8756  6108.73  79.0044
 53.9176  6276.83  79.4372
 53.9596  6257.21  80.0802
 54.0016  6220.3  79.1796
 54.0436  6262.77  79.6683
 54.0856  6334.43  79.5513
 54.1276  6203.46  78.9235
 54.1696  6155.74  78.7832
 54.2116  6220.84  78.9558
 54.2536  6291.55  79.2245
 54.2956  6203.33  78.7101
 54.3376  6279.29  79.6689
 54.3796  6238.42  79.3103
 54.4216  6403.8  80.4062
 54.4636  6325.27  79.8691
 54.5056  6228.73  79.0851
 54.5476  6169.78  79.0321
 54.5896  6257.36  79.4307
 54.6316  6213.33  79.0069
 54.6736  6247.95  79.3029
 54.7156  6181.55  78.9015
 54.7576  6140.32  78.6318
 54.7996  6266.3  79.5706
 54.8416  6246.87  79.497
 54.8836  6147.03  78.9669
 54.9256  6193.42  79.0225
 54.9676  6282.34  79.4497
 55.0096  6171.26  78.8038
 55.0516  6189.27  79.1529
 55.0936  6218.23  78.9578
 55.1356  6181.2  78.7725
 55.1776  6102.7  78.5358
 55.2196  6270.19  79.3915
 55.2616  6186.67  79.0706
 55.3036  6057.82  78.3987
 55.3456  6141.48  79.0924
 55.3876  6211.07  79.2797
 55.4296  6209.38  79.243
 55.4716  6262.82  79.6215
 55.5136  6152.75  78.6715
 55.5556  6179.1  78.9156
 55.5976  6139.97  78.7212
 55.6396  6106.02  78.4475
 55.6816  6191.78  78.8811
 55.7236  6291.13  79.5602
 55.7656  6143.81  78.3769
 55.8076  6249.33  79.033
 55.8496  6150.32  78.7154
 55.8916  6125.35  78.7591
 55.9336  6159.51  78.7938
 55.9756  6135.82  78.5354
 56.0176  6096.01  78.4329
 56.0596  6149.91  78.7625
 56.1016  6189.22  79.0235
 56.1436  6130.98  78.9081
 56.1856  6154.45  78.8032
 56.2276  6093.44  78.4714
 56.2696  6140.04  78.7439
 56.3116  6086.6  78.7956
 56.3536  6078.01  78.4042
 56.3956  6079.41  78.4049
 56.4376  6077.38  78.4237
 56.4796  6186.81  78.9269
 56.5216  6162.53  79.1324
 56.5636  6208.65  79.0348
 56.6056  6007.73  77.9676
 56.6476  6196.38  78.8169
 56.6896  6146.34  78.9405
 56.7316  6099.97  78.5488
 56.7736  6119.31  78.6731
 56.8156  6156.35  78.9098
 56.8576  6117.58  78.61
 56.8996  6087.3  78.3512
 56.9416  6098.22  78.7112
 56.9836  6016.21  77.7043
 57.0256  6032.68  78.1267
 57.0676  6020.6  78.1698
 57.1096  6137.8  78.719
 57.1516  6133.38  78.7579
 57.1936  6084.78  78.1898
 57.2356  6150.13  78.93
 57.2776  6097  78.5455
 57.3196  6103.25  78.9533
 57.3616  6087.16  78.3409
 57.4036  6115.2  78.5844
 57.4456  6159.08  78.8275
 57.4876  6280.21  79.4642
 57.5296  6024.9  78.1637
 57.5716  5997.67  77.9815
 57.6136  6053.96  78.1604
 57.6556  6125.15  78.7589
 57.6976  6058.7  78.1535
 57.7396  6020.85  78.2838
 57.7816  5965.22  78.2698
 57.8236  6039.75  78.5581
 57.8656  6113.06  78.69
 57.9076  6060.53  78.3791
 57.9496  6057.75  78.7064
 57.9916  6038.38  78.0998
 58.0336  6091.68  78.7192
 58.0756  6034.07  77.9856
 58.1176  6119.68  78.5344
 58.1596  6055.55  78.6703
 58.2016  6073.79  78.0327
 58.2436  6144.43  78.8976
 58.2856  6050.77  78.2214
 58.3276  5986.3  78.1681
 58.3696  6002.07  78.019
 58.4116  6074.56  78.3543
 58.4536  6062.08  78.1554
 58.4956  6057.53  78.3146
 58.5376  6133.51  78.3734
 58.5796  6065.43  78.3643
 58.6216  6127.18  78.5774
 58.6636  6157.29  78.9854
 58.7056  6095.29  78.4392
 58.7476  6087.32  78.8345
 58.7896  5970.57  77.7205
 58.8316  6024.42  78.0613
 58.8736  6165.26  78.9832
 58.9156  5974.07  77.7823
 58.9576  6094.88  78.9026
 58.9996  6315.92  79.5304
 59.0416  6247.16  79.4794
 59.0836  6161.83  78.8592
 59.1256  6012.36  78.5921
 59.1676  6027.03  78.9892
 59.2096  6207.35  79.4838
 59.2516  6135.1  78.5975
 59.2936  6165.59  79.1241
 59.3356  6125.57  78.7438
 59.3776  6182.84  79.2821
 59.4196  6101.17  78.6929
 59.4616  6071.7  78.3616
 59.5036  6043.9  78.2175
 59.5456  6160.91  78.6612
 59.5876  6099.05  78.4573
 59.6296  6038.76  78.1378
 59.6716  6086.15  78.502
 59.7136  6220.45  79.3515
 59.7556  6108.15  78.7692
 59.7976  6092.05  78.4063
 59.8396  6229.9  79.181
 59.8816  6131.74  79.1047
 59.9236  6212.65  79.2632
 59.9656  6124.72  78.9623
 60.0076  6160.92  78.5466
 60.0496  6041.47  78.2838
 60.0916  6269.43  79.1558
 60.1336  6004.88  78.572
 60.1756  6005.95  79.7603
 60.1996  0.0000000E+00  0.0000000E+00