File: docs/examples/XRD/IS17_D/Data/IS17_D/17_Da_f00083.xye
# /beamlines/bl04/projects/cycle2025-II/20250340211-lsimonelli/DATA/IS17_D/17_Da_f00083.xye : mythproc.py merge -s 0.006 -l 0.5 -f /beamlines/bl04/inhouse/ff/FlatField/ff_20Nov2024rod8mm60s_17keV.raw -b True -c true -o xye /beamlines/bl04/projects/cycle2025-II/20250340211-lsimonelli/DATA/IS17_D/17_Da_00083.dat
# IsMon = [6783237, 6787031, 6787169]  IsPos = [-1.4999, -2.4884, -3.4988]
# Wave = 0.4962  CalPath /beamlines/bl04/projects/cycle2025-II/20250340211-lsimonelli/DATA/Align/Si_Pos1_25keV_f00001.cal
# Date = 2025-09-24_16:40:59 Dt = 4.8000  Bin = 0.0060  <imon> = 6785812 +/- 1822 (Min/Max) 6783237 / 6787169
# icurr 252.2997  mocoIn 1.7210E-05  mocoOut 0.8075  i15 7.10049e+06  imon 6.78581e+06  i7 5.3333  iEMpd_timer 4.8000  iEMpd_1 3.2835E-08  iEMpd_2 7.8898E-08  iEMpd_3 1.5729E-08  iEMpd_4 4.7276E-08  iEMhp_timer 4.8000  iEMhp_1 4.9275E-06  iEMhp_2 -2.6278E-08  iEMhp_3 -2.4567E-08  iEMhp_4 -2.0620E-08
#      9776
 1.5856  40510.3  206.713
 1.6276  48207.5  221.629
 1.6696  54303.2  234.394
 1.7116  62760.9  252.48
 1.7536  71660.5  268.639
 1.7956  76708.4  278.633
 1.8376  72815.9  271.903
 1.8796  60820.9  246.674
 1.9216  49074.2  222.458
 1.9636  41471.1  203.662
 2.0056  37375.9  192.596
 2.0476  34373.5  186.723
 2.0896  33427.5  183.056
 2.1316  32429.7  179.436
 2.1736  30545.1  175.526
 2.2156  31491  176.793
 2.2576  29808.4  172.621
 2.2996  28721.7  170.067
 2.3416  29098.3  169.814
 2.3836  28374.2  167.79
 2.4256  27457.6  165.595
 2.4676  27392  165.163
 2.5096  27277.6  164.872
 2.5516  28953  173.682
 2.5936  56931  238.752
 2.6356  27086.7  165.378
 2.6776  26072.3  161.146
 2.7196  25700.1  160.509
 2.7616  25584.9  159.927
 2.8036  25052.8  158.422
 2.8456  25038  158.987
 2.8876  24585  157.414
 2.9296  24303.3  156.639
 2.9716  23981.2  155.098
 3.0136  23781  154.515
 3.0556  23797.4  154.957
 3.0976  23769.6  153.82
 3.1396  23759.1  154.492
 3.1816  23319  152.993
 3.2236  23166.8  152.49
 3.2656  23203.9  151.652
 3.3076  22920.3  152.162
 3.3496  23372.8  152.599
 3.3916  23661.5  153.371
 3.4336  23997.7  155.03
 3.4756  24572  156.808
 3.5176  25306.6  158.923
 3.5596  25224.1  161.077
 3.6016  25391.9  159.239
 3.6436  24678.7  158.078
 3.6856  24271.9  155.078
 3.7276  23274.4  152.939
 3.7696  23086.3  152.511
 3.8116  22702.7  151.124
 3.8536  22724.1  151.135
 3.8956  22858.1  151.406
 3.9376  22755  151.316
 3.9796  22527.8  150.07
 4.0216  22719.1  149.744
 4.0636  22631.6  150.917
 4.1056  22742.5  150.933
 4.1476  22785.5  151.398
 4.1896  23102.2  152.3
 4.2316  23190.7  152.423
 4.2736  23645.3  153.695
 4.3156  23925.3  154.828
 4.3576  24672.2  157.152
 4.3996  24927  158.212
 4.4416  25512  159.652
 4.4836  26239.2  162.062
 4.5256  26297.1  162.861
 4.5676  26232.3  162.906
 4.6096  26718.3  163.076
 4.6516  27131.2  164.037
 4.6936  27557.9  166.132
 4.7356  27830.6  166.784
 4.7776  27681.1  166.161
 4.8196  27187.6  165.329
 4.8616  26755.4  163.489
 4.9036  26463.4  162.349
 4.9456  26656.8  163.584
 4.9876  26023.6  161.531
 5.0296  26299.3  162.187
 5.0716  26087.7  162.322
 5.1136  26251.5  162.544
 5.1556  26471.8  162.681
 5.1976  29465.5  171.637
 5.2396  27076.5  164.225
 5.2816  27099.2  164.763
 5.3236  27173.3  164.684
 5.3656  26807.2  164.495
 5.4076  26473  163.618
 5.4496  26786.7  164.061
 5.4916  26658.8  163.433
 5.5336  26826.2  163.946
 5.5756  26698.7  163.598
 5.6176  26855.7  163.503
 5.6596  26919.3  164.684
 5.7016  27181  164.736
 5.7436  27260.7  165.253
 5.7856  27282  165.377
 5.8276  27553.6  165.914
 5.8696  27762.5  166.718
 5.9116  27669.5  167.044
 5.9536  28009  167.821
 5.9956  28224.9  167.82
 6.0376  28316.6  168.736
 6.0796  28600.2  169.409
 6.1216  28572.1  169.524
 6.1636  28751.1  169.117
 6.2056  28629  169.42
 6.2476  28923.1  170.167
 6.2896  29238.3  170.771
 6.3316  28894.9  169.946
 6.3736  29298.6  171.014
 6.4156  28997.3  170.036
 6.4576  29252.6  170.382
 6.4996  29589.3  171.839
 6.5416  29381.7  171.373
 6.5836  29535.8  172.049
 6.6256  29605.2  171.818
 6.6676  30161.3  172.992
 6.7096  30034.1  173.488
 6.7516  30313.7  173.943
 6.7936  30674.2  174.403
 6.8356  31139.8  175.794
 6.8776  31338.8  177.158
 6.9196  30923.8  176.389
 6.9616  31517.1  177.511
 7.0036  31878  178.176
 7.0456  31850.6  177.396
 7.0876  31755.7  178.823
 7.1296  31611  177.555
 7.1716  31738.4  177.451
 7.2136  31191.5  175.695
 7.2556  31598.8  177.002
 7.2976  31594  177.483
 7.3396  31747.1  178.122
 7.3816  31516.1  177.693
 7.4236  32075.3  178.549
 7.4656  32208.4  178.406
 7.5076  32355.9  178.945
 7.5496  32350.2  179.467
 7.5916  32362.6  179.535
 7.6336  32684.6  180.323
 7.6756  32701.9  180.223
 7.7176  32969.2  181.266
 7.7596  33199.5  183.151
 7.8016  34876.2  189.966
 7.8436  33947  184.05
 7.8856  33994.5  183.794
 7.9276  34831.2  186.434
 7.9696  34874.7  186.863
 8.0116  35816.3  187.9
 8.0536  36027  188.708
 8.0956  36728.4  191.725
 8.1376  36358.1  190.23
 8.1796  36539  191.249
 8.2216  37914.2  193.538
 8.2636  38252.5  194.649
 8.3056  37524.5  193.565
 8.3476  38691.6  195.871
 8.3896  38206.9  194.72
 8.4316  37819.7  193.894
 8.4736  38277.7  194.522
 8.5156  37768  193.503
 8.5576  37576.6  193.998
 8.5996  37711.1  193.2
 8.6416  37667.6  194.363
 8.6836  37511.7  193.788
 8.7256  38218.3  195.043
 8.7676  38218.8  198.01
 8.8096  37977.3  194.66
 8.8516  36806.1  191.25
 8.8936  37597.7  193.156
 8.9356  36407.9  190.46
 8.9776  36750  191.441
 9.0196  36519.6  190.525
 9.0616  36591.2  190.178
 9.1036  37529.1  193.797
 9.1456  36515.9  190.51
 9.1876  36396  190.158
 9.2296  36291.7  189.283
 9.2716  35637.9  187.637
 9.3136  35673.1  187.717
 9.3556  36167.8  188.988
 9.3976  34406  184.866
 9.4396  34877.6  186.011
 9.4816  34466.8  184.779
 9.5236  34764.2  185.483
 9.5656  34442.8  184.941
 9.6076  34168.2  184.731
 9.6496  33869.2  183.853
 9.6916  34029.6  184.255
 9.7336  34094.3  184.213
 9.7756  34123.7  185.544
 9.8176  33401.6  183.08
 9.8596  33098.5  180.695
 9.9016  32737.1  179.698
 9.9436  32581.7  179.176
 9.9856  32464.5  179.092
 10.0276  31759.9  178.238
 10.0696  32072.2  178.151
 10.1116  31028.8  175.491
 10.1536  31184  176.095
 10.1956  30559.7  173.926
 10.2376  30316.9  172.744
 10.2796  30607.8  173.69
 10.3216  30271.7  173
 10.3636  30348.6  173.255
 10.4056  30793.2  174.915
 10.4476  31007.2  175.147
 10.4896  32678.1  179.232
 10.5316  31520  176.736
 10.5736  29593.8  171.689
 10.6156  29364.1  170.79
 10.6576  30898  173.707
 10.6996  29122.7  169.311
 10.7416  28593.5  168.007
 10.7836  29081.4  170.125
 10.8256  28118.3  167.718
 10.8676  28306.1  167.808
 10.9096  27921.5  166.711
 10.9516  27718.5  165.02
 10.9936  27989.2  166.03
 11.0356  27750.4  165.961
 11.0776  28009.7  166.032
 11.1196  27530.1  165.361
 11.1616  26910  163.178
 11.2036  27274  164.125
 11.2456  27734.4  166.231
 11.2876  26726.2  162.916
 11.3296  26641  162.547
 11.3716  27051.3  163.484
 11.4136  26792.7  163.607
 11.4556  27150.2  164.355
 11.4976  27824.4  165.333
 11.5396  27957.1  165.892
 11.5816  26881.4  163.136
 11.6236  26479.6  162.126
 11.6656  26063.2  160.02
 11.7076  25699.3  159.72
 11.7496  25705.4  163.702
 11.7916  25768.1  159.201
 11.8336  25186.3  158.274
 11.8756  25174.9  157.777
 11.9176  25254.2  157.674
 11.9596  24740.6  156.262
 12.0016  24863.2  157.439
 12.0436  24668.1  156.246
 12.0856  24450.7  156.078
 12.1276  24559.7  156.336
 12.1696  24691.1  155.89
 12.2116  24894.3  156.521
 12.2536  25490.1  159.241
 12.2956  24643.5  155.894
 12.3376  24219.9  154.763
 12.3796  24542.8  156.245
 12.4216  24356.9  154.877
 12.4636  24279.1  155.542
 12.5056  24255.6  154.741
 12.5476  24237  154.214
 12.5896  24305.5  155.056
 12.6316  23881.2  153.868
 12.6736  24070.8  154.96
 12.7156  23977  154.527
 12.7576  24131.8  155.264
 12.7996  24093.3  153.781
 12.8416  24180.3  155.115
 12.8836  24847  157.06
 12.9256  24639.3  155.421
 12.9676  24844.4  156.484
 13.0096  24462.7  156.386
 13.0516  24530.1  155.626
 13.0936  24628.5  156.354
 13.1356  25007.9  156.526
 13.1776  24939.1  157.299
 13.2196  24805.5  156.541
 13.2616  24635.5  156.311
 13.3036  24619  156.233
 13.3456  24734.1  156.949
 13.3876  24680.7  156.08
 13.4296  24801.6  156.61
 13.4716  24815.3  156.264
 13.5136  24588.6  155.7
 13.5556  24586.9  156.302
 13.5976  24882.1  157.376
 13.6396  25071.9  157.343
 13.6816  24452.5  155.885
 13.7236  25275.5  158.124
 13.7656  24563.2  156.426
 13.8076  25078.6  156.824
 13.8496  24530.9  155.71
 13.8916  24529.1  156.706
 13.9336  24572.4  156.061
 13.9756  24268.6  154.449
 14.0176  24196.6  154.9
 14.0596  24434.5  155.629
 14.1016  23929  154.399
 14.1436  23804.4  153.138
 14.1856  23566.5  152.657
 14.2276  23122.9  151.698
 14.2696  23516.1  152.824
 14.3116  23272.7  151.924
 14.3536  22745.4  150.373
 14.3956  22701.7  149.96
 14.4376  22860.2  150.258
 14.4796  22785.3  150.011
 14.5216  22358.8  149.394
 14.5636  22537.4  149.549
 14.6056  22475.2  148.922
 14.6476  22311.4  147.606
 14.6896  21969.9  147.016
 14.7316  21621  146.862
 14.7736  21477.2  145.524
 14.8156  21337.7  145.086
 14.8576  21282  144.756
 14.8996  20906.2  144.678
 14.9416  20559.2  143.468
 14.9836  20763.7  144.138
 15.0256  20455.3  141.983
 15.0676  20574.9  142.714
 15.1096  20266.3  141.377
 15.1516  19830.9  140.41
 15.1936  19891.1  140.046
 15.2356  19826.2  140.098
 15.2776  19583.2  138.815
 15.3196  19310  138.855
 15.3616  19260.6  138.432
 15.4036  18995.8  137.328
 15.4456  19491.8  138.764
 15.4876  19120.4  137.113
 15.5296  18965.8  136.847
 15.5716  18763.5  135.712
 15.6136  18627.8  135.545
 15.6556  19333.7  137.313
 15.6976  18650.9  135.156
 15.7396  18534.8  135.138
 15.7816  18448.4  134.323
 15.8236  17994.2  133.365
 15.8656  18165.4  133.785
 15.9076  17834.3  132.389
 15.9496  17854.4  135.274
 15.9916  17809.3  135.547
 16.0336  17454.8  131.091
 16.0756  17528.6  131.672
 16.1176  17543.1  131.799
 16.1596  17123.4  131.391
 16.2016  17266.8  130.67
 16.2436  17091.5  130.406
 16.2856  16983  129.534
 16.3276  16678.4  128.781
 16.3696  16791.6  129.036
 16.4116  16726.8  129.252
 16.4536  16815  129.368
 16.4956  16969.5  129.704
 16.5376  16521.6  128.164
 16.5796  16579.5  127.75
 16.6216  16747.8  128.703
 16.6636  16737.8  128.815
 16.7056  16602.9  128.163
 16.7476  16703.1  128.08
 16.7896  16495.3  128.031
 16.8316  16523.6  128.109
 16.8736  16625.3  128.762
 16.9156  16596.8  128.982
 16.9576  16331.5  128.751
 16.9996  16273.3  129.015
 17.0416  16331.7  127.587
 17.0836  16368.7  127.5
 17.1256  16090.4  126.42
 17.1676  16341.4  127.388
 17.2096  16083.6  126.262
 17.2516  16020.5  125.795
 17.2936  15955.7  125.865
 17.3356  15557.7  124.298
 17.3776  15598.1  124.641
 17.4196  15731.9  124.866
 17.4616  15697.7  124.652
 17.5036  15662.5  124.874
 17.5456  15169.4  123.539
 17.5876  15167.8  122.58
 17.6296  15310  122.973
 17.6716  15253.2  123.319
 17.7136  15293.1  123.629
 17.7556  15104.2  123.151
 17.7976  15048.9  122.666
 17.8396  14882.8  121.485
 17.8816  15062.7  122.756
 17.9236  14778  121.41
 17.9656  15160.9  123.511
 18.0076  15275.1  123.552
 18.0496  15381.7  123.096
 18.0916  16952.9  129.782
 18.1336  15765  125.277
 18.1756  15411  123.379
 18.2176  15470.4  123.856
 18.2596  14999.1  121.685
 18.3016  15444.8  123.739
 18.3436  15413.7  123.619
 18.3856  14890.2  121.643
 18.4276  15068.4  122.038
 18.4696  15065.8  122.125
 18.5116  15053  122.363
 18.5536  15090.3  122.877
 18.5956  14681.9  120.753
 18.6376  14925.1  122.161
 18.6796  14791.1  120.922
 18.7216  14774.4  121.348
 18.7636  14387.2  119.741
 18.8056  14375.3  119.634
 18.8476  14371.1  120.242
 18.8896  14272  119.158
 18.9316  14597.1  120.496
 18.9736  14290.7  118.921
 19.0156  14458.6  120.021
 19.0576  14397.1  118.632
 19.0996  14324.4  119.041
 19.1416  14239.1  119.085
 19.1836  14182.1  118.442
 19.2256  14155.2  118.539
 19.2676  14191.4  118.788
 19.3096  14218.9  119.148
 19.3516  14120.3  118.696
 19.3936  14195.9  118.911
 19.4356  14182.4  118.723
 19.4776  14263.1  119.162
 19.5196  14074.1  118.217
 19.5616  14231.3  119.137
 19.6036  14238.7  118.659
 19.6456  14294.8  119.014
 19.6876  14420.8  119.178
 19.7296  14136.6  118.464
 19.7716  14129.7  118.591
 19.8136  14360.7  119.773
 19.8556  14505.9  119.845
 19.8976  14336.8  119.209
 19.9396  14528.6  119.575
 19.9816  14737.4  120.679
 20.0236  14932.3  121.696
 20.0656  14632.4  120.458
 20.1076  14105.3  118.74
 20.1496  13960.1  118.131
 20.1916  14108.7  118.272
 20.2336  14016.8  117.805
 20.2756  13797.1  117.319
 20.3176  13666.7  116.508
 20.3596  13810.6  117.093
 20.4016  13707.9  116.464
 20.4436  13590.5  116.519
 20.4856  13505.6  115.958
 20.5276  13586.6  116.752
 20.5696  13497.5  115.84
 20.6116  13486.7  116.067
 20.6536  13450.9  115.407
 20.6956  13456.1  115.563
 20.7376  13376.1  115.444
 20.7796  13311.9  114.853
 20.8216  13430.7  115.073
 20.8636  13505.1  115.767
 20.9056  13691.2  116.511
 20.9476  13266.6  114.534
 20.9896  13890.9  117.059
 21.0316  13511.6  115.341
 21.0736  13338.7  115.13
 21.1156  13645.5  116.597
 21.1576  13404.4  115.613
 21.1996  13248.5  114.928
 21.2416  13115.8  114.185
 21.2836  13216.2  114.581
 21.3256  13196.2  114.58
 21.3676  13273.5  114.457
 21.4096  13282.8  114.807
 21.4516  13136.6  114.057
 21.4936  12790.4  112.788
 21.5356  13049.4  113.874
 21.5776  13191.2  114.324
 21.6196  12993.8  113.496
 21.6616  12920.3  113.268
 21.7036  12967.1  113.251
 21.7456  13169.7  114.207
 21.7876  13045.3  113.417
 21.8296  12835.3  112.357
 21.8716  12848.6  112.649
 21.9136  13034.9  113.66
 21.9556  13001.5  113.185
 21.9976  12919.6  112.839
 22.0396  12803.3  112.59
 22.0816  12855.9  113.365
 22.1236  13005  113.467
 22.1656  12931.6  113.271
 22.2076  12998.3  113.026
 22.2496  12843  112.375
 22.2916  13045.1  113.14
 22.3336  12938.3  113.399
 22.3756  12936.6  113.116
 22.4176  12813.1  112.431
 22.4596  12504.2  111.655
 22.5016  13058.1  113.56
 22.5436  12914.6  112.841
 22.5856  12855.9  112.832
 22.6276  12800.9  112.726
 22.6696  12818.9  113.151
 22.7116  12750.6  112.368
 22.7536  12954.7  113.241
 22.7956  12936.4  112.488
 22.8376  12752.3  112.204
 22.8796  12757.9  112.029
 22.9216  12966.8  113.493
 22.9636  12666.7  111.327
 23.0056  12914  112.542
 23.0476  12929.6  113.192
 23.0896  13064.2  113.146
 23.1316  12961.9  113.145
 23.1736  12817  115.49
 23.2156  12862.3  113.04
 23.2576  12780.2  112.819
 23.2996  12773.2  112.573
 23.3416  12537.1  112.052
 23.3836  12606.7  111.587
 23.4256  12794.8  112.541
 23.4676  12669.1  111.68
 23.5096  12665  112.34
 23.5516  12546  111.095
 23.5936  12828.8  113.246
 23.6356  12730.8  112.48
 23.6776  12769.8  112.872
 23.7196  12496.7  111.235
 23.7616  12870.5  112.796
 23.8036  12634.9  111.813
 23.8456  12730.4  111.789
 23.8876  12392  110.647
 23.9296  12393.6  111.151
 23.9716  12578.2  111.16
 24.0136  12520.5  111.806
 24.0556  12385  110.935
 24.0976  12312.6  110.416
 24.1396  12224.7  112.674
 24.1816  12346.1  111.642
 24.2236  12144.1  110.337
 24.2656  12244.6  110.262
 24.3076  12075.6  109.744
 24.3496  12239.5  110.378
 24.3916  12085.3  109.736
 24.4336  11903.4  109.114
 24.4756  11965.5  109.256
 24.5176  11841.3  108.347
 24.5596  11855.3  108.537
 24.6016  11713.6  108.175
 24.6436  11899.4  108.52
 24.6856  11885.6  108.214
 24.7276  11869.1  108.453
 24.7696  11765  108.094
 24.8116  11733.8  108.133
 24.8536  11589  107.46
 24.8956  11563.3  107.078
 24.9376  11479.6  106.627
 24.9796  11434.4  106.772
 25.0216  11281.5  106.17
 25.0636  11409.7  106.42
 25.1056  11157.7  105.94
 25.1476  11376.5  108.646
 25.1896  11596.1  108.138
 25.2316  11504.6  106.972
 25.2736  11395.8  106.118
 25.3156  11372.3  106.089
 25.3576  11229.5  105.844
 25.3996  11308.5  106.19
 25.4416  11312.7  106.197
 25.4836  11044.6  105.453
 25.5256  11395.1  106.471
 25.5676  11367.4  106.065
 25.6096  11113  105.447
 25.6516  11247.5  105.579
 25.6936  11091.8  105.162
 25.7356  11106.7  105.367
 25.7776  11286.1  105.814
 25.8196  11026.7  104.83
 25.8616  11167.3  105.417
 25.9036  11290.4  105.46
 25.9456  11044.8  104.901
 25.9876  10996.4  104.736
 26.0296  11086.9  104.673
 26.0716  10992  104.651
 26.1136  11105.5  105.13
 26.1556  11325.5  105.536
 26.1976  10920.3  104.56
 26.2396  11142.2  104.76
 26.2816  11039.7  104.887
 26.3236  11010.1  104.914
 26.3656  10993.6  104.561
 26.4076  11024.7  104.916
 26.4496  11704.1  107.546
 26.4916  11081.2  104.677
 26.5336  10994  104.589
 26.5756  11223  105.546
 26.6176  11042.3  104.729
 26.6596  10760  103.689
 26.7016  10813.7  103.705
 26.7436  10711  103.349
 26.7856  10606.1  102.818
 26.8276  10765.4  103.549
 26.8696  10669.2  102.955
 26.9116  10867.8  103.847
 26.9536  10722.2  103.199
 26.9956  10655.1  102.907
 27.0376  10548.1  102.608
 27.0796  10795  103.525
 27.1216  10569.1  102.519
 27.1636  10555.2  102.616
 27.2056  10550.7  102.474
 27.2476  10543.5  102.439
 27.2896  10584.6  102.747
 27.3316  10500.7  102.058
 27.3736  10401.5  101.836
 27.4156  10430.2  101.824
 27.4576  10507  102.428
 27.4996  10412.6  101.562
 27.5416  10539.4  102.496
 27.5836  10450.1  101.879
 27.6256  10720.6  103.35
 27.6676  10636.2  102.963
 27.7096  10330.1  101.346
 27.7516  10529  102.457
 27.7936  10446.3  102.239
 27.8356  10424.9  101.749
 27.8776  10385  101.598
 27.9196  10340.6  101.227
 27.9616  10418.4  101.803
 28.0036  10502.6  102.182
 28.0456  10305.7  101.352
 28.0876  10266  101.251
 28.1296  10200.8  100.769
 28.1716  10221.3  100.884
 28.2136  10228.2  100.875
 28.2556  10140.1  100.551
 28.2976  10175.7  100.725
 28.3396  10239.9  100.796
 28.3816  10103.2  100.146
 28.4236  10138.8  100.476
 28.4656  10080.2  100.221
 28.5076  10068  99.7948
 28.5496  10110.5  100.271
 28.5916  10072  99.8817
 28.6336  10013.4  99.9414
 28.6756  10063  99.3795
 28.7176  9986.47  99.5526
 28.7596  9784.83  98.4427
 28.8016  9998.31  99.541
 28.8436  9945.25  99.5236
 28.8856  9950.03  99.3954
 28.9276  10091.9  100.35
 28.9696  9834.26  98.7194
 29.0116  9901.08  99.24
 29.0536  9596.29  97.8946
 29.0956  9864.84  98.9763
 29.1376  9827.59  98.752
 29.1796  9748.49  98.399
 29.2216  9809.83  98.5463
 29.2636  9813.88  98.6466
 29.3056  9775.57  98.2419
 29.3476  9794.93  98.868
 29.3896  9798.17  98.9761
 29.4316  10009.8  99.3665
 29.4736  9777.26  98.2687
 29.5156  9985.29  99.2279
 29.5576  9739.01  98.7397
 29.5996  9721.43  97.9072
 29.6416  9783.24  98.3345
 29.6836  9855.25  98.6172
 29.7256  9817.04  99.0011
 29.7676  9838.66  98.7661
 29.8096  9685.4  97.9348
 29.8516  9589.09  97.7892
 29.8936  9789.03  98.8953
 29.9356  9855.19  98.9802
 29.9776  9715.54  98.4311
 30.0196  9792.63  98.2011
 30.0616  9693.56  98.0803
 30.1036  9680.01  97.8312
 30.1456  9639.73  97.8641
 30.1876  9636.68  97.8301
 30.2296  9561.94  97.3952
 30.2716  9637.27  97.4136
 30.3136  9755.8  98.8827
 30.3556  9712.91  98.6833
 30.3976  9679.51  100.043
 30.4396  9721.96  97.5899
 30.4816  9586.73  96.4991
 30.5236  9696.98  97.0776
 30.5656  9565.06  97.0641
 30.6076  9647.32  96.9085
 30.6496  9659.79  97.353
 30.6916  9465.76  96.464
 30.7336  9602.89  97.3174
 30.7756  9539.65  97.0881
 30.8176  9507.28  96.8392
 30.8596  9507.08  96.6063
 30.9016  9467.95  96.7501
 30.9436  9636.92  97.3612
 30.9856  9526.73  96.9152
 31.0276  9389.56  95.811
 31.0696  9361.94  96.2518
 31.1116  9357.52  96.2054
 31.1536  9542.74  97.0251
 31.1956  9458.13  96.6906
 31.2376  9418.36  96.4985
 31.2796  9378.79  95.8314
 31.3216  9457.96  96.1777
 31.3636  9395.52  96.5519
 31.4056  9400.11  97.9007
 31.4476  9359.02  95.5693
 31.4896  9436.6  96.4716
 31.5316  9386.62  95.6104
 31.5736  9718.51  97.1004
 31.6156  9509.16  96.0725
 31.6576  9372.83  95.4729
 31.6996  9428.95  95.4373
 31.7416  9313.13  95.9092
 31.7836  9302.66  94.8699
 31.8256  9226.84  94.7593
 31.8676  9363.58  95.4522
 31.9096  9167.79  94.8004
 31.9516  9096.13  94.5738
 31.9936  9231.38  95.1128
 32.0356  9235.08  95.1985
 32.0776  9195.44  94.8822
 32.1196  9162.98  94.8001
 32.1616  9339.08  95.1618
 32.2036  9038.57  94.1277
 32.2456  9205.77  95.3798
 32.2876  9180.16  94.7405
 32.3296  9171.66  94.6614
 32.3716  9158.11  94.6861
 32.4136  9207.16  95.1599
 32.4556  9177.31  94.381
 32.4976  9265.98  94.7458
 32.5396  9237.99  94.6741
 32.5816  8967.12  93.3979
 32.6236  9101.1  94.1619
 32.6656  9164.52  95.0352
 32.7076  9129.31  94.5019
 32.7496  9056.31  93.7951
 32.7916  9183.04  94.406
 32.8336  9155.7  94.3593
 32.8756  9216.21  94.389
 32.9176  9088.11  94.2148
 32.9596  8991.72  93.7911
 33.0016  9036.44  93.8189
 33.0436  9190.97  94.7881
 33.0856  9033.47  94.045
 33.1276  8938.66  93.2774
 33.1696  8992.59  93.4137
 33.2116  9108.71  94.2365
 33.2536  9057.28  93.9758
 33.2956  9070.1  94.1217
 33.3376  8857.46  92.7511
 33.3796  9112.32  94.2884
 33.4216  9056.74  93.5966
 33.4636  8939.65  93.1345
 33.5056  8900.16  93.1685
 33.5476  8805.71  92.6661
 33.5896  8975.18  93.3229
 33.6316  8832.44  92.9017
 33.6736  8832.79  93.1382
 33.7156  8744.72  92.7196
 33.7576  8871.33  93.0157
 33.7996  9042.93  93.6669
 33.8416  8798.56  92.5884
 33.8836  8824.65  92.4983
 33.9256  8817.2  92.5239
 33.9676  8877.36  92.7288
 34.0096  8794.57  92.617
 34.0516  8749.91  92.0188
 34.0936  8818.33  92.6333
 34.1356  8850.28  92.5414
 34.1776  8834.73  92.4769
 34.2196  8686.74  91.8823
 34.2616  8641.42  91.7741
 34.3036  8660.86  92.1321
 34.3456  8659.13  91.8713
 34.3876  8689.2  91.999
 34.4296  8746.02  91.9868
 34.4716  8797.82  92.4074
 34.5136  8897.52  93.1293
 34.5556  8675.61  92.2238
 34.5976  8636.04  91.8156
 34.6396  8758.1  92.17
 34.6816  8718.1  92.0754
 34.7236  8697.58  91.7512
 34.7656  8694.34  91.9249
 34.8076  8649.22  92.0162
 34.8496  8644.29  91.8401
 34.8916  8663.91  91.816
 34.9336  8768.3  92.3331
 34.9756  8661.37  91.6898
 35.0176  8600.95  91.904
 35.0596  8581.14  91.625
 35.1016  8671.99  91.8699
 35.1436  8804.37  92.2482
 35.1856  8592.61  91.2656
 35.2276  8654.65  91.7675
 35.2696  8622.73  91.7918
 35.3116  8648.3  92.02
 35.3536  8552.86  91.2217
 35.3956  8637.9  91.3804
 35.4376  8378.2  90.5518
 35.4796  8623.65  91.9235
 35.5216  8476.87  91.096
 35.5636  8275.04  90.7456
 35.6056  8585.39  91.4378
 35.6476  8540.89  91.1004
 35.6896  8496.74  90.9439
 35.7316  8495.67  90.919
 35.7736  8351.05  90.3409
 35.8156  8451.83  90.883
 35.8576  8534.76  91.5727
 35.8996  8667.65  92.2428
 35.9416  8793.65  92.3601
 35.9836  8421.84  90.7912
 36.0256  8616.38  91.852
 36.0676  8496.03  90.9697
 36.1096  8357.61  90.3588
 36.1516  8542.01  91.2428
 36.1936  8594.61  91.3649
 36.2356  8426.67  91.1158
 36.2776  8471.55  90.8338
 36.3196  8499.81  90.6515
 36.3616  8443.03  90.4781
 36.4036  8461.56  90.6381
 36.4456  8437.39  90.7235
 36.4876  8254.05  89.6658
 36.5296  8378.16  90.3837
 36.5716  8468.77  91.6568
 36.6136  8555.61  90.8725
 36.6556  8488.38  90.7216
 36.6976  8415.24  90.8312
 36.7396  8376.08  90.3461
 36.7816  8295.85  90.289
 36.8236  8355.73  90.5314
 36.8656  8285.27  90.2331
 36.9076  8268.78  90.013
 36.9496  8350.63  90.4467
 36.9916  8381.29  90.2402
 37.0336  8486.31  91.1213
 37.0756  8304.26  89.9297
 37.1176  8250.13  89.9078
 37.1596  8233.53  89.8169
 37.2016  8244.85  90.1124
 37.2436  8333.65  89.9093
 37.2856  8365.9  90.3372
 37.3276  8405.81  89.8983
 37.3696  8314.18  90.2986
 37.4116  8357.3  90.4385
 37.4536  8151.64  89.1848
 37.4956  8170.39  89.3228
 37.5376  8281.85  91.5047
 37.5796  8183.84  90.9321
 37.6216  8269.28  89.6499
 37.6636  8258.83  89.4978
 37.7056  8323.01  90.0342
 37.7476  8176.57  88.7749
 37.7896  8120.08  88.9613
 37.8316  7988.92  88.4206
 37.8736  8288.51  89.575
 37.9156  7988.97  87.9477
 37.9576  8256.15  89.304
 37.9996  8060.9  87.9487
 38.0416  8087.35  88.9053
 38.0836  8349  90.2315
 38.1256  8074.09  88.6919
 38.1676  8040.95  88.6523
 38.2096  8158.23  88.9217
 38.2516  8303.12  89.9066
 38.2936  8081.63  88.4964
 38.3356  8146.41  88.7679
 38.3776  8021.23  88.3618
 38.4196  8163.7  88.9894
 38.4616  8263.35  89.7718
 38.5036  8138.37  88.9401
 38.5456  8102.14  89.5736
 38.5876  8087.53  89.5277
 38.6296  8030.18  88.1817
 38.6716  7917.91  87.3621
 38.7136  7848.32  86.9192
 38.7556  7926.03  87.8518
 38.7976  8102.98  88.7664
 38.8396  8024.93  88.7923
 38.8816  7960.1  88.2112
 38.9236  7856.98  87.4515
 38.9656  8059.75  88.484
 39.0076  8063.18  87.9042
 39.0496  7953.98  87.8504
 39.0916  8064.08  88.0968
 39.1336  7935.8  87.8113
 39.1756  8078.93  88.6682
 39.2176  7963.22  88.5586
 39.2596  8009.82  88.7416
 39.3016  7872.02  87.5459
 39.3436  7863.37  87.925
 39.3856  7950.06  87.8505
 39.4276  7897  88.0557
 39.4696  7959.59  88.0253
 39.5116  7888.29  88.1479
 39.5536  7977.34  89.07
 39.5956  7968.94  88.1148
 39.6376  8046.11  88.545
 39.6796  7942.46  87.7107
 39.7216  8064.16  88.4792
 39.7636  7897.63  88.1413
 39.8056  7994.48  88.4529
 39.8476  7894.54  88.1527
 39.8896  7936.76  88.0155
 39.9316  7984.56  88.5349
 39.9736  8009.96  88.2436
 40.0156  7984.84  87.9298
 40.0576  7921.71  87.9422
 40.0996  8143.19  88.3402
 40.1416  8045.48  88.5983
 40.1836  8057.65  88.5507
 40.2256  8055.81  88.5951
 40.2676  7941.07  88.0687
 40.3096  8131.47  89.0266
 40.3516  8058.62  88.7412
 40.3936  8165.68  88.8913
 40.4356  7975.23  88.0441
 40.4776  8062.92  88.9364
 40.5196  8015.7  88.8065
 40.5616  8132  89.0904
 40.6036  8024.58  88.7552
 40.6456  8062.32  88.5721
 40.6876  8238.29  89.5189
 40.7296  8073.17  88.7537
 40.7716  8030.94  88.6465
 40.8136  8018.77  88.5199
 40.8556  8041.31  88.7868
 40.8976  8123.08  89.1511
 40.9396  7952  88.563
 40.9816  8099.7  88.6567
 41.0236  8129.53  88.5951
 41.0656  8097.58  88.9695
 41.1076  8145.21  88.9919
 41.1496  8118.42  88.7603
 41.1916  7989.27  88.3727
 41.2336  8021.6  88.543
 41.2756  7923.72  87.6068
 41.3176  7984.2  88.5606
 41.3596  8036.17  88.5745
 41.4016  7959.9  88.4115
 41.4436  8066.14  88.7825
 41.4856  8065.82  88.9457
 41.5276  8050.45  88.8785
 41.5696  8025.67  88.3738
 41.6116  7948.84  88.3494
 41.6536  8007.09  88.5238
 41.6956  8037.13  88.7527
 41.7376  7912.03  88.0839
 41.7796  7913.85  87.974
 41.8216  7914.99  88.217
 41.8636  8093.44  89.1421
 41.9056  7902.27  87.8702
 41.9476  8113.94  89.2861
 41.9896  8061.07  88.649
 42.0316  8097.52  88.9363
 42.0736  7966.78  88.3305
 42.1156  7881.79  87.6927
 42.1576  7945.57  88.1428
 42.1996  7982.23  88.4925
 42.2416  8013.98  88.2431
 42.2836  7863.23  87.5206
 42.3256  7874.49  87.7044
 42.3676  7970.22  88.0418
 42.4096  7970.23  87.995
 42.4516  7891.41  87.6563
 42.4936  7836.23  87.4112
 42.5356  7897.64  87.8882
 42.5776  7884.5  87.757
 42.6196  7997.7  88.4354
 42.6616  7798.86  87.5004
 42.7036  7937.12  87.655
 42.7456  7961.5  88.1521
 42.7876  7938.88  88.121
 42.8296  7865.88  87.5521
 42.8716  7890.21  87.8472
 42.9136  7873.61  87.5424
 42.9556  7993.89  88.3439
 42.9976  8011.2  88.3974
 43.0396  7840.88  87.1845
 43.0816  7752.29  87.0667
 43.1236  7734.76  87.0314
 43.1656  7920.55  87.8992
 43.2076  7798.26  87.3179
 43.2496  7787.67  87.0788
 43.2916  7836.41  87.7132
 43.3336  7908.64  87.9511
 43.3756  7796.07  87.0775
 43.4176  7788.11  87.1191
 43.4596  7754.71  86.787
 43.5016  7753.87  87.1878
 43.5436  7646.11  86.4827
 43.5856  7805.47  87.399
 43.6276  7702.67  86.7161
 43.6696  7612.16  86.466
 43.7116  7795.57  86.9974
 43.7536  7798.38  87.5016
 43.7956  7643.62  87.8163
 43.8376  7763.42  87.0329
 43.8796  7653.87  86.4981
 43.9216  7736.61  86.8791
 43.9636  7810.86  87.408
 44.0056  7550.2  86.1663
 44.0476  7647.78  86.3526
 44.0896  7612.08  86.4937
 44.1316  7755.83  86.8249
 44.1736  7585.86  85.9925
 44.2156  7808.38  87.0939
 44.2576  7579.4  86.134
 44.2996  7667.48  86.6073
 44.3416  7682.45  86.447
 44.3836  7454.11  85.4756
 44.4256  7445.3  85.0736
 44.4676  7601.34  86.1208
 44.5096  7606.18  86.2885
 44.5516  7454.54  85.3751
 44.5936  7463.92  85.3907
 44.6356  7666.22  86.2845
 44.6776  7500.25  85.6631
 44.7196  7523.86  86.1028
 44.7616  7513.61  87.3734
 44.8036  7426.05  85.302
 44.8456  7543.04  86.181
 44.8876  7500.37  85.7833
 44.9296  7662.99  86.1611
 44.9716  7583.68  86.1457
 45.0136  7500.68  85.6045
 45.0556  7584.51  86.0561
 45.0976  7455.03  85.4827
 45.1396  7368.08  84.7495
 45.1816  7452.65  85.1609
 45.2236  7479.05  85.2148
 45.2656  7478.64  85.7091
 45.3076  7497.35  85.6027
 45.3496  7344.17  85.0244
 45.3916  7382.41  85.5118
 45.4336  7398.77  85.4562
 45.4756  7380.14  85.2093
 45.5176  7514.15  85.5906
 45.5596  7695.79  86.7355
 45.6016  7279.71  84.775
 45.6436  7478.88  85.1035
 45.6856  7378.93  85.1848
 45.7276  7274.81  85.891
 45.7696  7384.1  86.1983
 45.8116  7483.81  86.2179
 45.8536  7323.97  85.1904
 45.8956  7485.39  85.4716
 45.9376  7512.66  85.0884
 45.9796  7330.07  84.7274
 46.0216  7347.9  85.1776
 46.0636  7548.74  85.4542
 46.1056  7267.46  83.8467
 46.1476  7466.64  85.5831
 46.1896  7374.6  85.2047
 46.2316  7254.77  84.3754
 46.2736  7299.74  85.0062
 46.3156  7417.37  85.2726
 46.3576  7394.44  85.3436
 46.3996  7361.65  85.3158
 46.4416  7368.45  84.9364
 46.4836  7211.28  84.3735
 46.5256  7331.43  85.0123
 46.5676  7295.88  84.918
 46.6096  7243.42  84.5463
 46.6516  7347.99  84.2013
 46.6936  7272.99  84.2549
 46.7356  7445.46  85.3579
 46.7776  7240.15  85
 46.8196  7275.35  84.8056
 46.8616  7103.56  83.7473
 46.9036  7231.73  84.1619
 46.9456  7282.87  84.0947
 46.9876  7248.84  83.9861
 47.0296  7209.42  84.4419
 47.0716  7149.48  83.9133
 47.1136  7242.26  84.1411
 47.1556  7197.8  83.7427
 47.1976  7242.53  84.0888
 47.2396  7186.84  84.1576
 47.2816  7063.12  83.1344
 47.3236  7196.99  84.2887
 47.3656  7185.74  84.1517
 47.4076  7131.71  83.6375
 47.4496  7163.08  83.9127
 47.4916  7036.69  83.3579
 47.5336  7137.16  83.7706
 47.5756  7212.5  84.3243
 47.6176  7051.24  83.275
 47.6596  7134.84  83.4866
 47.7016  7247.15  83.9579
 47.7436  7213.99  84.0986
 47.7856  7200.26  84.0403
 47.8276  7074.4  83.3537
 47.8696  7127.22  83.7539
 47.9116  7115.31  83.4023
 47.9536  7071.09  83.0823
 47.9956  7042.74  83.6139
 48.0376  6992.94  83.0997
 48.0796  7162.42  84.2275
 48.1216  7215.65  84.3586
 48.1636  7271.06  84.2585
 48.2056  7115.72  83.6145
 48.2476  7152.46  84.1399
 48.2896  7100.79  83.7465
 48.3316  6965.22  82.8784
 48.3736  6935.9  82.7337
 48.4156  6938.01  82.5903
 48.4576  7024.3  83.399
 48.4996  7098.51  83.2974
 48.5416  7206.54  84.2557
 48.5836  7034.28  82.9238
 48.6256  7138.3  83.7439
 48.6676  7084.4  83.9327
 48.7096  7033.39  82.9084
 48.7516  7011.02  82.9191
 48.7936  6952.93  82.636
 48.8356  7043.69  83.2277
 48.8776  7016.58  83.6273
 48.9196  7130.4  83.6787
 48.9616  7002.54  83.2988
 49.0036  7040.32  83.88
 49.0456  6951.5  83.3277
 49.0876  7007.23  83.192
 49.1296  6867.16  82.5243
 49.1716  6885.36  82.5017
 49.2136  7049.01  83.4035
 49.2556  6980.17  83.0305
 49.2976  7002.17  83.2331
 49.3396  6866.41  82.4713
 49.3816  7081.35  83.1824
 49.4236  6904.59  82.553
 49.4656  6855.28  82.2808
 49.5076  6961.09  82.6631
 49.5496  6883.3  82.2629
 49.5916  6991.41  82.825
 49.6336  6897.27  82.4635
 49.6756  6900.44  82.7266
 49.7176  6868.4  82.4618
 49.7596  6892.2  82.3795
 49.8016  6987.14  82.8578
 49.8436  6800.38  82.0359
 49.8856  6897.24  82.6248
 49.9276  6771.47  81.9675
 49.9696  6878.56  82.5913
 50.0116  6808.99  82.3139
 50.0536  6910.31  82.8719
 50.0956  6904.56  82.9008
 50.1376  6867.72  82.3843
 50.1796  6809.63  82.3005
 50.2216  6767.83  82.0351
 50.2636  6820.24  81.9829
 50.3056  6833.17  82.2286
 50.3476  6819.06  82.168
 50.3896  6796.68  82.0002
 50.4316  6803.68  81.8851
 50.4736  6761.15  81.8452
 50.5156  6781.61  81.9565
 50.5576  6821.09  81.957
 50.5996  6787.19  82.0326
 50.6416  6761.41  81.8071
 50.6836  6741.95  81.7474
 50.7256  6847.37  82.3014
 50.7676  6785.81  82.2539
 50.8096  6732.76  81.4735
 50.8516  6771.52  82.1216
 50.8936  6718.58  81.5811
 50.9356  6797.95  82.169
 50.9776  6682.82  81.6202
 51.0196  6638.38  81.4703
 51.0616  6649.23  80.8703
 51.1036  6759.35  81.8866
 51.1456  6750.44  81.7496
 51.1876  6690.2  80.7343
 51.2296  6592.77  80.7713
 51.2716  6541.28  80.1606
 51.3136  6644.78  81.2396
 51.3556  6625.63  80.7558
 51.3976  6602.1  80.7652
 51.4396  6499.96  80.4365
 51.4816  6585.61  80.8174
 51.5236  6626.5  81.1572
 51.5656  6582.04  80.4925
 51.6076  6631.69  80.8758
 51.6496  6662.2  81.2513
 51.6916  6596.38  81.2026
 51.7336  6685.47  81.8383
 51.7756  6614.66  81.1055
 51.8176  6684.86  81.6374
 51.8596  6531.24  80.7137
 51.9016  6801.54  81.9663
 51.9436  6592.27  82.134
 51.9856  6404.87  81.3982
 52.0276  6559.53  80.9039
 52.0696  6662.02  81.6012
 52.1116  6560.76  81.0898
 52.1536  6524.78  80.7591
 52.1956  6609.3  80.7377
 52.2376  6677.98  81.3307
 52.2796  6542.92  80.3184
 52.3216  6519.11  80.8646
 52.3636  6570.93  80.7628
 52.4056  6500.48  80.1875
 52.4476  6411.37  79.9971
 52.4896  6402.52  79.9884
 52.5316  6463.55  80.4135
 52.5736  6544.13  80.6424
 52.6156  6548.74  81.0508
 52.6576  6530.33  80.3797
 52.6996  6283.27  79.7998
 52.7416  6605.01  81.6512
 52.7836  6526.92  81.0662
 52.8256  6455.65  79.8625
 52.8676  6408.85  80.1414
 52.9096  6553.15  81.1181
 52.9516  6456.13  80.8811
 52.9936  6399.21  80.9119
 53.0356  6385.71  79.8388
 53.0776  6343.12  79.8242
 53.1196  6232.87  79.2562
 53.1616  6368.43  80.1631
 53.2036  6367.45  80.1101
 53.2456  6366.38  80.197
 53.2876  6232.87  79.0665
 53.3296  6289.72  79.7528
 53.3716  6366.24  79.9854
 53.4136  6277.4  79.5702
 53.4556  6292.99  79.6976
 53.4976  6212.26  79.0388
 53.5396  6345.47  80.2681
 53.5816  6369.1  80.058
 53.6236  6293.41  79.9084
 53.6656  6306.43  79.6314
 53.7076  6310.54  79.6214
 53.7496  6359.06  80.0479
 53.7916  6438.84  80.6741
 53.8336  6238.67  79.3108
 53.8756  6231.29  79.7985
 53.9176  6384.65  80.1223
 53.9596  6320.51  80.4749
 54.0016  6298.6  79.6782
 54.0436  6225.08  79.42
 54.0856  6409.8  80.0188
 54.1276  6365.67  79.9456
 54.1696  6292.37  79.6532
 54.2116  6253.18  79.1651
 54.2536  6348.27  79.577
 54.2956  6319.03  79.4411
 54.3376  6292.19  79.7536
 54.3796  6239.78  79.3187
 54.4216  6432.39  80.5851
 54.4636  6331.71  79.9082
 54.5056  6359.98  79.9126
 54.5476  6245.4  79.5179
 54.5896  6312.91  79.7777
 54.6316  6358.94  79.9225
 54.6736  6328.74  79.8084
 54.7156  6323.92  79.8035
 54.7576  6216.06  79.1118
 54.7996  6301.94  79.7965
 54.8416  6304.66  79.8664
 54.8836  6223.11  79.4613
 54.9256  6318.72  79.8176
 54.9676  6316.56  79.6584
 55.0096  6239.64  79.244
 55.0516  6309.82  79.9182
 55.0936  6296.22  79.4595
 55.1356  6235.77  79.1236
 55.1776  6196.79  79.144
 55.2196  6254.54  79.2894
 55.2616  6252.59  79.4923
 55.3036  6062.02  78.4299
 55.3456  6281.73  79.9862
 55.3876  6300.38  79.8482
 55.4296  6282.97  79.7139
 55.4716  6254.82  79.5694
 55.5136  6278.56  79.4754
 55.5556  6314.75  79.7756
 55.5976  6224.71  79.2662
 55.6396  6177.16  78.9094
 55.6816  6188.31  78.8598
 55.7236  6261.22  79.3557
 55.7656  6301.92  79.3782
 55.8076  6295.05  79.3139
 55.8496  6224.39  79.1908
 55.8916  6124.67  78.7543
 55.9336  6295.97  79.6703
 55.9756  6177.86  78.807
 56.0176  6156.9  78.8232
 56.0596  6190.51  79.0249
 56.1016  6245.47  79.3771
 56.1436  6170.18  79.1643
 56.1856  6246.11  79.3912
 56.2276  6193.25  79.11
 56.2696  6132.86  78.699
 56.3116  6180.7  79.4078
 56.3536  6098.61  78.5381
 56.3956  6174.01  79.0123
 56.4376  6248.64  79.5209
 56.4796  6275.31  79.4904
 56.5216  6234.79  79.5917
 56.5636  6264.2  79.3831
 56.6056  6129.54  78.7556
 56.6476  6210.93  78.9092
 56.6896  6090.42  78.579
 56.7316  6158.54  78.9232
 56.7736  6284.93  79.7308
 56.8156  6182.41  79.0733
 56.8576  6142.4  78.7622
 56.8996  6037.24  78.0224
 56.9416  6211.61  79.4456
 56.9836  6136.65  78.477
 57.0256  6101.56  78.5729
 57.0676  6177.99  79.192
 57.1096  6296.04  79.7286
 57.1516  6243.35  79.4531
 57.1936  6180.73  78.8044
 57.2356  6174.37  79.083
 57.2776  6180.71  79.0753
 57.3196  6163.39  79.3408
 57.3616  6147.38  78.7255
 57.4036  6267.3  79.5541
 57.4456  6127.49  78.6312
 57.4876  6260.4  79.3399
 57.5296  6147.27  78.9571
 57.5716  6071.5  78.4543
 57.6136  6187.04  79.0143
 57.6556  6122.04  78.7378
 57.6976  6137.43  78.6588
 57.7396  5981.42  78.0276
 57.7816  6100.42  79.1514
 57.8236  6063.43  78.71
 57.8656  6110.38  78.6706
 57.9076  6229.5  79.464
 57.9496  6081.09  78.8633
 57.9916  6103.13  78.5178
 58.0336  6169.6  79.2182
 58.0756  6094.23  78.3737
 58.1176  6108.62  78.4612
 58.1596  6036.53  78.5638
 58.2016  6282.73  79.3528
 58.2436  6191.33  79.1928
 58.2856  6195.86  79.139
 58.3276  6103  78.9154
 58.3696  6031.76  78.2047
 58.4116  6084.57  78.408
 58.4536  6208.52  79.0902
 58.4956  6135.2  78.8066
 58.5376  6160.28  78.535
 58.5796  6174.47  79.0528
 58.6216  6325.59  79.8238
 58.6636  6131.91  78.8048
 58.7056  6132.43  78.6665
 58.7476  6058.1  78.6361
 58.7896  6155.29  78.9059
 58.8316  6170.67  78.9992
 58.8736  6217.46  79.307
 58.9156  6164.41  79.0068
 58.9576  6220.65  79.6842
 58.9996  6333.8  79.6408
 59.0416  6286.23  79.7211
 59.0836  6148.4  78.763
 59.1256  6059.66  78.8929
 59.1676  6155.69  79.8288
 59.2096  6211.67  79.4888
 59.2516  6291.52  79.5705
 59.2936  6409.31  80.6499
 59.3356  6168.52  78.9969
 59.3776  6388.87  80.5693
 59.4196  6204.09  79.3312
 59.4616  6160.21  78.9082
 59.5036  6114.57  78.6511
 59.5456  6267.94  79.3189
 59.5876  6350.26  80.034
 59.6296  6173.81  78.9842
 59.6716  6172.57  79.0348
 59.7136  6262.35  79.5956
 59.7556  6163.75  79.1043
 59.7976  6157.96  78.8068
 59.8396  6213.43  79.0538
 59.8816  6089.64  78.8099
 59.9236  6263.51  79.5642
 59.9656  6127.14  78.9549
 60.0076  6341.18  79.6647
 60.0496  6289.06  79.8487
 60.0916  6217.82  78.8068
 60.1336  6001.46  78.5273
 60.1756  5943.99  79.3252
 60.1996  0.0000000E+00  0.0000000E+00