File: docs/examples/opeando_xrd/IS17_D/Data/IS17_D/17_Da_f00011.xye
# /beamlines/bl04/projects/cycle2025-II/20250340211-lsimonelli/DATA/IS17_D/17_Da_f00011.xye : mythproc.py merge -s 0.006 -l 0.5 -f /beamlines/bl04/inhouse/ff/FlatField/ff_20Nov2024rod8mm60s_17keV.raw -b True -c true -o xye /beamlines/bl04/projects/cycle2025-II/20250340211-lsimonelli/DATA/IS17_D/17_Da_00011.dat
# IsMon = [6742230, 6735345, 6741626]  IsPos = [-1.5000, -2.4885, -3.4988]
# Wave = 0.4962  CalPath /beamlines/bl04/projects/cycle2025-II/20250340211-lsimonelli/DATA/Align/Si_Pos1_25keV_f00001.cal
# Date = 2025-09-23_20:36:41 Dt = 4.8000  Bin = 0.0060  <imon> = 6739734 +/- 3113 (Min/Max) 6735345 / 6742230
# icurr 248.6648  mocoIn 1.6978E-05  mocoOut 0.7961  i15 7.04936e+06  imon 6.73973e+06  i7 5.3333  iEMpd_timer 4.8000  iEMpd_1 3.4882E-08  iEMpd_2 7.8101E-08  iEMpd_3 1.6059E-08  iEMpd_4 4.7990E-08  iEMhp_timer 4.8000  iEMhp_1 4.8617E-06  iEMhp_2 -2.4201E-08  iEMhp_3 -2.3949E-08  iEMhp_4 -2.0702E-08
#      9776
 1.5856  37453.8  198.688
 1.6276  44083.6  211.858
 1.6696  50730.9  226.469
 1.7116  60132.4  247.044
 1.7536  69790.6  265.011
 1.7956  73610.2  272.847
 1.8376  69876.5  266.258
 1.8796  58377  241.574
 1.9216  46740.8  217.023
 1.9636  39498.5  199.187
 2.0056  35015.2  186.345
 2.0476  32463.6  181.394
 2.0896  31050.1  176.36
 2.1316  30084.8  172.763
 2.1736  28997.4  170.957
 2.2156  29003  169.602
 2.2576  28150  167.688
 2.2996  27012  164.866
 2.3416  27692.6  165.597
 2.3836  26887.5  163.274
 2.4256  26255.5  161.869
 2.4676  26010.8  160.885
 2.5096  26610.9  162.783
 2.5516  37097.7  196.594
 2.5936  165328  406.87
 2.6356  31815.4  179.236
 2.6776  25674.4  159.915
 2.7196  24440.4  156.527
 2.7616  24125.2  155.302
 2.8036  23499.2  153.437
 2.8456  23557.2  154.219
 2.8876  22912.4  151.949
 2.9296  22670  151.288
 2.9716  22193.7  149.208
 3.0136  22146.9  149.114
 3.0556  22236.9  149.796
 3.0976  22141.7  148.446
 3.1396  21800.7  147.997
 3.1816  21714.1  147.637
 3.2236  21458.2  146.757
 3.2656  21556.9  146.195
 3.3076  21481.4  147.311
 3.3496  21604.8  146.959
 3.3916  22145.9  148.38
 3.4336  22585.7  150.402
 3.4756  22813.8  151.077
 3.5176  23601.7  153.478
 3.5596  23506.2  156.026
 3.6016  23867  154.383
 3.6436  23038.9  152.752
 3.6856  22600.3  149.636
 3.7276  21665.6  147.574
 3.7696  21400.3  146.633
 3.8116  21005.1  145.365
 3.8536  21147.7  145.787
 3.8956  21201.6  145.815
 3.9376  21839  148.235
 3.9796  21149.9  145.408
 4.0216  21037.5  144.111
 4.0636  21182.7  146.019
 4.1056  21134.2  145.515
 4.1476  21153.2  145.861
 4.1896  21496.5  146.915
 4.2316  21482.5  146.688
 4.2736  22087.1  148.543
 4.3156  22289  149.439
 4.3576  23100.3  152.067
 4.3996  23334.5  153.095
 4.4416  24031.9  154.952
 4.4836  25511  159.816
 4.5256  25263.5  159.614
 4.5676  25129.9  159.447
 4.6096  25296.2  159.021
 4.6516  26036.1  160.689
 4.6936  26124.7  161.75
 4.7356  26919.7  164.031
 4.7776  26219.8  161.728
 4.8196  25471  160.01
 4.8616  25309.2  159.14
 4.9036  25117.4  158.151
 4.9456  25213.9  159.096
 4.9876  24453.9  156.584
 5.0296  24468.5  156.453
 5.0716  24447  157.004
 5.1136  24509.2  157.059
 5.1556  25211.8  158.777
 5.1976  35808.7  189.188
 5.2396  25966.4  160.822
 5.2816  25358.9  159.373
 5.3236  25372.6  159.138
 5.3656  24872.9  158.449
 5.4076  24615  157.77
 5.4496  24702.2  157.559
 5.4916  24839.1  157.757
 5.5336  24848.5  157.8
 5.5756  24460.9  156.579
 5.6176  24923.2  157.517
 5.6596  24951.4  158.394
 5.7016  25010.5  158.022
 5.7436  25242.3  159.012
 5.7856  24970.8  158.215
 5.8276  25364.7  159.196
 5.8696  25406.5  159.369
 5.9116  25463.3  160.244
 5.9536  25593  160.405
 5.9956  25864.7  160.65
 6.0376  26106.5  162.017
 6.0796  26345.3  162.594
 6.1216  26347.3  162.803
 6.1636  26598.5  162.665
 6.2056  26685.2  163.583
 6.2476  26741.7  163.439
 6.2896  27028.9  164.191
 6.3316  26730  163.44
 6.3736  26954.2  164.03
 6.4156  26922.2  163.889
 6.4576  27264.1  164.488
 6.4996  27392.7  165.351
 6.5416  27575.9  166.025
 6.5836  27956.8  167.401
 6.6256  27693.1  166.18
 6.6676  28145.7  167.112
 6.7096  27824.2  166.968
 6.7516  28431.7  168.455
 6.7936  29845.2  172.009
 6.8356  30378.8  173.635
 6.8776  29754.6  172.638
 6.9196  29052.2  170.969
 6.9616  29720.1  172.353
 7.0036  29983.6  172.804
 7.0456  29910.8  171.908
 7.0876  29972.5  173.637
 7.1296  29811.7  172.428
 7.1716  29780.7  171.877
 7.2136  29333.6  170.384
 7.2556  29704.6  171.614
 7.2976  29857.1  172.537
 7.3396  29571.9  171.929
 7.3816  29757.7  172.664
 7.4236  30163.9  173.149
 7.4656  30516.8  173.655
 7.5076  30628  174.102
 7.5496  30292  173.663
 7.5916  30555.1  174.449
 7.6336  31366.8  176.651
 7.6756  30947  175.319
 7.7176  31248.1  176.471
 7.7596  31429  178.202
 7.8016  37895.2  198.001
 7.8436  32494.5  180.102
 7.8856  32605.1  180.031
 7.9276  33050.7  181.626
 7.9696  33074.9  182.012
 8.0116  33955.1  182.985
 8.0536  34592.4  184.95
 8.0956  36963.3  192.39
 8.1376  35239.1  187.317
 8.1796  34956.8  187.105
 8.2216  36149.8  189.017
 8.2636  37289.5  192.219
 8.3056  36341.4  190.509
 8.3476  38619.6  195.723
 8.3896  37519.1  192.996
 8.4316  36376.9  190.197
 8.4736  36443.7  189.842
 8.5156  35988.6  188.929
 8.5576  36082.4  190.148
 8.5996  35809.5  188.306
 8.6416  35659.8  189.163
 8.6836  35595.4  188.796
 8.7256  36915.3  191.742
 8.7676  39097.2  200.274
 8.8096  38966.9  197.149
 8.8516  36045.8  189.274
 8.8936  37786.2  193.636
 8.9356  35310.7  187.517
 8.9776  35378.5  187.798
 9.0196  34942.5  186.317
 9.0616  35730.6  187.861
 9.1036  37665.2  194.125
 9.1456  34964.7  186.395
 9.1876  34414.2  184.868
 9.2296  34296.1  183.971
 9.2716  33566.4  182.062
 9.3136  33442.1  181.71
 9.3556  33917.9  182.983
 9.3976  32376.6  179.283
 9.4396  32966.8  180.802
 9.4816  32626.9  179.735
 9.5236  32524  179.368
 9.5656  31970.2  178.147
 9.6076  32044.2  178.871
 9.6496  31982.8  178.624
 9.6916  31747.6  177.942
 9.7336  31974.7  178.358
 9.7756  31804  179.087
 9.8176  31350.1  177.368
 9.8596  31038.8  174.98
 9.9016  30528.8  173.535
 9.9436  30751.8  173.938
 9.9856  30641.1  173.993
 10.0276  29801.7  172.656
 10.0696  30394.9  173.43
 10.1116  29620.4  171.465
 10.1536  29039.2  169.443
 10.1956  28709  168.575
 10.2376  28289.9  166.85
 10.2796  28415.3  167.357
 10.3216  28503.6  167.753
 10.3636  28457  167.774
 10.4056  32482.6  179.679
 10.4476  33178.2  181.18
 10.4896  37472.4  191.935
 10.5316  33635.5  182.233
 10.5736  28447.2  168.333
 10.6156  27998.4  166.755
 10.6576  34059.5  182.375
 10.6996  27916.9  165.774
 10.7416  27123.6  163.626
 10.7836  28256.2  167.711
 10.8256  26197  161.89
 10.8676  26411.3  162.11
 10.9096  26232.9  161.576
 10.9516  25871.7  159.432
 10.9936  26956.3  162.924
 11.0356  26660.8  162.671
 11.0776  28212.1  166.628
 11.1196  27926.5  166.542
 11.1616  25950.3  160.257
 11.2036  27293.7  164.186
 11.2456  28821.5  169.473
 11.2876  25050.6  157.714
 11.3296  25459.4  158.901
 11.3716  25932.1  160.099
 11.4136  25014.7  158.086
 11.4556  25519.3  159.339
 11.4976  27155  163.331
 11.5396  27199.7  163.646
 11.5816  25162.7  157.812
 11.6236  24597.9  156.482
 11.6656  24271.8  154.401
 11.7076  23991.4  154.332
 11.7496  24457.6  159.658
 11.7916  24807.1  156.204
 11.8336  23723.8  153.649
 11.8756  24327.9  155.099
 11.9176  23629.3  152.528
 11.9596  23330  151.721
 12.0016  23074.9  151.672
 12.0436  23128.4  151.285
 12.0856  22956.8  151.237
 12.1276  22989.9  151.254
 12.1696  23026.3  150.542
 12.2116  23785.6  153.006
 12.2536  25847.4  160.313
 12.2956  23770.2  153.122
 12.3376  23378  152.042
 12.3796  23047.1  151.418
 12.4216  23405.5  151.824
 12.4636  24255.2  155.467
 12.5056  22888.4  150.32
 12.5476  22844.6  149.72
 12.5896  22707.7  149.886
 12.6316  22383.5  148.956
 12.6736  22527.7  149.904
 12.7156  22841.9  150.805
 12.7576  22584.4  150.197
 12.7996  23036.3  150.37
 12.8416  23333.9  152.378
 12.8836  24155.4  154.871
 12.9256  23373.6  151.375
 12.9676  23560.5  152.401
 13.0096  22975.8  151.544
 13.0516  23212.1  151.388
 13.0936  23191.8  151.445
 13.1356  23414.5  151.457
 13.1776  23395.9  152.367
 13.2196  23124.5  151.144
 13.2616  23134.5  151.48
 13.3036  23017.4  151.219
 13.3456  23203.1  151.817
 13.3876  23197.1  151.307
 13.4296  23244.3  151.611
 13.4716  23443.9  151.876
 13.5136  23243.8  151.384
 13.5556  23433.5  152.605
 13.5976  23386.3  152.583
 13.6396  23773.3  153.225
 13.6816  23164.6  151.594
 13.7236  24168.7  154.611
 13.7656  23508.9  153.018
 13.8076  24525.1  155.083
 13.8496  23372.4  152.162
 13.8916  23208.7  152.432
 13.9336  23048.2  151.151
 13.9756  22829.3  149.802
 14.0176  22891.7  150.671
 14.0596  23974.7  154.147
 14.1016  22683  150.332
 14.1436  22195.4  147.858
 14.1856  22198.3  148.164
 14.2276  22365.6  149.187
 14.2696  22700.7  150.15
 14.3116  21871.4  147.296
 14.3536  21441.2  146.002
 14.3956  21470.2  145.849
 14.4376  21487.1  145.679
 14.4796  21404.5  145.395
 14.5216  21192.6  145.449
 14.5636  21524.8  146.152
 14.6056  21188.2  144.585
 14.6476  20946.2  143.017
 14.6896  20558.4  142.208
 14.7316  20271.4  142.214
 14.7736  20006.8  140.472
 14.8156  19935.7  140.247
 14.8576  20048.3  140.495
 14.8996  19898.4  141.146
 14.9416  19351.1  139.188
 14.9836  19498.3  139.674
 15.0256  19368.1  138.185
 15.0676  19110  137.566
 15.1096  18810.5  136.229
 15.1516  18455.5  135.487
 15.1936  18584.2  135.393
 15.2356  18583.5  135.662
 15.2776  18601.1  135.32
 15.3196  18416.4  135.629
 15.3616  18106.4  134.233
 15.4036  17890.3  133.301
 15.4456  18729  136.047
 15.4876  18134  133.555
 15.5296  17859.4  132.829
 15.5716  17330.9  130.452
 15.6136  17493.1  131.386
 15.6556  19942.4  139.483
 15.6976  17980.2  132.521
 15.7396  17856.6  132.65
 15.7816  17663.4  131.461
 15.8236  17118  130.092
 15.8656  17084.4  129.768
 15.9076  17190.6  129.999
 15.9496  17377.3  133.443
 15.9916  16653  131.075
 16.0336  16323.1  126.737
 16.0756  16655.2  128.323
 16.1176  16486.9  127.591
 16.1596  16005.9  127.006
 16.2016  16386.4  127.279
 16.2436  16110  126.574
 16.2856  16268.3  126.752
 16.3276  15557.2  124.347
 16.3696  15606.8  124.369
 16.4116  15413.2  124.048
 16.4536  15783.7  125.311
 16.4956  16505.8  127.888
 16.5376  16127.8  126.592
 16.5796  15833.9  124.812
 16.6216  15633.6  124.322
 16.6636  15727.1  124.845
 16.7056  15506.8  123.832
 16.7476  15597  123.738
 16.7896  15494.1  124.058
 16.8316  15433.5  123.769
 16.8736  15894.4  125.857
 16.9156  15778.5  125.74
 16.9576  15382  124.955
 16.9996  15431.3  125.627
 17.0416  15573.5  124.61
 17.0836  15150.9  122.668
 17.1256  15013.9  122.122
 17.1676  15602.1  124.486
 17.2096  15553.2  124.165
 17.2516  15124.8  122.508
 17.2936  14737.5  120.965
 17.3356  14383.2  119.494
 17.3776  14470.1  120.055
 17.4196  14607  120.326
 17.4616  14921.9  121.533
 17.5036  15120  122.708
 17.5456  14413.7  120.426
 17.5876  14204.9  118.628
 17.6296  14243.7  118.584
 17.6716  14622.6  120.745
 17.7136  15251.2  123.446
 17.7556  14396.8  120.231
 17.7976  14387.6  119.818
 17.8396  14358  119.327
 17.8816  14027.4  118.478
 17.9236  14063.1  118.438
 17.9656  14136.7  119.425
 18.0076  14820.7  121.689
 18.0496  15594.9  123.943
 18.0916  21221.7  145.219
 18.1336  18472.7  135.614
 18.1756  15693.6  124.503
 18.2176  16342.9  127.294
 18.2596  14271.9  118.71
 18.3016  15019.4  122.028
 18.3436  15736.5  125.153
 18.3856  14459.6  119.86
 18.4276  14094  118.018
 18.4696  14473.1  119.692
 18.5116  14363.5  119.53
 18.5536  14061.8  118.608
 18.5956  14128.9  118.457
 18.6376  14170.7  119.043
 18.6796  13823.5  116.902
 18.7216  14039.9  118.369
 18.7636  13715  116.908
 18.8056  13543.8  116.123
 18.8476  13292.7  115.644
 18.8896  13223.1  114.699
 18.9316  13615.8  116.218
 18.9736  13411.1  115.203
 19.0156  13850.8  117.487
 19.0576  13906.5  116.584
 19.0996  13587.4  115.94
 19.1416  13511.8  115.993
 19.1836  13329.9  114.827
 19.2256  13097.7  114.032
 19.2676  13145.8  114.328
 19.3096  13224.2  114.909
 19.3516  13176.8  114.481
 19.3936  13391.5  115.502
 19.4356  13328.5  115.089
 19.4776  13392.7  115.469
 19.5196  13203.1  114.502
 19.5616  13343.3  115.354
 19.6036  13313.5  114.737
 19.6456  13353.5  115.035
 19.6876  13893  116.984
 19.7296  13305.4  114.917
 19.7716  13194.1  114.458
 19.8136  13364.8  115.534
 19.8556  13880.3  117.223
 19.8976  14020.2  117.886
 19.9396  13743.9  116.301
 19.9816  14100.1  118.043
 20.0236  14362.3  119.349
 20.0656  13644.5  116.331
 20.1076  13236  115.014
 20.1496  13050.7  114.217
 20.1916  13266.6  114.642
 20.2336  13103  113.912
 20.2756  12840.5  113.179
 20.3176  12840.9  112.936
 20.3596  13001.6  113.617
 20.4016  12946.3  113.182
 20.4436  12882.2  113.453
 20.4856  12647.5  112.203
 20.5276  12723.6  112.991
 20.5696  12707.8  112.497
 20.6116  12700.3  112.628
 20.6536  12647  111.974
 20.6956  12654.8  112.068
 20.7376  12569.9  111.92
 20.7796  12626.4  111.86
 20.8216  12696.3  111.889
 20.8636  12837.5  112.866
 20.9056  14350.9  119.288
 20.9476  12725.7  112.162
 20.9896  13922.3  117.191
 21.0316  12854.4  112.507
 21.0736  13149.8  114.313
 21.1156  13421.4  115.652
 21.1576  12803.4  113.002
 21.1996  12551.4  111.862
 21.2416  12338.5  110.739
 21.2836  12799.8  112.758
 21.3256  12450.6  111.284
 21.3676  12672.5  111.837
 21.4096  12870.3  113.072
 21.4516  12426.9  110.931
 21.4936  12217.4  110.25
 21.5356  12318  110.637
 21.5776  12456.6  111.097
 21.6196  12629.2  111.888
 21.6616  12553.1  111.647
 21.7036  12273.4  110.174
 21.7456  12298  110.36
 21.7876  12044.7  108.981
 21.8296  12087.7  109.035
 21.8716  12113.8  109.379
 21.9136  12515.5  111.375
 21.9556  12700  111.867
 21.9976  12253.7  109.892
 22.0396  12256.9  110.161
 22.0816  12237.9  110.604
 22.1236  12546.5  111.451
 22.1656  12244.1  110.283
 22.2076  12319.7  110.059
 22.2496  12218.5  109.639
 22.2916  12363.1  110.158
 22.3336  12327  110.698
 22.3756  12141.8  109.607
 22.4176  12109.6  109.318
 22.4596  11871.9  108.804
 22.5016  12233.1  109.954
 22.5436  12344.7  110.333
 22.5856  12279.3  110.293
 22.6276  12005  109.196
 22.6696  12038.4  109.681
 22.7116  11962.3  108.868
 22.7536  12128.4  109.59
 22.7956  12180.5  109.177
 22.8376  12052.3  109.095
 22.8796  12091.5  109.086
 22.9216  12159.6  109.92
 22.9636  11960.5  108.194
 23.0056  12056.3  108.762
 23.0476  12263.1  110.251
 23.0896  12560.9  110.966
 23.1316  12321.6  110.335
 23.1736  12007  111.795
 23.2156  12128.6  109.758
 23.2576  11998  109.28
 23.2996  12025.1  109.21
 23.3416  11924.8  109.247
 23.3836  11871.8  108.265
 23.4256  11997.2  108.941
 23.4676  12189.7  109.524
 23.5096  12102.9  109.796
 23.5516  12003.1  108.638
 23.5936  12134.5  110.119
 23.6356  12445.7  111.182
 23.6776  12054.8  109.643
 23.7196  11818.6  108.359
 23.7616  12100.9  109.354
 23.8036  11959.9  108.738
 23.8456  11786.4  107.548
 23.8876  11764.6  107.79
 23.9296  11834.5  108.59
 23.9716  11745  107.39
 24.0136  12003  109.449
 24.0556  11830.5  108.401
 24.0976  11727.7  107.744
 24.1396  11647.1  109.984
 24.1816  11673.9  108.885
 24.2236  11593.2  107.808
 24.2656  11769.8  108.107
 24.3076  11676.1  107.911
 24.3496  12068.3  109.621
 24.3916  11826.8  108.553
 24.4336  11591.2  107.675
 24.4756  11560.9  107.404
 24.5176  11298.5  105.837
 24.5596  11180.1  105.587
 24.6016  11100.9  105.309
 24.6436  11368.1  106.048
 24.6856  11458.1  106.251
 24.7276  11406.2  106.328
 24.7696  11252.1  105.714
 24.8116  11320.4  106.222
 24.8536  11109.9  105.212
 24.8956  11255  105.643
 24.9376  11102.8  105.091
 24.9796  11108  105.238
 25.0216  11183.9  105.698
 25.0636  11246.8  105.66
 25.1056  10909  104.49
 25.1476  11003  106.841
 25.1896  10920.7  104.952
 25.2316  11036.3  104.77
 25.2736  11023.4  104.376
 25.3156  10780.4  103.281
 25.3576  10706.2  103.342
 25.3996  10823.7  103.88
 25.4416  10717.8  103.365
 25.4836  10765.9  104.112
 25.5256  10692  103.133
 25.5676  10945.9  104.09
 25.6096  10668.8  103.316
 25.6516  10708.9  103.03
 25.6936  10635.1  102.963
 25.7356  10669.2  103.27
 25.7776  10708.3  103.144
 25.8196  10609.7  102.819
 25.8616  10645.2  102.921
 25.9036  11024.4  104.21
 25.9456  10655.4  103.041
 25.9876  10385.5  101.644
 26.0296  10637.7  102.618
 26.0716  10509.2  102.322
 26.1136  10808.2  103.71
 26.1556  10926.7  103.658
 26.1976  10463.6  102.346
 26.2396  10657.8  102.716
 26.2816  10573.4  102.648
 26.3236  10682.9  103.352
 26.3656  10609.9  102.712
 26.4076  10535.3  102.558
 26.4496  10883  103.753
 26.4916  10661.9  102.679
 26.5336  10514.5  102.284
 26.5756  10814.8  103.592
 26.6176  10658.6  102.902
 26.6596  10427.5  102.071
 26.7016  10305.4  101.249
 26.7436  10155.8  100.623
 26.7856  10305.6  101.353
 26.8276  10062.5  100.108
 26.8696  10164  100.486
 26.9116  10333.9  101.263
 26.9536  10039.5  99.8611
 26.9956  10108  100.234
 27.0376  10134.4  100.562
 27.0796  10127.9  100.358
 27.1216  10271.7  101.057
 27.1636  10080.3  100.281
 27.2056  10167.8  100.597
 27.2476  9968.61  99.6059
 27.2896  10014.7  99.9509
 27.3316  9953.63  99.3554
 27.3736  9956.12  99.6378
 27.4156  9870.85  99.0477
 27.4576  10076.9  100.31
 27.4996  9964  99.3361
 27.5416  10094.7  100.312
 27.5836  9939.12  99.3557
 27.6256  10117.3  100.398
 27.6676  10196.7  100.822
 27.7096  10014.8  99.7728
 27.7516  10741.4  103.498
 27.7936  10400.5  102.004
 27.8356  10336.8  101.319
 27.8776  10166.7  100.515
 27.9196  10147.8  100.282
 27.9616  10158.8  100.522
 28.0036  10086.1  100.135
 28.0456  9865.82  99.1638
 28.0876  9647.2  98.1533
 28.1296  9819.44  98.8646
 28.1716  9831.93  98.9338
 28.2136  9837.65  98.9351
 28.2556  9671.21  98.197
 28.2976  9752.33  98.6102
 28.3396  9850.63  98.9106
 28.3816  9715.32  98.2053
 28.4236  9902.67  99.3057
 28.4656  9665.28  98.1362
 28.5076  9473.54  96.8033
 28.5496  9474.37  97.065
 28.5916  9581.84  97.422
 28.6336  9403.48  96.8406
 28.6756  9664.94  97.3974
 28.7176  9545.46  97.3332
 28.7596  9432.69  96.6542
 28.8016  9426.79  96.6663
 28.8436  9385.07  96.6795
 28.8856  9399.48  96.6055
 28.9276  9510.89  97.4179
 28.9696  9419.81  96.6191
 29.0116  9459.24  97.0011
 29.0536  9370.22  96.7375
 29.0956  9483.66  97.0498
 29.1376  9408.55  96.6264
 29.1796  9336.12  96.2979
 29.2216  9349.12  96.2095
 29.2636  9288.89  95.887
 29.3056  9379.69  96.2347
 29.3476  9386.7  96.785
 29.3896  9463.16  97.2672
 29.4316  9367.48  96.1426
 29.4736  9331.77  96.0145
 29.5156  9437.29  96.485
 29.5576  9287.81  96.4519
 29.5996  9359.94  96.087
 29.6416  9246.45  95.6245
 29.6836  9349.1  96.0777
 29.7256  9211.91  95.9232
 29.7676  9430.73  96.7098
 29.8096  9340.82  96.1971
 29.8516  9204.14  95.8127
 29.8936  9225.62  96.0253
 29.9356  9356.74  96.463
 29.9776  9326.2  96.4548
 30.0196  9336.08  95.905
 30.0616  9373.24  96.4648
 30.1036  9207.49  95.4429
 30.1456  9075.26  94.9661
 30.1876  9097.38  95.0775
 30.2296  9070.24  94.8679
 30.2716  9194.82  95.1706
 30.3136  9126.41  95.6552
 30.3556  9192.67  96.0028
 30.3976  9137.86  97.2081
 30.4396  9251.13  95.1671
 30.4816  9285.95  94.9571
 30.5236  9169.02  94.3764
 30.5656  9170.51  95.0216
 30.6076  9137.29  94.6243
 30.6496  9012.58  94.0177
 30.6916  9038.11  94.2432
 30.7336  8989.17  94.1361
 30.7756  9012.43  94.3481
 30.8176  9032.41  94.3704
 30.8596  9070.66  94.3383
 30.9016  8974.28  93.714
 30.9436  9053.6  94.3461
 30.9856  9061.21  94.4898
 31.0276  9008.84  93.8408
 31.0696  8978.2  94.2398
 31.1116  8881.33  93.7047
 31.1536  9233.7  95.4318
 31.1956  8945.99  94.0198
 31.2376  8787.23  93.1862
 31.2796  8857.02  93.1065
 31.3216  8807.96  92.7973
 31.3636  8905.2  93.9992
 31.4056  8899.58  95.2583
 31.4476  8835.29  92.8561
 31.4896  8827.98  93.3109
 31.5316  9010.83  93.7245
 31.5736  9833.72  97.6742
 31.6156  9531.08  96.1866
 31.6576  9067.03  93.915
 31.6996  9189.5  94.2203
 31.7416  9115.9  94.7438
 31.7836  8962.25  93.1205
 31.8256  8936.86  93.3297
 31.8676  8937.28  93.251
 31.9096  8833.73  92.9349
 31.9516  8755.17  92.7978
 31.9936  8745.34  92.5874
 32.0356  8831.77  93.1011
 32.0776  8786.19  92.7492
 32.1196  8844.9  93.0525
 32.1616  8879.58  92.7976
 32.2036  8798.37  92.8618
 32.2456  8779.05  93.1447
 32.2876  8692.23  92.0343
 32.3296  8643.46  91.898
 32.3716  8694.61  92.2746
 32.4136  8754.61  92.7952
 32.4556  8912.85  93.0681
 32.4976  8869.85  92.7309
 32.5396  8716.96  91.9653
 32.5816  8608.55  91.5043
 32.6236  8690.22  92.0075
 32.6656  8781.78  93.0284
 32.7076  8617.41  91.8148
 32.7496  8630.79  91.5661
 32.7916  8642.39  91.5832
 32.8336  8739.29  92.198
 32.8756  8702.62  91.7171
 32.9176  8612.68  91.7086
 32.9596  8651.15  91.9916
 33.0016  8727.25  92.2023
 33.0436  8734.45  92.4058
 33.0856  8679.6  92.1835
 33.1276  8456.66  90.7349
 33.1696  8596.45  91.3252
 33.2116  8589.58  91.5201
 33.2536  8624.51  91.6949
 33.2956  8574.52  91.5141
 33.3376  8494.98  90.9124
 33.3796  8623  91.722
 33.4216  8578.88  91.0914
 33.4636  8554.44  91.1031
 33.5056  8439.26  90.726
 33.5476  8396.97  90.4844
 33.5896  8595.46  91.2882
 33.6316  8432.55  90.757
 33.6736  8287.23  90.216
 33.7156  8484.03  91.327
 33.7576  8413.91  90.5768
 33.7996  8562.42  91.1557
 33.8416  8284.86  89.841
 33.8836  8418.7  90.3437
 33.9256  8488.35  90.7749
 33.9676  8476.3  90.6118
 34.0096  8234.82  89.6135
 34.0516  8373.11  90.0122
 34.0936  8327.37  90.0257
 34.1356  8590.92  91.1828
 34.1776  8339.42  89.8555
 34.2196  8252.37  89.5564
 34.2616  8293.36  89.9163
 34.3036  8222.61  89.7621
 34.3456  8254.68  89.7022
 34.3876  8308.41  90.0472
 34.4296  8203.27  89.0813
 34.4716  8384.79  90.2067
 34.5136  8335.68  90.1435
 34.5556  8365.6  90.565
 34.5976  8396.86  90.561
 34.6396  8324.52  89.862
 34.6816  8309.03  89.8824
 34.7236  8360.2  89.9508
 34.7656  8339.23  90.0287
 34.8076  8251.28  89.8647
 34.8496  8209.1  89.5037
 34.8916  8283.07  89.7789
 34.9336  8334.76  90.0241
 34.9756  8575.31  91.232
 35.0176  8282.56  90.1786
 35.0596  8200.7  89.5646
 35.1016  8189.87  89.2805
 35.1436  8249.27  89.2972
 35.1856  8122.14  88.7297
 35.2276  8255.77  89.6308
 35.2696  8257.89  89.8194
 35.3116  8287.19  90.0815
 35.3536  8058.71  88.5747
 35.3956  8155.97  88.7958
 35.4376  8168  89.3895
 35.4796  8211.13  89.7
 35.5216  8108.57  89.0867
 35.5636  7888  88.5981
 35.6056  8194.87  89.3406
 35.6476  8146.65  88.9737
 35.6896  8209.54  89.4688
 35.7316  8067.36  88.5991
 35.7736  8052.64  88.7081
 35.8156  7953.4  88.1562
 35.8576  8144.36  89.4497
 35.8996  8327.06  90.4148
 35.9416  8204.17  89.2648
 35.9836  8074.64  88.9988
 36.0256  8141.19  89.2833
 36.0676  8187.53  89.0846
 36.1096  8015.29  88.4902
 36.1516  8108.29  88.8897
 36.1936  8184.16  89.158
 36.2356  8062.03  89.1239
 36.2776  8041.38  88.4799
 36.3196  8013.23  88.0188
 36.3616  8006.01  88.1084
 36.4036  8047.68  88.3922
 36.4456  8006.33  88.3648
 36.4876  7925.38  87.8625
 36.5296  8041.52  88.5456
 36.5716  8083.19  89.5465
 36.6136  8308.87  89.5728
 36.6556  8265.82  89.5347
 36.6976  8110.38  89.1874
 36.7396  8082.09  88.773
 36.7816  8033.74  88.8695
 36.8236  8209.21  89.7582
 36.8656  7857.3  87.8797
 36.9076  8067.88  89.0582
 36.9496  7980.4  88.4241
 36.9916  8033.19  88.3617
 37.0336  8159.06  89.3595
 37.0756  8149.17  89.1033
 37.1176  7799.56  87.4342
 37.1596  7930.53  88.1703
 37.2016  7939.25  88.3958
 37.2436  8082.51  88.5599
 37.2856  7870.27  87.6456
 37.3276  8042.4  87.945
 37.3696  7979.16  88.4854
 37.4116  7895.52  87.9136
 37.4536  7714.76  86.7772
 37.4956  7845.66  87.5494
 37.5376  7832.7  88.986
 37.5796  7829.84  88.9329
 37.6216  7603.92  85.9541
 37.6636  7837.4  87.1624
 37.7056  7647.77  86.285
 37.7476  7764  86.4881
 37.7896  7749.53  86.9067
 37.8316  7634.42  86.4155
 37.8736  7935.29  87.6359
 37.9156  7776.44  86.7528
 37.9576  7688.45  86.1529
 37.9996  7642.17  85.6128
 38.0416  7588.97  86.1049
 38.0836  7686.07  86.5575
 38.1256  7841.9  87.3926
 38.1676  7815.9  87.3872
 38.2096  7849.5  87.1994
 38.2516  7930.35  87.8462
 38.2936  7891.4  87.4312
 38.3356  7946.61  87.6595
 38.3776  7686.32  86.4802
 38.4196  7848.65  87.247
 38.4616  7748.39  86.9061
 38.5036  7844.66  87.2968
 38.5456  7686.89  87.2542
 38.5876  7756.21  87.6852
 38.6296  7521.82  85.3526
 38.6716  7571.47  85.4249
 38.7136  7598.25  85.5255
 38.7556  7635.67  86.2293
 38.7976  7641.6  86.2038
 38.8396  7646.51  86.6753
 38.8816  7459.17  85.3921
 38.9236  7412.38  84.9429
 38.9656  7650.61  86.2116
 39.0076  7656.35  85.6619
 39.0496  7517.69  85.4002
 39.0916  7672.28  85.9306
 39.1336  7648.79  86.2091
 39.1756  7619.32  86.1106
 39.2176  7702.24  87.1075
 39.2596  7708.28  87.0542
 39.3016  7553.79  85.7443
 39.3436  7469.6  85.6972
 39.3856  7712.08  86.5332
 39.4276  7692.08  86.8985
 39.4696  7615.38  86.1002
 39.5116  7555.34  86.2594
 39.5536  7657.32  87.2647
 39.5956  7723.48  86.7578
 39.6376  7739.66  86.8419
 39.6796  7640.84  86.0392
 39.7216  7704.98  86.4858
 39.7636  7583.2  86.3569
 39.8056  7661.75  86.5858
 39.8476  7611.64  86.5605
 39.8896  7613.55  86.2035
 39.9316  7611.37  86.4464
 39.9736  7640.05  86.191
 40.0156  7618.69  85.8914
 40.0576  7709.34  86.7644
 40.0996  7789.73  86.3998
 40.1416  7745.1  86.9306
 40.1836  7702.42  86.5773
 40.2256  7630.36  86.2197
 40.2676  7617.88  86.3188
 40.3096  7713.98  86.7199
 40.3516  7773.34  87.1732
 40.3936  7803.37  86.8973
 40.4356  7758.5  86.8456
 40.4776  7729  86.9134
 40.5196  7630.38  86.6449
 40.5616  7746.96  86.9497
 40.6036  7588.92  86.3116
 40.6456  7709.89  86.6093
 40.6876  7771.45  86.9461
 40.7296  7727.86  86.8361
 40.7716  7726.47  86.9462
 40.8136  7633.04  86.3734
 40.8556  7749.4  87.152
 40.8976  7757.71  87.1272
 40.9396  7565.68  86.3776
 40.9816  7777.76  86.8749
 41.0236  7638.34  85.877
 41.0656  7782.49  87.2198
 41.1076  7734.08  86.7238
 41.1496  7773.78  86.8531
 41.1916  7659.19  86.5348
 41.2336  7631.16  86.3554
 41.2756  7770.79  86.7536
 41.3176  7637.84  86.6107
 41.3596  7682.52  86.5949
 41.4016  7603.57  86.4098
 41.4436  7775.96  87.1722
 41.4856  7714.96  86.9902
 41.5276  7665.84  86.731
 41.5696  7721.61  86.6617
 41.6116  7608.96  86.4276
 41.6536  7681.66  86.7102
 41.6956  7783.25  87.2608
 41.7376  7686.5  86.8212
 41.7796  7686.11  86.7463
 41.8216  7623.34  86.577
 41.8636  7722.33  87.0784
 41.9056  7578.18  86.0526
 41.9476  7771.52  87.3612
 41.9896  7662.67  86.4264
 42.0316  7756.14  87.0403
 42.0736  7672.22  86.7082
 42.1156  7632.28  86.2926
 42.1576  7596.56  86.1933
 42.1996  7731.76  87.0947
 42.2416  7726.52  86.6546
 42.2836  7572.77  85.895
 42.3256  7576.16  86.0266
 42.3676  7577.07  85.8325
 42.4096  7726.39  86.636
 42.4516  7662.96  86.3678
 42.4936  7597.87  86.0748
 42.5356  7640  86.4431
 42.5776  7670.61  86.5517
 42.6196  7595.66  86.1967
 42.6616  7398.88  85.227
 42.7036  7657.54  86.0938
 42.7456  7540.94  85.7842
 42.7876  7623.91  86.3618
 42.8296  7602.36  86.0667
 42.8716  7505.72  85.6785
 42.9136  7493.95  85.3672
 42.9556  7613.74  86.2088
 42.9976  7596.31  86.0883
 43.0396  7523.96  85.4061
 43.0816  7554.62  85.9468
 43.1236  7505.4  85.7299
 43.1656  7456.53  85.2848
 43.2076  7452.87  85.3601
 43.2496  7463.47  85.2421
 43.2916  7450.56  85.5273
 43.3336  7495.28  85.6265
 43.3756  7490.29  85.3526
 43.4176  7439.34  85.1445
 43.4596  7421.76  84.8993
 43.5016  7446.99  85.4455
 43.5436  7344.85  84.758
 43.5856  7435.02  85.2975
 43.6276  7417.68  85.1031
 43.6696  7480.07  85.6013
 43.7116  7413.34  84.8364
 43.7536  7475.55  85.6741
 43.7956  7370.34  86.2491
 43.8376  7438.28  85.2132
 43.8796  7476.59  85.5061
 43.9216  7383.52  84.894
 43.9636  7422.64  85.2147
 44.0056  7339.49  84.9731
 44.0476  7279.13  84.2539
 44.0896  7319.83  84.833
 44.1316  7399.43  84.9638
 44.1736  7400.52  84.9517
 44.2156  7397.19  84.7908
 44.2576  7287.87  84.4785
 44.2996  7341.96  84.765
 44.3416  7432.55  85.0402
 44.3836  7202.03  84.0294
 44.4256  7152.66  83.395
 44.4676  7183.25  83.7344
 44.5096  7333.9  84.7495
 44.5516  7082.84  83.2467
 44.5936  7064.49  83.0989
 44.6356  7214.35  83.7188
 44.6776  7464.02  85.4769
 44.7196  7249.14  84.5261
 44.7616  7200.74  85.5485
 44.8036  7245.8  84.448
 44.8456  7178.19  84.0496
 44.8876  7171.28  83.8614
 44.9296  7188.68  83.4348
 44.9716  7171.91  83.7533
 45.0136  7209.11  83.9041
 45.0556  7079.18  83.228
 45.0976  7165.11  83.7938
 45.1396  6953.53  82.3098
 45.1816  7145.21  83.3729
 45.2236  7177  83.459
 45.2656  7096.06  83.4794
 45.3076  7153.28  83.6028
 45.3496  7019.89  83.1096
 45.3916  7133.71  84.0427
 45.4336  7077.61  83.5564
 45.4756  7003.53  82.9786
 45.5176  7217.07  83.8561
 45.5596  7243.93  84.1391
 45.6016  6999.1  83.1078
 45.6436  7103.84  82.9279
 45.6856  7087.17  83.4687
 45.7276  7042.12  84.5017
 45.7696  7037.81  84.1478
 45.8116  7099.51  83.9887
 45.8536  7033.37  83.4831
 45.8956  7149.4  83.531
 45.9376  7070.42  82.5493
 45.9796  7052.01  83.1034
 46.0216  7138.88  83.9549
 46.0636  7098.31  82.8775
 46.1056  7025.52  82.4396
 46.1476  7191.25  83.9886
 46.1896  7066.4  83.4056
 46.2316  7041.9  83.1312
 46.2736  6939.73  82.7191
 46.3156  7105.41  83.4619
 46.3576  7087.39  83.5555
 46.3996  7064.48  83.5769
 46.4416  7123.63  83.4953
 46.4836  7019.81  83.249
 46.5256  7146.55  83.9343
 46.5676  6973.04  83.0204
 46.6096  6971.57  82.9506
 46.6516  7047.52  82.4646
 46.6936  7177.37  83.7042
 46.7356  7093.24  83.3115
 46.7776  6977.53  83.4523
 46.8196  6906.62  82.7803
 46.8616  6808.4  81.9887
 46.9036  6785.27  81.5281
 46.9456  6842.8  81.5106
 46.9876  6894.22  81.9063
 47.0296  6842.03  82.2559
 47.0716  6876.49  82.2962
 47.1136  6880.49  82.0031
 47.1556  6918.09  82.0982
 47.1976  6936.74  82.3597
 47.2396  6803.36  81.8776
 47.2816  6816.53  81.6782
 47.3236  6833.65  82.1334
 47.3656  6910.84  82.531
 47.4076  6884  82.0946
 47.4496  6772.07  81.5965
 47.4916  6790.74  81.8896
 47.5336  6881.34  82.2474
 47.5756  6932.35  82.6782
 47.6176  6779.61  81.6597
 47.6596  6797.08  81.494
 47.7016  6978.5  82.3845
 47.7436  6944.28  82.5224
 47.7856  6898.4  82.2616
 47.8276  6863.92  82.1042
 47.8696  6855.07  82.1377
 47.9116  6932.04  82.314
 47.9536  6882.52  81.9673
 47.9956  6705.92  81.5959
 48.0376  6760.9  81.713
 48.0796  6860.35  82.4343
 48.1216  6858.37  82.2546
 48.1636  6966.54  82.4688
 48.2056  6841.16  81.9854
 48.2476  6889.27  82.5663
 48.2896  6847.73  82.2369
 48.3316  6811.05  81.9482
 48.3736  6690.93  81.252
 48.4156  6603.65  80.5861
 48.4576  6676.91  81.312
 48.4996  6821.79  81.6636
 48.5416  6841.08  82.0874
 48.5836  6813.99  81.6164
 48.6256  6773.66  81.563
 48.6676  6678.61  81.4913
 48.7096  6746.17  81.1899
 48.7516  6804.69  81.6884
 48.7936  6664.88  80.9112
 48.8356  6703.98  81.1942
 48.8776  6674.65  81.4966
 48.9196  6786.34  81.6247
 48.9616  6779.24  81.9587
 49.0036  6736.43  82.0317
 49.0456  6747.18  82.0918
 49.0876  6757.82  81.8042
 49.1296  6621.56  81.0356
 49.1716  6621.48  80.9069
 49.2136  6772.3  81.7612
 49.2556  6775.85  81.8019
 49.2976  6738.55  81.6437
 49.3396  6563.22  80.6329
 49.3816  6774.62  81.355
 49.4236  6650.2  81.0229
 49.4656  6598.78  80.73
 49.5076  6633.44  80.6939
 49.5496  6687.3  81.0911
 49.5916  6764.13  81.464
 49.6336  6589.62  80.6047
 49.6756  6700.09  81.4953
 49.7176  6663.37  81.2245
 49.7596  6597.19  80.5892
 49.8016  6664.26  80.9325
 49.8436  6607.59  80.8735
 49.8856  6554.47  80.5493
 49.9276  6508.6  80.3667
 49.9696  6535.04  80.5048
 50.0116  6623.25  81.1826
 50.0536  6618.62  81.0892
 50.0956  6496.99  80.4188
 50.1376  6582.41  80.6394
 50.1796  6570.58  80.8428
 50.2216  6563.39  80.7976
 50.2636  6595.55  80.6201
 50.3056  6464.05  79.9864
 50.3476  6490.43  80.1616
 50.3896  6454.94  79.9144
 50.4316  6487.24  79.9551
 50.4736  6380.35  79.5053
 50.5156  6521.27  80.3651
 50.5576  6582.42  80.5118
 50.5996  6453.52  79.9902
 50.6416  6500.86  80.2147
 50.6836  6498.4  80.2577
 50.7256  6577.94  80.661
 50.7676  6531.84  80.6501
 50.8096  6552.43  80.3759
 50.8516  6442.47  80.1019
 50.8936  6360.48  79.3653
 50.9356  6543.27  80.6096
 50.9776  6516.93  80.5936
 51.0196  6421.24  80.1429
 51.0616  6424.13  79.5109
 51.1036  6463.34  80.0918
 51.1456  6403.88  79.6411
 51.1876  6408.38  79.0305
 51.2296  6374.37  79.4367
 51.2716  6356.86  79.033
 51.3136  6308.88  79.1778
 51.3556  6413.25  79.4621
 51.3976  6334.33  79.1253
 51.4396  6247.55  78.8753
 51.4816  6384.57  79.5848
 51.5236  6399.44  79.7722
 51.5656  6403.73  79.4087
 51.6076  6338.51  79.0899
 51.6496  6315.51  79.1148
 51.6916  6352.92  79.7083
 51.7336  6339.91  79.7058
 51.7756  6410.5  79.861
 51.8176  6169.96  78.4491
 51.8596  6278.67  79.149
 51.9016  6466.41  79.9409
 51.9436  6318.77  80.4304
 51.9856  6227.54  80.264
 52.0276  6462.65  80.2887
 52.0696  6312.04  79.4038
 52.1116  6370.84  79.8946
 52.1536  6270.27  79.0993
 52.1956  6354.54  79.1553
 52.2376  6317.79  79.0962
 52.2796  6305.63  78.8238
 52.3216  6142.1  78.4748
 52.3636  6271.62  78.8854
 52.4056  6279.57  78.786
 52.4476  6171.16  78.4665
 52.4896  6231.74  78.9007
 52.5316  6237.2  78.9792
 52.5736  6245.42  78.7679
 52.6156  6161.01  78.5964
 52.6576  6328.59  79.1144
 52.6996  6056.34  78.3285
 52.7416  6284.99  79.6472
 52.7836  6247.37  79.2815
 52.8256  6236.59  78.472
 52.8676  6103.1  78.1835
 52.9096  6273.2  79.3424
 52.9516  6190.83  79.191
 52.9936  6136.04  79.2271
 53.0356  6113.6  78.1221
 53.0776  6089.07  78.2266
 53.1196  6029.21  77.9535
 53.1616  6037.46  78.0525
 53.2036  5996.57  77.744
 53.2456  5917.69  77.3154
 53.2876  6082.67  78.1147
 53.3296  5970.85  77.7058
 53.3716  6102.16  78.3003
 53.4136  6042.71  78.0701
 53.4556  6004.12  77.8501
 53.4976  6044.61  77.9661
 53.5396  6060.8  78.4595
 53.5816  6164.81  78.7607
 53.6236  5994.09  77.998
 53.6656  6067.72  78.1133
 53.7076  6024.58  77.7954
 53.7496  6057.03  78.1133
 53.7916  6034.94  78.1045
 53.8336  6003.74  77.7887
 53.8756  5941.66  77.9255
 53.9176  6059.11  78.0675
 53.9596  6130.25  79.2607
 54.0016  5949.75  77.445
 54.0436  5988.64  77.8992
 54.0856  6189.17  78.6322
 54.1276  6061.29  78.003
 54.1696  6011.94  77.8594
 54.2116  6076.86  78.0325
 54.2536  6101.66  78.0209
 54.2956  6057.78  77.7896
 54.3376  5973.57  77.7113
 54.3796  6079.72  78.3054
 54.4216  6061  78.2224
 54.4636  6016.72  77.8993
 54.5056  6042.56  77.885
 54.5476  6062.05  78.3434
 54.5896  6112.5  78.4943
 54.6316  6047.84  77.9465
 54.6736  6085.55  78.222
 54.7156  5982.78  77.6215
 54.7576  5972.19  77.5573
 54.7996  5969.48  77.6754
 54.8416  6058.5  78.2827
 54.8836  5861.26  77.108
 54.9256  6023.93  77.9295
 54.9676  6019.72  77.7666
 55.0096  5865.76  76.8329
 55.0516  5984.9  77.7744
 55.0936  6004.34  77.6007
 55.1356  5953.69  77.3212
 55.1776  5872.95  77.0415
 55.2196  6002.46  77.6774
 55.2616  5955.22  77.5765
 55.3036  5903.03  77.396
 55.3456  6018.31  78.287
 55.3876  6005.86  77.9576
 55.4296  6061.53  78.2997
 55.4716  5922.52  77.4295
 55.5136  5976.79  77.5485
 55.5556  5902.21  77.1242
 55.5976  5956.08  77.534
 55.6396  6004.07  77.7164
 55.6816  5964.46  77.4208
 55.7236  6029.89  77.8784
 55.7656  5996.79  77.432
 55.8076  6006.1  77.4817
 55.8496  5830.94  76.7517
 55.8916  5943.41  77.55
 55.9336  5945.3  77.3949
 55.9756  5899.73  77.0104
 56.0176  5939.82  77.4225
 56.0596  5791.81  76.4369
 56.1016  6043.95  78.1255
 56.1436  5930.87  77.6175
 56.1856  6006.12  77.8533
 56.2276  6036.79  78.1007
 56.2696  5915.17  77.285
 56.3116  5868.2  77.3656
 56.3536  5897.65  77.2331
 56.3956  5937.34  77.4829
 56.4376  5948.42  77.5863
 56.4796  6002.13  77.7406
 56.5216  5957.97  77.8168
 56.5636  5938.65  77.2985
 56.6056  5933.38  77.4781
 56.6476  5885.14  76.8107
 56.6896  6014.31  78.0854
 56.7316  5879.24  77.1166
 56.7736  5956.88  77.6201
 56.8156  5925.7  77.4196
 56.8576  5940.99  77.4591
 56.8996  5876.02  76.9722
 56.9416  5962.64  77.8435
 56.9836  5796.48  76.2732
 57.0256  5841.86  76.8829
 57.0676  5816.1  76.8278
 57.1096  5951.81  77.5162
 57.1516  5937.23  77.4524
 57.1936  5906.06  77.0341
 57.2356  5939.56  77.5691
 57.2776  5864.9  77.0278
 57.3196  5994.12  78.2422
 57.3616  5894.87  77.0967
 57.4036  5888.79  77.1159
 57.4456  5816.31  76.6003
 57.4876  5968.84  77.4671
 57.5296  5870.86  77.0614
 57.5716  5841.54  76.9505
 57.6136  5868.66  76.9574
 57.6556  5961.26  77.6973
 57.6976  5997.04  77.746
 57.7396  5877.81  77.3473
 57.7816  5847.25  77.4955
 57.8236  5799.31  76.9746
 57.8656  5903.76  77.33
 57.9076  5869.62  77.1395
 57.9496  5847.88  77.3368
 57.9916  5815.41  76.6482
 58.0336  5905.62  77.5097
 58.0756  5890.18  77.002
 58.1176  5890.03  77.0451
 58.1596  5797.46  76.9885
 58.2016  5970.92  77.3702
 58.2436  5854.59  77.0233
 58.2856  5952.57  77.5778
 58.3276  5853.07  77.2994
 58.3696  5844.5  77.0032
 58.4116  5929.92  77.4222
 58.4536  5999.4  77.7674
 58.4956  5812.42  76.7193
 58.5376  5974.58  77.3577
 58.5796  5889.09  77.2131
 58.6216  5872.6  76.932
 58.6636  5908.52  77.3705
 58.7056  5971  77.6417
 58.7476  5852.2  77.3027
 58.7896  5891.86  77.2127
 58.8316  5887.2  77.1838
 58.8736  5853.91  76.9687
 58.9156  5824.7  76.8197
 58.9576  6056.51  78.6446
 58.9996  6011.2  77.6039
 59.0416  6018.97  78.0173
 59.0836  5996.51  77.7962
 59.1256  5872.54  77.678
 59.1676  5899.57  78.1551
 59.2096  5916.38  77.5733
 59.2516  5866.91  76.8354
 59.2936  5943.91  77.6635
 59.3356  5863.72  77.0173
 59.3776  6044.05  78.3617
 59.4196  5900.23  77.3604
 59.4616  5916.45  77.3281
 59.5036  5895.81  77.2277
 59.5456  6126.03  78.4127
 59.5876  5993.02  77.7471
 59.6296  5845.9  76.8549
 59.6716  5891.56  77.2117
 59.7136  5838.99  76.8549
 59.7556  5937.79  77.6377
 59.7976  5729.32  76.0115
 59.8396  5902.88  77.0498
 59.8816  5841.23  77.1825
 59.9236  6061.26  78.266
 59.9656  5929.67  77.6692
 60.0076  6025.09  77.6506
 60.0496  5861.57  77.0857
 60.0916  6015.18  77.5089
 60.1336  5921.21  77.9973
 60.1756  5725.4  77.8498
 60.1996  0.0000000E+00  0.0000000E+00