File: docs/examples/opeando_xrd/IS17_D/Data/IS17_D/17_Da_f00024.xye
# /beamlines/bl04/projects/cycle2025-II/20250340211-lsimonelli/DATA/IS17_D/17_Da_f00024.xye : mythproc.py merge -s 0.006 -l 0.5 -f /beamlines/bl04/inhouse/ff/FlatField/ff_20Nov2024rod8mm60s_17keV.raw -b True -c true -o xye /beamlines/bl04/projects/cycle2025-II/20250340211-lsimonelli/DATA/IS17_D/17_Da_00024.dat
# IsMon = [6742994, 6744592, 6746535]  IsPos = [-1.4999, -2.4885, -3.4986]
# Wave = 0.4962  CalPath /beamlines/bl04/projects/cycle2025-II/20250340211-lsimonelli/DATA/Align/Si_Pos1_25keV_f00001.cal
# Date = 2025-09-24_00:14:50 Dt = 4.8000  Bin = 0.0060  <imon> = 6744707 +/- 1448 (Min/Max) 6742994 / 6746535
# icurr 249.0629  mocoIn 1.7005E-05  mocoOut 0.7970  i15 7.06464e+06  imon 6.74471e+06  i7 4.6667  iEMpd_timer 4.8000  iEMpd_1 3.5164E-08  iEMpd_2 7.7571E-08  iEMpd_3 1.7118E-08  iEMpd_4 4.6716E-08  iEMhp_timer 4.8000  iEMhp_1 4.8691E-06  iEMhp_2 -2.4101E-08  iEMhp_3 -2.3507E-08  iEMhp_4 -2.0574E-08
#      9776
 1.5856  39123.1  203.13
 1.6276  46313.9  217.219
 1.6696  53029.4  231.614
 1.7116  61145.3  249.194
 1.7536  70620.1  266.665
 1.7956  75222.1  275.904
 1.8376  71424.1  269.275
 1.8796  59226  243.403
 1.9216  47879.3  219.719
 1.9636  40164.8  200.415
 2.0056  36028.2  189.08
 2.0476  33290.9  183.748
 2.0896  31826.2  178.606
 2.1316  30790.9  174.833
 2.1736  29691.1  173.044
 2.2156  29819.6  172.026
 2.2576  28912.3  169.997
 2.2996  28387.2  169.064
 2.3416  28072.8  166.781
 2.3836  27513.4  165.215
 2.4256  26968.2  164.103
 2.4676  26495.3  162.427
 2.5096  26822.3  163.48
 2.5516  28258.2  171.685
 2.5936  57070.7  239.04
 2.6356  26825.2  164.577
 2.6776  25297.1  158.738
 2.7196  24775.8  157.595
 2.7616  24667.2  157.037
 2.8036  24239.6  155.834
 2.8456  24327.4  156.711
 2.8876  23849.8  155.026
 2.9296  23421.2  153.774
 2.9716  23339.5  153.01
 3.0136  22894.1  151.609
 3.0556  23117.2  152.731
 3.0976  23023.5  151.383
 3.1396  22841.9  151.493
 3.1816  22402.3  149.957
 3.2236  22407  149.967
 3.2656  22334  148.788
 3.3076  22309.2  150.122
 3.3496  22561.3  150.177
 3.3916  23213.1  151.914
 3.4336  23247.2  152.586
 3.4756  23754.3  154.174
 3.5176  24479.3  156.301
 3.5596  24382.2  158.357
 3.6016  24663.3  156.938
 3.6436  23774.2  155.159
 3.6856  23254.6  151.798
 3.7276  22443.7  150.186
 3.7696  22220.5  149.626
 3.8116  21736.9  147.875
 3.8536  21884.4  148.316
 3.8956  21930.9  148.303
 3.9376  22017.6  148.871
 3.9796  21799.2  147.625
 4.0216  22018.1  147.422
 4.0636  21856.4  148.315
 4.1056  21910.4  148.151
 4.1476  22002.5  148.773
 4.1896  22069.9  148.859
 4.2316  22299.4  149.462
 4.2736  22707.1  150.613
 4.3156  23204.8  152.477
 4.3576  23886.1  154.629
 4.3996  24207.9  155.723
 4.4416  24513.8  156.498
 4.4836  25449.3  159.604
 4.5256  25793.4  161.289
 4.5676  25373.6  160.217
 4.6096  26083.9  161.127
 4.6516  26752  162.885
 4.6936  26691.7  163.499
 4.7356  27150.3  164.733
 4.7776  26848.6  163.644
 4.8196  26386.1  162.87
 4.8616  25786.5  160.634
 4.9036  25778.1  160.227
 4.9456  25800.1  160.933
 4.9876  25154.1  158.807
 5.0296  25180.1  158.712
 5.0716  25420.4  160.088
 5.1136  25389.7  159.848
 5.1556  25806.7  160.625
 5.1976  28455.3  168.665
 5.2396  26424.8  162.24
 5.2816  26131.1  161.788
 5.3236  26447.5  162.473
 5.3656  25621.3  160.813
 5.4076  25612.1  160.933
 5.4496  25704  160.716
 5.4916  25853.9  160.948
 5.5336  25744.4  160.611
 5.5756  25645.9  160.334
 5.6176  25870  160.478
 5.6596  25910.5  161.559
 5.7016  26127.8  161.511
 5.7436  26075  161.619
 5.7856  26130.5  161.846
 5.8276  26482.2  162.658
 5.8696  26574.3  163.112
 5.9116  26463.2  163.331
 5.9536  26721.1  163.915
 5.9956  26985.8  164.096
 6.0376  27094.2  165.054
 6.0796  27319.8  165.572
 6.1216  27399.5  166.013
 6.1636  27539.3  165.514
 6.2056  27630.8  166.446
 6.2476  27812.6  166.868
 6.2896  28086.8  167.372
 6.3316  27946.5  167.129
 6.3736  28102.5  167.489
 6.4156  28077.3  167.31
 6.4576  28348.8  167.731
 6.4996  28283.3  168.004
 6.5416  28569.5  168.99
 6.5836  28628.3  169.39
 6.6256  28425.8  168.361
 6.6676  29250.2  170.359
 6.7096  28827.8  169.963
 6.7516  29345.4  171.14
 6.7936  29650.1  171.214
 6.8356  29855.1  172.132
 6.8776  30025.5  173.411
 6.9196  29654.4  172.732
 6.9616  30318.6  174.074
 7.0036  30756.3  175.017
 7.0456  30642.7  174
 7.0876  30510.8  175.283
 7.1296  30693.4  174.959
 7.1716  30508.1  173.971
 7.2136  30255.7  173.04
 7.2556  30395.9  173.6
 7.2976  30257.3  173.688
 7.3396  30495.4  174.581
 7.3816  30383.9  174.472
 7.4236  30628.2  174.475
 7.4656  30685.1  174.134
 7.5076  31111.1  175.471
 7.5496  30985  175.638
 7.5916  30854  175.3
 7.6336  31474.4  176.952
 7.6756  31501.2  176.883
 7.7176  31614.8  177.505
 7.7596  31761.4  179.14
 7.8016  33454.5  186.039
 7.8436  32550.5  180.229
 7.8856  32694  180.242
 7.9276  33234.7  182.113
 7.9696  33541.1  183.259
 8.0116  34351.6  184.381
 8.0536  34582.4  184.889
 8.0956  35345.1  188.089
 8.1376  35241.4  187.292
 8.1796  35119.8  187.505
 8.2216  36221.1  189.173
 8.2636  36504.3  190.155
 8.3056  35989.9  189.567
 8.3476  37242.6  192.172
 8.3896  36684.3  191.243
 8.4316  36406.3  190.244
 8.4736  36620.9  190.277
 8.5156  36294.6  189.7
 8.5576  35849.8  189.495
 8.5996  35921.6  188.571
 8.6416  35677.3  189.163
 8.6836  35839  189.421
 8.7256  36374.4  190.297
 8.7676  36629.3  193.838
 8.8096  36620  191.144
 8.8516  35251.8  187.159
 8.8936  35576.1  187.899
 8.9356  34890.4  186.435
 8.9776  35197.2  187.34
 9.0196  34790.8  185.942
 9.0616  35083.6  186.192
 9.1036  35146.1  187.546
 9.1456  34570.8  185.359
 9.1876  34653.2  185.537
 9.2296  34706.6  185.094
 9.2716  33836.6  182.823
 9.3136  34084  183.467
 9.3556  34147.2  183.63
 9.3976  32811.1  180.519
 9.4396  32923.4  180.722
 9.4816  32612  179.728
 9.5236  32790.8  180.13
 9.5656  32624.7  179.982
 9.6076  32532.6  180.25
 9.6496  32100.3  178.98
 9.6916  32093.5  178.927
 9.7336  31966.8  178.364
 9.7756  32312.8  180.641
 9.8176  31418.8  177.565
 9.8596  31461.6  176.173
 9.9016  31124.3  175.219
 9.9436  30984.7  174.74
 9.9856  30685.5  174.117
 10.0276  30022.4  173.298
 10.0696  30352.5  173.312
 10.1116  29770.4  171.898
 10.1536  29594.9  171.553
 10.1956  29083.1  169.674
 10.2376  28828.3  168.444
 10.2796  28870.2  168.693
 10.3216  28311.9  167.312
 10.3636  28672.1  168.407
 10.4056  29432.7  171.017
 10.4476  29349  170.403
 10.4896  30647.4  173.577
 10.5316  29461.3  170.898
 10.5736  28225.6  167.68
 10.6156  27564.1  165.476
 10.6576  29528.2  169.813
 10.6996  27464.3  164.414
 10.7416  27152.2  163.717
 10.7836  27594.5  165.724
 10.8256  26703.5  163.447
 10.8676  26687.7  162.945
 10.9096  26425.8  162.182
 10.9516  26211.2  160.469
 10.9936  26476.6  161.473
 11.0356  26130.3  161.044
 11.0776  26476  161.425
 11.1196  25754.6  159.932
 11.1616  25344.4  158.36
 11.2036  25669.5  159.224
 11.2456  26102.8  161.269
 11.2876  25127.7  157.971
 11.3296  25198.7  158.091
 11.3716  25387.2  158.377
 11.4136  25188.6  158.635
 11.4556  25439.6  159.091
 11.4976  26283.6  160.689
 11.5396  26418.5  161.268
 11.5816  25519.5  158.953
 11.6236  25019.1  157.808
 11.6656  24823.1  156.161
 11.7076  24321.4  155.385
 11.7496  24268.9  159.061
 11.7916  24311.3  154.634
 11.8336  23807.9  153.911
 11.8756  23772.9  153.323
 11.9176  23966.4  153.847
 11.9596  23422.5  152.028
 12.0016  23441.5  152.872
 12.0436  23294.6  151.828
 12.0856  23071.3  151.613
 12.1276  23033.8  151.399
 12.1696  23322.5  151.503
 12.2116  23591.5  152.37
 12.2536  23998.5  154.509
 12.2956  23418.3  151.973
 12.3376  23015.1  150.868
 12.3796  23001  151.253
 12.4216  23146.2  150.98
 12.4636  23384.8  152.663
 12.5056  23023.9  150.765
 12.5476  23145.7  150.703
 12.5896  22987.3  150.796
 12.6316  22791.7  150.317
 12.6736  22936.1  151.116
 12.7156  22756.9  150.535
 12.7576  22951.7  151.419
 12.7996  23028  150.343
 12.8416  22919  151.015
 12.8836  23580.5  152.986
 12.9256  23543.7  151.921
 12.9676  23432.9  151.979
 13.0096  23197.6  152.29
 13.0516  23376.2  151.929
 13.0936  23373.8  152.315
 13.1356  23818  152.756
 13.1776  23492.1  152.677
 13.2196  23433.9  152.153
 13.2616  23471.1  152.572
 13.3036  23519.3  152.706
 13.3456  23482.3  152.73
 13.3876  23452.7  152.149
 13.4296  23631.3  152.868
 13.4716  23648  152.536
 13.5136  23428.5  151.979
 13.5556  23564.6  153.019
 13.5976  23568.9  153.178
 13.6396  23852.1  153.472
 13.6816  23448.8  152.646
 13.7236  24168.3  154.608
 13.7656  23575.1  153.245
 13.8076  23940.1  153.22
 13.8496  23200.3  151.426
 13.8916  23278.1  152.661
 13.9336  23170.2  151.541
 13.9756  22936.4  150.15
 14.0176  23169.9  151.576
 14.0596  23302.5  151.976
 14.1016  22747.9  150.543
 14.1436  22542.1  149.02
 14.1856  22467  149.058
 14.2276  22139.3  148.441
 14.2696  22601  149.821
 14.3116  22047.2  147.87
 14.3536  21601.7  146.551
 14.3956  21587.1  146.233
 14.4376  21845.5  146.89
 14.4796  21703  146.403
 14.5216  21278.9  145.741
 14.5636  21533.1  146.181
 14.6056  21343.7  145.124
 14.6476  21313  144.265
 14.6896  21010.5  143.768
 14.7316  20612.1  143.405
 14.7736  20476.9  142.103
 14.8156  20241.2  141.313
 14.8576  20354.6  141.561
 14.8996  20019.9  141.575
 14.9416  19582.2  140.014
 14.9836  19727  140.483
 15.0256  19483.8  138.574
 15.0676  19406.9  138.609
 15.1096  19352.6  138.158
 15.1516  18922.1  137.16
 15.1936  19030.7  136.988
 15.2356  18868.8  136.676
 15.2776  18652.6  135.487
 15.3196  18485.2  135.861
 15.3616  18300.6  134.938
 15.4036  18231.5  134.543
 15.4456  18451.7  134.788
 15.4876  18136.6  133.543
 15.5296  18010.1  133.358
 15.5716  17835.8  132.319
 15.6136  17843.9  132.672
 15.6556  18534.9  134.451
 15.6976  17832.4  131.96
 15.7396  17750.5  132.245
 15.7816  17614.6  131.255
 15.8236  17129.7  130.123
 15.8656  17177.3  130.092
 15.9076  17160.8  129.868
 15.9496  17112.4  132.436
 15.9916  16883.4  131.971
 16.0336  16567.5  127.706
 16.0756  16688.7  128.472
 16.1176  16589  128.158
 16.1596  16170.3  127.678
 16.2016  16520.1  127.814
 16.2436  16097.8  126.549
 16.2856  16099.8  126.107
 16.3276  15996.5  126.117
 16.3696  16204.1  126.754
 16.4116  16078.6  126.714
 16.4536  16030.2  126.315
 16.4956  16167  126.596
 16.5376  15983  126.05
 16.5796  15797.8  124.697
 16.6216  15829.5  125.116
 16.6636  15981.7  125.873
 16.7056  15958.9  125.65
 16.7476  15732.5  124.428
 16.7896  15803.4  125.309
 16.8316  15599.3  124.468
 16.8736  15872.2  125.806
 16.9156  15801.3  125.848
 16.9576  15606.8  125.864
 16.9996  15517.6  125.979
 17.0416  15604.8  124.723
 17.0836  15426.7  123.777
 17.1256  15364.6  123.539
 17.1676  15552.8  124.284
 17.2096  15226.4  122.853
 17.2516  15167.7  122.404
 17.2936  14957.9  121.854
 17.3356  14784.6  121.172
 17.3776  14925.7  121.929
 17.4196  14845.9  121.301
 17.4616  14808  121.07
 17.5036  15036.2  122.356
 17.5456  14547.3  120.981
 17.5876  14644.3  120.448
 17.6296  14632.4  120.224
 17.6716  14444.4  120
 17.7136  14521.3  120.467
 17.7556  14553.4  120.884
 17.7976  14443.9  120.042
 17.8396  14288.6  119.037
 17.8816  14230.7  119.328
 17.9236  14124.2  118.696
 17.9656  14316.8  120.187
 18.0076  14439.7  120.122
 18.0496  14563.8  119.779
 18.0916  16271.7  127.162
 18.1336  15195.8  122.996
 18.1756  14756.1  120.729
 18.2176  14712.3  120.785
 18.2596  14254.8  118.629
 18.3016  14675.5  120.618
 18.3436  14829.7  121.49
 18.3856  14295.4  119.181
 18.4276  14280.7  118.801
 18.4696  14268.7  118.85
 18.5116  14125.2  118.533
 18.5536  14240.4  119.369
 18.5956  14092.6  118.305
 18.6376  14101.4  118.746
 18.6796  13960.2  117.476
 18.7216  14011.4  118.252
 18.7636  13721.8  116.94
 18.8056  13670.2  116.663
 18.8476  13589.5  116.627
 18.8896  13512.2  115.942
 18.9316  13945.5  117.612
 18.9736  13645.7  116.207
 19.0156  13867.5  117.526
 19.0576  13731.6  115.856
 19.0996  13713.4  116.477
 19.1416  13497.3  115.94
 19.1836  13546.4  115.757
 19.2256  13363  115.179
 19.2676  13502.1  115.873
 19.3096  13546.1  116.295
 19.3516  13336.5  115.353
 19.3936  13516.2  116.093
 19.4356  13433.6  115.545
 19.4776  13464.4  115.77
 19.5196  13439.4  115.523
 19.5616  13296.5  115.158
 19.6036  13398.4  114.966
 19.6456  13504.9  115.681
 19.6876  13782.1  116.51
 19.7296  13430.5  115.461
 19.7716  13452.2  115.568
 19.8136  13582.4  116.481
 19.8556  13802.6  116.902
 19.8976  13958.2  117.625
 19.9396  13829  116.658
 19.9816  14086.7  117.982
 20.0236  14228.6  118.794
 20.0656  14126.8  118.36
 20.1076  13627.8  116.705
 20.1496  13528.2  116.288
 20.1916  13391  115.219
 20.2336  13267.4  114.623
 20.2756  13158.6  114.573
 20.3176  12941  113.376
 20.3596  13185.7  114.417
 20.4016  12903.2  112.994
 20.4436  12988.7  113.919
 20.4856  12819  112.96
 20.5276  13037  114.369
 20.5696  12790.1  112.758
 20.6116  12735.9  112.788
 20.6536  12833.5  112.794
 20.6956  12780.8  112.627
 20.7376  12822.7  113.036
 20.7796  12606.4  111.773
 20.8216  12907.6  112.814
 20.8636  12830  112.835
 20.9056  13128.7  114.089
 20.9476  12656  111.871
 20.9896  13194.9  114.09
 21.0316  12825  112.375
 21.0736  12684.1  112.267
 21.1156  12950.1  113.593
 21.1576  12747.7  112.752
 21.1996  12658.1  112.334
 21.2416  12583.4  111.842
 21.2836  12605.8  111.9
 21.3256  12536.1  111.68
 21.3676  12640.8  111.693
 21.4096  12645.2  112.02
 21.4516  12468.3  111.117
 21.4936  12451.1  111.28
 21.5356  12603.7  111.913
 21.5776  12514.7  111.355
 21.6196  12504.2  111.344
 21.6616  12375.1  110.852
 21.7036  12432.9  110.893
 21.7456  12346.4  110.581
 21.7876  12232.4  109.827
 21.8296  12298.6  109.983
 21.8716  12245.4  109.973
 21.9136  12445.9  111.065
 21.9556  12171.3  109.51
 21.9976  12271.4  109.983
 22.0396  12161.1  109.733
 22.0816  12293.8  110.856
 22.1236  12344.7  110.552
 22.1656  12207.9  110.108
 22.2076  12278.9  109.858
 22.2496  12285.5  109.916
 22.2916  12505.3  110.768
 22.3336  12376.6  110.902
 22.3756  12248.4  110.067
 22.4176  12097.6  109.249
 22.4596  12076.1  109.727
 22.5016  12152.8  109.569
 22.5436  12294.8  110.1
 22.5856  12285.1  110.303
 22.6276  12091.6  109.568
 22.6696  12197.9  110.387
 22.7116  12171.6  109.794
 22.7536  12160.6  109.719
 22.7956  12215.3  109.301
 22.8376  12087.6  109.245
 22.8796  12101.1  109.111
 22.9216  12360.5  110.815
 22.9636  12229.3  109.391
 23.0056  12145.3  109.145
 23.0476  12284.3  110.335
 23.0896  12513.5  110.738
 23.1316  12383.2  110.589
 23.1736  12142.9  112.417
 23.2156  12459.4  111.167
 23.2576  12210.8  110.267
 23.2996  12170  109.876
 23.3416  12084.7  110.007
 23.3836  12183.3  109.669
 23.4256  12191  109.85
 23.4676  12361.9  110.309
 23.5096  12218.4  110.336
 23.5516  12112  109.148
 23.5936  12149.2  110.204
 23.6356  12217  110.189
 23.6776  11921.5  109.379
 23.7196  11898  108.527
 23.7616  12258.4  110.072
 23.8036  12262.7  110.147
 23.8456  12110.3  109.031
 23.8876  11838.2  108.144
 23.9296  11814.1  108.515
 23.9716  11908.2  108.154
 24.0136  12027.8  109.582
 24.0556  11843.6  108.475
 24.0976  11875.4  108.436
 24.1396  11750.8  110.454
 24.1816  11824.5  109.582
 24.2236  11722.5  108.407
 24.2656  11627.7  107.448
 24.3076  11570  107.427
 24.3496  11683.9  107.849
 24.3916  11586.5  107.442
 24.4336  11266.4  106.156
 24.4756  11462  106.95
 24.5176  11248.9  105.604
 24.5596  11269  105.823
 24.6016  11301.6  106.257
 24.6436  11279.1  105.654
 24.6856  11288.1  105.456
 24.7276  11302.2  105.835
 24.7696  11379.1  106.303
 24.8116  11267.7  105.965
 24.8536  11080.2  105.074
 24.8956  11074.3  104.791
 24.9376  11093.2  104.819
 24.9796  11031.6  104.876
 25.0216  10837.3  104.059
 25.0636  11075.3  104.852
 25.1056  10852.6  104.212
 25.1476  11026.3  106.936
 25.1896  11034.7  105.489
 25.2316  10893.5  103.986
 25.2736  10947.6  104.017
 25.3156  10838.6  103.568
 25.3576  10751.5  103.567
 25.3996  10848.7  104.012
 25.4416  10817.2  103.845
 25.4836  10729  103.938
 25.5256  10577.6  102.577
 25.5676  10761.6  103.201
 25.6096  10596.9  102.973
 25.6516  10775.4  103.341
 25.6936  10664.6  103.115
 25.7356  10665.8  103.255
 25.7776  10715.3  103.104
 25.8196  10558  102.58
 25.8616  10581.8  102.599
 25.9036  10729.6  102.806
 25.9456  10580.5  102.675
 25.9876  10636.5  103.01
 26.0296  10660.8  102.731
 26.0716  10482.4  102.197
 26.1136  10641  102.905
 26.1556  10593.8  101.984
 26.1976  10583.4  102.936
 26.2396  10661.3  102.722
 26.2816  10511.5  102.353
 26.3236  10632.6  103.016
 26.3656  10513.4  102.251
 26.4076  10692.9  103.321
 26.4496  10866.9  103.673
 26.4916  10625.6  102.505
 26.5336  10410.4  101.777
 26.5756  10955  104.261
 26.6176  10522.6  102.234
 26.6596  10369  101.788
 26.7016  10323.9  101.372
 26.7436  10233.6  101.018
 26.7856  10183.2  100.748
 26.8276  10298.1  101.27
 26.8696  10382.1  101.559
 26.9116  10207.1  100.647
 26.9536  10130.7  100.309
 26.9956  10185.4  100.612
 27.0376  10042.2  100.119
 27.0796  10261  100.976
 27.1216  10101.5  100.222
 27.1636  10020.4  99.9814
 27.2056  10036.1  99.9409
 27.2476  10148.5  100.504
 27.2896  9987.99  99.7421
 27.3316  10011.9  99.6498
 27.3736  9996.73  99.8374
 27.4156  10008.3  99.7402
 27.4576  10019  100.019
 27.4996  9923.04  99.1471
 27.5416  10095.1  100.314
 27.5836  10008.5  99.7073
 27.6256  10206.6  100.842
 27.6676  10098.1  100.327
 27.7096  9978.79  99.6041
 27.7516  10041.1  100.064
 27.7936  10040  100.229
 27.8356  9977.01  99.5397
 27.8776  9945.57  99.4247
 27.9196  9836.82  98.7223
 27.9616  10018.3  99.826
 28.0036  9899.13  99.2044
 28.0456  9854.22  99.1066
 28.0876  9695.99  98.4
 28.1296  9818.96  98.8664
 28.1716  9770.09  98.6266
 28.2136  9912.65  99.3094
 28.2556  9641.11  98.0582
 28.2976  9728.78  98.484
 28.3396  9821.2  98.7556
 28.3816  9760.82  98.4352
 28.4236  9754.32  98.5518
 28.4656  9502.59  97.3075
 28.5076  9564.2  97.2639
 28.5496  9659.93  98.0111
 28.5916  9756.91  98.3096
 28.6336  9498.91  97.3317
 28.6756  9669.92  97.4219
 28.7176  9515.65  97.1754
 28.7596  9454.03  96.7626
 28.8016  9508.02  97.1532
 28.8436  9428.62  96.9035
 28.8856  9521.88  97.2349
 28.9276  9469.07  97.2037
 28.9696  9522.65  97.1423
 29.0116  9417.18  96.7749
 29.0536  9324.38  96.501
 29.0956  9430.63  96.7746
 29.1376  9400.34  96.5817
 29.1796  9346.08  96.3398
 29.2216  9408.76  96.5121
 29.2636  9363.52  96.2757
 29.3056  9319.28  95.924
 29.3476  9396.35  96.8347
 29.3896  9476.16  97.3367
 29.4316  9315.73  95.8624
 29.4736  9327.65  95.9837
 29.5156  9505.52  96.8103
 29.5576  9415.49  97.0922
 29.5996  9383.93  96.1957
 29.6416  9364.94  96.2147
 29.6836  9255.47  95.5807
 29.7256  9455.07  97.1646
 29.7676  9382.52  96.4541
 29.8096  9280.5  95.8702
 29.8516  9122.65  95.3805
 29.8936  9337.52  96.5903
 29.9356  9328.49  96.2997
 29.9776  9194.83  95.7609
 30.0196  9283.79  95.6188
 30.0616  9210.14  95.6065
 30.1036  9311.86  95.9605
 30.1456  9189.28  95.5781
 30.1876  9123.27  95.1911
 30.2296  9121.04  95.1264
 30.2716  9240.36  95.3872
 30.3136  9245.38  96.0016
 30.3556  9310.05  96.6155
 30.3976  9163.73  97.3434
 30.4396  9259.81  95.2341
 30.4816  9145.86  94.2507
 30.5236  9140.72  94.2452
 30.5656  9236.35  95.3734
 30.6076  9178.04  94.5206
 30.6496  9060.16  94.2794
 30.6916  8988.38  93.996
 30.7336  9003.72  94.227
 30.7756  9043.3  94.7362
 30.8176  9102.72  94.7481
 30.8596  9008.89  94.031
 30.9016  9049.52  94.5823
 30.9436  9016.6  94.1689
 30.9856  9067.24  94.5353
 31.0276  9131.03  94.4868
 31.0696  9003.8  94.2575
 31.1116  9042.64  94.5686
 31.1536  9059.14  94.5342
 31.1956  9050.95  94.5846
 31.2376  8873.11  93.6553
 31.2796  9102.51  94.4052
 31.3216  8870.39  93.1357
 31.3636  9016.31  94.5847
 31.4056  9022.73  95.9202
 31.4476  9010.23  93.7699
 31.4896  9060.13  94.5299
 31.5316  8987.98  93.5991
 31.5736  9244.64  94.6904
 31.6156  9041.84  93.6857
 31.6576  9055.53  93.8503
 31.6996  8985.11  93.1596
 31.7416  8996.61  94.2601
 31.7836  9079.54  93.7281
 31.8256  8832.18  92.7816
 31.8676  8948.8  93.3132
 31.9096  8827.48  93.0283
 31.9516  8664.85  92.3229
 31.9936  8753.71  92.6237
 32.0356  8901.77  93.4657
 32.0776  8831.12  92.9857
 32.1196  8770.25  92.7482
 32.1616  8838.81  92.584
 32.2036  8718.56  92.4496
 32.2456  8668.65  92.5571
 32.2876  8863.37  92.927
 32.3296  8723.6  92.3218
 32.3716  8638.34  91.9646
 32.4136  8789.57  92.9777
 32.4556  8811.69  92.5451
 32.4976  8804.38  92.3483
 32.5396  8663.02  91.6782
 32.5816  8731.81  92.056
 32.6236  8744.9  92.3013
 32.6656  8927.46  93.7976
 32.7076  8689.04  92.1945
 32.7496  8694.12  91.8885
 32.7916  8715.02  91.965
 32.8336  8800.19  92.5091
 32.8756  8757.51  92.1091
 32.9176  8714.97  92.2609
 32.9596  8600.54  91.7287
 33.0016  8703.42  92.0729
 33.0436  8716.19  92.3051
 33.0856  8590.77  91.7149
 33.1276  8473.91  90.8201
 33.1696  8727.88  92.0244
 33.2116  8690.42  92.0497
 33.2536  8617.2  91.6635
 33.2956  8646.03  91.8957
 33.3376  8433.93  90.4761
 33.3796  8698.56  92.121
 33.4216  8708.74  91.7762
 33.4636  8605.1  91.376
 33.5056  8550.23  91.1602
 33.5476  8478.08  90.9268
 33.5896  8647.73  91.5712
 33.6316  8472.6  90.985
 33.6736  8440.36  91.0406
 33.7156  8450.8  91.144
 33.7576  8523.95  91.1727
 33.7996  8563.12  91.1538
 33.8416  8460.78  90.785
 33.8836  8443.32  90.4761
 33.9256  8500.62  90.8457
 33.9676  8472.7  90.5926
 34.0096  8308.81  90.025
 34.0516  8405.99  90.1923
 34.0936  8288.72  89.8113
 34.1356  8492.79  90.6596
 34.1776  8339.9  89.8549
 34.2196  8283.02  89.7163
 34.2616  8369.68  90.381
 34.3036  8310.52  90.2493
 34.3456  8314.59  90.0247
 34.3876  8238.39  89.5815
 34.4296  8230.69  89.2351
 34.4716  8379.32  90.1791
 34.5136  8429.44  90.6561
 34.5556  8245.71  89.8984
 34.5976  8407.61  90.5957
 34.6396  8312.47  89.7939
 34.6816  8319.49  89.9439
 34.7236  8331.1  89.7937
 34.7656  8327.63  89.968
 34.8076  8313.4  90.2035
 34.8496  8319.87  90.0982
 34.8916  8165.02  89.1408
 34.9336  8512.45  90.9747
 34.9756  8688.43  91.7994
 35.0176  8356.65  90.5838
 35.0596  8218.52  89.6607
 35.1016  8228.51  89.4878
 35.1436  8309.97  89.6229
 35.1856  8191.17  89.1056
 35.2276  8233  89.5027
 35.2696  8192.31  89.4691
 35.3116  8224.22  89.7311
 35.3536  8187.3  89.2493
 35.3956  8143.91  88.7277
 35.4376  8105.72  89.0582
 35.4796  8152.7  89.3779
 35.5216  8099.7  88.9774
 35.5636  7980.08  89.1138
 35.6056  8186.94  89.2937
 35.6476  8116.36  88.8052
 35.6896  8187.19  89.3584
 35.7316  8133.83  88.9632
 35.7736  8148.02  89.2355
 35.8156  7964.35  88.2193
 35.8576  8061.9  89.009
 35.8996  8255.17  90.0235
 35.9416  8160.35  89.033
 35.9836  8012.9  88.5562
 36.0256  8258.22  89.9274
 36.0676  8105.9  88.6386
 36.1096  8032.75  88.5839
 36.1516  8051.33  88.5809
 36.1936  8174.82  89.1058
 36.2356  8099.31  89.3229
 36.2776  7967.11  88.0868
 36.3196  8131.63  88.664
 36.3616  8001.47  88.0836
 36.4036  8062.09  88.4734
 36.4456  8077.17  88.7657
 36.4876  7969.72  88.1124
 36.5296  7990.46  88.2609
 36.5716  8067.61  89.459
 36.6136  8190.51  88.9157
 36.6556  8322.76  89.8308
 36.6976  8089.55  89.0589
 36.7396  8139.72  89.1575
 36.7816  8111.49  89.2838
 36.8236  7961.42  88.3813
 36.8656  7846.27  87.8115
 36.9076  7969.79  88.5014
 36.9496  7936.9  88.3308
 36.9916  8023.86  88.2971
 37.0336  8186.56  89.4997
 37.0756  7922.88  87.8436
 37.1176  7923.63  88.2037
 37.1596  8005.6  88.5716
 37.2016  7948.45  88.4343
 37.2436  8055.96  88.3997
 37.2856  7869.32  87.6248
 37.3276  8000.49  87.7028
 37.3696  7872.1  87.8721
 37.4116  7907.72  87.969
 37.4536  7803.26  87.2622
 37.4956  7895.42  87.8157
 37.5376  7890.17  89.3246
 37.5796  7777.54  88.6456
 37.6216  7754.45  86.8141
 37.6636  7793.91  86.9391
 37.7056  7720.17  86.702
 37.7476  7834.4  86.8945
 37.7896  7841.87  87.4254
 37.8316  7597.05  86.2226
 37.8736  7918.27  87.5488
 37.9156  7810.3  86.9553
 37.9576  7822.16  87.0593
 37.9996  7629.2  85.5568
 38.0416  7702.3  86.7604
 38.0836  7851.16  87.5021
 38.1256  7860.68  87.5121
 38.1676  7579.21  86.0643
 38.2096  7770.83  86.7771
 38.2516  7782.47  86.9492
 38.2936  7780.43  86.8369
 38.3356  7869.13  87.2359
 38.3776  7645.12  86.2603
 38.4196  7841.85  87.2181
 38.4616  7677.6  86.5269
 38.5036  7874.07  87.4779
 38.5456  7687.31  87.2472
 38.5876  7700.12  87.3516
 38.6296  7572.1  85.6329
 38.6716  7607.03  85.6287
 38.7136  7536.63  85.177
 38.7556  7541.25  85.6933
 38.7976  7590.9  85.915
 38.8396  7724.21  87.1141
 38.8816  7645.68  86.4539
 38.9236  7423.23  85.005
 38.9656  7638.88  86.1448
 39.0076  7641.69  85.5803
 39.0496  7677.83  86.3173
 39.0916  7722.63  86.2052
 39.1336  7610.8  85.9916
 39.1756  7677.35  86.438
 39.2176  7521.55  86.0724
 39.2596  7554.73  86.1844
 39.3016  7637.76  86.2414
 39.3436  7558.42  86.2046
 39.3856  7659.95  86.239
 39.4276  7693.22  86.9097
 39.4696  7654.78  86.3248
 39.5116  7603.24  86.5418
 39.5536  7700.47  87.5101
 39.5956  7621.9  86.1776
 39.6376  7625.74  86.0436
 39.6796  7611.56  85.8676
 39.7216  7651.78  86.1906
 39.7636  7601.67  86.4694
 39.8056  7683.59  86.7145
 39.8476  7530.55  86.0969
 39.8896  7678.75  86.5734
 39.9316  7650.01  86.666
 39.9736  7671.15  86.3584
 40.0156  7697.98  86.3351
 40.0576  7592.62  86.0925
 40.0996  7740.84  86.1226
 40.1416  7687.4  86.6078
 40.1836  7700.9  86.5749
 40.2256  7712.97  86.6901
 40.2676  7670.74  86.5551
 40.3096  7776.67  87.0736
 40.3516  7694.63  86.7988
 40.3936  7798.15  86.8696
 40.4356  7557.28  85.7008
 40.4776  7736  87.1223
 40.5196  7731.69  87.2173
 40.5616  7794.39  87.2223
 40.6036  7626.57  86.5213
 40.6456  7692  86.511
 40.6876  7781.01  86.9895
 40.7296  7750.06  86.9581
 40.7716  7740.28  87.0264
 40.8136  7667.62  86.5641
 40.8556  7701.71  86.8878
 40.8976  7630.24  86.4044
 40.9396  7638.25  86.7961
 40.9816  7633.87  86.0669
 41.0236  7763.47  86.5743
 41.0656  7706.54  86.7914
 41.1076  7752.78  86.8253
 41.1496  7737.5  86.6525
 41.1916  7672.91  86.6073
 41.2336  7613.6  86.2619
 41.2756  7654.76  86.1014
 41.3176  7595.76  86.3786
 41.3596  7766.39  87.0738
 41.4016  7713.85  87.0334
 41.4436  7734.77  86.9413
 41.4856  7694.46  86.8748
 41.5276  7613.17  86.4338
 41.5696  7651.41  86.2762
 41.6116  7637.86  86.6007
 41.6536  7655.09  86.5589
 41.6956  7623.31  86.4284
 41.7376  7470.14  85.5837
 41.7796  7679.71  86.7036
 41.8216  7648.31  86.7185
 41.8636  7674.53  86.8036
 41.9056  7587.31  86.1057
 41.9476  7690.49  86.9235
 41.9896  7731.65  86.817
 42.0316  7682.09  86.6197
 42.0736  7670.35  86.6688
 42.1156  7637.17  86.3212
 42.1576  7680.29  86.6581
 42.1996  7643.69  86.5964
 42.2416  7590.93  85.8824
 42.2836  7577.06  85.9161
 42.3256  7522.16  85.7193
 42.3676  7648.89  86.2457
 42.4096  7724.32  86.6298
 42.4516  7514.67  85.5356
 42.4936  7508.29  85.5661
 42.5356  7581.61  86.1119
 42.5776  7702.22  86.7325
 42.6196  7543.81  85.812
 42.6616  7455.89  85.558
 42.7036  7722.55  86.4631
 42.7456  7641.29  86.3598
 42.7876  7483.35  85.5608
 42.8296  7528.02  85.7103
 42.8716  7456.2  85.3946
 42.9136  7570.55  85.8426
 42.9556  7559.46  85.9093
 42.9976  7540.86  85.7663
 43.0396  7526.01  85.4181
 43.0816  7463.92  85.4296
 43.1236  7579.4  86.1523
 43.1656  7517.8  85.6325
 43.2076  7505.08  85.6633
 43.2496  7541.96  85.6901
 43.2916  7469.19  85.634
 43.3336  7420.81  85.196
 43.3756  7404.83  84.8696
 43.4176  7385.99  84.8396
 43.4596  7451.01  85.0704
 43.5016  7429.33  85.3401
 43.5436  7432.65  85.2642
 43.5856  7359.9  84.8693
 43.6276  7349.21  84.7058
 43.6696  7434.55  85.3396
 43.7116  7421.64  84.886
 43.7536  7495.46  85.7898
 43.7956  7341.69  86.0493
 43.8376  7466.46  85.3588
 43.8796  7429.61  85.2241
 43.9216  7477.32  85.4139
 43.9636  7468.73  85.4751
 44.0056  7327.61  84.8895
 44.0476  7294.83  84.3369
 44.0896  7346.07  84.9716
 44.1316  7304.2  84.4041
 44.1736  7299.88  84.3536
 44.2156  7380.63  84.6822
 44.2576  7359.32  84.8763
 44.2996  7307.86  84.5541
 44.3416  7318.15  84.3739
 44.3836  7225.18  84.1536
 44.4256  7217.07  83.7636
 44.4676  7286.39  84.3204
 44.5096  7308.47  84.5831
 44.5516  7204.73  83.9529
 44.5936  7147.94  83.5744
 44.6356  7253.05  83.9301
 44.6776  7351.64  84.8144
 44.7196  7229.65  84.3656
 44.7616  7295.42  86.1009
 44.8036  7171.83  83.8176
 44.8456  7278.55  84.6504
 44.8876  7219.68  84.1595
 44.9296  7211.29  83.5727
 44.9716  7273.08  84.3614
 45.0136  7186.2  83.7892
 45.0556  7273.53  84.2725
 45.0976  7177.58  83.876
 45.1396  7145.45  83.4529
 45.1816  7148.41  83.2285
 45.2236  7214.6  83.689
 45.2656  7092.84  83.4696
 45.3076  7059.45  83.0656
 45.3496  7048.13  83.2871
 45.3916  7094.71  83.8268
 45.4336  7042.4  83.3703
 45.4756  7006.85  83.0188
 45.5176  7124.99  83.3384
 45.5596  7124.54  83.4558
 45.6016  7034.56  83.3299
 45.6436  7042.13  82.5801
 45.6856  7109.9  83.6205
 45.7276  7030.06  84.9403
 45.7696  7029.79  84.1058
 45.8116  7085.64  83.8982
 45.8536  7059.54  83.6405
 45.8956  7088.79  83.1795
 45.9376  7055.32  82.461
 45.9796  7167.82  83.8011
 46.0216  7125.41  83.8738
 46.0636  7093.55  82.8525
 46.1056  7204.9  83.4831
 46.1476  7094.49  83.4242
 46.1896  6964.3  82.8002
 46.2316  6915.61  82.3811
 46.2736  6927.28  82.809
 46.3156  7029.35  83.0142
 46.3576  6972.72  82.8747
 46.3996  6988.54  83.1286
 46.4416  7082.03  83.2657
 46.4836  6989.04  83.0654
 46.5256  7038.68  83.2991
 46.5676  7067.73  83.5823
 46.6096  7077.39  83.5783
 46.6516  7016.94  82.285
 46.6936  7119.85  83.3622
 46.7356  7030.7  82.9509
 46.7776  6952.08  83.2977
 46.8196  6915.09  82.6837
 46.8616  6786.74  81.8574
 46.9036  6826.36  81.7689
 46.9456  6903.2  81.8753
 46.9876  6870.34  81.7591
 47.0296  6847.13  82.2892
 47.0716  6737.93  81.4622
 47.1136  6896.59  82.1017
 47.1556  6903.15  82.0175
 47.1976  6921.45  82.1995
 47.2396  6871.5  82.282
 47.2816  6838.05  81.7986
 47.3236  6877.1  82.3911
 47.3656  6879.07  82.3364
 47.4076  6773.49  81.5054
 47.4496  6896.88  82.3423
 47.4916  6859.17  82.3021
 47.5336  6976.32  82.8217
 47.5756  6876.73  82.302
 47.6176  6808.49  81.8408
 47.6596  6707.92  80.9526
 47.7016  6840.97  81.5715
 47.7436  6951.34  82.5505
 47.7856  6903.21  82.2984
 47.8276  6745.65  81.3928
 47.8696  6806.13  81.8479
 47.9116  6844.82  81.8024
 47.9536  6842.97  81.7295
 47.9956  6745.67  81.8375
 48.0376  6731.54  81.5309
 48.0796  6840.87  82.3209
 48.1216  6794.11  81.8622
 48.1636  6941.85  82.3297
 48.2056  6868.52  82.1493
 48.2476  6812.54  82.1143
 48.2896  6735.79  81.5594
 48.3316  6796.2  81.867
 48.3736  6752.48  81.6178
 48.4156  6681.88  81.0572
 48.4576  6701.36  81.4591
 48.4996  6823.89  81.6719
 48.5416  6807.16  81.8893
 48.5836  6697.71  80.9074
 48.6256  6792.63  81.6953
 48.6676  6728.68  81.795
 48.7096  6807.2  81.5618
 48.7516  6726.41  81.2203
 48.7936  6595.18  80.4836
 48.8356  6803.74  81.7976
 48.8776  6723.74  81.7797
 48.9196  6842.29  81.9722
 48.9616  6654.58  81.2023
 49.0036  6707.62  81.8726
 49.0456  6752.86  82.1265
 49.0876  6680.44  81.3262
 49.1296  6619.24  81.0217
 49.1716  6522.93  80.3052
 49.2136  6629.83  80.8711
 49.2556  6683.23  81.2379
 49.2976  6686.7  81.3329
 49.3396  6559.5  80.6047
 49.3816  6655.62  80.6497
 49.4236  6616.79  80.8179
 49.4656  6555.5  80.4614
 49.5076  6597.59  80.4747
 49.5496  6614.57  80.5193
 49.5916  6652.22  80.7812
 49.6336  6582.98  80.565
 49.6756  6652.96  81.2178
 49.7176  6521.12  80.3519
 49.7596  6666.56  81.1869
 49.8016  6682.03  81.0138
 49.8436  6620.67  80.946
 49.8856  6615.22  80.9182
 49.9276  6482.25  80.2001
 49.9696  6493.44  80.2492
 50.0116  6653.32  81.339
 50.0536  6567.98  80.7809
 50.0956  6481.52  80.3197
 50.1376  6593.8  80.7259
 50.1796  6495.51  80.3763
 50.2216  6459.75  80.1553
 50.2636  6505.23  80.0624
 50.3056  6439.01  79.8254
 50.3476  6573.98  80.6816
 50.3896  6487.79  80.1151
 50.4316  6567.02  80.4478
 50.4736  6481.93  80.1366
 50.5156  6434.86  79.8301
 50.5576  6485.68  79.9145
 50.5996  6404.39  79.6837
 50.6416  6515.57  80.3
 50.6836  6466.71  80.0644
 50.7256  6512.55  80.269
 50.7676  6568.97  80.8843
 50.8096  6470.24  79.8645
 50.8516  6388.25  79.7564
 50.8936  6385.36  79.5276
 50.9356  6490.19  80.2871
 50.9776  6418.6  79.9818
 51.0196  6309.4  79.4278
 51.0616  6310.13  78.7844
 51.1036  6463.8  80.0832
 51.1456  6528.59  80.4
 51.1876  6359.69  78.7174
 51.2296  6364.05  79.3585
 51.2716  6378.46  79.161
 51.3136  6283.77  79.009
 51.3556  6303.21  78.7665
 51.3976  6371.4  79.3435
 51.4396  6184.06  78.4642
 51.4816  6304.33  79.0746
 51.5236  6312.68  79.2131
 51.5656  6399.19  79.3671
 51.6076  6329.29  79.0121
 51.6496  6332.16  79.2149
 51.6916  6248  79.0338
 51.7336  6285.7  79.3539
 51.7756  6298.97  79.1485
 51.8176  6274.57  79.0837
 51.8596  6255.05  78.9912
 51.9016  6274.71  78.7336
 51.9436  6318.44  80.4102
 51.9856  6231.34  80.2912
 52.0276  6371.48  79.732
 52.0696  6324.52  79.502
 52.1116  6280.66  79.3294
 52.1536  6304.73  79.3822
 52.1956  6402.17  79.4626
 52.2376  6335.37  79.2196
 52.2796  6323.77  78.9676
 52.3216  6233.95  79.0682
 52.3636  6303.09  79.0964
 52.4056  6268.24  78.7391
 52.4476  6293.59  79.2552
 52.4896  6124.85  78.2331
 52.5316  6284.42  79.2942
 52.5736  6222.5  78.6329
 52.6156  6119.62  78.3455
 52.6576  6317.33  79.0592
 52.6996  6069.36  78.4218
 52.7416  6265.53  79.5265
 52.7836  6348.62  79.9404
 52.8256  6240.56  78.5009
 52.8676  6002.56  77.5439
 52.9096  6159.16  78.6292
 52.9516  6228.74  79.4436
 52.9936  6135.72  79.2249
 53.0356  6037.22  77.6311
 53.0776  6061.19  78.062
 53.1196  6121.32  78.5472
 53.1616  5958.64  77.5405
 53.2036  6009.72  77.8251
 53.2456  5944.12  77.5021
 53.2876  6079.92  78.0961
 53.3296  6006.53  77.9379
 53.3716  6171.94  78.758
 53.4136  5987.7  77.7072
 53.4556  6033.8  78.0435
 53.4976  6030.48  77.8751
 53.5396  6072.46  78.5256
 53.5816  5982.18  77.5811
 53.6236  5949.2  77.7025
 53.6656  6064.3  78.0905
 53.7076  6178.55  78.7816
 53.7496  6063.07  78.1599
 53.7916  6013.06  77.9623
 53.8336  5904.54  77.1539
 53.8756  5878.04  77.5076
 53.9176  5963.59  77.4412
 53.9596  6072.86  78.8889
 54.0016  5988.41  77.6906
 54.0436  6035.25  78.2039
 54.0856  6124.91  78.2253
 54.1276  6069.49  78.0611
 54.1696  5974.43  77.6135
 54.2116  5953.91  77.2487
 54.2536  5997.89  77.3558
 54.2956  6115.44  78.1541
 54.3376  5913.89  77.3214
 54.3796  6023.85  77.9385
 54.4216  6113.77  78.5575
 54.4636  5976.08  77.6253
 54.5056  6037.48  77.8601
 54.5476  5952.92  77.6302
 54.5896  6040.09  78.0354
 54.6316  6053.13  77.9811
 54.6736  6017.38  77.7772
 54.7156  6002.25  77.7483
 54.7576  5944.6  77.3723
 54.7996  5968.91  77.6605
 54.8416  5990.55  77.8542
 54.8836  5959.17  77.7575
 54.9256  5981.06  77.6468
 54.9676  6048.51  77.9421
 55.0096  5923.49  77.2092
 55.0516  5985.98  77.7773
 55.0936  6045.02  77.8622
 55.1356  5876.6  76.81
 55.1776  5936.62  77.4609
 55.2196  6027.57  77.8389
 55.2616  5999.95  77.8719
 55.3036  5882.65  77.2624
 55.3456  5981.39  78.0485
 55.3876  6024.21  78.0787
 55.4296  5992.03  77.8458
 55.4716  5905.93  77.3167
 55.5136  5898.88  77.0389
 55.5556  5989.9  77.7012
 55.5976  6030.94  78.02
 55.6396  5964.34  77.5395
 55.6816  5987.09  77.5621
 55.7236  5935.37  77.3691
 55.7656  6057.15  77.8209
 55.8076  6002.4  77.4482
 55.8496  5903.61  77.1193
 55.8916  5949.42  77.5858
 55.9336  5895.36  77.0929
 55.9756  5898.38  77.0024
 56.0176  5935.24  77.3926
 56.0596  5926.56  77.3144
 56.1016  5978.7  77.7001
 56.1436  5822.23  76.8944
 56.1856  5954.13  77.5094
 56.2276  5942.28  77.4842
 56.2696  5879.21  77.0491
 56.3116  5851.5  77.2631
 56.3536  5818.91  76.7123
 56.3956  5893.85  77.1955
 56.4376  5828.29  76.7967
 56.4796  5915.45  77.1805
 56.5216  5829.29  76.9778
 56.5636  6001.22  77.7008
 56.6056  5937.81  77.5146
 56.6476  5892.75  76.8603
 56.6896  5908.19  77.3984
 56.7316  5843.03  76.8863
 56.7736  5932.17  77.4636
 56.8156  5826.25  76.7608
 56.8576  5927.6  77.3728
 56.8996  5902.59  77.1543
 56.9416  5887.24  77.2022
 56.9836  5780.47  76.1669
 57.0256  5900.28  77.268
 57.0676  5866.87  77.1684
 57.1096  5852.46  76.862
 57.1516  5893.57  77.1597
 57.1936  6001.78  77.6545
 57.2356  5944.32  77.595
 57.2776  5901.46  77.2681
 57.3196  5932.38  77.8402
 57.3616  5884.91  77.0315
 57.4036  5922.73  77.3384
 57.4456  5900.67  77.1589
 57.4876  5917.38  77.1333
 57.5296  5847.23  76.9048
 57.5716  5799.33  76.6765
 57.6136  5847.32  76.8138
 57.6556  5891.55  77.2418
 57.6976  5930.21  77.3231
 57.7396  5847.58  77.1451
 57.7816  5798.91  77.1732
 57.8236  5838.11  77.2328
 57.8656  5868.03  77.0972
 57.9076  5900.64  77.3426
 57.9496  5782.96  76.9028
 57.9916  5867.52  76.9407
 58.0336  5833.46  77.0283
 58.0756  5883.69  76.995
 58.1176  5917.08  77.2222
 58.1596  5860.12  77.4054
 58.2016  5877.31  76.7724
 58.2436  5963.91  77.7266
 58.2856  5888.83  77.1553
 58.3276  5917.06  77.7073
 58.3696  5850.74  77.0246
 58.4116  5786.18  76.4633
 58.4536  5913.89  77.1956
 58.4956  5866.8  77.0625
 58.5376  5875.34  76.7007
 58.5796  5851.12  76.9533
 58.6216  5999.94  77.746
 58.6636  5886.35  77.2173
 58.7056  5819.64  76.6387
 58.7476  5692.19  76.2267
 58.7896  5845.55  76.8965
 58.8316  5895.78  77.2233
 58.8736  5929.32  77.4461
 58.9156  5789.51  76.575
 58.9576  5992.56  78.1056
 58.9996  5973.82  77.3447
 59.0416  5967.28  77.6635
 59.0836  5895.87  77.1321
 59.1256  5837.03  77.1334
 59.1676  5791.62  77.4237
 59.2096  5984.24  78.0173
 59.2516  6034.82  77.9276
 59.2936  5833.66  76.9402
 59.3356  5958.63  77.6385
 59.3776  5811.95  76.8427
 59.4196  5959.52  77.7468
 59.4616  5853.22  76.9142
 59.5036  5760.91  76.3399
 59.5456  5762.63  76.0517
 59.5876  5937.59  77.387
 59.6296  5768.8  76.3468
 59.6716  5894.58  77.2319
 59.7136  6077.15  78.4071
 59.7556  6029.41  78.2348
 59.7976  5998.95  77.7799
 59.8396  5935.73  77.2642
 59.8816  5943.5  77.855
 59.9236  5893.19  77.1736
 59.9656  5919.88  77.6061
 60.0076  5843.38  76.4711
 60.0496  5979.59  77.8579
 60.0916  5963.2  77.1736
 60.1336  5974.77  78.3497
 60.1756  5757.56  78.0685
 60.1996  0.0000000E+00  0.0000000E+00