File: docs/examples/opeando_xrd/IS17_D/Data/IS17_D/17_Da_f00114.xye
# /beamlines/bl04/projects/cycle2025-II/20250340211-lsimonelli/DATA/IS17_D/17_Da_f00114.xye : mythproc.py merge -s 0.006 -l 0.5 -f /beamlines/bl04/inhouse/ff/FlatField/ff_20Nov2024rod8mm60s_17keV.raw -b True -c true -o xye /beamlines/bl04/projects/cycle2025-II/20250340211-lsimonelli/DATA/IS17_D/17_Da_00114.dat
# IsMon = [6784765, 6790276, 6788560]  IsPos = [-1.4999, -2.4884, -3.4988]
# Wave = 0.4962  CalPath /beamlines/bl04/projects/cycle2025-II/20250340211-lsimonelli/DATA/Align/Si_Pos1_25keV_f00001.cal
# Date = 2025-09-25_01:20:24 Dt = 4.8000  Bin = 0.0060  <imon> = 6787867 +/- 2303 (Min/Max) 6784765 / 6790276
# icurr 252.5087  mocoIn 1.7219E-05  mocoOut 0.8083  i15 7.10546e+06  imon 6.78787e+06  i7 6.0000  iEMpd_timer 4.8000  iEMpd_1 3.4643E-08  iEMpd_2 7.8805E-08  iEMpd_3 1.6416E-08  iEMpd_4 4.8260E-08  iEMhp_timer 4.8000  iEMhp_1 4.9322E-06  iEMhp_2 -2.4798E-08  iEMhp_3 -2.3766E-08  iEMhp_4 -2.0096E-08
#      9776
 1.5856  41273.5  208.659
 1.6276  48772.1  222.931
 1.6696  55640.8  237.273
 1.7116  64087.2  255.144
 1.7536  73426.1  271.939
 1.7956  77862.9  280.734
 1.8376  74180.9  274.45
 1.8796  62204.5  249.467
 1.9216  50539  225.762
 1.9636  42976.2  207.333
 2.0056  38369.1  195.146
 2.0476  36171.9  191.553
 2.0896  34890.7  187.027
 2.1316  33741.7  183.037
 2.1736  32298.8  180.501
 2.2156  33005  181
 2.2576  31580.8  177.687
 2.2996  30785.2  176.078
 2.3416  30997.1  175.27
 2.3836  30235.4  173.212
 2.4256  29746.6  172.366
 2.4676  29205.1  170.548
 2.5096  28745  169.255
 2.5516  28271.3  171.701
 2.5936  28439.3  168.739
 2.6356  27818.4  167.592
 2.6776  27862.7  166.583
 2.7196  27542  166.156
 2.7616  27768.4  166.608
 2.8036  27119.2  164.824
 2.8456  27080  165.338
 2.8876  26548.1  163.57
 2.9296  25977.2  161.94
 2.9716  25911  161.214
 3.0136  25649.4  160.466
 3.0556  25678.8  160.965
 3.0976  25648.6  159.786
 3.1396  25392  159.711
 3.1816  25090.3  158.692
 3.2236  24849.6  157.928
 3.2656  24780  156.712
 3.3076  24792.6  158.25
 3.3496  24979.7  157.751
 3.3916  25191.9  158.249
 3.4336  25380.8  159.431
 3.4756  25965.5  161.19
 3.5176  26640.9  163.06
 3.5596  26265.8  164.375
 3.6016  26694.3  163.272
 3.6436  25769.9  161.531
 3.6856  25206.6  158.03
 3.7276  24383.2  156.533
 3.7696  24201.3  156.149
 3.8116  23709.4  154.444
 3.8536  24029.8  155.419
 3.8956  23654.3  154.016
 3.9376  23660.1  154.294
 3.9796  23738.4  154.05
 4.0216  23810.3  153.293
 4.0636  23627.6  154.207
 4.1056  23621  153.81
 4.1476  23777.2  154.66
 4.1896  24062.8  155.433
 4.2316  24193.9  155.685
 4.2736  24668.8  156.984
 4.3156  24711.2  157.353
 4.3576  25725.7  160.479
 4.3996  25620.7  160.403
 4.4416  26437.5  162.52
 4.4836  26824.8  163.857
 4.5256  27151.6  165.486
 4.5676  27256.1  166.054
 4.6096  27627.7  165.827
 4.6516  28161.6  167.123
 4.6936  28241.3  168.181
 4.7356  28442.6  168.608
 4.7776  28458.1  168.476
 4.8196  27917.4  167.536
 4.8616  27631.6  166.141
 4.9036  27435.4  165.301
 4.9456  27218.4  165.298
 4.9876  26663.4  163.502
 5.0296  27034.9  164.44
 5.0716  26867  164.733
 5.1136  26951.6  164.693
 5.1556  27230.2  164.994
 5.1976  27725.9  166.496
 5.2396  27820.8  166.466
 5.2816  27734.7  166.686
 5.3236  27889.8  166.844
 5.3656  27373.9  166.223
 5.4076  27017.6  165.293
 5.4496  27337.1  165.741
 5.4916  27402.8  165.698
 5.5336  27354.3  165.552
 5.5756  27020.6  164.583
 5.6176  27392.6  165.133
 5.6596  27265.9  165.739
 5.7016  27593.7  165.983
 5.7436  27888.9  167.145
 5.7856  27607.5  166.358
 5.8276  28185.5  167.805
 5.8696  28355.3  168.487
 5.9116  28466.6  169.434
 5.9536  28334.4  168.794
 5.9956  28811.4  169.564
 6.0376  28814.5  170.215
 6.0796  28909.3  170.322
 6.1216  28989.1  170.756
 6.1636  29148.9  170.286
 6.2056  29284  171.345
 6.2476  29392.7  171.542
 6.2896  29695  172.101
 6.3316  29551.3  171.866
 6.3736  29612.8  171.93
 6.4156  29869  172.574
 6.4576  29930.1  172.345
 6.4996  30187.9  173.565
 6.5416  30146.2  173.59
 6.5836  30503.4  174.845
 6.6256  30244.7  173.666
 6.6676  30820.4  174.871
 6.7096  30873.1  175.893
 6.7516  31195.6  176.451
 6.7936  31333  176.265
 6.8356  31534  176.904
 6.8776  31842.7  178.578
 6.9196  31815.2  178.913
 6.9616  32342.2  179.814
 7.0036  32869  180.929
 7.0456  32555.4  179.344
 7.0876  32647.4  181.316
 7.1296  32558  180.193
 7.1716  32634.8  179.941
 7.2136  32295.9  178.778
 7.2556  32597  179.774
 7.2976  32664.1  180.463
 7.3396  32487.2  180.185
 7.3816  32412.5  180.202
 7.4236  32691.5  180.255
 7.4656  32947.6  180.441
 7.5076  33437  181.911
 7.5496  33090.8  181.512
 7.5916  33232.3  181.933
 7.6336  33605.3  182.843
 7.6756  33714.5  182.993
 7.7176  34029.6  184.156
 7.7596  33956.8  185.227
 7.8016  34358.9  188.542
 7.8436  34895.6  186.599
 7.8856  35057.7  186.642
 7.9276  35900.4  189.275
 7.9696  35736.4  189.154
 8.0116  36933.9  190.805
 8.0536  36935  191.069
 8.0956  36770.8  191.828
 8.1376  37390.3  192.909
 8.1796  37559.5  193.889
 8.2216  38304.4  194.527
 8.2636  38702  195.784
 8.3056  38570.2  196.244
 8.3476  39155.5  197.032
 8.3896  38730.6  196.048
 8.4316  39321.7  197.705
 8.4736  39288.1  197.074
 8.5156  38981.4  196.586
 8.5576  38707.3  196.883
 8.5996  38588.6  195.436
 8.6416  38357.8  196.122
 8.6836  38370.3  195.995
 8.7256  38997.2  197.02
 8.7676  38078.6  197.655
 8.8096  38318.7  195.546
 8.8516  38154.6  194.732
 8.8936  37464.8  192.861
 8.9356  37508.1  193.316
 8.9776  37641.6  193.752
 9.0196  37411.4  192.837
 9.0616  37563.8  192.683
 9.1036  37251.8  193.099
 9.1456  37419  192.862
 9.1876  37280.7  192.461
 9.2296  37550.9  192.541
 9.2716  36821.4  190.735
 9.3136  36686.6  190.364
 9.3556  36955.2  191.052
 9.3976  35585.1  188.017
 9.4396  36062.7  189.162
 9.4816  35328.7  187.09
 9.5236  35463.4  187.349
 9.5656  35404.1  187.518
 9.6076  35099.9  187.239
 9.6496  34937.3  186.739
 9.6916  34929.2  186.681
 9.7336  34790.7  186.094
 9.7756  35158.5  188.341
 9.8176  34237.1  185.35
 9.8596  34025.1  183.202
 9.9016  33753.2  182.461
 9.9436  33309.7  181.172
 9.9856  33179  181.051
 10.0276  32579.2  180.521
 10.0696  33096.7  180.971
 10.1116  32104.8  178.499
 10.1536  31860.4  177.989
 10.1956  31516.9  176.623
 10.2376  30965.3  174.584
 10.2796  31355.1  175.794
 10.3216  30884.7  174.747
 10.3636  30587.1  173.933
 10.4056  30308.5  173.526
 10.4476  30179.9  172.791
 10.4896  30362.2  172.758
 10.5316  29507.8  171.024
 10.5736  29478.8  171.351
 10.6156  28999.5  169.725
 10.6576  29115  168.615
 10.6996  29007.9  168.988
 10.7416  28622.8  168.092
 10.7836  28806.5  169.315
 10.8256  28101.5  167.672
 10.8676  28472.7  168.295
 10.9096  27950.4  166.801
 10.9516  27790  165.236
 10.9936  27829.8  165.56
 11.0356  27744.4  165.944
 11.0776  27640.1  164.937
 11.1196  26962  163.643
 11.1616  26795.1  162.826
 11.2036  26960  163.185
 11.2456  26839.8  163.523
 11.2876  26713.9  162.876
 11.3296  26500.4  162.123
 11.3716  26745.2  162.561
 11.4136  26617.6  163.074
 11.4556  26826  163.373
 11.4976  27111.6  163.202
 11.5396  27615.8  164.875
 11.5816  28007.7  166.522
 11.6236  28147.5  167.156
 11.6656  27593.4  164.651
 11.7076  26883.7  163.369
 11.7496  26461.6  166.075
 11.7916  26054  160.082
 11.8336  26068.5  161.028
 11.8756  25401.1  158.481
 11.9176  25754.6  159.218
 11.9596  25430.3  158.426
 12.0016  25357.7  158.998
 12.0436  25324.9  158.315
 12.0856  25088  158.099
 12.1276  25185.5  158.317
 12.1696  25203  157.497
 12.2116  25261.3  157.666
 12.2536  24961.6  157.579
 12.2956  25014.5  157.064
 12.3376  24718.3  156.356
 12.3796  24937.7  157.512
 12.4216  24911.3  156.632
 12.4636  24556  156.441
 12.5056  24869.5  156.688
 12.5476  25035.5  156.735
 12.5896  24852.6  156.798
 12.6316  24533.3  155.962
 12.6736  24657.7  156.837
 12.7156  24532.8  156.309
 12.7576  24709.8  157.107
 12.7996  24949.2  156.49
 12.8416  24478  156.065
 12.8836  24993.5  157.521
 12.9256  25272.8  157.407
 12.9676  25300.6  157.915
 13.0096  25084.4  158.368
 13.0516  25331.1  158.157
 13.0936  25347.5  158.625
 13.1356  25862  159.177
 13.1776  25417.9  158.819
 13.2196  25522.7  158.789
 13.2616  25483.2  158.978
 13.3036  25520.5  159.065
 13.3456  25587.7  159.634
 13.3876  25549.3  158.806
 13.4296  25369.5  158.391
 13.4716  25638.3  158.83
 13.5136  25362  158.121
 13.5556  25451.3  159.019
 13.5976  25356.2  158.881
 13.6396  25741.9  159.432
 13.6816  25059.1  157.811
 13.7236  25869.2  159.974
 13.7656  25060.5  158.003
 13.8076  25567.5  158.346
 13.8496  25055  157.365
 13.8916  25158.4  158.7
 13.9336  25117.7  157.787
 13.9756  25268.9  157.596
 14.0176  24875.2  157.051
 14.0596  24701.8  156.474
 14.1016  24517.2  156.291
 14.1436  24398.1  155.039
 14.1856  24000.2  154.058
 14.2276  23824.5  153.99
 14.2696  24033.6  154.493
 14.3116  23740  153.442
 14.3536  23449.8  152.692
 14.3956  23248.5  151.754
 14.4376  23564.8  152.561
 14.4796  23414.4  152.058
 14.5216  23076.4  151.774
 14.5636  22987.7  151.035
 14.6056  23097  150.974
 14.6476  22912.8  149.584
 14.6896  22604.6  149.12
 14.7316  22289.2  149.124
 14.7736  22190.4  147.922
 14.8156  21885.7  146.943
 14.8576  21712.4  146.21
 14.8996  21479.4  146.647
 14.9416  21189  145.652
 14.9836  21367  146.229
 15.0256  21021.9  143.929
 15.0676  21216  144.919
 15.1096  20923  143.646
 15.1516  20548.5  142.922
 15.1936  20595.2  142.501
 15.2356  19994.3  140.688
 15.2776  20249.7  141.156
 15.3196  19865.8  140.836
 15.3616  19763.1  140.226
 15.4036  19684.3  139.791
 15.4456  19971  140.456
 15.4876  19593.1  138.795
 15.5296  19279  137.966
 15.5716  19148.1  137.096
 15.6136  19102.4  137.254
 15.6556  19256.7  137.036
 15.6976  18810.3  135.735
 15.7396  18831.3  136.212
 15.7816  18612.8  134.923
 15.8236  18607.1  135.616
 15.8656  18545.6  135.177
 15.9076  18106.6  133.393
 15.9496  18178.2  136.505
 15.9916  18188.3  136.981
 16.0336  17905.5  132.779
 16.0756  17902.4  133.074
 16.1176  17842.6  132.923
 16.1596  17356.8  132.287
 16.2016  17731.9  132.434
 16.2436  17454  131.785
 16.2856  17297.5  130.73
 16.3276  17095.3  130.387
 16.3696  17352.5  131.184
 16.4116  17045.5  130.482
 16.4536  17311  131.276
 16.4956  16945.2  129.614
 16.5376  16834.2  129.379
 16.5796  16766.1  128.472
 16.6216  17012.4  129.722
 16.6636  16963.6  129.689
 16.7056  16862.5  129.162
 16.7476  16942  128.996
 16.7896  16781  129.142
 16.8316  16991.6  129.903
 16.8736  16689  129.015
 16.9156  16720.6  129.468
 16.9576  16750.6  130.392
 16.9996  16765.3  130.944
 17.0416  16831.1  129.517
 17.0836  16777.6  129.078
 17.1256  16639.2  128.557
 17.1676  16763.6  129.028
 17.2096  16455.1  127.708
 17.2516  16477.7  127.574
 17.2936  16271.3  127.103
 17.3356  15974.9  125.949
 17.3776  16137.9  126.777
 17.4196  16079.7  126.234
 17.4616  15908.3  125.481
 17.5036  15781.5  125.34
 17.5456  15529  124.99
 17.5876  15666  124.574
 17.6296  15617.3  124.196
 17.6716  15519.8  124.387
 17.7136  15225.7  123.356
 17.7556  15248.6  123.73
 17.7976  15208.2  123.311
 17.8396  15105.5  122.387
 17.8816  15070.8  122.79
 17.9236  14965.7  122.176
 17.9656  15179.9  123.584
 18.0076  15093.1  122.815
 18.0496  15011.5  121.606
 18.0916  15096.9  122.5
 18.1336  14941.3  121.963
 18.1756  15180.8  122.445
 18.2176  14882.3  121.479
 18.2596  14794.3  120.848
 18.3016  14928.4  121.657
 18.3436  15075.5  122.255
 18.3856  14684.5  120.802
 18.4276  14718.6  120.612
 18.4696  14716.6  120.707
 18.5116  14726.3  121.031
 18.5536  14883.3  122.034
 18.5956  14678.4  120.738
 18.6376  14531.3  120.539
 18.6796  14601.2  120.144
 18.7216  14705.1  121.063
 18.7636  14447.7  119.992
 18.8056  14536.1  120.3
 18.8476  14441.9  120.541
 18.8896  14435.7  119.842
 18.9316  14662.8  120.768
 18.9736  14540.9  119.959
 19.0156  14538.4  120.353
 19.0576  14456.7  118.879
 19.0996  14623.2  120.273
 19.1416  14361.4  119.598
 19.1836  14602  120.183
 19.2256  14264.7  118.999
 19.2676  14357.9  119.487
 19.3096  14478  120.227
 19.3516  14215.9  119.097
 19.3936  14352.2  119.561
 19.4356  14381.7  119.555
 19.4776  14339.2  119.478
 19.5196  14464.1  119.847
 19.5616  14334.4  119.567
 19.6036  14467.1  119.604
 19.6456  14430.5  119.583
 19.6876  14475.1  119.398
 19.7296  14314.7  119.206
 19.7716  14134.1  118.607
 19.8136  14395  119.916
 19.8556  14697.6  120.634
 19.8976  14496.3  119.872
 19.9396  14648.1  120.066
 19.9816  14741.5  120.689
 20.0236  14848  121.351
 20.0656  15223.5  122.867
 20.1076  15150.6  123.061
 20.1496  15469.5  124.353
 20.1916  15263  123.018
 20.2336  15090.1  122.246
 20.2756  14717.6  121.168
 20.3176  14416.9  119.666
 20.3596  14418.3  119.638
 20.4016  14283.3  118.884
 20.4436  14156.1  118.917
 20.4856  13988.8  118.013
 20.5276  13908.9  118.126
 20.5696  13982.2  117.899
 20.6116  13975.8  118.152
 20.6536  13816.5  116.977
 20.6956  13842.2  117.216
 20.7376  13788.8  117.215
 20.7796  13663.6  116.363
 20.8216  13845.1  116.839
 20.8636  13693.6  116.58
 20.9056  13652.9  116.347
 20.9476  13517.1  115.608
 20.9896  13830.9  116.804
 21.0316  13736.1  116.295
 21.0736  13539.9  115.996
 21.1156  13571.8  116.286
 21.1576  13596.5  116.448
 21.1996  13486.6  115.956
 21.2416  13593.2  116.242
 21.2836  13548.1  115.999
 21.3256  13336.3  115.193
 21.3676  13556.9  115.674
 21.4096  13443.4  115.504
 21.4516  13332.8  114.905
 21.4936  13153.9  114.376
 21.5356  13439.9  115.568
 21.5776  13383.3  115.15
 21.6196  13170  114.258
 21.6616  13048  113.83
 21.7036  13230.1  114.401
 21.7456  13306  114.798
 21.7876  13248.7  114.302
 21.8296  13158.9  113.764
 21.8716  13103.4  113.759
 21.9136  13249.5  114.593
 21.9556  13215.3  114.114
 21.9976  13071.8  113.508
 22.0396  13036.6  113.611
 22.0816  13078.8  114.345
 22.1236  13280.7  114.669
 22.1656  13184.8  114.373
 22.2076  13362.3  114.597
 22.2496  13137.2  113.651
 22.2916  13171.7  113.675
 22.3336  13037.8  113.836
 22.3756  13165.2  114.111
 22.4176  13097.6  113.671
 22.4596  12933.4  113.554
 22.5016  13051.4  113.548
 22.5436  13125.8  113.759
 22.5856  13003.3  113.476
 22.6276  13059.2  113.849
 22.6696  13189.8  114.782
 22.7116  13009  113.498
 22.7536  13051.5  113.66
 22.7956  13122.2  113.277
 22.8376  13000.9  113.293
 22.8796  13030.8  113.219
 22.9216  13184.6  114.448
 22.9636  12903.8  112.362
 23.0056  12984.1  112.848
 23.0476  13116.6  114.002
 23.0896  13219.7  113.815
 23.1316  13181.5  114.092
 23.1736  13055.2  116.558
 23.2156  13266.4  114.809
 23.2576  13151.5  114.455
 23.2996  13150.5  114.226
 23.3416  12933.8  113.815
 23.3836  13145.4  113.959
 23.4256  13168.6  114.184
 23.4676  13093.7  113.543
 23.5096  13018.9  113.904
 23.5516  12872  112.536
 23.5936  12977  113.913
 23.6356  13237.4  114.707
 23.6776  13061.1  114.151
 23.7196  12924.9  113.123
 23.7616  13113.8  113.863
 23.8036  13087.8  113.803
 23.8456  12933.1  112.679
 23.8876  12680.3  111.934
 23.9296  12686.5  112.45
 23.9716  12710.7  111.749
 24.0136  12670.5  112.48
 24.0556  12707.8  112.376
 24.0976  12639.8  111.881
 24.1396  12497.5  113.922
 24.1816  12545.1  112.54
 24.2236  12487.7  111.885
 24.2656  12393.9  110.931
 24.3076  12250.7  110.543
 24.3496  12310.9  110.694
 24.3916  12241.3  110.436
 24.4336  12271.5  110.784
 24.4756  12342.3  110.978
 24.5176  12094.3  109.496
 24.5596  11895.3  108.718
 24.6016  12224.5  110.506
 24.6436  12006  109.004
 24.6856  11989.9  108.684
 24.7276  11949.5  108.815
 24.7696  11956.9  108.97
 24.8116  11900.8  108.887
 24.8536  11713.7  108.031
 24.8956  11690.9  107.664
 24.9376  11679.8  107.551
 24.9796  11704.3  108.021
 25.0216  11586.8  107.597
 25.0636  11683.1  107.686
 25.1056  11414.3  107.148
 25.1476  11777.2  110.524
 25.1896  11704.6  108.638
 25.2316  11670.8  107.746
 25.2736  11621.7  107.162
 25.3156  11511.5  106.74
 25.3576  11434.3  106.799
 25.3996  11436.9  106.8
 25.4416  11341.9  106.337
 25.4836  11333.2  106.825
 25.5256  11384.7  106.419
 25.5676  11431.4  106.358
 25.6096  11191.4  105.82
 25.6516  11452.7  106.534
 25.6936  11292.3  106.109
 25.7356  11416.4  106.827
 25.7776  11338.6  106.063
 25.8196  11109.5  105.224
 25.8616  11337.7  106.218
 25.9036  11375.9  105.858
 25.9456  11269.8  105.958
 25.9876  11203.1  105.716
 26.0296  11352.2  105.92
 26.0716  11087.7  105.106
 26.1136  11247.1  105.803
 26.1556  11312.2  105.476
 26.1976  11168  105.736
 26.2396  11232.6  105.182
 26.2816  11238.3  105.837
 26.3236  11127.4  105.466
 26.3656  11120.2  105.161
 26.4076  11283.5  106.137
 26.4496  11708.4  107.57
 26.4916  11293.2  105.671
 26.5336  11345.7  106.251
 26.5756  11545.3  107.007
 26.6176  11100.5  105.004
 26.6596  11141.1  105.511
 26.7016  11024  104.704
 26.7436  10945.4  104.471
 26.7856  10949.5  104.468
 26.8276  10967.3  104.514
 26.8696  11054.8  104.8
 26.9116  10945.1  104.213
 26.9536  10754.9  103.353
 26.9956  10921.5  104.184
 27.0376  10784.2  103.753
 27.0796  10885.7  103.964
 27.1216  10682.5  103.066
 27.1636  10597.4  102.821
 27.2056  10745.4  103.414
 27.2476  10806.1  103.706
 27.2896  10787.5  103.726
 27.3316  10673.5  102.888
 27.3736  10678.9  103.177
 27.4156  10602.9  102.662
 27.4576  10691.6  103.325
 27.4996  10513.5  102.052
 27.5416  10645.9  103.013
 27.5836  10544.5  102.338
 27.6256  10868.8  104.049
 27.6676  10832.5  103.909
 27.7096  10454.4  101.951
 27.7516  10524.9  102.439
 27.7936  10429.9  102.159
 27.8356  10402.5  101.635
 27.8776  10475.2  102.041
 27.9196  10306.1  101.061
 27.9616  10498.9  102.197
 28.0036  10502.7  102.192
 28.0456  10386.3  101.749
 28.0876  10361.9  101.721
 28.1296  10389.2  101.695
 28.1716  10364.8  101.588
 28.2136  10341  101.434
 28.2556  10307.1  101.392
 28.2976  10244.1  101.059
 28.3396  10286  101.027
 28.3816  10239.2  100.817
 28.4236  10282.8  101.186
 28.4656  10158  100.609
 28.5076  10156.2  100.227
 28.5496  10258.4  101.002
 28.5916  10305.6  101.036
 28.6336  10114.9  100.449
 28.6756  10271.7  100.407
 28.7176  10154.8  100.39
 28.7596  10005.7  99.547
 28.8016  10143.1  100.259
 28.8436  9969.66  99.6457
 28.8856  10169.2  100.48
 28.9276  10126.2  100.516
 28.9696  10016  99.6242
 29.0116  10116.2  100.314
 29.0536  9929.8  99.5773
 29.0956  9969.29  99.5031
 29.1376  9838.46  98.8077
 29.1796  9987.51  99.6023
 29.2216  9935.67  99.1821
 29.2636  10041.1  99.7831
 29.3056  9959.57  99.1641
 29.3476  9954.85  99.6688
 29.3896  10110  100.538
 29.4316  10147.9  100.047
 29.4736  10058.2  99.6713
 29.5156  10052.1  99.5492
 29.5576  9959.56  99.8485
 29.5996  9909.09  98.8443
 29.6416  9965.45  99.2397
 29.6836  10097.4  99.8269
 29.7256  9912.44  99.4834
 29.7676  9899.72  99.0748
 29.8096  9844.73  98.7397
 29.8516  9818.11  98.9475
 29.8936  9864.51  99.2742
 29.9356  10007  99.7367
 29.9776  9787.84  98.7934
 30.0196  9835.94  98.4083
 30.0616  9856.87  98.9012
 30.1036  9898.08  98.9275
 30.1456  9869.16  99.0239
 30.1876  9712.72  98.2115
 30.2296  9782.27  98.5106
 30.2716  9859.57  98.5307
 30.3136  9931.63  99.7604
 30.3556  9776.73  99.0076
 30.3976  9725.17  100.298
 30.4396  9853.79  98.2506
 30.4816  9848.06  97.8099
 30.5236  9765.93  97.4216
 30.5656  9780.89  98.1575
 30.6076  9683.6  97.0926
 30.6496  9860.97  98.3665
 30.6916  9764.96  97.9807
 30.7336  9618.19  97.3992
 30.7756  9586.48  97.3258
 30.8176  9737.67  98.0088
 30.8596  9798.59  98.0752
 30.9016  9689.17  97.8768
 30.9436  9810.06  98.2354
 30.9856  9755.81  98.079
 31.0276  9756.94  97.6754
 31.0696  9574.57  97.3455
 31.1116  9649.9  97.7026
 31.1536  9764.38  98.1573
 31.1956  9622.71  97.5352
 31.2376  9538.72  97.1131
 31.2796  9564.1  96.7771
 31.3216  9524.81  96.5209
 31.3636  9652.64  97.8633
 31.4056  9545.47  98.657
 31.4476  9637.91  96.9818
 31.4896  9512.51  96.8577
 31.5316  9591.37  96.6427
 31.5736  9568.62  96.3517
 31.6156  9456.65  95.8016
 31.6576  9621.61  96.7339
 31.6996  9629.2  96.4351
 31.7416  9372.43  96.2156
 31.7836  9519.47  95.9676
 31.8256  9307.04  95.167
 31.8676  9416.81  95.7202
 31.9096  9348.64  95.729
 31.9516  9198.1  95.1151
 31.9936  9263.15  95.2721
 32.0356  9342.79  95.744
 32.0776  9421.39  96.0384
 32.1196  9496.29  96.5092
 32.1616  9588.81  96.4279
 32.2036  9312.26  95.5466
 32.2456  9306.03  95.8954
 32.2876  9448.82  96.1165
 32.3296  9133.23  94.4612
 32.3716  9291.28  95.371
 32.4136  9395.74  96.1342
 32.4556  9454.61  95.7975
 32.4976  9359.36  95.217
 32.5396  9327.65  95.1346
 32.5816  9200.64  94.6083
 32.6236  9352.52  95.4501
 32.6656  9383.27  96.161
 32.7076  9126.5  94.4848
 32.7496  9251.24  94.7911
 32.7916  9286.01  94.9318
 32.8336  9301.33  95.1006
 32.8756  9355.28  95.1009
 32.9176  9147.99  94.5248
 32.9596  9137.06  94.5512
 33.0016  9102.98  94.1644
 33.0436  9370.85  95.715
 33.0856  9262.31  95.2217
 33.1276  9085.73  94.042
 33.1696  9215  94.5587
 33.2116  9275.8  95.0927
 33.2536  9121.02  94.306
 33.2956  9150.78  94.5401
 33.3376  9169.93  94.3779
 33.3796  9186.17  94.6695
 33.4216  9203.67  94.35
 33.4636  9244.59  94.7075
 33.5056  9120.92  94.3137
 33.5476  9143.84  94.4282
 33.5896  9322.52  95.1075
 33.6316  9072.39  94.1551
 33.6736  8962.68  93.8246
 33.7156  9058.79  94.3719
 33.7576  9235.7  94.9002
 33.7996  9199.61  94.48
 33.8416  8974.63  93.51
 33.8836  9036.74  93.6031
 33.9256  8943.48  93.1846
 33.9676  9202.85  94.4168
 34.0096  8960.34  93.4897
 34.0516  8935.25  92.9879
 34.0936  8886.22  92.9973
 34.1356  9089.1  93.7935
 34.1776  9000.45  93.3338
 34.2196  8907.58  93.0441
 34.2616  8891.45  93.0877
 34.3036  8877.48  93.2788
 34.3456  8894.58  93.1139
 34.3876  8958.39  93.4175
 34.4296  8857.68  92.5678
 34.4716  8937.4  93.1397
 34.5136  8915.75  93.2282
 34.5556  8880.42  93.2974
 34.5976  8914.73  93.2867
 34.6396  8788.35  92.3322
 34.6816  8806.52  92.5459
 34.7236  8817.69  92.3809
 34.7656  8932.61  93.1787
 34.8076  8715.03  92.3583
 34.8496  8828.48  92.812
 34.8916  8826.12  92.6783
 34.9336  8899.17  93.0209
 34.9756  8888.63  92.8868
 35.0176  8871.29  93.3326
 35.0596  8810.29  92.842
 35.1016  8931.78  93.2382
 35.1436  8822.84  92.3447
 35.1856  8710.11  91.8847
 35.2276  8835.62  92.7193
 35.2696  8806.72  92.7612
 35.3116  8893.86  93.3163
 35.3536  8693.88  91.9731
 35.3956  8792.1  92.1864
 35.4376  8776.28  92.6765
 35.4796  8704.6  92.3584
 35.5216  8674.36  92.1527
 35.5636  8397.57  91.4148
 35.6056  8644.16  91.7499
 35.6476  8797.31  92.4593
 35.6896  8789.05  92.4991
 35.7316  8707.42  92.0454
 35.7736  8607.2  91.715
 35.8156  8578.62  91.5685
 35.8576  8693.17  92.4301
 35.8996  8696.31  92.412
 35.9416  8614.25  91.4775
 35.9836  8554.31  91.5047
 36.0256  8702.15  92.3071
 36.0676  8682.85  91.9611
 36.1096  8600.83  91.6642
 36.1516  8693.89  92.0496
 36.1936  8522.28  90.983
 36.2356  8629.35  92.2057
 36.2776  8682.9  91.9601
 36.3196  8666.39  91.5378
 36.3616  8643.8  91.5514
 36.4036  8566.29  91.1968
 36.4456  8588.98  91.5334
 36.4876  8423.4  90.583
 36.5296  8604.58  91.5901
 36.5716  8597.26  92.3521
 36.6136  8832.63  92.333
 36.6556  8633.85  91.492
 36.6976  8688.83  92.2934
 36.7396  8405.17  90.5006
 36.7816  8468.54  91.2239
 36.8236  8548.44  91.5727
 36.8656  8496.66  91.376
 36.9076  8479.78  91.1529
 36.9496  8497.61  91.2391
 36.9916  8468.67  90.7019
 37.0336  8588.4  91.669
 37.0756  8481.22  90.8828
 37.1176  8329.87  90.3395
 37.1596  8325.64  90.3212
 37.2016  8523.91  91.6228
 37.2436  8594.49  91.303
 37.2856  8444.26  90.7556
 37.3276  8394.53  89.8359
 37.3696  8392.85  90.7231
 37.4116  8505.72  91.2361
 37.4536  8281.13  89.8895
 37.4956  8314.09  90.1175
 37.5376  8510.26  92.755
 37.5796  8315.77  91.6517
 37.6216  8238.17  89.483
 37.6636  8258.86  89.5027
 37.7056  8402.5  90.469
 37.7476  8302.64  89.4641
 37.7896  8409.83  90.5375
 37.8316  8093.51  89.0024
 37.8736  8356.99  89.9506
 37.9156  8214.01  89.1822
 37.9576  8411.48  90.1319
 37.9996  8209.66  88.76
 38.0416  8187.29  89.4578
 38.0836  8257.05  89.7411
 38.1256  8355.44  90.2298
 38.1676  8086.52  88.9025
 38.2096  8208.91  89.2029
 38.2516  8350.89  90.1714
 38.2936  8279.6  89.589
 38.3356  8304.9  89.6346
 38.3776  8113.05  88.8708
 38.4196  8243.1  89.4284
 38.4616  8232.03  89.6122
 38.5036  8418.41  90.4608
 38.5456  8098.35  89.5619
 38.5876  8183.51  90.0497
 38.6296  8129.75  88.7285
 38.6716  8102.73  88.3727
 38.7136  8250.25  89.1148
 38.7556  8004.33  88.2794
 38.7976  8208.93  89.3406
 38.8396  8090.1  89.1502
 38.8816  7992.54  88.3874
 38.9236  8178.31  89.2198
 38.9656  8017.51  88.2512
 39.0076  8061.97  87.897
 39.0496  8122.56  88.7777
 39.0916  8237.25  89.0325
 39.1336  8084  88.6235
 39.1756  8076.07  88.648
 39.2176  8103.92  89.333
 39.2596  8065.9  89.0496
 39.3016  8046.81  88.5176
 39.3436  8012.2  88.7511
 39.3856  8109.04  88.7283
 39.4276  8131.99  89.3599
 39.4696  8122.6  88.9244
 39.5116  8023.37  88.8953
 39.5536  8181.45  90.199
 39.5956  8241.95  89.6124
 39.6376  8191.52  89.346
 39.6796  8122.77  88.7075
 39.7216  8237.43  89.4284
 39.7636  8228.28  89.9547
 39.8056  8132.88  89.2183
 39.8476  8002.69  88.7535
 39.8896  8057.28  88.685
 39.9316  8092.56  89.1307
 39.9736  8250.46  89.5544
 40.0156  8104.72  88.5771
 40.0576  8149.78  89.1959
 40.0996  8232.32  88.8189
 40.1416  8157.36  89.2136
 40.1836  8198.02  89.3268
 40.2256  8145.8  89.0854
 40.2676  8059.7  88.7262
 40.3096  8342.57  90.1828
 40.3516  8298.89  90.0579
 40.3936  8151.94  88.818
 40.4356  8132.04  88.9018
 40.4776  8215.58  89.7808
 40.5196  8191.19  89.7709
 40.5616  8246.07  89.7166
 40.6036  8111.54  89.2321
 40.6456  8205.42  89.3497
 40.6876  8263.71  89.6521
 40.7296  8266.01  89.8046
 40.7716  8281.74  90.0211
 40.8136  8168.13  89.3436
 40.8556  8289.24  90.1436
 40.8976  8312.19  90.1838
 40.9396  8098.78  89.377
 40.9816  8220.91  89.3154
 41.0236  8215.99  89.0665
 41.0656  8255.43  89.832
 41.1076  8281.58  89.7361
 41.1496  8196.99  89.1879
 41.1916  8137.69  89.1873
 41.2336  8096.17  88.9542
 41.2756  8220.51  89.2336
 41.3176  8110.53  89.258
 41.3596  8209.58  89.5243
 41.4016  8131.13  89.3618
 41.4436  8254.54  89.8176
 41.4856  8213.21  89.7543
 41.5276  8127.28  89.305
 41.5696  8203.69  89.3399
 41.6116  8187.36  89.665
 41.6536  8124.15  89.1699
 41.6956  8206.72  89.6817
 41.7376  8216.69  89.7654
 41.7796  8134.9  89.193
 41.8216  8122.28  89.3651
 41.8636  8097.22  89.161
 41.9056  8060.09  88.7442
 41.9476  8082.18  89.104
 41.9896  8093.55  88.8346
 42.0316  8074.72  88.812
 42.0736  8114.55  89.145
 42.1156  8111.99  88.9635
 42.1576  8146.23  89.2479
 42.1996  8019.45  88.6984
 42.2416  8168.71  89.0898
 42.2836  8030.24  88.4488
 42.3256  8062.94  88.7448
 42.3676  8138.27  88.9649
 42.4096  8179.93  89.1529
 42.4516  8036.96  88.4568
 42.4936  8052.22  88.6105
 42.5356  8060.04  88.7864
 42.5776  8154.3  89.2424
 42.6196  8166.09  89.3602
 42.6616  7944.69  88.3116
 42.7036  8042.92  88.2364
 42.7456  8065.99  88.7292
 42.7876  8042.68  88.697
 42.8296  8012.97  88.3626
 42.8716  7971.22  88.2947
 42.9136  8006.31  88.2777
 42.9556  8048.03  88.6414
 42.9976  8163.84  89.2317
 43.0396  7995.76  88.0408
 43.0816  7937.61  88.1053
 43.1236  7990.11  88.4562
 43.1656  8014.13  88.4077
 43.2076  7991.6  88.4007
 43.2496  7978.25  88.1278
 43.2916  7875.37  87.9292
 43.3336  7998.83  88.4547
 43.3756  7922.79  87.7821
 43.4176  7902.65  87.7563
 43.4596  7977.39  88.0241
 43.5016  7864.54  87.8008
 43.5436  7884.78  87.8206
 43.5856  7857.56  87.692
 43.6276  7894.82  87.7968
 43.6696  7817.28  87.6226
 43.7116  8034.52  88.3213
 43.7536  7912.95  88.1441
 43.7956  7790.03  88.6533
 43.8376  7805.15  87.2588
 43.8796  7784.31  87.2293
 43.9216  7872.58  87.6413
 43.9636  7900.42  87.907
 44.0056  7721.21  87.1312
 44.0476  7811.36  87.2707
 44.0896  7866.57  87.9259
 44.1316  7891.18  87.5757
 44.1736  7795.81  87.1704
 44.2156  7947.62  87.8524
 44.2576  7800.84  87.384
 44.2996  7797.3  87.3266
 44.3416  7819.11  87.1992
 44.3836  7626.63  86.4658
 44.4256  7694.13  86.4871
 44.4676  7781.51  87.1321
 44.5096  7766.02  87.1815
 44.5516  7614.67  86.2965
 44.5936  7597.44  86.1555
 44.6356  7716.63  86.5572
 44.6776  7690.98  86.7416
 44.7196  7627.66  86.6953
 44.7616  7815.54  89.1089
 44.8036  7632.98  86.4862
 44.8456  7628.53  86.6708
 44.8876  7614.09  86.4346
 44.9296  7843.62  87.1608
 44.9716  7724.6  86.9451
 45.0136  7633.92  86.3632
 45.0556  7719.67  86.8277
 45.0976  7593.94  86.2695
 45.1396  7549.96  85.7763
 45.1816  7449.72  85.1472
 45.2236  7645.38  86.16
 45.2656  7537.98  86.0554
 45.3076  7660.65  86.5413
 45.3496  7533.44  86.1188
 45.3916  7488.23  86.1283
 45.4336  7670.41  87.0082
 45.4756  7572.92  86.3081
 45.5176  7661.2  86.4274
 45.5596  7692.8  86.7255
 45.6016  7432.5  85.6646
 45.6436  7640.06  86.0186
 45.6856  7441.61  85.5504
 45.7276  7408.94  86.6849
 45.7696  7541.86  87.1163
 45.8116  7638.91  87.1017
 45.8536  7452.46  85.9316
 45.8956  7559.42  85.8923
 45.9376  7629.61  85.7475
 45.9796  7588.35  86.2018
 46.0216  7558.34  86.3812
 46.0636  7623.59  85.8899
 46.1056  7541.11  85.4089
 46.1476  7562.27  86.1262
 46.1896  7593.6  86.455
 46.2316  7498.19  85.7719
 46.2736  7383.41  85.488
 46.3156  7554.39  86.0557
 46.3576  7548.58  86.2271
 46.3996  7462.99  85.898
 46.4416  7549.38  85.9679
 46.4836  7378.5  85.3449
 46.5256  7552.58  86.2801
 46.5676  7462.38  85.8808
 46.6096  7590.37  86.5483
 46.6516  7571.84  85.4736
 46.6936  7427.44  85.1421
 46.7356  7612.55  86.3075
 46.7776  7363.56  85.7256
 46.8196  7477.57  85.9815
 46.8616  7242.38  84.561
 46.9036  7290.87  84.503
 46.9456  7325.47  84.3414
 46.9876  7285.24  84.1972
 47.0296  7300.41  84.9686
 47.0716  7276.72  84.657
 47.1136  7228.4  84.0567
 47.1556  7386.44  84.8376
 47.1976  7382.05  84.8914
 47.2396  7279.08  84.6838
 47.2816  7221.46  84.0569
 47.3236  7305.76  84.9162
 47.3656  7331.38  84.9983
 47.4076  7295.8  84.5912
 47.4496  7353.65  85.0213
 47.4916  7333.56  85.1043
 47.5336  7317.65  84.8203
 47.5756  7338.66  85.0576
 47.6176  7155.12  83.8937
 47.6596  7235.69  84.0647
 47.7016  7398.97  84.8356
 47.7436  7337.19  84.8169
 47.7856  7328.74  84.8011
 47.8276  7256.49  84.4202
 47.8696  7229.64  84.3563
 47.9116  7401.26  85.0597
 47.9536  7237.28  84.0539
 47.9956  7224.95  84.6947
 48.0376  7199.71  84.3139
 48.0796  7335.52  85.2439
 48.1216  7404.13  85.4454
 48.1636  7463.35  85.3662
 48.2056  7286.3  84.611
 48.2476  7266.92  84.8079
 48.2896  7267.16  84.7184
 48.3316  7290  84.7916
 48.3736  7239.91  84.521
 48.4156  7162.19  83.9215
 48.4576  7095.16  83.8198
 48.4996  7262.77  84.253
 48.5416  7322.12  84.9316
 48.5836  7066.05  83.1108
 48.6256  7309.79  84.7491
 48.6676  7154.02  84.3491
 48.7096  7191.92  83.8365
 48.7516  7128.3  83.6152
 48.7936  7121.96  83.6347
 48.8356  7287.02  84.6521
 48.8776  7215  84.8043
 48.9196  7277.12  84.5389
 48.9616  7163.82  84.2547
 49.0036  7126.46  84.386
 49.0456  7074.51  84.0583
 49.0876  7173.76  84.1825
 49.1296  6970.18  83.1328
 49.1716  6944.89  82.8613
 49.2136  7139.29  83.9287
 49.2556  7110.72  83.7953
 49.2976  7124.14  83.9528
 49.3396  7030.93  83.4534
 49.3816  7141.41  83.5333
 49.4236  7100.22  83.722
 49.4656  7039.44  83.3723
 49.5076  7044.26  83.1551
 49.5496  7114.53  83.6245
 49.5916  7172.14  83.8881
 49.6336  7109.91  83.727
 49.6756  7116.6  84.0024
 49.7176  7023.92  83.3943
 49.7596  6941.72  82.6755
 49.8016  7133.78  83.7221
 49.8436  7031.24  83.4157
 49.8856  7040.23  83.4772
 49.9276  6949.07  83.0317
 49.9696  7040.55  83.5661
 50.0116  6950.78  83.157
 50.0536  6944.19  83.0735
 50.0956  6960.92  83.241
 50.1376  6994.7  83.142
 50.1796  6876.57  82.7036
 50.2216  6904.48  82.8659
 50.2636  7054.05  83.3735
 50.3056  6885.42  82.5424
 50.3476  6964.53  83.0384
 50.3896  6855.07  82.356
 50.4316  6970.8  82.8851
 50.4736  6885.48  82.594
 50.5156  6916.52  82.7707
 50.5576  6941.75  82.6768
 50.5996  6931.73  82.9009
 50.6416  6809.78  82.1013
 50.6836  6899.04  82.69
 50.7256  6977.63  83.0781
 50.7676  6994.44  83.5057
 50.8096  6943.57  82.7442
 50.8516  6872.13  82.7304
 50.8936  6899.28  82.6722
 50.9356  6926.85  82.9437
 50.9776  6949.78  83.2343
 51.0196  6715.58  81.9412
 51.0616  6814.19  81.8637
 51.1036  6846.21  82.3936
 51.1456  6828.27  82.2163
 51.1876  6929.87  82.1667
 51.2296  6915.04  82.7149
 51.2716  6804.98  81.7618
 51.3136  6670.81  81.406
 51.3556  6849.44  82.1093
 51.3976  6787.75  81.8918
 51.4396  6602.38  81.0472
 51.4816  6777.92  81.9864
 51.5236  6765.08  81.9916
 51.5656  6691.41  81.1556
 51.6076  6799.04  81.8834
 51.6496  6686.01  81.3949
 51.6916  6716.16  81.933
 51.7336  6802.47  82.5534
 51.7756  6700.32  81.6276
 51.8176  6754.54  82.0631
 51.8596  6795.32  82.3257
 51.9016  6875.58  82.4144
 51.9436  6727.61  82.9806
 51.9856  6677.06  83.1156
 52.0276  6764.08  82.1557
 52.0696  6679.56  81.7125
 52.1116  6685.77  81.8565
 52.1536  6702.84  81.857
 52.1956  6745.73  81.5754
 52.2376  6869.77  82.4979
 52.2796  6766.94  81.6882
 52.3216  6586.92  81.2855
 52.3636  6655.58  81.2856
 52.4056  6663.77  81.1846
 52.4476  6601.04  81.176
 52.4896  6542.23  80.8587
 52.5316  6629.41  81.4465
 52.5736  6595.61  80.9598
 52.6156  6711.67  82.0591
 52.6576  6634.34  81.0252
 52.6996  6541.95  81.423
 52.7416  6617.54  81.7415
 52.7836  6635.91  81.7368
 52.8256  6623.04  80.877
 52.8676  6515.18  80.8072
 52.9096  6690.95  81.9672
 52.9516  6617.75  81.8776
 52.9936  6581.19  82.0479
 53.0356  6608.09  81.2137
 53.0776  6537.38  81.0369
 53.1196  6453.46  80.6462
 53.1616  6530.77  81.1766
 53.2036  6446.2  80.6049
 53.2456  6445.2  80.6966
 53.2876  6345.74  79.7819
 53.3296  6555.15  81.4166
 53.3716  6538.32  81.0615
 53.4136  6434.22  80.557
 53.4556  6506.53  81.0388
 53.4976  6453.52  80.5562
 53.5396  6407.13  80.6533
 53.5816  6502.85  80.8923
 53.6236  6468.01  81.0185
 53.6656  6540.08  81.0936
 53.7076  6632.79  81.6201
 53.7496  6505.33  80.9552
 53.7916  6495.78  81.0217
 53.8336  6455.08  80.6732
 53.8756  6304.05  80.2661
 53.9176  6555.2  81.1861
 53.9596  6553.49  81.9533
 54.0016  6420.43  80.441
 54.0436  6417.26  80.641
 54.0856  6416.05  80.0558
 54.1276  6436.41  80.388
 54.1696  6357.89  80.0661
 54.2116  6434.73  80.3099
 54.2536  6467.84  80.3249
 54.2956  6509.96  80.6237
 54.3376  6425.3  80.5916
 54.3796  6374.63  80.173
 54.4216  6444.07  80.6581
 54.4636  6360.17  80.0904
 54.5056  6463.45  80.5625
 54.5476  6408.64  80.5493
 54.5896  6455.24  80.6749
 54.6316  6448.33  80.4871
 54.6736  6508.95  80.9408
 54.7156  6481.57  80.7918
 54.7576  6372.04  80.1009
 54.7996  6514.67  81.1318
 54.8416  6467.89  80.8897
 54.8836  6338.21  80.1945
 54.9256  6454.18  80.6635
 54.9676  6445.26  80.4638
 55.0096  6407.86  80.3016
 55.0516  6372.69  80.3162
 55.0936  6322.84  79.6335
 55.1356  6391.97  80.1079
 55.1776  6390.92  80.3749
 55.2196  6434.34  80.4228
 55.2616  6330.92  79.9897
 55.3036  6352.89  80.2875
 55.3456  6405.34  80.7667
 55.3876  6424.49  80.6296
 55.4296  6419.41  80.5702
 55.4716  6333.53  80.0677
 55.5136  6436.87  80.4679
 55.5556  6401.74  80.3279
 55.5976  6320.34  79.8668
 55.6396  6363.67  80.0951
 55.6816  6401.94  80.2098
 55.7236  6312.81  79.6884
 55.7656  6385.39  79.9029
 55.8076  6445.08  80.2553
 55.8496  6282.68  79.5603
 55.8916  6347.53  80.1744
 55.9336  6373.64  80.1634
 55.9756  6312.51  79.6594
 56.0176  6401.91  80.3772
 56.0596  6334.97  79.9374
 56.1016  6343.75  80.0019
 56.1436  6338.46  80.2341
 56.1856  6323.34  79.8718
 56.2276  6372.27  80.2467
 56.2696  6360.15  80.1428
 56.3116  6270.3  79.9801
 56.3536  6335  80.0445
 56.3956  6320.78  79.9413
 56.4376  6307.91  79.8934
 56.4796  6373.97  80.1098
 56.5216  6305.84  80.053
 56.5636  6425.3  80.3978
 56.6056  6276.53  79.697
 56.6476  6287.29  79.3869
 56.6896  6340.25  80.1812
 56.7316  6306.5  79.8682
 56.7736  6365.62  80.2384
 56.8156  6290.93  79.7642
 56.8576  6289.86  79.7024
 56.8996  6243.58  79.3494
 56.9416  6334.6  80.2215
 56.9836  6251.74  79.2185
 57.0256  6320.41  79.9687
 57.0676  6254.23  79.6751
 57.1096  6363.5  80.152
 57.1516  6317.41  79.9271
 57.1936  6310.57  79.6269
 57.2356  6375.63  80.3595
 57.2776  6352.23  80.1718
 57.3196  6347.06  80.5085
 57.3616  6345.3  79.987
 57.4036  6331.34  79.9603
 57.4456  6253.63  79.4379
 57.4876  6278.32  79.4517
 57.5296  6259.61  79.6766
 57.5716  6265.29  79.7027
 57.6136  6340.42  79.9852
 57.6556  6243.54  79.5148
 57.6976  6417.12  80.4318
 57.7396  6291.43  80.025
 57.7816  6116.08  79.2545
 57.8236  6259.51  79.9707
 57.8656  6357.14  80.2447
 57.9076  6263.04  79.6802
 57.9496  6261.67  80.0253
 57.9916  6240.14  79.3978
 58.0336  6320.37  80.1846
 58.0756  6235.64  79.2815
 58.1176  6339.94  79.9354
 58.1596  6155.43  79.3325
 58.2016  6379.86  79.9644
 58.2436  6226.21  79.4107
 58.2856  6362.08  80.1916
 58.3276  6334.65  80.4001
 58.3696  6380.74  80.4351
 58.4116  6291.08  79.727
 58.4536  6243.73  79.3124
 58.4956  6175.99  79.0671
 58.5376  6409.77  80.1092
 58.5796  6283.35  79.7484
 58.6216  6303.22  79.6752
 58.6636  6322.02  80.0221
 58.7056  6279.04  79.6027
 58.7476  6187.43  79.4696
 58.7896  6345.39  80.1125
 58.8316  6315.48  79.916
 58.8736  6351.81  80.1565
 58.9156  6264.37  79.6452
 58.9576  6349.23  80.5168
 58.9996  6317.02  79.5347
 59.0416  6477.47  80.9174
 59.0836  6328.82  79.9108
 59.1256  6308.56  80.4956
 59.1676  6256.76  80.4767
 59.2096  6261.42  79.8104
 59.2516  6250.41  79.314
 59.2936  6347.87  80.2663
 59.3356  6240.27  79.4589
 59.3776  6257.66  79.7415
 59.4196  6232.42  79.5154
 59.4616  6240.93  79.4274
 59.5036  6176.85  79.0535
 59.5456  6313.37  79.6097
 59.5876  6432.15  80.5523
 59.6296  6340.62  80.0481
 59.6716  6252.2  79.5469
 59.7136  6394.39  80.4343
 59.7556  6459.77  80.9856
 59.7976  6361.76  80.1042
 59.8396  6330.33  79.7979
 59.8816  6288.07  80.0873
 59.9236  6323.47  79.9481
 59.9656  6230.93  79.6232
 60.0076  6277.88  79.2699
 60.0496  6354.3  80.2655
 60.0916  6472.65  80.4095
 60.1336  6229.71  80.0106
 60.1756  6243.92  81.3059
 60.1996  0.0000000E+00  0.0000000E+00