File: docs/examples/opeando_xrd/IS17_D/Data/IS17_D/17_Db_f00154.xye
# /beamlines/bl04/projects/cycle2025-II/20250340211-lsimonelli/DATA/IS17_D/17_Db_f00154.xye : mythproc.py merge -s 0.006 -l 0.5 -f /beamlines/bl04/inhouse/ff/FlatField/ff_20Nov2024rod8mm60s_17keV.raw -b True -c true -o xye /beamlines/bl04/projects/cycle2025-II/20250340211-lsimonelli/DATA/IS17_D/17_Db_00154.dat
# IsMon = [6779174, 6773178, 6776529]  IsPos = [-1.4999, -2.4883, -3.4988]
# Wave = 0.4962  CalPath /beamlines/bl04/projects/cycle2025-II/20250340211-lsimonelli/DATA/Align/Si_Pos1_25keV_f00001.cal
# Date = 2025-09-25_12:38:38 Dt = 4.8000  Bin = 0.0060  <imon> = 6776294 +/- 2454 (Min/Max) 6773178 / 6779174
# icurr 252.8153  mocoIn 1.7244E-05  mocoOut 0.8091  i15 7.10084e+06  imon 6.77629e+06  i7 5.0000  iEMpd_timer 4.8000  iEMpd_1 3.6151E-08  iEMpd_2 7.8852E-08  iEMpd_3 1.6616E-08  iEMpd_4 4.8299E-08  iEMhp_timer 4.8000  iEMhp_1 4.9373E-06  iEMhp_2 -2.7308E-08  iEMhp_3 -2.3431E-08  iEMhp_4 -2.1193E-08
#      9776
 1.5856  44932.4  217.616
 1.6276  51431.9  228.828
 1.6696  57159.3  240.383
 1.7116  64285.7  255.426
 1.7536  72429.9  269.969
 1.7956  76368.6  277.904
 1.8376  73126.7  272.373
 1.8796  63722.5  252.383
 1.9216  52850.5  230.766
 1.9636  45263.7  212.685
 2.0056  41387.3  202.586
 2.0476  38490.3  197.509
 2.0896  37025.5  192.578
 2.1316  36124.1  189.305
 2.1736  34463.3  186.369
 2.2156  34802.5  185.781
 2.2576  33424.6  182.716
 2.2996  32488.9  180.804
 2.3416  32933.3  180.585
 2.3836  31990.5  178.09
 2.4256  31294.4  176.716
 2.4676  30898.4  175.345
 2.5096  30644.3  174.68
 2.5516  29384.7  175.021
 2.5936  29018.5  170.428
 2.6356  28904.2  170.817
 2.6776  28731  169.178
 2.7196  28431.7  168.389
 2.7616  28151.2  167.747
 2.8036  27603  166.272
 2.8456  27607.5  166.939
 2.8876  27027.5  165.049
 2.9296  26734.2  164.274
 2.9716  26462.1  162.913
 3.0136  26230.5  162.265
 3.0556  26274  162.802
 3.0976  25989.1  160.802
 3.1396  25882.7  161.202
 3.1816  25959.6  161.083
 3.2236  25526  160.024
 3.2656  25137.1  157.853
 3.3076  25052.7  159.061
 3.3496  25064.9  158.026
 3.3916  25618.9  159.558
 3.4336  25959.5  161.217
 3.4756  26498.7  162.816
 3.5176  26987.6  164.1
 3.5596  26853.1  166.161
 3.6016  26848.3  163.733
 3.6436  25953.9  162.116
 3.6856  25784.3  159.851
 3.7276  24574.7  157.151
 3.7696  24417.3  156.834
 3.8116  24178.1  155.96
 3.8536  24271.6  156.181
 3.8956  24014.6  155.174
 3.9376  24016.3  155.455
 3.9796  24014.8  154.929
 4.0216  23991.7  153.888
 4.0636  23931.3  155.183
 4.1056  23893.6  154.711
 4.1476  24223.9  156.064
 4.1896  24365.8  156.39
 4.2316  24360.2  156.198
 4.2736  24967.5  157.933
 4.3156  24881  157.894
 4.3576  26039.2  161.434
 4.3996  26001.8  161.603
 4.4416  26563.5  162.903
 4.4836  27076.9  164.645
 4.5256  27492.1  166.497
 4.5676  27420.6  166.553
 4.6096  28070.8  167.134
 4.6516  28500.3  168.107
 4.6936  28271.9  168.278
 4.7356  28465.5  168.673
 4.7776  28506.4  168.624
 4.8196  28492.9  169.232
 4.8616  27748.6  166.509
 4.9036  27534.6  165.575
 4.9456  27335.1  165.647
 4.9876  26787.4  163.87
 5.0296  27032.1  164.461
 5.0716  26801.8  164.526
 5.1136  26906.9  164.56
 5.1556  27306.6  165.24
 5.1976  27900.2  166.998
 5.2396  27906.2  166.708
 5.2816  27823.7  166.934
 5.3236  27848.2  166.712
 5.3656  27629  167
 5.4076  27351.6  166.306
 5.4496  27178.2  165.27
 5.4916  27576.9  166.221
 5.5336  27250.8  165.254
 5.5756  27486.4  165.957
 5.6176  27608.9  165.765
 5.6596  27773.3  167.252
 5.7016  27718.4  166.353
 5.7436  27984.1  167.43
 5.7856  27856  167.116
 5.8276  28243.9  167.99
 5.8696  28236.1  168.135
 5.9116  28260.1  168.521
 5.9536  28816.7  170.194
 5.9956  28911.7  169.868
 6.0376  28687  169.831
 6.0796  28990.8  170.553
 6.1216  29004.1  170.849
 6.1636  29101.4  170.127
 6.2056  29123.8  170.889
 6.2476  29277.6  171.207
 6.2896  29659.6  171.993
 6.3316  29699.2  172.266
 6.3736  29679.9  172.113
 6.4156  30018.4  172.955
 6.4576  29844.8  172.096
 6.4996  29922.4  172.81
 6.5416  29848.9  172.712
 6.5836  29843.9  172.954
 6.6256  29707.2  172.105
 6.6676  30431  173.747
 6.7096  30667.7  175.286
 6.7516  30771.4  175.246
 6.7936  31005.7  175.292
 6.8356  31127  175.749
 6.8776  31367.7  177.252
 6.9196  31152.8  177.034
 6.9616  31816  178.354
 7.0036  32276.9  179.28
 7.0456  32294.8  178.623
 7.0876  32106.8  179.802
 7.1296  32290.6  179.435
 7.1716  32186.3  178.676
 7.2136  31883.1  177.619
 7.2556  32119.4  178.438
 7.2976  32166.3  179.058
 7.3396  32019.3  178.891
 7.3816  32078.8  179.264
 7.4236  32411.6  179.477
 7.4656  32449.9  179.03
 7.5076  32792.1  180.137
 7.5496  32336  179.415
 7.5916  32810.4  180.775
 7.6336  33044.3  181.302
 7.6756  33174.1  181.508
 7.7176  33623.7  183.058
 7.7596  33492.4  183.936
 7.8016  33892.8  187.268
 7.8436  33688.4  183.383
 7.8856  34019.8  183.886
 7.9276  34433.3  185.395
 7.9696  34904.6  186.969
 8.0116  35566.7  187.284
 8.0536  35570.4  187.539
 8.0956  35834.5  189.432
 8.1376  35816.1  188.847
 8.1796  36507.1  191.202
 8.2216  37431.2  192.333
 8.2636  37426.8  192.61
 8.3056  37127.4  192.569
 8.3476  37902  193.892
 8.3896  37362.1  192.58
 8.4316  37944.6  194.254
 8.4736  38053.2  193.999
 8.5156  37634.7  193.206
 8.5576  36653.4  192.255
 8.5996  37351.7  192.321
 8.6416  37172  193.13
 8.6836  36659  191.61
 8.7256  37469.9  193.181
 8.7676  37148.3  195.245
 8.8096  37584.1  193.64
 8.8516  37346.9  192.6
 8.8936  36696.3  190.866
 8.9356  37435.4  193.101
 8.9776  37683.2  193.833
 9.0196  37492.7  192.999
 9.0616  36942.5  191.086
 9.1036  36640.6  191.483
 9.1456  36190  189.635
 9.1876  36726  190.974
 9.2296  36482.2  189.776
 9.2716  36170.4  188.991
 9.3136  36044.4  188.665
 9.3556  36747.1  190.462
 9.3976  35363.1  187.363
 9.4396  35627.4  187.963
 9.4816  35353.2  187.089
 9.5236  35019.7  186.121
 9.5656  34885.8  186.117
 9.6076  34188  184.784
 9.6496  34150.2  184.554
 9.6916  34047.9  184.245
 9.7336  34459.6  185.122
 9.7756  34091.9  185.438
 9.8176  34029.2  184.768
 9.8596  33792.3  182.538
 9.9016  33272.2  181.13
 9.9436  33267.5  181.025
 9.9856  32525.3  179.273
 10.0276  32205.6  179.453
 10.0696  32775.4  180.077
 10.1116  31742.7  177.484
 10.1536  31689.2  177.47
 10.1956  31263.1  175.904
 10.2376  31285.9  175.453
 10.2796  30952.4  174.635
 10.3216  30873.4  174.713
 10.3636  30539.8  173.79
 10.4056  29700.8  171.806
 10.4476  30134.4  172.643
 10.4896  29964.4  171.77
 10.5316  29699.5  171.57
 10.5736  29559.2  171.582
 10.6156  29429.3  170.944
 10.6576  29340.2  169.244
 10.6996  29067.9  169.176
 10.7416  28579.4  167.963
 10.7836  28162.2  167.417
 10.8256  27746  166.595
 10.8676  27962.5  166.788
 10.9096  27659  165.895
 10.9516  27451.3  164.221
 10.9936  27670.8  165.075
 11.0356  27381  164.83
 11.0776  27359  164.097
 11.1196  26860  163.357
 11.1616  26690.1  162.519
 11.2036  26663.3  162.28
 11.2456  26665.5  163.006
 11.2876  26993.9  163.71
 11.3296  26488.9  162.094
 11.3716  26985.7  163.284
 11.4136  26760.5  163.507
 11.4556  26935.8  163.693
 11.4976  27427.5  164.149
 11.5396  27477.5  164.486
 11.5816  27588.1  165.254
 11.6236  26937.6  163.54
 11.6656  26940.8  162.667
 11.7076  26026.7  160.73
 11.7496  25600.9  163.449
 11.7916  25592.5  158.632
 11.8336  25164.5  158.191
 11.8756  25153  157.71
 11.9176  25090.5  157.194
 11.9596  25082.7  157.327
 12.0016  24781.2  156.897
 12.0436  24848.1  156.805
 12.0856  24499.6  156.22
 12.1276  24475.6  156.092
 12.1696  24444  155.1
 12.2116  24480.7  155.227
 12.2536  24515.6  156.158
 12.2956  24132.3  154.271
 12.3376  24532.9  155.746
 12.3796  24400.1  155.819
 12.4216  24217.7  154.423
 12.4636  24102.3  154.999
 12.5056  24220.8  154.636
 12.5476  24241.9  154.217
 12.5896  24057.4  154.283
 12.6316  24238.2  154.998
 12.6736  23757.3  154.139
 12.7156  24253.1  155.375
 12.7576  24136.6  155.262
 12.7996  24294.5  154.409
 12.8416  24017.9  154.583
 12.8836  24177.9  154.833
 12.9256  24712.8  155.651
 12.9676  24462.8  155.271
 13.0096  24696.6  157.125
 13.0516  24614.1  155.891
 13.0936  24996.7  157.509
 13.1356  24965.5  156.366
 13.1776  24715.8  156.612
 13.2196  25040.6  157.271
 13.2616  24658.1  156.395
 13.3036  24839.8  156.925
 13.3456  24653.7  156.694
 13.3876  25121  157.426
 13.4296  24727  156.35
 13.4716  25050.3  157.001
 13.5136  24877.4  156.579
 13.5556  24945.9  157.445
 13.5976  24691.9  156.811
 13.6396  24757.4  156.377
 13.6816  24808.8  156.993
 13.7236  25359.3  158.325
 13.7656  26871.1  163.426
 13.8076  27509.3  164.015
 13.8496  26982.2  163.078
 13.8916  25118.7  158.501
 13.9336  24429.6  155.588
 13.9756  24317.2  154.6
 14.0176  24142.2  154.738
 14.0596  24042.6  154.348
 14.1016  23951.7  154.474
 14.1436  24130.4  154.162
 14.1856  23545.2  152.587
 14.2276  23395.7  152.569
 14.2696  23551.9  152.946
 14.3116  22984.6  151.007
 14.3536  22895.2  150.873
 14.3956  22691.3  149.93
 14.4376  23003.8  150.727
 14.4796  22883  150.338
 14.5216  22463.3  149.747
 14.5636  22411.5  149.137
 14.6056  22539  149.105
 14.6476  22531.4  148.326
 14.6896  21943  146.924
 14.7316  21633.5  146.924
 14.7736  21566.2  145.843
 14.8156  21351  145.12
 14.8576  21435.9  145.269
 14.8996  20987.1  144.946
 14.9416  20521  143.337
 14.9836  20608.1  143.628
 15.0256  20151.7  140.954
 15.0676  19987.8  140.817
 15.1096  19789.4  139.731
 15.1516  19531  139.374
 15.1936  19368.9  138.218
 15.2356  19344.8  138.292
 15.2776  19260.9  137.704
 15.3196  18849  137.215
 15.3616  18679.5  136.35
 15.4036  18706.5  136.311
 15.4456  18881.1  136.599
 15.4876  18489.1  134.858
 15.5296  18456.2  135.025
 15.5716  18167.3  133.568
 15.6136  18281.5  134.32
 15.6556  18171.8  133.152
 15.6976  18084.3  133.133
 15.7396  17924.6  132.917
 15.7816  18049.3  132.898
 15.8236  17724.6  132.382
 15.8656  17712.5  132.137
 15.9076  17612.6  131.584
 15.9496  18272.8  136.849
 15.9916  17875  135.772
 16.0336  18017.7  133.118
 16.0756  17930.2  133.121
 16.1176  17597  131.966
 16.1596  17089.4  131.23
 16.2016  17222  130.486
 16.2436  17276.9  131.08
 16.2856  17076.1  129.81
 16.3276  16939.8  129.746
 16.3696  17243.8  130.73
 16.4116  16838.8  129.633
 16.4536  16940.1  129.833
 16.4956  17021.4  129.87
 16.5376  16781.5  129.148
 16.5796  16747.9  128.378
 16.6216  16808.6  128.889
 16.6636  16573.3  128.174
 16.7056  16646.3  128.31
 16.7476  16688.8  127.997
 16.7896  16783  129.103
 16.8316  16532.9  128.128
 16.8736  16776.9  129.312
 16.9156  16706.1  129.383
 16.9576  16434.1  129.135
 16.9996  16551.2  130.066
 17.0416  16686  128.975
 17.0836  16711.9  128.827
 17.1256  16439.2  127.778
 17.1676  16549.8  128.18
 17.2096  16358.5  127.305
 17.2516  16148  126.279
 17.2936  16156.1  126.669
 17.3356  16000  126.033
 17.3776  15881.3  125.764
 17.4196  15894.3  125.518
 17.4616  15822.5  125.136
 17.5036  15435  123.972
 17.5456  15454.3  124.682
 17.5876  15517.7  123.97
 17.6296  15590.2  124.087
 17.6716  15397.6  123.901
 17.7136  15304.4  123.647
 17.7556  15378.1  124.25
 17.7976  15442.2  124.243
 17.8396  15176  122.663
 17.8816  14997.2  122.513
 17.9236  15176.8  123.02
 17.9656  15070.7  123.128
 18.0076  15039.3  122.563
 18.0496  15068.8  121.827
 18.0916  14944.4  121.871
 18.1336  14923.1  121.885
 18.1756  15086.4  122.095
 18.2176  14775.9  121.044
 18.2596  14769.2  120.748
 18.3016  15048.7  122.148
 18.3436  14911.7  121.597
 18.3856  14617.8  120.517
 18.4276  14679.8  120.46
 18.4696  14695.7  120.605
 18.5116  14709.5  120.948
 18.5536  14737.2  121.428
 18.5956  14554.1  120.225
 18.6376  14367.1  119.865
 18.6796  14537.1  119.873
 18.7216  14534.8  120.36
 18.7636  14590.6  120.586
 18.8056  14281.7  119.225
 18.8476  14195.7  119.501
 18.8896  14300.7  119.273
 18.9316  14459.5  119.915
 18.9736  14451  119.575
 19.0156  14301.1  119.385
 19.0576  14519.2  119.104
 19.0996  14351.7  119.29
 19.1416  14390.2  119.7
 19.1836  14255.2  118.746
 19.2256  13977.4  117.799
 19.2676  14266.3  119.098
 19.3096  14274  119.385
 19.3516  14291.3  119.411
 19.3936  14147.7  118.71
 19.4356  14431  119.761
 19.4776  14167  118.76
 19.5196  14191.7  118.707
 19.5616  14037.3  118.328
 19.6036  14002.9  117.674
 19.6456  14147  118.4
 19.6876  14178.7  118.174
 19.7296  14360.1  119.375
 19.7716  14059.5  118.301
 19.8136  14363.5  119.758
 19.8556  14525.1  119.911
 19.8976  14348.6  119.248
 19.9396  14509.1  119.49
 19.9816  14512.4  119.832
 20.0236  14875  121.443
 20.0656  14978.2  121.875
 20.1076  14898.5  122.023
 20.1496  14501.9  120.387
 20.1916  14573.5  120.188
 20.2336  14301.3  118.978
 20.2756  13873  117.629
 20.3176  13739.2  116.805
 20.3596  13731.9  116.772
 20.4016  13825.8  116.958
 20.4436  13553.5  116.365
 20.4856  13645.1  116.54
 20.5276  13571  116.699
 20.5696  13745.9  116.872
 20.6116  13471.6  115.994
 20.6536  13467.5  115.489
 20.6956  13435.9  115.484
 20.7376  13246.7  114.879
 20.7796  13314.3  114.866
 20.8216  13514.5  115.433
 20.8636  13477.5  115.645
 20.9056  13256.2  114.641
 20.9476  13216.8  114.303
 20.9896  13514.6  115.455
 21.0316  13265.9  114.296
 21.0736  13193.3  114.501
 21.1156  13045.2  114.019
 21.1576  13304.9  115.177
 21.1996  13235.3  114.861
 21.2416  13317.5  115.038
 21.2836  13365.4  115.226
 21.3256  13189.2  114.535
 21.3676  13109.3  113.727
 21.4096  13039.8  113.748
 21.4516  12963.1  113.287
 21.4936  12838.8  113.012
 21.5356  13160  114.352
 21.5776  13066.2  113.784
 21.6196  12999.7  113.525
 21.6616  12724.1  112.406
 21.7036  12971.1  113.248
 21.7456  12980.4  113.377
 21.7876  12897.1  112.77
 21.8296  12926.7  112.749
 21.8716  12875.4  112.752
 21.9136  13189.5  114.325
 21.9556  12896.5  112.719
 21.9976  12844.1  112.522
 22.0396  12813.9  112.643
 22.0816  12791.5  113.074
 22.1236  12890.1  112.968
 22.1656  12802.7  112.727
 22.2076  12409.5  110.457
 22.2496  12586.3  111.274
 22.2916  12758.2  111.915
 22.3336  12528.6  111.624
 22.3756  12617.4  111.73
 22.4176  12500.6  111.071
 22.4596  12382.8  111.128
 22.5016  12507  111.19
 22.5436  12610.8  111.523
 22.5856  12607  111.758
 22.6276  12648.1  112.11
 22.6696  12484.2  111.702
 22.7116  12619.3  111.816
 22.7536  12691.2  112.106
 22.7956  12557  110.844
 22.8376  12306.8  110.244
 22.8796  12458.8  110.732
 22.9216  12566.9  111.754
 22.9636  12583.1  110.978
 23.0056  12555.8  110.993
 23.0476  12526  111.431
 23.0896  12732  111.718
 23.1316  12646.2  111.781
 23.1736  12666  114.592
 23.2156  12882.2  113.124
 23.2576  13014.4  113.831
 23.2996  12754.8  112.475
 23.3416  12881.4  113.554
 23.3836  12843.4  112.609
 23.4256  13074.5  113.744
 23.4676  12807.2  112.272
 23.5096  12772.8  112.783
 23.5516  12793.6  112.162
 23.5936  12648.8  112.444
 23.6356  12971  113.524
 23.6776  12532.3  111.809
 23.7196  12596.5  111.662
 23.7616  12789.2  112.435
 23.8036  12976.2  113.293
 23.8456  12565.3  111.05
 23.8876  12602.9  111.564
 23.9296  12416.9  111.237
 23.9716  12652.3  111.478
 24.0136  12731.8  112.745
 24.0556  12344.8  110.736
 24.0976  12381.3  110.711
 24.1396  12193  112.538
 24.1816  12446.3  112.057
 24.2236  12324.3  111.127
 24.2656  12226.5  110.17
 24.3076  12187.1  110.261
 24.3496  12147.9  109.967
 24.3916  12244.1  110.448
 24.4336  12194.7  110.422
 24.4756  12204.4  110.357
 24.5176  12049.3  109.283
 24.5596  11915.6  108.789
 24.6016  11963.5  109.308
 24.6436  12005.7  108.997
 24.6856  11935.8  108.434
 24.7276  11880.1  108.512
 24.7696  11917.1  108.785
 24.8116  11742  108.159
 24.8536  11522.9  107.149
 24.8956  11572.9  107.115
 24.9376  11719.3  107.721
 24.9796  11461.6  106.889
 25.0216  11525.8  107.295
 25.0636  11598.4  107.289
 25.1056  11348.3  106.83
 25.1476  11524.8  109.332
 25.1896  11301.3  106.754
 25.2316  11379.3  106.384
 25.2736  11312  105.723
 25.3156  11310.7  105.788
 25.3576  11400.3  106.641
 25.3996  11262.9  105.983
 25.4416  11273  106.009
 25.4836  11085.2  105.641
 25.5256  11236  105.708
 25.5676  11086  104.74
 25.6096  11039  105.096
 25.6516  11268.8  105.681
 25.6936  11141.7  105.391
 25.7356  11127.6  105.467
 25.7776  11177.6  105.294
 25.8196  11043.2  104.903
 25.8616  11100.9  105.112
 25.9036  11127.4  104.685
 25.9456  11045  104.907
 25.9876  10941.6  104.474
 26.0296  11119.2  104.836
 26.0716  11035.8  104.858
 26.1136  10979.5  104.52
 26.1556  11134.2  104.64
 26.1976  10947.3  104.691
 26.2396  10965.6  103.929
 26.2816  11133.9  105.343
 26.3236  11048.2  105.09
 26.3656  11174.1  105.396
 26.4076  10953.5  104.544
 26.4496  11183.7  105.232
 26.4916  11185.5  105.138
 26.5336  11468.6  106.82
 26.5756  11690.1  107.726
 26.6176  11124.8  105.079
 26.6596  10980.2  104.731
 26.7016  10977.1  104.485
 26.7436  11051.6  104.955
 26.7856  10758.7  103.548
 26.8276  10711.7  103.291
 26.8696  10823.2  103.692
 26.9116  10716.4  103.117
 26.9536  10681.6  102.992
 26.9956  10609.1  102.691
 27.0376  10692.4  103.301
 27.0796  10545.7  102.332
 27.1216  10656.6  102.922
 27.1636  10364.6  101.677
 27.2056  10555.1  102.485
 27.2476  10555  102.482
 27.2896  10459.9  102.157
 27.3316  10474.9  101.915
 27.3736  10394.2  101.807
 27.4156  10557  102.421
 27.4576  10236.7  101.086
 27.4996  10523.3  102.091
 27.5416  10438.9  101.989
 27.5836  10362.4  101.455
 27.6256  10336.4  101.502
 27.6676  10394.5  101.783
 27.7096  10374.6  101.564
 27.7516  10331  101.502
 27.7936  10638.9  103.142
 27.8356  10399.1  101.58
 27.8776  10600.5  102.623
 27.9196  10192  100.495
 27.9616  10333.9  101.393
 28.0036  10245.8  100.921
 28.0456  10169.9  100.688
 28.0876  10276.6  101.297
 28.1296  10038.6  99.8986
 28.1716  10226.2  100.892
 28.2136  10066.7  100.076
 28.2556  10201.6  100.853
 28.2976  10190.7  100.802
 28.3396  10065.5  99.9356
 28.3816  10114.6  100.193
 28.4236  9990.24  99.7316
 28.4656  10036.9  100.004
 28.5076  10004.6  99.4895
 28.5496  9984.59  99.6342
 28.5916  10015.8  99.6039
 28.6336  10111.1  100.414
 28.6756  10154.6  99.8246
 28.7176  9918.84  99.1002
 28.7596  9876.77  98.8946
 28.8016  9891.4  99.0154
 28.8436  9875.88  99.1708
 28.8856  9888.9  99.1412
 28.9276  9868.51  99.2321
 28.9696  9940.14  99.2405
 29.0116  9771.74  98.5887
 29.0536  9807.9  98.9792
 29.0956  9829.64  98.7756
 29.1376  9688.52  98.0474
 29.1796  9748.47  98.3948
 29.2216  9854.65  98.7671
 29.2636  9882.82  98.988
 29.3056  9864.26  98.6768
 29.3476  9652.4  98.1434
 29.3896  9741.56  98.7062
 29.4316  9853.47  98.604
 29.4736  9550.48  97.1365
 29.5156  9759.12  98.1202
 29.5576  9616.98  98.144
 29.5996  9492.63  96.7673
 29.6416  9691.33  97.8977
 29.6836  9467.68  96.687
 29.7256  9603  97.7064
 29.7676  9516.24  97.1545
 29.8096  9495.53  96.9968
 29.8516  9348.73  96.5707
 29.8936  9408.84  96.9753
 29.9356  9450.72  96.9446
 29.9776  9531.5  97.5117
 30.0196  9397.58  96.4901
 30.0616  9571.54  97.4791
 30.1036  9476.85  96.8266
 30.1456  9375.53  96.5319
 30.1876  9321.49  96.2396
 30.2296  9314.6  96.1455
 30.2716  9340.67  95.9233
 30.3136  9542.16  97.8125
 30.3556  9546.91  97.8253
 30.3976  9449.18  98.8109
 30.4396  9856.75  98.2164
 30.4816  9782.53  97.4658
 30.5236  9805.69  97.5597
 30.5656  9613.09  97.2791
 30.6076  9603.54  96.6367
 30.6496  9642.16  97.2407
 30.6916  9425.36  96.2301
 30.7336  9609.52  97.3194
 30.7756  9639.76  97.5285
 30.8176  9594.77  97.2423
 30.8596  9623.61  97.134
 30.9016  9538.77  97.0645
 30.9436  9660.42  97.4062
 30.9856  9737.49  97.9432
 31.0276  9465.87  96.199
 31.0696  9537.42  97.1263
 31.1116  9448.17  96.6426
 31.1536  9440.05  96.4647
 31.1956  9472.54  96.7237
 31.2376  9205.49  95.3863
 31.2796  9581.51  96.8392
 31.3216  9624.64  96.9817
 31.3636  9470.54  96.9202
 31.4056  9409.75  97.9128
 31.4476  9471.22  96.1311
 31.4896  9441.4  96.4802
 31.5316  9370.81  95.5372
 31.5736  9533.84  96.1876
 31.6156  9454.24  95.7905
 31.6576  9608.5  96.6368
 31.6996  9692.37  96.7266
 31.7416  9422.43  96.4722
 31.7836  9548.8  96.0958
 31.8256  9387.64  95.5542
 31.8676  9517.21  96.2058
 31.9096  9406.9  96.0149
 31.9516  9228.77  95.2773
 31.9936  9244.16  95.1829
 32.0356  9409.05  96.0619
 32.0776  9314.29  95.4804
 32.1196  9415.86  96.1068
 32.1616  9459.62  95.77
 32.2036  9417.5  96.0692
 32.2456  9290.15  95.8032
 32.2876  9330  95.5034
 32.3296  9163.89  94.5904
 32.3716  9083.71  94.3211
 32.4136  9092.24  94.5602
 32.4556  9209.19  94.5543
 32.4976  9144.03  94.1162
 32.5396  9104.69  93.9769
 32.5816  9197.19  94.5756
 32.6236  9041.71  93.8312
 32.6656  9313.95  95.8005
 32.7076  8958.51  93.6132
 32.7496  9155.26  94.3105
 32.7916  9133.56  94.1502
 32.8336  9175.48  94.4671
 32.8756  9225.27  94.4319
 32.9176  8940.02  93.445
 32.9596  9068.99  94.188
 33.0016  9029.65  93.7626
 33.0436  9033.26  93.961
 33.0856  9054.71  94.1603
 33.1276  8889  93.0316
 33.1696  9038.36  93.6325
 33.2116  9046.38  93.9168
 33.2536  9071.52  94.0207
 33.2956  8982.75  93.6519
 33.3376  8974.89  93.3396
 33.3796  9062.65  94.0255
 33.4216  9082.8  93.7146
 33.4636  9023.51  93.5708
 33.5056  8952.38  93.4529
 33.5476  9013.92  93.7367
 33.5896  8981.98  93.3778
 33.6316  8973.54  93.6302
 33.6736  8737.24  92.6461
 33.7156  8835.82  93.1977
 33.7576  8923.47  93.2992
 33.7996  8953.68  93.2159
 33.8416  8809.39  92.645
 33.8836  8789.41  92.3245
 33.9256  9008.26  93.5067
 33.9676  8947.44  93.0919
 34.0096  8889.64  93.0984
 34.0516  8800.35  92.2803
 34.0936  8827.32  92.6921
 34.1356  8892.24  92.7702
 34.1776  8709.53  91.8087
 34.2196  8747.58  92.2
 34.2616  8661.94  91.8827
 34.3036  8769.27  92.6837
 34.3456  8718.36  92.1797
 34.3876  8832.8  92.7494
 34.4296  8797.43  92.2584
 34.4716  8785.38  92.3463
 34.5136  8877.63  93.0223
 34.5556  8682.62  92.2589
 34.5976  8828.18  92.8291
 34.6396  8700.31  91.9977
 34.6816  8805.12  92.5172
 34.7236  8717.24  91.8439
 34.7656  8735.21  92.1401
 34.8076  8547.81  91.4848
 34.8496  8451.48  90.8841
 34.8916  8585.86  91.3947
 34.9336  8688.95  91.9311
 34.9756  8667.98  91.7365
 35.0176  8673.68  92.2984
 35.0596  8760.86  92.5754
 35.1016  8761.97  92.3427
 35.1436  8868.81  92.5814
 35.1856  8644.84  91.5349
 35.2276  8659.48  91.7892
 35.2696  8673.82  92.052
 35.3116  8522.33  91.3516
 35.3536  8592.96  91.4295
 35.3956  8502.78  90.665
 35.4376  8616.56  91.8251
 35.4796  8652.3  92.0662
 35.5216  8500.66  91.211
 35.5636  8215.48  90.4124
 35.6056  8404.83  90.469
 35.6476  8705.55  91.9677
 35.6896  8663.83  91.8459
 35.7316  8512.3  91.0133
 35.7736  8452.99  90.8743
 35.8156  8603.24  91.6824
 35.8576  8535.98  91.5721
 35.8996  8602.66  91.8905
 35.9416  8533.32  91.0288
 35.9836  8583.54  91.6422
 36.0256  8749.3  92.5424
 36.0676  8742.93  92.2655
 36.1096  8607  91.6803
 36.1516  8671.9  91.922
 36.1936  8617.32  91.4688
 36.2356  8590.67  91.9914
 36.2776  8432.79  90.6184
 36.3196  8563.25  90.9848
 36.3616  8537.37  90.9586
 36.4036  8539.9  91.0569
 36.4456  8520.9  91.1516
 36.4876  8359.28  90.238
 36.5296  8483.98  90.9461
 36.5716  8478.89  91.7024
 36.6136  8325.07  89.6625
 36.6556  8259.64  89.5033
 36.6976  8273.48  90.08
 36.7396  8007.93  88.5282
 36.7816  8149.48  89.5081
 36.8236  8202.49  89.7255
 36.8656  8053  88.9644
 36.9076  8032.1  88.739
 36.9496  8067.99  88.9187
 36.9916  8086.63  88.6562
 37.0336  8235.58  89.7784
 37.0756  8305.44  89.9543
 37.1176  8039.1  88.7678
 37.1596  8094.54  89.0779
 37.2016  8035.68  88.9793
 37.2436  8197.96  89.1864
 37.2856  8089.26  88.8525
 37.3276  8114.2  88.3422
 37.3696  8095.78  89.125
 37.4116  8152.61  89.3387
 37.4536  8029.52  88.3866
 37.4956  7978.32  88.2928
 37.5376  8325.56  91.7805
 37.5796  8194.38  90.9878
 37.6216  8164.91  89.0704
 37.6636  8300.24  89.7019
 37.7056  8233.53  89.5288
 37.7476  8339.9  89.6394
 37.7896  8046.79  88.5629
 37.8316  8065.64  88.8149
 37.8736  8137.91  88.746
 37.9156  8129.94  88.6912
 37.9576  8182.89  88.8949
 37.9996  8056.72  87.9173
 38.0416  8141.03  89.1861
 38.0836  8368.75  90.3267
 38.1256  8119.05  88.9435
 38.1676  8013.94  88.4796
 38.2096  8240.88  89.3275
 38.2516  8201.89  89.3513
 38.2936  8314.09  89.7497
 38.3356  8074.33  88.385
 38.3776  8091.55  88.7183
 38.4196  8086.48  88.5345
 38.4616  8212.76  89.489
 38.5036  8354.04  90.0933
 38.5456  8016.44  89.0997
 38.5876  8046  89.4525
 38.6296  8040.34  88.2234
 38.6716  8160.52  88.6729
 38.7136  8092.32  88.2535
 38.7556  8091.61  88.7583
 38.7976  8020.7  88.3025
 38.8396  8025  88.5974
 38.8816  7981.68  88.3356
 38.9236  7957.64  88.003
 38.9656  8089.49  88.638
 39.0076  8082.86  87.9958
 39.0496  8208.54  89.2365
 39.0916  8190.01  88.7832
 39.1336  8177.19  89.1206
 39.1756  8163.57  89.1142
 39.2176  7999.87  88.757
 39.2596  7872.71  87.9715
 39.3016  7987.7  88.1291
 39.3436  7980.83  88.5707
 39.3856  8132.82  88.838
 39.4276  8214.19  89.801
 39.4696  8046.38  88.5046
 39.5116  8100.17  89.3052
 39.5536  8078.81  89.6268
 39.5956  8042.75  88.5281
 39.6376  7952.52  88.0287
 39.6796  8101.5  88.5892
 39.7216  8030.95  88.3034
 39.7636  8060.61  89.0364
 39.8056  8058.83  88.8057
 39.8476  7928.1  88.3316
 39.8896  8083.77  88.8211
 39.9316  8007.55  88.6612
 39.9736  8145.58  89.0703
 40.0156  8022.88  88.1464
 40.0576  7949.41  88.0923
 40.0996  8047.55  87.8125
 40.1416  8020.52  88.4791
 40.1836  8132.76  88.9641
 40.2256  8048.4  88.5286
 40.2676  8026.86  88.5215
 40.3096  8136.97  89.0666
 40.3516  8016.31  88.5125
 40.3936  8073.93  88.3739
 40.4356  8012.69  88.2566
 40.4776  8142.25  89.3803
 40.5196  8032.3  88.8245
 40.5616  8139.98  89.1193
 40.6036  8016.77  88.708
 40.6456  8093.39  88.7277
 40.6876  8213.04  89.3724
 40.7296  8105.61  88.8131
 40.7716  8087.9  88.9385
 40.8136  8011.81  88.4848
 40.8556  8094.68  89.0654
 40.8976  7954.84  88.2257
 40.9396  8104.96  89.3909
 40.9816  8193.28  89.1651
 41.0236  8042.63  88.1259
 41.0656  8044.94  88.6732
 41.1076  8042.95  88.4374
 41.1496  8115.34  88.7348
 41.1916  8024.82  88.5525
 41.2336  8093.9  88.9347
 41.2756  8082.11  88.4772
 41.3176  8030.64  88.7991
 41.3596  8141.37  89.1528
 41.4016  7948.98  88.3484
 41.4436  8035.89  88.6126
 41.4856  7923.63  88.1664
 41.5276  8012.48  88.6614
 41.5696  7974.59  88.0897
 41.6116  8171.48  89.5573
 41.6536  8037.38  88.6774
 41.6956  8005.33  88.561
 41.7376  7909.17  88.0633
 41.7796  7918.74  88.0015
 41.8216  7963.37  88.4804
 41.8636  8023  88.7526
 41.9056  7971.28  88.2481
 41.9476  7998.12  88.5422
 41.9896  8084.11  88.7655
 42.0316  8103.62  88.9745
 42.0736  8101.45  89.0606
 42.1156  7927.43  87.9378
 42.1576  8015.61  88.512
 42.1996  8072.26  88.9694
 42.2416  7980.83  88.0614
 42.2836  7994.03  88.2476
 42.3256  8024.67  88.5355
 42.3676  8110.51  88.7831
 42.4096  7971.41  88.0067
 42.4516  8027.51  88.3835
 42.4936  7980.48  88.1986
 42.5356  7879.43  87.7974
 42.5776  8029.5  88.5528
 42.6196  7998.9  88.4476
 42.6616  7886.2  87.9892
 42.7036  7973.4  87.8493
 42.7456  7999.94  88.3456
 42.7876  7929.98  88.0541
 42.8296  7985  88.1928
 42.8716  7866.01  87.7072
 42.9136  7856.22  87.4374
 42.9556  7993.49  88.331
 42.9976  8060.8  88.675
 43.0396  7963.65  87.8659
 43.0816  7936.18  88.1003
 43.1236  7819.55  87.5001
 43.1656  7876.34  87.6473
 43.2076  7901.52  87.885
 43.2496  7922.48  87.829
 43.2916  7905.62  88.0959
 43.3336  7917.04  87.9941
 43.3756  7924.48  87.7841
 43.4176  7876.81  87.6103
 43.4596  7768.72  86.8593
 43.5016  7858.67  87.7615
 43.5436  7876.44  87.7724
 43.5856  7782.34  87.273
 43.6276  7818.76  87.3598
 43.6696  7813.06  87.588
 43.7116  7885.04  87.4857
 43.7536  7988.21  88.5655
 43.7956  7706.41  88.2042
 43.8376  7690.45  86.6413
 43.8796  7722.26  86.9003
 43.9216  7801.39  87.2645
 43.9636  7741.48  87.0351
 44.0056  7729.48  87.2022
 44.0476  7696.34  86.6384
 44.0896  7565.45  86.2431
 44.1316  7782.09  86.989
 44.1736  7747.33  86.9226
 44.2156  7713.32  86.5852
 44.2576  7674.62  86.6931
 44.2996  7640.67  86.4664
 44.3416  7761.53  86.9069
 44.3836  7535.69  85.9648
 44.4256  7566.23  85.7776
 44.4676  7671.03  86.5322
 44.5096  7646.56  86.535
 44.5516  7552.71  85.9703
 44.5936  7631.76  86.3722
 44.6356  7653.01  86.227
 44.6776  7686.14  86.6527
 44.7196  7582.1  86.4509
 44.7616  7706.7  88.498
 44.8036  7607.69  86.3362
 44.8456  7633.45  86.6821
 44.8876  7745.29  87.1527
 44.9296  7716.94  86.4382
 44.9716  7709.32  86.8287
 45.0136  7681.62  86.6078
 45.0556  7793.92  87.2196
 45.0976  7808.73  87.4697
 45.1396  7639.79  86.2808
 45.1816  7637.12  86.1863
 45.2236  7768.45  86.8337
 45.2656  7532.73  86.0049
 45.3076  7708.44  86.7678
 45.3496  7680.88  86.937
 45.3916  7629.07  86.9157
 45.4336  7738.29  87.3741
 45.4756  7773.96  87.4227
 45.5176  7776.75  87.0527
 45.5596  7691.26  86.6921
 45.6016  7584.06  86.5123
 45.6436  7569.06  85.5974
 45.6856  7633.59  86.6265
 45.7276  7566.3  87.5874
 45.7696  7569.45  87.2797
 45.8116  7694.1  87.4089
 45.8536  7493.38  86.158
 45.8956  7633.23  86.3062
 45.9376  7653.81  85.8822
 45.9796  7656.44  86.5892
 46.0216  7685.17  87.0964
 46.0636  7777.92  86.7368
 46.1056  7658.44  86.0655
 46.1476  7612.25  86.4014
 46.1896  7616.99  86.5831
 46.2316  7693.3  86.883
 46.2736  7512.35  86.2293
 46.3156  7611.1  86.375
 46.3576  7626.82  86.6684
 46.3996  7546.11  86.3713
 46.4416  7651.23  86.5351
 46.4836  7593.41  86.57
 46.5256  7560.61  86.3263
 46.5676  7397.74  85.5042
 46.6096  7532.37  86.2012
 46.6516  7626.28  85.7754
 46.6936  7645.68  86.3844
 46.7356  7665.32  86.5957
 46.7776  7603.46  87.112
 46.8196  7543.72  86.3578
 46.8616  7456.21  85.8035
 46.9036  7392.99  85.0955
 46.9456  7465.11  85.1435
 46.9876  7521.19  85.554
 47.0296  7459.45  85.8916
 47.0716  7452.93  85.6762
 47.1136  7393.42  84.9957
 47.1556  7520.13  85.597
 47.1976  7565.9  85.9336
 47.2396  7498.35  85.9576
 47.2816  7375.09  84.9534
 47.3236  7473.56  85.8877
 47.3656  7602.36  86.5623
 47.4076  7475.85  85.6364
 47.4496  7363.63  85.0836
 47.4916  7507.32  86.0954
 47.5336  7526.97  86.0217
 47.5756  7561.85  86.3459
 47.6176  7406.76  85.3579
 47.6596  7468.17  85.4238
 47.7016  7641.3  86.1963
 47.7436  7463.17  85.5451
 47.7856  7656.09  86.6621
 47.8276  7442.22  85.4891
 47.8696  7563.75  86.2758
 47.9116  7479.99  85.5074
 47.9536  7552.45  85.8667
 47.9956  7412.89  85.7891
 48.0376  7445.38  85.7498
 48.0796  7521.62  86.3144
 48.1216  7465.69  85.8138
 48.1636  7637.87  86.3473
 48.2056  7518.74  85.9496
 48.2476  7608.8  86.77
 48.2896  7557.02  86.3904
 48.3316  7530.86  86.1815
 48.3736  7494.28  85.996
 48.4156  7409.86  85.3658
 48.4576  7420.32  85.7197
 48.4996  7520.93  85.7459
 48.5416  7502.54  85.9639
 48.5836  7489.65  85.5644
 48.6256  7498.59  85.807
 48.6676  7476.2  86.2251
 48.7096  7547.93  85.887
 48.7516  7555.1  86.0732
 48.7936  7370.93  85.0899
 48.8356  7515.19  85.9677
 48.8776  7437.71  86.1147
 48.9196  7540.78  86.0483
 48.9616  7373.31  85.4796
 49.0036  7457.25  86.3068
 49.0456  7349.21  85.6653
 49.0876  7468.86  85.8948
 49.1296  7278.67  84.9608
 49.1716  7358.9  85.3019
 49.2136  7402.11  85.4651
 49.2556  7409.29  85.6483
 49.2976  7452.31  85.8508
 49.3396  7407.43  85.6506
 49.3816  7558.75  85.9218
 49.4236  7421.8  85.5821
 49.4656  7392.82  85.4006
 49.5076  7474.25  85.6576
 49.5496  7450.66  85.5949
 49.5916  7379.92  85.0806
 49.6336  7381.7  85.3077
 49.6756  7480.03  86.1048
 49.7176  7340.92  85.2506
 49.7596  7302.64  84.7834
 49.8016  7521.62  85.9579
 49.8436  7357.63  85.337
 49.8856  7276.21  84.8593
 49.9276  7315.25  85.1963
 49.9696  7386.8  85.5846
 50.0116  7495.11  86.3591
 50.0536  7524.33  86.4719
 50.0956  7321.73  85.3585
 50.1376  7377.05  85.3699
 50.1796  7317.53  85.3101
 50.2216  7297.68  85.1871
 50.2636  7324.73  84.9556
 50.3056  7286.27  84.9164
 50.3476  7323.4  85.1531
 50.3896  7274.05  84.8339
 50.4316  7296.17  84.7857
 50.4736  7266.19  84.8371
 50.5156  7230.8  84.6263
 50.5576  7319.2  84.9002
 50.5996  7316.21  85.2802
 50.6416  7306.86  85.0379
 50.6836  7395.83  85.6159
 50.7256  7356.55  85.2863
 50.7676  7462.01  86.2426
 50.8096  7257.04  84.5797
 50.8516  7290.21  85.2026
 50.8936  7172.81  84.2944
 50.9356  7371.65  85.5551
 50.9776  7267.94  85.1225
 51.0196  7018.97  83.7818
 51.0616  7151.2  83.8866
 51.1036  7258.09  84.8767
 51.1456  7385.29  85.526
 51.1876  7219.92  83.8678
 51.2296  7106.64  83.9937
 51.2716  7004.5  82.961
 51.3136  7031.69  83.5957
 51.3556  7143.19  83.8655
 51.3976  7114.65  83.8463
 51.4396  7005.26  83.5259
 51.4816  6978.85  83.2192
 51.5236  7232.71  84.8235
 51.5656  7089.67  83.5533
 51.6076  7057.25  83.4505
 51.6496  7059.5  83.6513
 51.6916  7042.91  83.9222
 51.7336  7067.51  84.159
 51.7756  7201.11  84.6383
 51.8176  7036.69  83.7812
 51.8596  7019.02  83.6898
 51.9016  7250.48  84.6524
 51.9436  7082.78  85.1771
 51.9856  7155.38  86.022
 52.0276  7189.65  84.6783
 52.0696  7235.62  85.0111
 52.1116  7134.78  84.5558
 52.1536  7227.39  84.9743
 52.1956  7117.71  83.788
 52.2376  7252.65  84.7498
 52.2796  7178.62  84.1272
 52.3216  7023.76  83.9193
 52.3636  7077.86  83.7788
 52.4056  7074.03  83.638
 52.4476  7098.81  84.1558
 52.4896  7042.66  83.8766
 52.5316  7198  84.8282
 52.5736  7075.8  83.8341
 52.6156  7206.84  85.0093
 52.6576  7112.02  83.8831
 52.6996  6987.72  84.1366
 52.7416  6944.85  83.7406
 52.7836  7144.31  84.8184
 52.8256  7124.93  83.8862
 52.8676  6856.94  82.8815
 52.9096  6962.32  83.5851
 52.9516  7099.29  84.8208
 52.9936  7009  84.6618
 53.0356  7081.17  84.0612
 53.0776  7120.48  84.5791
 53.1196  7098.21  84.5697
 53.1616  6985.51  83.9411
 53.2036  7014.28  84.0826
 53.2456  7020.51  84.2251
 53.2876  7144.56  84.6512
 53.3296  7030.03  84.3094
 53.3716  7231.13  85.2308
 53.4136  7026.55  84.1797
 53.4556  6946.68  83.7312
 53.4976  6828.82  82.8472
 53.5396  7001.68  84.3096
 53.5816  6997.32  83.9081
 53.6236  6898.27  83.6048
 53.6656  7045.49  84.1383
 53.7076  7054.38  84.1559
 53.7496  7150.22  84.8654
 53.7916  6950.72  83.812
 53.8336  7044.15  84.2554
 53.8756  6894.25  83.9131
 53.9176  6977.49  83.7583
 53.9596  6815.07  83.542
 54.0016  6762.91  82.5509
 54.0436  6711.25  82.4355
 54.0856  6760.7  82.1733
 54.1276  6793.07  82.5662
 54.1696  6742.93  82.4286
 54.2116  6908.53  83.1714
 54.2536  6719.15  81.8445
 54.2956  6800.98  82.3227
 54.3376  6728.32  82.4296
 54.3796  6623.96  81.6945
 54.4216  6800.17  82.8453
 54.4636  6722.7  82.3873
 54.5056  6772.44  82.4233
 54.5476  6741.36  82.5927
 54.5896  6775.91  82.6279
 54.6316  6778.62  82.4802
 54.6736  6806.74  82.7531
 54.7156  6834.74  82.9496
 54.7576  6576.61  81.3371
 54.7996  6819.74  82.9829
 54.8416  6714.26  82.3275
 54.8836  6753.78  82.7174
 54.9256  6607.33  81.5961
 54.9676  6537.8  81.0254
 55.0096  6558.61  81.1964
 55.0516  6546.75  81.3507
 55.0936  6645.94  81.627
 55.1356  6584.5  81.2974
 55.1776  6748.39  82.5345
 55.2196  6602.52  81.4834
 55.2616  6772.5  82.7122
 55.3036  6597.31  81.7858
 55.3456  6443.37  80.9767
 55.3876  6605.52  81.7071
 55.4296  6580.66  81.6061
 55.4716  6652.84  82.0413
 55.5136  6517.3  80.9581
 55.5556  6719.75  82.246
 55.5976  6627.2  81.7565
 55.6396  6688.71  82.0925
 55.6816  6511.81  80.8551
 55.7236  6472.13  80.6695
 55.7656  6669.69  81.6153
 55.8076  6488.54  80.5102
 55.8496  6477.57  80.7565
 55.8916  6402.23  80.4923
 55.9336  6611.93  81.6178
 55.9756  6582.07  81.3243
 56.0176  6478.47  80.8128
 56.0596  6500.28  80.9585
 56.1016  6394.19  80.3041
 56.1436  6468.7  81.0106
 56.1856  6348.8  80.0289
 56.2276  6631.92  81.8379
 56.2696  6418.62  80.5354
 56.3116  6601.59  82.0065
 56.3536  6494.14  81.0037
 56.3956  6439.11  80.6503
 56.4376  6416.37  80.5319
 56.4796  6392.74  80.2195
 56.5216  6436.38  80.8693
 56.5636  6394.79  80.1665
 56.6056  6548.62  81.3622
 56.6476  6436.13  80.2756
 56.6896  6574.65  81.6074
 56.7316  6348.58  80.0829
 56.7736  6476.64  80.9161
 56.8156  6407.83  80.4955
 56.8576  6293.46  79.7228
 56.8996  6364.84  80.0533
 56.9416  6351.94  80.3274
 56.9836  6381.7  80.0139
 57.0256  6317.51  79.9298
 57.0676  6468.41  80.9942
 57.1096  6378.25  80.2087
 57.1516  6303.57  79.7921
 57.1936  6332.67  79.7257
 57.2356  6329.91  80.0399
 57.2776  6315.94  79.9122
 57.3196  6350.85  80.2908
 57.3616  6317.17  79.7786
 57.4036  6412.6  80.43
 57.4456  6420.35  80.4529
 57.4876  6386.85  80.108
 57.5296  6273.35  79.7242
 57.5716  6271.65  79.733
 57.6136  6242.53  79.3791
 57.6556  6330.93  80.051
 57.6976  6321.53  79.7476
 57.7396  6177.92  79.256
 57.7816  6212.19  79.864
 57.8236  6289.78  80.1419
 57.8656  6328.58  80.0565
 57.9076  6291.17  79.8269
 57.9496  6232.75  79.8289
 57.9916  6326.63  79.9281
 58.0336  6332.81  80.2509
 58.0756  6276.28  79.5182
 58.1176  6187.82  78.9522
 58.1596  6230.27  79.8214
 58.2016  6127.52  78.3829
 58.2436  6217.68  79.3765
 58.2856  6036.29  78.127
 58.3276  6114.17  79.004
 58.3696  5993.26  77.9771
 58.4116  6036.8  78.1202
 58.4536  6128.8  78.6015
 58.4956  6005.35  77.9843
 58.5376  6110.39  78.3598
 58.5796  6024.56  78.0971
 58.6216  5956.85  77.4851
 58.6636  5948.88  77.635
 58.7056  6020.46  77.9608
 58.7476  5982.32  78.1574
 58.7896  5895.06  77.2319
 58.8316  6020.15  78.1506
 58.8736  6114.17  78.6637
 58.9156  5961.18  77.718
 58.9576  6014.65  78.3805
 58.9996  6071.54  78.0056
 59.0416  6105.62  78.5716
 59.0836  6083.32  78.3551
 59.1256  6030.48  78.7164
 59.1676  5909.71  78.2371
 59.2096  6052.49  78.4702
 59.2516  6084.93  78.2597
 59.2936  6151.27  79.0162
 59.3356  6003.52  77.9396
 59.3776  5992.4  78.0357
 59.4196  5999.93  78.0201
 59.4616  5999.02  77.8754
 59.5036  5843.35  76.8934
 59.5456  6074.75  78.0934
 59.5876  6023.24  77.9524
 59.6296  5928.47  77.4053
 59.6716  5857.45  76.9973
 59.7136  5970.87  77.7276
 59.7556  5981.6  77.9332
 59.7976  5996.4  77.7726
 59.8396  6110.09  78.4001
 59.8816  5858.19  77.304
 59.9236  6021.2  78.0165
 59.9656  6030.81  78.3394
 60.0076  6071.52  77.9588
 60.0496  5993.08  77.9556
 60.0916  6111.75  78.1382
 60.1336  5807.85  77.2566
 60.1756  5883.58  78.9276
 60.1996  0.0000000E+00  0.0000000E+00