File: docs/examples/opeando_xrd/IS17_D/Data/IS17_D/17_Db_f00056.xye
# /beamlines/bl04/projects/cycle2025-II/20250340211-lsimonelli/DATA/IS17_D/17_Db_f00056.xye : mythproc.py merge -s 0.006 -l 0.5 -f /beamlines/bl04/inhouse/ff/FlatField/ff_20Nov2024rod8mm60s_17keV.raw -b True -c true -o xye /beamlines/bl04/projects/cycle2025-II/20250340211-lsimonelli/DATA/IS17_D/17_Db_00056.dat
# IsMon = [6740912, 6745000, 6746333]  IsPos = [-1.5000, -2.4885, -3.4988]
# Wave = 0.4962  CalPath /beamlines/bl04/projects/cycle2025-II/20250340211-lsimonelli/DATA/Align/Si_Pos1_25keV_f00001.cal
# Date = 2025-09-24_09:16:42 Dt = 4.8000  Bin = 0.0060  <imon> = 6744082 +/- 2306 (Min/Max) 6740912 / 6746333
# icurr 248.6741  mocoIn 1.6977E-05  mocoOut 0.7965  i15 7.06645e+06  imon 6.74408e+06  i7 5.6667  iEMpd_timer 4.8000  iEMpd_1 3.5489E-08  iEMpd_2 7.9487E-08  iEMpd_3 1.8010E-08  iEMpd_4 4.7792E-08  iEMhp_timer 4.8000  iEMhp_1 4.8622E-06  iEMhp_2 -2.4853E-08  iEMhp_3 -2.5449E-08  iEMhp_4 -2.2431E-08
#      9776
 1.5856  44591.2  216.885
 1.6276  50501.5  226.851
 1.6696  56691.1  239.503
 1.7116  63512.6  253.999
 1.7536  71219.7  267.823
 1.7956  75820.1  277.028
 1.8376  72217.3  270.795
 1.8796  62481.7  250.039
 1.9216  51118.2  227.054
 1.9636  44423.3  211.329
 2.0056  40554  200.626
 2.0476  37756.1  195.704
 2.0896  36398.7  191.027
 2.1316  35362.1  187.382
 2.1736  33658.6  184.263
 2.2156  34424.3  184.852
 2.2576  33133.8  182
 2.2996  31892.8  179.218
 2.3416  32007.6  178.109
 2.3836  31658  177.241
 2.4256  30555.8  174.696
 2.4676  30038.6  172.966
 2.5096  29882.3  172.572
 2.5516  28617.1  172.736
 2.5936  28559.5  169.094
 2.6356  28100.3  168.432
 2.6776  27985.5  166.986
 2.7196  27709.6  166.644
 2.7616  27488.8  165.777
 2.8036  26826.2  163.933
 2.8456  26780.4  164.432
 2.8876  26428.6  163.18
 2.9296  25971  161.921
 2.9716  25874.5  161.109
 3.0136  25720.5  160.694
 3.0556  25779.5  161.272
 3.0976  25906.1  160.558
 3.1396  25117.2  158.822
 3.1816  24989.6  158.361
 3.2236  24820.6  157.822
 3.2656  24699.9  156.468
 3.3076  24561.4  157.512
 3.3496  24710.4  157.148
 3.3916  25146.4  158.109
 3.4336  25604.9  160.137
 3.4756  25862.9  160.883
 3.5176  26414.8  162.362
 3.5596  25824.8  163.521
 3.6016  26438.2  162.484
 3.6436  25495.3  160.672
 3.6856  25109.8  157.742
 3.7276  24162.7  155.824
 3.7696  24191.1  155.9
 3.8116  23761.8  154.604
 3.8536  23819.5  154.724
 3.8956  23721.1  154.222
 3.9376  23661.7  154.304
 3.9796  23636.8  153.708
 4.0216  23448.6  152.126
 4.0636  23474.5  153.686
 4.1056  23494.8  153.407
 4.1476  23882  154.986
 4.1896  23938.2  155.017
 4.2316  24032.4  155.153
 4.2736  24263.9  155.694
 4.3156  24577.6  156.924
 4.3576  25480.7  159.676
 4.3996  25548.1  160.172
 4.4416  26033.4  161.272
 4.4836  26474.3  162.792
 4.5256  26924.5  164.791
 4.5676  26700.7  164.354
 4.6096  27374.9  165.429
 4.6516  27760.3  165.906
 4.6936  27659.8  166.441
 4.7356  27898.2  166.983
 4.7776  27891.5  166.783
 4.8196  27637.8  166.69
 4.8616  27157.5  164.851
 4.9036  27145.5  164.417
 4.9456  26968.5  164.528
 4.9876  26066.1  161.655
 5.0296  26499.5  162.831
 5.0716  26377.5  163.066
 5.1136  26519.7  163.375
 5.1556  26764  163.573
 5.1976  27464.4  165.708
 5.2396  27267.1  164.795
 5.2816  27491.8  165.951
 5.3236  27470.4  165.575
 5.3656  26788.2  164.439
 5.4076  26712.4  164.349
 5.4496  26720.6  163.859
 5.4916  26674  163.475
 5.5336  26687.3  163.518
 5.5756  26689.8  163.565
 5.6176  26757.6  163.2
 5.6596  27016.5  164.807
 5.7016  26994.1  164.164
 5.7436  27309.2  165.397
 5.7856  27277.1  165.37
 5.8276  27269.1  165.052
 5.8696  27753.1  166.588
 5.9116  27625.9  166.913
 5.9536  27878.1  167.417
 5.9956  27959.2  167.045
 6.0376  28079.9  168.027
 6.0796  28392  168.784
 6.1216  28181.5  168.351
 6.1636  28526.9  168.44
 6.2056  28416.2  168.784
 6.2476  28779.6  169.562
 6.2896  29032.2  170.16
 6.3316  28902.3  169.95
 6.3736  29052.9  170.285
 6.4156  28914.2  169.828
 6.4576  29209.7  170.25
 6.4996  29223.4  170.764
 6.5416  29202.4  170.834
 6.5836  29096.8  170.759
 6.6256  29268.6  170.83
 6.6676  30088.2  172.764
 6.7096  29939  173.213
 6.7516  30212.9  173.649
 6.7936  30438.3  173.706
 6.8356  30405.8  173.7
 6.8776  30649.9  175.196
 6.9196  30834.2  176.126
 6.9616  31307.3  176.88
 7.0036  31516.4  177.162
 7.0456  31530.1  176.494
 7.0876  31853.9  179.012
 7.1296  31684.8  177.751
 7.1716  31621.7  177.118
 7.2136  31340.7  176.104
 7.2556  31574.8  176.916
 7.2976  31770  177.952
 7.3396  31458.5  177.302
 7.3816  31550.4  177.784
 7.4236  31950.2  178.198
 7.4656  32132.5  178.168
 7.5076  32217.4  178.55
 7.5496  32000.7  178.482
 7.5916  32227  179.162
 7.6336  32566.8  179.988
 7.6756  32772.5  180.405
 7.7176  33166.6  181.816
 7.7596  32779.5  181.973
 7.8016  33441  186.042
 7.8436  33235.4  182.103
 7.8856  33377.5  182.102
 7.9276  33912.9  183.953
 7.9696  34015.3  184.538
 8.0116  35012  185.776
 8.0536  35332.7  186.869
 8.0956  35228.2  187.773
 8.1376  35652.8  188.373
 8.1796  35911.2  189.59
 8.2216  36454.7  189.759
 8.2636  36540.9  190.241
 8.3056  36613.2  191.192
 8.3476  37334.9  192.397
 8.3896  36935  191.44
 8.4316  37248.8  192.421
 8.4736  37420  192.334
 8.5156  36833.6  191.093
 8.5576  36649.8  191.581
 8.5996  36554.5  190.217
 8.6416  36502.8  191.336
 8.6836  36202.1  190.374
 8.7256  36709  191.158
 8.7676  36544.3  193.65
 8.8096  36955.8  192.046
 8.8516  37365  192.745
 8.8936  36398.6  190.12
 8.9356  36869.8  191.689
 8.9776  36601.5  191.062
 9.0196  36811.2  191.29
 9.0616  36436.9  189.801
 9.1036  36064.1  189.997
 9.1456  35846.1  188.745
 9.1876  36117.9  189.413
 9.2296  35933.7  188.356
 9.2716  35489.8  187.241
 9.3136  35452.9  187.14
 9.3556  35470.1  187.161
 9.3976  34761.6  185.809
 9.4396  34806.7  185.826
 9.4816  34524.9  184.936
 9.5236  34307.8  184.249
 9.5656  34166  184.218
 9.6076  33438.9  182.758
 9.6496  33738.4  183.46
 9.6916  33496  182.754
 9.7336  33819.1  183.42
 9.7756  33432.6  183.595
 9.8176  33260.1  182.682
 9.8596  33245.6  181.078
 9.9016  32676.7  179.513
 9.9436  32142.5  177.785
 9.9856  32086.2  178.073
 10.0276  31813.9  178.39
 10.0696  32168.3  178.407
 10.1116  31026.1  175.48
 10.1536  31360.8  176.093
 10.1956  30790.5  174.579
 10.2376  30529.3  173.354
 10.2796  30264.6  172.7
 10.3216  30104.1  172.372
 10.3636  30121.2  172.609
 10.4056  29084  170.009
 10.4476  29509.8  170.863
 10.4896  29558.2  170.443
 10.5316  29323  170.163
 10.5736  28843.3  169.505
 10.6156  28754.8  169.008
 10.6576  29007.2  168.304
 10.6996  28245.8  166.78
 10.7416  27835.6  165.776
 10.7836  27631.1  165.822
 10.8256  27126.4  164.725
 10.8676  27237  164.597
 10.9096  27153.1  164.38
 10.9516  26622  161.72
 10.9936  26890.4  162.744
 11.0356  26805  163.097
 11.0776  26421.1  161.259
 11.1196  26059.9  160.909
 11.1616  25710.4  159.498
 11.2036  25808.8  159.652
 11.2456  25861.2  160.516
 11.2876  26106.5  161.012
 11.3296  25287.7  158.379
 11.3716  25927.8  160.094
 11.4136  26102.3  161.482
 11.4556  25932.2  160.606
 11.4976  26633.4  161.755
 11.5396  27028.1  163.126
 11.5816  27340.1  164.507
 11.6236  26563.9  162.619
 11.6656  26336.5  160.853
 11.7076  25500.3  159.1
 11.7496  25169.2  162.067
 11.7916  25070.5  157.009
 11.8336  24499.8  156.124
 11.8756  24570.6  155.879
 11.9176  24651.4  155.801
 11.9596  24644.1  155.961
 12.0016  24328.1  155.72
 12.0436  24208.7  154.789
 12.0856  23944.8  154.44
 12.1276  23902.6  154.254
 12.1696  24037.4  153.811
 12.2116  24104.8  154.017
 12.2536  24025.8  154.564
 12.2956  23736.5  152.995
 12.3376  23978.6  153.999
 12.3796  23840.2  154.022
 12.4216  24000.9  153.736
 12.4636  23534.9  153.164
 12.5056  23790.7  153.262
 12.5476  23817.9  152.861
 12.5896  23517.3  152.532
 12.6316  23851.2  153.764
 12.6736  23748.9  153.928
 12.7156  23742.8  153.754
 12.7576  23583.5  153.478
 12.7996  23729.2  152.596
 12.8416  23645.1  153.384
 12.8836  23972.1  154.258
 12.9256  24278.9  154.281
 12.9676  24103.5  154.119
 13.0096  24284.9  155.83
 13.0516  24529.8  155.627
 13.0936  24456.3  155.519
 13.1356  24601.2  155.231
 13.1776  24420.3  155.674
 13.2196  24331.3  155.033
 13.2616  24033.8  154.39
 13.3036  24716.9  156.714
 13.3456  24010.2  154.422
 13.3876  24565.2  155.686
 13.4296  24257.6  154.863
 13.4716  24449.7  155.107
 13.5136  24329.9  154.851
 13.5556  24220.9  155.133
 13.5976  24522.1  156.271
 13.6396  24340.1  155.039
 13.6816  24493.7  155.894
 13.7236  24831.5  156.665
 13.7656  26393.7  161.967
 13.8076  26900.9  162.167
 13.8496  25659.2  159.242
 13.8916  24634.5  156.981
 13.9336  23943.2  154.018
 13.9756  24119  153.971
 14.0176  23583.5  152.925
 14.0596  23807.4  153.575
 14.1016  23511.8  153.046
 14.1436  23708.6  152.825
 14.1856  23098.4  151.129
 14.2276  22995.7  151.286
 14.2696  23181  151.736
 14.3116  22474.1  149.304
 14.3536  22358.1  149.091
 14.3956  22168.9  148.184
 14.4376  22524.2  149.151
 14.4796  22275.9  148.33
 14.5216  22058.8  148.389
 14.5636  21821.6  147.164
 14.6056  22122.5  147.739
 14.6476  21900.9  146.237
 14.6896  21613.3  145.818
 14.7316  21293  145.767
 14.7736  21077.5  144.163
 14.8156  21059.7  144.13
 14.8576  20984.1  143.732
 14.8996  20490.4  143.221
 14.9416  20288.6  142.523
 14.9836  20089.5  141.804
 15.0256  19638.4  139.116
 15.0676  19672.4  139.547
 15.1096  19395  138.301
 15.1516  19176.1  138.068
 15.1936  19258.2  137.795
 15.2356  18784.2  136.364
 15.2776  18907.7  136.405
 15.3196  18424.7  135.631
 15.3616  18419.3  135.37
 15.4036  18294.5  134.767
 15.4456  18568.9  135.436
 15.4876  18186.2  133.719
 15.5296  17956.1  133.15
 15.5716  17895.5  132.534
 15.6136  17862.7  132.741
 15.6556  17788.4  131.711
 15.6976  17724.4  131.551
 15.7396  17658  131.9
 15.7816  17358.8  130.303
 15.8236  17167.9  130.26
 15.8656  17369.7  130.822
 15.9076  17193.9  129.985
 15.9496  17771.6  134.977
 15.9916  17483.1  134.269
 16.0336  17790.9  132.315
 16.0756  17489.9  131.5
 16.1176  17273  130.607
 16.1596  16778.4  130.038
 16.2016  16726.1  128.61
 16.2436  16713.8  128.954
 16.2856  16911.4  129.221
 16.3276  16413.1  127.739
 16.3696  16518.1  127.98
 16.4116  16610.4  128.791
 16.4536  16791.3  129.284
 16.4956  16643.7  128.451
 16.5376  16626.1  128.572
 16.5796  16429.6  127.172
 16.6216  16487.7  127.663
 16.6636  16229.8  126.848
 16.7056  16341.6  127.148
 16.7476  16421  126.979
 16.7896  16374.8  127.556
 16.8316  16268.5  127.114
 16.8736  16480.4  128.202
 16.9156  16443.7  128.373
 16.9576  16130.3  127.934
 16.9996  16082.1  128.216
 17.0416  16255.8  127.3
 17.0836  16484.9  127.957
 17.1256  16284.6  127.186
 17.1676  16197  126.797
 17.2096  15994.1  125.9
 17.2516  16062.8  126.266
 17.2936  16006  126.089
 17.3356  15693.1  124.844
 17.3776  15413.5  123.908
 17.4196  15427.8  123.657
 17.4616  15538.2  124.014
 17.5036  15041  122.368
 17.5456  15107  123.263
 17.5876  15143.1  122.472
 17.6296  15524.3  123.82
 17.6716  14929.2  122.006
 17.7136  14950.9  122.233
 17.7556  14984.4  122.659
 17.7976  14575.2  120.566
 17.8396  14537.6  120.058
 17.8816  14546.2  120.651
 17.9236  14554.6  120.483
 17.9656  14596.3  121.33
 18.0076  14571.9  120.658
 18.0496  14562.6  119.757
 18.0916  14563.4  120.31
 18.1336  14411.9  119.78
 18.1756  14611.4  120.159
 18.2176  14337.2  119.235
 18.2596  14335.9  118.955
 18.3016  14421.3  119.571
 18.3436  14528.7  120.257
 18.3856  14320  119.298
 18.4276  14417.9  119.38
 18.4696  14238.8  118.715
 18.5116  14334.5  119.391
 18.5536  14145.1  118.95
 18.5956  13960  117.743
 18.6376  14054.3  118.537
 18.6796  14059  117.904
 18.7216  14173.8  118.916
 18.7636  14115.5  118.617
 18.8056  13874  117.508
 18.8476  13749.9  117.61
 18.8896  13967.9  117.875
 18.9316  14027.6  117.945
 18.9736  14040.7  117.864
 19.0156  13868.6  117.551
 19.0576  14021.7  117.052
 19.0996  14074  117.984
 19.1416  13996.2  118.063
 19.1836  13753.9  116.635
 19.2256  13702.4  116.64
 19.2676  13781.6  117.053
 19.3096  13738.6  117.115
 19.3516  13987.1  117.95
 19.3936  13650.8  116.595
 19.4356  13910.2  117.595
 19.4776  13966  117.91
 19.5196  13746.2  116.84
 19.5616  13689.6  116.851
 19.6036  13635.4  116.121
 19.6456  13797  116.926
 19.6876  13739.2  116.318
 19.7296  13854.8  117.273
 19.7716  13809.7  117.1
 19.8136  14122.3  118.769
 19.8556  14079.9  118.069
 19.8976  14113.8  118.265
 19.9396  14178.2  118.128
 19.9816  14282.1  118.806
 20.0236  14651.1  120.53
 20.0656  14707.2  120.745
 20.1076  14692.8  121.191
 20.1496  14395  119.949
 20.1916  14330.1  119.145
 20.2336  13929.9  117.437
 20.2756  13772.6  117.206
 20.3176  13465.3  115.643
 20.3596  13442.7  115.527
 20.4016  13462.3  115.41
 20.4436  13418.6  115.791
 20.4856  13381.1  115.424
 20.5276  13413.4  116.017
 20.5696  13238.6  114.819
 20.6116  13221.8  114.907
 20.6536  13030.6  113.642
 20.6956  13174.4  114.355
 20.7376  13010.7  113.844
 20.7796  13084.3  113.869
 20.8216  13261.5  114.349
 20.8636  13185.6  114.399
 20.9056  13000.4  113.521
 20.9476  13061.9  113.645
 20.9896  13162.7  113.946
 21.0316  12995.6  113.111
 21.0736  13001.1  113.656
 21.1156  12900.9  113.377
 21.1576  13076.5  114.194
 21.1996  12823.5  113.068
 21.2416  13006.2  113.701
 21.2836  12985.2  113.575
 21.3256  12956.1  113.525
 21.3676  12884.4  112.728
 21.4096  12729.7  112.436
 21.4516  12759.1  112.387
 21.4936  12472  111.373
 21.5356  12838.2  112.947
 21.5776  12766  112.468
 21.6196  12748.5  112.425
 21.6616  12704.9  112.318
 21.7036  12649.1  111.844
 21.7456  12667.8  111.997
 21.7876  12571.9  111.339
 21.8296  12571.8  111.192
 21.8716  12679.8  111.896
 21.9136  12815.7  112.694
 21.9556  12547.7  111.189
 21.9976  12454.7  110.803
 22.0396  12663.2  111.98
 22.0816  12569.3  112.086
 22.1236  12538.2  111.409
 22.1656  12422  111.087
 22.2076  12363.7  110.229
 22.2496  12252.5  109.762
 22.2916  12270.4  109.727
 22.3336  12311.7  110.606
 22.3756  12274.4  110.182
 22.4176  12180.2  109.618
 22.4596  12069.1  109.69
 22.5016  12182  109.71
 22.5436  12419.1  110.65
 22.5856  12350  110.588
 22.6276  12488  111.341
 22.6696  12369  111.156
 22.7116  12157.9  109.724
 22.7536  12255.6  110.141
 22.7956  12307.9  109.714
 22.8376  12065.6  109.14
 22.8796  12319  110.084
 22.9216  12304.2  110.557
 22.9636  12214.2  109.317
 23.0056  12242.3  109.575
 23.0476  12342.4  110.59
 23.0896  12310.9  109.833
 23.1316  12372  110.538
 23.1736  12429.9  113.731
 23.2156  12631.6  112.03
 23.2576  12817.3  112.994
 23.2996  12508.2  111.386
 23.3416  12663.5  112.62
 23.3836  12675.3  111.896
 23.4256  12741.5  112.308
 23.4676  12609.5  111.401
 23.5096  12565.8  111.875
 23.5516  12384.3  110.374
 23.5936  12461.4  111.623
 23.6356  12859.1  113.053
 23.6776  12368  111.07
 23.7196  12646.2  112.116
 23.7616  12435.5  110.877
 23.8036  12779.5  112.463
 23.8456  12384.4  110.252
 23.8876  12347  110.455
 23.9296  12298.2  110.718
 23.9716  12335.8  110.092
 24.0136  12408.8  111.322
 24.0556  12096.5  109.634
 24.0976  11948.9  108.78
 24.1396  12020.1  111.702
 24.1816  12205.5  111.304
 24.2236  12087.3  110.071
 24.2656  12051.2  109.386
 24.3076  12107.4  109.908
 24.3496  11936.6  108.999
 24.3916  11827.9  108.566
 24.4336  12033.7  109.695
 24.4756  11999.4  109.431
 24.5176  11933.9  108.75
 24.5596  11698.4  108.009
 24.6016  11530  107.315
 24.6436  11843.8  108.281
 24.6856  11732.6  107.506
 24.7276  11373.3  106.164
 24.7696  11514.7  106.938
 24.8116  11548.3  107.268
 24.8536  11466.4  106.896
 24.8956  11368.2  106.168
 24.9376  11486.2  106.896
 24.9796  11272.8  106.01
 25.0216  11334.8  106.423
 25.0636  11282.2  105.826
 25.1056  11207  105.893
 25.1476  11192.1  107.727
 25.1896  11145.3  106.008
 25.2316  11244.6  105.757
 25.2736  11129.8  104.87
 25.3156  11137.2  104.978
 25.3576  11042.8  104.959
 25.3996  11080.5  105.127
 25.4416  11007.1  104.753
 25.4836  10832.3  104.427
 25.5256  10987.5  104.543
 25.5676  10900.2  103.853
 25.6096  10906.7  104.463
 25.6516  11002.5  104.42
 25.6936  11067.4  105.053
 25.7356  10898.6  104.375
 25.7776  10875.8  103.94
 25.8196  10668.9  103.112
 25.8616  10776.5  103.56
 25.9036  10910  103.662
 25.9456  10728.7  103.384
 25.9876  10867.1  103.977
 26.0296  10919.6  103.968
 26.0716  10717.5  103.345
 26.1136  10854.2  103.926
 26.1556  10904.2  103.549
 26.1976  10747  103.728
 26.2396  10738  103.092
 26.2816  10780.6  103.652
 26.3236  10821.6  104.001
 26.3656  10902.4  104.122
 26.4076  10673.3  103.217
 26.4496  11039.7  104.574
 26.4916  10931.3  103.944
 26.5336  11409.5  106.546
 26.5756  11532.1  106.996
 26.6176  10812.9  103.62
 26.6596  10821  103.967
 26.7016  10653.4  102.922
 26.7436  10675.5  103.174
 26.7856  10426.7  101.937
 26.8276  10557.3  102.54
 26.8696  10630.5  102.767
 26.9116  10445.6  101.805
 26.9536  10401.9  101.642
 26.9956  10309.4  101.221
 27.0376  10402.4  101.909
 27.0796  10438.9  101.879
 27.1216  10486  102.097
 27.1636  10242.3  101.067
 27.2056  10316.4  101.324
 27.2476  10288.6  101.182
 27.2896  10238.4  101.041
 27.3316  10387.8  101.484
 27.3736  10165.9  100.671
 27.4156  10380.9  101.575
 27.4576  10158.6  100.701
 27.4996  10357.6  101.29
 27.5416  10212.8  100.881
 27.5836  10216.8  100.734
 27.6256  10143.3  100.551
 27.6676  10107.7  100.364
 27.7096  10303.9  101.218
 27.7516  10134.7  100.525
 27.7936  10561.2  102.782
 27.8356  10346.1  101.319
 27.8776  10312.6  101.24
 27.9196  10042  99.7512
 27.9616  10123.3  100.356
 28.0036  9852.07  98.9642
 28.0456  9961.74  99.6412
 28.0876  9976.21  99.7948
 28.1296  9976.8  99.6477
 28.1716  10038.3  99.9708
 28.2136  9924.31  99.3629
 28.2556  9896.32  99.3462
 28.2976  9864.43  99.1745
 28.3396  9821.96  98.7513
 28.3816  9979.12  99.5152
 28.4236  9811.17  98.818
 28.4656  9774.47  98.6866
 28.5076  9914.06  99.028
 28.5496  9868.29  99.053
 28.5916  9901.53  99.0256
 28.6336  9774.59  98.7419
 28.6756  9776.17  97.9373
 28.7176  9753.44  98.383
 28.7596  9670.98  97.8616
 28.8016  9697.58  98.0323
 28.8436  9593.69  97.737
 28.8856  9780.97  98.5462
 28.9276  9823.24  99.0076
 28.9696  9701.16  98.0291
 29.0116  9731.98  98.3867
 29.0536  9570.82  97.7704
 29.0956  9630.28  97.7832
 29.1376  9592.29  97.5563
 29.1796  9661.1  97.9508
 29.2216  9592.83  97.4509
 29.2636  9764.7  98.3227
 29.3056  9601.68  97.3572
 29.3476  9571.31  97.7212
 29.3896  9591.28  97.9346
 29.4316  9405.68  96.3161
 29.4736  9333.37  96.0037
 29.5156  9535.4  96.9669
 29.5576  9397.81  96.9928
 29.5996  9375.35  96.1461
 29.6416  9274.29  95.744
 29.6836  9488.74  96.7701
 29.7256  9286.36  96.2904
 29.7676  9294.68  95.9988
 29.8096  9226.87  95.5912
 29.8516  9261.92  96.1023
 29.8936  9288.23  96.3276
 29.9356  9274.58  96.0182
 29.9776  9087.19  95.1903
 30.0196  9177.3  95.0585
 30.0616  9256.49  95.842
 30.1036  9291.98  95.8512
 30.1456  9170.3  95.4512
 30.1876  9219.5  95.6889
 30.2296  9205.14  95.5608
 30.2716  9121.15  94.7691
 30.3136  9457.73  97.3551
 30.3556  9547.6  97.8323
 30.3976  9408.8  98.6091
 30.4396  9621.48  97.0716
 30.4816  9673.46  96.9369
 30.5236  9543.09  96.2834
 30.5656  9462.81  96.5346
 30.6076  9364.67  95.7913
 30.6496  9447.47  96.2787
 30.6916  9331.55  95.7692
 30.7336  9477.24  96.6538
 30.7756  9363.99  96.1543
 30.8176  9351.97  96.029
 30.8596  9389.3  95.9664
 30.9016  9422.56  96.0122
 30.9436  9459.75  96.4392
 30.9856  9449.41  96.5109
 31.0276  9252.99  95.1199
 31.0696  9219.63  95.5091
 31.1116  9320.64  96.0072
 31.1536  9417.73  96.3493
 31.1956  9261.63  95.6725
 31.2376  9032.91  94.4926
 31.2796  9281.2  95.323
 31.3216  9212.84  94.9003
 31.3636  9305.53  96.075
 31.4056  9208.38  96.8802
 31.4476  9311.23  95.3302
 31.4896  9266.19  95.592
 31.5316  9322.76  95.3339
 31.5736  9403.1  95.5335
 31.6156  9422.04  95.6349
 31.6576  9267.51  94.9226
 31.6996  9443.74  95.4807
 31.7416  9217.82  95.2844
 31.7836  9349.11  95.0964
 31.8256  9156.74  94.4415
 31.8676  9383.05  95.5413
 31.9096  9106.43  94.325
 31.9516  8968.94  93.9331
 31.9936  9068.82  94.2705
 32.0356  9210.58  95.057
 32.0776  9297.48  95.4013
 32.1196  9253.91  95.1995
 32.1616  9122.2  94.0582
 32.2036  9093.97  94.419
 32.2456  9146.44  95.0611
 32.2876  8905.71  93.1407
 32.3296  8971.64  93.6156
 32.3716  8850.37  93.0934
 32.4136  8944.79  93.7858
 32.4556  8982  93.4312
 32.4976  9025.72  93.5558
 32.5396  8859.39  92.7054
 32.5816  8943.44  93.2799
 32.6236  8954.8  93.393
 32.6656  8991.23  94.1304
 32.7076  8871.06  93.1513
 32.7496  8848.08  92.7076
 32.7916  8884.04  92.8575
 32.8336  8827.58  92.6479
 32.8756  9016.98  93.362
 32.9176  8603.46  91.6763
 32.9596  8787.92  92.7215
 33.0016  8872.62  92.9368
 33.0436  8916.46  93.3368
 33.0856  8811.9  92.8856
 33.1276  8672.46  91.884
 33.1696  8873.33  92.7563
 33.2116  8781.55  92.526
 33.2536  8851.52  92.8889
 33.2956  8856.78  92.9955
 33.3376  8730.55  92.1624
 33.3796  8787.34  92.5946
 33.4216  8832.62  92.4146
 33.4636  8870.82  92.7784
 33.5056  8665.89  91.9376
 33.5476  8864.6  92.9671
 33.5896  8805.29  92.4243
 33.6316  8744.81  92.4334
 33.6736  8635.93  92.1067
 33.7156  8661.43  92.2711
 33.7576  8778.98  92.5308
 33.7996  8770.63  92.2559
 33.8416  8624.41  91.6705
 33.8836  8615.18  91.3967
 33.9256  8699.23  91.9061
 33.9676  8722.9  91.9223
 34.0096  8687.74  92.0527
 34.0516  8612.45  91.2892
 34.0936  8507.29  90.9997
 34.1356  8662.99  91.5695
 34.1776  8544.54  90.9301
 34.2196  8529.06  91.0357
 34.2616  8452.04  90.7577
 34.3036  8625.6  91.9367
 34.3456  8719.28  92.1805
 34.3876  8540.08  91.2949
 34.4296  8579.87  91.1099
 34.4716  8654.36  91.6559
 34.5136  8548.01  91.2797
 34.5556  8422.87  90.8654
 34.5976  8630.03  91.8182
 34.6396  8452.63  90.5554
 34.6816  8542.16  91.1337
 34.7236  8581.39  91.1118
 34.7656  8599.19  91.4294
 34.8076  8485.43  91.1506
 34.8496  8434.62  90.7209
 34.8916  8581.34  91.3767
 34.9336  8418.01  90.4792
 34.9756  8634.52  91.5841
 35.0176  8559.02  91.6849
 35.0596  8558.99  91.5117
 35.1016  8535.25  91.1374
 35.1436  8755.99  91.9956
 35.1856  8488.14  90.6909
 35.2276  8481.5  90.8348
 35.2696  8494.9  91.0934
 35.3116  8365.88  90.4986
 35.3536  8603.12  91.5184
 35.3956  8434.88  90.3025
 35.4376  8405.56  90.6979
 35.4796  8439.14  90.9256
 35.5216  8397.82  90.666
 35.5636  8189.47  90.2664
 35.6056  8382.29  90.3379
 35.6476  8344.67  90.039
 35.6896  8450.9  90.7872
 35.7316  8248.47  89.5808
 35.7736  8315.76  90.141
 35.8156  8487.6  91.0725
 35.8576  8381.71  90.7369
 35.8996  8400.42  90.8187
 35.9416  8399.17  90.3177
 35.9836  8229.39  89.8443
 36.0256  8501.75  91.2251
 36.0676  8501.2  90.733
 36.1096  8346.27  90.2815
 36.1516  8497.4  90.9941
 36.1936  8403.99  90.3329
 36.2356  8273.64  90.279
 36.2776  8405.86  90.4548
 36.3196  8350.22  89.8413
 36.3616  8247.87  89.4183
 36.4036  8242.49  89.4558
 36.4456  8295.7  89.961
 36.4876  8160.46  89.1501
 36.5296  8229.14  89.5718
 36.5716  8183.46  90.092
 36.6136  7996.83  87.8562
 36.6556  8148.04  88.8798
 36.6976  8012.31  88.6272
 36.7396  8026  88.4336
 36.7816  7974.82  88.5245
 36.8236  8004.32  88.6079
 36.8656  8025.31  88.7962
 36.9076  7952.69  88.4017
 36.9496  7912.09  88.0378
 36.9916  7950.69  87.8865
 37.0336  8100.81  89.0237
 37.0756  7939.82  87.9309
 37.1176  7862.06  87.7656
 37.1596  8005.37  88.5693
 37.2016  7933.81  88.3469
 37.2436  8053.56  88.378
 37.2856  7938.44  87.9982
 37.3276  8083.49  88.1545
 37.3696  7818.11  87.5592
 37.4116  7929.69  88.091
 37.4536  7922.55  87.9119
 37.4956  7824.63  87.4191
 37.5376  8142.1  90.759
 37.5796  8045.61  90.1618
 37.6216  7884.5  87.5484
 37.6636  8025.37  88.2243
 37.7056  8070.74  88.653
 37.7476  8142.92  88.5985
 37.7896  8026.29  88.4572
 37.8316  7988.94  88.418
 37.8736  8009.74  88.0536
 37.9156  7924.19  87.563
 37.9576  8164.69  88.8092
 37.9996  7983.87  87.5332
 38.0416  8065.35  88.7848
 38.0836  8091.84  88.8348
 38.1256  8039.76  88.5226
 38.1676  7898.16  87.8562
 38.2096  8091.65  88.5452
 38.2516  8017.54  88.346
 38.2936  8104  88.6313
 38.3356  7949.25  87.6997
 38.3776  7892.27  87.6302
 38.4196  7953.45  87.8337
 38.4616  8128.78  89.0464
 38.5036  7995.72  88.1559
 38.5456  7950.35  88.7347
 38.5876  7856.26  88.2264
 38.6296  7854.33  87.195
 38.6716  7919.66  87.3705
 38.7136  7983.21  87.6604
 38.7556  7927.68  87.8659
 38.7976  7801.57  87.0733
 38.8396  7807.28  87.579
 38.8816  7755.14  87.0811
 38.9236  7761.41  86.9125
 38.9656  7836.94  87.2528
 39.0076  7868.84  86.8216
 39.0496  8005.45  88.1427
 39.0916  7942.5  87.4379
 39.1336  7871.53  87.4447
 39.1756  7975.31  88.0926
 39.2176  7871.67  88.0454
 39.2596  8052.79  88.981
 39.3016  7881  87.61
 39.3436  7830.7  87.7367
 39.3856  7978.46  88.0121
 39.4276  8052.87  88.9311
 39.4696  7978.86  88.1366
 39.5116  8002.11  88.7864
 39.5536  7945.74  88.883
 39.5956  7922.44  87.8535
 39.6376  7767.96  86.9997
 39.6796  7763.53  86.7224
 39.7216  7920.56  87.6928
 39.7636  7946.82  88.4096
 39.8056  7940.43  88.1531
 39.8476  7770.69  87.4587
 39.8896  7908.66  87.8644
 39.9316  7823.98  87.6258
 39.9736  7954.3  87.9358
 40.0156  7777.95  86.7888
 40.0576  7802.24  87.2644
 40.0996  7807.73  86.499
 40.1416  7973.81  88.2088
 40.1836  7909.08  87.739
 40.2256  7985.96  88.1988
 40.2676  7831.09  87.5149
 40.3096  7903.34  87.7797
 40.3516  7845  87.5525
 40.3936  7965.91  87.7856
 40.4356  7895.96  87.6066
 40.4776  7980.09  88.3168
 40.5196  7901.66  88.1668
 40.5616  8036.77  88.5599
 40.6036  7750.23  87.2187
 40.6456  7930.83  87.8321
 40.6876  7971.71  88.0601
 40.7296  7826.02  87.3764
 40.7716  8003.01  88.4813
 40.8136  7858.23  87.6247
 40.8556  7894.38  87.9614
 40.8976  8004.01  88.4929
 40.9396  7990.68  88.7742
 40.9816  7894.59  87.5274
 41.0236  7853.06  87.0771
 41.0656  8016.43  88.5208
 41.1076  7878.26  87.5228
 41.1496  7965.14  87.9115
 41.1916  7886.65  87.7844
 41.2336  7936.08  88.0733
 41.2756  7797.29  86.9019
 41.3176  7867.7  87.8987
 41.3596  7945.81  88.0767
 41.4016  7857.72  87.8422
 41.4436  7935.61  88.0615
 41.4856  7869.78  87.8549
 41.5276  7850.99  87.7737
 41.5696  7868.09  87.4833
 41.6116  7966.97  88.4361
 41.6536  7860.72  87.7033
 41.6956  7965.21  88.268
 41.7376  7909.2  88.0635
 41.7796  7706.98  86.8538
 41.8216  7882.83  88.0288
 41.8636  7857.32  87.8294
 41.9056  7776.5  87.1723
 41.9476  7869.28  87.9229
 41.9896  7921.66  87.8807
 42.0316  7800.65  87.2952
 42.0736  7966.81  88.3496
 42.1156  7842.33  87.4621
 42.1576  7877.78  87.7637
 42.1996  7963.28  88.3656
 42.2416  7832.23  87.2314
 42.2836  7872.08  87.5735
 42.3256  7763.43  87.0774
 42.3676  8014.09  88.2791
 42.4096  7834.71  87.2441
 42.4516  7998.05  88.2389
 42.4936  7828.69  87.3608
 42.5356  7779.57  87.2249
 42.5776  7743.54  86.9666
 42.6196  7918.09  87.9901
 42.6616  7668.48  86.7661
 42.7036  7766.81  86.6995
 42.7456  7867.49  87.6286
 42.7876  7797.09  87.3046
 42.8296  7790.71  87.121
 42.8716  7708.32  86.8106
 42.9136  7653.03  86.2605
 42.9556  7770.44  87.0862
 42.9976  7825.09  87.3598
 43.0396  7766.54  86.7661
 43.0816  7684.53  86.6938
 43.1236  7782.83  87.2931
 43.1656  7750.33  86.9377
 43.2076  7722.46  86.8918
 43.2496  7713.73  86.6606
 43.2916  7639.93  86.5999
 43.3336  7670.34  86.6074
 43.3756  7726.78  86.6896
 43.4176  7638.47  86.2657
 43.4596  7700.55  86.4752
 43.5016  7682.92  86.7858
 43.5436  7743.04  87.0209
 43.5856  7628.71  86.4052
 43.6276  7701.59  86.7085
 43.6696  7630.65  86.4525
 43.7116  7864.23  87.3709
 43.7536  7800.28  87.5182
 43.7956  7615.6  87.6841
 43.8376  7553.7  85.848
 43.8796  7493.09  85.5789
 43.9216  7558.81  85.8778
 43.9636  7520.89  85.7592
 44.0056  7565.34  86.2519
 44.0476  7387.39  84.8668
 44.0896  7477.09  85.7202
 44.1316  7487.56  85.4476
 44.1736  7527.95  85.665
 44.2156  7502.59  85.3696
 44.2576  7545.87  85.9438
 44.2996  7510.46  85.7132
 44.3416  7636.01  86.1838
 44.3836  7408.42  85.2149
 44.4256  7357.89  84.5726
 44.4676  7482.6  85.4429
 44.5096  7588.6  86.1906
 44.5516  7511.5  85.7174
 44.5936  7308.28  84.5021
 44.6356  7492.44  85.299
 44.6776  7456.25  85.4108
 44.7196  7445.05  85.6483
 44.7616  7608.8  87.9188
 44.8036  7628.81  86.663
 44.8456  7573.69  86.3555
 44.8876  7579.24  86.2309
 44.9296  7655.39  86.1053
 44.9716  7533.78  85.8541
 45.0136  7703.95  86.7463
 45.0556  7583.86  86.1598
 45.0976  7560.11  86.08
 45.1396  7400.54  84.9246
 45.1816  7522.99  85.5523
 45.2236  7502.56  85.3465
 45.2656  7403.97  85.2749
 45.3076  7578.11  86.0512
 45.3496  7544.63  86.171
 45.3916  7507.4  86.2339
 45.4336  7540.42  86.2745
 45.4756  7619.4  86.5652
 45.5176  7726.14  86.7849
 45.5596  7605.71  86.2213
 45.6016  7562.43  86.4061
 45.6436  7493.87  85.1801
 45.6856  7485.56  85.7979
 45.7276  7424.6  86.7561
 45.7696  7391.88  86.2486
 45.8116  7392.29  85.6845
 45.8536  7590.76  86.7255
 45.8956  7580.05  86.0094
 45.9376  7422.58  84.5785
 45.9796  7563.6  86.0865
 46.0216  7464.64  85.8366
 46.0636  7612.76  85.8205
 46.1056  7581.63  85.639
 46.1476  7408.43  85.2462
 46.1896  7607.99  86.5252
 46.2316  7428.19  85.3757
 46.2736  7437.14  85.6409
 46.3156  7538.59  85.9646
 46.3576  7507.97  85.9939
 46.3996  7448.26  85.8134
 46.4416  7484.63  85.5639
 46.4836  7302.43  84.8992
 46.5256  7359.88  85.1706
 46.5676  7405.47  85.5548
 46.6096  7331.77  85.0612
 46.6516  7408.37  84.5451
 46.6936  7415.21  85.0828
 46.7356  7491.34  85.6178
 46.7776  7421.48  86.0622
 46.8196  7318.06  85.1931
 46.8616  7309.73  84.9538
 46.9036  7288.95  84.4796
 46.9456  7384.62  84.6801
 46.9876  7419.59  84.966
 47.0296  7424.62  85.6905
 47.0716  7367.54  85.1842
 47.1136  7398.93  85.0463
 47.1556  7355.26  84.6408
 47.1976  7447.51  85.3452
 47.2396  7279.23  84.6973
 47.2816  7266.21  84.3172
 47.3236  7278.14  84.7615
 47.3656  7475.92  85.8288
 47.4076  7368.77  84.9474
 47.4496  7351  85.0051
 47.4916  7326.79  85.0647
 47.5336  7487.87  85.8058
 47.5756  7369.94  85.2478
 47.6176  7347.83  85.0162
 47.6596  7273.64  84.2967
 47.7016  7483.54  85.3033
 47.7436  7366.12  84.9787
 47.7856  7479.18  85.6528
 47.8276  7385.67  85.1704
 47.8696  7364.23  85.141
 47.9116  7349.36  84.7621
 47.9536  7414.07  85.0725
 47.9956  7388.24  85.6445
 48.0376  7298.43  84.8908
 48.0796  7393.5  85.5683
 48.1216  7293.73  84.8141
 48.1636  7495.49  85.5444
 48.2056  7351.66  84.9864
 48.2476  7460.87  85.9318
 48.2896  7441.45  85.7246
 48.3316  7443.24  85.6777
 48.3736  7352.15  85.1637
 48.4156  7236.05  84.3489
 48.4576  7371.92  85.4393
 48.4996  7448.6  85.3253
 48.5416  7415.98  85.4742
 48.5836  7343.51  84.7157
 48.6256  7439.09  85.4856
 48.6676  7376.96  85.6494
 48.7096  7389.82  84.9714
 48.7516  7328.75  84.7815
 48.7936  7235.83  84.3016
 48.8356  7345.71  84.9927
 48.8776  7281.06  85.1158
 48.9196  7487.06  85.7525
 48.9616  7274.73  84.9056
 49.0036  7336.78  85.6272
 49.0456  7336.02  85.5984
 49.0876  7298.84  85.0001
 49.1296  7210.14  84.5493
 49.1716  7233.63  84.5619
 49.2136  7275.8  84.7415
 49.2556  7396.65  85.4682
 49.2976  7387.38  85.4884
 49.3396  7160.7  84.2141
 49.3816  7528.18  85.7615
 49.4236  7305.85  84.9199
 49.4656  7190.23  84.2637
 49.5076  7278.61  84.5274
 49.5496  7308.7  84.7644
 49.5916  7335.09  84.8202
 49.6336  7176.9  84.1247
 49.6756  7291.03  85.0216
 49.7176  7315.86  85.1078
 49.7596  7302.89  84.7975
 49.8016  7279.87  84.5722
 49.8436  7235.78  84.6223
 49.8856  7232.11  84.6092
 49.9276  7202.54  84.5317
 49.9696  7234.25  84.7036
 50.0116  7200.89  84.646
 50.0536  7221.42  84.7051
 50.0956  7231.4  84.8345
 50.1376  7168.05  84.1594
 50.1796  7188.07  84.5571
 50.2216  7188.31  84.5464
 50.2636  7242.97  84.4847
 50.3056  7154.79  84.1409
 50.3476  7201.51  84.4393
 50.3896  7249.35  84.6857
 50.4316  7272.48  84.6565
 50.4736  7085.15  83.7746
 50.5156  7168.8  84.2601
 50.5576  7261.83  84.5641
 50.5996  7179.53  84.3673
 50.6416  7115.99  83.9118
 50.6836  7220.69  84.597
 50.7256  7314.78  85.0459
 50.7676  7294.63  85.2357
 50.8096  7131.84  83.843
 50.8516  7179.42  84.5539
 50.8936  7083.11  83.7685
 50.9356  7158.2  84.3112
 50.9776  7154.39  84.4514
 51.0196  6967.07  83.4597
 51.0616  6963.49  82.7572
 51.1036  7052.89  83.6493
 51.1456  7036.41  83.4578
 51.1876  7094.33  83.1232
 51.2296  7074.81  83.6575
 51.2716  6952.87  82.6455
 51.3136  6969.05  83.2059
 51.3556  7029.32  83.1762
 51.3976  7018.38  83.2681
 51.4396  6873.46  82.7178
 51.4816  6909.96  82.7903
 51.5236  7022.26  83.5473
 51.5656  6983.9  82.9105
 51.6076  7024.52  83.2358
 51.6496  6906.55  82.726
 51.6916  6949.93  83.3472
 51.7336  6893.02  83.0975
 51.7756  7012.42  83.5036
 51.8176  7050  83.8415
 51.8596  6836.55  82.5767
 51.9016  7091.86  83.7011
 51.9436  7001.41  84.6809
 51.9856  7041.24  85.3541
 52.0276  7088.65  84.1016
 52.0696  7229.8  85.0007
 52.1116  6976.46  83.6183
 52.1536  7142.18  84.4376
 52.1956  7017.49  83.2006
 52.2376  7183.8  84.3605
 52.2796  7036.59  83.3077
 52.3216  6930.36  83.3676
 52.3636  7124.18  84.0752
 52.4056  7023.49  83.3532
 52.4476  6918  83.0721
 52.4896  6944.75  83.3009
 52.5316  6975.37  83.5383
 52.5736  6834.84  82.3954
 52.6156  7131.51  84.5871
 52.6576  6997.57  83.2068
 52.6996  6817.68  83.1269
 52.7416  6846.95  83.1502
 52.7836  6996.06  83.9452
 52.8256  6987.89  83.0939
 52.8676  6802.31  82.5592
 52.9096  6967.91  83.6271
 52.9516  6960.39  83.9823
 52.9936  6905.17  84.0328
 53.0356  7106.58  84.2251
 53.0776  6983.86  83.8002
 53.1196  6873.04  83.2188
 53.1616  6880.06  83.3207
 53.2036  6961.38  83.7695
 53.2456  7035.8  84.3266
 53.2876  6906.83  83.2289
 53.3296  6909.35  83.5856
 53.3716  7016.04  83.967
 53.4136  7076.71  84.4802
 53.4556  6761.76  82.6161
 53.4976  6823.93  82.8345
 53.5396  6801.71  83.0873
 53.5816  6975.58  83.7836
 53.6236  6809.29  83.1258
 53.6656  6889.32  83.2254
 53.7076  6976.55  83.706
 53.7496  6915.95  83.4715
 53.7916  6855.86  83.244
 53.8336  6829.95  82.978
 53.8756  6777.86  83.2148
 53.9176  6803.46  82.6934
 53.9596  6694.94  82.8101
 54.0016  6661.49  81.9247
 54.0436  6559.07  81.5171
 54.0856  6740.56  82.0511
 54.1276  6651.04  81.713
 54.1696  6573.36  81.4002
 54.2116  6733.99  82.1265
 54.2536  6519.04  80.6147
 54.2956  6661.03  81.5301
 54.3376  6568.85  81.4532
 54.3796  6565.8  81.3263
 54.4216  6603.56  81.6319
 54.4636  6590.19  81.502
 54.5056  6616.65  81.4669
 54.5476  6567.06  81.5164
 54.5896  6548.67  81.2464
 54.6316  6658.07  81.7556
 54.6736  6583.24  81.3317
 54.7156  6562.45  81.2768
 54.7576  6514.44  80.947
 54.7996  6681.61  82.1637
 54.8416  6576.36  81.5679
 54.8836  6590.44  81.7311
 54.9256  6505.25  80.9702
 54.9676  6440.35  80.4173
 55.0096  6506.31  80.8851
 55.0516  6405.23  80.4124
 55.0936  6531.56  80.9261
 55.1356  6423.72  80.2852
 55.1776  6567.37  81.4319
 55.2196  6546.45  81.0955
 55.2616  6680.77  82.1466
 55.3036  6399.59  80.5688
 55.3456  6408.02  80.7513
 55.3876  6481.25  80.9462
 55.4296  6315.86  79.9045
 55.4716  6434.99  80.6843
 55.5136  6431.31  80.4193
 55.5556  6543.8  81.1726
 55.5976  6462.01  80.7258
 55.6396  6476.67  80.6929
 55.6816  6333.36  79.7608
 55.7236  6356.62  79.9538
 55.7656  6496.03  80.5559
 55.8076  6382.56  79.8434
 55.8496  6591.67  81.59
 55.8916  6345.59  80.0832
 55.9336  6495.64  80.9109
 55.9756  6298.44  79.5535
 56.0176  6326.86  79.8717
 56.0596  6359.55  80.0644
 56.1016  6283.93  79.6478
 56.1436  6400.03  80.5829
 56.1856  6224.32  79.2316
 56.2276  6477.6  80.8801
 56.2696  6369.81  80.1894
 56.3116  6448.8  81.0467
 56.3536  6310.48  79.8436
 56.3956  6341.63  80.0333
 56.4376  6336.08  80.0314
 56.4796  6276.13  79.4766
 56.5216  6250.88  79.6963
 56.5636  6218.92  79.0503
 56.6056  6458.52  80.8102
 56.6476  6206.29  78.8337
 56.6896  6439.1  80.77
 56.7316  6312.82  79.8794
 56.7736  6251.31  79.4725
 56.8156  6355.95  80.1606
 56.8576  6145.3  78.7678
 56.8996  6270.82  79.4857
 56.9416  6278.94  79.8372
 56.9836  6403.75  80.1603
 57.0256  6235.03  79.3956
 57.0676  6391.67  80.5054
 57.1096  6301.02  79.7303
 57.1516  6184.14  78.9804
 57.1936  6224.2  79.0593
 57.2356  6137.94  78.8067
 57.2776  6285.54  79.728
 57.3196  6247.4  79.8376
 57.3616  6269.27  79.473
 57.4036  6297.88  79.7059
 57.4456  6361.91  80.0907
 57.4876  6257.78  79.298
 57.5296  6137.81  78.7715
 57.5716  6151.03  78.9507
 57.6136  6099.36  78.452
 57.6556  6238.61  79.4775
 57.6976  6234.86  79.2875
 57.7396  6172.43  79.2432
 57.7816  6093.62  79.0911
 57.8236  6160.14  79.3113
 57.8656  6224.85  79.3993
 57.9076  6125.27  78.7703
 57.9496  6160.31  79.3638
 57.9916  6213.55  79.2184
 58.0336  6138.01  79.0105
 58.0756  6091.91  78.3001
 58.1176  6147.75  78.6927
 58.1596  6134.61  79.2001
 58.2016  6010.54  77.6127
 58.2436  5990.7  77.895
 58.2856  5922.39  77.3718
 58.3276  5922.98  77.741
 58.3696  5866.69  77.1289
 58.4116  5913.04  77.2992
 58.4536  5956.37  77.4689
 58.4956  5893.54  77.2376
 58.5376  6011.53  77.58
 58.5796  5882.66  77.1591
 58.6216  5997.54  77.7312
 58.6636  5945.45  77.5997
 58.7056  5933.57  77.3791
 58.7476  5899.13  77.5959
 58.7896  6064.11  78.3174
 58.8316  6014.48  77.9906
 58.8736  6011  77.9805
 58.9156  5911.04  77.3722
 58.9576  6017.18  78.3808
 58.9996  5971.06  77.3384
 59.0416  6059.67  78.2684
 59.0836  5935.16  77.3698
 59.1256  5857.95  77.5661
 59.1676  5844.49  77.7833
 59.2096  5802.09  76.8184
 59.2516  5891.43  76.9938
 59.2936  5956.4  77.7429
 59.3356  5876.25  77.0975
 59.3776  5879.46  77.2853
 59.4196  5870.36  77.1622
 59.4616  5920.09  77.3499
 59.5036  5881.5  77.1307
 59.5456  5993.28  77.5563
 59.5876  5889.66  77.0716
 59.6296  5770.42  76.3551
 59.6716  5900.14  77.2659
 59.7136  5807.07  76.6425
 59.7556  5736.64  76.3093
 59.7976  5805.32  76.512
 59.8396  5801.21  76.3813
 59.8816  5902.4  77.5816
 59.9236  5827.56  76.7403
 59.9656  5812.91  76.8996
 60.0076  5908.92  76.8964
 60.0496  5829.83  76.8744
 60.0916  6001.85  77.4209
 60.1336  5925.75  78.0252
 60.1756  5979.07  79.5536
 60.1996  0.0000000E+00  0.0000000E+00