File: docs/examples/opeando_xrd/IS17_D/Data/IS17_D/17_Db_f00063.xye
# /beamlines/bl04/projects/cycle2025-II/20250340211-lsimonelli/DATA/IS17_D/17_Db_f00063.xye : mythproc.py merge -s 0.006 -l 0.5 -f /beamlines/bl04/inhouse/ff/FlatField/ff_20Nov2024rod8mm60s_17keV.raw -b True -c true -o xye /beamlines/bl04/projects/cycle2025-II/20250340211-lsimonelli/DATA/IS17_D/17_Db_00063.dat
# IsMon = [6742327, 6747054, 6753849]  IsPos = [-1.5000, -2.4884, -3.4988]
# Wave = 0.4962  CalPath /beamlines/bl04/projects/cycle2025-II/20250340211-lsimonelli/DATA/Align/Si_Pos1_25keV_f00001.cal
# Date = 2025-09-24_11:15:29 Dt = 4.8000  Bin = 0.0060  <imon> = 6747743 +/- 4729 (Min/Max) 6742327 / 6753849
# icurr 248.8958  mocoIn 1.6991E-05  mocoOut 0.7975  i15 7.06856e+06  imon 6.74774e+06  i7 3.0000  iEMpd_timer 4.8000  iEMpd_1 3.4147E-08  iEMpd_2 7.8256E-08  iEMpd_3 1.7971E-08  iEMpd_4 4.8662E-08  iEMhp_timer 4.8000  iEMhp_1 4.8652E-06  iEMhp_2 -2.4307E-08  iEMhp_3 -2.4618E-08  iEMhp_4 -2.0237E-08
#      9776
 1.5856  44028  215.547
 1.6276  50336.6  226.518
 1.6696  55789.7  237.631
 1.7116  63112.8  253.241
 1.7536  71109.2  267.66
 1.7956  75222.5  275.981
 1.8376  71775.9  270.011
 1.8796  61825.9  248.752
 1.9216  51421.2  227.764
 1.9636  43711  209.663
 2.0056  40380.9  200.231
 2.0476  37668  195.508
 2.0896  35988.4  189.979
 2.1316  35322.5  187.308
 2.1736  33153.7  182.906
 2.2156  33763.9  183.101
 2.2576  32513.8  180.324
 2.2996  31276.1  177.507
 2.3416  31714.1  177.32
 2.3836  31375.9  176.479
 2.4256  30149.9  173.561
 2.4676  29701.8  172.022
 2.5096  29555.7  171.655
 2.5516  30694.8  178.872
 2.5936  56730.2  238.249
 2.6356  28880.7  170.783
 2.6776  27916.3  166.795
 2.7196  27018.6  164.583
 2.7616  27077  164.547
 2.8036  26522.1  163.011
 2.8456  26357.3  163.152
 2.8876  25682.8  160.897
 2.9296  25613.9  160.831
 2.9716  25241.5  159.144
 3.0136  24868.7  158.032
 3.0556  24770.4  158.11
 3.0976  25142.1  158.204
 3.1396  24835.9  157.953
 3.1816  24409.9  156.534
 3.2236  24170.5  155.758
 3.2656  24092  154.551
 3.3076  23962.4  155.6
 3.3496  24299.3  155.61
 3.3916  24752  156.886
 3.4336  25048.3  158.406
 3.4756  25447.7  159.611
 3.5176  26063  161.291
 3.5596  25642.1  162.948
 3.6016  26008.8  161.152
 3.6436  25017.6  159.158
 3.6856  24753.1  156.623
 3.7276  23713  154.365
 3.7696  23815.8  154.681
 3.8116  23268.1  152.999
 3.8536  23537.7  153.808
 3.8956  23128.6  152.29
 3.9376  23231.6  152.897
 3.9796  23261  152.482
 4.0216  23339.9  151.779
 4.0636  23156.2  152.632
 4.1056  22976.1  151.706
 4.1476  23268.3  152.99
 4.1896  23463.3  153.474
 4.2316  23750.5  154.228
 4.2736  24041.2  154.977
 4.3156  24204  155.714
 4.3576  24811  157.586
 4.3996  25307.2  159.425
 4.4416  25878.8  160.79
 4.4836  26362.1  162.45
 4.5256  26851.3  164.57
 4.5676  26527  163.812
 4.6096  27031.4  164.388
 4.6516  27240.2  164.348
 4.6936  27406.7  165.664
 4.7356  27721.6  166.454
 4.7776  27558.3  165.779
 4.8196  27552  166.443
 4.8616  26787.9  163.594
 4.9036  26761.3  163.257
 4.9456  26528.7  163.186
 4.9876  25899.8  161.142
 5.0296  26228  161.992
 5.0716  25969.2  161.927
 5.1136  26209.2  162.413
 5.1556  26325.2  162.219
 5.1976  28868.7  169.892
 5.2396  27068.8  164.195
 5.2816  27090.4  164.744
 5.3236  27006.4  164.173
 5.3656  26637.1  163.973
 5.4076  26210.8  162.797
 5.4496  26339.5  162.682
 5.4916  26472.6  162.855
 5.5336  26408.8  162.658
 5.5756  26451.6  162.827
 5.6176  26565.8  162.614
 5.6596  26900.5  164.459
 5.7016  26770.2  163.481
 5.7436  27064.6  164.66
 5.7856  26794.9  163.899
 5.8276  26973.7  164.152
 5.8696  27436  165.636
 5.9116  27114.2  165.357
 5.9536  27671.1  166.803
 5.9956  27960.6  167.046
 6.0376  27633.2  166.683
 6.0796  28155.4  168.083
 6.1216  27873.8  167.423
 6.1636  28141  167.291
 6.2056  28108.8  167.868
 6.2476  28502.8  168.749
 6.2896  28438.3  168.412
 6.3316  28630.4  169.16
 6.3736  28600.8  168.96
 6.4156  28713  169.225
 6.4576  28768  168.962
 6.4996  28884  169.763
 6.5416  29080.2  170.473
 6.5836  29039.5  170.588
 6.6256  29087.6  170.3
 6.6676  29626.9  171.439
 6.7096  29739.2  172.64
 6.7516  29966.3  172.943
 6.7936  30351.6  173.441
 6.8356  30445.2  173.813
 6.8776  30483.4  174.707
 6.9196  30128.3  174.1
 6.9616  30810.2  175.506
 7.0036  31294.8  176.533
 7.0456  31350.7  175.993
 7.0876  31497  178.018
 7.1296  31318  176.723
 7.1716  31232.5  176.018
 7.2136  30941.1  174.977
 7.2556  31359.3  176.314
 7.2976  31393.2  176.9
 7.3396  31151.9  176.445
 7.3816  31324.3  177.142
 7.4236  31369.8  176.568
 7.4656  31762.4  177.122
 7.5076  31821  177.445
 7.5496  31506.4  177.085
 7.5916  31692.8  177.671
 7.6336  32334.1  179.343
 7.6756  32321.3  179.161
 7.7176  32770.9  180.74
 7.7596  32582.2  181.42
 7.8016  34517  189.025
 7.8436  32849.6  181.027
 7.8856  32908.1  180.799
 7.9276  33689.6  183.318
 7.9696  33935.5  184.307
 8.0116  34917.7  185.509
 8.0536  35093.2  186.223
 8.0956  35632.6  188.842
 8.1376  35400.9  187.691
 8.1796  35641.2  188.871
 8.2216  36626.3  190.198
 8.2636  36705.5  190.653
 8.3056  36262.5  190.244
 8.3476  37561.5  192.963
 8.3896  37022.7  191.649
 8.4316  36869.2  191.422
 8.4736  37132.2  191.577
 8.5156  36720.5  190.785
 8.5576  36518.8  191.238
 8.5996  36645.2  190.437
 8.6416  36279  190.745
 8.6836  36197  190.332
 8.7256  36638.6  190.969
 8.7676  37188.9  195.335
 8.8096  37514.2  193.481
 8.8516  37206.9  192.329
 8.8936  36837.7  191.252
 8.9356  36785.3  191.466
 8.9776  36480.4  190.732
 9.0196  36598.5  190.738
 9.0616  36363.4  189.601
 9.1036  36361.1  190.767
 9.1456  35740.6  188.437
 9.1876  35817  188.603
 9.2296  35536.4  187.286
 9.2716  35309.7  186.748
 9.3136  35396.2  186.972
 9.3556  35745.4  187.868
 9.3976  34446.7  184.967
 9.4396  34563.7  185.156
 9.4816  34524.8  184.939
 9.5236  34083  183.612
 9.5656  34153.5  184.169
 9.6076  33247.4  182.208
 9.6496  33579.1  183.018
 9.6916  33209  181.929
 9.7336  33830.5  183.438
 9.7756  33287.6  183.087
 9.8176  32844.4  181.563
 9.8596  32892.7  180.138
 9.9016  32538.5  179.165
 9.9436  31989  177.378
 9.9856  31989.9  177.831
 10.0276  31598.4  177.798
 10.0696  32026.7  178.043
 10.1116  31044.1  175.556
 10.1536  31160.7  175.555
 10.1956  30456  173.654
 10.2376  30398.6  173.009
 10.2796  30387.9  173.081
 10.3216  29900.5  171.808
 10.3636  29658.6  171.304
 10.4056  30153.1  173.124
 10.4476  30400.1  173.438
 10.4896  31384.5  175.669
 10.5316  30386.9  173.249
 10.5736  29254.8  170.734
 10.6156  29083.2  170
 10.6576  30039.1  171.295
 10.6996  28383.1  167.209
 10.7416  27927.2  166.075
 10.7836  27892.9  166.596
 10.8256  27350.7  165.4
 10.8676  27301.8  164.804
 10.9096  27360  165.004
 10.9516  26871.9  162.483
 10.9936  27225.9  163.752
 11.0356  26641.4  162.594
 11.0776  27156.4  163.485
 11.1196  26384  161.907
 11.1616  25943  160.22
 11.2036  26502.7  161.783
 11.2456  26563.9  162.69
 11.2876  26199.2  161.309
 11.3296  26016.1  160.642
 11.3716  26275  161.146
 11.4136  26174.6  161.702
 11.4556  26610.3  162.692
 11.4976  27335.3  163.875
 11.5396  26984.3  162.993
 11.5816  26395.1  161.649
 11.6236  25639.9  159.547
 11.6656  25713.2  158.939
 11.7076  25009.2  157.559
 11.7496  24806.5  160.893
 11.7916  25178.2  157.337
 11.8336  24438.8  155.884
 11.8756  24518  155.707
 11.9176  24408.8  155.038
 11.9596  24612.2  155.87
 12.0016  24174.1  155.232
 12.0436  24129.7  154.537
 12.0856  23922.4  154.371
 12.1276  23766.3  153.815
 12.1696  23859.7  153.24
 12.2116  23981.5  153.614
 12.2536  24450  155.938
 12.2956  23739  152.993
 12.3376  24164.9  154.595
 12.3796  23703.2  153.576
 12.4216  23799.5  153.089
 12.4636  23629  153.473
 12.5056  23616.7  152.697
 12.5476  23713.9  152.531
 12.5896  23504.8  152.483
 12.6316  23702.9  153.299
 12.6736  23533.1  153.227
 12.7156  23665.2  153.509
 12.7576  23514.5  153.258
 12.7996  23743.1  152.648
 12.8416  23845.6  154.025
 12.8836  23999  154.342
 12.9256  24115.1  153.755
 12.9676  24057.6  153.967
 13.0096  24432.9  156.309
 13.0516  24218.2  154.635
 13.0936  24248.4  154.862
 13.1356  24410.8  154.614
 13.1776  24239.7  155.098
 13.2196  24124.6  154.371
 13.2616  23933.6  154.065
 13.3036  24250.2  155.239
 13.3456  23877.7  154.185
 13.3876  24598.4  155.807
 13.4296  24215.8  154.731
 13.4716  24352.5  154.799
 13.5136  24083.2  154.061
 13.5556  24035.1  154.545
 13.5976  24235.7  155.356
 13.6396  24360.5  155.098
 13.6816  24433.3  155.703
 13.7236  24603.9  155.953
 13.7656  26235.7  161.528
 13.8076  27161.3  162.935
 13.8496  25585  159.011
 13.8916  24520.3  156.609
 13.9336  23670.5  153.14
 13.9756  23792.2  152.927
 14.0176  23517.4  152.703
 14.0596  23650.4  153.076
 14.1016  23356.6  152.534
 14.1436  23328.3  151.601
 14.1856  22949.9  150.644
 14.2276  22935.4  151.093
 14.2696  23104.6  151.485
 14.3116  22404.7  149.07
 14.3536  22240.8  148.701
 14.3956  22159.5  148.152
 14.4376  22333.3  148.517
 14.4796  22125.3  147.827
 14.5216  22097.8  148.518
 14.5636  21808.7  147.119
 14.6056  21923.7  147.06
 14.6476  21887.6  146.193
 14.6896  21219.6  144.481
 14.7316  21227.2  145.541
 14.7736  20962.9  143.783
 14.8156  20891.1  143.553
 14.8576  20766.7  142.989
 14.8996  20322.6  142.635
 14.9416  19971.8  141.411
 14.9836  20043.8  141.635
 15.0256  19488.4  138.573
 15.0676  19289.4  138.17
 15.1096  19269  137.838
 15.1516  19118.5  137.862
 15.1936  18840.2  136.281
 15.2356  18803.9  136.424
 15.2776  18766.6  135.883
 15.3196  18385.2  135.473
 15.3616  18362.4  135.14
 15.4036  18272.3  134.681
 15.4456  18450.8  134.991
 15.4876  18318.7  134.194
 15.5296  17994.2  133.293
 15.5716  17710.7  131.839
 15.6136  17762.5  132.359
 15.6556  18034.9  132.61
 15.6976  17861.8  132.276
 15.7396  17412.8  130.961
 15.7816  17509.1  130.854
 15.8236  17053.3  129.803
 15.8656  17210.6  130.211
 15.9076  17135.6  129.755
 15.9496  17882.8  135.402
 15.9916  17482.5  134.264
 16.0336  17576.8  131.519
 16.0756  17367.4  131.042
 16.1176  17075  129.835
 16.1596  16663.5  129.595
 16.2016  16641.8  128.268
 16.2436  16829.6  129.378
 16.2856  16742  128.557
 16.3276  16239.7  127.05
 16.3696  16693.6  128.647
 16.4116  16646.2  128.921
 16.4536  16607  128.56
 16.4956  16883.1  129.377
 16.5376  16551.7  128.274
 16.5796  16279  126.584
 16.6216  16410.9  127.365
 16.6636  16203.1  126.723
 16.7056  16323.2  127.068
 16.7476  16241.2  126.285
 16.7896  16210.6  126.901
 16.8316  16275.1  127.137
 16.8736  16493.7  128.258
 16.9156  16379.5  128.119
 16.9576  16158.2  128.063
 16.9996  16066.5  128.15
 17.0416  16266.6  127.357
 17.0836  16110.8  126.514
 17.1256  16121.7  126.565
 17.1676  16060.4  126.27
 17.2096  15899.7  125.548
 17.2516  15938.6  125.8
 17.2936  15697.2  124.884
 17.3356  15427.9  123.801
 17.3776  15337.6  123.61
 17.4196  15310.3  123.202
 17.4616  15539.2  124.034
 17.5036  15216.5  123.099
 17.5456  14961.9  122.692
 17.5876  15074.3  122.213
 17.6296  15197.3  122.524
 17.6716  14823.7  121.595
 17.7136  15099.4  122.856
 17.7556  14918  122.41
 17.7976  15073  122.774
 17.8396  14884  121.504
 17.8816  14577  120.795
 17.9236  14767.5  121.368
 17.9656  14607.8  121.208
 18.0076  14718.3  121.255
 18.0496  14932.5  121.267
 18.0916  16093.3  126.472
 18.1336  15302.8  123.421
 18.1756  15018.8  121.819
 18.2176  14785.2  121.082
 18.2596  14479.7  119.56
 18.3016  14704.6  120.742
 18.3436  14886.2  121.491
 18.3856  14700.6  120.874
 18.4276  14482.4  119.647
 18.4696  14303.4  118.981
 18.5116  14322.4  119.343
 18.5536  14414.3  120.07
 18.5956  14232  118.89
 18.6376  14242.1  119.333
 18.6796  14159.7  118.327
 18.7216  14262.8  119.224
 18.7636  14194.5  118.958
 18.8056  13951.2  117.846
 18.8476  13797.6  117.797
 18.8896  13851.7  117.387
 18.9316  14038.3  118.142
 18.9736  14084.5  118.05
 19.0156  13945.9  117.888
 19.0576  14233.5  117.951
 19.0996  14079.6  118.015
 19.1416  13990.9  118.034
 19.1836  13850.7  117.048
 19.2256  13615.7  116.267
 19.2676  13778.6  117.043
 19.3096  13661.6  116.78
 19.3516  13876.1  117.486
 19.3936  13724.7  116.913
 19.4356  13930.8  117.683
 19.4776  13587.6  116.305
 19.5196  13642.1  116.389
 19.5616  13682  116.818
 19.6036  13775.7  116.703
 19.6456  13716.9  116.586
 19.6876  13966.3  117.264
 19.7296  13921  117.56
 19.7716  13810  117.249
 19.8136  14311.2  119.567
 19.8556  14390.4  119.357
 19.8976  14418  119.531
 19.9396  14654  120.094
 19.9816  14532.4  119.837
 20.0236  14478  119.794
 20.0656  14229.3  118.773
 20.1076  13943.6  118.066
 20.1496  13628.4  116.701
 20.1916  13675  116.389
 20.2336  13440.8  115.359
 20.2756  13415.6  115.673
 20.3176  13230.8  114.631
 20.3596  13276.2  114.804
 20.4016  13364.4  114.985
 20.4436  13192.2  114.792
 20.4856  13307.1  115.11
 20.5276  13203.3  115.107
 20.5696  13242.4  114.836
 20.6116  13133.4  114.531
 20.6536  13052.9  113.697
 20.6956  13032.2  113.732
 20.7376  12925.8  113.472
 20.7796  12978.4  113.412
 20.8216  13062.9  113.49
 20.8636  13097  114.022
 20.9056  13363.5  115.101
 20.9476  13164.1  114.095
 20.9896  13333.5  114.678
 21.0316  13007.6  113.169
 21.0736  13120.4  114.184
 21.1156  13054.1  114.045
 21.1576  12944.2  113.608
 21.1996  12908.2  113.439
 21.2416  12973.3  113.563
 21.2836  12953.9  113.44
 21.3256  12992  113.692
 21.3676  12787.9  112.316
 21.4096  12741.3  112.486
 21.4516  12757  112.383
 21.4936  12606.1  111.979
 21.5356  12720.9  112.432
 21.5776  12909.4  113.096
 21.6196  12580  111.686
 21.6616  12609.7  111.895
 21.7036  12759.3  112.322
 21.7456  12653.7  111.948
 21.7876  12515.8  111.093
 21.8296  12583.8  111.239
 21.8716  12613.8  111.607
 21.9136  12759.2  112.45
 21.9556  12633.3  111.571
 21.9976  12508.6  111.044
 22.0396  12597.3  111.69
 22.0816  12505.7  111.794
 22.1236  12674.5  112.02
 22.1656  12603.9  111.836
 22.2076  12297.5  109.919
 22.2496  12213.5  109.586
 22.2916  12312.6  109.907
 22.3336  12164.3  109.96
 22.3756  12279.7  110.196
 22.4176  11996.7  108.775
 22.4596  12064.2  109.652
 22.5016  12333.4  110.384
 22.5436  12303.9  110.12
 22.5856  12324.2  110.464
 22.6276  12560.4  111.651
 22.6696  12237.5  110.558
 22.7116  12271.1  110.233
 22.7536  12226.4  110.001
 22.7956  12234.4  109.384
 22.8376  12163.1  109.561
 22.8796  12228.8  109.671
 22.9216  12282.2  110.439
 22.9636  12164.2  109.084
 23.0056  12230.8  109.512
 23.0476  12397.3  110.825
 23.0896  12483.3  110.59
 23.1316  12365.1  110.498
 23.1736  12455.6  113.844
 23.2156  12354.9  110.779
 23.2576  12704.8  112.499
 23.2996  12359.9  110.713
 23.3416  12567.2  112.189
 23.3836  12607.5  111.589
 23.4256  12549.3  111.464
 23.4676  12400.4  110.476
 23.5096  12462.1  111.407
 23.5516  12429.5  110.572
 23.5936  12568  112.094
 23.6356  12764.5  112.629
 23.6776  12284.8  110.688
 23.7196  12347.8  110.794
 23.7616  12348.3  110.469
 23.8036  12637.9  111.84
 23.8456  12455.8  110.549
 23.8876  12257.2  110.052
 23.9296  12018.5  109.443
 23.9716  12108.2  109.064
 24.0136  12327.3  110.948
 24.0556  12022.4  109.285
 24.0976  12044.6  109.208
 24.1396  12000.2  111.619
 24.1816  12070.6  110.369
 24.2236  12156.5  110.407
 24.2656  11998.3  109.158
 24.3076  11908.5  109.015
 24.3496  11864.2  108.689
 24.3916  11988.4  109.314
 24.4336  11966.9  109.412
 24.4756  11826  108.654
 24.5176  11907.5  108.65
 24.5596  11999.4  109.409
 24.6016  11711.4  108.168
 24.6436  11732.2  107.784
 24.6856  11639.1  107.099
 24.7276  11628.3  107.365
 24.7696  11583.7  107.271
 24.8116  11447.9  106.808
 24.8536  11422.6  106.705
 24.8956  11543.9  107.002
 24.9376  11515.8  107.056
 24.9796  11493.8  107.06
 25.0216  11356.3  106.54
 25.0636  11447.1  106.612
 25.1056  11194.3  106.114
 25.1476  11212.6  107.818
 25.1896  11036.3  105.491
 25.2316  11145.9  105.277
 25.2736  11099.2  104.725
 25.3156  11083  104.716
 25.3576  11035.1  104.924
 25.3996  11047.5  104.968
 25.4416  11028.7  104.853
 25.4836  10792.6  104.236
 25.5256  10921  104.219
 25.5676  10986.5  104.275
 25.6096  10800.1  103.947
 25.6516  11075.8  104.773
 25.6936  11022.6  104.845
 25.7356  10909.3  104.43
 25.7776  10898.9  104.046
 25.8196  10749.7  103.504
 25.8616  10756.6  103.459
 25.9036  10976.7  103.968
 25.9456  10767.5  103.578
 25.9876  10805.5  103.68
 26.0296  10826.6  103.44
 26.0716  10883.8  104.141
 26.1136  10923.1  104.26
 26.1556  10951.3  103.762
 26.1976  10745.6  103.716
 26.2396  10763.3  102.957
 26.2816  10813.8  103.815
 26.3236  10755.3  103.682
 26.3656  10970.1  104.446
 26.4076  10819.7  103.917
 26.4496  10925.4  104.039
 26.4916  10926.1  103.928
 26.5336  11371.4  106.367
 26.5756  11458.6  106.652
 26.6176  10893.7  103.998
 26.6596  10774.6  103.751
 26.7016  10674.5  103.03
 26.7436  10824.5  103.889
 26.7856  10421.1  101.914
 26.8276  10590.3  102.704
 26.8696  10476.8  102.02
 26.9116  10285.8  101.022
 26.9536  10459.6  101.92
 26.9956  10421  101.767
 27.0376  10471.1  102.245
 27.0796  10460.7  101.915
 27.1216  10454.3  101.95
 27.1636  10324.7  101.482
 27.2056  10347.9  101.478
 27.2476  10376.9  101.609
 27.2896  10241.7  101.055
 27.3316  10255.7  100.84
 27.3736  10168.8  100.686
 27.4156  10291.4  101.144
 27.4576  10199.7  100.897
 27.4996  10389  101.448
 27.5416  10179.2  100.707
 27.5836  10195.2  100.63
 27.6256  10188.5  100.781
 27.6676  10120.4  100.421
 27.7096  10221.4  100.81
 27.7516  10296.6  101.326
 27.7936  10514.8  102.553
 27.8356  10419.9  101.677
 27.8776  10438.4  101.856
 27.9196  10232.4  100.696
 27.9616  10263.1  101.044
 28.0036  10127.4  100.344
 28.0456  9999.86  99.8328
 28.0876  9908.89  99.4721
 28.1296  9976.15  99.6519
 28.1716  10026.5  99.9184
 28.2136  10020.4  99.8482
 28.2556  10023.6  99.9899
 28.2976  9808.64  98.8954
 28.3396  9864.26  98.9275
 28.3816  9949.09  99.3668
 28.4236  9869.37  99.1195
 28.4656  9775.83  98.6854
 28.5076  9767.33  98.2817
 28.5496  9721.63  98.3045
 28.5916  9872.63  98.8875
 28.6336  9899.92  99.3751
 28.6756  9754.05  97.8331
 28.7176  9741.6  98.3243
 28.7596  9810.67  98.5679
 28.8016  9745.4  98.276
 28.8436  9641.1  97.9833
 28.8856  9742.72  98.352
 28.9276  9636.2  98.0569
 28.9696  9680.66  97.9316
 29.0116  9648.45  97.953
 29.0536  9541.09  97.6209
 29.0956  9574.28  97.4943
 29.1376  9650.69  97.8493
 29.1796  9556.81  97.4349
 29.2216  9560  97.285
 29.2636  9649.75  97.8227
 29.3056  9547.15  97.0773
 29.3476  9538.66  97.5585
 29.3896  9596.82  97.959
 29.4316  9360.46  96.0784
 29.4736  9317.73  95.9136
 29.5156  9441.67  96.4762
 29.5576  9256.63  96.261
 29.5996  9296.29  95.7317
 29.6416  9275.44  95.7439
 29.6836  9365.85  96.1358
 29.7256  9384.34  96.7888
 29.7676  9287.3  95.947
 29.8096  9231.21  95.6078
 29.8516  9061.4  95.0411
 29.8936  9270.13  96.2285
 29.9356  9292.47  96.103
 29.9776  9261.22  96.0843
 30.0196  9317.75  95.7915
 30.0616  9208.1  95.5828
 30.1036  9278  95.781
 30.1456  9134.9  95.2508
 30.1876  9193.98  95.5501
 30.2296  9180.24  95.4134
 30.2716  9275.94  95.5611
 30.3136  9278.09  96.4212
 30.3556  9462.86  97.3957
 30.3976  9271.71  97.9015
 30.4396  9585.77  96.8985
 30.4816  9523.41  96.1746
 30.5236  9542.71  96.2739
 30.5656  9397.22  96.1893
 30.6076  9418.72  96.0341
 30.6496  9547.69  96.7761
 30.6916  9292.4  95.5443
 30.7336  9392.98  96.2248
 30.7756  9347.58  96.081
 30.8176  9288.49  95.7004
 30.8596  9484.98  96.4651
 30.9016  9501  96.4261
 30.9436  9300.59  95.6132
 30.9856  9418.04  96.3419
 31.0276  9325.06  95.4897
 31.0696  9202.26  95.4065
 31.1116  9192.47  95.3289
 31.1536  9203.39  95.2339
 31.1956  9333.22  96.0288
 31.2376  9026.64  94.4487
 31.2796  9217.83  94.9956
 31.3216  9164.36  94.6515
 31.3636  9225.73  95.6702
 31.4056  9346.89  97.6086
 31.4476  9211.69  94.8303
 31.4896  9172.61  95.126
 31.5316  9266.9  95.0166
 31.5736  9586.67  96.4754
 31.6156  9435.47  95.7107
 31.6576  9426.23  95.7287
 31.6996  9396.88  95.2686
 31.7416  9327.21  95.8679
 31.7836  9161.75  94.1613
 31.8256  9370.35  95.5012
 31.8676  9385.12  95.5668
 31.9096  9112.54  94.3692
 31.9516  9084.61  94.5507
 31.9936  9010.31  93.976
 32.0356  9283.93  95.4633
 32.0776  9294.02  95.3969
 32.1196  9281.94  95.3558
 32.1616  9264.74  94.7994
 32.2036  9119.49  94.5644
 32.2456  9093.86  94.7978
 32.2876  9199.3  94.8535
 32.3296  9083.62  94.2161
 32.3716  8837.68  93.0306
 32.4136  8897.58  93.5359
 32.4556  9005  93.4944
 32.4976  9023.1  93.5359
 32.5396  8884.84  92.8422
 32.5816  9040.73  93.7881
 32.6236  8850.43  92.8479
 32.6656  8931.83  93.8182
 32.7076  8879.77  93.2002
 32.7496  8776.12  92.3308
 32.7916  8809.91  92.4694
 32.8336  8885.42  92.9573
 32.8756  8903.5  92.7729
 32.9176  8754.57  92.476
 32.9596  8814.9  92.865
 33.0016  8769.49  92.3873
 33.0436  8862.68  93.0503
 33.0856  8820.33  92.9274
 33.1276  8776.77  92.4357
 33.1696  8950.09  93.1768
 33.2116  8876.54  93.0258
 33.2536  8880.49  93.0373
 33.2956  8816.13  92.7795
 33.3376  8619.06  91.562
 33.3796  8844.51  92.8944
 33.4216  8766.12  92.0549
 33.4636  8845.53  92.6378
 33.5056  8583.3  91.5032
 33.5476  8678.22  91.9926
 33.5896  8824.42  92.55
 33.6316  8700.56  92.2136
 33.6736  8670.59  92.2895
 33.7156  8592.04  91.9002
 33.7576  8793.9  92.6161
 33.7996  8738.79  92.0816
 33.8416  8491.99  90.9641
 33.8836  8545.68  91.0212
 33.9256  8801.44  92.4479
 33.9676  8724.03  91.928
 34.0096  8596.49  91.5743
 34.0516  8606.28  91.255
 34.0936  8393.13  90.3859
 34.1356  8657.24  91.5401
 34.1776  8521.74  90.8126
 34.2196  8525.89  91.0204
 34.2616  8433.39  90.6638
 34.3036  8512.84  91.3381
 34.3456  8513.8  91.089
 34.3876  8617.1  91.7008
 34.4296  8585.83  91.1425
 34.4716  8618.56  91.4627
 34.5136  8480.67  90.9201
 34.5556  8403.84  90.7448
 34.5976  8680.72  92.0935
 34.6396  8612.01  91.3948
 34.6816  8582.65  91.3582
 34.7236  8579.55  91.113
 34.7656  8515.11  90.9772
 34.8076  8404.56  90.7152
 34.8496  8398.02  90.5236
 34.8916  8551.61  91.2094
 34.9336  8506.2  90.9498
 34.9756  8676.34  91.813
 35.0176  8591.19  91.8586
 35.0596  8598.65  91.7262
 35.1016  8487.35  90.881
 35.1436  8695.79  91.6699
 35.1856  8464.76  90.5626
 35.2276  8393.1  90.3451
 35.2696  8416.88  90.6797
 35.3116  8293.33  90.1001
 35.3536  8487.94  90.9042
 35.3956  8364.03  89.9117
 35.4376  8435.13  90.873
 35.4796  8435.25  90.9068
 35.5216  8397.02  90.6607
 35.5636  8120.92  89.8923
 35.6056  8337.68  90.0987
 35.6476  8362.7  90.1382
 35.6896  8421.05  90.5495
 35.7316  8355.31  90.1688
 35.7736  8314.39  90.1294
 35.8156  8295.99  90.0375
 35.8576  8326.29  90.4552
 35.8996  8336.31  90.4652
 35.9416  8422.39  90.4374
 35.9836  8120.82  89.2406
 36.0256  8480.68  91.0975
 36.0676  8374.84  90.2871
 36.1096  8342.58  90.2706
 36.1516  8445.52  90.7169
 36.1936  8378.44  90.1996
 36.2356  8329.58  90.5855
 36.2776  8361.58  90.2166
 36.3196  8326.34  89.7102
 36.3616  8245.78  89.4049
 36.4036  8287.44  89.7002
 36.4456  8364.19  90.3291
 36.4876  8077.82  88.703
 36.5296  8148.69  89.1341
 36.5716  8241.08  90.4126
 36.6136  8177.87  88.8347
 36.6556  8109.37  88.6517
 36.6976  8017.55  88.6493
 36.7396  8077.28  88.7201
 36.7816  8149.08  89.4789
 36.8236  7959.3  88.3614
 36.8656  7904.85  88.1208
 36.9076  7982.2  88.4361
 36.9496  7981.52  88.4059
 36.9916  7973  88.0033
 37.0336  8115.83  89.095
 37.0756  8027.71  88.412
 37.1176  7887.3  87.899
 37.1596  7872.37  87.8214
 37.2016  7929.45  88.3614
 37.2436  8019.97  88.1847
 37.2856  7904.62  87.807
 37.3276  8020.02  87.802
 37.3696  7968.9  88.3994
 37.4116  7874.4  87.7702
 37.4536  8007.89  88.384
 37.4956  7791.66  87.2211
 37.5376  8009  90.0242
 37.5796  7962.95  89.6964
 37.6216  8043.49  88.4207
 37.6636  8134.67  88.8244
 37.7056  8063.86  88.6076
 37.7476  8092.3  88.3251
 37.7896  7914.21  87.8263
 37.8316  7934.21  88.1177
 37.8736  7962.09  87.7761
 37.9156  8031.3  88.1484
 37.9576  8070.94  88.2914
 37.9996  7782.12  86.413
 38.0416  7948.27  88.1288
 38.0836  8155.11  89.1745
 38.1256  8044.35  88.5423
 38.1676  7802.59  87.3198
 38.2096  8108.84  88.6438
 38.2516  7955.4  87.994
 38.2936  8144.87  88.8503
 38.3356  7888.65  87.3508
 38.3776  7786.22  87.0431
 38.4196  7898.87  87.5128
 38.4616  8009  88.3807
 38.5036  7872.3  87.4683
 38.5456  7795.4  87.8579
 38.5876  7813.68  87.985
 38.6296  7973.71  87.8817
 38.6716  7971.78  87.6681
 38.7136  7927.45  87.3692
 38.7556  7874.03  87.576
 38.7976  7922.37  87.7681
 38.8396  7825.14  87.6834
 38.8816  7958.6  88.2243
 38.9236  7767.95  86.9571
 38.9656  7942.9  87.8443
 39.0076  7999.43  87.5592
 39.0496  8025.53  88.268
 39.0916  8006.12  87.7999
 39.1336  7914.47  87.6964
 39.1756  7759.15  86.8985
 39.2176  7841.82  87.8707
 39.2596  7889.09  88.0803
 39.3016  7807.24  87.214
 39.3436  7838.8  87.788
 39.3856  7895.61  87.5604
 39.4276  8048.65  88.9233
 39.4696  7990.44  88.2097
 39.5116  7978.61  88.6663
 39.5536  7920.39  88.7418
 39.5956  7935.37  87.9331
 39.6376  7902.55  87.7421
 39.6796  7790.9  86.8731
 39.7216  7768.21  86.8359
 39.7636  7906.97  88.1718
 39.8056  7924.3  88.0615
 39.8476  7706.2  87.0932
 39.8896  7865.15  87.6291
 39.9316  7784.73  87.412
 39.9736  7855.26  87.3897
 40.0156  7811.76  86.9736
 40.0576  7822.13  87.3807
 40.0996  7823.63  86.5891
 40.1416  7813.76  87.3204
 40.1836  7983.2  88.1491
 40.2256  7896.37  87.7026
 40.2676  7783.64  87.2353
 40.3096  7885.23  87.6743
 40.3516  7933.55  88.0498
 40.3936  7997.25  87.9566
 40.4356  7883.89  87.5436
 40.4776  8003.87  88.4504
 40.5196  8011.16  88.7775
 40.5616  7972.03  88.2084
 40.6036  7864.03  87.8548
 40.6456  7852.39  87.3926
 40.6876  8053.63  88.5077
 40.7296  7831.77  87.4025
 40.7716  7851.09  87.6449
 40.8136  7864.21  87.6638
 40.8556  7951.79  88.2814
 40.8976  7872.15  87.7565
 40.9396  7829.48  87.8642
 40.9816  7930.77  87.7153
 41.0236  7859.23  87.1041
 41.0656  7988.34  88.3672
 41.1076  7840.56  87.3094
 41.1496  7942.23  87.7883
 41.1916  7822.47  87.44
 41.2336  7967.56  88.2496
 41.2756  7860.8  87.2603
 41.3176  7944.12  88.3385
 41.3596  7970.28  88.2056
 41.4016  7833.3  87.6958
 41.4436  7903.06  87.8824
 41.4856  7890.21  87.9676
 41.5276  7953.38  88.3331
 41.5696  7776.23  86.9892
 41.6116  7943.89  88.32
 41.6536  7847.49  87.6283
 41.6956  7955.56  88.2089
 41.7376  7836.86  87.6538
 41.7796  7775.21  87.1912
 41.8216  7867.72  87.9481
 41.8636  7873.07  87.9151
 41.9056  7814.37  87.3832
 41.9476  7905.67  88.126
 41.9896  7983.86  88.2365
 42.0316  7927.5  88.0018
 42.0736  7887.11  87.9097
 42.1156  7774.49  87.0823
 42.1576  7864.47  87.6919
 42.1996  7939.82  88.2394
 42.2416  7811.22  87.1116
 42.2836  7960.74  88.0647
 42.3256  7832.13  87.4441
 42.3676  7904.88  87.6809
 42.4096  7853.77  87.3583
 42.4516  7916.2  87.7821
 42.4936  7757.78  86.9636
 42.5356  7728.29  86.9361
 42.5776  7840.7  87.51
 42.6196  7866.4  87.7103
 42.6616  7684.19  86.8554
 42.7036  7800.7  86.8951
 42.7456  7904.4  87.8334
 42.7876  7703.08  86.7824
 42.8296  7723.58  86.7523
 42.8716  7755.9  87.0911
 42.9136  7648.34  86.2283
 42.9556  7924.21  87.9479
 42.9976  7754.48  86.974
 43.0396  7734.21  86.5876
 43.0816  7734.34  86.9745
 43.1236  7726.03  86.977
 43.1656  7658.5  86.4135
 43.2076  7734.85  86.9622
 43.2496  7818.55  87.2512
 43.2916  7697.63  86.9319
 43.3336  7727.58  86.9301
 43.3756  7754.17  86.8476
 43.4176  7627.32  86.1974
 43.4596  7694.22  86.4425
 43.5016  7680.23  86.7639
 43.5436  7653.56  86.516
 43.5856  7692.09  86.7597
 43.6276  7621.53  86.2546
 43.6696  7605.14  86.4136
 43.7116  7700.62  86.4653
 43.7536  7760.33  87.2998
 43.7956  7648.82  87.8741
 43.8376  7588.57  86.046
 43.8796  7370.55  84.8729
 43.9216  7520.74  85.6459
 43.9636  7594.49  86.1749
 44.0056  7456.09  85.6202
 44.0476  7519.13  85.5988
 44.0896  7481.42  85.7378
 44.1316  7534.18  85.5664
 44.1736  7456.15  85.2457
 44.2156  7566.57  85.7311
 44.2576  7457.03  85.4222
 44.2996  7506.7  85.6917
 44.3416  7498.22  85.3924
 44.3836  7329.28  84.75
 44.4256  7348.89  84.5025
 44.4676  7412.65  85.0362
 44.5096  7366.92  84.9159
 44.5516  7453.1  85.3776
 44.5936  7340.88  84.6817
 44.6356  7456.04  85.0846
 44.6776  7452.21  85.3866
 44.7196  7393.81  85.3345
 44.7616  7511.75  87.3652
 44.8036  7628.33  86.6613
 44.8456  7617.15  86.598
 44.8876  7499.51  85.7713
 44.9296  7738.4  86.5555
 44.9716  7652.62  86.529
 45.0136  7549.56  85.8672
 45.0556  7554.34  85.9883
 45.0976  7517.95  85.8349
 45.1396  7443.06  85.1602
 45.1816  7536.09  85.6184
 45.2236  7572.38  85.7391
 45.2656  7456.99  85.5683
 45.3076  7545.23  85.8662
 45.3496  7448.75  85.6093
 45.3916  7460.03  85.9565
 45.4336  7439.65  85.6976
 45.4756  7391.44  85.2554
 45.5176  7548.78  85.787
 45.5596  7625.8  86.3328
 45.6016  7413.57  85.546
 45.6436  7610.02  85.839
 45.6856  7430.32  85.4617
 45.7276  7397.04  86.5849
 45.7696  7465.92  86.6799
 45.8116  7365.45  85.5414
 45.8536  7371.47  85.4736
 45.8956  7472.86  85.4127
 45.9376  7557  85.3555
 45.9796  7499.64  85.7174
 46.0216  7410.65  85.5361
 46.0636  7751.68  86.6056
 46.1056  7510.49  85.2521
 46.1476  7622.12  86.481
 46.1896  7392.29  85.3143
 46.2316  7493.61  85.7604
 46.2736  7487.16  85.9383
 46.3156  7496.83  85.7445
 46.3576  7440.94  85.6235
 46.3996  7433.71  85.7409
 46.4416  7448.36  85.3725
 46.4836  7384.65  85.3868
 46.5256  7426.54  85.5768
 46.5676  7396.49  85.5179
 46.6096  7507.85  86.0812
 46.6516  7523.48  85.2125
 46.6936  7538.91  85.8
 46.7356  7575.32  86.0971
 46.7776  7448.21  86.2151
 46.8196  7374.91  85.5309
 46.8616  7344.08  85.1474
 46.9036  7245.47  84.2338
 46.9456  7352.59  84.4912
 46.9876  7347.82  84.5549
 47.0296  7330.77  85.1406
 47.0716  7194.24  84.1752
 47.1136  7372.78  84.8958
 47.1556  7294.04  84.2979
 47.1976  7414.51  85.1444
 47.2396  7358.22  85.1484
 47.2816  7327.56  84.676
 47.3236  7320.82  85.0055
 47.3656  7359.03  85.1584
 47.4076  7405.02  85.1553
 47.4496  7372.63  85.1355
 47.4916  7279.9  84.7834
 47.5336  7449.14  85.5765
 47.5756  7359.66  85.1893
 47.6176  7288.7  84.666
 47.6596  7319.52  84.5634
 47.7016  7568.11  85.7959
 47.7436  7429.94  85.3578
 47.7856  7424.12  85.3527
 47.8276  7273.14  84.5165
 47.8696  7390.33  85.2884
 47.9116  7443.18  85.3025
 47.9536  7307.99  84.4561
 47.9956  7226.36  84.7003
 48.0376  7172.21  84.1584
 48.0796  7328.84  85.1929
 48.1216  7299.47  84.8479
 48.1636  7496.5  85.5549
 48.2056  7271.03  84.5201
 48.2476  7425.88  85.7371
 48.2896  7291.34  84.8534
 48.3316  7305.02  84.873
 48.3736  7277.07  84.7392
 48.4156  7270.72  84.54
 48.4576  7277.66  84.891
 48.4996  7390.16  84.9905
 48.5416  7373  85.2313
 48.5836  7338.58  84.6942
 48.6256  7409.32  85.3184
 48.6676  7411.19  85.8422
 48.7096  7299.29  84.4504
 48.7516  7350.88  84.9045
 48.7936  7194.14  84.0514
 48.8356  7330.91  84.9054
 48.8776  7286.56  85.231
 48.9196  7477.19  85.7007
 48.9616  7200.02  84.4702
 49.0036  7363.42  85.7855
 49.0456  7285.8  85.2956
 49.0876  7279.16  84.7769
 49.1296  7193.22  84.4574
 49.1716  7150.12  84.0741
 49.2136  7313.92  84.9417
 49.2556  7335.27  85.1169
 49.2976  7359.34  85.331
 49.3396  7306.88  85.0731
 49.3816  7330.86  84.64
 49.4236  7251.92  84.6013
 49.4656  7194.4  84.2826
 49.5076  7263.14  84.4372
 49.5496  7267.28  84.5265
 49.5916  7293.76  84.5967
 49.6336  7265.74  84.6396
 49.6756  7324.06  85.2196
 49.7176  7228.43  84.5933
 49.7596  7271.6  84.6051
 49.8016  7301.14  84.6939
 49.8436  7215.85  84.5062
 49.8856  7207.83  84.4697
 49.9276  7187.87  84.4515
 49.9696  7211.79  84.5733
 50.0116  7205.06  84.6595
 50.0536  7314.06  85.2517
 50.0956  7131.74  84.2506
 50.1376  7200.21  84.3468
 50.1796  7190.38  84.5662
 50.2216  7222.92  84.7522
 50.2636  7100.43  83.6476
 50.3056  7135.13  84.0292
 50.3476  7270.08  84.8416
 50.3896  7146.05  84.0815
 50.4316  7196.76  84.2148
 50.4736  7122.3  83.9959
 50.5156  7177.14  84.3045
 50.5576  7167.75  84.0176
 50.5996  7113.41  83.979
 50.6416  7118.7  83.9379
 50.6836  7193.27  84.4418
 50.7256  7193.1  84.3593
 50.7676  7266.49  85.1308
 50.8096  7162.48  84.0312
 50.8516  7069.07  83.9002
 50.8936  6992.6  83.2191
 50.9356  7178.07  84.4293
 50.9776  7114.11  84.2079
 51.0196  6831.77  82.6322
 51.0616  6975.44  82.8289
 51.1036  7105.54  83.9544
 51.1456  7148.02  84.1195
 51.1876  6964.43  82.3619
 51.2296  6990.5  83.1618
 51.2716  6977.28  82.7772
 51.3136  7009.53  83.4411
 51.3556  6976.11  82.8479
 51.3976  6984.67  83.063
 51.4396  6847.06  82.5519
 51.4816  6956.66  83.0588
 51.5236  7015.07  83.4986
 51.5656  6859.95  82.1633
 51.6076  7003.21  83.1056
 51.6496  6946.66  82.9523
 51.6916  6977.51  83.5114
 51.7336  6951.53  83.4374
 51.7756  6874.75  82.666
 51.8176  6930.01  83.1171
 51.8596  6850.11  82.6494
 51.9016  7148.85  84.0266
 51.9436  7028.14  84.8495
 51.9856  7059.81  85.467
 52.0276  7041.32  83.8112
 52.0696  7086.13  84.1555
 52.1116  6900.07  83.1461
 52.1536  7001.33  83.5895
 52.1956  6961.55  82.8545
 52.2376  7184  84.3562
 52.2796  6950.54  82.7906
 52.3216  6987.97  83.7087
 52.3636  6944.72  83.0083
 52.4056  6918.23  82.7191
 52.4476  6968.5  83.3869
 52.4896  6864.82  82.7963
 52.5316  7011.24  83.758
 52.5736  6871.2  82.6112
 52.6156  7022.98  83.9426
 52.6576  6920.29  82.7289
 52.6996  6812.64  83.0923
 52.7416  6770.07  82.673
 52.7836  6892.44  83.3183
 52.8256  6957.83  82.9075
 52.8676  6728.94  82.1139
 52.9096  6904.64  83.2457
 52.9516  6819.33  83.1225
 52.9936  6840.38  83.6488
 53.0356  7040.35  83.8357
 53.0776  6924.33  83.4225
 53.1196  6905.42  83.4313
 53.1616  6875.31  83.2969
 53.2036  6871.62  83.2357
 53.2456  6863.34  83.2952
 53.2876  6906.83  83.2515
 53.3296  6943.7  83.7973
 53.3716  6986.03  83.7991
 53.4136  6892.87  83.3947
 53.4556  6817.69  82.9665
 53.4976  6838.92  82.9235
 53.5396  6876.9  83.5628
 53.5816  6892.3  83.2883
 53.6236  6895.53  83.6683
 53.6656  6872.5  83.1217
 53.7076  6860.21  83.0003
 53.7496  6928.22  83.5644
 53.7916  6778.03  82.7833
 53.8336  6883.08  83.3058
 53.8756  6875.25  83.8233
 53.9176  6801.33  82.6903
 53.9596  6631.63  82.3965
 54.0016  6580.19  81.4194
 54.0436  6494.91  81.1084
 54.0856  6684.39  81.7078
 54.1276  6661.55  81.7651
 54.1696  6554.72  81.2635
 54.2116  6698.48  81.9124
 54.2536  6575.39  80.9589
 54.2956  6722.27  81.915
 54.3376  6528.55  81.2127
 54.3796  6525.06  81.0879
 54.4216  6571  81.4352
 54.4636  6549.91  81.2683
 54.5056  6669.84  81.8035
 54.5476  6583.04  81.5973
 54.5896  6493.04  80.8921
 54.6316  6589.71  81.3507
 54.6736  6532.41  81.0739
 54.7156  6547.75  81.1951
 54.7576  6440.59  80.4956
 54.7996  6625.18  81.8293
 54.8416  6492.6  81.04
 54.8836  6612.27  81.8832
 54.9256  6508.28  80.9809
 54.9676  6435.69  80.387
 55.0096  6503.5  80.8424
 55.0516  6402.68  80.4458
 55.0936  6506.35  80.7738
 55.1356  6459.29  80.5218
 55.1776  6591.04  81.5844
 55.2196  6525.41  80.9477
 55.2616  6572.71  81.4885
 55.3036  6408.73  80.6055
 55.3456  6337.4  80.3125
 55.3876  6430.72  80.6302
 55.4296  6356.31  80.1601
 55.4716  6435.74  80.6936
 55.5136  6480.8  80.7351
 55.5556  6518.25  81.0066
 55.5976  6414.4  80.4417
 55.6396  6410.23  80.2841
 55.6816  6388.08  80.0738
 55.7236  6347.05  79.8779
 55.7656  6499.16  80.5677
 55.8076  6392.8  79.9053
 55.8496  6523.14  81.1643
 55.8916  6344.1  80.1307
 55.9336  6505.68  80.9748
 55.9756  6343.28  79.8357
 56.0176  6329.26  79.8812
 56.0596  6353.61  80.0357
 56.1016  6231.61  79.2749
 56.1436  6250.47  79.6547
 56.1856  6228.25  79.2577
 56.2276  6465.97  80.8062
 56.2696  6297.44  79.7259
 56.3116  6421.45  80.8785
 56.3536  6292.66  79.7542
 56.3956  6307.32  79.8308
 56.4376  6358.52  80.2002
 56.4796  6198.17  78.9804
 56.5216  6297.75  79.9926
 56.5636  6226.62  79.1084
 56.6056  6376.16  80.2968
 56.6476  6261.8  79.1785
 56.6896  6435.81  80.7462
 56.7316  6361.28  80.1895
 56.7736  6342.97  80.0776
 56.8156  6356.35  80.1701
 56.8576  6138.38  78.7214
 56.8996  6276.12  79.5305
 56.9416  6298.98  79.9569
 56.9836  6317.01  79.6169
 57.0256  6184.19  79.0769
 57.0676  6319.25  80.0645
 57.1096  6253.9  79.4427
 57.1516  6197.8  79.0972
 57.1936  6223  79.032
 57.2356  6142.46  78.8508
 57.2776  6252.14  79.5301
 57.3196  6299.58  80.1556
 57.3616  6241.03  79.2764
 57.4036  6286  79.6348
 57.4456  6319.25  79.8316
 57.4876  6249.14  79.2537
 57.5296  6184.86  79.1566
 57.5716  6139.72  78.8593
 57.6136  6096.31  78.4364
 57.6556  6213.69  79.2997
 57.6976  6232.9  79.2685
 57.7396  6140.99  79.0303
 57.7816  6088.04  79.0569
 57.8236  6096.1  78.8847
 57.8656  6158.72  78.9666
 57.9076  6220.59  79.3915
 57.9496  6137.23  79.2123
 57.9916  6146.98  78.7847
 58.0336  6132.95  78.9804
 58.0756  6114.29  78.4725
 58.1176  6166.01  78.8195
 58.1596  6056.19  78.697
 58.2016  6024.2  77.6919
 58.2436  6067.95  78.3803
 58.2856  5856.16  76.9233
 58.3276  5929.77  77.7793
 58.3696  5852.8  77.0363
 58.4116  5885.36  77.111
 58.4536  5945.38  77.3952
 58.4956  5810.34  76.6798
 58.5376  6010.76  77.5671
 58.5796  5818.1  76.7168
 58.6216  5924.35  77.244
 58.6636  5983.62  77.8287
 58.7056  5807  76.5454
 58.7476  5842.89  77.2185
 58.7896  5843.99  76.8739
 58.8316  5930.81  77.4467
 58.8736  5977.42  77.7557
 58.9156  5880.71  77.1713
 58.9576  5819.93  77.0764
 58.9996  5849.41  76.5454
 59.0416  5980.99  77.7495
 59.0836  5939.7  77.3983
 59.1256  5825.8  77.3463
 59.1676  5946.11  78.4532
 59.2096  5883.24  77.3316
 59.2516  6013.13  77.7628
 59.2936  5897.88  77.338
 59.3356  5901.53  77.2412
 59.3776  5740.43  76.3443
 59.4196  5797.78  76.6612
 59.4616  5829.75  76.7355
 59.5036  5715.82  76.0166
 59.5456  6001.8  77.5893
 59.5876  5845.69  76.7615
 59.6296  5774.05  76.3573
 59.6716  5857.29  76.9628
 59.7136  6015.05  77.9807
 59.7556  5853.4  77.06
 59.7976  5827.76  76.6379
 59.8396  5982.62  77.5443
 59.8816  5863.98  77.309
 59.9236  5791.62  76.4814
 59.9656  5698.69  76.1176
 60.0076  5809.74  76.2265
 60.0496  5829.67  76.852
 60.0916  5953.42  77.0859
 60.1336  5794.05  77.1312
 60.1756  5846.39  78.6435
 60.1996  0.0000000E+00  0.0000000E+00