File: docs/examples/opeando_xrd/IS17_D/Data/IS17_D/17_Db_f00049.xye
# /beamlines/bl04/projects/cycle2025-II/20250340211-lsimonelli/DATA/IS17_D/17_Db_f00049.xye : mythproc.py merge -s 0.006 -l 0.5 -f /beamlines/bl04/inhouse/ff/FlatField/ff_20Nov2024rod8mm60s_17keV.raw -b True -c true -o xye /beamlines/bl04/projects/cycle2025-II/20250340211-lsimonelli/DATA/IS17_D/17_Db_00049.dat
# IsMon = [6784713, 6779201, 6788719]  IsPos = [-1.4999, -2.4884, -3.4988]
# Wave = 0.4962  CalPath /beamlines/bl04/projects/cycle2025-II/20250340211-lsimonelli/DATA/Align/Si_Pos1_25keV_f00001.cal
# Date = 2025-09-24_07:21:05 Dt = 4.8000  Bin = 0.0060  <imon> = 6784211 +/- 3902 (Min/Max) 6779201 / 6788719
# icurr 252.3551  mocoIn 1.7221E-05  mocoOut 0.8078  i15 7.10481e+06  imon 6.78421e+06  i7 4.6667  iEMpd_timer 4.8000  iEMpd_1 3.5626E-08  iEMpd_2 7.8107E-08  iEMpd_3 1.6800E-08  iEMpd_4 4.9215E-08  iEMhp_timer 4.8000  iEMhp_1 4.9304E-06  iEMhp_2 -2.5303E-08  iEMhp_3 -2.2448E-08  iEMhp_4 -2.0529E-08
#      9776
 1.5856  45491.6  219.004
 1.6276  51989.9  230.107
 1.6696  58012.8  242.213
 1.7116  65005.5  256.897
 1.7536  73219.2  271.483
 1.7956  77455.4  279.924
 1.8376  74225.3  274.459
 1.8796  63844.4  252.685
 1.9216  53023.8  231.184
 1.9636  45647.2  213.623
 2.0056  41937  203.963
 2.0476  39340.1  199.713
 2.0896  38178.1  195.587
 2.1316  36987.2  191.587
 2.1736  34677.7  186.981
 2.2156  35323.7  187.2
 2.2576  34391.5  185.375
 2.2996  33289  183.049
 2.3416  33332.8  181.709
 2.3836  32881.8  180.586
 2.4256  31795.2  178.155
 2.4676  31374.3  176.721
 2.5096  31450.1  176.993
 2.5516  29836.5  176.384
 2.5936  29855.9  172.904
 2.6356  29340.5  172.123
 2.6776  29297  170.869
 2.7196  28834.8  170.012
 2.7616  28769.1  169.602
 2.8036  28388.2  168.646
 2.8456  28293.6  169.028
 2.8876  27492.1  166.488
 2.9296  27147.2  165.561
 2.9716  27446  165.939
 3.0136  26764.1  163.935
 3.0556  26815.5  164.489
 3.0976  26723.4  163.074
 3.1396  26443.8  162.969
 3.1816  26065.9  161.753
 3.2236  25961.8  161.424
 3.2656  25642.6  159.455
 3.3076  25647.2  160.968
 3.3496  25697.8  160.024
 3.3916  26015.7  160.828
 3.4336  26645.7  163.372
 3.4756  26827.7  163.851
 3.5176  27329.8  165.156
 3.5596  27204.7  167.259
 3.6016  27053.4  164.358
 3.6436  26219.5  162.954
 3.6856  26097.8  160.821
 3.7276  25074.9  158.753
 3.7696  24754.5  157.908
 3.8116  24390.8  156.647
 3.8536  24516.7  156.962
 3.8956  24520  156.798
 3.9376  24347.9  156.526
 3.9796  24204.9  155.546
 4.0216  24261.3  154.76
 4.0636  24128  155.827
 4.1056  24208.7  155.73
 4.1476  24418.9  156.696
 4.1896  24535.8  156.938
 4.2316  24803.5  157.603
 4.2736  25120.3  158.412
 4.3156  25247.3  159.04
 4.3576  26120.1  161.677
 4.3996  26088.3  161.873
 4.4416  26545  162.85
 4.4836  27271.5  165.242
 4.5256  27685.3  167.089
 4.5676  27580.8  167.032
 4.6096  28147.4  167.369
 4.6516  28643.3  168.528
 4.6936  28427.1  168.725
 4.7356  28705.4  169.383
 4.7776  28548.3  168.741
 4.8196  28456.1  169.131
 4.8616  27837.3  166.781
 4.9036  27763.8  166.269
 4.9456  27534.6  166.242
 4.9876  26750  163.762
 5.0296  27099.4  164.665
 5.0716  27042.1  165.245
 5.1136  27019.9  164.908
 5.1556  27220.3  164.968
 5.1976  27858.9  166.881
 5.2396  27768.9  166.3
 5.2816  28010.3  167.501
 5.3236  27944.3  166.995
 5.3656  27564.8  166.806
 5.4076  27155.2  165.707
 5.4496  27147.3  165.17
 5.4916  27385.8  165.643
 5.5336  27136.1  164.899
 5.5756  27205  165.119
 5.6176  27371.3  165.057
 5.6596  27474.3  166.353
 5.7016  27747.5  166.437
 5.7436  27800.2  166.88
 5.7856  27732.8  166.746
 5.8276  27736.8  166.469
 5.8696  28106.8  167.748
 5.9116  27651.7  166.987
 5.9536  28435.5  169.076
 5.9956  28552.1  168.806
 6.0376  28637.8  169.681
 6.0796  28695.6  169.687
 6.1216  28705.1  169.917
 6.1636  28949.5  169.688
 6.2056  28843.3  170.054
 6.2476  29240.3  171.094
 6.2896  29626.7  171.893
 6.3316  29405.6  171.414
 6.3736  29406.1  171.322
 6.4156  29686.9  172.007
 6.4576  29945.7  172.387
 6.4996  29743.7  172.288
 6.5416  29927.5  172.946
 6.5836  29710  172.56
 6.6256  30151.5  173.388
 6.6676  30652.9  174.377
 6.7096  30687.1  175.352
 6.7516  31080.4  176.122
 6.7936  31221.5  175.903
 6.8356  31181.8  175.904
 6.8776  31259  176.937
 6.9196  31432.5  177.825
 6.9616  31910.2  178.63
 7.0036  32406.9  179.647
 7.0456  32351  178.779
 7.0876  32378.4  180.563
 7.1296  32066.2  178.817
 7.1716  32230.5  178.792
 7.2136  31913.4  177.707
 7.2556  32429  179.295
 7.2976  32354.1  179.581
 7.3396  32285.4  179.638
 7.3816  32300.2  179.883
 7.4236  32321.2  179.226
 7.4656  32803.2  180.024
 7.5076  33061.8  180.869
 7.5496  32821.3  180.747
 7.5916  32803.5  180.758
 7.6336  33146.7  181.587
 7.6756  33449.6  182.257
 7.7176  33808.5  183.574
 7.7596  33544.5  184.081
 7.8016  34306.1  188.417
 7.8436  33901.7  183.944
 7.8856  33919.3  183.602
 7.9276  34467  185.453
 7.9696  35009.6  187.243
 8.0116  35895.6  188.132
 8.0536  35944.9  188.508
 8.0956  35897.6  189.598
 8.1376  36042  189.425
 8.1796  36768.4  191.886
 8.2216  37161.7  191.62
 8.2636  37523.5  192.808
 8.3056  36951.2  192.077
 8.3476  38053.5  194.261
 8.3896  37602.2  193.193
 8.4316  37716.3  193.652
 8.4736  38087.4  194.069
 8.5156  37490.9  192.819
 8.5576  37276.9  193.262
 8.5996  37105.8  191.672
 8.6416  37422.8  193.778
 8.6836  36879.2  192.153
 8.7256  37570.5  193.435
 8.7676  37193.7  195.354
 8.8096  37598.3  193.665
 8.8516  37386.6  192.685
 8.8936  36795.6  191.111
 8.9356  37342.3  192.867
 8.9776  37274  192.76
 9.0196  37554.2  193.16
 9.0616  37450.6  192.383
 9.1036  36476.5  191.038
 9.1456  36320.5  189.95
 9.1876  37014.3  191.703
 9.2296  36265  189.183
 9.2716  36048.9  188.66
 9.3136  36277  189.259
 9.3556  36469.5  189.74
 9.3976  35334.5  187.286
 9.4396  35654.1  188.02
 9.4816  35087.4  186.396
 9.5236  34895.3  185.766
 9.5656  34631.5  185.427
 9.6076  33900.2  183.979
 9.6496  34379.7  185.165
 9.6916  34147.8  184.494
 9.7336  34205.6  184.417
 9.7756  33939.5  185.001
 9.8176  33753.8  184.052
 9.8596  33906.8  182.879
 9.9016  33030.3  180.506
 9.9436  32979  180.282
 9.9856  32519.3  179.285
 10.0276  31993.3  178.898
 10.0696  32422.9  179.129
 10.1116  31662.2  177.291
 10.1536  31670.1  177.458
 10.1956  31000.2  175.195
 10.2376  31051.6  174.822
 10.2796  30720.1  174.01
 10.3216  30513.4  173.719
 10.3636  30177.4  172.788
 10.4056  29455.7  171.114
 10.4476  29840.5  171.826
 10.4896  29844.8  171.291
 10.5316  29110.9  169.889
 10.5736  28964.9  169.879
 10.6156  28938  169.541
 10.6576  28899.2  167.994
 10.6996  28375.6  167.175
 10.7416  28278.4  167.106
 10.7836  27842.3  166.464
 10.8256  27542.5  165.984
 10.8676  27458.4  165.283
 10.9096  27360.3  164.996
 10.9516  27093.4  163.153
 10.9936  27207.7  163.686
 11.0356  27063.6  163.882
 11.0776  26846.3  162.551
 11.1196  26341.8  161.779
 11.1616  26011.7  160.447
 11.2036  26175.6  160.778
 11.2456  26060.7  161.157
 11.2876  26100.1  160.987
 11.3296  25639.7  159.475
 11.3716  26140.2  160.701
 11.4136  25904  160.868
 11.4556  25875.2  160.428
 11.4976  26275.7  160.668
 11.5396  26462.5  161.424
 11.5816  27228  164.17
 11.6236  27504.7  165.261
 11.6656  27392.9  164.03
 11.7076  26433.2  161.979
 11.7496  25920.5  164.451
 11.7916  25570.2  158.574
 11.8336  25274  158.532
 11.8756  24985.3  157.185
 11.9176  25115.9  157.279
 11.9596  25021.4  157.134
 12.0016  24650.6  156.745
 12.0436  25039.6  157.413
 12.0856  24443  156.044
 12.1276  24536.5  156.287
 12.1696  24508.5  155.309
 12.2116  24545.9  155.431
 12.2536  24342.5  155.605
 12.2956  24149.3  154.322
 12.3376  24513.6  155.696
 12.3796  24359.4  155.688
 12.4216  24569.5  155.538
 12.4636  23915.3  154.392
 12.5056  24118.3  154.314
 12.5476  24404.5  154.731
 12.5896  24087.1  154.37
 12.6316  24351  155.364
 12.6736  23922  154.484
 12.7156  24162.8  155.095
 12.7576  24085  155.099
 12.7996  24037.5  153.591
 12.8416  24024.8  154.605
 12.8836  24268.6  155.22
 12.9256  24747  155.755
 12.9676  24470.4  155.29
 13.0096  24799.5  157.461
 13.0516  24685  156.123
 13.0936  25026.9  157.606
 13.1356  25124.8  156.858
 13.1776  24896.6  157.186
 13.2196  25072.4  157.377
 13.2616  24745.7  156.669
 13.3036  25003.5  157.432
 13.3456  24647.8  156.664
 13.3876  25257.1  157.866
 13.4296  24711.5  156.312
 13.4716  24999.1  156.841
 13.5136  24865.2  156.548
 13.5556  24776.6  156.925
 13.5976  24930  157.564
 13.6396  24784.8  156.461
 13.6816  24903.7  157.311
 13.7236  25425.5  158.53
 13.7656  26898.8  163.512
 13.8076  27609.9  164.311
 13.8496  27286.2  163.979
 13.8916  25285.3  159.045
 13.9336  24483.7  155.765
 13.9756  24448.1  155.021
 14.0176  24273.3  155.151
 14.0596  24448  155.635
 14.1016  24191  155.244
 14.1436  24244  154.526
 14.1856  23573.9  152.674
 14.2276  23723.1  153.649
 14.2696  23597.8  153.091
 14.3116  23057.7  151.244
 14.3536  22909.7  150.921
 14.3956  22777.2  150.221
 14.4376  22997.4  150.711
 14.4796  22942.7  150.533
 14.5216  22598.8  150.193
 14.5636  22483.7  149.377
 14.6056  22585.3  149.255
 14.6476  22481.4  148.161
 14.6896  22097.7  147.444
 14.7316  21741.9  147.291
 14.7736  21541.4  145.763
 14.8156  21537.5  145.759
 14.8576  21433.8  145.261
 14.8996  20880.6  144.577
 14.9416  20599.4  143.619
 14.9836  20625  143.673
 15.0256  20041.8  140.557
 15.0676  19978  140.646
 15.1096  19974.9  140.368
 15.1516  19605.5  139.635
 15.1936  19626.4  139.126
 15.2356  19019.7  137.234
 15.2776  19263.6  137.702
 15.3196  18933.3  137.51
 15.3616  18711.6  136.443
 15.4036  18728  136.383
 15.4456  19265  137.969
 15.4876  18610.2  135.287
 15.5296  18591.1  135.517
 15.5716  18320  134.117
 15.6136  18213.9  134.07
 15.6556  18254.7  133.443
 15.6976  18126.1  133.281
 15.7396  18041.2  133.325
 15.7816  17823.6  132.052
 15.8236  17638.9  132.04
 15.8656  17573  131.604
 15.9076  17521.6  131.229
 15.9496  18271.1  136.85
 15.9916  17833.6  135.613
 16.0336  17911.8  132.74
 16.0756  17605  131.92
 16.1176  17651.4  132.166
 16.1596  17070.7  131.151
 16.2016  17139.6  130.164
 16.2436  17183.8  130.723
 16.2856  17176.8  130.2
 16.3276  16832.2  129.331
 16.3696  17103.8  130.192
 16.4116  16863.6  129.706
 16.4536  17072.1  130.333
 16.4956  17043.5  129.957
 16.5376  16673.6  128.727
 16.5796  16716  128.25
 16.6216  16698.6  128.439
 16.6636  16435.1  127.62
 16.7056  16737  128.653
 16.7476  16684.7  127.972
 16.7896  16402.7  127.626
 16.8316  16574.2  128.272
 16.8736  16569.6  128.522
 16.9156  16684.8  129.295
 16.9576  16377.2  128.919
 16.9996  16390.3  129.437
 17.0416  16675  128.955
 17.0836  16550  128.221
 17.1256  16551.2  128.233
 17.1676  16511.9  128.026
 17.2096  16310  127.144
 17.2516  16284.7  126.839
 17.2936  16212.4  126.908
 17.3356  16249.7  127.03
 17.3776  15894.2  125.83
 17.4196  15853.8  125.373
 17.4616  15729.8  124.783
 17.5036  15532.1  124.378
 17.5456  15216.5  123.721
 17.5876  15410.5  123.556
 17.6296  15540.4  123.908
 17.6716  15364.8  123.789
 17.7136  15128  122.946
 17.7556  15118.3  123.214
 17.7976  14989.1  122.408
 17.8396  14884.6  121.495
 17.8816  14768.5  121.594
 17.9236  14865.2  121.769
 17.9656  14764.7  121.874
 18.0076  14661.5  121.018
 18.0496  14663.4  120.168
 18.0916  14567.7  120.321
 18.1336  14537.7  120.296
 18.1756  14696.9  120.509
 18.2176  14395.7  119.471
 18.2596  14242.3  118.576
 18.3016  14458.5  119.725
 18.3436  14451.9  119.718
 18.3856  14502.1  120.038
 18.4276  14370  119.181
 18.4696  14325  119.071
 18.5116  14456.9  119.899
 18.5536  14399.8  120.015
 18.5956  14172.8  118.638
 18.6376  14009.7  118.367
 18.6796  14129.2  118.178
 18.7216  14090.9  118.517
 18.7636  14248.6  119.165
 18.8056  13933.7  117.764
 18.8476  13882.4  118.164
 18.8896  14001.8  118.025
 18.9316  14016.9  118.056
 18.9736  14031.9  117.835
 19.0156  13883.4  117.63
 19.0576  14158.5  117.626
 19.0996  14035.2  117.818
 19.1416  13906.1  117.674
 19.1836  13818  116.911
 19.2256  13856.1  117.292
 19.2676  13993.2  117.947
 19.3096  13835.6  117.537
 19.3516  13896.9  117.754
 19.3936  13844.9  117.431
 19.4356  14058.2  118.212
 19.4776  13834.5  117.355
 19.5196  13827.8  117.183
 19.5616  13807.4  117.35
 19.6036  13775.5  116.706
 19.6456  13773.6  116.825
 19.6876  13902.8  117.006
 19.7296  13957.7  117.697
 19.7716  13789  117.171
 19.8136  14179.8  118.996
 19.8556  14120.9  118.243
 19.8976  14098.6  118.207
 19.9396  14090.1  117.76
 19.9816  14214.6  118.528
 20.0236  14539.8  120.063
 20.0656  14610.8  120.365
 20.1076  14858.3  121.866
 20.1496  14938.1  122.192
 20.1916  15321  123.235
 20.2336  14888.6  121.406
 20.2756  14473.9  120.156
 20.3176  14291.1  119.139
 20.3596  14026.7  118.014
 20.4016  14033.4  117.834
 20.4436  13850.5  117.632
 20.4856  13831.5  117.343
 20.5276  13627.3  116.939
 20.5696  13727.7  116.803
 20.6116  13564.1  116.391
 20.6536  13355.3  115.01
 20.6956  13536.7  115.915
 20.7376  13280.5  115.033
 20.7796  13405.7  115.251
 20.8216  13522.6  115.464
 20.8636  13457.5  115.567
 20.9056  13333.6  114.97
 20.9476  13275.5  114.568
 20.9896  13413.5  115.03
 21.0316  13290.8  114.399
 21.0736  13214.1  114.59
 21.1156  13216.9  114.764
 21.1576  13147  114.497
 21.1996  13135  114.43
 21.2416  13263.4  114.81
 21.2836  13220.8  114.6
 21.3256  13087.6  114.098
 21.3676  13126.3  113.805
 21.4096  13013.2  113.627
 21.4516  13083.4  113.816
 21.4936  12730  112.536
 21.5356  12950.6  113.444
 21.5776  13110.8  113.977
 21.6196  12931.4  113.234
 21.6616  12769.9  112.609
 21.7036  12937.2  113.1
 21.7456  13030.7  113.601
 21.7876  12785  112.283
 21.8296  12866  112.483
 21.8716  12872.1  112.742
 21.9136  12913.7  113.125
 21.9556  12746.8  112.064
 21.9976  12784  112.261
 22.0396  12754.7  112.383
 22.0816  12654.5  112.465
 22.1236  12799.3  112.561
 22.1656  12826.5  112.823
 22.2076  12619.6  111.377
 22.2496  12544.8  111.09
 22.2916  12522  110.864
 22.3336  12490.4  111.453
 22.3756  12308.7  110.351
 22.4176  12514.9  111.116
 22.4596  12294.8  110.715
 22.5016  12395.5  110.684
 22.5436  12558.2  111.273
 22.5856  12687.3  112.104
 22.6276  12800.4  112.743
 22.6696  12592.7  112.175
 22.7116  12466.4  111.136
 22.7536  12537.7  111.415
 22.7956  12346.3  109.914
 22.8376  12310  110.243
 22.8796  12294  109.987
 22.9216  12526  111.551
 22.9636  12396.8  110.147
 23.0056  12499.8  110.738
 23.0476  12430.4  110.997
 23.0896  12685  111.504
 23.1316  12468.3  110.982
 23.1736  12606.5  114.555
 23.2156  12702.2  112.319
 23.2576  12998.4  113.763
 23.2996  12773.3  112.534
 23.3416  13101.9  114.525
 23.3836  12813.9  112.479
 23.4256  13068  113.714
 23.4676  12825.3  112.341
 23.5096  12863  113.172
 23.5516  13041.6  113.237
 23.5936  12794.5  113.082
 23.6356  13106.1  114.104
 23.6776  12704  112.551
 23.7196  12647.4  111.879
 23.7616  12600.5  111.585
 23.8036  12905.8  112.987
 23.8456  12597.2  111.164
 23.8876  12689.4  111.952
 23.9296  12612.8  112.104
 23.9716  12506.5  110.827
 24.0136  12650.9  112.378
 24.0556  12377  110.867
 24.0976  12409.6  110.832
 24.1396  12203.4  112.531
 24.1816  12372.6  111.727
 24.2236  12553.3  112.179
 24.2656  12380.1  110.875
 24.3076  12260.2  110.608
 24.3496  12163.9  110.06
 24.3916  12221.6  110.363
 24.4336  12248.5  110.682
 24.4756  12215  110.421
 24.5176  12000.2  109.074
 24.5596  11937.3  108.907
 24.6016  11808.8  108.618
 24.6436  12109.2  109.484
 24.6856  11965.3  108.577
 24.7276  11888.4  108.566
 24.7696  11706  107.83
 24.8116  11733.8  108.145
 24.8536  11685.7  107.922
 24.8956  11718.5  107.8
 24.9376  11679  107.546
 24.9796  11621.2  107.647
 25.0216  11501  107.198
 25.0636  11516.5  106.931
 25.1056  11358.6  106.887
 25.1476  11341.6  108.435
 25.1896  11355.3  107.014
 25.2316  11307.9  106.043
 25.2736  11288.7  105.622
 25.3156  11282.8  105.654
 25.3576  11201  105.709
 25.3996  11260.3  105.97
 25.4416  11231.5  105.817
 25.4836  11137.5  105.896
 25.5256  11184.5  105.472
 25.5676  11162.8  105.105
 25.6096  11035.8  105.077
 25.6516  11117.1  104.979
 25.6936  11226.8  105.798
 25.7356  11049.6  105.096
 25.7776  11125.8  105.042
 25.8196  10841.7  103.944
 25.8616  11092.4  105.063
 25.9036  10999.3  104.084
 25.9456  11050.9  104.937
 25.9876  10961.5  104.566
 26.0296  11181.6  105.13
 26.0716  10962.4  104.511
 26.1136  11006.1  104.647
 26.1556  11003.9  104.017
 26.1976  10936.7  104.641
 26.2396  10974.2  103.962
 26.2816  10932.3  104.385
 26.3236  10977.8  104.759
 26.3656  11001.8  104.592
 26.4076  10961.5  104.604
 26.4496  11163  105.145
 26.4916  11051.2  104.501
 26.5336  11638.6  107.607
 26.5756  11554.3  107.095
 26.6176  11180.1  105.364
 26.6596  11023.3  104.932
 26.7016  10878.2  104.011
 26.7436  10841.9  103.961
 26.7856  10581.1  102.698
 26.8276  10748.6  103.469
 26.8696  10795.9  103.564
 26.9116  10689  102.991
 26.9536  10632.8  102.764
 26.9956  10534.6  102.326
 27.0376  10687.4  103.286
 27.0796  10677.1  102.971
 27.1216  10558.9  102.448
 27.1636  10407.7  101.882
 27.2056  10446.7  101.961
 27.2476  10590  102.653
 27.2896  10374.5  101.71
 27.3316  10412  101.613
 27.3736  10404.3  101.848
 27.4156  10496.3  102.129
 27.4576  10376.8  101.782
 27.4996  10442.8  101.696
 27.5416  10274.3  101.188
 27.5836  10183.2  100.573
 27.6256  10367.6  101.661
 27.6676  10242.8  101.036
 27.7096  10253.1  100.972
 27.7516  10163.7  100.676
 27.7936  10619.5  103.05
 27.8356  10581.8  102.485
 27.8776  10531.2  102.296
 27.9196  10223.2  100.653
 27.9616  10279.3  101.125
 28.0036  10139  100.39
 28.0456  10089.5  100.29
 28.0876  10166.3  100.753
 28.1296  10036.8  99.9468
 28.1716  10062.7  100.091
 28.2136  10139.8  100.443
 28.2556  10137.9  100.542
 28.2976  10117.4  100.438
 28.3396  10022.6  99.7195
 28.3816  10144.3  100.337
 28.4236  9899.94  99.2786
 28.4656  9966.33  99.6464
 28.5076  9989.66  99.4052
 28.5496  9896.12  99.195
 28.5916  9932.88  99.1883
 28.6336  9995.32  99.843
 28.6756  10003.2  99.0722
 28.7176  9962.13  99.4329
 28.7596  9924.61  99.1337
 28.8016  9899.75  99.0615
 28.8436  9899.57  99.2901
 28.8856  9994.33  99.6152
 28.9276  9796.57  98.8681
 28.9696  9858.32  98.831
 29.0116  9749.63  98.4653
 29.0536  9740.32  98.634
 29.0956  9878.44  99.0244
 29.1376  9779.41  98.5076
 29.1796  9835.24  98.8446
 29.2216  9720.16  98.0984
 29.2636  9730.41  98.2331
 29.3056  9811.93  98.406
 29.3476  9706.8  98.4154
 29.3896  9731.31  98.647
 29.4316  9646.32  97.5562
 29.4736  9518.74  96.9581
 29.5156  9640.05  97.5121
 29.5576  9622.18  98.166
 29.5996  9605.06  97.3303
 29.6416  9545.74  97.1601
 29.6836  9627.13  97.4893
 29.7256  9543.26  97.6264
 29.7676  9501.07  97.0622
 29.8096  9505.47  97.0385
 29.8516  9310.24  96.3553
 29.8936  9483.89  97.351
 29.9356  9478.09  97.0784
 29.9776  9353.26  96.5903
 30.0196  9519.37  96.839
 30.0616  9362.84  96.4033
 30.1036  9399.22  96.426
 30.1456  9347.95  96.3736
 30.1876  9332.75  96.2972
 30.2296  9392.22  96.5284
 30.2716  9504.53  96.7512
 30.3136  9372.94  96.934
 30.3556  9534.89  97.7637
 30.3976  9364.66  98.3954
 30.4396  9845.01  98.162
 30.4816  9648.83  96.7914
 30.5236  9713.16  97.0988
 30.5656  9571.53  97.0644
 30.6076  9559.28  96.4047
 30.6496  9592.03  96.9815
 30.6916  9490.47  96.5526
 30.7336  9497.72  96.7549
 30.7756  9526.17  96.9722
 30.8176  9600.35  97.2665
 30.8596  9654.38  97.3011
 30.9016  9540.33  97.0711
 30.9436  9706.09  97.6607
 30.9856  9634.38  97.4235
 31.0276  9486.49  96.2965
 31.0696  9394.59  96.3901
 31.1116  9482.39  96.8102
 31.1536  9488.09  96.7113
 31.1956  9415.16  96.4275
 31.2376  9279.65  95.7499
 31.2796  9296.22  95.3816
 31.3216  9391.41  95.7836
 31.3636  9533.33  97.2518
 31.4056  9377.03  97.7622
 31.4476  9472.24  96.1518
 31.4896  9508.78  96.8389
 31.5316  9322.45  95.3065
 31.5736  9532.11  96.1941
 31.6156  9374.85  95.3981
 31.6576  9667.19  96.953
 31.6996  9497.58  95.7779
 31.7416  9554.33  97.1608
 31.7836  9407.72  95.3949
 31.8256  9400.75  95.6283
 31.8676  9452.97  95.8936
 31.9096  9254.72  95.2512
 31.9516  9256.76  95.4361
 31.9936  9213.72  95.0381
 32.0356  9382.34  95.9507
 32.0776  9413.29  95.9941
 32.1196  9363.12  95.8521
 32.1616  9396.58  95.4681
 32.2036  9261.72  95.2845
 32.2456  9298.55  95.8557
 32.2876  9297.22  95.3548
 32.3296  9264.62  95.1452
 32.3716  9043.07  94.1086
 32.4136  9129.82  94.7439
 32.4556  9186.61  94.4425
 32.4976  8971.49  93.2199
 32.5396  9087.03  93.8889
 32.5816  9201.57  94.6055
 32.6236  9049.21  93.8828
 32.6656  9187.77  95.1527
 32.7076  9051.05  94.0934
 32.7496  9046.51  93.7533
 32.7916  9085  93.8987
 32.8336  9050.28  93.8223
 32.8756  9099.07  93.7751
 32.9176  8956.57  93.5364
 32.9596  8891.7  93.2619
 33.0016  8998.16  93.6004
 33.0436  9037.52  93.9753
 33.0856  9052.22  94.1476
 33.1276  8922.95  93.2082
 33.1696  8922.63  93.0255
 33.2116  9015.47  93.7622
 33.2536  9103.11  94.1942
 33.2956  9020.34  93.8543
 33.3376  8898.46  92.9488
 33.3796  8949.54  93.4447
 33.4216  8971.81  93.1471
 33.4636  9016.32  93.5309
 33.5056  8823.65  92.7806
 33.5476  8940.75  93.3605
 33.5896  9104.86  94.0153
 33.6316  9027.34  93.9174
 33.6736  8788.41  92.9163
 33.7156  8913.04  93.5949
 33.7576  9009.38  93.7432
 33.7996  8993.88  93.4183
 33.8416  8876.45  93.0004
 33.8836  8788.38  92.3155
 33.9256  9012.77  93.5313
 33.9676  8830.17  92.4835
 34.0096  8826.28  92.776
 34.0516  8698.68  91.7419
 34.0936  8812.1  92.6145
 34.1356  8935.57  92.9987
 34.1776  8706.43  91.791
 34.2196  8680.61  91.8416
 34.2616  8663.75  91.8952
 34.3036  8761.52  92.656
 34.3456  8698.57  92.0697
 34.3876  8795.18  92.5577
 34.4296  8812.76  92.3387
 34.4716  8765.56  92.2411
 34.5136  8724.78  92.2126
 34.5556  8554.52  91.5716
 34.5976  8860.91  93.0033
 34.6396  8675.3  91.734
 34.6816  8652.39  91.7166
 34.7236  8753.48  92.0245
 34.7656  8624.19  91.5604
 34.8076  8617.52  91.8549
 34.8496  8657.42  91.9183
 34.8916  8719.77  92.1037
 34.9336  8556.07  91.2229
 34.9756  8694.24  91.8755
 35.0176  8683.01  92.3473
 35.0596  8769.37  92.6219
 35.1016  8631.51  91.6439
 35.1436  8904.78  92.7731
 35.1856  8748.14  92.0597
 35.2276  8683.98  91.9034
 35.2696  8702.84  92.2027
 35.3116  8673.74  92.1574
 35.3536  8490.46  90.8794
 35.3956  8636.21  91.3709
 35.4376  8683.41  92.184
 35.4796  8665.79  92.1448
 35.5216  8567.67  91.5761
 35.5636  8322.07  90.9947
 35.6056  8545.89  91.2264
 35.6476  8696.54  91.9154
 35.6896  8579.12  91.4029
 35.7316  8411  90.4623
 35.7736  8505.86  91.1692
 35.8156  8615.81  91.7501
 35.8576  8542.72  91.6113
 35.8996  8519.16  91.4522
 35.9416  8506.06  90.8851
 35.9836  8495.91  91.1835
 36.0256  8674.86  92.1493
 36.0676  8528.03  91.1244
 36.1096  8610.68  91.6986
 36.1516  8568.16  91.3781
 36.1936  8552.73  91.113
 36.2356  8498.75  91.4967
 36.2776  8420.53  90.5465
 36.3196  8454.44  90.3963
 36.3616  8453.27  90.5283
 36.4036  8338.02  89.9752
 36.4456  8439.84  90.7316
 36.4876  8305.16  89.9411
 36.5296  8374.55  90.3571
 36.5716  8368.9  91.1108
 36.6136  8322.58  89.6408
 36.6556  8255.14  89.465
 36.6976  8236.55  89.8683
 36.7396  8227.03  89.5638
 36.7816  8176.26  89.6475
 36.8236  8205.08  89.7377
 36.8656  8138.63  89.4285
 36.9076  8035.96  88.7577
 36.9496  8133.13  89.2623
 36.9916  8122.93  88.8455
 37.0336  8130  89.1887
 37.0756  8131.36  89.0005
 37.1176  7983.63  88.4536
 37.1596  8087.66  89.0363
 37.2016  8050.15  89.051
 37.2436  8115.65  88.7333
 37.2856  8180.9  89.3523
 37.3276  8140.35  88.4771
 37.3696  8105.9  89.1828
 37.4116  8031.4  88.654
 37.4536  8019.46  88.4695
 37.4956  8027.27  88.5487
 37.5376  8221.23  91.2182
 37.5796  8132.39  90.6485
 37.6216  8222.84  89.3863
 37.6636  8297.16  89.684
 37.7056  8185.88  89.2687
 37.7476  8299.34  89.4219
 37.7896  8064.09  88.6487
 37.8316  8036.36  88.6557
 37.8736  8124.13  88.6573
 37.9156  8221.52  89.1677
 37.9576  8179.14  88.8682
 37.9996  8054.72  87.9008
 38.0416  8093.27  88.9111
 38.0836  8296.31  89.9318
 38.1256  8146.19  89.0848
 38.1676  8056.88  88.7123
 38.2096  8158.25  88.8876
 38.2516  8156.58  89.0882
 38.2936  8167.27  88.9563
 38.3356  8003.31  87.9742
 38.3776  8196.2  89.2965
 38.4196  8041.68  88.3026
 38.4616  8228.54  89.5719
 38.5036  8225.1  89.3926
 38.5456  8032.1  89.1735
 38.5876  8020.22  89.1467
 38.6296  7946.08  87.7261
 38.6716  8112.59  88.4339
 38.7136  8139.22  88.5143
 38.7556  8063.32  88.6184
 38.7976  7969.37  88.029
 38.8396  7855.23  87.853
 38.8816  8034.32  88.6382
 38.9236  7924.06  87.8227
 38.9656  8065.26  88.5195
 39.0076  8021.73  87.6768
 39.0496  8165.95  89.0198
 39.0916  8032.64  87.9389
 39.1336  8109.65  88.7695
 39.1756  8107.04  88.8162
 39.2176  8009.58  88.8241
 39.2596  8016.92  88.7902
 39.3016  8039.93  88.4923
 39.3436  7990.46  88.6383
 39.3856  8052.02  88.4135
 39.4276  8181.78  89.6355
 39.4696  8072.56  88.6606
 39.5116  8105.92  89.3592
 39.5536  8043.29  89.4192
 39.5956  8002.01  88.3081
 39.6376  7986.71  88.212
 39.6796  7907.57  87.5251
 39.7216  7919.13  87.6806
 39.7636  7967.58  88.5115
 39.8056  8034.61  88.6647
 39.8476  7951.44  88.4683
 39.8896  7996.44  88.3454
 39.9316  7888.49  87.9946
 39.9736  7960.78  87.9782
 40.0156  7960.24  87.8022
 40.0576  7950.24  88.1001
 40.0996  7980.87  87.4448
 40.1416  7976.25  88.2198
 40.1836  8054.09  88.5322
 40.2256  8061.38  88.6165
 40.2676  7978.2  88.2584
 40.3096  8114.3  88.9409
 40.3516  8035.03  88.6159
 40.3936  8010.85  88.0343
 40.4356  7989.72  88.137
 40.4776  8086.81  89.0662
 40.5196  8021.14  88.8307
 40.5616  8144.91  89.1498
 40.6036  7988.83  88.5519
 40.6456  8015.58  88.299
 40.6876  8019.28  88.319
 40.7296  7940.18  88.0206
 40.7716  8057.81  88.7827
 40.8136  7998.14  88.4125
 40.8556  8103.79  89.1183
 40.8976  8086.12  88.941
 40.9396  8065.35  89.1786
 40.9816  8060.84  88.4439
 41.0236  8014.06  87.962
 41.0656  8093.15  88.9445
 41.1076  8067.15  88.5682
 41.1496  8140.53  88.8706
 41.1916  8005.73  88.4656
 41.2336  8085.07  88.8891
 41.2756  8000.16  88.028
 41.3176  8075.24  89.0475
 41.3596  8063.59  88.7242
 41.4016  8019.59  88.7345
 41.4436  7987.81  88.3521
 41.4856  7928.97  88.1924
 41.5276  8046.63  88.85
 41.5696  7942.96  87.9265
 41.6116  8081.7  89.0666
 41.6536  8031.42  88.6483
 41.6956  8043.85  88.7779
 41.7376  8042.09  88.8012
 41.7796  7943.63  88.1231
 41.8216  8091.7  89.1703
 41.8636  8013.05  88.7009
 41.9056  7954.76  88.1592
 41.9476  8028.43  88.7988
 41.9896  8091.91  88.8202
 42.0316  7996.35  88.3837
 42.0736  8101.93  89.0659
 42.1156  7975.02  88.2027
 42.1576  8027.46  88.6014
 42.1996  8154.96  89.4262
 42.2416  8035.74  88.3572
 42.2836  8060.41  88.6124
 42.3256  7908.4  87.8858
 42.3676  8106.95  88.7771
 42.4096  8064.97  88.5147
 42.4516  8099.66  88.7896
 42.4936  7959.15  88.0956
 42.5356  7854.68  87.6551
 42.5776  7902.86  87.8577
 42.6196  7949.21  88.1724
 42.6616  7814.3  87.5896
 42.7036  8020.27  88.105
 42.7456  8088.12  88.8436
 42.7876  7989.61  88.3899
 42.8296  7965.88  88.0898
 42.8716  7883.51  87.8063
 42.9136  7871.96  87.5294
 42.9556  7997.22  88.3545
 42.9976  7974.07  88.1949
 43.0396  7865.27  87.3222
 43.0816  7888.15  87.8331
 43.1236  7927.33  88.1029
 43.1656  7817.75  87.3114
 43.2076  7875.27  87.7418
 43.2496  7841.8  87.3791
 43.2916  7848.75  87.7799
 43.3336  7881.38  87.7901
 43.3756  7838.55  87.3195
 43.4176  7811.08  87.2425
 43.4596  7818.81  87.1404
 43.5016  7790.6  87.3838
 43.5436  7884.89  87.8105
 43.5856  7794.18  87.3354
 43.6276  7856.24  87.5804
 43.6696  7798.47  87.5084
 43.7116  7836.52  87.2241
 43.7536  7874.97  87.9365
 43.7956  7747.19  88.432
 43.8376  7653.08  86.4344
 43.8796  7657.22  86.5238
 43.9216  7732.22  86.8692
 43.9636  7767.65  87.1651
 44.0056  7561.13  86.2384
 44.0476  7623.77  86.2156
 44.0896  7594.53  86.4031
 44.1316  7680.48  86.4121
 44.1736  7688.04  86.5821
 44.2156  7733.74  86.6969
 44.2576  7662.93  86.6199
 44.2996  7668.39  86.63
 44.3416  7724.24  86.6807
 44.3836  7569.65  86.1483
 44.4256  7487.78  85.3193
 44.4676  7542.79  85.7966
 44.5096  7648.46  86.5421
 44.5516  7632.18  86.4157
 44.5936  7512.44  85.6855
 44.6356  7756.6  86.8016
 44.6776  7613.96  86.3291
 44.7196  7582.86  86.4428
 44.7616  7683.56  88.3682
 44.8036  7570.86  86.1073
 44.8456  7758.37  87.3814
 44.8876  7763.33  87.2499
 44.9296  7873.38  87.3029
 44.9716  7752.09  87.0653
 45.0136  7800.21  87.2745
 45.0556  7776.33  87.1138
 45.0976  7607.19  86.3196
 45.1396  7716.18  86.68
 45.1816  7698.67  86.5286
 45.2236  7759.49  86.7774
 45.2656  7650.02  86.648
 45.3076  7701.5  86.7206
 45.3496  7617.39  86.5659
 45.3916  7545.91  86.4351
 45.4336  7657.33  86.9131
 45.4756  7575.9  86.297
 45.5176  7739.34  86.843
 45.5596  7784.21  87.2153
 45.6016  7569.5  86.4274
 45.6436  7731.8  86.5086
 45.6856  7665.59  86.7915
 45.7276  7474.28  87.0406
 45.7696  7584.18  87.3588
 45.8116  7571.6  86.7361
 45.8536  7563.84  86.5848
 45.8956  7691.66  86.648
 45.9376  7629.77  85.7597
 45.9796  7591.76  86.2346
 46.0216  7733.86  87.3837
 46.0636  7794.28  86.8435
 46.1056  7557.36  85.5065
 46.1476  7694.99  86.8895
 46.1896  7615.66  86.579
 46.2316  7537.35  86.0058
 46.2736  7434.93  85.7999
 46.3156  7664.19  86.6861
 46.3576  7612.5  86.594
 46.3996  7580.92  86.5768
 46.4416  7705.11  86.8574
 46.4836  7616.05  86.7133
 46.5256  7601.78  86.5736
 46.5676  7569.71  86.5024
 46.6096  7494.24  86.0092
 46.6516  7599.69  85.6385
 46.6936  7545.23  85.832
 46.7356  7728.61  86.9572
 46.7776  7564.59  86.8892
 46.8196  7481.92  86.0035
 46.8616  7418.63  85.5848
 46.9036  7411.4  85.2083
 46.9456  7502.15  85.3558
 46.9876  7505.43  85.4508
 47.0296  7466.74  85.9171
 47.0716  7445.5  85.6333
 47.1136  7503.89  85.6348
 47.1556  7499.21  85.4761
 47.1976  7675.15  86.5607
 47.2396  7358.44  85.1571
 47.2816  7509.83  85.7301
 47.3236  7450.32  85.7583
 47.3656  7587.15  86.4765
 47.4076  7485.79  85.6812
 47.4496  7467.23  85.6746
 47.4916  7476.63  85.9241
 47.5336  7564.11  86.2421
 47.5756  7538.75  86.2148
 47.6176  7421.75  85.4402
 47.6596  7467.66  85.4193
 47.7016  7662  86.3241
 47.7436  7472.57  85.6065
 47.7856  7609.65  86.4061
 47.8276  7493.87  85.7995
 47.8696  7506.9  85.9478
 47.9116  7411.97  85.1231
 47.9536  7563.45  85.919
 47.9956  7402.92  85.7301
 48.0376  7355.13  85.2335
 48.0796  7541.67  86.4261
 48.1216  7486.24  85.9335
 48.1636  7581.04  86.0297
 48.2056  7514.04  85.9219
 48.2476  7631.44  86.9013
 48.2896  7581.22  86.5199
 48.3316  7539.73  86.2275
 48.3736  7405.6  85.4861
 48.4156  7500.85  85.8878
 48.4576  7450.55  85.8892
 48.4996  7635.24  86.3957
 48.5416  7552.87  86.255
 48.5836  7518.13  85.7203
 48.6256  7539.82  86.0523
 48.6676  7545.63  86.6158
 48.7096  7500.08  85.6049
 48.7516  7379.23  85.069
 48.7936  7332.88  84.8696
 48.8356  7414.69  85.3912
 48.8776  7460.85  86.2406
 48.9196  7607.62  86.4336
 48.9616  7457.07  85.9618
 49.0036  7490.27  86.5035
 49.0456  7392  85.9213
 49.0876  7469.53  85.8882
 49.1296  7366.41  85.4549
 49.1716  7267.09  84.7625
 49.2136  7542.26  86.2886
 49.2556  7406.64  85.5271
 49.2976  7456.24  85.8804
 49.3396  7409.65  85.6647
 49.3816  7500.58  85.6096
 49.4236  7440.92  85.7043
 49.4656  7323.04  85.0355
 49.5076  7427.78  85.3909
 49.5496  7455.13  85.6189
 49.5916  7372.95  85.044
 49.6336  7484.87  85.9039
 49.6756  7466.12  86.0328
 49.7176  7359.6  85.3628
 49.7596  7432.26  85.5389
 49.8016  7490.4  85.79
 49.8436  7371.46  85.4203
 49.8856  7364.27  85.3774
 49.9276  7293.83  85.0746
 49.9696  7501.56  86.2476
 50.0116  7375.4  85.664
 50.0536  7347.04  85.4273
 50.0956  7333.97  85.437
 50.1376  7381.1  85.3885
 50.1796  7351.77  85.5107
 50.2216  7340.19  85.4346
 50.2636  7347.57  85.0904
 50.3056  7322.62  85.133
 50.3476  7351.7  85.3163
 50.3896  7308.36  85.0351
 50.4316  7389.28  85.3324
 50.4736  7271.41  84.8753
 50.5156  7354.68  85.3416
 50.5576  7449.13  85.6393
 50.5996  7296.24  85.0508
 50.6416  7311.29  85.0559
 50.6836  7341.8  85.3041
 50.7256  7481.32  86.0257
 50.7676  7411.13  85.9743
 50.8096  7336.21  85.0366
 50.8516  7244.19  84.9315
 50.8936  7367.43  85.4229
 50.9356  7357.84  85.4803
 50.9776  7264.49  85.0956
 51.0196  7128.55  84.4323
 51.0616  7169.96  83.9907
 51.1036  7266.96  84.9207
 51.1456  7259.16  84.7951
 51.1876  7267.34  84.1407
 51.2296  7184.24  84.3212
 51.2716  7082.89  83.4175
 51.3136  7066.39  83.7972
 51.3556  7099.56  83.5959
 51.3976  7135.57  83.9733
 51.4396  7098.8  84.0744
 51.4816  7129.28  84.0976
 51.5236  7103.84  84.0442
 51.5656  7180.42  84.0785
 51.6076  7294.1  84.8383
 51.6496  7065.52  83.6737
 51.6916  7116.46  84.3634
 51.7336  6985.34  83.6512
 51.7756  7094.73  84.0082
 51.8176  7115.09  84.2392
 51.8596  6973.08  83.4086
 51.9016  7372.7  85.3553
 51.9436  7152.41  85.5927
 51.9856  7136.66  85.9161
 52.0276  7241.35  84.9775
 52.0696  7332.86  85.5814
 52.1116  7014.84  83.8292
 52.1536  7183.35  84.7116
 52.1956  7153.61  83.9887
 52.2376  7325.89  85.1709
 52.2796  7335.51  85.0402
 52.3216  7064.34  84.1334
 52.3636  7160.82  84.2736
 52.4056  7103.72  83.8049
 52.4476  7142.43  84.4086
 52.4896  6946.07  83.2829
 52.5316  7158.78  84.6113
 52.5736  7028.85  83.5434
 52.6156  7218.01  85.0785
 52.6576  7005.98  83.2359
 52.6996  6930.81  83.7939
 52.7416  6960.84  83.8212
 52.7836  7092.96  84.5077
 52.8256  7165.68  84.1249
 52.8676  6933.94  83.3434
 52.9096  6995.46  83.7808
 52.9516  7035.37  84.4223
 52.9936  7017.01  84.7089
 53.0356  7111.47  84.2476
 53.0776  7014.28  83.9617
 53.1196  6982.25  83.8867
 53.1616  7226.53  85.399
 53.2036  7064.6  84.3974
 53.2456  7038.66  84.3505
 53.2876  7037.33  84.028
 53.3296  7109.74  84.786
 53.3716  7167.63  84.8715
 53.4136  7003.88  84.0535
 53.4556  7114.87  84.7481
 53.4976  6998.21  83.8854
 53.5396  6940.13  83.9524
 53.5816  7112.65  84.5995
 53.6236  7028.59  84.4585
 53.6656  6942.09  83.5367
 53.7076  7143.25  84.6982
 53.7496  7124.54  84.7214
 53.7916  6968.15  83.9224
 53.8336  7017.42  84.1145
 53.8756  6778.7  83.2305
 53.9176  6950.5  83.6033
 53.9596  6764.69  83.2377
 54.0016  6781.17  82.6508
 54.0436  6676.71  82.2381
 54.0856  6765.98  82.1976
 54.1276  6829.66  82.7907
 54.1696  6840.4  83.0271
 54.2116  6968.1  83.5284
 54.2536  6763.16  82.1075
 54.2956  6870.21  82.8165
 54.3376  6738.8  82.5004
 54.3796  6704.06  82.1924
 54.4216  6766.31  82.6171
 54.4636  6653.99  81.9031
 54.5056  6812.86  82.6685
 54.5476  6738.25  82.5534
 54.5896  6766.16  82.5757
 54.6316  6793.67  82.5854
 54.6736  6736.27  82.3166
 54.7156  6675.15  81.9775
 54.7576  6673.25  81.9436
 54.7996  6724.15  82.4055
 54.8416  6698.25  82.3076
 54.8836  6800.94  83.0229
 54.9256  6663.8  81.9366
 54.9676  6605.96  81.4505
 55.0096  6664.61  81.8302
 55.0516  6600.11  81.6709
 55.0936  6717.63  82.0686
 55.1356  6625.67  81.5464
 55.1776  6693.16  82.2003
 55.2196  6613.43  81.4986
 55.2616  6740.59  82.5075
 55.3036  6577.95  81.6788
 55.3456  6517.28  81.449
 55.3876  6670.68  82.1353
 55.4296  6528.35  81.2365
 55.4716  6643.46  81.9755
 55.5136  6543.09  81.1297
 55.5556  6716.78  82.2366
 55.5976  6643.25  81.8771
 55.6396  6740.6  82.4072
 55.6816  6620.98  81.539
 55.7236  6477.08  80.7034
 55.7656  6526.11  80.7324
 55.8076  6525.14  80.7214
 55.8496  6554.15  81.2289
 55.8916  6523.67  81.26
 55.9336  6627.99  81.7198
 55.9756  6517.32  80.9301
 56.0176  6509.97  80.9913
 56.0596  6526.56  81.1291
 56.1016  6441.86  80.6003
 56.1436  6468.36  81.0336
 56.1856  6369.58  80.1503
 56.2276  6623.57  81.7849
 56.2696  6429.75  80.5616
 56.3116  6506.84  81.424
 56.3536  6495.95  81.0192
 56.3956  6457.3  80.7509
 56.4376  6488.78  81.0071
 56.4796  6339.64  79.8838
 56.5216  6396.26  80.6191
 56.5636  6379.48  80.0688
 56.6056  6546.26  81.3649
 56.6476  6543.19  80.9448
 56.6896  6639.94  82.0154
 56.7316  6451.4  80.7599
 56.7736  6497.51  81.0461
 56.8156  6517.7  81.1914
 56.8576  6292.45  79.711
 56.8996  6451.76  80.6146
 56.9416  6318.99  80.1122
 56.9836  6512.14  80.8232
 57.0256  6303.7  79.8414
 57.0676  6474.76  81.0237
 57.1096  6446.95  80.6416
 57.1516  6351.35  80.0903
 57.1936  6398.09  80.1502
 57.2356  6326.06  80.0225
 57.2776  6349.77  80.1478
 57.3196  6329.74  80.3713
 57.3616  6373.9  80.1156
 57.4036  6479.45  80.8566
 57.4456  6427.31  80.5086
 57.4876  6350.63  79.8873
 57.5296  6318.42  80.0074
 57.5716  6356.8  80.2541
 57.6136  6238.57  79.3509
 57.6556  6448.58  80.7937
 57.6976  6395.46  80.2988
 57.7396  6249.5  79.7369
 57.7816  6198.08  79.7748
 57.8236  6270.19  80.0273
 57.8656  6281.95  79.7547
 57.9076  6384.25  80.4089
 57.9496  6275.05  80.0871
 57.9916  6371.67  80.2161
 58.0336  6250.41  79.7303
 58.0756  6361.46  80.065
 58.1176  6366.54  80.098
 58.1596  6232.2  79.8276
 58.2016  6062.87  77.9526
 58.2436  6150.22  78.9322
 58.2856  5990.66  77.8177
 58.3276  6035.87  78.485
 58.3696  6066.14  78.4476
 58.4116  6072.93  78.3482
 58.4536  6036.66  78.0073
 58.4956  6029.12  78.131
 58.5376  6072.81  77.9829
 58.5796  5984.29  77.8234
 58.6216  6103.92  78.4272
 58.6636  6052.31  78.2958
 58.7056  6092.87  78.4238
 58.7476  5951.95  77.9528
 58.7896  5957.03  77.626
 58.8316  6134.7  78.7858
 58.8736  6057.42  78.2905
 58.9156  6093.01  78.5713
 58.9576  6022.74  78.4189
 58.9996  6074.06  78.0211
 59.0416  6116.74  78.643
 59.0836  6154.7  78.8097
 59.1256  5995.87  78.4841
 59.1676  5979.18  78.6829
 59.2096  5916.08  77.5565
 59.2516  6056.28  78.0506
 59.2936  6055.84  78.3762
 59.3356  6012.58  77.9738
 59.3776  6094.84  78.6751
 59.4196  6036.48  78.2317
 59.4616  5982.39  77.7429
 59.5036  5909.7  77.3034
 59.5456  6074.91  78.0698
 59.5876  5943.18  77.4082
 59.6296  5967.26  77.6337
 59.6716  5861.66  77.0008
 59.7136  6085.63  78.4463
 59.7556  6008.34  78.0826
 59.7976  5949.04  77.4405
 59.8396  5885.72  76.9229
 59.8816  5939.19  77.8113
 59.9236  6079.69  78.3699
 59.9656  5856.54  77.1709
 60.0076  6028.77  77.6594
 60.0496  5971.65  77.7917
 60.0916  6103.9  78.0634
 60.1336  6006.45  78.5417
 60.1756  5983.7  79.5712
 60.1996  0.0000000E+00  0.0000000E+00