File: docs/examples/opeando_xrd/IS17_D/Data/IS17_D/17_Da_f00017.xye
# /beamlines/bl04/projects/cycle2025-II/20250340211-lsimonelli/DATA/IS17_D/17_Da_f00017.xye : mythproc.py merge -s 0.006 -l 0.5 -f /beamlines/bl04/inhouse/ff/FlatField/ff_20Nov2024rod8mm60s_17keV.raw -b True -c true -o xye /beamlines/bl04/projects/cycle2025-II/20250340211-lsimonelli/DATA/IS17_D/17_Da_00017.dat
# IsMon = [6787421, 6784067, 6783290]  IsPos = [-1.5000, -2.4884, -3.4988]
# Wave = 0.4962  CalPath /beamlines/bl04/projects/cycle2025-II/20250340211-lsimonelli/DATA/Align/Si_Pos1_25keV_f00001.cal
# Date = 2025-09-23_22:18:41 Dt = 4.8000  Bin = 0.0060  <imon> = 6784926 +/- 1793 (Min/Max) 6783290 / 6787421
# icurr 252.8260  mocoIn 1.7245E-05  mocoOut 0.8094  i15 7.09846e+06  imon 6.78493e+06  i7 4.3333  iEMpd_timer 4.8000  iEMpd_1 3.3980E-08  iEMpd_2 7.8890E-08  iEMpd_3 1.7488E-08  iEMpd_4 4.7759E-08  iEMhp_timer 4.8000  iEMhp_1 4.9398E-06  iEMhp_2 -2.3954E-08  iEMhp_3 -2.1686E-08  iEMhp_4 -1.9148E-08
#      9776
 1.5856  37954.4  200.011
 1.6276  44694.2  213.32
 1.6696  51460.5  228.091
 1.7116  60973.4  248.766
 1.7536  70326  266.026
 1.7956  74868.2  275.166
 1.8376  71530.4  269.391
 1.8796  59522.1  243.94
 1.9216  47638.3  219.097
 1.9636  40341.2  201.301
 2.0056  35507.1  187.649
 2.0476  32920.2  182.665
 2.0896  31676.7  178.131
 2.1316  30722.4  174.584
 2.1736  29343.5  171.975
 2.2156  29635.8  171.442
 2.2576  28733.9  169.419
 2.2996  27501.6  166.354
 2.3416  27865.4  166.113
 2.3836  27502.3  165.13
 2.4256  26847.3  163.684
 2.4676  26621.4  162.762
 2.5096  27024.4  164.043
 2.5516  38054.1  199.07
 2.5936  183570  428.666
 2.6356  32129.5  180.089
 2.6776  25722.4  160.049
 2.7196  24758.7  157.522
 2.7616  24458.9  156.351
 2.8036  23913.5  154.763
 2.8456  23866.8  155.208
 2.8876  23404.4  153.584
 2.9296  23146.2  152.849
 2.9716  22827.2  151.304
 3.0136  22698.7  150.941
 3.0556  22621.5  151.064
 3.0976  22466  149.519
 3.1396  22223.2  149.401
 3.1816  22036.8  148.704
 3.2236  21922.7  148.323
 3.2656  22024.6  147.746
 3.3076  21758.2  148.238
 3.3496  22061.5  148.25
 3.3916  22475.3  149.461
 3.4336  22877.1  151.35
 3.4756  23351.4  152.83
 3.5176  24104.8  155.086
 3.5596  23858.4  157.196
 3.6016  24252.6  155.626
 3.6436  23360.1  153.803
 3.6856  23054  151.14
 3.7276  21996  148.684
 3.7696  21808.1  148.034
 3.8116  21466.6  146.954
 3.8536  21457.6  146.857
 3.8956  21669  147.414
 3.9376  22401.8  150.133
 3.9796  21511.3  146.646
 4.0216  21579.3  145.942
 4.0636  21560.1  147.308
 4.1056  21502.9  146.763
 4.1476  21609  147.419
 4.1896  21828.1  148.039
 4.2316  22017  148.512
 4.2736  22411.6  149.629
 4.3156  22690.5  150.789
 4.3576  23454.4  153.224
 4.3996  23824.2  154.687
 4.4416  24651  156.935
 4.4836  26091.5  161.612
 4.5256  25772.6  161.213
 4.5676  25336.5  160.101
 4.6096  25844.9  160.73
 4.6516  26126.6  160.97
 4.6936  26624.1  163.303
 4.7356  27604  166.103
 4.7776  26598.7  162.891
 4.8196  26029.5  161.759
 4.8616  25750.5  160.39
 4.9036  25287.4  158.687
 4.9456  25745.7  160.761
 4.9876  24828.3  157.779
 5.0296  24947  157.98
 5.0716  24959  158.776
 5.1136  24877.4  158.225
 5.1556  25545.6  159.823
 5.1976  37253.8  192.969
 5.2396  26372.3  162.077
 5.2816  25737.9  160.557
 5.3236  25672.5  160.075
 5.3656  25293.7  159.785
 5.4076  24892.8  158.661
 5.4496  25083.1  158.771
 5.4916  25258.2  159.082
 5.5336  25228  158.999
 5.5756  24763.5  157.541
 5.6176  25185.9  158.339
 5.6596  25503.4  160.135
 5.7016  25375.7  159.172
 5.7436  25668  160.351
 5.7856  25402.9  159.573
 5.8276  25799  160.554
 5.8696  25921.6  160.977
 5.9116  25849.4  161.455
 5.9536  26072.8  161.902
 5.9956  26400.2  162.31
 6.0376  26421.7  162.992
 6.0796  26710.9  163.717
 6.1216  26565.6  163.477
 6.1636  26907.4  163.607
 6.2056  27138.5  164.967
 6.2476  27181.9  164.776
 6.2896  27512.2  165.655
 6.3316  27154.1  164.733
 6.3736  27593  165.961
 6.4156  27586.8  165.899
 6.4576  28087.8  166.956
 6.4996  27896.8  166.863
 6.5416  27935.2  167.104
 6.5836  28483.6  168.968
 6.6256  28049  167.244
 6.6676  28506  168.178
 6.7096  28342  168.514
 6.7516  28941.9  169.962
 6.7936  30187.7  173.005
 6.8356  31131.6  175.77
 6.8776  30160  173.808
 6.9196  29595.2  172.558
 6.9616  29850.2  172.758
 7.0036  30368.5  173.911
 7.0456  30491.9  173.571
 7.0876  30286.4  174.543
 7.1296  30286.2  173.791
 7.1716  30174.4  173.014
 7.2136  29899.4  172.019
 7.2556  30209.1  173.065
 7.2976  30258.1  173.691
 7.3396  30082.6  173.396
 7.3816  30301.9  174.235
 7.4236  30707.7  174.702
 7.4656  30720.7  174.234
 7.5076  30856  174.749
 7.5496  30749.6  174.979
 7.5916  30787.5  175.112
 7.6336  31705.9  177.601
 7.6756  31183  175.985
 7.7176  31650.3  177.595
 7.7596  31701.1  178.971
 7.8016  39264.2  201.549
 7.8436  32839.1  181.056
 7.8856  32870.7  180.754
 7.9276  33547.5  183.001
 7.9696  33415.2  182.947
 8.0116  34599.5  184.712
 8.0536  35503  187.367
 8.0956  38173.4  195.491
 8.1376  35763.5  188.705
 8.1796  35396.1  188.266
 8.2216  36437.8  189.766
 8.2636  38186  194.516
 8.3056  37025.8  192.312
 8.3476  39555.3  198.08
 8.3896  38118.7  194.53
 8.4316  36792.3  191.28
 8.4736  36715.8  190.553
 8.5156  36495.6  190.255
 8.5576  36403.6  190.974
 8.5996  36100.9  189.065
 8.6416  36130.1  190.39
 8.6836  36059.4  190.042
 8.7256  37055.1  192.087
 8.7676  40221.7  203.148
 8.8096  39964.9  199.678
 8.8516  36564.9  190.649
 8.8936  38525.7  195.541
 8.9356  35639.6  188.412
 8.9776  36005.2  189.481
 9.0196  35388.1  187.51
 9.0616  36204.1  189.151
 9.1036  38651.9  196.672
 9.1456  35624.4  188.177
 9.1876  34571.2  185.315
 9.2296  34673.3  185.023
 9.2716  33919.7  183.045
 9.3136  34029.1  183.315
 9.3556  34687  185.069
 9.3976  32728.4  180.263
 9.4396  33418.9  182.07
 9.4816  32720.3  180.009
 9.5236  32959  180.59
 9.5656  32409.2  179.389
 9.6076  32358.7  179.778
 9.6496  32260.2  179.418
 9.6916  32159.3  179.121
 9.7336  32122  178.793
 9.7756  32040.3  179.653
 9.8176  31396.7  177.479
 9.8596  31530.9  176.344
 9.9016  31012.6  174.882
 9.9436  31070  174.805
 9.9856  31391.8  176.085
 10.0276  30250.6  173.932
 10.0696  30794.6  174.544
 10.1116  29943.9  172.377
 10.1536  29292.6  170.165
 10.1956  28978.9  169.348
 10.2376  28752.4  168.192
 10.2796  28954.6  168.917
 10.3216  28898.1  168.883
 10.3636  28602.4  168.173
 10.4056  33430.3  182.243
 10.4476  34063.7  183.558
 10.4896  39654.9  197.415
 10.5316  35653  187.581
 10.5736  28943.7  169.771
 10.6156  28402.9  167.939
 10.6576  36080.3  187.687
 10.6996  28682.3  168.003
 10.7416  27330.9  164.235
 10.7836  28979.8  169.833
 10.8256  26578.8  163.064
 10.8676  26721.6  163.051
 10.9096  26667.3  162.919
 10.9516  26120.5  160.196
 10.9936  27447.8  164.412
 11.0356  26985.4  163.658
 11.0776  29067.5  169.135
 11.1196  28615.8  168.597
 11.1616  26243.5  161.149
 11.2036  27905.2  166.02
 11.2456  29671  171.943
 11.2876  25539.5  159.246
 11.3296  25810.3  159.989
 11.3716  26324.5  161.315
 11.4136  25120.6  158.423
 11.4556  25698.1  159.908
 11.4976  27411.2  164.099
 11.5396  28015.5  166.074
 11.5816  25397.6  158.553
 11.6236  24868.4  157.127
 11.6656  24686.7  155.719
 11.7076  24253.5  155.168
 11.7496  24771.7  160.697
 11.7916  25033.5  156.916
 11.8336  24169.7  155.056
 11.8756  24731.6  156.38
 11.9176  23981.5  153.648
 11.9596  23479.8  152.213
 12.0016  23589  153.352
 12.0436  23532.7  152.602
 12.0856  22880.4  150.984
 12.1276  23292.3  152.25
 12.1696  23377.8  151.685
 12.2116  23989.5  153.653
 12.2536  27050.5  163.996
 12.2956  24174.4  154.414
 12.3376  23546.9  152.59
 12.3796  23418.3  152.612
 12.4216  23699.2  152.775
 12.4636  25102.1  158.164
 12.5056  22939.2  150.478
 12.5476  23445.9  151.677
 12.5896  23176.9  151.43
 12.6316  22560.6  149.538
 12.6736  22788.3  150.776
 12.7156  23196.6  151.974
 12.7576  22949.3  151.407
 12.7996  23321  151.297
 12.8416  23577.9  153.169
 12.8836  24657.9  156.475
 12.9256  23892.1  153.045
 12.9676  23748.5  153.008
 13.0096  23430.4  153.04
 13.0516  23512  152.365
 13.0936  23358.6  151.988
 13.1356  23737  152.497
 13.1776  23717.5  153.405
 13.2196  23365.1  151.932
 13.2616  23426.8  152.441
 13.3036  23165.4  151.704
 13.3456  23425.4  152.75
 13.3876  23823.8  153.334
 13.4296  23573.9  152.683
 13.4716  23822.9  153.105
 13.5136  23763.6  153.062
 13.5556  23941.2  154.239
 13.5976  23778.8  153.857
 13.6396  24217.2  154.646
 13.6816  23243.2  151.851
 13.7236  24672.5  156.224
 13.7656  23994.4  154.588
 13.8076  25124.5  156.969
 13.8496  23803.8  153.563
 13.8916  23572.1  153.617
 13.9336  23216.4  151.707
 13.9756  23246.4  151.158
 14.0176  23422.2  152.411
 14.0596  24634.6  156.261
 14.1016  23063.6  151.589
 14.1436  22401.7  148.546
 14.1856  22651.5  149.665
 14.2276  22815.6  150.674
 14.2696  23028.7  151.231
 14.3116  22447  149.214
 14.3536  21727.9  146.971
 14.3956  21737.5  146.743
 14.4376  21909.2  147.103
 14.4796  21684.5  146.344
 14.5216  21363.1  146.034
 14.5636  21953.5  147.605
 14.6056  21519.6  145.715
 14.6476  21159.1  143.744
 14.6896  20969.8  143.63
 14.7316  20481.2  142.951
 14.7736  20370.4  141.736
 14.8156  20380.4  141.8
 14.8576  20424.9  141.805
 14.8996  20220.2  142.283
 14.9416  19659.5  140.293
 14.9836  19803.6  140.77
 15.0256  19779.5  139.645
 15.0676  19425.4  138.697
 15.1096  19131.6  137.388
 15.1516  18810.5  136.77
 15.1936  18840  136.322
 15.2356  18843.7  136.608
 15.2776  18944.3  136.562
 15.3196  18625.6  136.398
 15.3616  18703.8  136.443
 15.4036  18541.2  135.695
 15.4456  18911.1  136.707
 15.4876  18325.9  134.258
 15.5296  18077.5  133.62
 15.5716  17702.4  131.844
 15.6136  17853.6  132.73
 15.6556  20685.9  142.059
 15.6976  18373.7  134.177
 15.7396  18126.2  133.668
 15.7816  18222.8  133.526
 15.8236  17335.2  130.927
 15.8656  17243.5  130.373
 15.9076  17549.2  131.351
 15.9496  17969.5  135.695
 15.9916  16775.2  131.55
 16.0336  16655.7  128.032
 16.0756  16901.3  129.287
 16.1176  16728.3  128.546
 16.1596  16394.7  128.553
 16.2016  16508.8  127.782
 16.2436  16265.4  127.202
 16.2856  16622.1  128.138
 16.3276  15757.2  125.166
 16.3696  16044  126.122
 16.4116  15744.3  125.384
 16.4536  16022.2  126.278
 16.4956  16876.2  129.322
 16.5376  16315.8  127.35
 16.5796  16052.3  125.683
 16.6216  15754.4  124.818
 16.6636  16032.5  126.073
 16.7056  15709.1  124.656
 16.7476  15779.3  124.463
 16.7896  15792.4  125.26
 16.8316  15686.3  124.797
 16.8736  16179.6  127.004
 16.9156  15972.7  126.526
 16.9576  15612  125.877
 16.9996  15626.1  126.421
 17.0416  15629.3  124.815
 17.0836  15441.1  123.809
 17.1256  15159.3  122.693
 17.1676  15984.7  125.986
 17.2096  15838.2  125.28
 17.2516  15534.8  124.147
 17.2936  15094.7  122.405
 17.3356  14692.8  120.769
 17.3776  14605.1  120.597
 17.4196  14751.7  120.904
 17.4616  14922.3  121.52
 17.5036  15699.2  125.012
 17.5456  14603.6  121.2
 17.5876  14536.7  119.99
 17.6296  14624.9  120.154
 17.6716  14860.1  121.7
 17.7136  15586.8  124.785
 17.7556  14653.9  121.286
 17.7976  14903.1  122.057
 17.8396  14679.5  120.638
 17.8816  14293.6  119.575
 17.9236  14046.9  118.353
 17.9656  14467.5  120.659
 18.0076  15265.7  123.51
 18.0496  16145.8  126.117
 18.0916  22463.2  149.408
 18.1336  19298.8  138.61
 18.1756  16114.9  126.167
 18.2176  17242.5  130.756
 18.2596  14511.5  119.692
 18.3016  15465.5  123.825
 18.3436  16155.2  126.562
 18.3856  14760.1  121.098
 18.4276  14227.2  118.578
 18.4696  14701.9  120.64
 18.5116  14699.8  120.919
 18.5536  14324.4  119.725
 18.5956  14352.6  119.394
 18.6376  14617.4  120.9
 18.6796  14095.3  118.045
 18.7216  14563.4  120.485
 18.7636  13873.7  117.585
 18.8056  13608.7  116.399
 18.8476  13579.4  116.888
 18.8896  13500.8  115.898
 18.9316  14004.6  118.031
 18.9736  13649.6  116.223
 19.0156  14403.1  119.792
 19.0576  14250  118.015
 19.0996  13866.6  117.121
 19.1416  13780.2  117.138
 19.1836  13603.5  116.001
 19.2256  13259.4  114.728
 19.2676  13538.8  116.028
 19.3096  13415.4  115.735
 19.3516  13457.9  115.699
 19.3936  13652.2  116.614
 19.4356  13340.9  115.14
 19.4776  13577.9  116.266
 19.5196  13390.6  115.312
 19.5616  13541.3  116.212
 19.6036  13582.6  115.896
 19.6456  13621.7  116.18
 19.6876  14193.3  118.238
 19.7296  13393.1  115.295
 19.7716  13409  115.532
 19.8136  13629.6  116.671
 19.8556  14041.5  117.907
 19.8976  14294.5  119.033
 19.9396  13962.1  117.224
 19.9816  14274.8  118.772
 20.0236  14726.1  120.853
 20.0656  13883.4  117.343
 20.1076  13492.9  116.123
 20.1496  13204  114.886
 20.1916  13469.7  115.518
 20.2336  13528  115.743
 20.2756  12949.8  113.657
 20.3176  12946  113.396
 20.3596  13034.2  113.766
 20.4016  13166.3  114.14
 20.4436  13181.2  114.759
 20.4856  12862  113.145
 20.5276  12923.2  113.869
 20.5696  12902.5  113.353
 20.6116  13036.5  114.109
 20.6536  12733.6  112.29
 20.6956  12844.4  112.901
 20.7376  12857.8  113.198
 20.7796  12717.7  112.27
 20.8216  12963  113.055
 20.8636  13200.7  114.451
 20.9056  14685.5  120.668
 20.9476  13218.4  114.318
 20.9896  14350.8  118.974
 21.0316  12994.5  113.123
 21.0736  13248.4  114.735
 21.1156  13776.4  117.169
 21.1576  12917.8  113.505
 21.1996  12656.1  112.326
 21.2416  12520.6  111.553
 21.2836  13070.7  113.945
 21.3256  12737.8  112.559
 21.3676  12801.2  112.402
 21.4096  13276.2  114.845
 21.4516  12630.8  111.84
 21.4936  12338.2  110.779
 21.5356  12732.9  112.486
 21.5776  12768  112.474
 21.6196  12789.9  112.602
 21.6616  12969.7  113.489
 21.7036  12548.8  111.409
 21.7456  12382  110.741
 21.7876  12197.8  109.672
 21.8296  12208.4  109.579
 21.8716  12247.3  109.974
 21.9136  12643.4  111.942
 21.9556  12893.7  112.718
 21.9976  12587.3  111.384
 22.0396  12324.3  110.469
 22.0816  12395.8  111.324
 22.1236  12956.7  113.258
 22.1656  12574.3  111.697
 22.2076  12430.2  110.551
 22.2496  12488.8  110.836
 22.2916  12612.3  111.261
 22.3336  12397.5  111.031
 22.3756  12495.9  111.195
 22.4176  12227.3  109.852
 22.4596  12013.4  109.463
 22.5016  12568.1  111.438
 22.5436  12332.9  110.292
 22.5856  12488.1  111.225
 22.6276  12302.8  110.534
 22.6696  12121.1  110.057
 22.7116  12256.6  110.188
 22.7536  12206.8  109.944
 22.7956  12338.5  109.871
 22.8376  12118.6  109.403
 22.8796  12205.7  109.594
 22.9216  12215.7  110.185
 22.9636  12235.6  109.437
 23.0056  12269.7  109.722
 23.0476  12511.6  111.368
 23.0896  12714.4  111.641
 23.1316  12616.7  111.648
 23.1736  12252.6  112.921
 23.2156  12391.1  110.952
 23.2576  12257.5  110.471
 23.2996  12259.4  110.285
 23.3416  12161.9  110.341
 23.3836  12228.9  109.892
 23.4256  12214.3  109.932
 23.4676  12331.9  110.172
 23.5096  12405.2  111.173
 23.5516  12210  109.59
 23.5936  12446.1  111.533
 23.6356  12594.8  111.876
 23.6776  12396.5  111.203
 23.7196  12018.3  109.276
 23.7616  12266.5  110.122
 23.8036  12154.1  109.643
 23.8456  12099  108.984
 23.8876  11920.7  108.509
 23.9296  11901.2  108.897
 23.9716  12014.9  108.637
 24.0136  12185.7  110.292
 24.0556  11845.6  108.48
 24.0976  12022.6  109.099
 24.1396  11832  110.857
 24.1816  11772.1  109.008
 24.2236  11858.4  109.016
 24.2656  11913.8  108.751
 24.3076  11958.8  109.201
 24.3496  12099.8  109.743
 24.3916  12040.5  109.515
 24.4336  11895.8  109.067
 24.4756  11827.1  108.624
 24.5176  11436.6  106.468
 24.5596  11317.6  106.221
 24.6016  11402.3  106.716
 24.6436  11599.5  107.129
 24.6856  11575.5  106.78
 24.7276  11730.6  107.816
 24.7696  11380.5  106.302
 24.8116  11603.8  107.525
 24.8536  11437.5  106.744
 24.8956  11359.5  106.118
 24.9376  11293  105.978
 24.9796  11245.5  105.873
 25.0216  11254.5  106.022
 25.0636  11318.7  105.982
 25.1056  11112  105.711
 25.1476  11172.9  107.657
 25.1896  11140.5  105.994
 25.2316  11330.9  106.165
 25.2736  11231.5  105.354
 25.3156  10880.3  103.766
 25.3576  10978.4  104.644
 25.3996  10913.5  104.321
 25.4416  11057.7  104.989
 25.4836  10887.4  104.7
 25.5256  11009.4  104.652
 25.5676  11058  104.613
 25.6096  10785.9  103.883
 25.6516  10910.9  103.989
 25.6936  10829.8  103.901
 25.7356  10873.6  104.252
 25.7776  10964.4  104.367
 25.8196  10867.8  104.075
 25.8616  10983.5  104.548
 25.9036  11070.8  104.428
 25.9456  10714.7  103.322
 25.9876  10644.1  102.901
 26.0296  10885.1  103.724
 26.0716  10778.6  103.626
 26.1136  11079.6  105.007
 26.1556  11131.9  104.633
 26.1976  10695.4  103.477
 26.2396  10853.6  103.393
 26.2816  10460.5  102.103
 26.3236  10980  104.769
 26.3656  10710.8  103.199
 26.4076  10671.4  103.219
 26.4496  11106.3  104.787
 26.4916  10853.7  103.598
 26.5336  10681.7  103.095
 26.5756  11097.2  104.937
 26.6176  10846.6  103.805
 26.6596  10653.3  103.173
 26.7016  10503.7  102.212
 26.7436  10318.2  101.426
 26.7856  10307.8  101.364
 26.8276  10196.3  100.773
 26.8696  10337  101.34
 26.9116  10429.7  101.736
 26.9536  10268.3  100.991
 26.9956  10339.3  101.374
 27.0376  10131.3  100.552
 27.0796  10351.8  101.383
 27.1216  10391.2  101.641
 27.1636  10230.8  101.027
 27.2056  10330.5  101.4
 27.2476  10280.4  101.153
 27.2896  10236.6  101.052
 27.3316  10111.4  100.143
 27.3736  10149.2  100.6
 27.4156  10032.4  99.8522
 27.4576  10156.4  100.705
 27.4996  10198.1  100.497
 27.5416  10174.1  100.703
 27.5836  10151.1  100.408
 27.6256  10384.5  101.715
 27.6676  10328.9  101.471
 27.7096  10246.4  100.931
 27.7516  10986.1  104.671
 27.7936  10857.9  104.224
 27.8356  10540.8  102.312
 27.8776  10362.9  101.474
 27.9196  10193.5  100.507
 27.9616  10473.3  102.069
 28.0036  10311.8  101.249
 28.0456  9971.43  99.6975
 28.0876  10003  99.9447
 28.1296  9986.68  99.7035
 28.1716  9999.48  99.7729
 28.2136  10093.6  100.215
 28.2556  9849.34  99.1015
 28.2976  9882.63  99.2589
 28.3396  10047.1  99.8539
 28.3816  9928.39  99.2752
 28.4236  10168.9  100.631
 28.4656  9730.13  98.4625
 28.5076  9686.62  97.8854
 28.5496  9649.62  97.9582
 28.5916  9711  98.0802
 28.6336  9632.88  98.0115
 28.6756  9836.28  98.255
 28.7176  9775.58  98.4919
 28.7596  9511.92  97.0597
 28.8016  9618  97.6361
 28.8436  9643.13  97.9996
 28.8856  9709.75  98.1893
 28.9276  9773.19  98.7536
 28.9696  9527.7  97.1683
 29.0116  9579.33  97.6168
 29.0536  9456.85  97.185
 29.0956  9597.45  97.6241
 29.1376  9648.67  97.85
 29.1796  9484.01  97.0442
 29.2216  9425.89  96.6035
 29.2636  9528.55  97.1983
 29.3056  9508.96  96.8957
 29.3476  9544.84  97.5965
 29.3896  9584.2  97.8915
 29.4316  9729.86  97.9846
 29.4736  9452.18  96.6399
 29.5156  9618.51  97.4054
 29.5576  9434.43  97.2016
 29.5996  9597.27  97.2966
 29.6416  9409.88  96.4544
 29.6836  9580.91  97.259
 29.7256  9402.92  96.9111
 29.7676  9533.26  97.2429
 29.8096  9355.98  96.2776
 29.8516  9340.17  96.5286
 29.8936  9493.25  97.4044
 29.9356  9416.58  96.7708
 29.9776  9439.92  97.0418
 30.0196  9432.68  96.3893
 30.0616  9536.47  97.3
 30.1036  9396.4  96.4053
 30.1456  9318.88  96.2437
 30.1876  9295.28  96.0958
 30.2296  9385.81  96.5149
 30.2716  9369.38  96.0703
 30.3136  9393.31  97.0458
 30.3556  9422.52  97.1943
 30.3976  9262.17  97.8699
 30.4396  9489.57  96.3891
 30.4816  9294.13  95.0085
 30.5236  9325.64  95.1836
 30.5656  9327.11  95.8419
 30.6076  9311.3  95.5476
 30.6496  9206.04  95.0334
 30.6916  9218  95.1958
 30.7336  9163.37  95.0567
 30.7756  9205.3  95.366
 30.8176  9160.92  95.0519
 30.8596  9073.04  94.3684
 30.9016  9142.38  94.5911
 30.9436  9196.84  95.1051
 30.9856  9235.44  95.4035
 31.0276  9042.68  94.0313
 31.0696  9168.84  95.2464
 31.1116  9096.18  94.8458
 31.1536  9503.41  96.8353
 31.1956  9153.67  95.1165
 31.2376  8952.99  94.0815
 31.2796  9180.74  94.807
 31.3216  9089.25  94.2745
 31.3636  9015.38  94.573
 31.4056  9100.14  96.3298
 31.4476  8996.79  93.6925
 31.4896  9065.7  94.5428
 31.5316  9397.19  95.6583
 31.5736  10129.7  99.1232
 31.6156  9881.09  97.9228
 31.6576  9346.6  95.3352
 31.6996  9347.11  95.0062
 31.7416  9278.65  95.5842
 31.7836  9199.9  94.3344
 31.8256  9026.46  93.7053
 31.8676  9272.09  94.9728
 31.9096  8898  93.255
 31.9516  8919.93  93.6607
 31.9936  8896.65  93.3699
 32.0356  8960.31  93.7657
 32.0776  9030.56  94.0179
 32.1196  8920.47  93.4386
 32.1616  8924.14  93.0135
 32.2036  8762.25  92.6577
 32.2456  8827.84  93.3911
 32.2876  8917.8  93.3666
 32.3296  8743.75  92.4134
 32.3716  8861.65  93.1548
 32.4136  8937.12  93.7573
 32.4556  9074.04  93.849
 32.4976  8958.08  93.1988
 32.5396  8900.88  92.9284
 32.5816  8745.34  92.2269
 32.6236  8814.4  92.6703
 32.6656  8909.5  93.6957
 32.7076  8880.38  93.2019
 32.7496  8698.68  91.9213
 32.7916  8846.76  92.6586
 32.8336  8787.2  92.442
 32.8756  8789.57  92.1712
 32.9176  8832.87  92.8883
 32.9596  8893.78  93.2748
 33.0016  8909.51  93.1591
 33.0436  8809.73  92.8088
 33.0856  8751.66  92.5681
 33.1276  8657.96  91.8105
 33.1696  8661.42  91.6636
 33.2116  8796.45  92.6107
 33.2536  8839.77  92.8325
 33.2956  8762.16  92.5033
 33.3376  8715.75  92.086
 33.3796  8872.99  93.0411
 33.4216  8710.33  91.7923
 33.4636  8602.57  91.3614
 33.5056  8584.58  91.503
 33.5476  8523.47  91.161
 33.5896  8758.38  92.1837
 33.6316  8567.55  91.4839
 33.6736  8515.92  91.4584
 33.7156  8516.99  91.5035
 33.7576  8632.38  91.7429
 33.7996  8757.71  92.1839
 33.8416  8503.49  91.0122
 33.8836  8667.94  91.6734
 33.9256  8591.72  91.3277
 33.9676  8667.26  91.6226
 34.0096  8396.08  90.4882
 34.0516  8510.07  90.7497
 34.0936  8463.96  90.7586
 34.1356  8535.38  90.8846
 34.1776  8461.79  90.5102
 34.2196  8426.2  90.4924
 34.2616  8422.83  90.6079
 34.3036  8427.51  90.8743
 34.3456  8461.23  90.821
 34.3876  8508.89  91.1279
 34.4296  8431.53  90.3168
 34.4716  8580.31  91.2508
 34.5136  8386.68  90.4233
 34.5556  8410.75  90.8024
 34.5976  8505.11  91.1411
 34.6396  8465.79  90.6183
 34.6816  8427.69  90.5203
 34.7236  8501.62  90.7121
 34.7656  8474.57  90.7597
 34.8076  8371.27  90.5264
 34.8496  8335.54  90.1922
 34.8916  8437.18  90.6112
 34.9336  8516.16  91.0077
 34.9756  8763.08  92.2154
 35.0176  8488.85  91.3003
 35.0596  8349.5  90.3665
 35.1016  8304.14  89.8959
 35.1436  8380.56  90.0039
 35.1856  8318.86  89.7967
 35.2276  8459.37  90.7284
 35.2696  8322.9  90.1799
 35.3116  8394.05  90.6617
 35.3536  8275.09  89.7549
 35.3956  8262.93  89.3738
 35.4376  8338.19  90.3261
 35.4796  8328.08  90.332
 35.5216  8269.76  89.9723
 35.5636  8100.1  89.7805
 35.6056  8307.93  89.9539
 35.6476  8273.69  89.6561
 35.6896  8374.37  90.2919
 35.7316  8243.9  89.5584
 35.7736  8222.29  89.6381
 35.8156  8173.19  89.3643
 35.8576  8207.43  89.8108
 35.8996  8402.05  90.8275
 35.9416  8367.42  90.1432
 35.9836  8189.91  89.6257
 36.0256  8363.75  90.4996
 36.0676  8291.02  89.8663
 36.1096  8103.49  88.9748
 36.1516  8254.75  89.6887
 36.1936  8189.53  89.188
 36.2356  8275.53  90.2912
 36.2776  8193.46  89.312
 36.3196  8171.84  88.8854
 36.3616  8176.68  89.044
 36.4036  8163.76  89.0299
 36.4456  8176.15  89.2989
 36.4876  8133.58  89.0025
 36.5296  8189.98  89.3532
 36.5716  8165.75  90.0036
 36.6136  8548.09  90.8469
 36.6556  8487.91  90.7376
 36.6976  8188.65  89.6137
 36.7396  8151.81  89.1475
 36.7816  8165.71  89.5965
 36.8236  8184.43  89.6234
 36.8656  8131.61  89.4001
 36.9076  8114.24  89.1858
 36.9496  8130.91  89.2607
 36.9916  8139.43  88.9419
 37.0336  8259.75  89.9166
 37.0756  8219.03  89.4841
 37.1176  7937.81  88.2057
 37.1596  8206.02  89.6839
 37.2016  8090  89.2772
 37.2436  8161.49  88.9876
 37.2856  8085.75  88.8281
 37.3276  8136.15  88.4571
 37.3696  8031.32  88.7668
 37.4116  8076.18  88.9182
 37.4536  8012.56  88.4386
 37.4956  8021.18  88.5274
 37.5376  7916.55  89.4681
 37.5796  7962.61  89.6907
 37.6216  7766.48  86.8785
 37.6636  7913.39  87.5925
 37.7056  7884.95  87.6298
 37.7476  7899.3  87.2425
 37.7896  7908.31  87.7942
 37.8316  7706.23  86.8304
 37.8736  7915.32  87.537
 37.9156  7944.71  87.6978
 37.9576  7848.41  87.0557
 37.9996  7726.02  86.0984
 38.0416  7814.33  87.3895
 38.0836  8101.98  88.8862
 38.1256  7914.39  87.8056
 38.1676  7788.84  87.247
 38.2096  7917.16  87.5808
 38.2516  7964.92  88.0607
 38.2936  8000.54  88.0424
 38.3356  7993.05  87.9362
 38.3776  8031.85  88.4135
 38.4196  7927.97  87.7021
 38.4616  7875.29  87.6386
 38.5036  7948.63  87.8712
 38.5456  7886.66  88.376
 38.5876  7922.15  88.6135
 38.6296  7695.57  86.32
 38.6716  7794.94  86.6711
 38.7136  7635.36  85.7215
 38.7556  7742.41  86.8135
 38.7976  7831.09  87.2528
 38.8396  7675.07  86.8256
 38.8816  7708.69  86.7873
 38.9236  7739.81  86.7839
 38.9656  7757.86  86.8018
 39.0076  7782.63  86.3547
 39.0496  7680.05  86.3116
 39.0916  7763.28  86.4274
 39.1336  7670.91  86.3236
 39.1756  7687.19  86.4818
 39.2176  7703.58  87.1016
 39.2596  7752.79  87.2965
 39.3016  7609.51  86.0547
 39.3436  7609.01  86.482
 39.3856  7765.13  86.8187
 39.4276  7760.42  87.276
 39.4696  7671.4  86.4124
 39.5116  7699.86  87.0741
 39.5536  7909.53  88.6875
 39.5956  7833.28  87.3678
 39.6376  7853.41  87.4876
 39.6796  7788.19  86.8641
 39.7216  7956.48  87.8962
 39.7636  7723.45  87.1627
 39.8056  7778.13  87.2446
 39.8476  7752.46  87.3558
 39.8896  7703.24  86.703
 39.9316  7689.05  86.8836
 39.9736  7885.29  87.5519
 40.0156  7847.01  87.1652
 40.0576  7798.47  87.2536
 40.0996  7908.77  87.0485
 40.1416  7852.18  87.5255
 40.1836  7884.1  87.5934
 40.2256  7891.08  87.686
 40.2676  7810.68  87.4102
 40.3096  7850.8  87.4896
 40.3516  7875.07  87.7313
 40.3936  7963.3  87.7836
 40.4356  7823.03  87.2001
 40.4776  7899.81  87.8691
 40.5196  7914.73  88.2423
 40.5616  7772.71  87.0917
 40.6036  7753.35  87.2411
 40.6456  7780.43  87.0097
 40.6876  7912.06  87.7184
 40.7296  7923.25  87.9275
 40.7716  7935.55  88.1173
 40.8136  7778.06  87.1877
 40.8556  7872.57  87.8411
 40.8976  7816.12  87.4523
 40.9396  7806.79  87.7434
 40.9816  7917.68  87.6563
 41.0236  7878.62  87.2221
 41.0656  7906.52  87.9094
 41.1076  7830.25  87.2632
 41.1496  7845.36  87.2556
 41.1916  7838.83  87.5408
 41.2336  7772.12  87.1505
 41.2756  7878.03  87.3525
 41.3176  7731.57  87.1398
 41.3596  7895.25  87.7968
 41.4016  7792.91  87.4823
 41.4436  7784.3  87.2212
 41.4856  7833.74  87.662
 41.5276  7777.59  87.3625
 41.5696  7796.37  87.1042
 41.6116  7786.49  87.434
 41.6536  7723.2  86.9435
 41.6956  7917.07  88.009
 41.7376  7716.77  86.9844
 41.7796  7822.15  87.4683
 41.8216  7772.71  87.421
 41.8636  7830.47  87.689
 41.9056  7757.06  87.064
 41.9476  7834.86  87.7322
 41.9896  7843.78  87.4363
 42.0316  7882.24  87.7404
 42.0736  7892.05  87.9426
 42.1156  7697.21  86.6582
 42.1576  7751.75  87.0647
 42.1996  7864.06  87.8352
 42.2416  7793.4  87.0267
 42.2836  7696.47  86.5853
 42.3256  7776.48  87.1555
 42.3676  7786.15  87.0111
 42.4096  7777.03  86.9221
 42.4516  7649.06  86.2881
 42.4936  7648.32  86.3598
 42.5356  7725.06  86.9281
 42.5776  7768.38  87.1043
 42.6196  7777.26  87.211
 42.6616  7667.6  86.7631
 42.7036  7793.89  86.8605
 42.7456  7814.24  87.3222
 42.7876  7654.32  86.535
 42.8296  7654.72  86.3653
 42.8716  7573.53  86.0635
 42.9136  7676.91  86.4055
 42.9556  7560.82  85.9137
 42.9976  7741.64  86.9026
 43.0396  7736.96  86.6077
 43.0816  7674.77  86.6307
 43.1236  7531.17  85.8783
 43.1656  7560.41  85.8769
 43.2076  7633  86.3842
 43.2496  7599.76  86.0125
 43.2916  7599.41  86.3778
 43.3336  7625.48  86.3667
 43.3756  7620.47  86.0841
 43.4176  7472.52  85.3339
 43.4596  7546.12  85.6093
 43.5016  7614.3  86.4012
 43.5436  7586.32  86.141
 43.5856  7501.58  85.6839
 43.6276  7558.63  85.9071
 43.6696  7562.16  86.1859
 43.7116  7701.4  86.4705
 43.7536  7601.74  86.3908
 43.7956  7446.13  86.6881
 43.8376  7525.49  85.6997
 43.8796  7465.11  85.4409
 43.9216  7549.05  85.8404
 43.9636  7581.94  86.1344
 44.0056  7506.06  85.9288
 44.0476  7524.29  85.6685
 44.0896  7326.65  84.87
 44.1316  7635.72  86.1646
 44.1736  7430.35  85.1164
 44.2156  7389.06  84.736
 44.2576  7507.11  85.7387
 44.2996  7434.11  85.2862
 44.3416  7552.8  85.7301
 44.3836  7280.42  84.4918
 44.4256  7308.39  84.305
 44.4676  7443.54  85.2378
 44.5096  7388.46  85.0633
 44.5516  7313.21  84.5882
 44.5936  7270.39  84.3005
 44.6356  7476.69  85.2268
 44.6776  7494.93  85.6481
 44.7196  7423.61  85.5485
 44.7616  7448.33  86.9925
 44.8036  7280.01  84.649
 44.8456  7373.09  85.1914
 44.8876  7339.5  84.8518
 44.9296  7425.42  84.8075
 44.9716  7224.94  84.0659
 45.0136  7202.62  83.8806
 45.0556  7308.39  84.5755
 45.0976  7306.4  84.6194
 45.1396  7215.02  83.8516
 45.1816  7169.85  83.5335
 45.2236  7445.09  85.0145
 45.2656  7112.45  83.5857
 45.3076  7205.04  83.9232
 45.3496  7154.17  83.9193
 45.3916  7226.32  84.5978
 45.4336  7293.12  84.8316
 45.4756  7208.65  84.2029
 45.5176  7264.2  84.1404
 45.5596  7403.93  85.0729
 45.6016  7147.05  83.9915
 45.6436  7126.99  83.0688
 45.6856  7061.94  83.325
 45.7276  7119.97  84.9739
 45.7696  7134.51  84.7297
 45.8116  7274.92  85.0059
 45.8536  7288.55  84.9749
 45.8956  7207.23  83.8595
 45.9376  7151.07  83.0081
 45.9796  7173.56  83.8072
 46.0216  7242.85  84.5562
 46.0636  7215.3  83.5474
 46.1056  7275.5  83.8811
 46.1476  7127.44  83.6075
 46.1896  7156.6  83.9267
 46.2316  7067.94  83.2779
 46.2736  7125  83.804
 46.3156  7148.49  83.7029
 46.3576  7148.49  83.9056
 46.3996  7105.1  83.8078
 46.4416  7227.62  84.0924
 46.4836  7072.93  83.5509
 46.5256  7215.02  84.325
 46.5676  7133.72  83.9609
 46.6096  7210.86  84.3551
 46.6516  7247.85  83.6168
 46.6936  7160.73  83.5891
 46.7356  7198.99  83.914
 46.7776  7087.38  84.1065
 46.8196  7153.99  84.2449
 46.8616  6995.25  83.1132
 46.9036  7008.44  82.8505
 46.9456  7007.27  82.4961
 46.9876  7035.01  82.74
 47.0296  6911.16  82.6815
 47.0716  6947.43  82.7194
 47.1136  6968.9  82.5282
 47.1556  6951.92  82.3031
 47.1976  6978.93  82.6167
 47.2396  6971.26  82.8872
 47.2816  6969.46  82.5768
 47.3236  6960.79  82.8817
 47.3656  7009.67  83.117
 47.4076  6988.58  82.7222
 47.4496  6894.77  82.3277
 47.4916  6933.67  82.7443
 47.5336  6919.37  82.4814
 47.5756  7029.32  83.2536
 47.6176  6894.2  82.3433
 47.6596  6978.01  82.566
 47.7016  7022.46  82.644
 47.7436  7048.57  83.1401
 47.7856  6993.84  82.8241
 47.8276  6883.3  82.2198
 47.8696  6883.33  82.3115
 47.9116  7027.38  82.8842
 47.9536  6972.66  82.5072
 47.9956  6808.5  82.2168
 48.0376  6896.75  82.5286
 48.0796  6993.01  83.2241
 48.1216  6988.06  83.0226
 48.1636  6976.98  82.5306
 48.2056  6984.65  82.8411
 48.2476  6946.56  82.9128
 48.2896  6947.47  82.8353
 48.3316  6831.17  82.0873
 48.3736  6873.94  82.3574
 48.4156  6803.36  81.796
 48.4576  6766.56  81.8546
 48.4996  6919.14  82.2416
 48.5416  6900.76  82.4414
 48.5836  6893.68  82.0835
 48.6256  6838.94  81.9495
 48.6676  6886.5  82.7454
 48.7096  6881.2  81.9965
 48.7516  6878.39  82.1316
 48.7936  6759.47  81.4853
 48.8356  6785.79  81.6896
 48.8776  6776.14  82.1877
 48.9196  6977.14  82.7706
 48.9616  6912.31  82.7661
 49.0036  6848.04  82.7195
 49.0456  6837.39  82.6406
 49.0876  6877.94  82.4238
 49.1296  6799.3  82.1188
 49.1716  6717.06  81.4909
 49.2136  6870.98  82.3477
 49.2556  6829.99  82.1309
 49.2976  6868.63  82.4214
 49.3396  6831.16  82.2586
 49.3816  6878  81.9735
 49.4236  6763.33  81.7107
 49.4656  6723  81.4876
 49.5076  6710.21  81.1591
 49.5496  6763.67  81.547
 49.5916  6707.8  81.1242
 49.6336  6588.57  80.5964
 49.6756  6679.09  81.3774
 49.7176  6665.51  81.2383
 49.7596  6691.78  81.1722
 49.8016  6831.4  81.9335
 49.8436  6688.22  81.3612
 49.8856  6684.6  81.3422
 49.9276  6632.25  81.1231
 49.9696  6747.74  81.8086
 50.0116  6760.04  82.0161
 50.0536  6617.04  81.0837
 50.0956  6627.27  81.2234
 50.1376  6704.23  81.3918
 50.1796  6618.36  81.1299
 50.2216  6554.87  80.7364
 50.2636  6548.48  80.3315
 50.3056  6572.9  80.6509
 50.3476  6612.65  80.914
 50.3896  6526.43  80.3523
 50.4316  6677.43  81.1221
 50.4736  6514.44  80.3363
 50.5156  6653.46  81.1868
 50.5576  6615.22  80.7048
 50.5996  6579.41  80.7678
 50.6416  6543.05  80.4769
 50.6836  6556.35  80.6114
 50.7256  6627.71  80.9848
 50.7676  6563.8  80.8825
 50.8096  6646.45  80.9524
 50.8516  6500.56  80.4606
 50.8936  6485.57  80.158
 50.9356  6545.23  80.627
 50.9776  6620.64  81.245
 51.0196  6454.92  80.3499
 51.0616  6409.2  79.4105
 51.1036  6663.37  81.3227
 51.1456  6557.59  80.5839
 51.1876  6516.67  79.6953
 51.2296  6475.99  80.0676
 51.2716  6439.11  79.5488
 51.3136  6344.3  79.406
 51.3556  6511.81  80.0785
 51.3976  6467.15  79.9508
 51.4396  6321.11  79.3366
 51.4816  6459.94  80.0647
 51.5236  6446  80.0593
 51.5656  6372.7  79.2164
 51.6076  6497.7  80.0647
 51.6496  6426  79.8108
 51.6916  6343.66  79.6454
 51.7336  6467.35  80.5106
 51.7756  6392.39  79.7466
 51.8176  6287.46  79.1911
 51.8596  6336.28  79.5151
 51.9016  6604.6  80.7911
 51.9436  6413.97  81.0366
 51.9856  6298.87  80.7242
 52.0276  6535.55  80.7463
 52.0696  6399.05  79.9613
 52.1116  6377.6  79.9418
 52.1536  6409.48  79.9787
 52.1956  6484.88  79.9822
 52.2376  6439.54  79.866
 52.2796  6401.85  79.4489
 52.3216  6313.62  79.5675
 52.3636  6415.73  79.7978
 52.4056  6314.22  79.0112
 52.4476  6302.69  79.3099
 52.4896  6377.61  79.826
 52.5316  6323.26  79.5278
 52.5736  6357.75  79.4883
 52.6156  6315.57  79.5768
 52.6576  6353.5  79.2892
 52.6996  6308.82  79.9524
 52.7416  6271.67  79.5792
 52.7836  6318.75  79.7586
 52.8256  6451.75  79.8315
 52.8676  6218.3  78.9244
 52.9096  6348.01  79.826
 52.9516  6312.51  79.9746
 52.9936  6170.29  79.4451
 53.0356  6196.42  78.6395
 53.0776  6084.81  78.1769
 53.1196  6131.78  78.603
 53.1616  6252.08  79.4187
 53.2036  6184.49  78.9365
 53.2456  6008.92  77.9134
 53.2876  6160.63  78.6031
 53.3296  6185.43  79.073
 53.3716  6255.87  79.2742
 53.4136  6203.71  79.0924
 53.4556  6143.07  78.7365
 53.4976  6115.75  78.4128
 53.5396  6149.52  79.0176
 53.5816  6111.64  78.4136
 53.6236  5997.46  78.0083
 53.6656  6074.34  78.143
 53.7076  6133.89  78.4889
 53.7496  6066.27  78.1647
 53.7916  6180.2  79.0215
 53.8336  6080.84  78.2859
 53.8756  6108.76  79.0069
 53.9176  6203.64  78.9785
 53.9596  6200.46  79.7173
 54.0016  6151.72  78.7471
 54.0436  6125.4  78.7907
 54.0856  6166.99  78.4867
 54.1276  6113.84  78.347
 54.1696  6198.46  79.0547
 54.2116  6178.31  78.6819
 54.2536  6138.21  78.2547
 54.2956  6148.64  78.3631
 54.3376  6084.37  78.4263
 54.3796  6122.72  78.5777
 54.4216  6240.54  79.3692
 54.4636  6121.25  78.5757
 54.5056  6094.51  78.2229
 54.5476  6080.72  78.464
 54.5896  6114.28  78.5086
 54.6316  6140.62  78.542
 54.6736  6135.38  78.5853
 54.7156  6096.6  78.3574
 54.7576  6022.54  77.8763
 54.7996  6100.64  78.5214
 54.8416  6151.3  78.8859
 54.8836  5996.96  77.9979
 54.9256  6054  78.1279
 54.9676  6080.77  78.1592
 55.0096  6047.6  78.012
 55.0516  6135.56  78.8084
 55.0936  6045.29  77.856
 55.1356  6086.84  78.1759
 55.1776  6006.31  77.9093
 55.2196  6070.53  78.117
 55.2616  6111.35  78.5861
 55.3036  6049.01  78.347
 55.3456  6010.75  78.2404
 55.3876  6050.54  78.2508
 55.4296  6145.71  78.8376
 55.4716  6067.84  78.3722
 55.5136  6077.82  78.1975
 55.5556  6076.75  78.256
 55.5976  6052.58  78.1589
 55.6396  6021.61  77.831
 55.6816  6025.34  77.8136
 55.7236  6033.3  77.9073
 55.7656  6237.81  78.9736
 55.8076  6081.55  77.966
 55.8496  6006.37  77.8965
 55.8916  5981.89  77.8335
 55.9336  6035.48  77.9921
 55.9756  5995.96  77.6382
 56.0176  6059.31  78.1929
 56.0596  6110.52  78.5068
 56.1016  6121.18  78.5893
 56.1436  6007.15  78.1104
 56.1856  6038  78.0583
 56.2276  6013.62  77.9525
 56.2696  6057.49  78.2086
 56.3116  5956.37  77.9417
 56.3536  5964.22  77.6675
 56.3956  5953.01  77.5848
 56.4376  6040.77  78.1876
 56.4796  6050.54  78.0578
 56.5216  5922.49  77.592
 56.5636  6145.06  78.6291
 56.6056  5992.4  77.8666
 56.6476  5911.17  76.9821
 56.6896  6008.83  78.0422
 56.7316  5979.24  77.7742
 56.7736  6030.95  78.1023
 56.8156  5967.03  77.6852
 56.8576  6002.6  77.8653
 56.8996  6026.3  77.9567
 56.9416  5920.33  77.5635
 56.9836  5904.49  76.9797
 57.0256  6003.14  77.9321
 57.0676  5971.57  77.8416
 57.1096  5985.36  77.7331
 57.1516  6048.41  78.2073
 57.1936  5949.89  77.3165
 57.2356  6036.86  78.2018
 57.2776  5972.9  77.7381
 57.3196  6077.23  78.7843
 57.3616  6038.69  78.0308
 57.4036  5954.3  77.5435
 57.4456  5912.13  77.2307
 57.4876  6060.56  78.0654
 57.5296  5960.14  77.743
 57.5716  5861.82  77.0853
 57.6136  6029.93  78.0075
 57.6556  5969.19  77.7455
 57.6976  6094.23  78.3852
 57.7396  5917.91  77.6132
 57.7816  5851.73  77.5259
 57.8236  5965  78.0664
 57.8656  5962.36  77.7094
 57.9076  5949.44  77.6533
 57.9496  5920.88  77.8171
 57.9916  5870.7  77.0042
 58.0336  5991.79  78.0663
 58.0756  5945.57  77.3927
 58.1176  5957.02  77.483
 58.1596  5899.44  77.664
 58.2016  6076.43  78.0566
 58.2436  5973.43  77.8004
 58.2856  5891.23  77.186
 58.3276  5938.83  77.8629
 58.3696  5923.47  77.515
 58.4116  5988.28  77.8052
 58.4536  5875.17  76.9541
 58.4956  6008.09  78.0007
 58.5376  6063.53  77.9308
 58.5796  6014.92  78.0407
 58.6216  6008.97  77.8217
 58.6636  5994.15  77.9359
 58.7056  5995.76  77.8024
 58.7476  5983.29  78.1638
 58.7896  5929.84  77.4594
 58.8316  5925.11  77.425
 58.8736  5972.9  77.7446
 58.9156  5932.33  77.5247
 58.9576  6033.93  78.4999
 58.9996  6025.23  77.6866
 59.0416  6080.77  78.4178
 59.0836  5872.32  76.9881
 59.1256  5915.41  77.952
 59.1676  5949.36  78.4926
 59.2096  6045.31  78.4345
 59.2516  6082.63  78.2557
 59.2936  6110.6  78.7654
 59.3356  6146.53  78.8733
 59.3776  5964.53  77.8648
 59.4196  6015.54  78.1336
 59.4616  5944.28  77.53
 59.5036  5956.03  77.6397
 59.5456  6048.53  77.9354
 59.5876  6039.77  78.0701
 59.6296  5903.39  77.252
 59.6716  6066.59  78.3707
 59.7136  6052.59  78.2685
 59.7556  5891.64  77.3556
 59.7976  5875.1  76.9926
 59.8396  6006.38  77.7426
 59.8816  6032.46  78.4567
 59.9236  6047.6  78.1981
 59.9656  5987.25  78.0666
 60.0076  5992.26  77.459
 60.0496  6005.02  78.044
 60.0916  6149.48  78.3898
 60.1336  5952.52  78.2237
 60.1756  6033.52  79.938
 60.1996  0.0000000E+00  0.0000000E+00