File: docs/examples/opeando_xrd/IS17_D/Data/IS17_D/17_Db_f00103.xye
# /beamlines/bl04/projects/cycle2025-II/20250340211-lsimonelli/DATA/IS17_D/17_Db_f00103.xye : mythproc.py merge -s 0.006 -l 0.5 -f /beamlines/bl04/inhouse/ff/FlatField/ff_20Nov2024rod8mm60s_17keV.raw -b True -c true -o xye /beamlines/bl04/projects/cycle2025-II/20250340211-lsimonelli/DATA/IS17_D/17_Db_00103.dat
# IsMon = [6767270, 6773934, 6771926]  IsPos = [-1.4999, -2.4885, -3.4988]
# Wave = 0.4962  CalPath /beamlines/bl04/projects/cycle2025-II/20250340211-lsimonelli/DATA/Align/Si_Pos1_25keV_f00001.cal
# Date = 2025-09-24_22:23:56 Dt = 4.8000  Bin = 0.0060  <imon> = 6771043 +/- 2791 (Min/Max) 6767270 / 6773934
# icurr 251.6904  mocoIn 1.7171E-05  mocoOut 0.8058  i15 7.09914e+06  imon 6.77104e+06  i7 3.6667  iEMpd_timer 4.8000  iEMpd_1 3.3158E-08  iEMpd_2 7.8388E-08  iEMpd_3 1.7087E-08  iEMpd_4 4.8286E-08  iEMhp_timer 4.8000  iEMhp_1 4.9178E-06  iEMhp_2 -2.5569E-08  iEMhp_3 -2.4414E-08  iEMhp_4 -2.1047E-08
#      9776
 1.5856  44802  217.407
 1.6276  51669.1  229.468
 1.6696  57485.6  241.186
 1.7116  65109.6  257.184
 1.7536  72485.2  270.204
 1.7956  76876.1  278.963
 1.8376  73402.6  273.02
 1.8796  63308.5  251.694
 1.9216  52682.1  230.511
 1.9636  45426.2  213.172
 2.0056  41411.8  202.746
 2.0476  38842.9  198.509
 2.0896  37455.3  193.788
 2.1316  36169.7  189.518
 2.1736  34494.2  186.544
 2.2156  35420.6  187.516
 2.2576  34031.4  184.462
 2.2996  33040.6  182.423
 2.3416  33305.1  181.688
 2.3836  32761.4  180.311
 2.4256  31714  177.984
 2.4676  31191  176.26
 2.5096  31216.8  176.391
 2.5516  29648  175.805
 2.5936  29894.1  172.989
 2.6356  29260.4  171.868
 2.6776  29204.1  170.573
 2.7196  28769.3  169.787
 2.7616  28816.4  169.719
 2.8036  28225.6  168.138
 2.8456  28379.6  169.26
 2.8876  27719.1  167.114
 2.9296  27228.7  165.791
 2.9716  26907.7  164.283
 3.0136  26407  162.809
 3.0556  26796  164.417
 3.0976  26717.4  163.067
 3.1396  26199.7  162.211
 3.1816  25931.6  161.307
 3.2236  25661.6  160.457
 3.2656  25440.9  158.784
 3.3076  25328.7  159.947
 3.3496  25751.5  160.41
 3.3916  25771.7  160.054
 3.4336  26204.7  161.986
 3.4756  26620.4  163.22
 3.5176  27190.1  164.705
 3.5596  26910.2  166.355
 3.6016  26893.9  163.872
 3.6436  25969.8  162.148
 3.6856  25722.7  159.661
 3.7276  24616  157.273
 3.7696  24359.7  156.648
 3.8116  24094.2  155.688
 3.8536  24286  156.239
 3.8956  24106.1  155.474
 3.9376  23915.2  155.128
 3.9796  23791.3  154.211
 4.0216  23908.2  153.598
 4.0636  23822.4  154.817
 4.1056  23859.7  154.582
 4.1476  24306.8  156.362
 4.1896  24192.7  155.839
 4.2316  24359.2  156.2
 4.2736  24750.9  157.243
 4.3156  24833.3  157.743
 4.3576  25731.8  160.46
 4.3996  25754  160.811
 4.4416  26494.8  162.691
 4.4836  26852.7  163.945
 4.5256  27463.1  166.426
 4.5676  27329.4  166.277
 4.6096  27807.9  166.367
 4.6516  28112.5  166.961
 4.6936  28236.4  168.17
 4.7356  28412.7  168.511
 4.7776  28304.4  168.014
 4.8196  28149.6  168.229
 4.8616  27426.5  165.663
 4.9036  27395.1  165.176
 4.9456  27152.1  165.089
 4.9876  26447.2  162.829
 5.0296  26774.3  163.678
 5.0716  26594.3  163.726
 5.1136  26882.1  164.483
 5.1556  27056  164.459
 5.1976  27730.3  166.507
 5.2396  27503.2  165.504
 5.2816  27602.3  166.29
 5.3236  27576.1  165.896
 5.3656  27116.5  165.444
 5.4076  26881.3  164.869
 5.4496  26849.3  164.25
 5.4916  27124.7  164.852
 5.5336  26819.6  163.924
 5.5756  26838.3  164.012
 5.6176  27231  164.634
 5.6596  27379.9  166.089
 5.7016  27388.5  165.362
 5.7436  27721.4  166.641
 5.7856  27261.4  165.323
 5.8276  27457.8  165.622
 5.8696  27587.1  166.189
 5.9116  27594.9  166.817
 5.9536  28099.1  168.084
 5.9956  28374  168.279
 6.0376  28272.8  168.599
 6.0796  28435.9  168.916
 6.1216  28391.5  168.977
 6.1636  28627.7  168.729
 6.2056  28408.2  168.761
 6.2476  28909.8  170.127
 6.2896  29067.9  170.261
 6.3316  29142.4  170.666
 6.3736  29053.3  170.287
 6.4156  29326.1  170.982
 6.4576  29473.4  171.014
 6.4996  29297.4  170.974
 6.5416  29327.1  171.201
 6.5836  29302.1  171.36
 6.6256  29599.8  171.791
 6.6676  30113.3  172.836
 6.7096  30331.3  174.344
 6.7516  30297.7  173.894
 6.7936  30656  174.318
 6.8356  30681.4  174.487
 6.8776  30918.1  175.957
 6.9196  31045.5  176.73
 6.9616  31269.9  176.775
 7.0036  31928.9  178.313
 7.0456  31828.6  177.33
 7.0876  31769.9  178.854
 7.1296  32033.6  178.722
 7.1716  31826.7  177.692
 7.2136  31487.5  176.518
 7.2556  31738  177.372
 7.2976  31871.1  178.24
 7.3396  31381.8  177.077
 7.3816  31478.2  177.575
 7.4236  31808.6  177.8
 7.4656  32109.3  178.1
 7.5076  32107.5  178.247
 7.5496  32104.3  178.775
 7.5916  32350.5  179.497
 7.6336  32574.7  180.016
 7.6756  32404.4  179.391
 7.7176  33219.3  181.959
 7.7596  32837.6  182.12
 7.8016  33444.7  186.048
 7.8436  32886.7  181.14
 7.8856  33120  181.395
 7.9276  33779.5  183.595
 7.9696  34098  184.753
 8.0116  35197.8  186.264
 8.0536  35014.2  186.014
 8.0956  34905.6  186.899
 8.1376  35563.1  188.131
 8.1796  35531.6  188.57
 8.2216  36392  189.599
 8.2636  36703.9  190.661
 8.3056  36104.6  189.861
 8.3476  37083.8  191.743
 8.3896  36845.1  191.205
 8.4316  36931.2  191.596
 8.4736  37059.2  191.398
 8.5156  36719.5  190.795
 8.5576  36340.6  190.762
 8.5996  36369.7  189.731
 8.6416  36184  190.486
 8.6836  36090.1  190.085
 8.7256  36322.9  190.136
 8.7676  36422.9  193.328
 8.8096  36817.8  191.7
 8.8516  36535.1  190.536
 8.8936  36302.3  189.881
 8.9356  36618.9  191.047
 8.9776  36534.3  190.898
 9.0196  36478.1  190.43
 9.0616  36031.5  188.758
 9.1036  35597.7  188.779
 9.1456  35393  187.56
 9.1876  35643.4  188.17
 9.2296  35524.7  187.295
 9.2716  35351.4  186.884
 9.3136  35165  186.39
 9.3556  35278.3  186.66
 9.3976  34517.5  185.162
 9.4396  34659.1  185.441
 9.4816  34408.6  184.632
 9.5236  34151.7  183.834
 9.5656  33606.4  182.706
 9.6076  33113.9  181.88
 9.6496  33477.4  182.761
 9.6916  33045.3  181.525
 9.7336  33364.5  182.188
 9.7756  33180.8  183.016
 9.8176  32961.9  181.855
 9.8596  32649.6  179.433
 9.9016  32598.7  179.286
 9.9436  32059.7  177.716
 9.9856  31782.1  177.219
 10.0276  31430  177.297
 10.0696  31866.2  177.55
 10.1116  30926.1  175.185
 10.1536  30698.5  174.697
 10.1956  30394  173.442
 10.2376  30296.1  172.692
 10.2796  29982.6  171.886
 10.3216  29607.1  171.093
 10.3636  29575.4  171.023
 10.4056  28910.9  169.479
 10.4476  29055.5  169.52
 10.4896  28971.4  168.733
 10.5316  28456.6  167.954
 10.5736  28411.4  168.226
 10.6156  28339.7  167.784
 10.6576  28097.5  165.633
 10.6996  27912.9  165.786
 10.7416  27488.1  164.728
 10.7836  27013.6  163.948
 10.8256  26899.5  164.041
 10.8676  26707.7  162.984
 10.9096  26682  162.945
 10.9516  26592.7  161.629
 10.9936  26450.1  161.412
 11.0356  26276.1  161.476
 11.0776  26031.1  160.058
 11.1196  25644  159.622
 11.1616  25271  158.118
 11.2036  25752.1  159.479
 11.2456  25494.1  159.375
 11.2876  25692.5  159.736
 11.3296  25171.2  158.004
 11.3716  25411.4  158.462
 11.4136  25447.4  159.438
 11.4556  25404.7  158.968
 11.4976  25732  158.996
 11.5396  25819.5  159.428
 11.5816  26508.2  161.99
 11.6236  27072.1  164.158
 11.6656  26766.9  162.158
 11.7076  25731.6  159.818
 11.7496  25112.9  161.885
 11.7916  25063.9  156.998
 11.8336  24551.9  156.282
 11.8756  24481.3  155.592
 11.9176  24342.4  154.814
 11.9596  24512.8  155.545
 12.0016  24180.1  155.233
 12.0436  24295.9  155.073
 12.0856  23895.4  154.277
 12.1276  23895.9  154.232
 12.1696  23877  153.293
 12.2116  23777.9  152.969
 12.2536  23634  153.321
 12.2956  23615.9  152.6
 12.3376  23883.5  153.689
 12.3796  23758.3  153.751
 12.4216  23533.2  152.227
 12.4636  23259.5  152.263
 12.5056  23690.6  152.94
 12.5476  23736.5  152.602
 12.5896  23397.9  152.141
 12.6316  23604  152.971
 12.6736  23424.7  152.871
 12.7156  23598.2  153.288
 12.7576  23327.1  152.636
 12.7996  23654.6  152.359
 12.8416  23377.6  152.51
 12.8836  23706.6  153.396
 12.9256  23981.1  153.334
 12.9676  23896.8  153.449
 13.0096  23918.5  154.643
 13.0516  24120.9  154.323
 13.0936  24472  155.865
 13.1356  24623.3  155.289
 13.1776  24300.1  155.292
 13.2196  24387.6  155.21
 13.2616  24093  154.579
 13.3036  24495.8  155.836
 13.3456  24079.1  154.644
 13.3876  24616.5  155.858
 13.4296  24138.9  154.486
 13.4716  24285.9  154.586
 13.5136  24264.1  154.655
 13.5556  24117.7  154.795
 13.5976  24242.8  155.378
 13.6396  24338.3  155.032
 13.6816  24299.3  155.384
 13.7236  24807.4  156.587
 13.7656  26204.9  161.404
 13.8076  27066  162.658
 13.8496  26605.9  161.943
 13.8916  24683.5  157.12
 13.9336  23953.1  154.046
 13.9756  23946.3  153.422
 14.0176  23720.1  153.363
 14.0596  23721.7  153.304
 14.1016  23530.1  153.108
 14.1436  23658.4  152.663
 14.1856  23031.4  150.908
 14.2276  23034.6  151.406
 14.2696  22952.8  150.982
 14.3116  22509.2  149.417
 14.3536  22209.8  148.592
 14.3956  22318.7  148.681
 14.4376  22556.9  149.257
 14.4796  22234.3  148.19
 14.5216  22088.2  148.489
 14.5636  21939.7  147.559
 14.6056  22124.7  147.737
 14.6476  22085.9  146.854
 14.6896  21534.2  145.554
 14.7316  21315.8  145.844
 14.7736  21139.2  144.372
 14.8156  21162.7  144.473
 14.8576  20731  142.859
 14.8996  20412.9  142.948
 14.9416  20234.3  142.329
 14.9836  20170.8  142.095
 15.0256  19546.3  138.786
 15.0676  19524.6  139.019
 15.1096  19410.4  138.353
 15.1516  19181.8  138.075
 15.1936  19174.7  137.486
 15.2356  18755.4  136.256
 15.2776  18558.5  135.134
 15.3196  18428.4  135.64
 15.3616  18483.2  135.607
 15.4036  18515.1  135.58
 15.4456  18494.4  135.16
 15.4876  18119.6  133.471
 15.5296  18050.1  133.493
 15.5716  17833.2  132.3
 15.6136  17795.4  132.483
 15.6556  17863.8  131.987
 15.6976  17706.2  131.481
 15.7396  17561.5  131.542
 15.7816  17460.8  130.677
 15.8236  17300  130.763
 15.8656  17347.2  130.735
 15.9076  17025.5  129.345
 15.9496  17792.9  135.059
 15.9916  17518.8  134.411
 16.0336  17637.7  131.747
 16.0756  17473.7  131.456
 16.1176  17320.3  130.954
 16.1596  16964.4  130.766
 16.2016  16887.3  129.242
 16.2436  16958.4  129.891
 16.2856  16751.7  128.608
 16.3276  16542.3  128.26
 16.3696  16513.1  127.968
 16.4116  16441.1  128.115
 16.4536  16731.7  129.066
 16.4956  16596.7  128.284
 16.5376  16326.4  127.406
 16.5796  16367.3  126.94
 16.6216  16242.2  126.732
 16.6636  16181.6  126.665
 16.7056  16127.2  126.316
 16.7476  16466.1  127.164
 16.7896  16139.7  126.636
 16.8316  16176.6  126.767
 16.8736  16541  128.451
 16.9156  16224.2  127.533
 16.9576  16004.1  127.431
 16.9996  16052.4  128.097
 17.0416  16425.9  127.951
 17.0836  16301  127.235
 17.1256  15954.5  125.881
 17.1676  16187.4  126.759
 17.2096  16048.8  126.115
 17.2516  15950.5  125.518
 17.2936  16008.4  126.088
 17.3356  15815.1  125.321
 17.3776  15759.2  125.279
 17.4196  15539.4  124.093
 17.4616  15489.8  123.806
 17.5036  15025.9  122.293
 17.5456  14942.1  122.591
 17.5876  15060.4  122.123
 17.6296  15171.5  122.411
 17.6716  15110.3  122.74
 17.7136  15030.2  122.555
 17.7556  15003.2  122.724
 17.7976  14686.4  121.016
 17.8396  14660.6  120.564
 17.8816  14458.2  120.272
 17.9236  14531  120.385
 17.9656  14564.8  121.182
 18.0076  14520.3  120.453
 18.0496  14334.7  118.816
 18.0916  14319.9  119.305
 18.1336  14323.1  119.405
 18.1756  14581.9  120.036
 18.2176  14245  118.851
 18.2596  14214.2  118.443
 18.3016  14346.4  119.266
 18.3436  14270.1  119.179
 18.3856  14206.9  118.824
 18.4276  14217.4  118.547
 18.4696  14134.7  118.294
 18.5116  14161.9  118.677
 18.5536  14170.9  119.065
 18.5956  13869.5  117.364
 18.6376  13833.8  117.599
 18.6796  13926.9  117.327
 18.7216  13925.8  117.873
 18.7636  13831.7  117.42
 18.8056  13834.2  117.351
 18.8476  13596.8  116.956
 18.8896  13795.7  117.151
 18.9316  13798.5  116.974
 18.9736  13832.9  116.99
 19.0156  13612.8  116.463
 19.0576  13970.6  116.841
 19.0996  13748.9  116.619
 19.1416  13760.2  117.061
 19.1836  13703.2  116.423
 19.2256  13471.8  115.65
 19.2676  13812.3  117.187
 19.3096  13613.1  116.574
 19.3516  13687.2  116.86
 19.3936  13691.5  116.769
 19.4356  13869.6  117.416
 19.4776  13571.2  116.232
 19.5196  13780.3  116.98
 19.5616  13571.1  116.34
 19.6036  13496.2  115.525
 19.6456  13706.6  116.54
 19.6876  13591.5  115.681
 19.7296  13820.7  117.126
 19.7716  13639.7  116.38
 19.8136  13887.6  117.775
 19.8556  13888.8  117.264
 19.8976  13708.7  116.55
 19.9396  13808.6  116.579
 19.9816  13886.2  117.145
 20.0236  14224.1  118.755
 20.0656  14217.6  118.729
 20.1076  14583  120.739
 20.1496  14802.1  121.633
 20.1916  14954.7  121.765
 20.2336  14668.5  120.511
 20.2756  14339.9  119.586
 20.3176  13832.6  117.205
 20.3596  13759.1  116.878
 20.4016  13604.7  116.018
 20.4436  13502.5  116.155
 20.4856  13484.5  115.868
 20.5276  13324.9  115.637
 20.5696  13531.7  115.978
 20.6116  13293.3  115.23
 20.6536  13029.2  113.633
 20.6956  13188.4  114.416
 20.7376  13089  114.183
 20.7796  13031.6  113.635
 20.8216  13123.9  113.753
 20.8636  13158.2  114.284
 20.9056  13121.6  114.054
 20.9476  13097  113.801
 20.9896  13142.6  113.853
 21.0316  13045.3  113.333
 21.0736  12964.6  113.503
 21.1156  12840.1  113.108
 21.1576  13020.6  113.943
 21.1996  12760  112.782
 21.2416  12985.5  113.605
 21.2836  12813.9  112.82
 21.3256  12906.6  113.316
 21.3676  13006.6  113.278
 21.4096  12718.5  112.333
 21.4516  12656  111.937
 21.4936  12623.3  112.05
 21.5356  12633.5  112.04
 21.5776  12847.7  112.829
 21.6196  12557.9  111.589
 21.6616  12555.9  111.661
 21.7036  12693.8  112.04
 21.7456  12700.2  112.146
 21.7876  12616.8  111.542
 21.8296  12567.3  111.168
 21.8716  12589.6  111.495
 21.9136  12818.5  112.708
 21.9556  12595.5  111.394
 21.9976  12381.1  110.478
 22.0396  12357.2  110.618
 22.0816  12431.7  111.471
 22.1236  12577.8  111.592
 22.1656  12462.6  111.263
 22.2076  12209.1  109.535
 22.2496  12229.9  109.654
 22.2916  12051.2  108.743
 22.3336  12425  111.111
 22.3756  12448  110.955
 22.4176  12219.2  109.784
 22.4596  12005  109.401
 22.5016  12178.1  109.692
 22.5436  12309.8  110.165
 22.5856  12477.3  111.153
 22.6276  12511  111.431
 22.6696  12418.3  111.38
 22.7116  12306.6  110.385
 22.7536  12246.7  110.097
 22.7956  12308.5  109.715
 22.8376  11924.1  108.5
 22.8796  12083.6  109.022
 22.9216  12159.1  109.903
 22.9636  12402.1  110.153
 23.0056  12170  109.246
 23.0476  12137.6  109.665
 23.0896  12460.4  110.495
 23.1316  12330.4  110.348
 23.1736  12340.7  113.318
 23.2156  12634.6  112.05
 23.2576  12796  112.903
 23.2996  12561.8  111.634
 23.3416  12735.3  112.945
 23.3836  12748.5  112.222
 23.4256  12846  112.778
 23.4676  12673.3  111.706
 23.5096  12578.5  111.942
 23.5516  12520.4  110.989
 23.5936  12475.8  111.697
 23.6356  12811.4  112.849
 23.6776  12367.6  111.084
 23.7196  12342.4  110.551
 23.7616  12499.5  111.166
 23.8036  12676  112.015
 23.8456  12397.3  110.322
 23.8876  12348.9  110.471
 23.9296  12260.4  110.556
 23.9716  12291.8  109.903
 24.0136  12217.8  110.47
 24.0556  12312.9  110.619
 24.0976  12174.7  109.807
 24.1396  12032.4  111.753
 24.1816  12163.3  111.119
 24.2236  12133.7  110.266
 24.2656  12169.9  109.912
 24.3076  12037.1  109.581
 24.3496  11979.2  109.184
 24.3916  11990.8  109.302
 24.4336  11967.6  109.386
 24.4756  11969.4  109.291
 24.5176  11768.9  108.001
 24.5596  11602.6  107.35
 24.6016  11644.2  107.832
 24.6436  11899.7  108.533
 24.6856  11633.3  107.049
 24.7276  11526.7  106.872
 24.7696  11396.4  106.379
 24.8116  11301.5  106.107
 24.8536  11374.3  106.46
 24.8956  11552.7  107.026
 24.9376  11367.5  106.096
 24.9796  11281.7  106.044
 25.0216  11288.2  106.197
 25.0636  11358.3  106.175
 25.1056  11148.3  105.608
 25.1476  11230.3  107.906
 25.1896  11100.4  105.794
 25.2316  11079.1  104.973
 25.2736  11142.4  104.933
 25.3156  11125.3  104.925
 25.3576  11057.7  105.03
 25.3996  11074.9  105.106
 25.4416  10933.7  104.405
 25.4836  10719  103.882
 25.5256  10873.6  103.998
 25.5676  10914.6  103.919
 25.6096  10792.2  103.917
 25.6516  10847  103.676
 25.6936  10886.8  104.195
 25.7356  10856.5  104.172
 25.7776  10879.5  103.887
 25.8196  10753.2  103.522
 25.8616  10729.9  103.338
 25.9036  10911.2  103.66
 25.9456  10684.8  103.169
 25.9876  10723.5  103.426
 26.0296  10915.1  103.952
 26.0716  10684.1  103.187
 26.1136  10730.4  103.339
 26.1556  10808.8  103.097
 26.1976  10677.4  103.394
 26.2396  10681.9  102.823
 26.2816  10730.8  103.408
 26.3236  10675.4  103.286
 26.3656  10860.9  103.921
 26.4076  10744.9  103.573
 26.4496  10906.8  103.94
 26.4916  10960.7  104.086
 26.5336  11239.6  105.739
 26.5756  11560.6  107.127
 26.6176  10874  103.902
 26.6596  10827  104.005
 26.7016  10746.9  103.369
 26.7436  10769.4  103.621
 26.7856  10431.4  101.962
 26.8276  10549.7  102.504
 26.8696  10618  102.708
 26.9116  10386.7  101.52
 26.9536  10364.8  101.463
 26.9956  10258.4  100.969
 27.0376  10552.5  102.64
 27.0796  10446.5  101.918
 27.1216  10431.7  101.841
 27.1636  10300.8  101.361
 27.2056  10357.5  101.52
 27.2476  10285.7  101.156
 27.2896  10235.8  101.026
 27.3316  10114.5  100.146
 27.3736  10090  100.292
 27.4156  10308.2  101.217
 27.4576  10191.2  100.854
 27.4996  10233.5  100.666
 27.5416  10092.9  100.282
 27.5836  10146.7  100.385
 27.6256  10109.8  100.387
 27.6676  10153.8  100.594
 27.7096  10234.4  100.873
 27.7516  9923.13  99.4625
 27.7936  10470.9  102.335
 27.8356  10247  100.84
 27.8776  10299.8  101.163
 27.9196  9996.5  99.5277
 27.9616  9993.58  99.7112
 28.0036  9891.66  99.1569
 28.0456  9842.8  99.0469
 28.0876  9840.46  99.1238
 28.1296  9835.81  98.9361
 28.1716  10049.3  100.029
 28.2136  9946  99.4797
 28.2556  9960.27  99.6641
 28.2976  9822.35  98.9638
 28.3396  9875.59  99.0274
 28.3816  9918.78  99.2136
 28.4236  9736.13  98.4424
 28.4656  9772.9  98.6746
 28.5076  9794.88  98.4324
 28.5496  9783.09  98.6175
 28.5916  9742.74  98.2401
 28.6336  9735.47  98.5392
 28.6756  9741.89  97.7687
 28.7176  9754.49  98.3897
 28.7596  9633.15  97.6675
 28.8016  9636.99  97.7182
 28.8436  9579.91  97.6574
 28.8856  9668.27  97.9754
 28.9276  9627.73  98.0175
 28.9696  9671.17  97.8909
 29.0116  9595.58  97.6906
 29.0536  9484.97  97.3346
 29.0956  9509.45  97.1718
 29.1376  9480.91  96.9856
 29.1796  9637.64  97.8366
 29.2216  9539.06  97.1758
 29.2636  9618.16  97.5781
 29.3056  9462.17  96.635
 29.3476  9559.03  97.6592
 29.3896  9512.76  97.5392
 29.4316  9489.01  96.7323
 29.4736  9331.99  96.0017
 29.5156  9365.89  96.0876
 29.5576  9374.83  96.8693
 29.5996  9291.8  95.714
 29.6416  9233.84  95.5263
 29.6836  9392.34  96.2729
 29.7256  9267.22  96.1885
 29.7676  9195.44  95.486
 29.8096  9266.1  95.794
 29.8516  9134.74  95.4427
 29.8936  9319.18  96.4869
 29.9356  9267.76  95.9807
 29.9776  9067.18  95.0864
 30.0196  9212.08  95.2419
 30.0616  9169.97  95.3909
 30.1036  9224.66  95.4958
 30.1456  9267.1  95.9491
 30.1876  9158.51  95.3654
 30.2296  9131.92  95.1819
 30.2716  9201.22  95.182
 30.3136  9279.83  96.4333
 30.3556  9524.03  97.7083
 30.3976  9242.8  97.7438
 30.4396  9610.27  97.0143
 30.4816  9457.97  95.85
 30.5236  9435.16  95.7328
 30.5656  9396.58  96.1915
 30.6076  9346.37  95.3537
 30.6496  9306.87  95.5463
 30.6916  9210.41  95.1434
 30.7336  9279.14  95.6391
 30.7756  9174.47  95.1902
 30.8176  9107.23  94.7717
 30.8596  9349.57  95.7805
 30.9016  9415.54  96.4784
 30.9436  9507.24  96.6838
 30.9856  9502.17  96.7812
 31.0276  9425.5  96.0141
 31.0696  9339.74  96.1179
 31.1116  9203.37  95.3935
 31.1536  9219.52  95.3453
 31.1956  9294.63  95.8282
 31.2376  9039.55  94.5292
 31.2796  9225.61  95.0333
 31.3216  9335.46  95.5431
 31.3636  9346.79  96.2844
 31.4056  9184.53  96.7412
 31.4476  9315.24  95.3447
 31.4896  9200.87  95.2481
 31.5316  9325.21  95.3427
 31.5736  9271.5  94.8579
 31.6156  9284.61  94.9229
 31.6576  9102.15  94.0659
 31.6996  9403.2  95.2675
 31.7416  9234.29  95.507
 31.7836  9329.46  94.9935
 31.8256  9153.82  94.4456
 31.8676  9390.48  95.5655
 31.9096  9107.37  94.4785
 31.9516  9025.48  94.2203
 31.9936  8818.02  92.9523
 32.0356  9115.24  94.5351
 32.0776  9170.43  94.7417
 32.1196  9186.1  94.9273
 32.1616  9229.77  94.5991
 32.2036  9211.87  95.0309
 32.2456  8976.08  94.1711
 32.2876  9030.73  93.7843
 32.3296  9011.88  93.8285
 32.3716  8900.76  93.3519
 32.4136  8869.74  93.3869
 32.4556  8951.64  93.267
 32.4976  8921.43  92.9685
 32.5396  8931.36  93.0775
 32.5816  8890.99  93.0067
 32.6236  8935.48  93.2973
 32.6656  8931.81  93.8178
 32.7076  8821.57  92.8949
 32.7496  8878.43  92.8619
 32.7916  8839.52  92.6227
 32.8336  8784.51  92.4219
 32.8756  8979.06  93.172
 32.9176  8719.15  92.2827
 32.9596  8868.54  93.1442
 33.0016  8848.85  92.811
 33.0436  8893.31  93.2057
 33.0856  8785.2  92.7508
 33.1276  8734.79  92.2137
 33.1696  8795.74  92.3623
 33.2116  8873.59  93.0093
 33.2536  8870.8  92.9911
 33.2956  8740.86  92.3907
 33.3376  8607  91.4222
 33.3796  8874.34  93.0502
 33.4216  8758.86  92.0263
 33.4636  8851.94  92.6787
 33.5056  8674.92  91.9791
 33.5476  8897.45  93.1409
 33.5896  8852.01  92.6691
 33.6316  8765.35  92.5455
 33.6736  8662.85  92.2482
 33.7156  8601.22  91.9522
 33.7576  8739.35  92.3316
 33.7996  8815.42  92.4848
 33.8416  8643.59  91.7721
 33.8836  8695.23  91.8175
 33.9256  8719.28  92.0124
 33.9676  8703.09  91.8181
 34.0096  8671.35  91.9638
 34.0516  8637.89  91.418
 34.0936  8517.12  91.0493
 34.1356  8701.49  91.7685
 34.1776  8469.99  90.5331
 34.2196  8546.96  91.1362
 34.2616  8507.52  91.0561
 34.3036  8554.29  91.5626
 34.3456  8523.57  91.1392
 34.3876  8699.09  92.0509
 34.4296  8497.77  90.6745
 34.4716  8564.58  91.1781
 34.5136  8552.84  91.2974
 34.5556  8441.98  90.9609
 34.5976  8404.38  90.5758
 34.6396  8532.61  90.9813
 34.6816  8618  91.5379
 34.7236  8526.05  90.8185
 34.7656  8589.91  91.3749
 34.8076  8413.73  90.7633
 34.8496  8356.52  90.3024
 34.8916  8418.46  90.5045
 34.9336  8495.38  90.8935
 34.9756  8536.34  91.0337
 35.0176  8466.85  91.1926
 35.0596  8510.8  91.2546
 35.1016  8509.62  90.9879
 35.1436  8677.28  91.5817
 35.1856  8510.75  90.8127
 35.2276  8508.78  90.9697
 35.2696  8502.78  91.1346
 35.3116  8435.34  90.8773
 35.3536  8414.63  90.4772
 35.3956  8354.06  89.8569
 35.4376  8431.24  90.8415
 35.4796  8347.44  90.4282
 35.5216  8339.48  90.3481
 35.5636  8227.13  90.4761
 35.6056  8329.28  90.0582
 35.6476  8410.87  90.3902
 35.6896  8418.66  90.6077
 35.7316  8260.85  89.6575
 35.7736  8336.95  90.2562
 35.8156  8321.24  90.1654
 35.8576  8450.38  91.118
 35.8996  8422.67  90.9401
 35.9416  8421.96  90.4467
 35.9836  8372.88  90.5119
 36.0256  8467.41  91.0426
 36.0676  8479.4  90.635
 36.1096  8286.81  89.9775
 36.1516  8436.89  90.6706
 36.1936  8522.08  90.9647
 36.2356  8330.81  90.5869
 36.2776  8190.08  89.3002
 36.3196  8310.19  89.6256
 36.3616  8356.98  90.0083
 36.4036  8259.13  89.547
 36.4456  8285.41  89.89
 36.4876  8132.31  89.0056
 36.5296  8155.24  89.1603
 36.5716  8090.33  89.5804
 36.6136  8084.07  88.3314
 36.6556  8120.26  88.7282
 36.6976  7975.16  88.4203
 36.7396  7975.08  88.1464
 36.7816  7992.7  88.6217
 36.8236  8010.88  88.6445
 36.8656  7920.02  88.1876
 36.9076  7908.7  88.1542
 36.9496  7849.46  87.6907
 36.9916  7884.98  87.5196
 37.0336  7964.83  88.2761
 37.0756  7948.34  87.9781
 37.1176  7712.78  86.9266
 37.1596  7977.47  88.4117
 37.2016  7875.8  88.0183
 37.2436  7955.22  87.8355
 37.2856  7917.84  87.8631
 37.3276  7919.3  87.254
 37.3696  7901.75  88.0237
 37.4116  7945.36  88.1798
 37.4536  7811.93  87.304
 37.4956  7741.88  86.9523
 37.5376  8065  90.343
 37.5796  8033.04  90.0896
 37.6216  7945.55  87.8889
 37.6636  8130.85  88.7979
 37.7056  8093.19  88.7866
 37.7476  8087.89  88.2994
 37.7896  7947.46  88.0268
 37.8316  7990.89  88.4315
 37.8736  7847.43  87.1573
 37.9156  7940.97  87.6784
 37.9576  7979.41  87.8021
 37.9996  7965.37  87.4386
 38.0416  7830.1  87.4859
 38.0836  7991.91  88.2927
 38.1256  7992.58  88.2684
 38.1676  7801.15  87.3174
 38.2096  8056.31  88.365
 38.2516  7916.59  87.7982
 38.2936  8078.34  88.4953
 38.3356  7869.7  87.269
 38.3776  7923.31  87.8058
 38.4196  7877.02  87.4129
 38.4616  7935.49  87.9881
 38.5036  8061.6  88.5192
 38.5456  7778.33  87.7619
 38.5876  7878.84  88.3446
 38.6296  7936.14  87.6288
 38.6716  7908.26  87.2979
 38.7136  7913.51  87.2704
 38.7556  7841.78  87.3808
 38.7976  8024.67  88.319
 38.8396  7848.75  87.8061
 38.8816  7796.09  87.3008
 38.9236  7823.42  87.2529
 38.9656  7976.77  88.0214
 39.0076  7963.36  87.3529
 39.0496  7927.36  87.7077
 39.0916  7854.89  86.9499
 39.1336  7784.54  86.9608
 39.1756  7846.14  87.3643
 39.2176  7925.44  88.323
 39.2596  7925.17  88.2564
 39.3016  7737.95  86.8094
 39.3436  7843.51  87.8071
 39.3856  7829.24  87.1748
 39.4276  8028.48  88.7958
 39.4696  7963.7  88.048
 39.5116  7911.75  88.2801
 39.5536  7954.75  88.9307
 39.5956  7951.21  88.0118
 39.6376  7815.15  87.2646
 39.6796  7774.74  86.7768
 39.7216  7855.48  87.335
 39.7636  7884.72  88.0575
 39.8056  7867.49  87.7538
 39.8476  7650.71  86.7815
 39.8896  7913.71  87.8916
 39.9316  7796.36  87.4804
 39.9736  7859.58  87.4088
 40.0156  7779.96  86.8017
 40.0576  7682.2  86.5897
 40.0996  7815.17  86.5365
 40.1416  7792.99  87.2039
 40.1836  7820.88  87.2526
 40.2256  7830.92  87.3382
 40.2676  7715.36  86.8014
 40.3096  7917.63  87.857
 40.3516  7903.36  87.88
 40.3936  7918.44  87.5231
 40.4356  7826.72  87.2189
 40.4776  7799.25  87.4685
 40.5196  7987.07  88.643
 40.5616  7918.64  87.9098
 40.6036  7807.11  87.5385
 40.6456  7860.22  87.4455
 40.6876  7997.87  88.202
 40.7296  7839.42  87.4516
 40.7716  7934.01  88.1001
 40.8136  7870.93  87.6963
 40.8556  7960.77  88.3316
 40.8976  7938.21  88.1293
 40.9396  7906.49  88.2965
 40.9816  7974.63  87.9702
 41.0236  7879.14  87.2239
 41.0656  7982.21  88.3313
 41.1076  7918.06  87.7389
 41.1496  7892.51  87.5074
 41.1916  7840.39  87.5265
 41.2336  7902.13  87.8845
 41.2756  7842.43  87.1583
 41.3176  7929.24  88.2501
 41.3596  7930.73  87.9891
 41.4016  7857.36  87.8384
 41.4436  7978.74  88.3025
 41.4856  7870.74  87.8601
 41.5276  7857.9  87.8103
 41.5696  7990.25  88.1628
 41.6116  7905.62  88.0944
 41.6536  7920.17  88.0365
 41.6956  7993.91  88.5108
 41.7376  7809.91  87.5037
 41.7796  7799.81  87.3769
 41.8216  7940.87  88.3403
 41.8636  7834.09  87.6953
 41.9056  7800.26  87.3042
 41.9476  7891.12  88.0492
 41.9896  7937.23  87.9675
 42.0316  7843.04  87.5322
 42.0736  7884.4  87.8689
 42.1156  7868.51  87.604
 42.1576  7913.14  87.9639
 42.1996  7886.08  87.9469
 42.2416  7817.28  87.1475
 42.2836  7824.6  87.3046
 42.3256  7836.49  87.4687
 42.3676  7994.76  88.1638
 42.4096  7918.03  87.7039
 42.4516  7924.53  87.8268
 42.4936  7755.64  86.9587
 42.5356  7792.52  87.2957
 42.5776  7841.7  87.5095
 42.6196  7836.91  87.5351
 42.6616  7649.65  86.6563
 42.7036  7866.48  87.2588
 42.7456  7886.73  87.7263
 42.7876  7880.67  87.7706
 42.8296  7747.98  86.8863
 42.8716  7682.56  86.6783
 42.9136  7682.39  86.4669
 42.9556  7797.07  87.2391
 42.9976  7771.77  87.0649
 43.0396  7802.89  86.9716
 43.0816  7748.04  87.0499
 43.1236  7629.64  86.4265
 43.1656  7778.96  87.0906
 43.2076  7818.5  87.4343
 43.2496  7715.02  86.6719
 43.2916  7653.99  86.6836
 43.3336  7742.54  87.0214
 43.3756  7764.99  86.9049
 43.4176  7671.74  86.4598
 43.4596  7689.96  86.4184
 43.5016  7608.43  86.3598
 43.5436  7658.43  86.5482
 43.5856  7625.21  86.3846
 43.6276  7657.44  86.4599
 43.6696  7628.66  86.4342
 43.7116  7745.55  86.7149
 43.7536  7700.91  86.9602
 43.7956  7560.36  87.3482
 43.8376  7504.46  85.5636
 43.8796  7510.46  85.6795
 43.9216  7415.6  85.0586
 43.9636  7518.85  85.7584
 44.0056  7502.75  85.8867
 44.0476  7434.76  85.139
 44.0896  7410.58  85.3372
 44.1316  7462.41  85.3022
 44.1736  7576.88  85.94
 44.2156  7648.11  86.1907
 44.2576  7439.95  85.3332
 44.2996  7551.17  85.9442
 44.3416  7563.02  85.7732
 44.3836  7383.07  85.0668
 44.4256  7416.35  84.9057
 44.4676  7340.38  84.6227
 44.5096  7393.95  85.0755
 44.5516  7487.14  85.5771
 44.5936  7356.39  84.7789
 44.6356  7492.54  85.298
 44.6776  7396.42  85.0623
 44.7196  7475.03  85.8234
 44.7616  7516.51  87.3884
 44.8036  7494.38  85.6996
 44.8456  7588.42  86.4441
 44.8876  7535.22  85.9856
 44.9296  7745.29  86.6155
 44.9716  7604.24  86.2518
 45.0136  7687.35  86.6576
 45.0556  7662.81  86.5079
 45.0976  7536.56  85.9448
 45.1396  7485.67  85.4191
 45.1816  7452.22  85.1605
 45.2236  7481.7  85.2353
 45.2656  7494.39  85.8043
 45.3076  7536.41  85.8264
 45.3496  7447.52  85.6203
 45.3916  7462.43  85.9814
 45.4336  7536.87  86.2587
 45.4756  7552.37  86.194
 45.5176  7505.55  85.542
 45.5596  7509.16  85.6739
 45.6016  7502.37  86.0682
 45.6436  7556.33  85.5498
 45.6856  7498.78  85.8739
 45.7276  7382.07  86.515
 45.7696  7362.77  86.0787
 45.8116  7531.42  86.4724
 45.8536  7398.72  85.617
 45.8956  7512.58  85.6196
 45.9376  7586.98  85.4995
 45.9796  7557.72  86.0519
 46.0216  7425.71  85.6041
 46.0636  7595.25  85.7101
 46.1056  7585.61  85.66
 46.1476  7433.63  85.3749
 46.1896  7555.68  86.2425
 46.2316  7547.1  86.0556
 46.2736  7235.09  84.6259
 46.3156  7381.58  85.0632
 46.3576  7550.1  86.2297
 46.3996  7451.72  85.8193
 46.4416  7496.82  85.6576
 46.4836  7233.29  84.501
 46.5256  7335.04  85.0124
 46.5676  7278.66  84.8136
 46.6096  7445.65  85.7077
 46.6516  7491.41  85.0057
 46.6936  7473.34  85.4101
 46.7356  7563.6  86.0257
 46.7776  7275.32  85.2017
 46.8196  7366.71  85.3369
 46.8616  7270.23  84.7269
 46.9036  7252.34  84.271
 46.9456  7329.82  84.3727
 46.9876  7399.91  84.8533
 47.0296  7363.66  85.3379
 47.0716  7278.53  84.6644
 47.1136  7310.19  84.5333
 47.1556  7409.21  84.9486
 47.1976  7481.26  85.4546
 47.2396  7278.94  84.6969
 47.2816  7302.77  84.526
 47.3236  7268.9  84.707
 47.3656  7373.76  85.2403
 47.4076  7268.53  84.4334
 47.4496  7308.68  84.7565
 47.4916  7371.01  85.3098
 47.5336  7480.44  85.7434
 47.5756  7479.7  85.8705
 47.6176  7280.76  84.6293
 47.6596  7271.62  84.2817
 47.7016  7449.27  85.125
 47.7436  7412.14  85.2467
 47.7856  7406.27  85.2496
 47.8276  7294.37  84.6476
 47.8696  7339.25  84.9978
 47.9116  7407.8  85.0979
 47.9536  7383.1  84.8976
 47.9956  7352.89  85.4408
 48.0376  7239.77  84.5494
 48.0796  7303.51  85.0491
 48.1216  7242.16  84.5097
 48.1636  7411.3  85.0679
 48.2056  7472.17  85.6829
 48.2476  7423.45  85.7173
 48.2896  7388.68  85.4106
 48.3316  7320.3  84.9691
 48.3736  7328.91  85.0372
 48.4156  7272.96  84.5606
 48.4576  7344.79  85.2798
 48.4996  7404.42  85.0714
 48.5416  7415.53  85.4704
 48.5836  7308.37  84.5095
 48.6256  7365.96  85.0527
 48.6676  7286.91  85.1241
 48.7096  7283.38  84.3576
 48.7516  7352.63  84.9172
 48.7936  7237.43  84.3105
 48.8356  7294.91  84.6988
 48.8776  7284.8  85.1264
 48.9196  7443.15  85.4986
 48.9616  7273.32  84.8982
 49.0036  7315.63  85.4981
 49.0456  7239.04  85.0299
 49.0876  7254.75  84.7502
 49.1296  7196.03  84.4775
 49.1716  7208.82  84.4117
 49.2136  7300.26  84.8824
 49.2556  7276.87  84.772
 49.2976  7370.69  85.3935
 49.3396  7179.93  84.3299
 49.3816  7325.83  84.6131
 49.4236  7246.25  84.5783
 49.4656  7198.85  84.3028
 49.5076  7303.95  84.6734
 49.5496  7322.52  84.8427
 49.5916  7331.36  84.816
 49.6336  7206.92  84.2904
 49.6756  7245.87  84.7702
 49.7176  7235.66  84.6414
 49.7596  7162.05  83.9712
 49.8016  7329.43  84.8563
 49.8436  7258.9  84.7603
 49.8856  7298.79  84.9961
 49.9276  7163.4  84.2979
 49.9696  7204.31  84.5239
 50.0116  7219.66  84.7507
 50.0536  7263.84  84.956
 50.0956  7108.32  84.1116
 50.1376  7267.35  84.7396
 50.1796  7129.07  84.2069
 50.2216  7160.11  84.3757
 50.2636  7249.27  84.5143
 50.3056  7191.06  84.3474
 50.3476  7202.16  84.4427
 50.3896  7187.83  84.3257
 50.4316  7169.24  84.0519
 50.4736  7070.23  83.6949
 50.5156  7191.46  84.3934
 50.5576  7245.54  84.4688
 50.5996  7180.68  84.3742
 50.6416  7181.09  84.2993
 50.6836  7198.78  84.4624
 50.7256  7341.9  85.2236
 50.7676  7279.17  85.1465
 50.8096  7108.82  83.7029
 50.8516  7186.55  84.5943
 50.8936  7054.06  83.5963
 50.9356  7283.82  85.0527
 50.9776  7184.9  84.6318
 51.0196  6868.94  82.863
 51.0616  7032.97  83.1623
 51.1036  7031.46  83.5201
 51.1456  7074.79  83.686
 51.1876  7046.22  82.8401
 51.2296  7131.95  83.9967
 51.2716  6929.95  82.5095
 51.3136  6979.81  83.2684
 51.3556  7015.05  83.0947
 51.3976  6836.87  82.1838
 51.4396  6896.87  82.8568
 51.4816  6898.41  82.7174
 51.5236  6959.7  83.17
 51.5656  6952.59  82.7234
 51.6076  7047.4  83.365
 51.6496  6949.51  82.9828
 51.6916  6872.64  82.8751
 51.7336  6954.55  83.4689
 51.7756  7053.38  83.7288
 51.8176  6721.7  81.864
 51.8596  7041.85  83.8061
 51.9016  7109.32  83.8037
 51.9436  6958.14  84.426
 51.9856  7045.23  85.3701
 52.0276  7122.81  84.2956
 52.0696  7100.82  84.2401
 52.1116  7021.39  83.8876
 52.1536  7116.9  84.3491
 52.1956  7077.96  83.5674
 52.2376  7092.58  83.8171
 52.2796  7105.88  83.7214
 52.3216  6935.68  83.4095
 52.3636  6987.23  83.2735
 52.4056  6886.62  82.5407
 52.4476  6926.43  83.1166
 52.4896  6798.63  82.4264
 52.5316  7036.72  83.9068
 52.5736  6880.76  82.681
 52.6156  7022.04  83.9412
 52.6576  6783.09  81.9131
 52.6996  6734.83  82.6265
 52.7416  6864.55  83.2614
 52.7836  6821.31  82.8882
 52.8256  7027.01  83.3336
 52.8676  6771.35  82.3708
 52.9096  6857.8  82.9801
 52.9516  6888.07  83.5519
 52.9936  6903.07  84.0145
 53.0356  6986.82  83.5068
 53.0776  6928.07  83.462
 53.1196  6878.08  83.2535
 53.1616  7031.19  84.2173
 53.2036  6816.32  82.89
 53.2456  6964.98  83.8955
 53.2876  6852.8  82.9054
 53.3296  6986.5  84.0374
 53.3716  7052.51  84.1844
 53.4136  7048.89  84.3178
 53.4556  6873.27  83.2907
 53.4976  6909.45  83.3354
 53.5396  6847.7  83.3667
 53.5816  7027.72  84.0889
 53.6236  6759.36  82.8147
 53.6656  6887.82  83.2091
 53.7076  6958.07  83.5771
 53.7496  6907.86  83.4069
 53.7916  6887.91  83.4381
 53.8336  6847.54  83.0799
 53.8756  6731.12  82.9093
 53.9176  6769.2  82.4811
 53.9596  6587.62  82.143
 54.0016  6557.13  81.2744
 54.0436  6478.95  81.011
 54.0856  6753.55  82.1234
 54.1276  6720.18  82.1257
 54.1696  6631.05  81.7435
 54.2116  6726.47  82.0813
 54.2536  6682.67  81.6171
 54.2956  6613.24  81.2339
 54.3376  6524.77  81.2016
 54.3796  6547.44  81.2155
 54.4216  6701.15  82.241
 54.4636  6571.2  81.386
 54.5056  6625.97  81.5416
 54.5476  6572.5  81.5456
 54.5896  6677.62  82.0408
 54.6316  6666.22  81.8085
 54.6736  6568.65  81.2409
 54.7156  6589.25  81.4526
 54.7576  6485.91  80.7852
 54.7996  6576.29  81.4878
 54.8416  6541.41  81.3293
 54.8836  6613.09  81.8723
 54.9256  6472.78  80.7711
 54.9676  6493.89  80.7488
 55.0096  6499.98  80.85
 55.0516  6334.99  79.9565
 55.0936  6551.63  81.0356
 55.1356  6430.09  80.3315
 55.1776  6550.73  81.3198
 55.2196  6566.48  81.1926
 55.2616  6646.87  81.9344
 55.3036  6487.68  81.1094
 55.3456  6342.46  80.3567
 55.3876  6499.82  81.0497
 55.4296  6394.95  80.3999
 55.4716  6459.92  80.8326
 55.5136  6460.98  80.6018
 55.5556  6583.49  81.4057
 55.5976  6422.12  80.4881
 55.6396  6539.65  81.173
 55.6816  6417.05  80.2669
 55.7236  6376.88  80.0898
 55.7656  6543.54  80.8434
 55.8076  6402.45  79.9763
 55.8496  6360.82  80.0278
 55.8916  6349.32  80.0968
 55.9336  6542.1  81.1979
 55.9756  6357.92  79.9237
 56.0176  6320.14  79.8107
 56.0596  6346.71  80.0025
 56.1016  6268.95  79.5475
 56.1436  6329.2  80.1612
 56.1856  6276.07  79.5495
 56.2276  6587.27  81.5551
 56.2696  6371.26  80.1789
 56.3116  6426.04  80.9018
 56.3536  6304.6  79.8107
 56.3956  6305.69  79.8032
 56.4376  6248.51  79.4742
 56.4796  6264.5  79.4017
 56.5216  6297.98  79.9727
 56.5636  6272.86  79.3951
 56.6056  6487.45  80.9918
 56.6476  6251.12  79.1183
 56.6896  6521.97  81.284
 56.7316  6281  79.686
 56.7736  6293.24  79.7525
 56.8156  6281.1  79.6951
 56.8576  6131.63  78.6844
 56.8996  6305.12  79.6815
 56.9416  6237.21  79.5846
 56.9836  6364.26  79.9164
 57.0256  6140.73  78.7991
 57.0676  6313.16  80.0189
 57.1096  6254.34  79.4389
 57.1516  6155.77  78.8286
 57.1936  6246.42  79.194
 57.2356  6173.4  79.0487
 57.2776  6166.68  78.9734
 57.3196  6153.6  79.2124
 57.3616  6216.08  79.129
 57.4036  6294.47  79.693
 57.4456  6390.34  80.2696
 57.4876  6229.87  79.1283
 57.5296  6122.11  78.6572
 57.5716  6126.58  78.7927
 57.6136  6125.65  78.6261
 57.6556  6284.95  79.7558
 57.6976  6192.56  79.0137
 57.7396  6074.39  78.6039
 57.7816  6081.9  79.0232
 57.8236  6095.83  78.8996
 57.8656  6147.6  78.8987
 57.9076  6087.21  78.5313
 57.9496  6158.48  79.351
 57.9916  6197.67  79.1071
 58.0336  6110.17  78.8271
 58.0756  6191.56  78.9771
 58.1176  6229.77  79.2233
 58.1596  6110.9  79.0526
 58.2016  5986.05  77.4587
 58.2436  5930.39  77.4821
 58.2856  5934.07  77.4474
 58.3276  5921.64  77.7275
 58.3696  5913.27  77.429
 58.4116  5934.93  77.4401
 58.4536  6041.8  78.019
 58.4956  5856.09  76.9871
 58.5376  6077.2  77.997
 58.5796  5844.46  76.9086
 58.6216  5907.66  77.1428
 58.6636  5900.6  77.3028
 58.7056  5861.64  76.9092
 58.7476  5865.97  77.3758
 58.7896  5885.3  77.1467
 58.8316  5897.22  77.22
 58.8736  5955.86  77.6203
 58.9156  5917.27  77.4083
 58.9576  5914.23  77.7098
 58.9996  5892.77  76.8248
 59.0416  6060.04  78.2738
 59.0836  5949.47  77.4697
 59.1256  5784.7  77.079
 59.1676  5860.88  77.8938
 59.2096  5830.79  77.0159
 59.2516  5912.49  77.1392
 59.2936  5909.34  77.4431
 59.3356  5945.63  77.5592
 59.3776  5861.96  77.178
 59.4196  5724.07  76.2031
 59.4616  5876.79  77.0743
 59.5036  5818.53  76.726
 59.5456  5906.86  77.0029
 59.5876  5824.45  76.6516
 59.6296  5845.79  76.86
 59.6716  5872.69  77.0938
 59.7136  5778.61  76.4622
 59.7556  5818.55  76.86
 59.7976  5736.13  76.0624
 59.8396  5851.09  76.7168
 59.8816  5866.79  77.3531
 59.9236  5926.66  77.3979
 59.9656  5789.54  76.7525
 60.0076  5915.12  76.9445
 60.0496  5777.82  76.5392
 60.0916  6040.1  77.6751
 60.1336  5837.45  77.4496
 60.1756  5787.64  78.2777
 60.1996  0.0000000E+00  0.0000000E+00