File: docs/examples/opeando_xrd/IS17_D/Data/IS17_D/17_Db_f00081.xye
# /beamlines/bl04/projects/cycle2025-II/20250340211-lsimonelli/DATA/IS17_D/17_Db_f00081.xye : mythproc.py merge -s 0.006 -l 0.5 -f /beamlines/bl04/inhouse/ff/FlatField/ff_20Nov2024rod8mm60s_17keV.raw -b True -c true -o xye /beamlines/bl04/projects/cycle2025-II/20250340211-lsimonelli/DATA/IS17_D/17_Db_00081.dat
# IsMon = [6743523, 6740255, 6740564]  IsPos = [-1.4999, -2.4884, -3.4988]
# Wave = 0.4962  CalPath /beamlines/bl04/projects/cycle2025-II/20250340211-lsimonelli/DATA/Align/Si_Pos1_25keV_f00001.cal
# Date = 2025-09-24_16:16:08 Dt = 4.8000  Bin = 0.0060  <imon> = 6741447 +/- 1473 (Min/Max) 6740255 / 6743523
# icurr 248.8802  mocoIn 1.6973E-05  mocoOut 0.7963  i15 7.06301e+06  imon 6.74145e+06  i7 7.0000  iEMpd_timer 4.8000  iEMpd_1 3.2870E-08  iEMpd_2 7.8538E-08  iEMpd_3 1.6481E-08  iEMpd_4 4.7196E-08  iEMhp_timer 4.8000  iEMhp_1 4.8625E-06  iEMhp_2 -2.5190E-08  iEMhp_3 -2.3024E-08  iEMhp_4 -2.1008E-08
#      9776
 1.5856  43522.1  214.186
 1.6276  50475  226.703
 1.6696  55029.9  235.877
 1.7116  62650.9  252.172
 1.7536  70640  266.627
 1.7956  74334.3  274.194
 1.8376  71070.7  268.532
 1.8796  61160.3  247.277
 1.9216  50862.3  226.397
 1.9636  43392.4  208.255
 2.0056  39815.1  198.713
 2.0476  36927.1  193.468
 2.0896  35675.1  189.045
 2.1316  34359.6  184.635
 2.1736  32827.4  181.903
 2.2156  33847.3  183.225
 2.2576  32412.3  179.943
 2.2996  31045.7  176.753
 2.3416  31618.4  176.954
 2.3836  30787.8  174.72
 2.4256  29765  172.353
 2.4676  29323.3  170.827
 2.5096  29817.9  172.319
 2.5516  30705.9  178.937
 2.5936  93136.7  303.976
 2.6356  29071.2  171.288
 2.6776  27773.4  166.332
 2.7196  26836.6  163.988
 2.7616  26647.9  163.195
 2.8036  26418.4  162.656
 2.8456  26191.6  162.597
 2.8876  25651.3  160.777
 2.9296  25269.6  159.694
 2.9716  25132.9  158.763
 3.0136  24851.3  157.934
 3.0556  24716.7  157.893
 3.0976  25001.9  157.707
 3.1396  24574.2  157.084
 3.1816  24408.8  156.49
 3.2236  24236.6  155.933
 3.2656  23984.7  154.18
 3.3076  23859.6  155.225
 3.3496  24030.6  154.721
 3.3916  24623.5  156.436
 3.4336  24673.7  157.18
 3.4756  25221.1  158.842
 3.5176  25840.1  160.55
 3.5596  25580.5  162.181
 3.6016  25666.4  160.089
 3.6436  24913.3  158.829
 3.6856  24712  156.487
 3.7276  23564.2  153.889
 3.7696  23358.2  153.402
 3.8116  22988.1  152.072
 3.8536  23319.1  153.087
 3.8956  23183.6  152.471
 3.9376  23493.9  153.754
 3.9796  23012.9  151.666
 4.0216  23164.8  151.21
 4.0636  22993.4  152.102
 4.1056  22866.7  151.347
 4.1476  23434  153.507
 4.1896  23386.8  153.229
 4.2316  23347.9  152.923
 4.2736  23961.6  154.719
 4.3156  23969.1  154.976
 4.3576  24908.2  157.876
 4.3996  25133.4  158.879
 4.4416  25759.3  160.415
 4.4836  26391.3  162.542
 4.5256  26688.7  164.052
 4.5676  26551.5  163.892
 4.6096  26974.5  163.838
 4.6516  27502.1  165.142
 4.6936  27342.1  165.491
 4.7356  28089.9  167.554
 4.7776  27603.6  165.933
 4.8196  27301.9  165.652
 4.8616  26824.9  163.709
 4.9036  26556.7  162.597
 4.9456  26895.4  164.311
 4.9876  25964.8  161.342
 5.0296  25939.7  161.107
 5.0716  25691.3  161.08
 5.1136  25980.3  161.702
 5.1556  26481  162.715
 5.1976  31893.2  178.502
 5.2396  27024.6  164.062
 5.2816  26919.9  164.204
 5.3236  26902.7  163.855
 5.3656  26607.3  163.883
 5.4076  26311.6  163.116
 5.4496  26266  162.474
 5.4916  26487.2  162.9
 5.5336  26322.2  162.41
 5.5756  26342  162.469
 5.6176  26429.1  162.191
 5.6596  26739.2  164.111
 5.7016  26839.9  163.697
 5.7436  26945.9  164.297
 5.7856  26725.3  163.684
 5.8276  27035.4  164.352
 5.8696  27403.3  165.635
 5.9116  27259.6  165.802
 5.9536  27656  166.74
 5.9956  27720  166.328
 6.0376  27660.5  166.769
 6.0796  27752.9  166.873
 6.1216  27855.8  167.391
 6.1636  28412  168.094
 6.2056  28052.1  167.711
 6.2476  28046.3  167.563
 6.2896  28643  169.018
 6.3316  28462.2  168.643
 6.3736  28489.4  168.623
 6.4156  28871.1  169.627
 6.4576  28834.4  169.155
 6.4996  28679.5  169.179
 6.5416  28848.8  169.799
 6.5836  29062.4  170.674
 6.6256  29179.8  170.569
 6.6676  29454.9  170.94
 6.7096  29520.7  171.981
 6.7516  29541.7  171.712
 6.7936  30341.1  173.412
 6.8356  30889.7  175.076
 6.8776  30309.5  174.23
 6.9196  30347.8  174.735
 6.9616  30634  175.006
 7.0036  31101.7  175.987
 7.0456  31144.6  175.412
 7.0876  30997  176.668
 7.1296  31376.8  176.887
 7.1716  31028.7  175.439
 7.2136  30679.6  174.229
 7.2556  31025.6  175.36
 7.2976  31070.6  175.987
 7.3396  30803.6  175.456
 7.3816  30975.2  176.152
 7.4236  31176.6  176.027
 7.4656  31358.7  176.01
 7.5076  31773.6  177.309
 7.5496  31487  177.047
 7.5916  31679.4  177.634
 7.6336  32263  179.152
 7.6756  31892.3  177.967
 7.7176  32470.3  179.89
 7.7596  32339  180.735
 7.8016  35398.2  191.396
 7.8436  32497.6  180.107
 7.8856  32832.9  180.653
 7.9276  33273.6  182.245
 7.9696  33299.9  182.625
 8.0116  34341.5  184.025
 8.0536  35012.8  186.06
 8.0956  36101.2  190.121
 8.1376  35022  186.736
 8.1796  35126.8  187.535
 8.2216  36128.5  188.952
 8.2636  37136.9  191.824
 8.3056  36368.9  190.588
 8.3476  37745.3  193.487
 8.3896  36927.7  191.465
 8.4316  36695.6  191.025
 8.4736  36544.8  190.109
 8.5156  36218.1  189.527
 8.5576  36193.1  190.423
 8.5996  35845.7  188.398
 8.6416  35994.7  190.031
 8.6836  35495.3  188.546
 8.7256  36352.6  190.258
 8.7676  37620.5  196.489
 8.8096  38042.6  194.831
 8.8516  36564.5  190.576
 8.8936  37070.8  191.851
 8.9356  36370.8  190.353
 8.9776  35904.2  189.217
 9.0196  36191.6  189.636
 9.0616  36269.8  189.351
 9.1036  37244.4  193.066
 9.1456  35277.4  187.244
 9.1876  35412.1  187.524
 9.2296  35125  186.229
 9.2716  34992.2  185.9
 9.3136  34929.5  185.728
 9.3556  35340.4  186.795
 9.3976  34151.8  184.134
 9.4396  34204.3  184.188
 9.4816  34111.4  183.784
 9.5236  33951.5  183.265
 9.5656  33465.9  182.305
 9.6076  32806.4  181.026
 9.6496  33213.6  182.015
 9.6916  32964.4  181.293
 9.7336  33395  182.247
 9.7756  32852.9  182.033
 9.8176  32630  180.928
 9.8596  32481.9  178.96
 9.9016  32108.5  177.921
 9.9436  31958.5  177.43
 9.9856  32052.2  177.957
 10.0276  31331.5  177.011
 10.0696  31454.4  176.401
 10.1116  30704.3  174.543
 10.1536  30486.2  174.079
 10.1956  30087  172.553
 10.2376  30087.5  172.061
 10.2796  29912.6  171.673
 10.3216  29836.9  171.748
 10.3636  29643.5  171.214
 10.4056  30832  175.028
 10.4476  31563.9  176.689
 10.4896  33278.5  180.838
 10.5316  30517.5  173.921
 10.5736  29320.5  170.887
 10.6156  29063.3  169.882
 10.6576  31783.1  176.16
 10.6996  28833.6  168.485
 10.7416  28028.3  166.331
 10.7836  28344.5  167.952
 10.8256  27125.5  164.715
 10.8676  27276.8  164.726
 10.9096  27097.3  164.209
 10.9516  26601.5  161.661
 10.9936  27382.2  164.223
 11.0356  26737.1  162.885
 11.0776  27648.8  164.961
 11.1196  27117.3  164.139
 11.1616  26008  160.425
 11.2036  26466  161.669
 11.2456  27508.3  165.563
 11.2876  26109.5  161.013
 11.3296  25821  160.038
 11.3716  26322.3  161.268
 11.4136  26020.6  161.228
 11.4556  26059.6  161.014
 11.4976  26939.7  162.683
 11.5396  27210.9  163.676
 11.5816  25943.6  160.263
 11.6236  25383.5  158.752
 11.6656  25614.1  158.614
 11.7076  24787.5  156.864
 11.7496  24925.4  161.268
 11.7916  24940.9  156.592
 11.8336  24218.7  155.203
 11.8756  24490.7  155.622
 11.9176  24156.6  154.238
 11.9596  24111.6  154.253
 12.0016  24035.4  154.777
 12.0436  24044.8  154.252
 12.0856  23967.4  154.506
 12.1276  23814.1  153.971
 12.1696  23809.4  153.069
 12.2116  23917.8  153.429
 12.2536  25290.5  158.611
 12.2956  23679  152.815
 12.3376  23795  153.393
 12.3796  23630.3  153.341
 12.4216  23606.3  152.462
 12.4636  24028.4  154.763
 12.5056  23385.4  151.951
 12.5476  23482.2  151.782
 12.5896  23292.8  151.806
 12.6316  23314.1  152.012
 12.6736  23286.8  152.42
 12.7156  23671.5  153.503
 12.7576  23384  152.834
 12.7996  23382.7  151.484
 12.8416  23416.7  152.642
 12.8836  23996  154.354
 12.9256  24047.7  153.543
 12.9676  23924.3  153.554
 13.0096  24031.5  154.999
 13.0516  24013  153.983
 13.0936  24089.3  154.624
 13.1356  24129  153.733
 13.1776  23949.3  154.165
 13.2196  23676  152.924
 13.2616  23563  152.88
 13.3036  23901.9  153.933
 13.3456  23661.5  153.508
 13.3876  24359.6  155.017
 13.4296  23797.5  153.399
 13.4716  23912.8  153.395
 13.5136  24196.5  154.416
 13.5556  23961.7  154.305
 13.5976  23924.2  154.354
 13.6396  24197.4  154.597
 13.6816  24200.1  155.074
 13.7236  24567.8  155.827
 13.7656  26185  161.345
 13.8076  27073.4  162.68
 13.8496  26319.9  161.07
 13.8916  24437.7  156.349
 13.9336  23533.5  152.71
 13.9756  23832.7  153.048
 14.0176  23270.9  151.916
 14.0596  24192.8  154.829
 14.1016  23330.2  152.46
 14.1436  23317.8  151.544
 14.1856  22851  150.325
 14.2276  23035.2  151.4
 14.2696  22921  150.883
 14.3116  22340.6  148.877
 14.3536  22092.2  148.205
 14.3956  22089.4  147.924
 14.4376  22222.2  148.151
 14.4796  22190.7  148.047
 14.5216  21727.7  147.272
 14.5636  22182.6  148.375
 14.6056  21807.9  146.674
 14.6476  21623.8  145.304
 14.6896  21158.1  144.272
 14.7316  20720.1  143.79
 14.7736  20731.3  142.986
 14.8156  20661.6  142.759
 14.8576  20609.8  142.442
 14.8996  20434.8  143.027
 14.9416  19886.9  141.11
 14.9836  19916  141.193
 15.0256  19433.4  138.414
 15.0676  19263  138.114
 15.1096  19285.9  137.939
 15.1516  18887.2  137.047
 15.1936  18778.9  136.093
 15.2356  18781.3  136.38
 15.2776  18747.7  135.852
 15.3196  18320.6  135.274
 15.3616  18220.4  134.665
 15.4036  18206.5  134.476
 15.4456  18409.5  134.876
 15.4876  18252  133.987
 15.5296  17951.4  133.16
 15.5716  17669.7  131.72
 15.6136  17650.7  131.97
 15.6556  18764  135.301
 15.6976  17670.9  131.593
 15.7396  17657.1  131.922
 15.7816  17542.5  131.017
 15.8236  16972  129.541
 15.8656  17294.9  130.565
 15.9076  17143.5  129.82
 15.9496  18035.2  135.961
 15.9916  17376.8  133.874
 16.0336  17639.9  131.725
 16.0756  17231.9  130.515
 16.1176  17151.8  130.303
 16.1596  16732.4  129.846
 16.2016  16608.9  128.16
 16.2436  16721.1  128.957
 16.2856  16643.4  128.187
 16.3276  16291.8  127.26
 16.3696  16508.9  127.925
 16.4116  16372.6  127.83
 16.4536  16501.2  128.153
 16.4956  16986.3  129.742
 16.5376  16422.2  127.771
 16.5796  16204.6  126.294
 16.6216  16405.3  127.333
 16.6636  16059  126.177
 16.7056  16317.1  127.045
 16.7476  16260.7  126.359
 16.7896  16184.6  126.801
 16.8316  16253.1  127.048
 16.8736  16531.5  128.378
 16.9156  16306  127.829
 16.9576  15916.5  127.086
 16.9996  16032.8  128.024
 17.0416  15924.1  125.99
 17.0836  15997.7  126.033
 17.1256  15861  125.506
 17.1676  16165.5  126.657
 17.2096  16020.3  125.992
 17.2516  15746.2  124.701
 17.2936  15497.1  124.053
 17.3356  15316.4  123.303
 17.3776  15372  123.724
 17.4196  15285.3  123.081
 17.4616  15610.6  124.289
 17.5036  15612.1  124.668
 17.5456  15031.2  122.949
 17.5876  14980.1  121.801
 17.6296  15022.7  121.803
 17.6716  15024.1  122.383
 17.7136  15537.1  124.557
 17.7556  14897.8  122.291
 17.7976  14953.3  122.241
 17.8396  14848.8  121.329
 17.8816  14712.6  121.336
 17.9236  14665.8  120.936
 17.9656  14597.3  121.171
 18.0076  15134.8  122.963
 18.0496  15281.6  122.685
 18.0916  17982.4  133.691
 18.1336  16257.8  127.224
 18.1756  15255.7  122.778
 18.2176  15709.9  124.813
 18.2596  14658.5  120.296
 18.3016  14933.5  121.674
 18.3436  15243.6  122.941
 18.3856  14770.6  121.144
 18.4276  14606.2  120.151
 18.4696  14701.7  120.629
 18.5116  14790.7  121.287
 18.5536  14437.4  120.184
 18.5956  14369.6  119.464
 18.6376  14560.1  120.657
 18.6796  14323.7  118.99
 18.7216  14491.9  120.184
 18.7636  14196.4  118.943
 18.8056  13987.4  118.003
 18.8476  13730.2  117.53
 18.8896  13856  117.404
 18.9316  14160.1  118.682
 18.9736  13841.9  117.031
 19.0156  14167  118.817
 19.0576  14178.7  117.691
 19.0996  14026.9  117.788
 19.1416  13997.1  118.055
 19.1836  13860.1  117.09
 19.2256  13613.9  116.262
 19.2676  13847.7  117.339
 19.3096  13686.1  116.9
 19.3516  13730.3  117.043
 19.3936  13719.3  116.893
 19.4356  13895.2  117.515
 19.4776  13737.7  116.943
 19.5196  13716.5  116.706
 19.5616  13616.6  116.54
 19.6036  13570.2  115.844
 19.6456  13798.5  116.933
 19.6876  14143.8  118.014
 19.7296  13968.4  117.738
 19.7716  13600.7  116.356
 19.8136  14093.1  118.634
 19.8556  14078  118.055
 19.8976  14303.9  119.062
 19.9396  14216.3  118.286
 19.9816  14344  119.071
 20.0236  14777.5  121.043
 20.0656  14155.3  118.476
 20.1076  13994.9  118.268
 20.1496  13573.4  116.477
 20.1916  13801.8  116.965
 20.2336  13568.7  115.903
 20.2756  13396  115.58
 20.3176  13306  114.956
 20.3596  13174.5  114.376
 20.4016  13317.9  114.782
 20.4436  13133.5  114.547
 20.4856  13271.1  114.936
 20.5276  12954.2  114.014
 20.5696  13220.2  114.622
 20.6116  13204.9  114.841
 20.6536  12996.7  113.451
 20.6956  13012.7  113.65
 20.7376  12833.3  113.08
 20.7796  12945.9  113.261
 20.8216  13013  113.27
 20.8636  13110.1  114.065
 20.9056  13439.3  115.425
 20.9476  13064.8  113.651
 20.9896  13548.2  115.602
 21.0316  12885.3  112.646
 21.0736  13009.9  113.698
 21.1156  13139.5  114.43
 21.1576  13081.9  114.219
 21.1996  12882.4  113.321
 21.2416  12865.5  113.073
 21.2836  12979.1  113.551
 21.3256  12828.3  112.948
 21.3676  12821  112.462
 21.4096  12952  113.367
 21.4516  12801.3  112.568
 21.4936  12535.3  111.668
 21.5356  12744.3  112.54
 21.5776  12767.7  112.471
 21.6196  12762.6  112.493
 21.6616  12809.3  112.772
 21.7036  12674.3  111.952
 21.7456  12653.9  111.941
 21.7876  12433  110.726
 21.8296  12448.8  110.645
 21.8716  12532.6  111.24
 21.9136  12729.6  112.312
 21.9556  12675.2  111.743
 21.9976  12483.1  110.929
 22.0396  12473.9  111.14
 22.0816  12470  111.652
 22.1236  12684.1  112.063
 22.1656  12470  111.256
 22.2076  12352.7  110.192
 22.2496  12273.6  109.877
 22.2916  12220.2  109.517
 22.3336  12272.9  110.471
 22.3756  12305.2  110.342
 22.4176  12143.1  109.467
 22.4596  11937.2  109.111
 22.5016  12020.5  109.008
 22.5436  12310.5  110.189
 22.5856  12451.9  111.063
 22.6276  12547.7  111.621
 22.6696  12202.1  110.43
 22.7116  12096.7  109.463
 22.7536  12138.6  109.635
 22.7956  12164.9  109.098
 22.8376  11953  108.653
 22.8796  12122.4  109.223
 22.9216  12158.5  109.921
 22.9636  12119.8  108.915
 23.0056  11894.7  108.03
 23.0476  12260.5  110.244
 23.0896  12472.8  110.574
 23.1316  12412.3  110.739
 23.1736  12270.2  113.009
 23.2156  12432.9  111.15
 23.2576  12683.8  112.382
 23.2996  12393  110.881
 23.3416  12457.9  111.683
 23.3836  12307  110.246
 23.4256  12583.1  111.592
 23.4676  12524.2  111.031
 23.5096  12418.9  111.214
 23.5516  12476.3  110.77
 23.5936  12492.9  111.756
 23.6356  12584.4  111.83
 23.6776  12257.8  110.581
 23.7196  12342.1  110.535
 23.7616  12249.8  110.048
 23.8036  12428.3  110.883
 23.8456  12312.3  109.929
 23.8876  12327.6  110.349
 23.9296  12080.9  109.724
 23.9716  12272.8  109.802
 24.0136  12285.7  110.76
 24.0556  12156.2  109.893
 24.0976  11928.8  108.672
 24.1396  11931.1  111.304
 24.1816  12025.8  110.155
 24.2236  12115  110.187
 24.2656  11966.7  108.974
 24.3076  11925  109.064
 24.3496  11879.2  108.738
 24.3916  12111.6  109.844
 24.4336  11935.5  109.241
 24.4756  11795.5  108.487
 24.5176  11864.2  108.433
 24.5596  11765  108.104
 24.6016  11483.9  107.094
 24.6436  11899  108.511
 24.6856  11687  107.285
 24.7276  11467.6  106.6
 24.7696  11571.9  107.188
 24.8116  11554.8  107.301
 24.8536  11421  106.669
 24.8956  11477.6  106.66
 24.9376  11439.2  106.421
 24.9796  11420  106.691
 25.0216  11445.9  106.916
 25.0636  11451.3  106.6
 25.1056  11213.2  106.182
 25.1476  11179.1  107.652
 25.1896  11082.1  105.709
 25.2316  11087.2  105.015
 25.2736  11153.3  104.985
 25.3156  10935.3  104.015
 25.3576  11105  105.255
 25.3996  11007.6  104.78
 25.4416  10891.5  104.198
 25.4836  10885.3  104.69
 25.5256  11042.2  104.805
 25.5676  10996.3  104.32
 25.6096  10748.3  103.699
 25.6516  10938.2  104.116
 25.6936  10928.4  104.379
 25.7356  10796.1  103.885
 25.7776  10888.4  103.929
 25.8196  10787  103.689
 25.8616  10736.7  103.375
 25.9036  11101.6  104.563
 25.9456  10825.9  103.857
 25.9876  10606.5  102.86
 26.0296  10838.2  103.499
 26.0716  10865.1  104.044
 26.1136  11004  104.643
 26.1556  10910.9  103.583
 26.1976  10695.3  103.481
 26.2396  10698.1  102.653
 26.2816  10795.4  103.725
 26.3236  10632.8  103.097
 26.3656  10909.6  104.145
 26.4076  10718.4  103.439
 26.4496  10856.4  103.693
 26.4916  11023.4  104.39
 26.5336  11408  106.538
 26.5756  11577  107.205
 26.6176  10982.3  104.435
 26.6596  10731  103.535
 26.7016  10519.4  102.276
 26.7436  10532  102.461
 26.7856  10409.7  101.856
 26.8276  10438.4  101.964
 26.8696  10416.2  101.719
 26.9116  10394.5  101.559
 26.9536  10456.3  101.906
 26.9956  10383  101.591
 27.0376  10375.1  101.764
 27.0796  10366.5  101.453
 27.1216  10472.6  102.029
 27.1636  10118.1  100.459
 27.2056  10324.2  101.357
 27.2476  10270.6  101.089
 27.2896  10228  100.997
 27.3316  10300.9  101.062
 27.3736  10125.8  100.48
 27.4156  10230.1  100.814
 27.4576  10268.7  101.238
 27.4996  10391.6  101.451
 27.5416  10256.4  101.09
 27.5836  10158.5  100.447
 27.6256  9987.9  99.7805
 27.6676  10011.4  99.8952
 27.7096  10151.8  100.464
 27.7516  10298.7  101.348
 27.7936  10670.2  103.295
 27.8356  10506.8  102.106
 27.8776  10409.4  101.695
 27.9196  10146.6  100.275
 27.9616  10215.8  100.81
 28.0036  10122.1  100.308
 28.0456  9929.14  99.4928
 28.0876  9989.01  99.866
 28.1296  10068.3  100.096
 28.1716  10061.5  100.076
 28.2136  9990.09  99.6976
 28.2556  9978.49  99.738
 28.2976  9893.84  99.3228
 28.3396  9875.19  98.9865
 28.3816  9981.69  99.5316
 28.4236  9873.41  99.142
 28.4656  9792.45  98.7748
 28.5076  9793.06  98.4252
 28.5496  9725.52  98.3322
 28.5916  9822.68  98.6388
 28.6336  9828.68  99.001
 28.6756  9812.97  98.1343
 28.7176  9802.47  98.6301
 28.7596  9616.55  97.5869
 28.8016  9668.3  97.8864
 28.8436  9540.57  97.4727
 28.8856  9763.74  98.4542
 28.9276  9822.3  98.9984
 28.9696  9683.05  97.9558
 29.0116  9561.17  97.5239
 29.0536  9408.3  96.9394
 29.0956  9636.12  97.7998
 29.1376  9544.66  97.3085
 29.1796  9545.77  97.3643
 29.2216  9475.81  96.8538
 29.2636  9625.97  97.6957
 29.3056  9545.9  97.0721
 29.3476  9479.56  97.2591
 29.3896  9688.21  98.4368
 29.4316  9493.56  96.7813
 29.4736  9299.28  95.8532
 29.5156  9429.2  96.4395
 29.5576  9282.14  96.4132
 29.5996  9273.53  95.64
 29.6416  9268.61  95.7335
 29.6836  9385.3  96.2619
 29.7256  9333.42  96.5526
 29.7676  9312.45  96.1104
 29.8096  9128.95  95.1032
 29.8516  9152.44  95.5482
 29.8936  9227.64  96.0342
 29.9356  9197.07  95.6348
 29.9776  9253.11  96.0768
 30.0196  9260.73  95.5157
 30.0616  9274.2  95.9505
 30.1036  9211.13  95.4543
 30.1456  9076.93  94.9836
 30.1876  9194.51  95.5756
 30.2296  9178.11  95.4399
 30.2716  9161.27  94.9958
 30.3136  9156.56  95.8138
 30.3556  9436.86  97.2657
 30.3976  9274.54  97.9106
 30.4396  9669.37  97.293
 30.4816  9504.3  96.0718
 30.5236  9574.07  96.4165
 30.5656  9166.22  94.9967
 30.6076  9428.37  95.7596
 30.6496  9433.02  96.1883
 30.6916  9161.97  94.8964
 30.7336  9262.43  95.5466
 30.7756  9217.3  95.4082
 30.8176  9371.97  96.1181
 30.8596  9279.46  95.4091
 30.9016  9249.59  95.5992
 30.9436  9387.15  96.0509
 30.9856  9338.87  95.9287
 31.0276  9150.5  94.588
 31.0696  9155.05  95.1641
 31.1116  9224.19  95.4769
 31.1536  9142.68  94.9297
 31.1956  9321.68  95.9602
 31.2376  8988.29  94.2519
 31.2796  9205.32  94.9225
 31.3216  9148.94  94.551
 31.3636  9171.8  95.3815
 31.4056  9213.34  96.8989
 31.4476  9305.28  95.2867
 31.4896  9267.18  95.5917
 31.5316  9288.83  95.1105
 31.5736  9680.75  96.9221
 31.6156  9564.74  96.3467
 31.6576  9382.67  95.5028
 31.6996  9314.54  94.8333
 31.7416  9277.22  95.7214
 31.7836  9192.21  94.2919
 31.8256  9182.23  94.5003
 31.8676  9397.36  95.6005
 31.9096  9143.01  94.6556
 31.9516  9144.56  94.8351
 31.9936  8940.98  93.6006
 32.0356  9149.35  94.7401
 32.0776  9204.29  94.9064
 32.1196  9231.99  95.1597
 32.1616  9104.12  93.952
 32.2036  9116.87  94.521
 32.2456  9017.82  94.3886
 32.2876  9152.18  94.5838
 32.3296  8910.46  93.2883
 32.3716  8851.24  93.0993
 32.4136  8769.39  92.8634
 32.4556  9040.79  93.6794
 32.4976  8938.47  93.0538
 32.5396  8855.23  92.6881
 32.5816  8824.45  92.6434
 32.6236  8775.07  92.4428
 32.6656  8939.49  93.854
 32.7076  8829.07  92.9358
 32.7496  8793.93  92.4304
 32.7916  8832.34  92.5854
 32.8336  8825.73  92.6482
 32.8756  9013.54  93.3474
 32.9176  8883.32  93.1535
 32.9596  8807.34  92.8233
 33.0016  8902.63  93.0969
 33.0436  8783.45  92.6497
 33.0856  8754.05  92.5846
 33.1276  8733.2  92.2147
 33.1696  8760.76  92.176
 33.2116  8762.51  92.4249
 33.2536  8917.27  93.215
 33.2956  8732.08  92.3459
 33.3376  8721.86  92.0163
 33.3796  8818.16  92.7514
 33.4216  8801.44  92.2664
 33.4636  8804.2  92.425
 33.5056  8580.41  91.4865
 33.5476  8718.8  92.1831
 33.5896  8799.01  92.4183
 33.6316  8700.42  92.1882
 33.6736  8578.38  91.7982
 33.7156  8638.52  92.1518
 33.7576  8601.07  91.5906
 33.7996  8667.8  91.7158
 33.8416  8596  91.5195
 33.8836  8549.9  91.0541
 33.9256  8778.28  92.305
 33.9676  8739.04  92.0071
 34.0096  8627.67  91.7267
 34.0516  8507.28  90.7264
 34.0936  8474.43  90.8163
 34.1356  8559.37  91.017
 34.1776  8408.58  90.2178
 34.2196  8412.49  90.4089
 34.2616  8436.3  90.6801
 34.3036  8550.5  91.5303
 34.3456  8429.16  90.6395
 34.3876  8622.22  91.6386
 34.4296  8459.87  90.4652
 34.4716  8536.64  91.0293
 34.5136  8535.59  91.2168
 34.5556  8313.47  90.2702
 34.5976  8558.2  91.3973
 34.6396  8457.08  90.5743
 34.6816  8626.55  91.5809
 34.7236  8506.99  90.7267
 34.7656  8532.83  91.0746
 34.8076  8367.84  90.5164
 34.8496  8331.54  90.1723
 34.8916  8370.89  90.2406
 34.9336  8492.18  90.8849
 34.9756  8458.3  90.6216
 35.0176  8362.38  90.6283
 35.0596  8483.24  91.0976
 35.1016  8565.98  91.3025
 35.1436  8633.86  91.3459
 35.1856  8473.36  90.6189
 35.2276  8346.74  90.112
 35.2696  8411.91  90.6543
 35.3116  8276.01  90.0216
 35.3536  8349.54  90.123
 35.3956  8352.57  89.8591
 35.4376  8431.68  90.8306
 35.4796  8389.18  90.6535
 35.5216  8337.3  90.3387
 35.5636  8094.3  89.7409
 35.6056  8270.19  89.734
 35.6476  8429.35  90.4999
 35.6896  8362.25  90.2353
 35.7316  8318.48  89.97
 35.7736  8272.27  89.8988
 35.8156  8298.29  90.0474
 35.8576  8365.18  90.6608
 35.8996  8433.95  90.9999
 35.9416  8303.32  89.804
 35.9836  8342.03  90.3538
 36.0256  8464.36  91.014
 36.0676  8472.31  90.8174
 36.1096  8279.63  89.9304
 36.1516  8472.44  90.8597
 36.1936  8419.82  90.4103
 36.2356  8261.77  90.21
 36.2776  8204.02  89.3879
 36.3196  8283.84  89.4856
 36.3616  8262.78  89.4874
 36.4036  8236.28  89.4256
 36.4456  8312  90.0381
 36.4876  8053.26  88.5693
 36.5296  8123.81  88.997
 36.5716  8174.03  90.0403
 36.6136  8244.95  89.226
 36.6556  8097.79  88.6235
 36.6976  8097.61  89.1138
 36.7396  8007.67  88.3497
 36.7816  8001.18  88.6879
 36.8236  8014.29  88.6808
 36.8656  7809.43  87.6046
 36.9076  7856.9  87.7577
 36.9496  7863.77  87.7831
 36.9916  7924.59  87.7589
 37.0336  8140.22  89.2591
 37.0756  8005.8  88.3153
 37.1176  7817.69  87.5346
 37.1596  7957.35  88.316
 37.2016  7983.11  88.6799
 37.2436  7950.5  87.8277
 37.2856  7932.31  87.9785
 37.3276  8038.06  87.9252
 37.3696  7949.92  88.3147
 37.4116  7921.64  88.0622
 37.4536  7841.79  87.4897
 37.4956  7649.66  86.4518
 37.5376  7998.08  89.9668
 37.5796  7892.79  89.2944
 37.6216  7954.19  87.9275
 37.6636  8070.9  88.4553
 37.7056  8053.58  88.5491
 37.7476  8099.43  88.3458
 37.7896  7963.51  88.1098
 37.8316  7970.73  88.292
 37.8736  7963.56  87.7959
 37.9156  7957.89  87.7495
 37.9576  7891.09  87.3017
 37.9996  7777.41  86.3883
 38.0416  7971.01  88.2594
 38.0836  8090.82  88.8261
 38.1256  7949.24  88.0158
 38.1676  7768.87  87.1299
 38.2096  8088.04  88.5144
 38.2516  7903.06  87.7161
 38.2936  7955.36  87.7958
 38.3356  7959.27  87.7565
 38.3776  7862.43  87.4624
 38.4196  7964.88  87.8913
 38.4616  8024.1  88.4602
 38.5036  8028.8  88.3321
 38.5456  7771.26  87.7264
 38.5876  7839.77  88.1283
 38.6296  7837.73  87.1074
 38.6716  7866.44  87.064
 38.7136  7951.19  87.4739
 38.7556  7793.3  87.1061
 38.7976  7918.67  87.7225
 38.8396  7800.17  87.5253
 38.8816  7728.7  86.9195
 38.9236  7812.38  87.1881
 38.9656  7841.78  87.2674
 39.0076  7935.16  87.177
 39.0496  7973.14  87.945
 39.0916  7980.48  87.6365
 39.1336  7868.16  87.4214
 39.1756  7804.31  87.1235
 39.2176  7738.19  87.2943
 39.2596  7846.36  87.8169
 39.3016  7856.68  87.4667
 39.3436  7810.94  87.5986
 39.3856  7898.99  87.551
 39.4276  8037.25  88.8272
 39.4696  7893.24  87.6426
 39.5116  7943.66  88.4438
 39.5536  7847.32  88.3318
 39.5956  7873.95  87.5888
 39.6376  7774.05  87.0327
 39.6796  7904.81  87.5062
 39.7216  7921.21  87.7
 39.7636  7866.74  87.9639
 39.8056  7944.34  88.1729
 39.8476  7843.66  87.8639
 39.8896  7830.94  87.4222
 39.9316  7784.64  87.4207
 39.9736  7806.32  87.1188
 40.0156  7738.65  86.5674
 40.0576  7822.06  87.382
 40.0996  7817.55  86.5532
 40.1416  7906.53  87.8341
 40.1836  7901.07  87.6924
 40.2256  7858.68  87.4922
 40.2676  7790.63  87.212
 40.3096  7823.38  87.3276
 40.3516  7935.32  88.0641
 40.3936  7841.6  87.1051
 40.4356  7747.35  86.7798
 40.4776  7920.45  88.1428
 40.5196  7859.37  87.9362
 40.5616  7978.43  88.231
 40.6036  7721.98  87.067
 40.6456  7863.48  87.4627
 40.6876  7954.72  87.9623
 40.7296  7829.72  87.4075
 40.7716  7860.75  87.6999
 40.8136  7787.27  87.236
 40.8556  7976.83  88.4157
 40.8976  7933.23  88.1039
 40.9396  7898.47  88.2517
 40.9816  7851.56  87.2812
 41.0236  7887.36  87.2734
 41.0656  7984.13  88.3353
 41.1076  7925.63  87.7878
 41.1496  7889.34  87.493
 41.1916  7768.61  87.1349
 41.2336  7844.94  87.5563
 41.2756  7822.42  87.0415
 41.3176  7855.14  87.8194
 41.3596  7863.95  87.6218
 41.4016  7779.63  87.4102
 41.4436  7919.37  87.9671
 41.4856  7844.26  87.7214
 41.5276  7942.53  88.2759
 41.5696  7779.27  87.0051
 41.6116  7919.54  88.1691
 41.6536  7787.65  87.2724
 41.6956  7899.2  87.9763
 41.7376  7837.02  87.6556
 41.7796  7741.9  87.0072
 41.8216  7877.61  87.9928
 41.8636  7733.09  87.1377
 41.9056  7823.09  87.4325
 41.9476  7849.35  87.8136
 41.9896  7843.33  87.4407
 42.0316  7962.99  88.1988
 42.0736  7944.25  88.1947
 42.1156  7767.83  87.0414
 42.1576  7792.74  87.2978
 42.1996  7957.37  88.3354
 42.2416  7839.3  87.2699
 42.2836  7796.35  87.151
 42.3256  7686.72  86.6335
 42.3676  7949.61  87.9079
 42.4096  7830.03  87.222
 42.4516  7785.03  87.0426
 42.4936  7834.55  87.3918
 42.5356  7686.41  86.7112
 42.5776  7805.78  87.3142
 42.6196  7799.28  87.332
 42.6616  7521.17  85.9286
 42.7036  7811.3  86.9504
 42.7456  7802.96  87.2597
 42.7876  7671.51  86.6096
 42.8296  7789.34  87.1115
 42.8716  7685.68  86.6956
 42.9136  7726.45  86.7126
 42.9556  7728.07  86.852
 42.9976  7796.57  87.2104
 43.0396  7803.75  86.9795
 43.0816  7656.38  86.5341
 43.1236  7531.14  85.8746
 43.1656  7724.49  86.7914
 43.2076  7693.51  86.7239
 43.2496  7665.29  86.3914
 43.2916  7672.03  86.7868
 43.3336  7733.3  86.9621
 43.3756  7720.69  86.6557
 43.4176  7565.85  85.8637
 43.4596  7715.24  86.5541
 43.5016  7688.54  86.8059
 43.5436  7616.65  86.3121
 43.5856  7575.72  86.1097
 43.6276  7563.61  85.9238
 43.6696  7514.52  85.9076
 43.7116  7597.85  85.8714
 43.7536  7703.12  86.9712
 43.7956  7453.4  86.7527
 43.8376  7561.65  85.9096
 43.8796  7450.95  85.3586
 43.9216  7507.65  85.6023
 43.9636  7592.49  86.1934
 44.0056  7481.78  85.7906
 44.0476  7417.82  85.0571
 44.0896  7380.96  85.1795
 44.1316  7482.85  85.2979
 44.1736  7413.2  85.0177
 44.2156  7431.03  84.986
 44.2576  7579.24  86.1498
 44.2996  7562.5  86.02
 44.3416  7513.29  85.5033
 44.3836  7234.82  84.2293
 44.4256  7382.66  84.7318
 44.4676  7335.21  84.614
 44.5096  7433.75  85.3234
 44.5516  7426.01  85.2466
 44.5936  7267.38  84.2822
 44.6356  7270.14  84.0407
 44.6776  7341.59  84.7669
 44.7196  7364.92  85.1971
 44.7616  7470.26  87.124
 44.8036  7404.68  85.1783
 44.8456  7593.52  86.4598
 44.8876  7528.27  85.929
 44.9296  7771.63  86.7565
 44.9716  7474.22  85.4996
 45.0136  7510.28  85.6511
 45.0556  7576.12  85.9968
 45.0976  7470.12  85.545
 45.1396  7521.35  85.5978
 45.1816  7442.63  85.0971
 45.2236  7465.85  85.1318
 45.2656  7503.96  85.8548
 45.3076  7506.66  85.648
 45.3496  7363.05  85.1323
 45.3916  7506.65  86.2226
 45.4336  7441.46  85.6825
 45.4756  7460.99  85.6518
 45.5176  7563.55  85.8545
 45.5596  7604.8  86.2157
 45.6016  7440.56  85.6993
 45.6436  7531.73  85.3972
 45.6856  7338.68  84.9312
 45.7276  7364.37  86.3973
 45.7696  7451.16  86.5925
 45.8116  7385.66  85.6389
 45.8536  7362.68  85.3984
 45.8956  7421.66  85.097
 45.9376  7468.02  84.8253
 45.9796  7387.92  85.0498
 46.0216  7507.02  86.0746
 46.0636  7522.98  85.3038
 46.1056  7531.82  85.35
 46.1476  7336.03  84.8235
 46.1896  7443.75  85.5908
 46.2316  7417.23  85.3002
 46.2736  7398.93  85.5743
 46.3156  7414.16  85.2459
 46.3576  7429.74  85.5394
 46.3996  7509.68  86.1509
 46.4416  7474.3  85.5306
 46.4836  7483.95  85.9392
 46.5256  7563.5  86.3364
 46.5676  7321.2  85.0566
 46.6096  7445.19  85.6967
 46.6516  7547.99  85.3293
 46.6936  7455.81  85.2996
 46.7356  7491.94  85.5903
 46.7776  7434.5  86.1424
 46.8196  7375.48  85.3865
 46.8616  7137.23  83.9519
 46.9036  7192.95  83.9358
 46.9456  7217.44  83.719
 46.9876  7370.37  84.6881
 47.0296  7320.58  85.0899
 47.0716  7297.1  84.774
 47.1136  7248.88  84.1651
 47.1556  7315.82  84.4286
 47.1976  7431.72  85.1643
 47.2396  7246.31  84.5058
 47.2816  7267.45  84.3297
 47.3236  7307.85  84.9285
 47.3656  7250.28  84.5294
 47.4076  7286.16  84.5399
 47.4496  7284.95  84.6293
 47.4916  7281.64  84.7917
 47.5336  7275.29  84.5793
 47.5756  7414.61  85.5067
 47.6176  7128.01  83.7291
 47.6596  7294.22  84.4193
 47.7016  7405.63  84.8769
 47.7436  7326.46  84.762
 47.7856  7365.86  85.0142
 47.8276  7188.48  84.0333
 47.8696  7278.09  84.6287
 47.9116  7325.57  84.6218
 47.9536  7310.87  84.4801
 47.9956  7234.35  84.7493
 48.0376  7195.1  84.2951
 48.0796  7272.56  84.8667
 48.1216  7208.49  84.3216
 48.1636  7309.58  84.4711
 48.2056  7437.8  85.4854
 48.2476  7382.59  85.4726
 48.2896  7249.16  84.6083
 48.3316  7284.86  84.7602
 48.3736  7358.77  85.2066
 48.4156  7278.44  84.6054
 48.4576  7250.15  84.7307
 48.4996  7414.88  85.1334
 48.5416  7421.96  85.5026
 48.5836  7300.93  84.4817
 48.6256  7263.91  84.4718
 48.6676  7243.66  84.8679
 48.7096  7303.23  84.4808
 48.7516  7315.69  84.7043
 48.7936  7238.43  84.3223
 48.8356  7340.01  84.9588
 48.8776  7284.72  85.2158
 48.9196  7360.98  85.0123
 48.9616  7255.18  84.7964
 49.0036  7358.51  85.7451
 49.0456  7168.54  84.6075
 49.0876  7319.65  85.0291
 49.1296  7236.06  84.6985
 49.1716  7123.55  83.9203
 49.2136  7288.6  84.8092
 49.2556  7257.67  84.6497
 49.2976  7316.65  85.0673
 49.3396  7221.01  84.5706
 49.3816  7326.2  84.6034
 49.4236  7300.99  84.8818
 49.4656  7149.01  84.0255
 49.5076  7228.49  84.2346
 49.5496  7223.02  84.2694
 49.5916  7261.4  84.3996
 49.6336  7305.49  84.8717
 49.6756  7338.41  85.2854
 49.7176  7183.14  84.3291
 49.7596  7211.14  84.2604
 49.8016  7240.37  84.351
 49.8436  7231.07  84.6043
 49.8856  7128.4  83.9993
 49.9276  7111.97  84.0048
 49.9696  7200.63  84.5124
 50.0116  7131.3  84.2222
 50.0536  7177.58  84.447
 50.0956  7177.43  84.5215
 50.1376  7193.69  84.297
 50.1796  7127.31  84.1945
 50.2216  7204.49  84.637
 50.2636  7186.62  84.1511
 50.3056  7133.33  84.0199
 50.3476  7111.1  83.9094
 50.3896  7042.97  83.4789
 50.4316  7222.59  84.3644
 50.4736  7096.17  83.8414
 50.5156  7120.59  83.983
 50.5576  7181.93  84.0956
 50.5996  7109.08  83.9502
 50.6416  7187.69  84.3439
 50.6836  7162.16  84.2551
 50.7256  7276.52  84.8471
 50.7676  7217.73  84.8165
 50.8096  7158.91  84.0044
 50.8516  7097.99  84.0734
 50.8936  7019.09  83.3843
 50.9356  7270.09  84.9665
 50.9776  7080.72  84.0205
 51.0196  6916.96  83.1698
 51.0616  6950.92  82.6993
 51.1036  7100.63  83.9468
 51.1456  6967.78  83.0624
 51.1876  7051.52  82.8967
 51.2296  7046.69  83.5198
 51.2716  6880.31  82.2279
 51.3136  6955.45  83.1415
 51.3556  6919.34  82.5336
 51.3976  6830.36  82.1605
 51.4396  6743.79  81.9482
 51.4816  6915.01  82.8346
 51.5236  6938.41  83.0604
 51.5656  6912.98  82.5035
 51.6076  6994.69  83.0755
 51.6496  6892.1  82.6557
 51.6916  6902.03  83.0766
 51.7336  6816.26  82.6471
 51.7756  6922.11  82.9821
 51.8176  6823.88  82.5018
 51.8596  6855.65  82.708
 51.9016  7055.66  83.5038
 51.9436  6920.71  84.2005
 51.9856  6952.5  84.7983
 52.0276  7081.89  84.0263
 52.0696  7040.83  83.8699
 52.1116  6879.85  83.0324
 52.1536  7037.71  83.8583
 52.1956  7019.9  83.212
 52.2376  6996.77  83.2463
 52.2796  7041.64  83.3302
 52.3216  6804.99  82.6108
 52.3636  6859.47  82.4921
 52.4056  6806.38  82.043
 52.4476  6855.65  82.7105
 52.4896  6756.13  82.1384
 52.5316  6946.81  83.352
 52.5736  6884.52  82.6955
 52.6156  7066.54  84.1863
 52.6576  6869.88  82.4386
 52.6996  6821.41  83.1452
 52.7416  6862.96  83.246
 52.7836  6815.57  82.8494
 52.8256  6964.56  82.9488
 52.8676  6809.54  82.6006
 52.9096  6863.81  82.9868
 52.9516  6844.41  83.2802
 52.9936  6850.29  83.6927
 53.0356  6861.68  82.7381
 53.0776  6806.7  82.6929
 53.1196  6860.04  83.1352
 53.1616  6916.81  83.529
 53.2036  6893.84  83.353
 53.2456  6804.39  82.9124
 53.2876  6898.02  83.1718
 53.3296  6997.5  84.1047
 53.3716  6886.68  83.1736
 53.4136  6830.94  83.0005
 53.4556  6849.64  83.1315
 53.4976  6908.5  83.3305
 53.5396  6795.88  83.0554
 53.5816  6955.18  83.647
 53.6236  6819.94  83.1857
 53.6656  6787.41  82.5923
 53.7076  6870.6  83.0617
 53.7496  6831.53  82.9478
 53.7916  6775.22  82.7405
 53.8336  6845.47  83.0563
 53.8756  6666.4  82.5231
 53.9176  6750.2  82.3704
 53.9596  6567.73  82.0261
 54.0016  6509.86  80.9855
 54.0436  6471.18  80.9699
 54.0856  6654.14  81.5246
 54.1276  6531.28  80.9432
 54.1696  6603.4  81.5794
 54.2116  6731.58  82.1104
 54.2536  6703.13  81.7501
 54.2956  6621.7  81.3027
 54.3376  6503.44  81.0406
 54.3796  6566.72  81.3461
 54.4216  6585.1  81.522
 54.4636  6595.48  81.5465
 54.5056  6519.87  80.87
 54.5476  6557.34  81.4589
 54.5896  6552.34  81.261
 54.6316  6524.87  80.9411
 54.6736  6561.8  81.2427
 54.7156  6478.36  80.7629
 54.7576  6364.19  80.0125
 54.7996  6515.66  81.111
 54.8416  6440.16  80.7026
 54.8836  6433.05  80.7404
 54.9256  6479.27  80.8018
 54.9676  6330.41  79.7415
 55.0096  6506.94  80.8768
 55.0516  6361.31  80.2019
 55.0936  6333.62  79.6947
 55.1356  6442.47  80.4136
 55.1776  6488.13  80.9296
 55.2196  6551.99  81.121
 55.2616  6604.09  81.6626
 55.3036  6423.86  80.7129
 55.3456  6280.61  79.9686
 55.3876  6462.69  80.8144
 55.4296  6295.44  79.7724
 55.4716  6468.67  80.8867
 55.5136  6317.74  79.7002
 55.5556  6539.46  81.1356
 55.5976  6382.14  80.2464
 55.6396  6516.55  81.0291
 55.6816  6341.43  79.8027
 55.7236  6292.33  79.5459
 55.7656  6336.22  79.5284
 55.8076  6332.7  79.5347
 55.8496  6321.58  79.784
 55.8916  6310.03  79.9021
 55.9336  6519.38  81.0404
 55.9756  6320.71  79.6777
 56.0176  6368.93  80.1382
 56.0596  6253.82  79.4107
 56.1016  6177.23  78.9329
 56.1436  6268.19  79.7568
 56.1856  6197.27  79.057
 56.2276  6418.43  80.51
 56.2696  6290.11  79.6797
 56.3116  6369.13  80.5519
 56.3536  6280.78  79.6733
 56.3956  6270.9  79.5816
 56.4376  6251.93  79.5139
 56.4796  6114.65  78.4558
 56.5216  6243.24  79.6343
 56.5636  6187.97  78.8676
 56.6056  6349.13  80.1186
 56.6476  6156.52  78.4849
 56.6896  6368.96  80.3022
 56.7316  6286.68  79.7278
 56.7736  6209.22  79.2178
 56.8156  6238.05  79.4353
 56.8576  6136.95  78.7195
 56.8996  6301.52  79.6598
 56.9416  6169.61  79.1583
 56.9836  6324.79  79.6411
 57.0256  6204.02  79.2019
 57.0676  6305.29  79.9543
 57.1096  6205.72  79.1106
 57.1516  6193.49  79.0892
 57.1936  6280.36  79.4022
 57.2356  6080.84  78.4659
 57.2776  6195.7  79.1452
 57.3196  6171.69  79.3417
 57.3616  6178.81  78.9168
 57.4036  6186.14  79.0118
 57.4456  6332.04  79.9077
 57.4876  6237.76  79.1851
 57.5296  6171.17  79.079
 57.5716  6128.2  78.8087
 57.6136  6104.24  78.4947
 57.6556  6188.28  79.1463
 57.6976  6253.03  79.4002
 57.7396  6035.28  78.3304
 57.7816  6045.12  78.7823
 57.8236  6144.57  79.2173
 57.8656  6135.33  78.8208
 57.9076  6195.32  79.2143
 57.9496  6142.49  79.2481
 57.9916  6131.13  78.678
 58.0336  6076.67  78.6145
 58.0756  6081.69  78.2835
 58.1176  6072.7  78.226
 58.1596  6021.82  78.4753
 58.2016  5877.58  76.7682
 58.2436  5944.53  77.6103
 58.2856  5892.35  77.191
 58.3276  5848.03  77.2615
 58.3696  5880.92  77.2361
 58.4116  5850.58  76.9032
 58.4536  5916.92  77.2242
 58.4956  5857.82  77.0182
 58.5376  5923.66  77.0244
 58.5796  5774.48  76.463
 58.6216  5778.52  76.3138
 58.6636  5927.9  77.5002
 58.7056  5900.37  77.1796
 58.7476  5719.94  76.4214
 58.7896  5872.78  77.0863
 58.8316  5908.28  77.3122
 58.8736  5804.53  76.6433
 58.9156  5885.65  77.2182
 58.9576  5862.93  77.3863
 58.9996  5890.92  76.8284
 59.0416  5852.78  76.9355
 59.0836  5928.23  77.3434
 59.1256  5822.74  77.3488
 59.1676  5881.32  78.0465
 59.2096  5793.98  76.7825
 59.2516  5925.96  77.2371
 59.2936  5863.59  77.1528
 59.3356  5720.84  76.0889
 59.3776  5843.81  77.0685
 59.4196  5814.31  76.8115
 59.4616  5845.68  76.8801
 59.5036  5759.93  76.346
 59.5456  5943.27  77.25
 59.5876  5876.53  77.0036
 59.6296  5824.56  76.7303
 59.6716  5925.61  77.4504
 59.7136  5860.18  77.0101
 59.7556  5801.36  76.7564
 59.7976  5847.68  76.8085
 59.8396  5889.41  76.9776
 59.8816  5825.04  77.0907
 59.9236  5880.72  77.1074
 59.9656  5783.2  76.7204
 60.0076  5771.8  76.0165
 60.0496  5857.47  77.0748
 60.0916  5909.54  76.8411
 60.1336  5743.61  76.8345
 60.1756  5840.16  78.6424
 60.1996  0.0000000E+00  0.0000000E+00