File: docs/examples/opeando_xrd/IS17_D/Data/IS17_D/17_Db_f00132.xye
# /beamlines/bl04/projects/cycle2025-II/20250340211-lsimonelli/DATA/IS17_D/17_Db_f00132.xye : mythproc.py merge -s 0.006 -l 0.5 -f /beamlines/bl04/inhouse/ff/FlatField/ff_20Nov2024rod8mm60s_17keV.raw -b True -c true -o xye /beamlines/bl04/projects/cycle2025-II/20250340211-lsimonelli/DATA/IS17_D/17_Db_00132.dat
# IsMon = [6753451, 6756241, 6757076]  IsPos = [-1.5000, -2.4884, -3.4988]
# Wave = 0.4962  CalPath /beamlines/bl04/projects/cycle2025-II/20250340211-lsimonelli/DATA/Align/Si_Pos1_25keV_f00001.cal
# Date = 2025-09-25_06:29:23 Dt = 4.8000  Bin = 0.0060  <imon> = 6755589 +/- 1550 (Min/Max) 6753451 / 6757076
# icurr 250.3652  mocoIn 1.7076E-05  mocoOut 0.8013  i15 7.07903e+06  imon 6.75559e+06  i7 5.3333  iEMpd_timer 4.8000  iEMpd_1 3.4912E-08  iEMpd_2 7.9621E-08  iEMpd_3 1.7575E-08  iEMpd_4 4.8855E-08  iEMhp_timer 4.8000  iEMhp_1 4.8908E-06  iEMhp_2 -2.6052E-08  iEMhp_3 -2.3858E-08  iEMhp_4 -2.0560E-08
#      9776
 1.5856  44361.4  216.309
 1.6276  51410.1  228.865
 1.6696  56608.3  239.31
 1.7116  63396.4  253.747
 1.7536  71751.3  268.801
 1.7956  75560.9  276.534
 1.8376  72519.6  271.34
 1.8796  62157.9  249.367
 1.9216  51836.8  228.627
 1.9636  44564.8  211.649
 2.0056  40517.5  200.52
 2.0476  37822.3  195.86
 2.0896  36405.1  191.029
 2.1316  35051.3  186.542
 2.1736  33700.1  184.362
 2.2156  34088.3  183.933
 2.2576  32770.4  180.99
 2.2996  31701.1  178.665
 2.3416  32165.4  178.533
 2.3836  31363.7  176.402
 2.4256  30342.7  174.072
 2.4676  29798.9  172.261
 2.5096  29839.6  172.435
 2.5516  29989.9  176.819
 2.5936  50513.9  224.855
 2.6356  28644  170.05
 2.6776  27809.1  166.451
 2.7196  27366.1  165.614
 2.7616  27119  164.654
 2.8036  26866.2  164.044
 2.8456  26781.9  164.431
 2.8876  26086.4  162.141
 2.9296  25689.3  161.038
 2.9716  25542.6  160.064
 3.0136  25219.8  159.117
 3.0556  25218.6  159.496
 3.0976  25330.2  158.77
 3.1396  24962.5  158.338
 3.1816  24715.4  157.493
 3.2236  24415.5  156.51
 3.2656  24299.8  155.196
 3.3076  24179.1  156.279
 3.3496  24507.6  156.244
 3.3916  24827.1  157.099
 3.4336  25245.2  159.003
 3.4756  25832.5  160.782
 3.5176  26343.1  162.135
 3.5596  25870.6  163.661
 3.6016  26064.7  161.328
 3.6436  25195.4  159.717
 3.6856  24888.8  157.052
 3.7276  24037.5  155.415
 3.7696  23935.1  155.07
 3.8116  23430.3  153.531
 3.8536  23509.6  153.72
 3.8956  23616.1  153.883
 3.9376  23673.2  154.342
 3.9796  23202.6  152.285
 4.0216  23415.3  152.016
 4.0636  23348.7  153.271
 4.1056  23212.3  152.481
 4.1476  23473.1  153.649
 4.1896  23600  153.908
 4.2316  23676.8  153.995
 4.2736  24238.3  155.611
 4.3156  24309.8  156.068
 4.3576  25263.7  159.009
 4.3996  25235.2  159.191
 4.4416  25882.5  160.805
 4.4836  26554  163.037
 4.5256  26947.3  164.853
 4.5676  26761.7  164.541
 4.6096  27360.1  165.385
 4.6516  27757.2  165.899
 4.6936  27588.9  166.229
 4.7356  28304.3  168.194
 4.7776  27788.9  166.482
 4.8196  27688.5  166.84
 4.8616  27084.6  164.494
 4.9036  26880.1  163.599
 4.9456  26882.7  164.265
 4.9876  25972.4  161.365
 5.0296  26338  162.335
 5.0716  26126.5  162.43
 5.1136  26279.2  162.633
 5.1556  26583  163.02
 5.1976  28742.8  169.515
 5.2396  27119.5  164.351
 5.2816  27156.3  164.938
 5.3236  27259.3  164.933
 5.3656  26713.8  164.211
 5.4076  26614.3  164.04
 5.4496  26533.6  163.289
 5.4916  26852.7  164.017
 5.5336  26659.3  163.438
 5.5756  26518.3  163.023
 5.6176  26856.3  163.503
 5.6596  26985  164.718
 5.7016  27224.2  164.865
 5.7436  27285.7  165.33
 5.7856  27219.3  165.195
 5.8276  27420.6  165.511
 5.8696  27840.2  166.844
 5.9116  27550.6  166.683
 5.9536  27994.5  167.763
 5.9956  28082.2  167.415
 6.0376  28293.1  168.661
 6.0796  28436.6  168.918
 6.1216  28146.6  168.25
 6.1636  28467.1  168.266
 6.2056  28485.6  168.992
 6.2476  28872.2  169.832
 6.2896  29012.6  170.104
 6.3316  28990.8  170.22
 6.3736  28737.5  169.357
 6.4156  28663.9  169.081
 6.4576  29089.6  169.904
 6.4996  29192.5  170.675
 6.5416  29147.9  170.675
 6.5836  29302.2  171.366
 6.6256  29214.7  170.669
 6.6676  30060.5  172.692
 6.7096  29854.4  172.962
 6.7516  30201.3  173.618
 6.7936  30542.1  173.995
 6.8356  30798.5  174.817
 6.8776  30702.9  175.345
 6.9196  30780.5  175.976
 6.9616  31000.6  176.042
 7.0036  31560.4  177.283
 7.0456  31597.9  176.69
 7.0876  31768.9  178.771
 7.1296  31600.3  177.511
 7.1716  31437.8  176.596
 7.2136  31129.4  175.504
 7.2556  31542.3  176.828
 7.2976  31603  177.498
 7.3396  31266.5  176.762
 7.3816  31433  177.444
 7.4236  31786.5  177.738
 7.4656  32063.2  177.968
 7.5076  32350.8  178.913
 7.5496  32036.7  178.582
 7.5916  32112.9  178.84
 7.6336  32783.1  180.587
 7.6756  32818.8  180.531
 7.7176  33324.1  182.248
 7.7596  33010.7  182.61
 7.8016  34609.7  189.268
 7.8436  33478.4  182.774
 7.8856  33506.3  182.455
 7.9276  33935.1  184.021
 7.9696  34448.8  185.719
 8.0116  35166.2  186.19
 8.0536  35738.7  187.945
 8.0956  35752.3  189.168
 8.1376  35899.2  189.031
 8.1796  36190.2  190.334
 8.2216  36860.5  190.831
 8.2636  37346.2  192.333
 8.3056  36541.3  191.011
 8.3476  38007.4  194.13
 8.3896  37396  192.639
 8.4316  37329.1  192.636
 8.4736  37416.2  192.332
 8.5156  36891.8  191.254
 8.5576  37044.8  192.619
 8.5996  36718.6  190.651
 8.6416  36903.8  192.388
 8.6836  36475.6  191.1
 8.7256  37335.7  192.791
 8.7676  37599.4  196.429
 8.8096  38003  194.745
 8.8516  37636.6  193.431
 8.8936  37561.9  193.129
 8.9356  37154.7  192.418
 8.9776  37108.1  192.37
 9.0196  37353.8  192.686
 9.0616  36811.7  190.774
 9.1036  37068.4  192.62
 9.1456  36047.2  189.269
 9.1876  36574  190.608
 9.2296  35969.8  188.451
 9.2716  35819.3  188.101
 9.3136  35977.8  188.514
 9.3556  36394.8  189.575
 9.3976  35176.5  186.911
 9.4396  35681.3  188.134
 9.4816  35112.9  186.493
 9.5236  34659.5  185.179
 9.5656  34625.5  185.445
 9.6076  33656.2  183.348
 9.6496  34013.7  184.201
 9.6916  33541.7  182.886
 9.7336  34059.6  184.077
 9.7756  34004.3  185.058
 9.8176  33807.9  184.167
 9.8596  33528.5  181.843
 9.9016  33283.3  181.172
 9.9436  32761.8  179.488
 9.9856  32553.4  179.359
 10.0276  32122.3  179.246
 10.0696  32832.6  180.238
 10.1116  31515.3  176.855
 10.1536  31666.5  176.949
 10.1956  31171.7  175.651
 10.2376  31017  174.728
 10.2796  30835.5  174.322
 10.3216  30276.1  172.863
 10.3636  30443.3  173.527
 10.4056  30583.5  174.326
 10.4476  31103.5  175.402
 10.4896  31771.7  176.722
 10.5316  31354.3  175.949
 10.5736  29689.2  171.971
 10.6156  29780  171.984
 10.6576  30885.9  173.645
 10.6996  29188.6  169.533
 10.7416  28795.3  168.606
 10.7836  28683.9  168.937
 10.8256  28079.3  167.593
 10.8676  28020.6  166.947
 10.9096  27687.5  165.992
 10.9516  27528.3  164.444
 10.9936  27798.5  165.469
 11.0356  27509.3  165.216
 11.0776  27813.5  165.452
 11.1196  27254.2  164.555
 11.1616  26700.4  162.542
 11.2036  27307.5  164.227
 11.2456  27443.3  165.357
 11.2876  27169.9  164.261
 11.3296  26807  163.066
 11.3716  26982  163.319
 11.4136  27224.3  164.912
 11.4556  27484.4  165.349
 11.4976  28037.5  165.968
 11.5396  27250.2  163.793
 11.5816  26770.9  162.782
 11.6236  25971.4  160.574
 11.6656  26372  160.951
 11.7076  25353.1  158.64
 11.7496  25473.9  163.055
 11.7916  25525  158.428
 11.8336  25013.8  157.724
 11.8756  25021.9  157.303
 11.9176  24983.4  156.849
 11.9596  24964.7  156.967
 12.0016  24571.4  156.5
 12.0436  24664.7  156.238
 12.0856  24339.7  155.707
 12.1276  24361.9  155.729
 12.1696  24360  154.84
 12.2116  24361.4  154.837
 12.2536  24909.8  157.379
 12.2956  24163.4  154.363
 12.3376  24453  155.506
 12.3796  24191.6  155.152
 12.4216  24178.4  154.294
 12.4636  24241.9  155.447
 12.5056  24042.6  154.07
 12.5476  24066  153.659
 12.5896  23835.3  153.558
 12.6316  24075.9  154.491
 12.6736  23714.5  153.816
 12.7156  24094.8  154.877
 12.7576  23896.5  154.498
 12.7996  24273  154.339
 12.8416  24095  154.829
 12.8836  24372.6  155.545
 12.9256  24733  155.72
 12.9676  24244.9  154.565
 13.0096  24642  156.968
 13.0516  24386.2  155.174
 13.0936  24504.8  155.678
 13.1356  24893.7  156.145
 13.1776  24438.1  155.726
 13.2196  24585.5  155.84
 13.2616  24150.1  154.766
 13.3036  24566.7  156.236
 13.3456  24035.3  154.709
 13.3876  24745.5  156.265
 13.4296  24369.3  155.224
 13.4716  24644.1  155.722
 13.5136  24464.9  155.273
 13.5556  24449.5  155.869
 13.5976  24644.1  156.654
 13.6396  24626.6  155.953
 13.6816  24870.4  157.081
 13.7236  24994.6  157.157
 13.7656  26610.9  162.633
 13.8076  27264.9  163.271
 13.8496  26043.8  160.426
 13.8916  24920.4  157.891
 13.9336  24132.2  154.632
 13.9756  24119.9  153.974
 14.0176  23911.9  153.988
 14.0596  24110.4  154.552
 14.1016  23852.8  154.153
 14.1436  23965.2  153.646
 14.1856  23167.4  151.354
 14.2276  23273.9  152.193
 14.2696  23384.4  152.401
 14.3116  22611.3  149.765
 14.3536  22548.6  149.722
 14.3956  22392.8  148.926
 14.4376  22707.4  149.762
 14.4796  22448.6  148.901
 14.5216  22010  148.226
 14.5636  22110.1  148.132
 14.6056  22150  147.823
 14.6476  22120.6  146.97
 14.6896  21801.6  146.449
 14.7316  21393.2  146.106
 14.7736  21236.1  144.711
 14.8156  21186.1  144.564
 14.8576  21191.5  144.441
 14.8996  20591.6  143.574
 14.9416  20187.8  142.168
 14.9836  20162.5  142.065
 15.0256  19821.9  139.767
 15.0676  19566.1  139.174
 15.1096  19610.5  139.068
 15.1516  19370.8  138.766
 15.1936  19127.4  137.334
 15.2356  18981.3  137.083
 15.2776  18889.4  136.344
 15.3196  18547.3  136.085
 15.3616  18475.7  135.581
 15.4036  18589.3  135.862
 15.4456  18752.6  136.109
 15.4876  18406.3  134.531
 15.5296  18246.6  134.232
 15.5716  18053.6  133.125
 15.6136  17977  133.167
 15.6556  18192.1  133.201
 15.6976  17888.1  132.38
 15.7396  17729.6  132.173
 15.7816  17738.4  131.719
 15.8236  17417.3  131.209
 15.8656  17463.4  131.18
 15.9076  17354.1  130.592
 15.9496  17985  135.783
 15.9916  17808.7  135.513
 16.0336  17768.5  132.223
 16.0756  17593.6  131.897
 16.1176  17354.9  130.911
 16.1596  16837.2  130.279
 16.2016  17021.4  129.743
 16.2436  16880.9  129.587
 16.2856  16920.5  129.257
 16.3276  16708.7  128.892
 16.3696  16934.7  129.57
 16.4116  16858.4  129.737
 16.4536  16960.8  129.927
 16.4956  16984.2  129.758
 16.5376  16604.2  128.487
 16.5796  16612.3  127.875
 16.6216  16567.3  127.966
 16.6636  16347  127.307
 16.7056  16642.9  128.316
 16.7476  16668.4  127.942
 16.7896  16507.3  128.073
 16.8316  16556.9  128.24
 16.8736  16676.5  128.954
 16.9156  16597.2  128.978
 16.9576  16361.7  128.857
 16.9996  16202.3  128.693
 17.0416  16350.8  127.665
 17.0836  16204.7  126.862
 17.1256  16161.5  126.699
 17.1676  16158.7  126.644
 17.2096  16137.5  126.459
 17.2516  16259.6  127.031
 17.2936  15878.8  125.58
 17.3356  15670.6  124.747
 17.3776  15888.9  125.788
 17.4196  15576.8  124.252
 17.4616  15625  124.352
 17.5036  15508.6  124.256
 17.5456  15389.9  124.398
 17.5876  15333.8  123.241
 17.6296  15614  124.173
 17.6716  15312.2  123.561
 17.7136  15452.2  124.261
 17.7556  15248.1  123.727
 17.7976  15187.4  123.22
 17.8396  15159.9  122.599
 17.8816  14961.2  122.359
 17.9236  14844.1  121.67
 17.9656  14842  122.182
 18.0076  15093.8  122.803
 18.0496  15232.3  122.48
 18.0916  15963.7  125.963
 18.1336  15743.1  125.19
 18.1756  15197.5  122.546
 18.2176  14988.1  121.91
 18.2596  14767.5  120.732
 18.3016  15018  122.013
 18.3436  15032.4  122.082
 18.3856  14857.9  121.504
 18.4276  14665  120.394
 18.4696  14572.8  120.105
 18.5116  14678.1  120.817
 18.5536  14655.6  121.089
 18.5956  14320.7  119.256
 18.6376  14447.2  120.186
 18.6796  14570.6  120.025
 18.7216  14557.1  120.447
 18.7636  14414.6  119.858
 18.8056  14271.2  119.195
 18.8476  14055.6  118.904
 18.8896  14111.7  118.484
 18.9316  14209.2  118.874
 18.9736  14253.4  118.756
 19.0156  14331.8  119.502
 19.0576  14410.7  118.671
 19.0996  14415.5  119.411
 19.1416  14308.8  119.373
 19.1836  14017.7  117.747
 19.2256  13974.5  117.792
 19.2676  14198.8  118.812
 19.3096  14098.1  118.644
 19.3516  14234.1  118.987
 19.3936  14113.3  118.553
 19.4356  14197.6  118.798
 19.4776  14062  118.308
 19.5196  13973.8  117.8
 19.5616  14117.1  118.657
 19.6036  14046  117.855
 19.6456  14092.4  118.167
 19.6876  14200.3  118.247
 19.7296  14408.6  119.586
 19.7716  14040.7  118.221
 19.8136  14586.4  120.704
 19.8556  14669.7  120.516
 19.8976  14787.3  121.056
 19.9396  14709.9  120.321
 19.9816  14656  120.35
 20.0236  14535.8  120.057
 20.0656  14092  118.206
 20.1076  13997.5  118.289
 20.1496  13779.1  117.348
 20.1916  13848  117.127
 20.2336  13695.2  116.434
 20.2756  13476  115.941
 20.3176  13465.8  115.639
 20.3596  13461.9  115.61
 20.4016  13474.4  115.46
 20.4436  13419.1  115.782
 20.4856  13410.7  115.548
 20.5276  13294.4  115.499
 20.5696  13296.6  115.06
 20.6116  13272.9  115.133
 20.6536  13207.6  114.369
 20.6956  13248.6  114.673
 20.7376  13196.5  114.655
 20.7796  13223.1  114.472
 20.8216  13389.9  114.896
 20.8636  13391.4  115.289
 20.9056  13320.8  114.919
 20.9476  13315.6  114.75
 20.9896  13404.1  114.979
 21.0316  13184  113.927
 21.0736  13227.4  114.645
 21.1156  13180.3  114.599
 21.1576  13122.4  114.386
 21.1996  12977  113.743
 21.2416  13102.8  114.119
 21.2836  13124.4  114.187
 21.3256  13000.3  113.718
 21.3676  12972  113.122
 21.4096  12963.3  113.464
 21.4516  12917.8  113.089
 21.4936  12674.7  112.284
 21.5356  12924.5  113.326
 21.5776  12933.8  113.207
 21.6196  12780.1  112.572
 21.6616  12735.3  112.445
 21.7036  12756.7  112.323
 21.7456  12884.5  112.96
 21.7876  12660.7  111.736
 21.8296  12749.7  111.972
 21.8716  12837.6  112.588
 21.9136  12877.6  112.969
 21.9556  12683.9  111.791
 21.9976  12642.1  111.635
 22.0396  12651.6  111.928
 22.0816  12608.1  112.26
 22.1236  12815.5  112.639
 22.1656  12762.2  112.547
 22.2076  12438.5  110.564
 22.2496  12486.3  110.807
 22.2916  12294.8  109.841
 22.3336  12388.7  110.975
 22.3756  12380.6  110.662
 22.4176  12213.6  109.761
 22.4596  12138  110.003
 22.5016  12322.6  110.351
 22.5436  12463.5  110.854
 22.5856  12649.1  111.917
 22.6276  12671  112.153
 22.6696  12490.3  111.707
 22.7116  12297.5  110.354
 22.7536  12565.5  111.529
 22.7956  12314.5  109.752
 22.8376  12199.1  109.748
 22.8796  12251.2  109.785
 22.9216  12428.4  111.116
 22.9636  12421.6  110.242
 23.0056  12283.2  109.757
 23.0476  12412.5  110.908
 23.0896  12586.8  111.061
 23.1316  12492.7  111.08
 23.1736  12506.7  114.085
 23.2156  12623.6  111.985
 23.2576  12839.7  113.088
 23.2996  12543.3  111.539
 23.3416  12643.8  112.526
 23.3836  12662.4  111.839
 23.4256  12798.7  112.56
 23.4676  12702.8  111.828
 23.5096  12634.7  112.18
 23.5516  12512.9  110.942
 23.5936  12643  112.435
 23.6356  12739  112.522
 23.6776  12454.1  111.465
 23.7196  12585.6  111.848
 23.7616  12719.7  112.136
 23.8036  12771.6  112.428
 23.8456  12487.1  110.705
 23.8876  12400  110.69
 23.9296  12283  110.65
 23.9716  12214.2  109.548
 24.0136  12507.9  111.765
 24.0556  12253.7  110.332
 24.0976  12199.1  109.91
 24.1396  12093.9  112.05
 24.1816  12433.3  111.994
 24.2236  12157.3  110.38
 24.2656  12123.8  109.703
 24.3076  12096.4  109.855
 24.3496  12195  110.175
 24.3916  12225.3  110.369
 24.4336  12069.5  109.853
 24.4756  11985.6  109.366
 24.5176  11933.6  108.759
 24.5596  11825  108.585
 24.6016  11857.6  108.825
 24.6436  11927.6  108.656
 24.6856  11831.3  107.957
 24.7276  11773.6  108.019
 24.7696  11790.1  108.198
 24.8116  11657.6  107.774
 24.8536  11715.5  108.043
 24.8956  11757.2  107.969
 24.9376  11637.7  107.595
 24.9796  11489.9  107.028
 25.0216  11496.9  107.174
 25.0636  11601.5  107.311
 25.1056  11190.4  106.078
 25.1476  11277.3  108.122
 25.1896  11249.8  106.499
 25.2316  11342.3  106.213
 25.2736  11243.5  105.402
 25.3156  11222.2  105.378
 25.3576  11180.3  105.612
 25.3996  11250.7  105.932
 25.4416  11126.5  105.316
 25.4836  10978.2  105.126
 25.5256  11056.9  104.867
 25.5676  11168.4  105.129
 25.6096  11002.5  104.923
 25.6516  11086.8  104.822
 25.6936  11294.8  106.124
 25.7356  11095.5  105.315
 25.7776  11093.9  104.984
 25.8196  10993.2  104.67
 25.8616  10969.9  104.485
 25.9036  11029.6  104.224
 25.9456  10916.1  104.285
 25.9876  11063.6  104.915
 26.0296  11048.2  104.49
 26.0716  11017  104.773
 26.1136  11091.6  105.063
 26.1556  11091.8  104.438
 26.1976  10936.3  104.638
 26.2396  11024.2  104.202
 26.2816  10956.4  104.5
 26.3236  10881.4  104.282
 26.3656  11031.9  104.736
 26.4076  10790.2  103.774
 26.4496  11088.2  104.787
 26.4916  11113.2  104.806
 26.5336  11317.6  106.111
 26.5756  11559.7  107.123
 26.6176  11022  104.617
 26.6596  10893.8  104.321
 26.7016  10715  103.221
 26.7436  10945.4  104.462
 26.7856  10676.3  103.156
 26.8276  10707.8  103.271
 26.8696  10616.6  102.698
 26.9116  10576.2  102.44
 26.9536  10521.2  102.223
 26.9956  10496.6  102.138
 27.0376  10636.7  103.047
 27.0796  10593.6  102.56
 27.1216  10495.4  102.148
 27.1636  10385  101.766
 27.2056  10381.7  101.642
 27.2476  10374  101.593
 27.2896  10381.3  101.745
 27.3316  10281.5  100.971
 27.3736  10331.5  101.489
 27.4156  10445.8  101.895
 27.4576  10280.7  101.302
 27.4996  10386.5  101.435
 27.5416  10316.5  101.392
 27.5836  10341  101.345
 27.6256  10337.6  101.514
 27.6676  10329.4  101.459
 27.7096  10288.3  101.137
 27.7516  10381.7  101.743
 27.7936  10688.4  103.384
 27.8356  10490.9  102.034
 27.8776  10502.8  102.157
 27.9196  10161.6  100.352
 27.9616  10278.1  101.121
 28.0036  10309.5  101.238
 28.0456  10111.3  100.394
 28.0876  10110.2  100.472
 28.1296  10200.2  100.757
 28.1716  10139.7  100.476
 28.2136  10160.9  100.547
 28.2556  10070.1  100.214
 28.2976  10102  100.364
 28.3396  10029.2  99.7528
 28.3816  10082.8  100.033
 28.4236  9944.84  99.4992
 28.4656  9830.36  98.9674
 28.5076  9901.14  98.9575
 28.5496  9865.23  99.0366
 28.5916  9998.05  99.5141
 28.6336  9935.73  99.5506
 28.6756  9942.03  98.7721
 28.7176  9920.8  99.221
 28.7596  9859.22  98.8148
 28.8016  9911.25  99.1008
 28.8436  9775.78  98.6682
 28.8856  9810.28  98.6914
 28.9276  9803.27  98.9037
 28.9696  9767.01  98.3747
 29.0116  9652.45  97.9851
 29.0536  9688.86  98.3761
 29.0956  9724.93  98.2551
 29.1376  9745.53  98.3345
 29.1796  9772.48  98.5226
 29.2216  9761.28  98.2989
 29.2636  9795.4  98.5517
 29.3056  9722.85  97.9702
 29.3476  9751.14  98.6351
 29.3896  9722.3  98.6042
 29.4316  9610.94  97.3679
 29.4736  9462.87  96.6741
 29.5156  9493.51  96.7576
 29.5576  9556.56  97.8091
 29.5996  9483.45  96.6991
 29.6416  9466.64  96.7323
 29.6836  9481.26  96.7367
 29.7256  9518.52  97.4895
 29.7676  9469.61  96.9025
 29.8096  9325.64  96.1072
 29.8516  9275.05  96.1726
 29.8936  9359.1  96.7007
 29.9356  9432.92  96.837
 29.9776  9271.22  96.1562
 30.0196  9366.45  96.039
 30.0616  9286.92  96.0029
 30.1036  9397.26  96.3969
 30.1456  9370.22  96.4889
 30.1876  9231.59  95.7544
 30.2296  9322.11  96.1671
 30.2716  9388.07  96.1473
 30.3136  9398.56  97.0566
 30.3556  9587.15  98.0349
 30.3976  9499.81  99.0613
 30.4396  9846.93  98.204
 30.4816  9615.21  96.639
 30.5236  9699.68  97.0699
 30.5656  9483.21  96.6346
 30.6076  9561.4  96.7916
 30.6496  9540.34  96.7436
 30.6916  9331.67  95.7679
 30.7336  9348.97  95.9995
 30.7756  9421.87  96.459
 30.8176  9539.42  96.9889
 30.8596  9374.36  95.9102
 30.9016  9613.28  96.9975
 30.9436  9507.19  96.6753
 30.9856  9526.08  96.8776
 31.0276  9329.66  95.5182
 31.0696  9360.77  96.2264
 31.1116  9312.39  95.9602
 31.1536  9361.52  96.0927
 31.1956  9364.35  96.1942
 31.2376  9160.27  95.1457
 31.2796  9424.75  96.0538
 31.3216  9304.88  95.3491
 31.3636  9450.35  96.8186
 31.4056  9230.36  96.9942
 31.4476  9397.25  95.7615
 31.4896  9391.16  96.239
 31.5316  9375.63  95.5526
 31.5736  9668.35  96.8681
 31.6156  9617.4  96.6181
 31.6576  9428.58  95.7324
 31.6996  9560.95  96.0484
 31.7416  9423.41  96.3441
 31.7836  9432.38  95.5221
 31.8256  9455.9  95.9091
 31.8676  9426.36  95.7393
 31.9096  9154.38  94.5812
 31.9516  9130.87  94.7731
 31.9936  9096.64  94.4141
 32.0356  9265.99  95.3364
 32.0776  9431.25  96.0848
 32.1196  9401.93  95.9552
 32.1616  9346.1  95.2
 32.2036  9282.81  95.3915
 32.2456  9117.65  94.9177
 32.2876  9338.51  95.5503
 32.3296  9311.42  95.372
 32.3716  9004.79  93.8996
 32.4136  9002.65  94.0933
 32.4556  9219.1  94.5914
 32.4976  9172.24  94.3152
 32.5396  9020.98  93.5453
 32.5816  9012.39  93.6321
 32.6236  9087.41  94.0746
 32.6656  9098.58  94.6873
 32.7076  8933.8  93.4782
 32.7496  9081.82  93.9195
 32.7916  9105.32  94.0071
 32.8336  9004.6  93.5778
 32.8756  9113.18  93.8625
 32.9176  8974.17  93.6278
 32.9596  9008.26  93.8725
 33.0016  9081.94  94.0334
 33.0436  9104.71  94.3127
 33.0856  8992.57  93.8377
 33.1276  8893.2  93.0448
 33.1696  9032.38  93.6036
 33.2116  9097.3  94.1785
 33.2536  9160.34  94.4948
 33.2956  9042.86  93.9747
 33.3376  8828.81  92.6736
 33.3796  8923.98  93.3094
 33.4216  8868.91  92.6108
 33.4636  8937.09  93.1164
 33.5056  8778.59  92.5342
 33.5476  8866.06  92.977
 33.5896  8977.39  93.3479
 33.6316  8883.9  93.1675
 33.6736  8679.87  92.3377
 33.7156  8774.44  92.8728
 33.7576  8867.56  93.0027
 33.7996  8911.07  92.9888
 33.8416  8663.01  91.8758
 33.8836  8728.15  91.9944
 33.9256  8912.41  93.0243
 33.9676  8862.88  92.6559
 34.0096  8769.63  92.4866
 34.0516  8765.7  92.0938
 34.0936  8702.31  92.0341
 34.1356  8771.75  92.1388
 34.1776  8643.27  91.46
 34.2196  8680  91.8319
 34.2616  8633.49  91.7244
 34.3036  8746.53  92.5811
 34.3456  8663.43  91.8876
 34.3876  8774.89  92.5402
 34.4296  8634.14  91.3975
 34.4716  8743.91  92.1266
 34.5136  8789.24  92.5589
 34.5556  8538.36  91.4787
 34.5976  8797.37  92.6986
 34.6396  8570.98  91.1795
 34.6816  8710.95  92.0298
 34.7236  8631.44  91.3838
 34.7656  8714.83  92.0397
 34.8076  8565.07  91.5731
 34.8496  8535.88  91.2664
 34.8916  8697.96  91.9845
 34.9336  8619.04  91.5544
 34.9756  8796.28  92.4353
 35.0176  8729.17  92.5945
 35.0596  8729.31  92.4175
 35.1016  8672.02  91.86
 35.1436  8754.84  91.9845
 35.1856  8640.76  91.5035
 35.2276  8584.15  91.3882
 35.2696  8526.33  91.2712
 35.3116  8529.63  91.3833
 35.3536  8590.53  91.4513
 35.3956  8456.86  90.4184
 35.4376  8462.88  91.0151
 35.4796  8452.16  90.9887
 35.5216  8520.32  91.3265
 35.5636  8295.66  90.8495
 35.6056  8401.12  90.4449
 35.6476  8459.6  90.6637
 35.6896  8567.69  91.3305
 35.7316  8405.29  90.4335
 35.7736  8444.2  90.8275
 35.8156  8449.77  90.8715
 35.8576  8518.94  91.4868
 35.8996  8507.67  91.389
 35.9416  8566.52  91.2107
 35.9836  8340.96  90.4515
 36.0256  8566.75  91.5787
 36.0676  8585.84  91.4185
 36.1096  8471.14  90.9565
 36.1516  8627.4  91.6854
 36.1936  8451.42  90.5852
 36.2356  8577.98  91.927
 36.2776  8511.38  91.019
 36.3196  8490.38  90.5889
 36.3616  8445.23  90.4873
 36.4036  8330.36  89.9357
 36.4456  8414.51  90.5971
 36.4876  8337.07  90.116
 36.5296  8372.09  90.3447
 36.5716  8393.78  91.2364
 36.6136  8161.57  88.7602
 36.6556  8220.62  89.2777
 36.6976  8212.88  89.7314
 36.7396  8194.23  89.3565
 36.7816  8215.38  89.8531
 36.8236  8170.97  89.533
 36.8656  8023.11  88.7859
 36.9076  8085.37  89.0121
 36.9496  8085.55  89.0008
 36.9916  8152.68  89.0026
 37.0336  8256.67  89.8766
 37.0756  8135.19  89.0122
 37.1176  7983.02  88.4383
 37.1596  8097.64  89.0757
 37.2016  8001.21  88.772
 37.2436  8110.45  88.6921
 37.2856  8028.05  88.4927
 37.3276  8188.69  88.7305
 37.3696  7983.29  88.4873
 37.4116  8013.09  88.5575
 37.4536  7950.5  88.0769
 37.4956  7889.55  87.7843
 37.5376  8157.61  90.8461
 37.5796  8174.97  90.886
 37.6216  8022.26  88.3095
 37.6636  8140.41  88.8491
 37.7056  8107.55  88.8432
 37.7476  8285.1  89.3638
 37.7896  7975.74  88.1771
 37.8316  8028.91  88.636
 37.8736  8099.87  88.5441
 37.9156  8149.78  88.8066
 37.9576  8128.03  88.6059
 37.9996  7948.77  87.3395
 38.0416  8163.02  89.3228
 38.0836  8221.64  89.5476
 38.1256  8059.32  88.6293
 38.1676  7898.49  87.8573
 38.2096  8261.89  89.4732
 38.2516  8073.28  88.6492
 38.2936  8094.9  88.5782
 38.3356  8056.38  88.2918
 38.3776  7995.42  88.21
 38.4196  7988.29  88.0246
 38.4616  8022.87  88.4563
 38.5036  8135.51  88.9221
 38.5456  8039.19  89.2272
 38.5876  7962.66  88.8256
 38.6296  7926.06  87.5979
 38.6716  7979.87  87.6974
 38.7136  8009.47  87.8046
 38.7556  7968.08  88.0861
 38.7976  7966.96  87.9989
 38.8396  7979.8  88.5353
 38.8816  7943.37  88.1292
 38.9236  7957.04  88.0018
 38.9656  8030.18  88.3137
 39.0076  8073.38  87.9465
 39.0496  8143.05  88.8946
 39.0916  7937.6  87.408
 39.1336  7997.77  88.1471
 39.1756  8046.82  88.4779
 39.2176  7907.77  88.2415
 39.2596  7986.74  88.6126
 39.3016  7986.39  88.1938
 39.3436  8011.47  88.7476
 39.3856  8038.69  88.3381
 39.4276  8112.28  89.2535
 39.4696  8057.96  88.5726
 39.5116  8073.35  89.1774
 39.5536  8061.42  89.527
 39.5956  8039.41  88.5026
 39.6376  8020.33  88.3986
 39.6796  7964.2  87.828
 39.7216  7964.02  87.9221
 39.7636  7976.25  88.5452
 39.8056  7952.63  88.2196
 39.8476  7928.04  88.3323
 39.8896  8009.54  88.4214
 39.9316  7891.42  88.0123
 39.9736  7960.29  87.9702
 40.0156  7878.5  87.3491
 40.0576  7871.75  87.6566
 40.0996  8005.95  87.5871
 40.1416  8021.45  88.4727
 40.1836  8035.65  88.4374
 40.2256  7993.84  88.2419
 40.2676  7856.55  87.6593
 40.3096  8006.47  88.3476
 40.3516  8073.66  88.8311
 40.3936  8040.43  88.2027
 40.4356  7886.79  87.553
 40.4776  8076.13  88.8446
 40.5196  7985.42  88.6376
 40.5616  8115.13  88.9972
 40.6036  7954.38  88.3601
 40.6456  7948.76  87.9349
 40.6876  8067.47  88.5847
 40.7296  7978.79  88.2266
 40.7716  8065  88.8159
 40.8136  7954.53  88.1666
 40.8556  8019.29  88.6565
 40.8976  7972.59  88.3173
 40.9396  8046.82  89.0783
 40.9816  8136.17  88.8529
 41.0236  7928.03  87.4906
 41.0656  8059.82  88.7579
 41.1076  8026.99  88.3434
 41.1496  8033.17  88.2898
 41.1916  7897.54  87.8495
 41.2336  7945.77  88.1277
 41.2756  8013.61  88.0972
 41.3176  8011.91  88.7021
 41.3596  7963.5  88.172
 41.4016  7913.62  88.1534
 41.4436  8017.94  88.5124
 41.4856  7995.8  88.5625
 41.5276  8023.7  88.7305
 41.5696  7954.27  87.9726
 41.6116  8025.46  88.7613
 41.6536  7878.49  87.8019
 41.6956  8052.5  88.7534
 41.7376  7987.06  88.4816
 41.7796  7825.8  87.4739
 41.8216  7901.78  88.1264
 41.8636  7879.76  87.9534
 41.9056  7883.47  87.7731
 41.9476  8019.77  88.7574
 41.9896  8084.67  88.7854
 42.0316  7975.21  88.2638
 42.0736  8024.27  88.6736
 42.1156  8019.81  88.4507
 42.1576  7998.54  88.4323
 42.1996  8026.56  88.7163
 42.2416  7985.34  88.0818
 42.2836  7954.4  88.0283
 42.3256  7888.65  87.7746
 42.3676  7971.53  88.0341
 42.4096  7975.57  88.0295
 42.4516  8040.79  88.4647
 42.4936  7834.46  87.3902
 42.5356  7799.11  87.3413
 42.5776  7960.59  88.1774
 42.6196  7929.59  88.0565
 42.6616  7791.36  87.4574
 42.7036  7826.95  87.0386
 42.7456  7976.49  88.2289
 42.7876  7930.54  88.0614
 42.8296  7982.39  88.1858
 42.8716  7822.71  87.4638
 42.9136  7722.96  86.6564
 42.9556  7894.59  87.7935
 42.9976  7850.25  87.5059
 43.0396  7801.19  86.9607
 43.0816  7832.02  87.5203
 43.1236  7801.33  87.398
 43.1656  7804.92  87.2443
 43.2076  7796.93  87.3164
 43.2496  7817.1  87.2435
 43.2916  7820.4  87.6231
 43.3336  7808.85  87.3875
 43.3756  7867.23  87.4763
 43.4176  7759.27  86.9455
 43.4596  7730.69  86.6389
 43.5016  7685.71  86.7965
 43.5436  7902.61  87.9142
 43.5856  7712.73  86.8808
 43.6276  7695.47  86.6737
 43.6696  7640.46  86.6127
 43.7116  7808.88  87.0623
 43.7536  7852.13  87.8118
 43.7956  7725.38  88.3076
 43.8376  7579.41  85.9963
 43.8796  7586.28  86.1137
 43.9216  7525.77  85.6886
 43.9636  7645.68  86.4748
 44.0056  7578.91  86.3314
 44.0476  7607.71  86.125
 44.0896  7691.55  86.9451
 44.1316  7763.29  86.8682
 44.1736  7538  85.7189
 44.2156  7596.62  85.9029
 44.2576  7534.87  85.8796
 44.2996  7648.87  86.4947
 44.3416  7618.71  86.0921
 44.3836  7457.42  85.4964
 44.4256  7486.89  85.315
 44.4676  7497.58  85.5314
 44.5096  7621.39  86.3806
 44.5516  7538.65  85.8757
 44.5936  7539.9  85.8349
 44.6356  7529.84  85.5145
 44.6776  7606.04  86.2654
 44.7196  7435.51  85.6008
 44.7616  7560.77  87.6528
 44.8036  7630.94  86.6799
 44.8456  7806.08  87.6671
 44.8876  7742.49  87.1526
 44.9296  7739.37  86.5737
 44.9716  7708.25  86.8352
 45.0136  7680.19  86.6182
 45.0556  7725.61  86.962
 45.0976  7625.11  86.4405
 45.1396  7586.55  85.985
 45.1816  7555.65  85.7433
 45.2236  7673.23  86.3122
 45.2656  7509.99  85.8823
 45.3076  7645.47  86.4056
 45.3496  7636.84  86.6935
 45.3916  7576.7  86.63
 45.4336  7746.03  87.4357
 45.4756  7532.79  86.0609
 45.5176  7622.53  86.2009
 45.5596  7696.07  86.7306
 45.6016  7573.53  86.4685
 45.6436  7543.51  85.4539
 45.6856  7564.63  86.2439
 45.7276  7481.16  87.0894
 45.7696  7531.37  87.0544
 45.8116  7541.88  86.5448
 45.8536  7573.32  86.6215
 45.8956  7578.75  86.0027
 45.9376  7769.37  86.5256
 45.9796  7503.07  85.7196
 46.0216  7688.7  87.1183
 46.0636  7755.25  86.6086
 46.1056  7631.34  85.9175
 46.1476  7564.73  86.1429
 46.1896  7581.24  86.3825
 46.2316  7587.32  86.2801
 46.2736  7539.45  86.22
 46.3156  7666.2  86.6866
 46.3576  7568.16  86.3362
 46.3996  7454.86  85.8514
 46.4416  7623.22  86.3407
 46.4836  7446.73  85.7354
 46.5256  7557.01  86.3047
 46.5676  7497.31  86.0827
 46.6096  7587.8  86.5307
 46.6516  7627.38  85.7786
 46.6936  7496.1  85.5433
 46.7356  7644.8  86.4793
 46.7776  7529.87  86.6902
 46.8196  7489.28  86.1849
 46.8616  7320.48  85.0174
 46.9036  7321.73  84.6815
 46.9456  7533.98  85.5261
 46.9876  7436.62  85.0536
 47.0296  7459.44  85.8934
 47.0716  7448.87  85.6528
 47.1136  7445.76  85.3108
 47.1556  7386.21  84.8367
 47.1976  7512.46  85.7073
 47.2396  7403.85  85.4113
 47.2816  7433.14  85.2818
 47.3236  7410.46  85.5232
 47.3656  7452.34  85.6957
 47.4076  7490.04  85.6434
 47.4496  7376.05  85.1511
 47.4916  7424.83  85.6314
 47.5336  7502.94  85.8885
 47.5756  7595.22  86.5331
 47.6176  7373.41  85.1596
 47.6596  7439.11  85.2485
 47.7016  7567.72  85.7932
 47.7436  7400.9  85.1793
 47.7856  7549.66  86.0659
 47.8276  7475.67  85.6918
 47.8696  7316.64  84.8593
 47.9116  7428.1  85.215
 47.9536  7391.54  84.946
 47.9956  7422.01  85.8401
 48.0376  7269.66  84.728
 48.0796  7436.34  85.8132
 48.1216  7525.23  86.1526
 48.1636  7566.81  85.9552
 48.2056  7430.77  85.4434
 48.2476  7584.66  86.6405
 48.2896  7553.69  86.376
 48.3316  7492.57  85.9519
 48.3736  7322.83  85.0016
 48.4156  7419.11  85.4074
 48.4576  7549.44  86.46
 48.4996  7491.85  85.5736
 48.5416  7495.97  85.9312
 48.5836  7385.1  84.9671
 48.6256  7578.33  86.2797
 48.6676  7445.79  86.0474
 48.7096  7517.24  85.7032
 48.7516  7379.98  85.072
 48.7936  7336.68  84.8873
 48.8356  7508.83  85.9313
 48.8776  7471.09  86.2998
 48.9196  7490.37  85.7616
 48.9616  7379.71  85.5165
 49.0036  7444.17  86.2517
 49.0456  7315.69  85.4715
 49.0876  7452.17  85.7872
 49.1296  7309.84  85.1292
 49.1716  7315.85  85.0485
 49.2136  7471.38  85.8617
 49.2556  7421.24  85.613
 49.2976  7492.04  86.0915
 49.3396  7297.79  85.0186
 49.3816  7476.73  85.4732
 49.4236  7294.63  84.8593
 49.4656  7256.06  84.648
 49.5076  7431.71  85.4118
 49.5496  7374.57  85.1494
 49.5916  7380.76  85.0966
 49.6336  7382.91  85.3156
 49.6756  7393.11  85.6173
 49.7176  7420.89  85.7158
 49.7596  7339.49  85.0056
 49.8016  7433.51  85.4677
 49.8436  7360.31  85.3461
 49.8856  7279.15  84.8793
 49.9276  7229.24  84.6926
 49.9696  7374.22  85.5207
 50.0116  7312.97  85.2914
 50.0536  7352.64  85.4675
 50.0956  7249.33  84.9364
 50.1376  7268.54  84.7501
 50.1796  7216.73  84.7246
 50.2216  7348.03  85.48
 50.2636  7217.44  84.3282
 50.3056  7223.23  84.5445
 50.3476  7327.97  85.1843
 50.3896  7233.22  84.5987
 50.4316  7346.85  85.084
 50.4736  7209.14  84.5081
 50.5156  7245.14  84.7107
 50.5576  7355.72  85.1059
 50.5996  7306.25  85.1121
 50.6416  7302.84  85.0166
 50.6836  7273.74  84.9071
 50.7256  7258.06  84.745
 50.7676  7374.3  85.7429
 50.8096  7296.64  84.81
 50.8516  7214.86  84.7618
 50.8936  7170.9  84.2786
 50.9356  7287.42  85.0678
 50.9776  7246.75  84.9946
 51.0196  6964.69  83.4465
 51.0616  7116.3  83.664
 51.1036  7118.43  84.0402
 51.1456  7250.79  84.7276
 51.1876  7250.3  84.0358
 51.2296  7080.14  83.7017
 51.2716  7056.82  83.2622
 51.3136  7064.1  83.7752
 51.3556  7045.66  83.2792
 51.3976  6958.3  82.9128
 51.4396  6904.04  82.9045
 51.4816  7118.8  84.0343
 51.5236  7118.9  84.1226
 51.5656  7005.28  83.0386
 51.6076  7066.25  83.4839
 51.6496  7008.26  83.3354
 51.6916  7068.47  84.0583
 51.7336  6920.71  83.2643
 51.7756  6944.21  83.0866
 51.8176  6937.02  83.17
 51.8596  6955.96  83.2959
 51.9016  7116.23  83.8493
 51.9436  7162.71  85.6469
 51.9856  7037.33  85.3192
 52.0276  7061.47  83.9262
 52.0696  7248.7  85.1148
 52.1116  7090.41  84.2943
 52.1536  7075.37  84.0405
 52.1956  7070.21  83.5069
 52.2376  7220.94  84.5763
 52.2796  7020.95  83.2122
 52.3216  6999.44  83.7808
 52.3636  7099.28  83.9257
 52.4056  7055.24  83.5375
 52.4476  7030.8  83.7524
 52.4896  7061.13  83.9937
 52.5316  7139.52  84.5135
 52.5736  6875.01  82.6375
 52.6156  7075.15  84.2499
 52.6576  6975.57  83.0734
 52.6996  6902.96  83.6451
 52.7416  6863.54  83.2515
 52.7836  7019.66  84.0876
 52.8256  7097.72  83.7419
 52.8676  6850.44  82.8539
 52.9096  7114.13  84.5107
 52.9516  6985.65  84.1368
 52.9936  6951.66  84.314
 53.0356  7015.94  83.6842
 53.0776  7080.84  84.3483
 53.1196  7026.62  84.1476
 53.1616  7010.41  84.1026
 53.2036  7069.5  84.4175
 53.2456  6931.66  83.6966
 53.2876  7054.54  84.1197
 53.3296  6990.18  84.061
 53.3716  7125.4  84.6231
 53.4136  6952.57  83.7433
 53.4556  6973.42  83.8943
 53.4976  6874.3  83.1389
 53.5396  6891.63  83.6364
 53.5816  7000.2  83.9311
 53.6236  6882.3  83.5706
 53.6656  6937.43  83.4942
 53.7076  7030.17  84.019
 53.7496  7015.05  84.0593
 53.7916  6915.51  83.6064
 53.8336  7042.91  84.259
 53.8756  6859.36  83.72
 53.9176  6823.38  82.8181
 53.9596  6618.06  82.3212
 54.0016  6715.04  82.2502
 54.0436  6608.75  81.8176
 54.0856  6773.29  82.2509
 54.1276  6733.55  82.209
 54.1696  6665.75  81.9415
 54.2116  6812.01  82.5972
 54.2536  6720.24  81.8443
 54.2956  6671.43  81.6054
 54.3376  6720.68  82.3985
 54.3796  6645.12  81.8212
 54.4216  6693.76  82.1928
 54.4636  6578.47  81.438
 54.5056  6651.83  81.6955
 54.5476  6591.69  81.6782
 54.5896  6481.73  80.8229
 54.6316  6605.56  81.4281
 54.6736  6704.41  82.1322
 54.7156  6649.7  81.8149
 54.7576  6528.63  81.0462
 54.7996  6747.19  82.5697
 54.8416  6598.06  81.6834
 54.8836  6663.63  82.1926
 54.9256  6531.69  81.1333
 54.9676  6523.34  80.935
 55.0096  6629.32  81.6104
 55.0516  6469.67  80.8723
 55.0936  6627.03  81.5184
 55.1356  6453.46  80.4763
 55.1776  6698.39  82.2386
 55.2196  6541.49  81.0595
 55.2616  6634.12  81.8726
 55.3036  6564.45  81.604
 55.3456  6364.03  80.4752
 55.3876  6604.69  81.6961
 55.4296  6430.67  80.6234
 55.4716  6549.47  81.3842
 55.5136  6529.71  81.0128
 55.5556  6636.58  81.7421
 55.5976  6506.83  81.0333
 55.6396  6482.29  80.7322
 55.6816  6440.82  80.4125
 55.7236  6409.5  80.284
 55.7656  6598.27  81.175
 55.8076  6445.59  80.2279
 55.8496  6550.03  81.3207
 55.8916  6403.45  80.4958
 55.9336  6622.97  81.6892
 55.9756  6468.06  80.6105
 56.0176  6404.07  80.3499
 56.0596  6456.37  80.6871
 56.1016  6347.41  80.0114
 56.1436  6287.14  79.8698
 56.1856  6331.14  79.9108
 56.2276  6513.69  81.098
 56.2696  6393.09  80.3277
 56.3116  6465.85  81.1826
 56.3536  6396.71  80.3806
 56.3956  6391.77  80.347
 56.4376  6377.55  80.3104
 56.4796  6341.22  79.8862
 56.5216  6377.76  80.4933
 56.5636  6311.79  79.6562
 56.6056  6492.32  81.037
 56.6476  6400.75  80.0549
 56.6896  6554.55  81.4919
 56.7316  6377.93  80.298
 56.7736  6454.11  80.7635
 56.8156  6352.81  80.1433
 56.8576  6265.1  79.5272
 56.8996  6352.59  79.9797
 56.9416  6328.11  80.1425
 56.9836  6426.82  80.3064
 57.0256  6340.12  80.0485
 57.0676  6493.07  81.146
 57.1096  6407.14  80.3969
 57.1516  6297.84  79.7591
 57.1936  6356.15  79.8835
 57.2356  6196.3  79.2003
 57.2776  6382.94  80.3462
 57.3196  6330.98  80.3756
 57.3616  6301.19  79.6559
 57.4036  6321.26  79.86
 57.4456  6367.01  80.1221
 57.4876  6323.21  79.715
 57.5296  6299.91  79.9096
 57.5716  6286.35  79.8216
 57.6136  6186.26  79.0125
 57.6556  6287.6  79.7924
 57.6976  6309.19  79.7551
 57.7396  6108.26  78.8165
 57.7816  6204.4  79.8168
 57.8236  6211.68  79.6398
 57.8656  6273.6  79.7056
 57.9076  6213.08  79.3356
 57.9496  6170.38  79.4041
 57.9916  6302.48  79.7741
 58.0336  6220.92  79.5409
 58.0756  6292.67  79.5917
 58.1176  6211.52  79.1052
 58.1596  6183.95  79.5257
 58.2016  6010.31  77.6172
 58.2436  5978.17  77.8176
 58.2856  5969.55  77.681
 58.3276  5999.34  78.2436
 58.3696  6004.35  78.0318
 58.4116  5934.68  77.4434
 58.4536  6042.03  78.0214
 58.4956  5870.36  77.0884
 58.5376  6023.32  77.6594
 58.5796  5957.16  77.6498
 58.6216  6009.62  77.8091
 58.6636  6059.15  78.3415
 58.7056  5955.8  77.5264
 58.7476  6042.56  78.5309
 58.7896  5943.61  77.5375
 58.8316  6030.53  78.0948
 58.8736  6061.92  78.3125
 58.9156  5993.46  77.9118
 58.9576  5907.01  77.6573
 58.9996  6060.2  77.9161
 59.0416  6017.95  78.0055
 59.0836  5920.47  77.2891
 59.1256  5947.45  78.16
 59.1676  5912.71  78.2397
 59.2096  6041.54  78.3919
 59.2516  5960.63  77.4491
 59.2936  5926.54  77.5523
 59.3356  5921.38  77.3974
 59.3776  5992.28  78.0277
 59.4196  5915.88  77.4651
 59.4616  5954.39  77.578
 59.5036  5955.42  77.6199
 59.5456  6175.2  78.7291
 59.5876  6083.56  78.3345
 59.6296  5855.16  76.9181
 59.6716  5833.64  76.8336
 59.7136  5884.8  77.1581
 59.7556  5752.06  76.4162
 59.7976  5926.9  77.3134
 59.8396  5995.66  77.6553
 59.8816  5864  77.3355
 59.9236  6033.93  78.0917
 59.9656  5922.63  77.6263
 60.0076  5965.53  77.2682
 60.0496  5949.88  77.6669
 60.0916  6101.61  78.0661
 60.1336  5897.24  77.8417
 60.1756  5959.92  79.4306
 60.1996  0.0000000E+00  0.0000000E+00