File: docs/examples/opeando_xrd/IS17_D/Data/IS17_D/17_Da_f00146.xye
# /beamlines/bl04/projects/cycle2025-II/20250340211-lsimonelli/DATA/IS17_D/17_Da_f00146.xye : mythproc.py merge -s 0.006 -l 0.5 -f /beamlines/bl04/inhouse/ff/FlatField/ff_20Nov2024rod8mm60s_17keV.raw -b True -c true -o xye /beamlines/bl04/projects/cycle2025-II/20250340211-lsimonelli/DATA/IS17_D/17_Da_00146.dat
# IsMon = [6741944, 6743541, 6748297]  IsPos = [-1.4999, -2.4883, -3.4988]
# Wave = 0.4962  CalPath /beamlines/bl04/projects/cycle2025-II/20250340211-lsimonelli/DATA/Align/Si_Pos1_25keV_f00001.cal
# Date = 2025-09-25_10:15:29 Dt = 4.8000  Bin = 0.0060  <imon> = 6744594 +/- 2698 (Min/Max) 6741944 / 6748297
# icurr 248.9559  mocoIn 1.6987E-05  mocoOut 0.7970  i15 7.06144e+06  imon 6.74459e+06  i7 5.0000  iEMpd_timer 4.8000  iEMpd_1 3.3310E-08  iEMpd_2 7.8299E-08  iEMpd_3 1.7770E-08  iEMpd_4 4.9021E-08  iEMhp_timer 4.8000  iEMhp_1 4.8656E-06  iEMhp_2 -2.5861E-08  iEMhp_3 -2.3505E-08  iEMhp_4 -2.2078E-08
#      9776
 1.5856  41041.2  208.065
 1.6276  48053.9  221.277
 1.6696  54248.5  234.278
 1.7116  62933.2  252.828
 1.7536  72309.3  269.854
 1.7956  76409.6  278.092
 1.8376  72393.1  271.114
 1.8796  61689  248.429
 1.9216  49488.7  223.397
 1.9636  41740.5  204.323
 2.0056  37466.2  192.829
 2.0476  34881.1  188.098
 2.0896  33459.9  183.146
 2.1316  32334.4  179.174
 2.1736  31041.6  176.948
 2.2156  31406.8  176.557
 2.2576  30298.7  174.034
 2.2996  28987.4  170.854
 2.3416  29308.5  170.425
 2.3836  28521.8  168.227
 2.4256  28021.2  167.287
 2.4676  27241.6  164.71
 2.5096  27086.2  164.293
 2.5516  26650.1  166.737
 2.5936  27207.7  165.063
 2.6356  26121.4  162.417
 2.6776  25939.9  160.759
 2.7196  25811.7  160.491
 2.7616  25668.6  160.204
 2.8036  25094.7  158.568
 2.8456  25341.1  159.963
 2.8876  24664  157.684
 2.9296  24404.4  156.979
 2.9716  24154.6  155.672
 3.0136  23753.1  154.438
 3.0556  24076.6  155.872
 3.0976  23844.4  154.064
 3.1396  23682.7  154.26
 3.1816  23402  152.992
 3.2236  23246.1  152.763
 3.2656  23264.7  151.869
 3.3076  23094.2  152.752
 3.3496  23523.5  153.105
 3.3916  23606.4  153.204
 3.4336  24064  155.257
 3.4756  24487.2  156.547
 3.5176  25279.3  158.853
 3.5596  25230.9  161.086
 3.6016  25492.9  159.555
 3.6436  24524.5  157.586
 3.6856  24287.8  155.132
 3.7276  23439.3  153.484
 3.7696  23128.4  152.643
 3.8116  22650.2  150.951
 3.8536  22877.6  151.641
 3.8956  22818.3  151.273
 3.9376  22730.2  151.23
 3.9796  22684.8  150.594
 4.0216  22787.1  149.974
 4.0636  22652.8  150.993
 4.1056  22769.3  151.028
 4.1476  22892.7  151.75
 4.1896  23025.6  152.048
 4.2316  23394.9  153.09
 4.2736  23796.3  154.183
 4.3156  23859.6  154.608
 4.3576  24697.5  157.233
 4.3996  24874.6  158.058
 4.4416  25502.2  159.621
 4.4836  25810.5  160.736
 4.5256  26354.6  163.039
 4.5676  26284.9  163.07
 4.6096  26850.8  163.484
 4.6516  27284.9  164.501
 4.6936  27279.5  165.284
 4.7356  27539.1  165.907
 4.7776  27615.9  165.964
 4.8196  27276  165.599
 4.8616  26793.1  163.604
 4.9036  26342.6  161.979
 4.9456  26519.3  163.16
 4.9876  25745.8  160.668
 5.0296  25946.6  161.114
 5.0716  25981.7  161.981
 5.1136  26202  162.386
 5.1556  26528.9  162.857
 5.1976  27082.2  164.553
 5.2396  26873.7  163.61
 5.2816  26982.4  164.406
 5.3236  27365.8  165.267
 5.3656  26442  163.371
 5.4076  26398.9  163.391
 5.4496  26550.9  163.337
 5.4916  26783.9  163.816
 5.5336  26785.9  163.824
 5.5756  26540.4  163.11
 5.6176  26843.5  163.467
 5.6596  27176.3  165.461
 5.7016  27368.3  165.301
 5.7436  27407.1  165.688
 5.7856  27342.7  165.552
 5.8276  27909.6  166.981
 5.8696  27833.4  166.932
 5.9116  27847.6  167.279
 5.9536  27922.8  167.562
 5.9956  28420.1  168.403
 6.0376  28284.3  168.64
 6.0796  28663.8  169.597
 6.1216  28680.3  169.888
 6.1636  28721.3  169.031
 6.2056  28725.7  169.707
 6.2476  28600.5  169.213
 6.2896  29252  170.811
 6.3316  28848.3  169.806
 6.3736  29078.8  170.372
 6.4156  29248.5  170.77
 6.4576  29400.3  170.812
 6.4996  29408.9  171.312
 6.5416  29529.3  171.802
 6.5836  29535.5  172.045
 6.6256  29511.1  171.544
 6.6676  30226.1  173.177
 6.7096  29833.1  172.907
 6.7516  30239.5  173.724
 6.7936  30659.5  174.352
 6.8356  30662.6  174.441
 6.8776  30894.6  175.899
 6.9196  31049.5  176.746
 6.9616  31333.2  176.999
 7.0036  31789.6  177.931
 7.0456  31659.9  176.864
 7.0876  31739.5  178.776
 7.1296  31930.3  178.449
 7.1716  31642.2  177.174
 7.2136  31474.3  176.491
 7.2556  31716.2  177.328
 7.2976  31578.4  177.442
 7.3396  31666.4  177.904
 7.3816  31657.1  178.09
 7.4236  31957.1  178.218
 7.4656  32126.4  178.177
 7.5076  32420.4  179.125
 7.5496  32579.7  180.095
 7.5916  32247  179.214
 7.6336  32683.7  180.32
 7.6756  32772  180.416
 7.7176  33119.3  181.69
 7.7596  33032.9  182.692
 7.8016  33356.5  185.767
 7.8436  33797.9  183.645
 7.8856  34073.3  184.005
 7.9276  34927.3  186.679
 7.9696  34977  187.136
 8.0116  36166.5  188.813
 8.0536  36065.7  188.813
 8.0956  35882.6  189.515
 8.1376  36561.2  190.762
 8.1796  36745.8  191.799
 8.2216  37269.7  191.884
 8.2636  37742.9  193.385
 8.3056  37659.8  193.901
 8.3476  38133.4  194.451
 8.3896  37827.4  193.75
 8.4316  38038  194.453
 8.4736  38150.1  194.202
 8.5156  37787.7  193.557
 8.5576  37411.9  194.195
 8.5996  37627.9  192.986
 8.6416  37750.2  194.588
 8.6836  37142.1  192.823
 8.7256  37961.4  194.4
 8.7676  37217  195.393
 8.8096  37215.9  192.687
 8.8516  36866.6  191.392
 8.8936  36711.5  190.874
 8.9356  36283.7  190.131
 8.9776  37113.5  192.358
 9.0196  36481.3  190.404
 9.0616  36820.7  190.753
 9.1036  36343.1  190.71
 9.1456  36524.1  190.509
 9.1876  36336.1  189.986
 9.2296  36516  189.836
 9.2716  35924.2  188.377
 9.3136  35956.4  188.439
 9.3556  36007.8  188.56
 9.3976  34486.7  185.072
 9.4396  35281.3  187.072
 9.4816  34598.6  185.126
 9.5236  34817.3  185.61
 9.5656  34492  185.06
 9.6076  34299.2  185.055
 9.6496  34401.3  185.274
 9.6916  34055.5  184.302
 9.7336  34228.6  184.56
 9.7756  34472.8  186.486
 9.8176  33547.1  183.493
 9.8596  33336.7  181.359
 9.9016  33077  180.645
 9.9436  32753.6  179.668
 9.9856  32280.1  178.592
 10.0276  32089.7  179.146
 10.0696  32389.3  179.045
 10.1116  31226.8  176.065
 10.1536  31225.6  176.228
 10.1956  30888.9  174.872
 10.2376  30474.9  173.203
 10.2796  30572.2  173.606
 10.3216  30286  173.064
 10.3636  30137.5  172.67
 10.4056  30069.1  172.869
 10.4476  29914.9  172.05
 10.4896  30300.6  172.746
 10.5316  29619.2  171.364
 10.5736  29385.7  171.106
 10.6156  28988  169.709
 10.6576  29528.2  169.825
 10.6996  28646.5  167.938
 10.7416  28455.2  167.615
 10.7836  28602.4  168.727
 10.8256  28278.2  168.199
 10.8676  28285.3  167.755
 10.9096  28044.9  167.074
 10.9516  27819.4  165.326
 10.9936  27804.5  165.473
 11.0356  27695.3  165.794
 11.0776  27372.1  164.131
 11.1196  27162.2  164.251
 11.1616  27007.4  163.477
 11.2036  27062.9  163.496
 11.2456  27040.5  164.144
 11.2876  26989.4  163.715
 11.3296  26693.5  162.711
 11.3716  26991.4  163.302
 11.4136  27138.5  164.664
 11.4556  27429.7  165.191
 11.4976  27553  164.526
 11.5396  27780.7  165.376
 11.5816  27042.2  163.628
 11.6236  26746.9  162.95
 11.6656  26252.5  160.598
 11.7076  25933.8  160.457
 11.7496  25569.3  163.264
 11.7916  25482.4  158.317
 11.8336  25357.3  158.804
 11.8756  24854.2  156.768
 11.9176  25301.6  157.836
 11.9596  24818.1  156.504
 12.0016  24948.6  157.43
 12.0436  24706.2  156.362
 12.0856  24523.5  156.309
 12.1276  24543.6  156.294
 12.1696  24640  155.724
 12.2116  24941.5  156.667
 12.2536  24626.2  156.518
 12.2956  24566.8  155.653
 12.3376  24151.2  154.549
 12.3796  24433.4  155.907
 12.4216  24223.7  154.455
 12.4636  24071.5  154.88
 12.5056  24087  154.2
 12.5476  24428.9  154.824
 12.5896  24337.8  155.162
 12.6316  23976  154.17
 12.6736  24031.7  155.02
 12.7156  23935.5  154.388
 12.7576  24043.1  154.972
 12.7996  24182.8  154.067
 12.8416  24036.7  154.652
 12.8836  24615.7  156.233
 12.9256  24636.4  155.407
 12.9676  24757  156.209
 13.0096  24411.8  156.223
 13.0516  24758.9  156.358
 13.0936  24772.9  156.815
 13.1356  25241.6  157.256
 13.1776  24712.3  156.593
 13.2196  24753.2  156.378
 13.2616  24739.3  156.635
 13.3036  24839.8  156.931
 13.3456  24702.5  156.849
 13.3876  24761.6  156.337
 13.4296  24615.6  156.021
 13.4716  24895.1  156.51
 13.5136  24692.1  156.022
 13.5556  24849.8  157.137
 13.5976  24995.6  157.744
 13.6396  24965.7  157.012
 13.6816  24531.7  156.136
 13.7236  25218.8  157.95
 13.7656  24420.5  155.972
 13.8076  24909.4  156.294
 13.8496  24440.7  155.424
 13.8916  24354.9  156.148
 13.9336  24352.6  155.361
 13.9756  24182.6  154.17
 14.0176  24320.1  155.289
 14.0596  24150.2  154.719
 14.1016  23742  153.797
 14.1436  23740.8  152.931
 14.1856  23329.2  151.888
 14.2276  23137.6  151.751
 14.2696  23371.9  152.356
 14.3116  23151.2  151.524
 14.3536  22786.4  150.515
 14.3956  22767.7  150.184
 14.4376  23141.9  151.185
 14.4796  22810.1  150.089
 14.5216  22353.4  149.366
 14.5636  22201.5  148.422
 14.6056  22478.3  148.925
 14.6476  22411.4  147.938
 14.6896  21997.5  147.109
 14.7316  21713.6  147.194
 14.7736  21509.7  145.644
 14.8156  21297.4  144.953
 14.8576  21353.3  144.988
 14.8996  20930.3  144.761
 14.9416  20479.3  143.18
 14.9836  20785.6  144.209
 15.0256  20431.9  141.898
 15.0676  20428.7  142.33
 15.1096  20277.7  141.417
 15.1516  20216.5  141.767
 15.1936  20044  140.583
 15.2356  19806.5  139.91
 15.2776  19598.7  138.875
 15.3196  19278.3  138.74
 15.3616  19215.7  138.262
 15.4036  19125.6  137.798
 15.4456  19345.8  138.242
 15.4876  18989.3  136.641
 15.5296  19035.5  137.103
 15.5716  18804.5  135.861
 15.6136  18711.6  135.859
 15.6556  18619.4  134.755
 15.6976  18550.4  134.805
 15.7396  18414  134.689
 15.7816  18379.4  134.07
 15.8236  18098.9  133.744
 15.8656  18044.9  133.341
 15.9076  17670.5  131.779
 15.9496  17721.4  134.777
 15.9916  17754.2  135.352
 16.0336  17449.8  131.066
 16.0756  17526.6  131.656
 16.1176  17367.4  131.125
 16.1596  17159.6  131.522
 16.2016  17393.5  131.141
 16.2436  16913.6  129.715
 16.2856  16683.2  128.372
 16.3276  16732  128.979
 16.3696  16766.9  128.933
 16.4116  16601  128.753
 16.4536  16844.2  129.481
 16.4956  16773.5  128.946
 16.5376  16657.4  128.681
 16.5796  16608.9  127.85
 16.6216  16633  128.249
 16.6636  16695.3  128.636
 16.7056  16507.2  127.788
 16.7476  16739.6  128.208
 16.7896  16485.2  127.982
 16.8316  16557.1  128.218
 16.8736  16318.2  127.563
 16.9156  16583.9  128.927
 16.9576  16308.2  128.664
 16.9996  16295.5  129.101
 17.0416  16417.6  127.939
 17.0836  16378.1  127.54
 17.1256  16186.7  126.804
 17.1676  16099.4  126.46
 17.2096  15998.1  125.937
 17.2516  15838.9  125.092
 17.2936  15852.5  125.47
 17.3356  15638.1  124.626
 17.3776  15549.4  124.458
 17.4196  15713.6  124.809
 17.4616  15643.7  124.445
 17.5036  15360.6  123.678
 17.5456  15461.7  124.735
 17.5876  15363.8  123.38
 17.6296  15462.6  123.593
 17.6716  15211.4  123.156
 17.7136  14954.6  122.26
 17.7556  15011.3  122.781
 17.7976  15163  123.14
 17.8396  15099  122.373
 17.8816  15008.3  122.553
 17.9236  14795.5  121.492
 17.9656  15193.5  123.644
 18.0076  15152.6  123.05
 18.0496  15107.8  121.996
 18.0916  15083.8  122.443
 18.1336  15108.8  122.644
 18.1756  15323.9  123.025
 18.2176  14968.3  121.825
 18.2596  15005.3  121.715
 18.3016  15138.5  122.509
 18.3436  15054  122.177
 18.3856  14852.6  121.49
 18.4276  14941.5  121.504
 18.4696  14815.4  121.104
 18.5116  14987.1  122.095
 18.5536  14975  122.405
 18.5956  14590.2  120.378
 18.6376  14520.3  120.498
 18.6796  14556.9  119.961
 18.7216  14669.1  120.919
 18.7636  14437.3  119.954
 18.8056  14485.3  120.09
 18.8476  14426.1  120.464
 18.8896  14391.7  119.662
 18.9316  14573.1  120.393
 18.9736  14451.1  119.586
 19.0156  14465.7  120.056
 19.0576  14399.4  118.642
 19.0996  14439.8  119.661
 19.1416  14209.5  118.962
 19.1836  14220.9  118.603
 19.2256  14150.4  118.526
 19.2676  14420.9  119.74
 19.3096  14378.1  119.809
 19.3516  14219.4  119.109
 19.3936  14238.9  119.094
 19.4356  14214  118.86
 19.4776  14098.8  118.475
 19.5196  14277.8  119.071
 19.5616  14248.9  119.212
 19.6036  14161.6  118.329
 19.6456  14148  118.399
 19.6876  14231.3  118.393
 19.7296  14117.2  118.381
 19.7716  14153.6  118.695
 19.8136  14292.8  119.492
 19.8556  14565  120.085
 19.8976  14481.2  119.809
 19.9396  14753.4  120.499
 19.9816  14962.3  121.657
 20.0236  15031.3  122.097
 20.0656  14798.8  121.14
 20.1076  14311.5  119.605
 20.1496  14265.7  119.415
 20.1916  14123.6  118.336
 20.2336  13850.1  117.118
 20.2756  13821.5  117.422
 20.3176  13641.9  116.404
 20.3596  13871.5  117.353
 20.4016  13691.5  116.397
 20.4436  13617.4  116.634
 20.4856  13429.9  115.623
 20.5276  13454.1  116.186
 20.5696  13545.5  116.043
 20.6116  13501.6  116.126
 20.6536  13476.3  115.526
 20.6956  13428.5  115.443
 20.7376  13425.3  115.658
 20.7796  13408  115.273
 20.8216  13394.9  114.924
 20.8636  13187.2  114.402
 20.9056  13317.7  114.911
 20.9476  13165.7  114.098
 20.9896  13256.7  114.353
 21.0316  13520.9  115.377
 21.0736  13145  114.285
 21.1156  13247.6  114.889
 21.1576  13341.6  115.351
 21.1996  13181.3  114.634
 21.2416  13096.5  114.102
 21.2836  13363.7  115.22
 21.3256  13080.8  114.082
 21.3676  13261.8  114.406
 21.4096  12974.1  113.468
 21.4516  12978.6  113.369
 21.4936  12961.9  113.552
 21.5356  13157.1  114.345
 21.5776  13172.7  114.242
 21.6196  13011.9  113.578
 21.6616  12915.7  113.25
 21.7036  12992.6  113.362
 21.7456  12996.4  113.456
 21.7876  12901.5  112.78
 21.8296  12755.4  112.007
 21.8716  12825.7  112.552
 21.9136  13061.4  113.779
 21.9556  12885.9  112.681
 21.9976  12769.4  112.189
 22.0396  12793.7  112.544
 22.0816  12965.8  113.844
 22.1236  13015.6  113.515
 22.1656  12851.6  112.912
 22.2076  12935.9  112.756
 22.2496  12884.3  112.563
 22.2916  12851.9  112.292
 22.3336  12707  112.393
 22.3756  12807.1  112.548
 22.4176  12635.2  111.648
 22.4596  12666.3  112.369
 22.5016  12753.5  112.254
 22.5436  12911.3  112.815
 22.5856  12962.4  113.299
 22.6276  12515.9  111.502
 22.6696  12832.6  113.223
 22.7116  12751.9  112.381
 22.7536  12808.9  112.601
 22.7956  12823.3  111.992
 22.8376  12778.6  112.316
 22.8796  12776.6  112.107
 22.9216  13095.9  114.052
 22.9636  12765.2  111.758
 23.0056  12928.6  112.608
 23.0476  12991.4  113.459
 23.0896  13315.6  114.229
 23.1316  12850.7  112.656
 23.1736  12694.4  114.741
 23.2156  12829.4  112.885
 23.2576  12730.3  112.601
 23.2996  12785.2  112.612
 23.3416  12645.1  112.527
 23.3836  12709.6  112.033
 23.4256  12660.9  111.942
 23.4676  12648.1  111.573
 23.5096  12546.3  111.803
 23.5516  12627.3  111.444
 23.5936  12676.9  112.567
 23.6356  12838.7  112.949
 23.6776  12787.2  112.931
 23.7196  12595.5  111.66
 23.7616  12701.4  112.044
 23.8036  12679.9  112.004
 23.8456  12634.3  111.354
 23.8876  12331  110.375
 23.9296  12166.4  110.115
 23.9716  12447.3  110.562
 24.0136  12557.9  111.963
 24.0556  12123.2  109.748
 24.0976  12187.5  109.84
 24.1396  12171.9  112.433
 24.1816  12229.8  111.119
 24.2236  12194.6  110.576
 24.2656  12080  109.528
 24.3076  11892  108.92
 24.3496  12081.8  109.678
 24.3916  11987.5  109.3
 24.4336  11967.3  109.416
 24.4756  11879.5  108.872
 24.5176  12026.2  109.199
 24.5596  11742.4  108.031
 24.6016  11700.1  108.119
 24.6436  11765.7  107.913
 24.6856  11741.3  107.563
 24.7276  11810.4  108.194
 24.7696  11701.3  107.811
 24.8116  11623.9  107.634
 24.8536  11586.1  107.456
 24.8956  11605.7  107.281
 24.9376  11459.1  106.542
 24.9796  11430.4  106.762
 25.0216  11206.6  105.822
 25.0636  11474.6  106.733
 25.1056  11222.3  106.254
 25.1476  11405.3  108.77
 25.1896  11295.6  106.729
 25.2316  11392.3  106.442
 25.2736  11414.1  106.208
 25.3156  11338.7  105.929
 25.3576  11380.2  106.549
 25.3996  11310.3  106.2
 25.4416  11277.1  106.033
 25.4836  11173.4  106.064
 25.5256  11175  105.437
 25.5676  11214.5  105.354
 25.6096  11037.5  105.089
 25.6516  11166.2  105.202
 25.6936  11084  105.128
 25.7356  11104.1  105.349
 25.7776  11123.3  105.046
 25.8196  11069.8  105.029
 25.8616  11121.6  105.193
 25.9036  11176.2  104.923
 25.9456  11080.7  105.077
 25.9876  11002.5  104.767
 26.0296  11156.1  105.004
 26.0716  10991.8  104.656
 26.1136  11119.6  105.198
 26.1556  11169.7  104.805
 26.1976  11025.8  105.064
 26.2396  11108  104.592
 26.2816  10978  104.603
 26.3236  11032.2  105.021
 26.3656  10895.5  104.087
 26.4076  11030.7  104.922
 26.4496  11557.3  106.882
 26.4916  11241.6  105.431
 26.5336  10969.1  104.473
 26.5756  11476.1  106.66
 26.6176  10879.6  103.923
 26.6596  10755.5  103.671
 26.7016  10848.4  103.874
 26.7436  10696  103.278
 26.7856  10791.1  103.715
 26.8276  10639.6  102.934
 26.8696  10816.5  103.664
 26.9116  10642.6  102.762
 26.9536  10613.1  102.673
 26.9956  10600.3  102.64
 27.0376  10540.5  102.565
 27.0796  10628.2  102.728
 27.1216  10593.1  102.635
 27.1636  10501.2  102.352
 27.2056  10514.8  102.3
 27.2476  10473.2  102.094
 27.2896  10503.8  102.379
 27.3316  10511.2  102.108
 27.3736  10511.8  102.369
 27.4156  10433.5  101.842
 27.4576  10379.5  101.803
 27.4996  10325.3  101.135
 27.5416  10377.7  101.707
 27.5836  10410.8  101.686
 27.6256  10573.9  102.637
 27.6676  10581.2  102.695
 27.7096  10409.4  101.732
 27.7516  10288.9  101.289
 27.7936  10372.5  101.874
 27.8356  10357.5  101.411
 27.8776  10284.5  101.108
 27.9196  10245.1  100.758
 27.9616  10252.4  100.985
 28.0036  10205.6  100.731
 28.0456  10284.3  101.247
 28.0876  10124.4  100.552
 28.1296  10145  100.429
 28.1716  10152.4  100.54
 28.2136  10214.1  100.802
 28.2556  9976.9  99.7428
 28.2976  10020.3  99.9545
 28.3396  10122.5  100.219
 28.3816  10126.4  100.26
 28.4236  10066.8  100.115
 28.4656  10056.5  100.104
 28.5076  9911.14  99.0205
 28.5496  10109.4  100.262
 28.5916  10198.5  100.506
 28.6336  9950.49  99.6247
 28.6756  10061.6  99.3753
 28.7176  9999.08  99.4994
 28.7596  9866.65  98.8524
 28.8016  10023.8  99.6714
 28.8436  9816.53  98.8768
 28.8856  9963.46  99.5152
 28.9276  9885.04  99.3123
 28.9696  9836.37  98.7306
 29.0116  9868.15  99.0746
 29.0536  9843.06  99.1516
 29.0956  9852.92  98.916
 29.1376  9738.69  98.3067
 29.1796  9782.31  98.5747
 29.2216  9797.01  98.4844
 29.2636  9819.5  98.6831
 29.3056  9686.58  97.797
 29.3476  9742.27  98.5981
 29.3896  9826.28  99.0992
 29.4316  9946.14  99.0481
 29.4736  9831.99  98.5365
 29.5156  9945.16  99.0224
 29.5576  9792.25  99.0151
 29.5996  9791.86  98.2608
 29.6416  9746.62  98.1559
 29.6836  9848.98  98.5866
 29.7256  9872.15  99.05
 29.7676  9740.2  98.2658
 29.8096  9722.13  98.127
 29.8516  9702.36  98.3559
 29.8936  9611.36  97.9934
 29.9356  9608.85  97.735
 29.9776  9537.53  97.5257
 30.0196  9533.89  97.161
 30.0616  9602.32  97.6173
 30.1036  9717.69  98.0293
 30.1456  9658.47  97.9559
 30.1876  9514.46  97.211
 30.2296  9530.29  97.2314
 30.2716  9681.39  97.6378
 30.3136  9785.2  99.0282
 30.3556  9652.84  98.3781
 30.3976  9544  99.344
 30.4396  9727.36  97.6103
 30.4816  9695.36  97.0373
 30.5236  9569.7  96.4314
 30.5656  9545.48  96.9561
 30.6076  9632.16  96.8192
 30.6496  9545.77  96.7721
 30.6916  9563.29  96.943
 30.7336  9381.88  96.1828
 30.7756  9446.87  96.6051
 30.8176  9528.28  96.9376
 30.8596  9554.55  96.8402
 30.9016  9382.88  96.3063
 30.9436  9474.82  96.5304
 30.9856  9491.96  96.7332
 31.0276  9369.29  95.6907
 31.0696  9332.64  96.09
 31.1116  9415.01  96.4938
 31.1536  9410.35  96.345
 31.1956  9246.6  95.5963
 31.2376  9279.38  95.7711
 31.2796  9318.89  95.5189
 31.3216  9436.74  96.0628
 31.3636  9449.75  96.8336
 31.4056  9421.11  98.014
 31.4476  9350.7  95.5359
 31.4896  9234.24  95.4411
 31.5316  9352.82  95.447
 31.5736  9382.75  95.4146
 31.6156  9197.97  94.4949
 31.6576  9285.25  95.0417
 31.6996  9564.94  96.1325
 31.7416  9196.52  95.3174
 31.7836  9323.82  94.9872
 31.8256  9140.71  94.322
 31.8676  9435.96  95.828
 31.9096  9199.16  94.971
 31.9516  9017.25  94.1908
 31.9936  9200.97  94.9676
 32.0356  9186.24  94.9606
 32.0776  9130.73  94.556
 32.1196  9249.31  95.2614
 32.1616  9298.01  94.9652
 32.2036  9079.13  94.3488
 32.2456  9099.22  94.8309
 32.2876  9177.44  94.7334
 32.3296  9087.91  94.2373
 32.3716  9105.85  94.428
 32.4136  9218.42  95.2137
 32.4556  9238.73  94.7022
 32.4976  9225.58  94.5262
 32.5396  9106.66  93.998
 32.5816  9052.85  93.8451
 32.6236  9161.9  94.4773
 32.6656  9241.26  95.4307
 32.7076  9027.45  93.9724
 32.7496  9128.14  94.1623
 32.7916  9091.01  93.9245
 32.8336  9086.36  93.9989
 32.8756  9149.21  94.0433
 32.9176  8919.78  93.3315
 32.9596  9035.11  94.0189
 33.0016  8984.41  93.5457
 33.0436  9175.57  94.7067
 33.0856  9052.54  94.1463
 33.1276  8907.06  93.1283
 33.1696  9176.88  94.3618
 33.2116  9055.69  93.9627
 33.2536  9093.88  94.1659
 33.2956  9058.3  94.0614
 33.3376  8951.37  93.2432
 33.3796  9030.16  93.8538
 33.4216  9009.25  93.3475
 33.4636  9053.19  93.7221
 33.5056  8837.4  92.8398
 33.5476  8898.55  93.1562
 33.5896  8968.22  93.2835
 33.6316  8959.7  93.5618
 33.6736  8806.86  92.9953
 33.7156  8819.39  93.1128
 33.7576  8917.25  93.2631
 33.7996  9097.09  93.9496
 33.8416  8849.77  92.8444
 33.8836  8927.89  93.035
 33.9256  8937.72  93.157
 33.9676  8909.32  92.894
 34.0096  8761.64  92.4476
 34.0516  8719.02  91.8496
 34.0936  8797.66  92.5261
 34.1356  8819.17  92.3864
 34.1776  8889.46  92.7654
 34.2196  8704.46  91.9759
 34.2616  8697.38  92.0727
 34.3036  8598.06  91.799
 34.3456  8657.25  91.8575
 34.3876  8724.75  92.1805
 34.4296  8729.9  91.8843
 34.4716  8848.6  92.6776
 34.5136  8632.13  91.7359
 34.5556  8627.89  91.9666
 34.5976  8710.72  92.2089
 34.6396  8641.08  91.6794
 34.6816  8636.87  91.6489
 34.7236  8662.29  91.5644
 34.7656  8718.85  92.0556
 34.8076  8463.44  91.0185
 34.8496  8572.19  91.5273
 34.8916  8618.43  91.5794
 34.9336  8769.72  92.3351
 34.9756  8544.61  91.0715
 35.0176  8732.04  92.6054
 35.0596  8556.16  91.4936
 35.1016  8627.69  91.6377
 35.1436  8590.29  91.123
 35.1856  8639.17  91.5107
 35.2276  8637.86  91.6757
 35.2696  8523.83  91.2584
 35.3116  8521.64  91.342
 35.3536  8494.39  90.9098
 35.3956  8489.76  90.5938
 35.4376  8492.71  91.1694
 35.4796  8551.91  91.5435
 35.5216  8460.92  91.0083
 35.5636  8350.12  91.1561
 35.6056  8469.65  90.8203
 35.6476  8547.6  91.1347
 35.6896  8625.98  91.6408
 35.7316  8426.22  90.5456
 35.7736  8482.82  91.0503
 35.8156  8419.65  90.7014
 35.8576  8427.83  91.0042
 35.8996  8618.16  91.9924
 35.9416  8360.68  90.1237
 35.9836  8414.65  90.7527
 36.0256  8580.19  91.6625
 36.0676  8475.65  90.8627
 36.1096  8376.87  90.4669
 36.1516  8484.8  90.9369
 36.1936  8361.15  90.1143
 36.2356  8406.92  91.0091
 36.2776  8515.22  91.064
 36.3196  8337.37  89.7781
 36.3616  8389.77  90.1919
 36.4036  8474.14  90.6906
 36.4456  8383.2  90.4346
 36.4876  8304.4  89.9383
 36.5296  8451.23  90.763
 36.5716  8304.25  90.763
 36.6136  8492.45  90.5415
 36.6556  8442.1  90.4633
 36.6976  8478.57  91.1686
 36.7396  8177.4  89.4419
 36.7816  8322.76  90.4365
 36.8236  8277.23  90.1164
 36.8656  8390.57  90.804
 36.9076  8319.26  90.2939
 36.9496  8390.94  90.6603
 36.9916  8395.72  90.3166
 37.0336  8551.91  91.4679
 37.0756  8483.81  90.8973
 37.1176  8148.56  89.3505
 37.1596  8210.05  89.6931
 37.2016  8271.55  90.2578
 37.2436  8449.35  90.5302
 37.2856  8243.9  89.6824
 37.3276  8296.35  89.3089
 37.3696  8171.95  89.5282
 37.4116  8227.37  89.7274
 37.4536  8217.42  89.3995
 37.4956  8114.64  89.0213
 37.5376  8226.8  91.2083
 37.5796  8118.93  90.568
 37.6216  8215.41  89.3493
 37.6636  8099.66  88.625
 37.7056  8179.61  89.2496
 37.7476  8065.57  88.1636
 37.7896  8195.12  89.3612
 37.8316  8038.69  88.6912
 37.8736  8267.84  89.4554
 37.9156  8090.54  88.498
 37.9576  8119.43  88.5409
 37.9996  7930.86  87.2287
 38.0416  8064.82  88.7781
 38.0836  8079.81  88.7652
 38.1256  8104.96  88.8551
 38.1676  7993.21  88.3835
 38.2096  8028.39  88.2079
 38.2516  8050.77  88.5164
 38.2936  8033.22  88.235
 38.3356  8186.27  88.9789
 38.3776  8127.01  88.936
 38.4196  8118.74  88.7392
 38.4616  8035.48  88.5256
 38.5036  8209.11  89.3131
 38.5456  7980.18  88.9003
 38.5876  8033.47  89.401
 38.6296  7977.5  87.9055
 38.6716  7987.02  87.7482
 38.7136  7927.38  87.3634
 38.7556  7807.42  87.2003
 38.7976  8005.85  88.2399
 38.8396  7918.69  88.0148
 38.8816  7911.42  87.9482
 38.9236  7931.77  87.8733
 38.9656  7945.17  87.862
 39.0076  7998.55  87.56
 39.0496  7944.22  87.8007
 39.0916  7972.58  87.596
 39.1336  7872.47  87.468
 39.1756  8047.51  88.5016
 39.2176  7932.25  88.3978
 39.2596  7768.92  87.405
 39.3016  7895.04  87.6132
 39.3436  7804.02  87.5988
 39.3856  7940.82  87.8129
 39.4276  7906.13  88.1133
 39.4696  7880.95  87.6023
 39.5116  7844.32  87.9057
 39.5536  8072.82  89.6007
 39.5956  8049.46  88.5624
 39.6376  8064.65  88.643
 39.6796  7961.37  87.824
 39.7216  7984.68  88.041
 39.7636  7975.66  88.5718
 39.8056  8032.67  88.6604
 39.8476  7880.83  88.0764
 39.8896  7927.08  87.9644
 39.9316  7924.26  88.2026
 39.9736  8057.03  88.5827
 40.0156  7933.54  87.6395
 40.0576  8019.95  88.4879
 40.0996  7988.79  87.4906
 40.1416  7988.54  88.2985
 40.1836  8042.74  88.4753
 40.2256  8038.3  88.4982
 40.2676  7975.49  88.2555
 40.3096  8079.49  88.7461
 40.3516  8112.04  89.0378
 40.3936  8103  88.5498
 40.4356  8099.44  88.7229
 40.4776  8004.34  88.6089
 40.5196  8075.9  89.0599
 40.5616  8020.47  88.4778
 40.6036  8025.03  88.7547
 40.6456  8081.71  88.669
 40.6876  8138.41  88.9565
 40.7296  8098.48  88.7703
 40.7716  8013.65  88.5468
 40.8136  8026.97  88.5716
 40.8556  7977.57  88.4324
 40.8976  8147.38  89.2834
 40.9396  7919.02  88.3786
 40.9816  8034.51  88.2969
 41.0236  8099.94  88.4306
 41.0656  7991.05  88.3779
 41.1076  8041.37  88.4249
 41.1496  8107.56  88.7017
 41.1916  8036.75  88.641
 41.2336  7901.4  87.8755
 41.2756  7974.25  87.8856
 41.3176  7973.73  88.5026
 41.3596  8007.01  88.4089
 41.4016  8080.97  89.0677
 41.4436  8032.7  88.6012
 41.4856  8071.15  88.9763
 41.5276  8007.46  88.6439
 41.5696  8005.49  88.2653
 41.6116  7964.17  88.4324
 41.6536  8055.11  88.7914
 41.6956  8000.48  88.5472
 41.7376  8079.17  89.0048
 41.7796  8032.53  88.6286
 41.8216  7974.71  88.5493
 41.8636  7968.18  88.4487
 41.9056  7846.98  87.5666
 41.9476  7953.23  88.2872
 41.9896  7968.25  88.1391
 42.0316  8044.16  88.644
 42.0736  7926.81  88.1091
 42.1156  7921.04  87.9107
 42.1576  8001.87  88.4279
 42.1996  7939.59  88.2532
 42.2416  7978.9  88.0489
 42.2836  7932.13  87.9081
 42.3256  7877.88  87.7217
 42.3676  7922.39  87.7713
 42.4096  7934.27  87.8025
 42.4516  7916.89  87.7944
 42.4936  7880.99  87.6618
 42.5356  7836.98  87.552
 42.5776  7980.82  88.2892
 42.6196  7941.23  88.1267
 42.6616  7785.53  87.428
 42.7036  7953.59  87.7468
 42.7456  7822.98  87.3813
 42.7876  7879.31  87.7916
 42.8296  7833.29  87.3678
 42.8716  7756.36  87.0994
 42.9136  7821.92  87.2556
 42.9556  7959.32  88.153
 42.9976  7960.25  88.1194
 43.0396  7890.07  87.4599
 43.0816  7785.98  87.2588
 43.1236  7844.71  87.645
 43.1656  7794.79  87.1966
 43.2076  7735.35  86.9636
 43.2496  7785.27  87.0642
 43.2916  7787.04  87.4359
 43.3336  7836.5  87.5535
 43.3756  7746.57  86.8077
 43.4176  7693.87  86.5897
 43.4596  7698.67  86.4714
 43.5016  7768.58  87.2712
 43.5436  7710.81  86.8428
 43.5856  7742.93  87.0457
 43.6276  7739  86.927
 43.6696  7724.71  87.0988
 43.7116  7779.67  86.9092
 43.7536  7794.76  87.4842
 43.7956  7563.79  87.3633
 43.8376  7670.39  86.5144
 43.8796  7545.1  85.8787
 43.9216  7659.5  86.4493
 43.9636  7669.42  86.6059
 44.0056  7683.77  86.9265
 44.0476  7692.58  86.6001
 44.0896  7436.87  85.4892
 44.1316  7685.83  86.4313
 44.1736  7588.85  86.0109
 44.2156  7692.39  86.4535
 44.2576  7616.42  86.3456
 44.2996  7617.64  86.3261
 44.3416  7757.22  86.8641
 44.3836  7480.66  85.6252
 44.4256  7483.94  85.2923
 44.4676  7496.22  85.5223
 44.5096  7486.73  85.6084
 44.5516  7560.87  85.9961
 44.5936  7287.5  84.3842
 44.6356  7608.01  85.954
 44.6776  7702.38  86.7266
 44.7196  7510.08  86.0156
 44.7616  7517.65  87.4043
 44.8036  7406.18  85.1822
 44.8456  7486.99  85.8519
 44.8876  7525.12  85.9185
 44.9296  7739.18  86.5801
 44.9716  7437.92  85.3026
 45.0136  7615.9  86.2541
 45.0556  7526.97  85.7284
 45.0976  7344.59  84.8409
 45.1396  7469.13  85.3126
 45.1816  7425.99  84.9963
 45.2236  7481.38  85.2209
 45.2656  7435.51  85.4565
 45.3076  7412.51  85.1054
 45.3496  7358.67  85.0907
 45.3916  7510.86  86.2429
 45.4336  7443.56  85.7076
 45.4756  7271.7  84.5577
 45.5176  7390.64  84.88
 45.5596  7413.47  85.1285
 45.6016  7327.18  85.0452
 45.6436  7410.39  84.7027
 45.6856  7383.42  85.211
 45.7276  7283.25  85.9306
 45.7696  7391.86  86.2487
 45.8116  7429.43  85.9139
 45.8536  7395.26  85.6097
 45.8956  7386.95  84.9169
 45.9376  7468.91  84.8494
 45.9796  7274.83  84.4103
 46.0216  7334.43  85.1026
 46.0636  7431.98  84.8128
 46.1056  7444.65  84.8701
 46.1476  7397.58  85.1938
 46.1896  7354.44  85.093
 46.2316  7359.71  84.9964
 46.2736  7244.14  84.6895
 46.3156  7249.83  84.3118
 46.3576  7262.96  84.5909
 46.3996  7283.94  84.8731
 46.4416  7387.06  85.0428
 46.4836  7224.77  84.4589
 46.5256  7304.47  84.8628
 46.5676  7208.96  84.4171
 46.6096  7333.1  85.0781
 46.6516  7450.58  84.7961
 46.6936  7293.07  84.3822
 46.7356  7498.37  85.6627
 46.7776  7293.37  85.3188
 46.8196  7263.68  84.7464
 46.8616  7067.43  83.5238
 46.9036  7182.73  83.8779
 46.9456  7243.77  83.866
 46.9876  7138.71  83.3506
 47.0296  7162.57  84.1596
 47.0716  7029.5  83.2039
 47.1136  7218.73  84.0016
 47.1556  7173.98  83.5996
 47.1976  7219.5  83.953
 47.2396  7151.1  83.9484
 47.2816  7130.8  83.534
 47.3236  7161.71  84.0776
 47.3656  7224.26  84.3769
 47.4076  7076.43  83.3037
 47.4496  7094.14  83.5137
 47.4916  7102.41  83.7495
 47.5336  7129.35  83.7278
 47.5756  7219.26  84.3649
 47.6176  7080.53  83.4506
 47.6596  7113.1  83.364
 47.7016  7198.4  83.6748
 47.7436  7129.41  83.6095
 47.7856  7205.24  84.0757
 47.8276  7089.11  83.4488
 47.8696  7090.91  83.5429
 47.9116  7162.09  83.6768
 47.9536  7046.66  82.934
 47.9956  7039.52  83.6006
 48.0376  7008.85  83.1979
 48.0796  7085.51  83.7707
 48.1216  7160.54  84.0346
 48.1636  7223.47  83.9761
 48.2056  7073.41  83.364
 48.2476  7215.96  84.5109
 48.2896  7064.4  83.5296
 48.3316  6971.72  82.9189
 48.3736  6991.77  83.0545
 48.4156  7033.35  83.1629
 48.4576  6936.35  82.8764
 48.4996  7087.11  83.2357
 48.5416  7107.93  83.6815
 48.5836  6953.35  82.4422
 48.6256  7015.44  83.0085
 48.6676  6973.12  83.2734
 48.7096  7001.02  82.7016
 48.7516  6891.79  82.2121
 48.7936  6891.01  82.2687
 48.8356  7044.77  83.2341
 48.8776  7050.95  83.8373
 48.9196  7072.62  83.3454
 48.9616  6913.34  82.7725
 49.0036  6996.25  83.6164
 49.0456  6866.75  82.8179
 49.0876  6981.52  83.0355
 49.1296  6802.59  82.1299
 49.1716  6821.19  82.1189
 49.2136  7000.5  83.1282
 49.2556  6938.19  82.8871
 49.2976  6870.9  82.4496
 49.3396  6914.24  82.7569
 49.3816  6932.38  82.3118
 49.4236  6942.63  82.7862
 49.4656  6806.78  81.9443
 49.5076  6923.58  82.4391
 49.5496  6848.34  82.0541
 49.5916  6975.84  82.7298
 49.6336  6935.51  82.6953
 49.6756  6961.3  83.0773
 49.7176  6845.67  82.3288
 49.7596  6827.06  81.9846
 49.8016  6921.28  82.4747
 49.8436  6857.13  82.3777
 49.8856  6769.34  81.8626
 49.9276  6785.89  82.0535
 49.9696  6811.9  82.1956
 50.0116  6808.32  82.3006
 50.0536  6795.33  82.1692
 50.0956  6811.77  82.3437
 50.1376  6780.48  81.8534
 50.1796  6761.84  82.0112
 50.2216  6823.29  82.3836
 50.2636  6780.96  81.742
 50.3056  6675.89  81.2825
 50.3476  6701.76  81.4554
 50.3896  6748.02  81.7123
 50.4316  6931.21  82.6475
 50.4736  6823.78  82.2216
 50.5156  6782.33  81.9615
 50.5576  6807.18  81.8745
 50.5996  6756.73  81.9599
 50.6416  6796.43  82.0196
 50.6836  6695.63  81.4693
 50.7256  6795.34  81.9958
 50.7676  6815.64  82.4435
 50.8096  6749.19  81.5697
 50.8516  6700.81  81.6924
 50.8936  6654.24  81.184
 50.9356  6816.44  82.2728
 50.9776  6764.31  82.1126
 51.0196  6619.89  81.3561
 51.0616  6701.68  81.1937
 51.1036  6671.49  81.3552
 51.1456  6676.47  81.3041
 51.1876  6671.58  80.622
 51.2296  6595.98  80.9079
 51.2716  6658.76  80.8756
 51.3136  6549.3  80.6619
 51.3556  6667.4  81.0094
 51.3976  6574.16  80.5942
 51.4396  6440.56  80.0646
 51.4816  6567.59  80.7021
 51.5236  6725.75  81.7686
 51.5656  6558.5  80.3437
 51.6076  6634.96  80.9006
 51.6496  6605.65  80.8943
 51.6916  6547.88  80.8995
 51.7336  6729.99  82.1035
 51.7756  6651.4  81.3269
 51.8176  6667.67  81.533
 51.8596  6463.57  80.2892
 51.9016  6831.25  82.1483
 51.9436  6489.38  81.519
 51.9856  6476.72  81.863
 52.0276  6467.71  80.3263
 52.0696  6552.52  80.9234
 52.1116  6526.82  80.867
 52.1536  6556.71  80.9477
 52.1956  6505.28  80.1014
 52.2376  6609.54  80.9112
 52.2796  6581.04  80.5539
 52.3216  6408.91  80.1681
 52.3636  6443.79  79.9718
 52.4056  6570  80.6019
 52.4476  6445.98  80.2064
 52.4896  6371.82  79.7927
 52.5316  6453.95  80.3537
 52.5736  6528.65  80.5315
 52.6156  6466.74  80.5311
 52.6576  6518.46  80.3045
 52.6996  6332.49  80.1053
 52.7416  6574.33  81.4649
 52.7836  6580.25  81.3804
 52.8256  6446.33  79.7939
 52.8676  6412.45  80.15
 52.9096  6495.56  80.7557
 52.9516  6450.62  80.8449
 52.9936  6347.57  80.5828
 53.0356  6379.93  79.8109
 53.0776  6300.14  79.5641
 53.1196  6280.75  79.5692
 53.1616  6346.22  80.0301
 53.2036  6260.05  79.444
 53.2456  6213.01  79.2429
 53.2876  6286.29  79.4163
 53.3296  6336.73  80.0569
 53.3716  6400.07  80.205
 53.4136  6321.78  79.8506
 53.4556  6335.06  79.9721
 53.4976  6249.64  79.2831
 53.5396  6308.95  80.0443
 53.5816  6369.02  80.0638
 53.6236  6323.76  80.0503
 53.6656  6310.11  79.6513
 53.7076  6355.69  79.9123
 53.7496  6268.03  79.4746
 53.7916  6603  81.6936
 53.8336  6286.13  79.6169
 53.8756  6179.97  79.4824
 53.9176  6283.76  79.4969
 53.9596  6328.58  80.5273
 54.0016  6258.76  79.4265
 54.0436  6213.37  79.3498
 54.0856  6336.01  79.5592
 54.1276  6194.04  78.8557
 54.1696  6263.89  79.4727
 54.2116  6286.29  79.3772
 54.2536  6322.68  79.4218
 54.2956  6305.61  79.2991
 54.3376  6313.64  79.8921
 54.3796  6264.73  79.4821
 54.4216  6333.86  79.9655
 54.4636  6291.16  79.7043
 54.5056  6372.19  79.9842
 54.5476  6197.03  79.2106
 54.5896  6344.78  79.9804
 54.6316  6354.31  79.8977
 54.6736  6271.46  79.4509
 54.7156  6214.76  79.1152
 54.7576  6173.43  78.8465
 54.7996  6300.51  79.7886
 54.8416  6236  79.3408
 54.8836  6245.17  79.6004
 54.9256  6242.81  79.329
 54.9676  6368.19  79.9764
 55.0096  6284.87  79.5259
 55.0516  6270.54  79.6666
 55.0936  6279.25  79.3493
 55.1356  6261.02  79.2864
 55.1776  6221  79.2915
 55.2196  6308.92  79.6951
 55.2616  6227.18  79.335
 55.3036  6223.2  79.4641
 55.3456  6217.33  79.5722
 55.3876  6174.4  79.0473
 55.4296  6378.51  80.3541
 55.4716  6292.17  79.8071
 55.5136  6237.54  79.2206
 55.5556  6179.39  78.9218
 55.5976  6217.72  79.2199
 55.6396  6144  78.6985
 55.6816  6191.66  78.8812
 55.7236  6260.26  79.3527
 55.7656  6354.71  79.7108
 55.8076  6342.84  79.6168
 55.8496  6160.41  78.7821
 55.8916  6168.13  79.0369
 55.9336  6127.15  78.5941
 55.9756  6200.36  78.951
 56.0176  6179.34  78.9682
 56.0596  6217.58  79.1923
 56.1016  6235.57  79.3142
 56.1436  6122.19  78.8502
 56.1856  6230.8  79.2927
 56.2276  6143.22  78.7916
 56.2696  6238.22  79.3954
 56.3116  6136.3  79.1106
 56.3536  6205.2  79.2165
 56.3956  6091.04  78.4788
 56.4376  6167.71  79.004
 56.4796  6174.71  78.8442
 56.5216  6247.6  79.6932
 56.5636  6216.1  79.0764
 56.6056  6146.06  78.8677
 56.6476  6207.82  78.889
 56.6896  6136.86  78.8803
 56.7316  6124.36  78.711
 56.7736  6255.92  79.5491
 56.8156  6150.28  78.8674
 56.8576  6177.88  78.987
 56.8996  6174.62  78.9092
 56.9416  6120.29  78.8623
 56.9836  6145.34  78.5337
 57.0256  6111.87  78.6372
 57.0676  6131.75  78.8906
 57.1096  6178.31  78.9692
 57.1516  6169.15  78.9774
 57.1936  6177.07  78.7792
 57.2356  6162.9  79.0048
 57.2776  6088.33  78.4892
 57.3196  6178.51  79.2268
 57.3616  6231.38  79.2654
 57.4036  6140.55  78.7464
 57.4456  6048.74  78.1229
 57.4876  6198.71  78.9405
 57.5296  6096.63  78.6268
 57.5716  6110.22  78.708
 57.6136  6123.44  78.6075
 57.6556  6113  78.6782
 57.6976  6213.8  79.0651
 57.7396  6088.68  78.7241
 57.7816  6040.09  78.7643
 57.8236  6032.2  78.5052
 57.8656  6187.13  79.1673
 57.9076  6162.43  79.0313
 57.9496  6187.6  79.5472
 57.9916  6038.99  78.1049
 58.0336  6145.81  79.0718
 58.0756  6117.36  78.5258
 58.1176  6104.3  78.4342
 58.1596  5997.7  78.3126
 58.2016  6146.4  78.4858
 58.2436  6261.1  79.6366
 58.2856  6133.71  78.737
 58.3276  6112.65  78.978
 58.3696  6083.84  78.5441
 58.4116  6133.9  78.7284
 58.4536  6124.73  78.5622
 58.4956  6028.47  78.1176
 58.5376  6069.54  78.0795
 58.5796  6069.95  78.3776
 58.6216  6148.81  78.7024
 58.6636  6218.49  79.3571
 58.7056  6173.92  78.9328
 58.7476  6028.55  78.444
 58.7896  6017.75  78.0123
 58.8316  6198.54  79.2864
 58.8736  6055.85  78.2657
 58.9156  6051.98  78.2945
 58.9576  6150.8  79.2401
 58.9996  6180.2  78.6827
 59.0416  6286.01  79.7057
 59.0836  6112.6  78.5307
 59.1256  6056.65  78.867
 59.1676  6057.25  79.1797
 59.2096  6267.47  79.8311
 59.2516  6361.81  79.9998
 59.2936  6177.65  79.1651
 59.3356  6047.84  78.2067
 59.3776  6205.69  79.3919
 59.4196  6094.9  78.6156
 59.4616  6102.7  78.5253
 59.5036  6014.66  77.9923
 59.5456  6279.69  79.3793
 59.5876  6169.73  78.8744
 59.6296  6184.51  79.0388
 59.6716  6191.15  79.1399
 59.7136  6113.99  78.6334
 59.7556  6189.16  79.2534
 59.7976  6069.61  78.2258
 59.8396  6077.14  78.1683
 59.8816  6197.67  79.4924
 59.9236  6211.89  79.2219
 59.9656  6121.55  78.9055
 60.0076  6224.15  78.9124
 60.0496  6224.04  79.4229
 60.0916  6283.68  79.2093
 60.1336  6108.28  79.2093
 60.1756  6072.17  80.162
 60.1996  0.0000000E+00  0.0000000E+00