File: docs/examples/opeando_xrd/IS17_D/Data/IS17_D/17_Db_f00094.xye
# /beamlines/bl04/projects/cycle2025-II/20250340211-lsimonelli/DATA/IS17_D/17_Db_f00094.xye : mythproc.py merge -s 0.006 -l 0.5 -f /beamlines/bl04/inhouse/ff/FlatField/ff_20Nov2024rod8mm60s_17keV.raw -b True -c true -o xye /beamlines/bl04/projects/cycle2025-II/20250340211-lsimonelli/DATA/IS17_D/17_Db_00094.dat
# IsMon = [6747295, 6748261, 6751129]  IsPos = [-1.4999, -2.4884, -3.4988]
# Wave = 0.4962  CalPath /beamlines/bl04/projects/cycle2025-II/20250340211-lsimonelli/DATA/Align/Si_Pos1_25keV_f00001.cal
# Date = 2025-09-24_19:54:17 Dt = 4.8000  Bin = 0.0060  <imon> = 6748895 +/- 1628 (Min/Max) 6747295 / 6751129
# icurr 249.2571  mocoIn 1.7009E-05  mocoOut 0.7979  i15 7.07083e+06  imon 6.7489e+06  i7 4.3333  iEMpd_timer 4.8000  iEMpd_1 3.3807E-08  iEMpd_2 7.7014E-08  iEMpd_3 1.6366E-08  iEMpd_4 4.6579E-08  iEMhp_timer 4.8000  iEMhp_1 4.8702E-06  iEMhp_2 -2.5332E-08  iEMhp_3 -2.4499E-08  iEMhp_4 -2.1442E-08
#      9776
 1.5856  44449.9  216.516
 1.6276  50894.4  227.705
 1.6696  56719.5  239.535
 1.7116  63591.4  254.127
 1.7536  71919.5  269.105
 1.7956  75594.2  276.584
 1.8376  72263.5  270.85
 1.8796  62013.5  249.052
 1.9216  51581.6  228.054
 1.9636  44222.3  210.295
 2.0056  40178.6  199.672
 2.0476  37512.5  195.049
 2.0896  35918.1  189.739
 2.1316  35630  188.069
 2.1736  33456.3  183.687
 2.2156  34659.2  185.46
 2.2576  32875.7  181.273
 2.2996  31744.3  178.78
 2.3416  32040.1  178.176
 2.3836  31752.5  177.485
 2.4256  30558.7  174.684
 2.4676  30155.2  173.281
 2.5096  29727.8  172.105
 2.5516  28513.3  172.431
 2.5936  28459.6  168.792
 2.6356  27856.3  167.702
 2.6776  27819.3  166.491
 2.7196  27462.1  165.899
 2.7616  27450.8  165.66
 2.8036  27022.1  164.53
 2.8456  26967.8  165.007
 2.8876  26077.8  162.116
 2.9296  26088.2  162.284
 2.9716  25696.9  160.551
 3.0136  25385.1  159.633
 3.0556  25692.1  160.987
 3.0976  25607.9  159.635
 3.1396  25020  158.528
 3.1816  25133.3  158.807
 3.2236  24909.3  158.097
 3.2656  24697.2  156.463
 3.3076  24552.9  157.484
 3.3496  24581.9  156.493
 3.3916  25339.8  158.714
 3.4336  25512.4  159.848
 3.4756  25677.6  160.3
 3.5176  26436.9  162.414
 3.5596  26308.8  164.481
 3.6016  26348.6  162.202
 3.6436  25283  160.002
 3.6856  25264.5  158.229
 3.7276  24056.4  155.481
 3.7696  23872.8  155.077
 3.8116  23542.6  153.899
 3.8536  23712  154.377
 3.8956  23490.2  153.472
 3.9376  23563.3  153.982
 3.9796  23546.8  153.416
 4.0216  23427.3  152.063
 4.0636  23401.9  153.442
 4.1056  23389.4  153.063
 4.1476  23733.4  154.495
 4.1896  23766.7  154.454
 4.2316  23977.9  154.964
 4.2736  24301.9  155.812
 4.3156  24453.3  156.524
 4.3576  25295.4  159.099
 4.3996  25344.4  159.539
 4.4416  25858.3  160.729
 4.4836  26435.2  162.676
 4.5256  26829.4  164.494
 4.5676  26874  164.885
 4.6096  27632.6  165.839
 4.6516  27705.4  165.742
 4.6936  27769.9  166.77
 4.7356  27993.9  167.269
 4.7776  27897  166.8
 4.8196  27751.6  167.029
 4.8616  27228.7  164.935
 4.9036  27127.4  164.357
 4.9456  26932.6  164.419
 4.9876  26213.1  162.11
 5.0296  26465.7  162.721
 5.0716  26279.4  162.901
 5.1136  26591.8  163.589
 5.1556  26595.4  163.054
 5.1976  27398.6  165.501
 5.2396  27415.5  165.237
 5.2816  27315.3  165.419
 5.3236  27452.6  165.522
 5.3656  26753.3  164.333
 5.4076  26664.7  164.193
 5.4496  26758.4  163.98
 5.4916  26889.9  164.139
 5.5336  26733.9  163.667
 5.5756  26813.7  163.93
 5.6176  27070.4  164.149
 5.6596  27269.9  165.751
 5.7016  27096  164.471
 5.7436  27283.1  165.319
 5.7856  26998.9  164.525
 5.8276  27353.1  165.309
 5.8696  27543.9  166.061
 5.9116  27822  167.504
 5.9536  28114.4  168.122
 5.9956  28191.9  167.74
 6.0376  28019.5  167.845
 6.0796  28295.6  168.498
 6.1216  28181.5  168.355
 6.1636  28604  168.665
 6.2056  28297.5  168.434
 6.2476  28495.2  168.897
 6.2896  28753.2  169.337
 6.3316  28714.3  169.405
 6.3736  28830.3  169.633
 6.4156  29197.2  170.606
 6.4576  29099  169.931
 6.4996  29089.4  170.372
 6.5416  28940  170.067
 6.5836  29046  170.619
 6.6256  29297.4  170.913
 6.6676  29856.2  172.102
 6.7096  29680.3  172.458
 6.7516  29878.5  172.688
 6.7936  30323.3  173.361
 6.8356  30377.8  173.619
 6.8776  30269.8  174.105
 6.9196  30565.7  175.359
 6.9616  30962.2  175.939
 7.0036  31374.3  176.754
 7.0456  31343.3  175.972
 7.0876  31344.5  177.657
 7.1296  31273.5  176.589
 7.1716  31491.6  176.745
 7.2136  31277.4  175.921
 7.2556  31324.6  176.207
 7.2976  31317.9  176.683
 7.3396  31098  176.289
 7.3816  31036.5  176.32
 7.4236  31312.3  176.41
 7.4656  31639.9  176.791
 7.5076  31576.6  176.762
 7.5496  31386.2  176.756
 7.5916  31798.5  177.966
 7.6336  31943.8  178.254
 7.6756  32324.1  179.165
 7.7176  32691.3  180.508
 7.7596  32493  181.164
 7.8016  32982.8  184.757
 7.8436  32745.9  180.77
 7.8856  32770.7  180.453
 7.9276  33433.5  182.652
 7.9696  33580.6  183.369
 8.0116  34502.4  184.43
 8.0536  34571.3  184.856
 8.0956  34548.4  185.968
 8.1376  34764.7  186.023
 8.1796  35279.9  187.927
 8.2216  36030  188.664
 8.2636  36086.8  189.066
 8.3056  35860.7  189.22
 8.3476  36610.7  190.537
 8.3896  36229.1  189.615
 8.4316  36376.2  190.165
 8.4736  36626  190.294
 8.5156  36032.7  189.017
 8.5576  35944.8  189.741
 8.5996  35841.6  188.362
 8.6416  35655.2  189.117
 8.6836  35367.7  188.176
 8.7256  36215.3  189.883
 8.7676  35884.4  191.895
 8.8096  36490.6  190.818
 8.8516  36132  189.443
 8.8936  35840.8  188.646
 8.9356  36206.3  189.939
 8.9776  35863.6  189.112
 9.0196  36064.1  189.321
 9.0616  35698.8  187.859
 9.1036  35268.9  187.875
 9.1456  34881.2  186.178
 9.1876  35206.1  186.996
 9.2296  35055.7  186.029
 9.2716  35049.6  186.061
 9.3136  34673.5  185.058
 9.3556  34929.4  185.713
 9.3976  33893.1  183.454
 9.4396  34095.7  183.893
 9.4816  34069.6  183.695
 9.5236  33695.4  182.564
 9.5656  33558  182.555
 9.6076  32700.7  180.723
 9.6496  33147.9  181.831
 9.6916  32829  180.923
 9.7336  33042.5  181.293
 9.7756  32811.4  181.907
 9.8176  32482.6  180.522
 9.8596  32614.6  179.352
 9.9016  32167.1  178.111
 9.9436  31888.2  177.256
 9.9856  31395.7  176.146
 10.0276  31145.2  176.502
 10.0696  31416.3  176.305
 10.1116  30735.2  174.649
 10.1536  30315.2  173.604
 10.1956  29878.4  171.964
 10.2376  30119.2  172.177
 10.2796  29925.3  171.734
 10.3216  29534.8  170.889
 10.3636  29400  170.529
 10.4056  28888  169.432
 10.4476  29191.2  169.928
 10.4896  29097.8  169.113
 10.5316  28620.6  168.436
 10.5736  28415.6  168.239
 10.6156  28586.3  168.51
 10.6576  28426.8  166.612
 10.6996  27943.7  165.885
 10.7416  27525.1  164.851
 10.7836  27212  164.552
 10.8256  26855.1  163.886
 10.8676  27055.5  164.056
 10.9096  26681.1  162.937
 10.9516  26464.6  161.24
 10.9936  26565.4  161.752
 11.0356  26180.8  161.184
 11.0776  26215  160.62
 11.1196  25743.8  159.93
 11.1616  25420.6  158.603
 11.2036  25644  159.142
 11.2456  25587.1  159.672
 11.2876  25910.4  160.4
 11.3296  25325.6  158.494
 11.3716  25810.7  159.693
 11.4136  25649.8  160.073
 11.4556  25519.2  159.323
 11.4976  26006.7  159.841
 11.5396  26347.2  161.06
 11.5816  26441.4  161.787
 11.6236  26030.4  160.754
 11.6656  25820.3  159.257
 11.7076  24976.2  157.458
 11.7496  24715.5  160.611
 11.7916  24727.6  155.924
 11.8336  24160  155.002
 11.8756  24117.4  154.429
 11.9176  24302.8  154.698
 11.9596  24315.2  154.915
 12.0016  23856.3  154.193
 12.0436  24274.2  154.994
 12.0856  23712.8  153.691
 12.1276  23623.6  153.351
 12.1696  23593.8  152.375
 12.2116  23729.4  152.814
 12.2536  23554.4  153.064
 12.2956  23303.9  151.595
 12.3376  23542.9  152.587
 12.3796  23542.6  153.058
 12.4216  23462  151.989
 12.4636  22971.2  151.319
 12.5056  23403.5  152.008
 12.5476  23475.2  151.756
 12.5896  23329  151.921
 12.6316  23436.2  152.424
 12.6736  23313.4  152.506
 12.7156  23363.7  152.512
 12.7576  23275.7  152.476
 12.7996  23381.4  151.475
 12.8416  23150.7  151.761
 12.8836  23277.5  152.012
 12.9256  23976.6  153.314
 12.9676  23704.3  152.838
 13.0096  23938.9  154.708
 13.0516  23945.2  153.761
 13.0936  24257  155.171
 13.1356  24485.5  154.86
 13.1776  23962.1  154.209
 13.2196  23975.5  153.893
 13.2616  23799.8  153.638
 13.3036  24227  154.977
 13.3456  23713  153.66
 13.3876  24241.2  154.65
 13.4296  23743.6  153.214
 13.4716  24028.6  153.769
 13.5136  23842.8  153.275
 13.5556  23755.9  153.639
 13.5976  23944.9  154.421
 13.6396  23939  153.76
 13.6816  23967  154.319
 13.7236  24596.3  155.918
 13.7656  25863.6  160.331
 13.8076  26499.6  160.968
 13.8496  26169.9  160.624
 13.8916  24128.1  155.342
 13.9336  23638.1  153.041
 13.9756  23673.6  152.542
 14.0176  23255.9  151.862
 14.0596  23398.2  152.254
 14.1016  23300.7  152.357
 14.1436  23435.1  151.937
 14.1856  22692.7  149.797
 14.2276  22672.6  150.208
 14.2696  22580.5  149.759
 14.3116  22152.7  148.237
 14.3536  22155.3  148.413
 14.3956  21930.8  147.39
 14.4376  22250.2  148.235
 14.4796  22160.8  147.946
 14.5216  21702.7  147.189
 14.5636  21563.1  146.288
 14.6056  21940.2  147.124
 14.6476  21643.8  145.376
 14.6896  21305.1  144.772
 14.7316  20987.3  144.713
 14.7736  20812.2  143.264
 14.8156  20777.8  143.147
 14.8576  20486  142.016
 14.8996  20243.8  142.357
 14.9416  19875.1  141.063
 14.9836  19870.3  141.03
 15.0256  19436.1  138.405
 15.0676  19253.6  138.061
 15.1096  19309.1  138.003
 15.1516  19022.3  137.524
 15.1936  19013.1  136.925
 15.2356  18464.6  135.207
 15.2776  18423.9  134.656
 15.3196  18230.6  134.922
 15.3616  18250.1  134.751
 15.4036  18131.7  134.183
 15.4456  18426.2  134.919
 15.4876  18055.8  133.246
 15.5296  17946.2  133.128
 15.5716  17625.7  131.538
 15.6136  17718.5  132.21
 15.6556  17687.4  131.345
 15.6976  17407.2  130.591
 15.7396  17240.8  130.332
 15.7816  17177.7  129.624
 15.8236  17253.3  130.588
 15.8656  17186.4  130.138
 15.9076  16886.3  128.823
 15.9496  17652.3  134.516
 15.9916  17480.1  134.232
 16.0336  17444  131.009
 16.0756  17231.2  130.527
 16.1176  17051.1  129.92
 16.1596  16676.2  129.644
 16.2016  16750.8  128.699
 16.2436  16582.1  128.427
 16.2856  16611.7  128.052
 16.3276  16149.1  126.701
 16.3696  16545.5  128.071
 16.4116  16408.1  127.977
 16.4536  16561.6  128.389
 16.4956  16532.5  128.015
 16.5376  16163  126.761
 16.5796  16131.1  126.001
 16.6216  16345.4  127.095
 16.6636  15917.5  125.617
 16.7056  16239.6  126.745
 16.7476  16035.8  125.478
 16.7896  16309.8  127.292
 16.8316  16203.4  126.853
 16.8736  16269.4  127.366
 16.9156  16133.1  127.159
 16.9576  15982.3  127.352
 16.9996  15828.9  127.193
 17.0416  16131.2  126.813
 17.0836  15991.3  126.027
 17.1256  15935.9  125.813
 17.1676  15827.5  125.336
 17.2096  15826.8  125.245
 17.2516  15885.1  125.252
 17.2936  15603.5  124.493
 17.3356  15528.1  124.178
 17.3776  15374.4  123.751
 17.4196  15341.9  123.316
 17.4616  15347.5  123.237
 17.5036  14934.9  121.94
 17.5456  15045.2  123.012
 17.5876  14966.8  121.757
 17.6296  14990.8  121.688
 17.6716  14606.2  120.683
 17.7136  14919.2  122.101
 17.7556  14740  121.652
 17.7976  14722.9  121.317
 17.8396  14774.8  121.036
 17.8816  14475.3  120.359
 17.9236  14485.3  120.191
 17.9656  14501.6  120.775
 18.0076  14446.3  120.131
 18.0496  14441.9  119.256
 18.0916  14462  119.89
 18.1336  14356  119.534
 18.1756  14538.7  119.858
 18.2176  14276  118.98
 18.2596  14272  118.699
 18.3016  14447.8  119.686
 18.3436  14382.6  119.419
 18.3856  14329  119.327
 18.4276  14312.6  118.939
 18.4696  14343.6  119.154
 18.5116  14308.9  119.278
 18.5536  14221.3  119.268
 18.5956  13929.9  117.616
 18.6376  13952  118.117
 18.6796  14000.6  117.64
 18.7216  14153.9  118.769
 18.7636  13897.2  117.693
 18.8056  13892.6  117.597
 18.8476  13857.8  118.067
 18.8896  13818.1  117.25
 18.9316  13914.8  117.631
 18.9736  13754.6  116.662
 19.0156  13714.2  116.903
 19.0576  13837.6  116.292
 19.0996  13887  117.2
 19.1416  13886  117.59
 19.1836  13864.7  117.103
 19.2256  13624  116.302
 19.2676  13835.6  117.288
 19.3096  13710.9  116.996
 19.3516  13642.7  116.675
 19.3936  13660.7  116.647
 19.4356  13774  117.008
 19.4776  13707.6  116.817
 19.5196  13727.8  116.748
 19.5616  13521.3  116.127
 19.6036  13592.9  115.939
 19.6456  13626.8  116.199
 19.6876  13612.1  115.771
 19.7296  13807.9  117.07
 19.7716  13521.9  116.016
 19.8136  13839.8  117.571
 19.8556  13806.3  116.913
 19.8976  13923.1  117.462
 19.9396  14000.6  117.382
 19.9816  13999  117.624
 20.0236  14248.8  118.861
 20.0656  14329.7  119.189
 20.1076  14334  119.701
 20.1496  13995.4  118.26
 20.1916  14056.2  118.045
 20.2336  13834.5  117.033
 20.2756  13480.5  115.956
 20.3176  13383.4  115.288
 20.3596  13188.1  114.431
 20.4016  13323  114.809
 20.4436  13186.6  114.772
 20.4856  13284.9  115.002
 20.5276  13219.1  115.177
 20.5696  13286.5  114.915
 20.6116  13074.5  114.275
 20.6536  12920.7  113.12
 20.6956  12969.8  113.462
 20.7376  12849.2  113.139
 20.7796  12912.9  113.119
 20.8216  12937.3  112.938
 20.8636  13002.9  113.604
 20.9056  12824.4  112.753
 20.9476  12777.4  112.399
 20.9896  12881.2  112.718
 21.0316  12775.9  112.161
 21.0736  12912.6  113.272
 21.1156  12705.7  112.52
 21.1576  12768.2  112.835
 21.1996  12845.9  113.164
 21.2416  12841.8  112.968
 21.2836  12833.7  112.91
 21.3256  12807  112.871
 21.3676  12778.3  112.28
 21.4096  12626.4  111.927
 21.4516  12527.6  111.348
 21.4936  12497.5  111.49
 21.5356  12542.9  111.644
 21.5776  12675.6  112.062
 21.6196  12432.8  111.023
 21.6616  12451  111.186
 21.7036  12461.6  111.008
 21.7456  12519.2  111.345
 21.7876  12495.5  111.004
 21.8296  12418  110.5
 21.8716  12511.7  111.147
 21.9136  12655.5  111.982
 21.9556  12365.7  110.381
 21.9976  12269.5  109.976
 22.0396  12386.9  110.749
 22.0816  12230.3  110.565
 22.1236  12569.6  111.55
 22.1656  12430.7  111.071
 22.2076  12197.7  109.486
 22.2496  12176.2  109.423
 22.2916  12152.2  109.199
 22.3336  12093.6  109.65
 22.3756  12114.5  109.467
 22.4176  11856.4  108.146
 22.4596  11850.2  108.696
 22.5016  12209.2  109.841
 22.5436  12230.8  109.812
 22.5856  12170.2  109.786
 22.6276  12372.4  110.818
 22.6696  12156.1  110.207
 22.7116  12105.9  109.499
 22.7536  12278.3  110.249
 22.7956  12068.7  108.652
 22.8376  12003.6  108.862
 22.8796  12137.3  109.275
 22.9216  12183.3  110.015
 22.9636  12037.8  108.532
 23.0056  12055.1  108.741
 23.0476  12159.2  109.772
 23.0896  12375.7  110.128
 23.1316  12129.5  109.456
 23.1736  12323.2  113.233
 23.2156  12564  111.725
 23.2576  12613.8  112.084
 23.2996  12409.5  110.941
 23.3416  12496.4  111.856
 23.3836  12320.9  110.314
 23.4256  12673.7  112.004
 23.4676  12500.9  110.929
 23.5096  12357  110.937
 23.5516  12304.5  110.015
 23.5936  12421.1  111.437
 23.6356  12535  111.612
 23.6776  12304.7  110.788
 23.7196  12214.5  109.965
 23.7616  12351.8  110.497
 23.8036  12739.7  112.282
 23.8456  12279.3  109.78
 23.8876  12335.9  110.399
 23.9296  12159.8  110.086
 23.9716  12196.5  109.462
 24.0136  12323.7  110.933
 24.0556  12070.2  109.504
 24.0976  12055.6  109.257
 24.1396  11935.8  111.296
 24.1816  12029.7  110.184
 24.2236  11944.7  109.416
 24.2656  11834.2  108.39
 24.3076  11871.8  108.833
 24.3496  11777.3  108.276
 24.3916  11959.2  109.159
 24.4336  11870.2  108.95
 24.4756  11754.6  108.312
 24.5176  11626.5  107.345
 24.5596  11670.3  107.654
 24.6016  11706.1  108.139
 24.6436  11608.5  107.196
 24.6856  11666.8  107.209
 24.7276  11434.3  106.457
 24.7696  11376.1  106.291
 24.8116  11421.2  106.676
 24.8536  11357.5  106.385
 24.8956  11280.3  105.758
 24.9376  11486.5  106.643
 24.9796  11226.5  105.79
 25.0216  11156.9  105.578
 25.0636  11270.6  105.761
 25.1056  11157.5  105.932
 25.1476  10936.6  106.453
 25.1896  11018.7  105.411
 25.2316  10887.5  104.06
 25.2736  10948.2  104.007
 25.3156  11038.2  104.502
 25.3576  10879.3  104.174
 25.3996  10956.8  104.535
 25.4416  10820.5  103.862
 25.4836  10699.3  103.786
 25.5256  10784.5  103.577
 25.5676  10796.4  103.361
 25.6096  10675.6  103.347
 25.6516  10852  103.709
 25.6936  10897.6  104.242
 25.7356  10794.4  103.877
 25.7776  10939.6  104.171
 25.8196  10650.1  103.022
 25.8616  10708.7  103.234
 25.9036  10807.9  103.176
 25.9456  10710.4  103.305
 25.9876  10696.9  103.295
 26.0296  10817.8  103.401
 26.0716  10770.2  103.594
 26.1136  10808.8  103.708
 26.1556  10778.1  102.95
 26.1976  10597.3  103.001
 26.2396  10601.2  102.175
 26.2816  10662.9  103.085
 26.3236  10723.8  103.533
 26.3656  10715.5  103.222
 26.4076  10594.8  102.833
 26.4496  10838.5  103.613
 26.4916  10958.1  104.065
 26.5336  11226.3  105.687
 26.5756  11652.4  107.552
 26.6176  10757.8  103.355
 26.6596  10671.1  103.238
 26.7016  10525.3  102.308
 26.7436  10664.2  103.116
 26.7856  10430  101.962
 26.8276  10475.1  102.144
 26.8696  10492.5  102.096
 26.9116  10427.1  101.718
 26.9536  10386  101.567
 26.9956  10240.4  100.884
 27.0376  10366.5  101.727
 27.0796  10267.4  100.969
 27.1216  10445.3  101.903
 27.1636  10077.6  100.258
 27.2056  10235.8  100.92
 27.2476  10103  100.254
 27.2896  10110  100.412
 27.3316  10080.5  99.9739
 27.3736  10026.1  99.9748
 27.4156  10109.8  100.234
 27.4576  10064.5  100.24
 27.4996  10201.7  100.519
 27.5416  10078.1  100.213
 27.5836  9994.2  99.6297
 27.6256  10146.7  100.574
 27.6676  9978.22  99.7207
 27.7096  10005.2  99.7425
 27.7516  10024.5  99.9806
 27.7936  10172  100.864
 27.8356  10165.5  100.434
 27.8776  10262.1  100.986
 27.9196  10034.7  99.7222
 27.9616  9959.89  99.541
 28.0036  9897.63  99.1857
 28.0456  9863.91  99.1565
 28.0876  9791.37  98.8791
 28.1296  9852.27  99.0231
 28.1716  9896.95  99.2687
 28.2136  9798.24  98.7286
 28.2556  9868.53  99.2004
 28.2976  9728.44  98.4883
 28.3396  9652.49  97.8648
 28.3816  9845.9  98.849
 28.4236  9724.39  98.3913
 28.4656  9650.41  98.0564
 28.5076  9783.06  98.3684
 28.5496  9676.55  98.0805
 28.5916  9754.2  98.2912
 28.6336  9774.48  98.7349
 28.6756  9675.61  97.4426
 28.7176  9717.7  98.2047
 28.7596  9593.75  97.4666
 28.8016  9641.83  97.7479
 28.8436  9463.17  97.0735
 28.8856  9623.54  97.7525
 28.9276  9587.11  97.8097
 28.9696  9594.97  97.5072
 29.0116  9494.16  97.1625
 29.0536  9398.53  96.8924
 29.0956  9525.59  97.2398
 29.1376  9570.25  97.4488
 29.1796  9527.85  97.281
 29.2216  9421.65  96.5766
 29.2636  9513.17  97.1143
 29.3056  9457.19  96.6143
 29.3476  9405.76  96.8787
 29.3896  9527.08  97.6083
 29.4316  9328.6  95.9287
 29.4736  9237.3  95.5128
 29.5156  9254.72  95.5345
 29.5576  9263.5  96.3037
 29.5996  9215.25  95.327
 29.6416  9260.8  95.6786
 29.6836  9208.94  95.3406
 29.7256  9220.4  95.9533
 29.7676  9197.49  95.4981
 29.8096  9146.81  95.1829
 29.8516  9044.39  94.962
 29.8936  9306.31  96.4297
 29.9356  9260.89  95.953
 29.9776  9088.14  95.2039
 30.0196  9123.1  94.7836
 30.0616  9016.82  94.5984
 30.1036  9094.99  94.8368
 30.1456  9134.51  95.2682
 30.1876  9143.26  95.2937
 30.2296  9053.14  94.7685
 30.2716  9311.87  95.76
 30.3136  9145.08  95.7407
 30.3556  9263.17  96.3603
 30.3976  9238.98  97.7161
 30.4396  9655.27  97.2304
 30.4816  9396.15  95.5258
 30.5236  9408.54  95.589
 30.5656  9237.77  95.362
 30.6076  9367.69  95.4552
 30.6496  9277.59  95.395
 30.6916  9187.9  95.0181
 30.7336  9291.2  95.705
 30.7756  9191.83  95.2674
 30.8176  9221.21  95.3553
 30.8596  9304.93  95.5386
 30.9016  9273.16  95.726
 30.9436  9284.77  95.5159
 30.9856  9407.63  96.2866
 31.0276  9191.19  94.8021
 31.0696  9170.79  95.2434
 31.1116  9108.8  94.9002
 31.1536  9100.9  94.7191
 31.1956  9155.87  95.095
 31.2376  8958.86  94.0939
 31.2796  9203.71  94.9208
 31.3216  9348.76  95.5927
 31.3636  9128.14  95.1561
 31.4056  9116.68  96.3857
 31.4476  9159.06  94.5434
 31.4896  9248.49  95.5043
 31.5316  9174.09  94.5299
 31.5736  9114.72  94.0487
 31.6156  9154.97  94.2638
 31.6576  9390.25  95.5434
 31.6996  9216.36  94.3225
 31.7416  9048.29  94.5427
 31.7836  9179.48  94.2293
 31.8256  9177.83  94.4964
 31.8676  9288.92  95.0437
 31.9096  8963.18  93.7362
 31.9516  8830.55  93.2024
 31.9936  8898.17  93.383
 32.0356  9149.75  94.7475
 32.0776  9011.9  93.917
 32.1196  9134.42  94.6643
 32.1616  9177.41  94.3413
 32.2036  9122.45  94.5669
 32.2456  8911.06  93.8327
 32.2876  9070.99  94.1771
 32.3296  8894.79  93.2132
 32.3716  8768.37  92.6584
 32.4136  8763.98  92.836
 32.4556  8899.81  92.944
 32.4976  8878.8  92.7424
 32.5396  8899.56  92.905
 32.5816  8889.34  92.9922
 32.6236  8918.53  93.2027
 32.6656  9031.91  94.3422
 32.7076  8714.55  92.3243
 32.7496  8745.27  92.1556
 32.7916  8861.48  92.729
 32.8336  8785.17  92.4297
 32.8756  8878.88  92.6427
 32.9176  8646.79  91.9058
 32.9596  8667.7  92.0866
 33.0016  8682.43  91.9475
 33.0436  8736.15  92.3857
 33.0856  8692.69  92.257
 33.1276  8564.3  91.3089
 33.1696  8660.04  91.6433
 33.2116  8782.85  92.5326
 33.2536  8858.97  92.9178
 33.2956  8749.32  92.4374
 33.3376  8645  91.625
 33.3796  8757.52  92.4283
 33.4216  8660.35  91.5027
 33.4636  8713.25  91.9474
 33.5056  8664.4  91.9336
 33.5476  8618.25  91.6641
 33.5896  8726.1  92.0325
 33.6316  8598.92  91.6602
 33.6736  8583.87  91.8285
 33.7156  8499.13  91.401
 33.7576  8674.12  91.9855
 33.7996  8629.48  91.5067
 33.8416  8488.77  90.9427
 33.8836  8492.42  90.7443
 33.9256  8635.64  91.5655
 33.9676  8587.46  91.2052
 34.0096  8610.41  91.6404
 34.0516  8437.52  90.3559
 34.0936  8486.61  90.881
 34.1356  8528.18  90.8514
 34.1776  8407.77  90.2019
 34.2196  8454.36  90.6389
 34.2616  8397.35  90.4697
 34.3036  8484.86  91.1822
 34.3456  8415.74  90.5694
 34.3876  8455.79  90.7573
 34.4296  8455.74  90.4502
 34.4716  8468.1  90.6628
 34.5136  8553.3  91.2954
 34.5556  8333.99  90.3864
 34.5976  8473.66  90.9481
 34.6396  8362.69  90.0714
 34.6816  8403.16  90.3911
 34.7236  8458.91  90.4635
 34.7656  8366.35  90.1754
 34.8076  8177.3  89.4796
 34.8496  8296.8  89.98
 34.8916  8524.67  91.0676
 34.9336  8428.02  90.5355
 34.9756  8476.95  90.721
 35.0176  8470.8  91.2104
 35.0596  8533  91.3674
 35.1016  8432.75  90.5856
 35.1436  8662.23  91.4991
 35.1856  8450  90.4943
 35.2276  8349.27  90.1242
 35.2696  8342.72  90.2751
 35.3116  8342.44  90.3762
 35.3536  8226.46  89.4546
 35.3956  8270.94  89.4143
 35.4376  8397.11  90.6563
 35.4796  8293.55  90.137
 35.5216  8290.45  90.08
 35.5636  8049.46  89.4894
 35.6056  8196.68  89.3333
 35.6476  8269.25  89.6333
 35.6896  8224.24  89.4882
 35.7316  8256.9  89.6349
 35.7736  8288.81  89.9945
 35.8156  8253.99  89.7988
 35.8576  8295.86  90.2737
 35.8996  8255.48  90.0197
 35.9416  8271.58  89.6294
 35.9836  8312.47  90.1886
 36.0256  8430.53  90.8401
 36.0676  8327.65  90.0318
 36.1096  8255.32  89.8019
 36.1516  8371.83  90.3107
 36.1936  8259.64  89.5368
 36.2356  8250.76  90.1556
 36.2776  8156.3  89.1137
 36.3196  8182.92  88.9309
 36.3616  8185.6  89.0842
 36.4036  8121.05  88.7958
 36.4456  8312.54  90.0444
 36.4876  8102.06  88.8251
 36.5296  8259.77  89.733
 36.5716  8098.64  89.6164
 36.6136  8082.86  88.3354
 36.6556  7953.36  87.8158
 36.6976  7949.56  88.2841
 36.7396  7918.93  87.8525
 36.7816  7920.77  88.229
 36.8236  7850.32  87.7648
 36.8656  7926.15  88.2467
 36.9076  7800.51  87.4307
 36.9496  7828.63  87.5741
 36.9916  7848.79  87.3263
 37.0336  8011.15  88.5357
 37.0756  7956.65  88.0288
 37.1176  7673.72  86.7129
 37.1596  7922.52  88.1113
 37.2016  7944.79  88.4562
 37.2436  7979.68  87.9725
 37.2856  7775.83  87.0908
 37.3276  7858.54  86.9259
 37.3696  7866.19  87.8391
 37.4116  7800.79  87.3761
 37.4536  7715.04  86.7671
 37.4956  7687.92  86.6571
 37.5376  7912.21  89.4759
 37.5796  7883.05  89.2415
 37.6216  7830.91  87.2425
 37.6636  7982.32  87.9753
 37.7056  7855.62  87.4596
 37.7476  7973.55  87.6659
 37.7896  7892.48  87.7157
 37.8316  7877.61  87.7816
 37.8736  7894.79  87.4079
 37.9156  7953.53  87.7226
 37.9576  7886.64  87.2777
 37.9996  7878.57  86.9501
 38.0416  7786.78  87.2359
 38.0836  8026.24  88.4703
 38.1256  7983.76  88.2082
 38.1676  7660.81  86.5234
 38.2096  7889.54  87.4228
 38.2516  7839.92  87.353
 38.2936  7978.6  87.9295
 38.3356  7860.35  87.2048
 38.3776  7689.27  86.5045
 38.4196  7837.42  87.189
 38.4616  7764.09  87.0212
 38.5036  7893.62  87.5886
 38.5456  7760.15  87.6646
 38.5876  7837.19  88.1087
 38.6296  7770.3  86.7373
 38.6716  7840.13  86.9086
 38.7136  7836.42  86.8528
 38.7556  7800.85  87.159
 38.7976  7881.57  87.5397
 38.8396  7781.18  87.4289
 38.8816  7773.19  87.1807
 38.9236  7786.42  87.0544
 38.9656  7787.71  86.9641
 39.0076  7833.8  86.625
 39.0496  7945.33  87.8066
 39.0916  7879.87  87.0925
 39.1336  7808.76  87.0991
 39.1756  7897.21  87.6434
 39.2176  7619.47  86.6216
 39.2596  7769.92  87.3975
 39.3016  7763.22  86.9553
 39.3436  7660.49  86.7699
 39.3856  7835.51  87.2095
 39.4276  8032.35  88.8143
 39.4696  7797.98  87.1324
 39.5116  7754.7  87.4003
 39.5536  7832.54  88.2469
 39.5956  7869.87  87.5653
 39.6376  7782.66  87.0791
 39.6796  7670.9  86.2068
 39.7216  7734.52  86.6519
 39.7636  7804.91  87.6025
 39.8056  7753.13  87.1071
 39.8476  7636.68  86.7006
 39.8896  7684.39  86.6035
 39.9316  7712.54  87.0111
 39.9736  7845.66  87.3368
 40.0156  7675.13  86.2144
 40.0576  7658.29  86.4607
 40.0996  7870.63  86.8445
 40.1416  7896.94  87.782
 40.1836  7791.64  87.0845
 40.2256  7800.56  87.1685
 40.2676  7725.3  86.8476
 40.3096  7773.56  87.0529
 40.3516  7860.09  87.6456
 40.3936  7898.68  87.4119
 40.4356  7789.81  87.0209
 40.4776  7859.91  87.8111
 40.5196  7761.16  87.3841
 40.5616  7988.29  88.2915
 40.6036  7692.17  86.8918
 40.6456  7825.05  87.2405
 40.6876  7855.48  87.4107
 40.7296  7784.61  87.1456
 40.7716  7850.86  87.6311
 40.8136  7775.67  87.1672
 40.8556  7867.13  87.8136
 40.8976  7773.9  87.2133
 40.9396  7795.13  87.6716
 40.9816  7775.69  86.8655
 41.0236  7758.94  86.5517
 41.0656  7906.63  87.9098
 41.1076  7772.5  86.9373
 41.1496  7851.25  87.2742
 41.1916  7640.68  86.4092
 41.2336  7857.69  87.6257
 41.2756  7881.13  87.3705
 41.3176  7866.23  87.888
 41.3596  7850.09  87.5334
 41.4016  7682.74  86.8545
 41.4436  7838.74  87.5228
 41.4856  7738.59  87.1244
 41.5276  7770.77  87.3245
 41.5696  7735.98  86.7661
 41.6116  7888.86  88.0048
 41.6536  7711.65  86.8622
 41.6956  7821.69  87.5508
 41.7376  7720.76  87.0045
 41.7796  7704.28  86.7979
 41.8216  7784.71  87.4793
 41.8636  7657.41  86.702
 41.9056  7608.07  86.2227
 41.9476  7773.58  87.3876
 41.9896  7902.62  87.7813
 42.0316  7669.99  86.5598
 42.0736  7807.46  87.4338
 42.1156  7719.1  86.7738
 42.1576  7827.92  87.489
 42.1996  7819.9  87.5737
 42.2416  7740.31  86.7165
 42.2836  7713.42  86.6893
 42.3256  7737  86.9183
 42.3676  7890.43  87.5794
 42.4096  7727.33  86.6452
 42.4516  7826.8  87.2809
 42.4936  7653.2  86.374
 42.5356  7656.64  86.5343
 42.5776  7706.27  86.755
 42.6196  7807.36  87.3795
 42.6616  7523.39  85.9379
 42.7036  7733.54  86.5209
 42.7456  7774.18  87.1017
 42.7876  7721.99  86.8927
 42.8296  7818.82  87.2744
 42.8716  7671.98  86.616
 42.9136  7652.19  86.2981
 42.9556  7799.99  87.2543
 42.9976  7726.49  86.8145
 43.0396  7666.28  86.2098
 43.0816  7716.08  86.871
 43.1236  7566.68  86.0713
 43.1656  7621.51  86.2166
 43.2076  7618.49  86.3048
 43.2496  7602.51  86.0362
 43.2916  7599.61  86.3679
 43.3336  7566.65  86.018
 43.3756  7641.3  86.2116
 43.4176  7561.25  85.8326
 43.4596  7576.67  85.777
 43.5016  7599.11  86.3064
 43.5436  7535.52  85.8463
 43.5856  7536.77  85.8855
 43.6276  7527.55  85.7277
 43.6696  7544.87  86.0795
 43.7116  7632.82  86.0778
 43.7536  7618.09  86.4911
 43.7956  7573.42  87.4373
 43.8376  7410.51  85.0403
 43.8796  7458.81  85.3918
 43.9216  7448.19  85.2477
 43.9636  7447.55  85.3505
 44.0056  7471.82  85.7224
 44.0476  7341.89  84.6063
 44.0896  7299.85  84.7042
 44.1316  7476.67  85.2512
 44.1736  7380.42  84.8194
 44.2156  7444.9  85.0523
 44.2576  7418.51  85.2186
 44.2996  7445.2  85.3402
 44.3416  7410.22  84.9012
 44.3836  7268.56  84.4151
 44.4256  7262.25  84.0229
 44.4676  7352.19  84.7006
 44.5096  7343.93  84.795
 44.5516  7374.44  84.9362
 44.5936  7299.68  84.4516
 44.6356  7359.04  84.541
 44.6776  7326.02  84.6654
 44.7196  7419.95  85.5093
 44.7616  7415.42  86.8084
 44.8036  7372.56  84.9913
 44.8456  7609.16  86.5523
 44.8876  7493.96  85.7373
 44.9296  7734.5  86.543
 44.9716  7471.83  85.5019
 45.0136  7517.81  85.6865
 45.0556  7580.26  86.0255
 45.0976  7553.36  86.0314
 45.1396  7487.98  85.398
 45.1816  7405.5  84.8798
 45.2236  7519.39  85.4386
 45.2656  7312.48  84.7413
 45.3076  7376.05  84.8936
 45.3496  7318.51  84.8658
 45.3916  7395.41  85.5826
 45.4336  7464.07  85.8219
 45.4756  7343.54  84.9837
 45.5176  7416.43  85.024
 45.5596  7598.24  86.1684
 45.6016  7356.89  85.216
 45.6436  7337.98  84.2926
 45.6856  7480.1  85.7617
 45.7276  7327.62  86.1912
 45.7696  7357.96  86.0516
 45.8116  7300.55  85.1507
 45.8536  7209.95  84.5238
 45.8956  7409.62  85.0397
 45.9376  7448.89  84.731
 45.9796  7365.16  84.9243
 46.0216  7375.26  85.3157
 46.0636  7531.69  85.3709
 46.1056  7470.98  85.013
 46.1476  7453.06  85.5061
 46.1896  7463.94  85.7215
 46.2316  7334.99  84.8333
 46.2736  7419.11  85.6993
 46.3156  7354.43  84.9064
 46.3576  7382.81  85.2744
 46.3996  7346  85.2241
 46.4416  7377.94  84.9854
 46.4836  7401.47  85.4779
 46.5256  7351.5  85.1245
 46.5676  7356.75  85.2752
 46.6096  7409.37  85.5184
 46.6516  7429.84  84.6604
 46.6936  7313.16  84.494
 46.7356  7523.7  85.7961
 46.7776  7360.2  85.6993
 46.8196  7355.05  85.2669
 46.8616  7139.86  83.9582
 46.9036  7213.28  84.0501
 46.9456  7262.18  83.9756
 46.9876  7293.01  84.2282
 47.0296  7288.51  84.9017
 47.0716  7216.2  84.3021
 47.1136  7187.59  83.8138
 47.1556  7265.15  84.1249
 47.1976  7353.31  84.7312
 47.2396  7227.52  84.3942
 47.2816  7292.24  84.4721
 47.3236  7248.6  84.5764
 47.3656  7338.84  85.0406
 47.4076  7178.41  83.9105
 47.4496  7237.3  84.3481
 47.4916  7200.99  84.3276
 47.5336  7321.39  84.8412
 47.5756  7397.16  85.3992
 47.6176  7195.54  84.1181
 47.6596  7205.14  83.9014
 47.7016  7404.83  84.867
 47.7436  7346.03  84.8681
 47.7856  7358.49  84.9649
 47.8276  7226.54  84.2552
 47.8696  7201.4  84.1886
 47.9116  7257.97  84.2333
 47.9536  7268.5  84.2328
 47.9956  7263.52  84.9193
 48.0376  7190.36  84.2611
 48.0796  7293.2  84.9875
 48.1216  7221.88  84.4
 48.1636  7225.88  83.9964
 48.2056  7223.58  84.2457
 48.2476  7311.47  85.0657
 48.2896  7290.17  84.8495
 48.3316  7280.28  84.7296
 48.3736  7250.17  84.5818
 48.4156  7224.69  84.2801
 48.4576  7222.63  84.5662
 48.4996  7307.27  84.512
 48.5416  7327.7  84.9601
 48.5836  7280.79  84.3591
 48.6256  7260.22  84.443
 48.6676  7168.75  84.426
 48.7096  7217.64  83.9753
 48.7516  7318.82  84.7222
 48.7936  7063.51  83.2923
 48.8356  7217.52  84.2485
 48.8776  7251.19  85.0134
 48.9196  7344.38  84.922
 48.9616  7189.78  84.402
 49.0036  7264.87  85.2064
 49.0456  7186.36  84.7111
 49.0876  7249.73  84.6141
 49.1296  7122.59  84.0375
 49.1716  7037.91  83.4156
 49.2136  7349.17  85.1518
 49.2556  7250.84  84.6227
 49.2976  7223.96  84.532
 49.3396  7055.3  83.5909
 49.3816  7330.02  84.6283
 49.4236  7192.38  84.2569
 49.4656  7084.04  83.642
 49.5076  7184.34  83.9793
 49.5496  7125.42  83.6978
 49.5916  7244.78  84.3147
 49.6336  7222.63  84.3821
 49.6756  7275.72  84.927
 49.7176  7220.83  84.5514
 49.7596  7131.27  83.7938
 49.8016  7133.68  83.7242
 49.8436  7140.95  84.0705
 49.8856  7117.27  83.9325
 49.9276  7144.1  84.1948
 49.9696  7160.64  84.2736
 50.0116  7176.25  84.487
 50.0536  7112.64  84.056
 50.0956  7046.5  83.7531
 50.1376  7093.56  83.7124
 50.1796  7144.36  84.2961
 50.2216  7095.76  84.007
 50.2636  7123.48  83.7795
 50.3056  7123.28  83.957
 50.3476  7092.82  83.7922
 50.3896  7150.83  84.1133
 50.4316  7176.16  84.0931
 50.4736  6971.06  83.0851
 50.5156  7121.46  83.9769
 50.5576  7186.03  84.1215
 50.5996  7089.86  83.8383
 50.6416  7023.81  83.3752
 50.6836  7126.95  84.0433
 50.7256  7076.56  83.6596
 50.7676  7166.07  84.5297
 50.8096  7114.22  83.7483
 50.8516  7141.26  84.3182
 50.8936  7035.7  83.4797
 50.9356  7129.35  84.1421
 50.9776  7116.39  84.2225
 51.0196  6918.8  83.1764
 51.0616  6997.05  82.9629
 51.1036  6984.84  83.2481
 51.1456  7081.24  83.7348
 51.1876  6847.96  81.669
 51.2296  6948.11  82.9188
 51.2716  6930.03  82.5124
 51.3136  6849.84  82.4919
 51.3556  6805.97  81.8444
 51.3976  6832.2  82.158
 51.4396  6714.86  81.7629
 51.4816  6800.63  82.1364
 51.5236  6982.94  83.3192
 51.5656  6808.48  81.8682
 51.6076  6924.93  82.6504
 51.6496  6819.9  82.2081
 51.6916  6794.88  82.421
 51.7336  6886.44  83.0619
 51.7756  6752.92  81.948
 51.8176  6784.56  82.2526
 51.8596  6840.15  82.6036
 51.9016  6896.99  82.5492
 51.9436  6974.98  84.5196
 51.9856  6944.86  84.7568
 52.0276  6952.03  83.2828
 52.0696  6929.04  83.2114
 52.1116  6879.08  83.023
 52.1536  6947.11  83.3239
 52.1956  6874.77  82.3477
 52.2376  6986.34  83.1797
 52.2796  6914.22  82.5746
 52.3216  6743.64  82.2321
 52.3636  7009.42  83.3859
 52.4056  6863.55  82.3824
 52.4476  6686.41  81.6813
 52.4896  6677.09  81.6621
 52.5316  6929.54  83.2548
 52.5736  6808.44  82.2295
 52.6156  6931.28  83.3806
 52.6576  6871.05  82.4386
 52.6996  6719.29  82.5206
 52.7416  6717.27  82.3549
 52.7836  6844.51  83.0266
 52.8256  6903.76  82.588
 52.8676  6765.73  82.3337
 52.9096  6765.9  82.4118
 52.9516  6748.87  82.6953
 52.9936  6744.55  83.0511
 53.0356  6887.26  82.914
 53.0776  6839.39  82.8986
 53.1196  6781.85  82.671
 53.1616  6856.62  83.1765
 53.2036  6782.04  82.6847
 53.2456  6840.1  83.1446
 53.2876  6886.61  83.1113
 53.3296  6878.37  83.3913
 53.3716  6958.54  83.6191
 53.4136  6786.26  82.736
 53.4556  6771.42  82.6705
 53.4976  6768.84  82.4893
 53.5396  6769.44  82.8913
 53.5816  6887.12  83.2498
 53.6236  6779.69  82.9522
 53.6656  6740.77  82.3182
 53.7076  6901  83.234
 53.7496  6793.06  82.7148
 53.7916  6761.36  82.6676
 53.8336  6777.06  82.6491
 53.8756  6703.96  82.7716
 53.9176  6681.49  81.9416
 53.9596  6539.56  81.8366
 54.0016  6576.43  81.3903
 54.0436  6388.29  80.4356
 54.0856  6601.86  81.2047
 54.1276  6587.66  81.3096
 54.1696  6533.55  81.1498
 54.2116  6689.8  81.858
 54.2536  6543.09  80.7468
 54.2956  6533.69  80.7583
 54.3376  6594.61  81.5989
 54.3796  6477.38  80.791
 54.4216  6613.2  81.6932
 54.4636  6497.85  80.9463
 54.5056  6544.57  81.0274
 54.5476  6453.17  80.8036
 54.5896  6581.47  81.4408
 54.6316  6451.92  80.4894
 54.6736  6498.45  80.8532
 54.7156  6530.55  81.0865
 54.7576  6437  80.474
 54.7996  6520.19  81.1497
 54.8416  6483.46  80.9737
 54.8836  6531.84  81.353
 54.9256  6403.79  80.3275
 54.9676  6422.17  80.3001
 55.0096  6440.46  80.4665
 55.0516  6330.66  79.9965
 55.0936  6451.73  80.4343
 55.1356  6299.84  79.5174
 55.1776  6564.44  81.4144
 55.2196  6431.33  80.3589
 55.2616  6522.25  81.1587
 55.3036  6355.35  80.2813
 55.3456  6253.05  79.7638
 55.3876  6372.11  80.2825
 55.4296  6278.31  79.6604
 55.4716  6355.85  80.1815
 55.5136  6280.19  79.4757
 55.5556  6422.42  80.4208
 55.5976  6408  80.4024
 55.6396  6457.22  80.6508
 55.6816  6371.25  79.9639
 55.7236  6315.77  79.6912
 55.7656  6333.95  79.5454
 55.8076  6242.66  78.9663
 55.8496  6342.04  79.9057
 55.8916  6285.52  79.7504
 55.9336  6436.51  80.5342
 55.9756  6316.92  79.675
 56.0176  6213.81  79.1493
 56.0596  6184.67  78.9497
 56.1016  6270.51  79.5287
 56.1436  6258.46  79.71
 56.1856  6173.11  78.9157
 56.2276  6403.85  80.4111
 56.2696  6234.33  79.3293
 56.3116  6408.97  80.8072
 56.3536  6229.33  79.327
 56.3956  6232.55  79.3263
 56.4376  6276.69  79.6532
 56.4796  6131.74  78.5628
 56.5216  6208.11  79.417
 56.5636  6210.26  79.0002
 56.6056  6438.8  80.6978
 56.6476  6181.46  78.6525
 56.6896  6388.41  80.4465
 56.7316  6227.8  79.3192
 56.7736  6185.47  79.0713
 56.8156  6191.11  79.1206
 56.8576  6043.61  78.1136
 56.8996  6134.48  78.5955
 56.9416  6063.35  78.465
 56.9836  6326.15  79.6723
 57.0256  6142.87  78.8131
 57.0676  6231.86  79.4924
 57.1096  6139.28  78.6931
 57.1516  6146.4  78.7939
 57.1936  6159.1  78.6275
 57.2356  6061.37  78.3285
 57.2776  6251  79.5132
 57.3196  6181.67  79.4116
 57.3616  6135.13  78.6199
 57.4036  6133.4  78.6663
 57.4456  6241.14  79.334
 57.4876  6190.43  78.8693
 57.5296  6156.36  78.9774
 57.5716  6061.57  78.3778
 57.6136  5998.45  77.8043
 57.6556  6133.28  78.7838
 57.6976  6169.5  78.8656
 57.7396  6014.66  78.2268
 57.7816  6051.06  78.8225
 57.8236  6041.48  78.5566
 57.8656  6078.16  78.4489
 57.9076  6168.58  79.037
 57.9496  6039.11  78.5746
 57.9916  6040.04  78.0971
 58.0336  6061.05  78.506
 58.0756  6144.46  78.6845
 58.1176  6035.68  77.9812
 58.1596  5979.54  78.1915
 58.2016  5907.15  76.9479
 58.2436  5851.32  76.9875
 58.2856  5778.52  76.427
 58.3276  5892.04  77.5363
 58.3696  5860.62  77.0963
 58.4116  5835.07  76.7925
 58.4536  5874.5  76.941
 58.4956  5690.28  75.8984
 58.5376  5975.75  77.3536
 58.5796  5734.89  76.1861
 58.6216  5923.67  77.2563
 58.6636  5811.58  76.7229
 58.7056  5786.19  76.4166
 58.7476  5688.71  76.199
 58.7896  5746.86  76.2457
 58.8316  5815.29  76.6912
 58.8736  5764.83  76.3716
 58.9156  5809.18  76.7023
 58.9576  5831.98  77.1613
 58.9996  5888.49  76.8077
 59.0416  5889.19  77.1606
 59.0836  5906.14  77.1906
 59.1256  5734.54  76.7497
 59.1676  5837.27  77.7432
 59.2096  5851.24  77.1431
 59.2516  5931.17  77.2531
 59.2936  5945.58  77.6724
 59.3356  5800.2  76.5971
 59.3776  5776.19  76.6036
 59.4196  5739.69  76.2993
 59.4616  5784.64  76.46
 59.5036  5731.56  76.1413
 59.5456  5799.13  76.2899
 59.5876  5890.66  77.0783
 59.6296  5706.15  75.9288
 59.6716  5673.99  75.7707
 59.7136  5933.54  77.4727
 59.7556  5863.65  77.1496
 59.7976  5678.49  75.6717
 59.8396  5749.55  76.0406
 59.8816  5802.17  76.9226
 59.9236  5750.44  76.2309
 59.9656  5721.11  76.2894
 60.0076  5764.14  75.9485
 60.0496  5824.01  76.8342
 60.0916  5876.79  76.6101
 60.1336  5673.84  76.3488
 60.1756  5833.69  78.5806
 60.1996  0.0000000E+00  0.0000000E+00