File: docs/examples/opeando_xrd/IS17_D/Data/IS17_D/17_Db_f00060.xye
# /beamlines/bl04/projects/cycle2025-II/20250340211-lsimonelli/DATA/IS17_D/17_Db_f00060.xye : mythproc.py merge -s 0.006 -l 0.5 -f /beamlines/bl04/inhouse/ff/FlatField/ff_20Nov2024rod8mm60s_17keV.raw -b True -c true -o xye /beamlines/bl04/projects/cycle2025-II/20250340211-lsimonelli/DATA/IS17_D/17_Db_00060.dat
# IsMon = [6779745, 6780162, 6775836]  IsPos = [-1.5000, -2.4884, -3.4988]
# Wave = 0.4962  CalPath /beamlines/bl04/projects/cycle2025-II/20250340211-lsimonelli/DATA/Align/Si_Pos1_25keV_f00001.cal
# Date = 2025-09-24_10:23:15 Dt = 4.8000  Bin = 0.0060  <imon> = 6778581 +/- 1948 (Min/Max) 6775836 / 6780162
# icurr 251.7367  mocoIn 1.7181E-05  mocoOut 0.8068  i15 7.09955e+06  imon 6.77858e+06  i7 4.0000  iEMpd_timer 4.8000  iEMpd_1 3.5339E-08  iEMpd_2 7.9120E-08  iEMpd_3 1.6037E-08  iEMpd_4 4.8044E-08  iEMhp_timer 4.8000  iEMhp_1 4.9198E-06  iEMhp_2 -2.6219E-08  iEMhp_3 -2.5101E-08  iEMhp_4 -2.2846E-08
#      9776
 1.5856  44056.2  215.511
 1.6276  50826.5  227.507
 1.6696  57136.2  240.365
 1.7116  64011.5  254.913
 1.7536  72180.1  269.537
 1.7956  76240.2  277.706
 1.8376  73208.3  272.559
 1.8796  62601.2  250.189
 1.9216  52038.6  229.015
 1.9636  45172.8  213.036
 2.0056  40823.3  201.226
 2.0476  38094.8  196.517
 2.0896  36720.6  191.808
 2.1316  35647.7  188.077
 2.1736  33699.5  184.316
 2.2156  34499.9  184.995
 2.2576  33163.7  182.029
 2.2996  32024.3  179.53
 2.3416  32262  178.757
 2.3836  31437.1  176.565
 2.4256  30347.9  174.045
 2.4676  30350.8  173.806
 2.5096  29734.7  172.09
 2.5516  28366.9  171.929
 2.5936  28646.4  169.313
 2.6356  28107.3  168.429
 2.6776  28071.3  167.21
 2.7196  27597.3  166.276
 2.7616  27548.1  165.918
 2.8036  26940.5  164.246
 2.8456  27041.1  165.201
 2.8876  26423.8  163.162
 2.9296  26070.9  162.205
 2.9716  26137  161.886
 3.0136  25530.4  160.071
 3.0556  25384  159.998
 3.0976  25617.2  159.635
 3.1396  25268.4  159.271
 3.1816  24920.9  158.107
 3.2236  24764.9  157.598
 3.2656  24576.5  156.053
 3.3076  24395.8  156.951
 3.3496  24935.5  157.589
 3.3916  25124  158.003
 3.4336  25450.4  159.62
 3.4756  26010.7  161.305
 3.5176  26372.8  162.188
 3.5596  26154.8  164.574
 3.6016  26650.6  163.131
 3.6436  25496.9  160.673
 3.6856  25255.9  158.205
 3.7276  24345.4  156.409
 3.7696  24128.1  155.699
 3.8116  23747.2  154.563
 3.8536  23885.4  154.948
 3.8956  23766  154.372
 3.9376  23721.8  154.5
 3.9796  23560.9  153.461
 4.0216  23595.6  152.603
 4.0636  23531.7  153.874
 4.1056  23687.9  154.028
 4.1476  23876.9  154.96
 4.1896  24019.2  155.276
 4.2316  24163.9  155.57
 4.2736  24561.2  156.641
 4.3156  24715.7  157.377
 4.3576  25570  159.95
 4.3996  25871.2  161.183
 4.4416  26085.5  161.434
 4.4836  26677.4  163.413
 4.5256  27294  165.902
 4.5676  26782.8  164.602
 4.6096  27532.4  165.905
 4.6516  27912.8  166.369
 4.6936  27860  167.056
 4.7356  28263.5  168.069
 4.7776  28161.6  167.6
 4.8196  27999.8  167.757
 4.8616  27387.6  165.41
 4.9036  27251.5  164.728
 4.9456  26973.1  164.548
 4.9876  26372.6  162.597
 5.0296  26593.3  163.123
 5.0716  26434  163.394
 5.1136  26718.4  163.985
 5.1556  26926  164.074
 5.1976  27502.3  165.811
 5.2396  27329.7  164.98
 5.2816  27577.4  166.197
 5.3236  27403.6  165.374
 5.3656  27104  165.405
 5.4076  26821.2  164.68
 5.4496  26767.2  164.014
 5.4916  27085.7  164.731
 5.5336  26858.3  164.052
 5.5756  26794.5  163.856
 5.6176  26948.9  163.785
 5.6596  27258.4  165.548
 5.7016  27377.7  165.326
 5.7436  27402.3  165.682
 5.7856  27342.1  165.567
 5.8276  27566.6  165.959
 5.8696  28218.6  167.959
 5.9116  27663.3  167.025
 5.9536  28211.5  168.403
 5.9956  28303.7  168.07
 6.0376  28390.2  168.953
 6.0796  28555.9  169.272
 6.1216  28441.6  169.138
 6.1636  28778  169.172
 6.2056  28492.8  169.025
 6.2476  29099.7  170.484
 6.2896  29298.5  170.94
 6.3316  29324.4  171.184
 6.3736  29061.5  170.308
 6.4156  28999.9  170.074
 6.4576  29378.5  170.742
 6.4996  29393.8  171.272
 6.5416  29450.6  171.555
 6.5836  29392.5  171.634
 6.6256  29620.1  171.848
 6.6676  30230.9  173.18
 6.7096  30116.6  173.708
 6.7516  30448.9  174.318
 6.7936  30628  174.232
 6.8356  30679  174.475
 6.8776  30888  175.884
 6.9196  30912.6  176.35
 6.9616  31267.1  176.794
 7.0036  31826.9  178.028
 7.0456  31801.2  177.25
 7.0876  32160.1  179.856
 7.1296  31767.1  177.985
 7.1716  31866.3  177.797
 7.2136  31609.9  176.856
 7.2556  31916.5  177.869
 7.2976  31828.6  178.128
 7.3396  31612.1  177.738
 7.3816  31791.8  178.46
 7.4236  32080.4  178.554
 7.4656  32221.6  178.41
 7.5076  32464.1  179.235
 7.5496  32221.8  179.112
 7.5916  32355.5  179.519
 7.6336  32735.5  180.455
 7.6756  33016.6  181.081
 7.7176  33470.4  182.636
 7.7596  33004.6  182.602
 7.8016  33911.3  187.329
 7.8436  33296.5  182.3
 7.8856  33848.7  183.415
 7.9276  34367.3  185.225
 7.9696  34158.6  184.96
 8.0116  35569.7  187.28
 8.0536  35505.1  187.36
 8.0956  35553.8  188.659
 8.1376  36114.9  189.621
 8.1796  36382.9  190.848
 8.2216  36797.3  190.69
 8.2636  37056.5  191.608
 8.3056  36965.9  192.151
 8.3476  37589.3  193.078
 8.3896  37177.6  192.107
 8.4316  37396.1  192.833
 8.4736  37355.7  192.2
 8.5156  37417.5  192.635
 8.5576  36993.4  192.491
 8.5996  36919.5  191.195
 8.6416  36854.2  192.273
 8.6836  36627.2  191.531
 8.7256  37007.5  191.951
 8.7676  36932.9  194.692
 8.8096  37477  193.399
 8.8516  37377.3  192.756
 8.8936  36997.7  191.68
 8.9356  37173.4  192.457
 8.9776  37044.2  192.216
 9.0196  37228.3  192.351
 9.0616  36819.8  190.8
 9.1036  36287.5  190.59
 9.1456  36162.3  189.6
 9.1876  36693.4  190.918
 9.2296  35936.2  188.385
 9.2716  36103.1  188.855
 9.3136  35973.4  188.508
 9.3556  36037.6  188.653
 9.3976  35216.1  186.995
 9.4396  34976.2  186.271
 9.4816  35030.2  186.265
 9.5236  34681.7  185.251
 9.5656  34335.1  184.675
 9.6076  33774.5  183.693
 9.6496  33997.7  184.168
 9.6916  33775.8  183.535
 9.7336  33996.5  183.927
 9.7756  33806.9  184.526
 9.8176  33699.8  183.85
 9.8596  33572.5  181.936
 9.9016  33157.8  180.792
 9.9436  32326.2  178.263
 9.9856  32410.8  178.937
 10.0276  32267.2  179.627
 10.0696  32524.3  179.357
 10.1116  31392.4  176.482
 10.1536  31664.9  176.905
 10.1956  31079.7  175.37
 10.2376  30987.4  174.61
 10.2796  30610.7  173.658
 10.3216  30453.5  173.35
 10.3636  30528.4  173.742
 10.4056  29662.7  171.662
 10.4476  30145.7  172.662
 10.4896  30118.3  172.018
 10.5316  29822.2  171.566
 10.5736  29334.8  170.917
 10.6156  29253.4  170.428
 10.6576  29261  169.009
 10.6996  28769.9  168.288
 10.7416  28418.5  167.476
 10.7836  27958.2  166.793
 10.8256  27749.7  166.605
 10.8676  27660.3  165.875
 10.9096  27497.4  165.428
 10.9516  27111.4  163.201
 10.9936  27391.8  164.253
 11.0356  27002  163.687
 11.0776  27073.4  163.236
 11.1196  26210.5  161.371
 11.1616  26316.3  161.366
 11.2036  26341.2  161.295
 11.2456  26243.2  161.694
 11.2876  26488.7  162.172
 11.3296  26115.7  160.951
 11.3716  26380.8  161.502
 11.4136  26676.4  163.249
 11.4556  26813.9  163.331
 11.4976  27629.6  164.757
 11.5396  27287  163.903
 11.5816  26730.3  162.644
 11.6236  26066.4  160.86
 11.6656  26149  160.266
 11.7076  25566  159.301
 11.7496  25288.2  162.444
 11.7916  25135.2  157.213
 11.8336  24738.4  156.859
 11.8756  24710.4  156.321
 11.9176  24719.6  156.016
 11.9596  24717.3  156.179
 12.0016  24638.3  156.708
 12.0436  24564.1  155.922
 12.0856  24122.1  155.016
 12.1276  24212.1  155.248
 12.1696  24112.6  154.051
 12.2116  24264.8  154.533
 12.2536  24209.8  155.147
 12.2956  23946.7  153.681
 12.3376  24190.5  154.664
 12.3796  24147.4  155.005
 12.4216  24175.7  154.296
 12.4636  23844.4  154.167
 12.5056  24004.4  153.948
 12.5476  24183.1  154.037
 12.5896  23784.7  153.406
 12.6316  23996.4  154.23
 12.6736  23884.6  154.361
 12.7156  23981.4  154.513
 12.7576  23959.2  154.696
 12.7996  23974.6  153.395
 12.8416  23835.8  154
 12.8836  24234.6  155.111
 12.9256  24538  155.104
 12.9676  24328.9  154.84
 13.0096  24580.8  156.765
 13.0516  24588.6  155.817
 13.0936  24690.7  156.267
 13.1356  24887.8  156.13
 13.1776  24371  155.518
 13.2196  24499.3  155.564
 13.2616  24278.1  155.183
 13.3036  24584.9  156.285
 13.3456  24292.5  155.54
 13.3876  24711.9  156.142
 13.4296  24354  155.178
 13.4716  24807.3  156.235
 13.5136  24553.1  155.554
 13.5556  24459.3  155.894
 13.5976  24671.6  156.746
 13.6396  24553.8  155.729
 13.6816  24740.2  156.661
 13.7236  25242.8  157.939
 13.7656  26520.3  162.372
 13.8076  27340.6  163.491
 13.8496  25997.1  160.265
 13.8916  24719.3  157.23
 13.9336  24046.2  154.359
 13.9756  24185.5  154.186
 14.0176  23894.6  153.939
 14.0596  23763.3  153.439
 14.1016  23870.3  154.215
 14.1436  23976.5  153.67
 14.1856  23336.8  151.91
 14.2276  23112.4  151.653
 14.2696  23085.2  151.425
 14.3116  22612.2  149.774
 14.3536  22338.4  149.027
 14.3956  22454.1  149.13
 14.4376  22614.1  149.451
 14.4796  22589.1  149.367
 14.5216  22129.2  148.621
 14.5636  21973.5  147.67
 14.6056  22376.1  148.581
 14.6476  22188.1  147.192
 14.6896  21701.5  146.114
 14.7316  21280.1  145.719
 14.7736  21190.6  144.548
 14.8156  21019  143.989
 14.8576  21011.8  143.832
 14.8996  20589.1  143.567
 14.9416  20345.4  142.726
 14.9836  20382.6  142.845
 15.0256  19817.8  139.773
 15.0676  19672.8  139.57
 15.1096  19762.3  139.625
 15.1516  19358  138.734
 15.1936  19246.6  137.776
 15.2356  18921.5  136.883
 15.2776  18979.5  136.686
 15.3196  18686.9  136.614
 15.3616  18633.8  136.187
 15.4036  18487.1  135.505
 15.4456  18825.9  136.391
 15.4876  18384  134.466
 15.5296  18224.1  134.157
 15.5716  17949.2  132.754
 15.6136  17896.9  132.877
 15.6556  18019.5  132.585
 15.6976  17939.9  132.578
 15.7396  17741  132.235
 15.7816  17874.8  132.244
 15.8236  17343.2  130.95
 15.8656  17582.6  131.643
 15.9076  17323.6  130.494
 15.9496  17965.4  135.702
 15.9916  17804.7  135.512
 16.0336  17778.8  132.265
 16.0756  17483.9  131.492
 16.1176  17342.8  130.882
 16.1596  16905.8  130.546
 16.2016  17105.2  130.082
 16.2436  17121.4  130.508
 16.2856  16929.2  129.283
 16.3276  16707.1  128.885
 16.3696  16813  129.108
 16.4116  16880.7  129.831
 16.4536  16838.8  129.465
 16.4956  16920.2  129.507
 16.5376  16728.3  128.965
 16.5796  16658.5  128.061
 16.6216  16808.6  128.903
 16.6636  16436.1  127.666
 16.7056  16785.4  128.869
 16.7476  16635.1  127.815
 16.7896  16595.1  128.414
 16.8316  16577.7  128.324
 16.8736  16744.5  129.216
 16.9156  16369.8  128.089
 16.9576  16407.7  129.031
 16.9996  16233.9  128.808
 17.0416  16432.8  127.971
 17.0836  16524.5  128.087
 17.1256  16193.3  126.801
 17.1676  16150.4  126.596
 17.2096  16110.2  126.343
 17.2516  16142.2  126.547
 17.2936  15911.1  125.69
 17.3356  15952.1  125.842
 17.3776  15790.1  125.383
 17.4196  15558  124.163
 17.4616  15536.7  123.981
 17.5036  15308.4  123.441
 17.5456  15279.8  123.96
 17.5876  15360.8  123.326
 17.6296  15612.8  124.144
 17.6716  15370.1  123.776
 17.7136  15310.7  123.671
 17.7556  15270.9  123.799
 17.7976  15149  123.041
 17.8396  14977.7  121.845
 17.8816  14959.3  122.335
 17.9236  14941.6  122.054
 17.9656  14708.1  121.627
 18.0076  14847.2  121.792
 18.0496  14720.5  120.414
 18.0916  14806.1  121.307
 18.1336  14733.3  121.107
 18.1756  14787.5  120.88
 18.2176  14495.3  119.887
 18.2596  14530  119.759
 18.3016  14822.8  121.226
 18.3436  14668.1  120.595
 18.3856  14679.9  120.771
 18.4276  14508.8  119.759
 18.4696  14381.6  119.322
 18.5116  14490  120.026
 18.5536  14406  120.053
 18.5956  14366.4  119.447
 18.6376  14321  119.652
 18.6796  14312.7  118.954
 18.7216  14370.3  119.668
 18.7636  14433.9  119.939
 18.8056  14204  118.909
 18.8476  13937.9  118.422
 18.8896  14238.8  119.01
 18.9316  14218.4  118.923
 18.9736  14232.8  118.673
 19.0156  14071.7  118.412
 19.0576  14255.2  118.023
 19.0996  14254.8  118.747
 19.1416  14081  118.412
 19.1836  14009.3  117.709
 19.2256  13859.8  117.308
 19.2676  14040.7  118.154
 19.3096  13882.9  117.738
 19.3516  14067.2  118.28
 19.3936  13843.8  117.419
 19.4356  14217.1  118.878
 19.4776  13840.8  117.379
 19.5196  14021.4  117.998
 19.5616  13991.3  118.132
 19.6036  13957.6  117.493
 19.6456  13964.9  117.63
 19.6876  13963  117.259
 19.7296  14167.8  118.578
 19.7716  14028.9  118.167
 19.8136  14466.4  120.196
 19.8556  14395.3  119.387
 19.8976  14549.7  120.079
 19.9396  14743.8  120.458
 19.9816  14712.8  120.591
 20.0236  14870  121.424
 20.0656  14593.7  120.301
 20.1076  14324.4  119.655
 20.1496  14026.3  118.399
 20.1916  14069.8  118.062
 20.2336  13806.5  116.907
 20.2756  13663.8  116.739
 20.3176  13598.9  116.215
 20.3596  13554.5  116.012
 20.4016  13449  115.354
 20.4436  13496.7  116.123
 20.4856  13559.6  116.182
 20.5276  13440.6  116.138
 20.5696  13358.8  115.338
 20.6116  13351.5  115.473
 20.6536  13341.2  114.948
 20.6956  13221.2  114.552
 20.7376  13137.9  114.411
 20.7796  13269.6  114.668
 20.8216  13323.5  114.612
 20.8636  13288.8  114.838
 20.9056  13113.8  114.023
 20.9476  13113.2  113.864
 20.9896  13241  114.287
 21.0316  13258.6  114.257
 21.0736  13226.5  114.643
 21.1156  12994.2  113.793
 21.1576  13152.8  114.524
 21.1996  13110.2  114.325
 21.2416  13169  114.402
 21.2836  13063.1  113.915
 21.3256  12993.9  113.688
 21.3676  13121.2  113.781
 21.4096  12914.8  113.258
 21.4516  12790.2  112.537
 21.4936  12636  112.106
 21.5356  12886.6  113.166
 21.5776  12901.2  113.064
 21.6196  12797.8  112.648
 21.6616  12822.7  112.838
 21.7036  12828.4  112.629
 21.7456  12931.2  113.162
 21.7876  12693.5  111.877
 21.8296  12757.4  112.009
 21.8716  12775.8  112.308
 21.9136  12987.2  113.447
 21.9556  12838.2  112.464
 21.9976  12541.6  111.189
 22.0396  12641.5  111.886
 22.0816  12571  112.105
 22.1236  12778.9  112.471
 22.1656  12749  112.494
 22.2076  12510.1  110.896
 22.2496  12477.9  110.777
 22.2916  12445.8  110.529
 22.3336  12407.2  111.065
 22.3756  12292.5  110.278
 22.4176  12274.8  110.054
 22.4596  12042.1  109.591
 22.5016  12398.1  110.703
 22.5436  12455.3  110.836
 22.5856  12567.2  111.574
 22.6276  12735.4  112.445
 22.6696  12479.1  111.668
 22.7116  12318.1  110.454
 22.7536  12404.1  110.824
 22.7956  12490.1  110.535
 22.8376  12245.3  109.974
 22.8796  12275.9  109.909
 22.9216  12520.6  111.55
 22.9636  12360.1  109.986
 23.0056  12329.9  109.981
 23.0476  12574.9  111.641
 23.0896  12715  111.638
 23.1316  12631.2  111.708
 23.1736  12514.4  114.114
 23.2156  12541.4  111.648
 23.2576  12786.9  112.85
 23.2996  12585.9  111.752
 23.3416  12840.9  113.395
 23.3836  12640.1  111.743
 23.4256  12920.9  113.089
 23.4676  12662.2  111.646
 23.5096  12614.5  112.102
 23.5516  12500.2  110.887
 23.5936  12750.1  112.913
 23.6356  12753.4  112.589
 23.6776  12550.7  111.907
 23.7196  12656.2  112.154
 23.7616  12506.2  111.204
 23.8036  12730.4  112.238
 23.8456  12489.7  110.729
 23.8876  12538.1  111.298
 23.9296  12424.8  111.293
 23.9716  12456  110.63
 24.0136  12585.2  112.113
 24.0556  12180.2  110.011
 24.0976  12275.4  110.258
 24.1396  12053.7  111.867
 24.1816  12288.4  111.349
 24.2236  12247.8  110.784
 24.2656  12060.8  109.407
 24.3076  12202.3  110.317
 24.3496  12151.9  109.961
 24.3916  12072.9  109.658
 24.4336  12197  110.427
 24.4756  12100.8  109.874
 24.5176  11933.5  108.746
 24.5596  12041.5  109.56
 24.6016  11906.3  109.029
 24.6436  11954.6  108.761
 24.6856  11819.3  107.887
 24.7276  11811.3  108.178
 24.7696  11641.7  107.505
 24.8116  11617.9  107.572
 24.8536  11587.6  107.436
 24.8956  11553.4  107.002
 24.9376  11542.9  107.131
 24.9796  11466.6  106.899
 25.0216  11458  106.976
 25.0636  11437.6  106.528
 25.1056  11187.3  106.053
 25.1476  11258.9  108.019
 25.1896  11242.1  106.468
 25.2316  11198  105.543
 25.2736  11269.7  105.52
 25.3156  11217.9  105.355
 25.3576  11150.6  105.473
 25.3996  11195.8  105.675
 25.4416  11087.5  105.133
 25.4836  10976.1  105.125
 25.5256  11095.9  105.057
 25.5676  11116.4  104.876
 25.6096  10995.8  104.877
 25.6516  11008.6  104.447
 25.6936  11139  105.386
 25.7356  10945  104.599
 25.7776  11056.9  104.813
 25.8196  10876  104.111
 25.8616  10965.2  104.472
 25.9036  10899.6  103.609
 25.9456  10897.4  104.195
 25.9876  11057.5  104.877
 26.0296  11152.5  104.979
 26.0716  10925.7  104.337
 26.1136  10993.4  104.591
 26.1556  10965.6  103.848
 26.1976  10792.7  103.947
 26.2396  10881.8  103.532
 26.2816  10958.5  104.496
 26.3236  10976.7  104.742
 26.3656  11038.8  104.761
 26.4076  10845  104.045
 26.4496  11039.5  104.566
 26.4916  11259.5  105.488
 26.5336  11503.2  106.981
 26.5756  11525.2  106.963
 26.6176  10979.6  104.418
 26.6596  10945  104.569
 26.7016  10752.6  103.394
 26.7436  10765.9  103.587
 26.7856  10647  103.015
 26.8276  10612.6  102.813
 26.8696  10786.7  103.52
 26.9116  10665.5  102.872
 26.9536  10573.3  102.479
 26.9956  10425.8  101.798
 27.0376  10582.7  102.778
 27.0796  10560.6  102.394
 27.1216  10575  102.515
 27.1636  10459.6  102.14
 27.2056  10472.4  102.081
 27.2476  10465  102.023
 27.2896  10413  101.906
 27.3316  10377.3  101.448
 27.3736  10271.1  101.198
 27.4156  10375.1  101.533
 27.4576  10229.7  101.05
 27.4996  10375.2  101.372
 27.5416  10249  101.057
 27.5836  10282.2  101.062
 27.6256  10281.6  101.242
 27.6676  10214.6  100.905
 27.7096  10308.1  101.238
 27.7516  10242.8  101.071
 27.7936  10519.1  102.56
 27.8356  10524.9  102.201
 27.8776  10408.4  101.694
 27.9196  10156.7  100.322
 27.9616  10268.7  101.074
 28.0036  10151.2  100.447
 28.0456  10122.6  100.453
 28.0876  10158.3  100.715
 28.1296  10046.8  99.995
 28.1716  10209.3  100.819
 28.2136  10159.6  100.541
 28.2556  10025.9  99.9875
 28.2976  10168.2  100.692
 28.3396  9898.59  99.1158
 28.3816  10061.2  99.9245
 28.4236  9971.9  99.6337
 28.4656  9945.35  99.5447
 28.5076  9992.97  99.4235
 28.5496  9911.51  99.2649
 28.5916  10033.5  99.6896
 28.6336  9970.44  99.7128
 28.6756  9998.68  99.0591
 28.7176  9942.9  99.3349
 28.7596  9852.58  98.7699
 28.8016  9954.72  99.3221
 28.8436  9727.41  98.4233
 28.8856  9787.12  98.5812
 28.9276  9795.56  98.8633
 28.9696  9739.47  98.2366
 29.0116  9745.58  98.4589
 29.0536  9636.61  98.1114
 29.0956  9751.66  98.3938
 29.1376  9706.45  98.1402
 29.1796  9665.57  97.974
 29.2216  9636.37  97.6749
 29.2636  9732.39  98.2278
 29.3056  9689.93  97.806
 29.3476  9646.36  98.1031
 29.3896  9626.76  98.1286
 29.4316  9482.17  96.7212
 29.4736  9598.62  97.382
 29.5156  9540.78  97.0082
 29.5576  9345.44  96.7319
 29.5996  9349.93  96.0289
 29.6416  9425.62  96.5311
 29.6836  9450.94  96.5945
 29.7256  9381.74  96.7985
 29.7676  9442.72  96.783
 29.8096  9387.77  96.4385
 29.8516  9252.24  96.0742
 29.8936  9448.79  97.1751
 29.9356  9376.88  96.558
 29.9776  9263.49  96.1276
 30.0196  9284.33  95.6229
 30.0616  9249.86  95.8221
 30.1036  9351.47  96.1689
 30.1456  9313.96  96.2163
 30.1876  9263.73  95.9264
 30.2296  9265.98  95.8981
 30.2716  9361  96.021
 30.3136  9416.77  97.1627
 30.3556  9586.59  98.0292
 30.3976  9439.06  98.7701
 30.4396  9914.12  98.527
 30.4816  9562.4  96.3742
 30.5236  9627.78  96.7014
 30.5656  9577.74  97.1177
 30.6076  9471.56  96.34
 30.6496  9588.54  96.997
 30.6916  9280.39  95.5206
 30.7336  9444.65  96.495
 30.7756  9503.14  96.8727
 30.8176  9555.23  97.0691
 30.8596  9440.44  96.2586
 30.9016  9576.43  96.7998
 30.9436  9476.19  96.5201
 30.9856  9568.2  97.104
 31.0276  9377.68  95.7629
 31.0696  9319.03  96.0195
 31.1116  9507.08  96.955
 31.1536  9281.65  95.6781
 31.1956  9459.76  96.6817
 31.2376  9260.18  95.689
 31.2796  9240.4  95.1184
 31.3216  9404.27  95.8924
 31.3636  9339.83  96.2533
 31.4056  9307.92  97.4095
 31.4476  9491.27  96.2281
 31.4896  9248.6  95.4866
 31.5316  9247.24  94.8892
 31.5736  9470.93  95.8594
 31.6156  9318.43  95.0885
 31.6576  9446.21  95.8131
 31.6996  9451.41  95.5036
 31.7416  9356.86  95.9819
 31.7836  9453.39  95.6168
 31.8256  9296.8  95.0834
 31.8676  9448.99  95.84
 31.9096  9143.07  94.5062
 31.9516  9171.57  94.9651
 31.9936  9029.56  94.0499
 32.0356  9271.9  95.359
 32.0776  9421.12  96.0174
 32.1196  9351.81  95.6821
 32.1616  9248.36  94.677
 32.2036  9319.24  95.5597
 32.2456  9253.84  95.6061
 32.2876  9279.85  95.2399
 32.3296  9182.39  94.6988
 32.3716  8951.46  93.6248
 32.4136  8959.01  93.8713
 32.4556  9127.01  94.1167
 32.4976  9160  94.2494
 32.5396  9024.05  93.5584
 32.5816  9070  93.9247
 32.6236  9069.29  93.9839
 32.6656  9218.92  95.3094
 32.7076  8878.44  93.1915
 32.7496  8945.36  93.2095
 32.7916  9100.67  93.9789
 32.8336  9022.93  93.6689
 32.8756  9108.49  93.8377
 32.9176  8880  93.1369
 32.9596  8959.22  93.6233
 33.0016  8914.96  93.1538
 33.0436  8861.9  93.0651
 33.0856  9105.1  94.4218
 33.1276  8836.72  92.7463
 33.1696  8890.2  92.8601
 33.2116  8896.72  93.1309
 33.2536  9072.07  94.0213
 33.2956  8936.54  93.4188
 33.3376  8819.54  92.6371
 33.3796  8901.31  93.1917
 33.4216  8958.25  93.0787
 33.4636  8928.07  93.0755
 33.5056  8832.89  92.8176
 33.5476  8855.42  92.9179
 33.5896  8940.47  93.154
 33.6316  8866.22  93.0685
 33.6736  8736.95  92.6452
 33.7156  8729.75  92.6342
 33.7576  8907.83  93.2178
 33.7996  8789.14  92.3586
 33.8416  8624.66  91.6695
 33.8836  8660.11  91.637
 33.9256  8848.15  92.6816
 33.9676  8920.48  92.9425
 34.0096  8710.2  92.1631
 34.0516  8575.85  91.0898
 34.0936  8656.49  91.7936
 34.1356  8779.64  92.179
 34.1776  8644.13  91.4635
 34.2196  8588.79  91.3498
 34.2616  8505.63  91.044
 34.3036  8762.71  92.6566
 34.3456  8676.78  91.9571
 34.3876  8805.42  92.6979
 34.4296  8596.88  91.1988
 34.4716  8760.28  92.2102
 34.5136  8609.79  91.6055
 34.5556  8525.81  91.4181
 34.5976  8792.33  92.6683
 34.6396  8509.31  90.8574
 34.6816  8693.13  91.9268
 34.7236  8663.34  91.5646
 34.7656  8603.02  91.4446
 34.8076  8564.07  91.5684
 34.8496  8471.28  90.9196
 34.8916  8612.77  91.5464
 34.9336  8568.47  91.2912
 34.9756  8688.94  91.8701
 35.0176  8597.85  91.8957
 35.0596  8639.09  91.9333
 35.1016  8613.07  91.5542
 35.1436  8836.24  92.4178
 35.1856  8607.61  91.3315
 35.2276  8536.84  91.1375
 35.2696  8527.69  91.2807
 35.3116  8434.08  90.8758
 35.3536  8541.58  91.1834
 35.3956  8443  90.3456
 35.4376  8538.28  91.4129
 35.4796  8466.11  91.0609
 35.5216  8402.57  90.6949
 35.5636  8279.36  90.7602
 35.6056  8356.87  90.2086
 35.6476  8595.42  91.3817
 35.6896  8448.84  90.6912
 35.7316  8315.93  89.9541
 35.7736  8431.15  90.7613
 35.8156  8471.02  90.9793
 35.8576  8401.29  90.856
 35.8996  8455.31  91.1154
 35.9416  8395.36  90.2952
 35.9836  8367.93  90.6004
 36.0256  8594.42  91.7142
 36.0676  8499.08  90.9694
 36.1096  8424.01  90.7094
 36.1516  8525.99  91.1385
 36.1936  8473.88  90.7072
 36.2356  8335.68  90.6226
 36.2776  8377.3  90.3086
 36.3196  8462.45  90.4439
 36.3616  8433.77  90.4194
 36.4036  8449.77  90.5729
 36.4456  8427.29  90.6575
 36.4876  8159.25  89.1512
 36.5296  8373.82  90.3528
 36.5716  8311.49  90.7911
 36.6136  8322.59  89.6425
 36.6556  8253.85  89.476
 36.6976  8051.53  88.8586
 36.7396  8096.18  88.8347
 36.7816  7999.01  88.6731
 36.8236  8121.84  89.2702
 36.8656  8105.54  89.2423
 36.9076  8056.38  88.8576
 36.9496  8032.83  88.7283
 36.9916  8019.4  88.2792
 37.0336  8217.47  89.6829
 37.0756  8125.83  88.9717
 37.1176  8016.62  88.6381
 37.1596  8096.65  89.0822
 37.2016  7982.93  88.6811
 37.2436  8110.64  88.7002
 37.2856  8036.45  88.5418
 37.3276  7932.37  87.342
 37.3696  8044.65  88.829
 37.4116  8004.89  88.5272
 37.4536  7921.57  87.928
 37.4956  7935  88.0514
 37.5376  8186.95  91.0266
 37.5796  8207.2  91.06
 37.6216  7986.88  88.1177
 37.6636  8151.36  88.9048
 37.7056  8357.93  90.2206
 37.7476  8165.25  88.7121
 37.7896  7997.93  88.3155
 37.8316  8043.3  88.6983
 37.8736  8152.5  88.842
 37.9156  8088.25  88.4795
 37.9576  8164.1  88.8079
 37.9996  8033.6  87.807
 38.0416  8058.3  88.7448
 38.0836  8151.67  89.163
 38.1256  8064.97  88.6625
 38.1676  7995.05  88.3988
 38.2096  8098.75  88.5807
 38.2516  8006.28  88.2923
 38.2936  8139.25  88.8094
 38.3356  8030.94  88.1602
 38.3776  7858.84  87.4526
 38.4196  8092.61  88.6085
 38.4616  8006.22  88.3733
 38.5036  8158.77  89.053
 38.5456  7908.97  88.5001
 38.5876  7993.36  88.983
 38.6296  8181.43  88.9813
 38.6716  7999.72  87.7887
 38.7136  8015.3  87.817
 38.7556  7943.17  87.9324
 38.7976  8050.19  88.4467
 38.8396  8042.84  88.8672
 38.8816  7914.53  87.955
 38.9236  7905.4  87.6988
 38.9656  8034.87  88.3237
 39.0076  7927.86  87.1366
 39.0496  8159.5  88.9658
 39.0916  8121.71  88.4023
 39.1336  7985.44  88.0683
 39.1756  7886.53  87.5808
 39.2176  7869.39  88.0227
 39.2596  7928.55  88.2629
 39.3016  7946.66  87.9552
 39.3436  7823.82  87.6785
 39.3856  7972.69  87.9545
 39.4276  8126.63  89.3184
 39.4696  8068.31  88.6122
 39.5116  8016.87  88.8466
 39.5536  8042.08  89.4231
 39.5956  8014.86  88.3616
 39.6376  7986.03  88.2085
 39.6796  7872.35  87.3207
 39.7216  7932.39  87.764
 39.7636  7974.81  88.5468
 39.8056  7983.2  88.3872
 39.8476  7887.21  88.1122
 39.8896  8005.76  88.3962
 39.9316  7848.78  87.7757
 39.9736  7926.79  87.7849
 40.0156  7865.32  87.2765
 40.0576  7937.11  88.024
 40.0996  7977.21  87.4333
 40.1416  7956.99  88.1147
 40.1836  7964.57  88.0499
 40.2256  8041.54  88.5043
 40.2676  7859.32  87.6781
 40.3096  7963.35  88.1177
 40.3516  8050.83  88.6993
 40.3936  8004.4  87.9988
 40.4356  7907.64  87.6682
 40.4776  8082.19  88.8705
 40.5196  7957.22  88.4794
 40.5616  8076.26  88.7764
 40.6036  7934.87  88.252
 40.6456  7899.22  87.6649
 40.6876  8039.78  88.43
 40.7296  7934.97  87.9825
 40.7716  7926.32  88.0633
 40.8136  7917.71  87.9577
 40.8556  8026.36  88.6889
 40.8976  7976.55  88.3419
 40.9396  7988.73  88.7518
 40.9816  7958.24  87.8755
 41.0236  7994.56  87.8648
 41.0656  8087.68  88.9145
 41.1076  7957.35  87.9667
 41.1496  8066.92  88.4713
 41.1916  8005.42  88.4503
 41.2336  8065.37  88.7785
 41.2756  7956.38  87.7872
 41.3176  8014.33  88.7122
 41.3596  7932.47  87.9997
 41.4016  7926.28  88.233
 41.4436  7968.47  88.2408
 41.4856  7962.85  88.3833
 41.5276  7975  88.4612
 41.5696  7885.94  87.5989
 41.6116  8010.7  88.6842
 41.6536  7987.14  88.3981
 41.6956  8064.76  88.8192
 41.7376  7957.44  88.3312
 41.7796  7829.96  87.5091
 41.8216  7975.94  88.5472
 41.8636  7930.85  88.2442
 41.9056  7846.54  87.5683
 41.9476  7957.86  88.4123
 41.9896  8025.72  88.4569
 42.0316  8020.36  88.5162
 42.0736  7967.97  88.3612
 42.1156  7910.02  87.8455
 42.1576  7900.36  87.8942
 42.1996  8024.23  88.7078
 42.2416  7969.55  87.9915
 42.2836  7874.36  87.5831
 42.3256  7879.03  87.7218
 42.3676  8030.41  88.3606
 42.4096  8031.77  88.3363
 42.4516  7980.55  88.1288
 42.4936  7941.45  87.9855
 42.5356  7868.63  87.7272
 42.5776  7940.16  88.061
 42.6196  7998.11  88.4337
 42.6616  7599.31  86.3767
 42.7036  7950.59  87.7165
 42.7456  7916.08  87.8929
 42.7876  7924.43  88.0306
 42.8296  7907.55  87.7739
 42.8716  7730.57  86.9534
 42.9136  7707.95  86.575
 42.9556  7920.75  87.9318
 42.9976  7975.32  88.2002
 43.0396  7745.37  86.6515
 43.0816  7846.47  87.6015
 43.1236  7797.7  87.3784
 43.1656  7734.86  86.8399
 43.2076  7740.04  86.9847
 43.2496  7771.4  86.9873
 43.2916  7827.21  87.66
 43.3336  7904.18  87.9207
 43.3756  7847.18  87.3563
 43.4176  7651.73  86.3485
 43.4596  7765.68  86.8331
 43.5016  7815.51  87.5263
 43.5436  7780.17  87.2285
 43.5856  7760.75  87.1555
 43.6276  7763.63  87.0572
 43.6696  7677.31  86.8331
 43.7116  7742.69  86.6973
 43.7536  7817.8  87.6085
 43.7956  7633.58  87.7894
 43.8376  7638.55  86.3386
 43.8796  7632.12  86.3831
 43.9216  7659.15  86.4595
 43.9636  7623.5  86.3702
 44.0056  7629.17  86.6285
 44.0476  7618.46  86.2005
 44.0896  7455.52  85.6111
 44.1316  7693.72  86.4886
 44.1736  7494.08  85.4814
 44.2156  7702.75  86.51
 44.2576  7611.51  86.3227
 44.2996  7570.91  86.0652
 44.3416  7664.78  86.3627
 44.3836  7543.31  86.0005
 44.4256  7457.34  85.1611
 44.4676  7351.35  84.7008
 44.5096  7665.88  86.6366
 44.5516  7706.01  86.8336
 44.5936  7436.86  85.2569
 44.6356  7544.16  85.6065
 44.6776  7487.52  85.5956
 44.7196  7523.01  86.1155
 44.7616  7569.95  87.6968
 44.8036  7607.07  86.5475
 44.8456  7651.55  86.7993
 44.8876  7584.51  86.2636
 44.9296  7723.15  86.4933
 44.9716  7709.21  86.834
 45.0136  7689.34  86.6703
 45.0556  7715.63  86.9086
 45.0976  7654.41  86.6132
 45.1396  7530.97  85.6635
 45.1816  7441.78  85.1045
 45.2236  7726.44  86.6128
 45.2656  7575.26  86.264
 45.3076  7600.17  86.1806
 45.3496  7457.75  85.685
 45.3916  7555.6  86.5118
 45.4336  7579.54  86.479
 45.4756  7582.36  86.3349
 45.5176  7567.3  85.8808
 45.5596  7658.12  86.5171
 45.6016  7582.27  86.5211
 45.6436  7481.41  85.1168
 45.6856  7618.86  86.5537
 45.7276  7516.4  87.2801
 45.7696  7461.23  86.6537
 45.8116  7519.66  86.4084
 45.8536  7458.87  85.9515
 45.8956  7535.83  85.7423
 45.9376  7674.99  85.9908
 45.9796  7556.32  86.0091
 46.0216  7624.04  86.7221
 46.0636  7630.57  85.9041
 46.1056  7483.87  85.0733
 46.1476  7596.16  86.3059
 46.1896  7554.42  86.2136
 46.2316  7512.97  85.8469
 46.2736  7528.35  86.1515
 46.3156  7641.24  86.5338
 46.3576  7560.77  86.2803
 46.3996  7525.37  86.2381
 46.4416  7568.85  86.0389
 46.4836  7500.6  86.0312
 46.5256  7614.49  86.6246
 46.5676  7382.63  85.4082
 46.6096  7555.12  86.3292
 46.6516  7666.83  85.9893
 46.6936  7642.23  86.3566
 46.7356  7585.61  86.1398
 46.7776  7521.11  86.636
 46.8196  7430.84  85.8522
 46.8616  7367.32  85.2846
 46.9036  7293.84  84.5155
 46.9456  7480.3  85.2274
 46.9876  7450.28  85.1395
 47.0296  7505.41  86.1611
 47.0716  7380.36  85.2564
 47.1136  7408.17  85.0954
 47.1556  7463.98  85.2728
 47.1976  7518.71  85.7476
 47.2396  7471.02  85.8084
 47.2816  7264.57  84.3097
 47.3236  7414.31  85.5525
 47.3656  7323.75  84.9538
 47.4076  7578.05  86.1415
 47.4496  7445.61  85.5585
 47.4916  7434.53  85.6928
 47.5336  7427.98  85.4645
 47.5756  7550.92  86.2907
 47.6176  7346.35  85.0063
 47.6596  7335.46  84.6483
 47.7016  7527.84  85.5661
 47.7436  7469.26  85.5761
 47.7856  7504.37  85.8046
 47.8276  7389.03  85.1964
 47.8696  7435.38  85.5495
 47.9116  7508.11  85.6715
 47.9536  7463.43  85.3599
 47.9956  7428.2  85.8776
 48.0376  7321.36  85.0262
 48.0796  7415.21  85.7
 48.1216  7378.82  85.3053
 48.1636  7578.31  86.0095
 48.2056  7489.47  85.7808
 48.2476  7607.45  86.7693
 48.2896  7467.28  85.8782
 48.3316  7499.25  86.0022
 48.3736  7496.37  86.01
 48.4156  7365.22  85.1002
 48.4576  7454.1  85.9059
 48.4996  7475.42  85.4799
 48.5416  7497.87  85.9399
 48.5836  7464.19  85.4193
 48.6256  7399.38  85.2521
 48.6676  7456.74  86.114
 48.7096  7432.33  85.2299
 48.7516  7503.12  85.7822
 48.7936  7403.25  85.2731
 48.8356  7324.52  84.8597
 48.8776  7367.92  85.6962
 48.9196  7491.33  85.7741
 48.9616  7331.74  85.2409
 49.0036  7442.29  86.2345
 49.0456  7278.67  85.2653
 49.0876  7407.4  85.5378
 49.1296  7281.06  84.9702
 49.1716  7223.17  84.5056
 49.2136  7495.19  86.0054
 49.2556  7458.29  85.819
 49.2976  7367.14  85.3631
 49.3396  7315.12  85.1267
 49.3816  7520.47  85.7087
 49.4236  7305.8  84.9235
 49.4656  7233.75  84.5194
 49.5076  7442.72  85.474
 49.5496  7337.24  84.9329
 49.5916  7299.01  84.6255
 49.6336  7319.37  84.9521
 49.6756  7407.76  85.7028
 49.7176  7310.66  85.0773
 49.7596  7349.92  85.0705
 49.8016  7349.21  84.9785
 49.8436  7202.02  84.4302
 49.8856  7327.89  85.1587
 49.9276  7191.69  84.4675
 49.9696  7358.5  85.4271
 50.0116  7287.08  85.1495
 50.0536  7346.26  85.4342
 50.0956  7300.06  85.2338
 50.1376  7300.42  84.9303
 50.1796  7279.93  85.093
 50.2216  7299.64  85.1968
 50.2636  7310.14  84.8695
 50.3056  7244.57  84.669
 50.3476  7238.26  84.6497
 50.3896  7271.7  84.8165
 50.4316  7284.54  84.7198
 50.4736  7194.96  84.4277
 50.5156  7252.9  84.7568
 50.5576  7261.58  84.5515
 50.5996  7218.76  84.6006
 50.6416  7280.48  84.8858
 50.6836  7311.07  85.1201
 50.7256  7339.15  85.2119
 50.7676  7395.2  85.8482
 50.8096  7279.24  84.7113
 50.8516  7186.33  84.5886
 50.8936  7142.69  84.1177
 50.9356  7282.78  85.0334
 50.9776  7227.8  84.8919
 51.0196  7084.34  84.1709
 51.0616  7109.08  83.6263
 51.1036  7238.31  84.753
 51.1456  7185.13  84.3462
 51.1876  7082.7  83.0787
 51.2296  7018.83  83.3422
 51.2716  7006.31  82.979
 51.3136  7192.34  84.5417
 51.3556  7073.62  83.453
 51.3976  7114  83.8408
 51.4396  6950.08  83.1909
 51.4816  6983.14  83.2385
 51.5236  7056.84  83.7579
 51.5656  7035.42  83.2179
 51.6076  7072.35  83.5276
 51.6496  7012.09  83.3742
 51.6916  6977.79  83.5168
 51.7336  6946.22  83.4344
 51.7756  6973.96  83.2697
 51.8176  6975.05  83.4068
 51.8596  6948.86  83.2658
 51.9016  7092.34  83.716
 51.9436  7108.23  85.3339
 51.9856  6977.02  84.9528
 52.0276  7161.06  84.5259
 52.0696  7158.01  84.57
 52.1116  7114.89  84.4475
 52.1536  7129.03  84.3662
 52.1956  7166.6  84.0925
 52.2376  7228.21  84.6175
 52.2796  7089.7  83.6233
 52.3216  6976.49  83.641
 52.3636  7164.15  84.3149
 52.4056  7131.45  83.9932
 52.4476  6953.46  83.3039
 52.4896  6972.6  83.4497
 52.5316  7082.38  84.1712
 52.5736  6965.98  83.1904
 52.6156  7185.45  84.8996
 52.6576  7011.05  83.2782
 52.6996  6718.36  82.5068
 52.7416  6888  83.4146
 52.7836  7129.13  84.7432
 52.8256  7060.79  83.5271
 52.8676  6972.09  83.5922
 52.9096  7058.25  84.1815
 52.9516  6946.48  83.8916
 52.9936  6999.07  84.5981
 53.0356  7035.73  83.7738
 53.0776  6986.85  83.7708
 53.1196  6897.56  83.3619
 53.1616  7100.74  84.6273
 53.2036  6905.29  83.4181
 53.2456  6801.48  82.8946
 53.2876  7042.87  84.0313
 53.3296  7048.49  84.4046
 53.3716  7076.1  84.3136
 53.4136  6950.24  83.7124
 53.4556  6974.42  83.8812
 53.4976  6883.39  83.1766
 53.5396  6929.93  83.8621
 53.5816  6974.97  83.7643
 53.6236  6957.48  84.0175
 53.6656  7039.17  84.1039
 53.7076  7070.27  84.2442
 53.7496  6935.84  83.5672
 53.7916  6941.61  83.7432
 53.8336  6927.01  83.5459
 53.8756  6810.25  83.3892
 53.9176  6892.57  83.226
 53.9596  6710.11  82.9035
 54.0016  6792.66  82.7059
 54.0436  6583.09  81.6585
 54.0856  6775.33  82.2554
 54.1276  6689.78  81.9472
 54.1696  6685.31  82.0788
 54.2116  6861.87  82.8933
 54.2536  6715.1  81.8167
 54.2956  6782.76  82.2775
 54.3376  6656.34  82.0071
 54.3796  6631.47  81.7411
 54.4216  6694.73  82.1928
 54.4636  6691.28  82.1394
 54.5056  6688.61  81.9179
 54.5476  6709.48  82.3986
 54.5896  6569.93  81.3733
 54.6316  6728.34  82.1776
 54.6736  6665.14  81.8978
 54.7156  6567.78  81.3191
 54.7576  6618.01  81.6004
 54.7996  6755.95  82.6112
 54.8416  6648.93  81.9951
 54.8836  6725.23  82.5555
 54.9256  6529.34  81.1135
 54.9676  6467.7  80.592
 55.0096  6598.99  81.4496
 55.0516  6469.75  80.8789
 55.0936  6597.76  81.3305
 55.1356  6478.02  80.6308
 55.1776  6615.84  81.7303
 55.2196  6556.42  81.1374
 55.2616  6764.06  82.6363
 55.3036  6520.36  81.3185
 55.3456  6377.56  80.577
 55.3876  6569.22  81.4905
 55.4296  6402.71  80.4549
 55.4716  6505.32  81.1157
 55.5136  6473.16  80.6863
 55.5556  6649.39  81.8189
 55.5976  6534.48  81.1904
 55.6396  6501.11  80.8411
 55.6816  6549.01  81.0908
 55.7236  6374.28  80.0622
 55.7656  6559.15  80.9302
 55.8076  6470.39  80.4017
 55.8496  6530.24  81.1897
 55.8916  6424.91  80.6325
 55.9336  6595.3  81.5176
 55.9756  6560.01  81.1902
 56.0176  6404.71  80.3724
 56.0596  6423.15  80.4696
 56.1016  6233.13  79.2948
 56.1436  6381.23  80.4863
 56.1856  6286.77  79.6292
 56.2276  6568.02  81.4218
 56.2696  6387.7  80.295
 56.3116  6540.75  81.6378
 56.3536  6437.87  80.6532
 56.3956  6398.51  80.3872
 56.4376  6369.07  80.2653
 56.4796  6232.85  79.2161
 56.5216  6361.24  80.4076
 56.5636  6343.99  79.8393
 56.6056  6488.46  80.9984
 56.6476  6350.52  79.7311
 56.6896  6530.45  81.3396
 56.7316  6372.27  80.268
 56.7736  6403.68  80.4632
 56.8156  6415.97  80.5434
 56.8576  6156.6  78.8471
 56.8996  6345.37  79.9606
 56.9416  6395.63  80.5916
 56.9836  6478.42  80.6164
 57.0256  6200.36  79.1748
 57.0676  6481.39  81.0804
 57.1096  6285.15  79.6215
 57.1516  6288.11  79.6974
 57.1936  6315.46  79.6237
 57.2356  6202.36  79.2206
 57.2776  6285.01  79.727
 57.3196  6321.11  80.3129
 57.3616  6324.76  79.7987
 57.4036  6350.79  80.044
 57.4456  6383.71  80.228
 57.4876  6371.58  80.0185
 57.5296  6276.5  79.7495
 57.5716  6195.66  79.2378
 57.6136  6199.61  79.1013
 57.6556  6338.82  80.0839
 57.6976  6264.32  79.471
 57.7396  6176.98  79.2587
 57.7816  6192.36  79.7325
 57.8236  6149.33  79.2313
 57.8656  6221.66  79.3697
 57.9076  6305.72  79.9355
 57.9496  6240.63  79.8764
 57.9916  6221.79  79.2644
 58.0336  6206.64  79.451
 58.0756  6210.75  79.0778
 58.1176  6276.98  79.5156
 58.1596  6056.84  78.7015
 58.2016  6052.36  77.9
 58.2436  5991.97  77.9036
 58.2856  5982.86  77.7826
 58.3276  5990.05  78.1924
 58.3696  6020.96  78.1432
 58.4116  5972.25  77.698
 58.4536  5990.72  77.6984
 58.4956  6014.55  78.0386
 58.5376  6043.5  77.7959
 58.5796  5901.59  77.3023
 58.6216  6014.86  77.8559
 58.6636  6006.67  78.0116
 58.7056  6089.02  78.3991
 58.7476  5917.15  77.7269
 58.7896  5906.78  77.3075
 58.8316  5953.6  77.6017
 58.8736  5990.9  77.8621
 58.9156  5925.63  77.4752
 58.9576  6020.65  78.4207
 58.9996  6066.25  77.9585
 59.0416  5954.87  77.6057
 59.0836  5877.54  77.0116
 59.1256  5913.86  77.9489
 59.1676  5956.52  78.5414
 59.2096  5941.09  77.7618
 59.2516  6069.71  78.179
 59.2936  6086.96  78.6194
 59.3356  5928.05  77.4652
 59.3776  5932.04  77.6588
 59.4196  5891.26  77.3284
 59.4616  5951.19  77.5814
 59.5036  5840.97  76.8946
 59.5456  6106.32  78.3133
 59.5876  6131.99  78.6703
 59.6296  5804.38  76.6078
 59.6716  5983.57  77.839
 59.7136  5944.83  77.575
 59.7556  5860.09  77.1545
 59.7976  6058.54  78.1918
 59.8396  6034.22  77.9289
 59.8816  5882.28  77.4786
 59.9236  5941.71  77.5169
 59.9656  5891.43  77.4458
 60.0076  6013.23  77.6007
 60.0496  6031.95  78.2251
 60.0916  6010.29  77.504
 60.1336  5957.39  78.2621
 60.1756  5889.95  78.9877
 60.1996  0.0000000E+00  0.0000000E+00