File: docs/examples/opeando_xrd/IS17_D/Data/IS17_D/17_Db_f00020.xye
# /beamlines/bl04/projects/cycle2025-II/20250340211-lsimonelli/DATA/IS17_D/17_Db_f00020.xye : mythproc.py merge -s 0.006 -l 0.5 -f /beamlines/bl04/inhouse/ff/FlatField/ff_20Nov2024rod8mm60s_17keV.raw -b True -c true -o xye /beamlines/bl04/projects/cycle2025-II/20250340211-lsimonelli/DATA/IS17_D/17_Db_00020.dat
# IsMon = [6732410, 6738334, 6763936]  IsPos = [-1.5000, -2.4885, -3.4986]
# Wave = 0.4962  CalPath /beamlines/bl04/projects/cycle2025-II/20250340211-lsimonelli/DATA/Align/Si_Pos1_25keV_f00001.cal
# Date = 2025-09-23_23:16:50 Dt = 4.8000  Bin = 0.0060  <imon> = 6744893 +/- 13681 (Min/Max) 6732410 / 6763936
# icurr 249.1184  mocoIn 1.7006E-05  mocoOut 0.7977  i15 7.06202e+06  imon 6.74489e+06  i7 4.0000  iEMpd_timer 4.8000  iEMpd_1 3.5469E-08  iEMpd_2 7.8328E-08  iEMpd_3 1.7604E-08  iEMpd_4 4.7293E-08  iEMhp_timer 4.8000  iEMhp_1 4.8762E-06  iEMhp_2 -2.4875E-08  iEMhp_3 -2.3606E-08  iEMhp_4 -2.0231E-08
#      9776
 1.5856  42220.5  211.187
 1.6276  48811.7  223.178
 1.6696  54695.2  235.412
 1.7116  62341.3  251.82
 1.7536  69876.2  265.469
 1.7956  73986  273.846
 1.8376  71601.5  269.824
 1.8796  60924.9  247.073
 1.9216  49935.7  224.567
 1.9636  43624.3  209.565
 2.0056  38461.1  195.516
 2.0476  35878.6  190.908
 2.0896  34876.4  187.119
 2.1316  33816.1  183.367
 2.1736  32228.6  180.431
 2.2156  32806.8  180.581
 2.2576  31571.7  177.786
 2.2996  30476.9  175.316
 2.3416  30809.2  174.864
 2.3836  30191.7  173.208
 2.4256  29315.5  171.232
 2.4676  29209.6  170.68
 2.5096  28825.4  169.61
 2.5516  33505.3  186.961
 2.5936  107159  327.735
 2.6356  30589.3  175.835
 2.6776  27259.6  164.907
 2.7196  26476.2  163
 2.7616  26221.1  161.998
 2.8036  25783.6  160.813
 2.8456  25711.6  161.219
 2.8876  25374.8  159.996
 2.9296  24704.2  158.025
 2.9716  24625.5  157.268
 3.0136  24126.6  155.732
 3.0556  24353.6  156.835
 3.0976  24394.4  155.914
 3.1396  23997.3  155.344
 3.1816  23679.3  154.253
 3.2236  23509.5  153.698
 3.2656  23344  152.205
 3.3076  23339.6  153.636
 3.3496  23269.8  152.596
 3.3916  23870.1  154.126
 3.4336  24039.9  155.259
 3.4756  24629.1  157.101
 3.5176  25120.6  158.419
 3.5596  24851.2  160.416
 3.6016  25105.5  158.336
 3.6436  24240.9  156.686
 3.6856  23998.1  154.218
 3.7276  23039.1  152.179
 3.7696  22890.7  151.626
 3.8116  22561.4  150.656
 3.8536  22630.8  150.806
 3.8956  22465.5  150.091
 3.9376  22838.3  151.573
 3.9796  22257.9  149.16
 4.0216  22312.5  148.423
 4.0636  22401.5  150.129
 4.1056  22188  149.098
 4.1476  22604.9  150.808
 4.1896  22786.6  151.242
 4.2316  22886.8  151.393
 4.2736  23199.3  152.24
 4.3156  23467.9  153.294
 4.3576  24156  155.481
 4.3996  24492.5  156.609
 4.4416  25148.7  158.511
 4.4836  26029.4  161.441
 4.5256  26337.6  163.015
 4.5676  26011.8  162.22
 4.6096  26250.1  161.997
 4.6516  26882.8  163.28
 4.6936  26958.7  164.262
 4.7356  27926.5  167.068
 4.7776  27029.7  164.166
 4.8196  26797.9  164.163
 4.8616  26263.2  162.113
 4.9036  25976  160.864
 4.9456  26081.2  161.802
 4.9876  25395.3  159.563
 5.0296  25621.1  160.111
 5.0716  25342  159.814
 5.1136  25486.6  160.157
 5.1556  25832  160.675
 5.1976  32094.6  179.162
 5.2396  26575.4  162.692
 5.2816  26414.8  162.697
 5.3236  26286.5  161.971
 5.3656  25578.7  160.684
 5.4076  25433.8  160.364
 5.4496  25551.7  160.216
 5.4916  25590.2  160.12
 5.5336  25613.7  160.177
 5.5756  25803.1  160.842
 5.6176  25739.8  160.064
 5.6596  26105.6  162.005
 5.7016  26091.4  161.399
 5.7436  26115.3  161.746
 5.7856  26055.6  161.624
 5.8276  26122.9  161.526
 5.8696  26499.9  162.81
 5.9116  26127.2  162.238
 5.9536  26762.3  164.067
 5.9956  26902.8  163.86
 6.0376  26750.6  164.005
 6.0796  27030.4  164.691
 6.1216  27031.3  164.862
 6.1636  27351.6  164.932
 6.2056  27350.3  165.573
 6.2476  27736.8  166.495
 6.2896  27800.5  166.515
 6.3316  27715.8  166.462
 6.3736  27881.8  166.822
 6.4156  27673.9  166.138
 6.4576  27941.4  166.518
 6.4996  27966.2  167.03
 6.5416  28146.1  167.721
 6.5836  28249.7  168.229
 6.6256  28172  167.603
 6.6676  28857.4  169.2
 6.7096  28456.9  168.896
 6.7516  29047.7  170.269
 6.7936  30048.9  172.367
 6.8356  30230.9  173.198
 6.8776  29806.1  172.742
 6.9196  29528.7  172.361
 6.9616  29968.6  173.058
 7.0036  30368.1  173.906
 7.0456  30493.6  173.569
 7.0876  30555.5  175.36
 7.1296  30251.8  173.687
 7.1716  30211.8  173.105
 7.2136  29886.7  171.971
 7.2556  30215.9  173.065
 7.2976  30069.2  173.129
 7.3396  29854.4  172.747
 7.3816  30190.6  173.903
 7.4236  30516.8  174.149
 7.4656  30584.3  173.817
 7.5076  30886.3  174.819
 7.5496  30512.5  174.221
 7.5916  30583.5  174.533
 7.6336  31403.5  176.748
 7.6756  31300.5  176.31
 7.7176  31579.9  177.458
 7.7596  31563.3  178.555
 7.8016  35511  191.763
 7.8436  31959.3  178.513
 7.8856  31780.9  177.635
 7.9276  32570.6  180.158
 7.9696  32497.2  180.312
 8.0116  33670.5  182.419
 8.0536  33916.6  183.029
 8.0956  35692  188.995
 8.1376  34118.2  184.212
 8.1796  34244.8  185.127
 8.2216  35092  186.117
 8.2636  35853.6  188.377
 8.3056  35230.7  187.427
 8.3476  37077.9  191.669
 8.3896  36025.1  189.381
 8.4316  35896.8  188.832
 8.4736  35844.4  188.175
 8.5156  35163.9  186.646
 8.5576  35104.3  187.496
 8.5996  35075.2  186.265
 8.6416  34887.8  187.047
 8.6836  34513.1  185.761
 8.7256  35623.3  188.3
 8.7676  37224.3  195.386
 8.8096  37636.9  193.758
 8.8516  36319.4  190.034
 8.8936  36791.9  191.087
 8.9356  35436.6  187.934
 8.9776  35073.8  186.983
 9.0196  35317.3  187.375
 9.0616  35182.4  186.458
 9.1036  36657.7  191.499
 9.1456  34391.2  184.762
 9.1876  34236.2  184.363
 9.2296  33919.9  182.893
 9.2716  33570.7  182.05
 9.3136  33906.7  182.963
 9.3556  33904.9  182.931
 9.3976  32738.2  180.324
 9.4396  33013.7  180.925
 9.4816  33005.7  180.831
 9.5236  32529.1  179.338
 9.5656  32237.4  178.894
 9.6076  31869.1  178.309
 9.6496  31750.8  177.928
 9.6916  31688.4  177.642
 9.7336  31939.5  178.202
 9.7756  31844.2  179.187
 9.8176  31574.9  178.097
 9.8596  31291.3  175.783
 9.9016  30943  174.788
 9.9436  30814.1  174.168
 9.9856  30854  174.73
 10.0276  30049  173.478
 10.0696  30394  173.524
 10.1116  29647.4  171.645
 10.1536  29614.3  171.226
 10.1956  29077.9  169.758
 10.2376  28952.9  168.931
 10.2796  28790.9  168.553
 10.3216  28488.3  167.786
 10.3636  28529  168.085
 10.4056  30579.4  174.423
 10.4476  30825.8  174.732
 10.4896  33945.9  182.785
 10.5316  31870.1  177.503
 10.5736  28394.4  168.289
 10.6156  27768.8  166.195
 10.6576  31648.3  175.914
 10.6996  27636.2  165.074
 10.7416  26808  162.786
 10.7836  27582.9  165.691
 10.8256  26098.7  161.578
 10.8676  26004.6  160.852
 10.9096  26062  161.035
 10.9516  25625  158.668
 10.9936  26298.3  160.924
 11.0356  26010.9  160.657
 11.0776  26632.6  161.902
 11.1196  26545.8  162.401
 11.1616  25180.9  157.865
 11.2036  26070.1  160.461
 11.2456  27039  164.158
 11.2876  25129.1  157.997
 11.3296  24980.1  157.412
 11.3716  25165.3  157.674
 11.4136  24909.9  157.743
 11.4556  24882.9  157.276
 11.4976  26165  160.33
 11.5396  26644.8  161.982
 11.5816  25588.5  159.178
 11.6236  24621.9  156.558
 11.6656  24967.2  156.642
 11.7076  23784.7  153.65
 11.7496  24109.9  158.624
 11.7916  24281.3  154.513
 11.8336  23333.5  152.334
 11.8756  23913  153.776
 11.9176  23267  151.575
 11.9596  23405  152.012
 12.0016  23192  152.036
 12.0436  23038.7  151.002
 12.0856  22882.3  150.972
 12.1276  22862.6  150.861
 12.1696  22970.5  150.357
 12.2116  23111.9  150.791
 12.2536  24856  157.246
 12.2956  23111  150.944
 12.3376  23002.7  150.845
 12.3796  22866  150.841
 12.4216  22888  150.132
 12.4636  23588.1  153.34
 12.5056  22655.9  149.565
 12.5476  22763.9  149.441
 12.5896  22287.6  148.471
 12.6316  22485.6  149.328
 12.6736  22431.6  149.404
 12.7156  22674.2  150.273
 12.7576  22534.8  150.029
 12.7996  22837.6  149.703
 12.8416  22594.4  149.937
 12.8836  23544.5  152.884
 12.9256  23258.1  151.001
 12.9676  23090.7  150.822
 13.0096  23081  151.945
 13.0516  23335  151.788
 13.0936  23100.1  151.15
 13.1356  23370.9  151.298
 13.1776  23268.9  151.96
 13.2196  23039.3  150.857
 13.2616  22882.3  150.626
 13.3036  23298.7  152.184
 13.3456  22766.8  150.323
 13.3876  23578.3  152.567
 13.4296  23115.2  151.179
 13.4716  23394.3  151.72
 13.5136  23308.9  151.572
 13.5556  23195.9  151.841
 13.5976  23211.3  152.038
 13.6396  23437.5  152.117
 13.6816  23593.2  153.022
 13.7236  23830.4  153.456
 13.7656  25537.7  159.36
 13.8076  26828.4  161.947
 13.8496  24995.9  157.154
 13.8916  23798.5  154.288
 13.9336  22770.3  150.183
 13.9756  22959.7  150.217
 14.0176  22567.6  149.571
 14.0596  23434.2  152.378
 14.1016  22683.4  150.33
 14.1436  22746.1  149.711
 14.1856  22072.4  147.738
 14.2276  22327  149.094
 14.2696  22305.4  148.843
 14.3116  21609.7  146.385
 14.3536  21290.2  145.485
 14.3956  21304.7  145.284
 14.4376  21501.1  145.725
 14.4796  21417.6  145.441
 14.5216  21124.3  145.215
 14.5636  21606.5  146.433
 14.6056  21128.7  144.364
 14.6476  20794  142.494
 14.6896  20548.4  142.182
 14.7316  20198  141.969
 14.7736  20022  140.527
 14.8156  20088.7  140.773
 14.8576  20042.4  140.471
 14.8996  19656.3  140.278
 14.9416  19287.2  138.965
 14.9836  19345.4  139.112
 15.0256  19024.8  136.873
 15.0676  18675.1  135.915
 15.1096  18637  135.525
 15.1516  18175  134.408
 15.1936  18044.7  133.337
 15.2356  18285.1  134.492
 15.2776  18016.2  133.105
 15.3196  17845  133.434
 15.3616  17494.8  131.844
 15.4036  17322.9  131.106
 15.4456  17816.7  132.356
 15.4876  17480.1  131.053
 15.5296  17279.2  130.616
 15.5716  17077.6  129.426
 15.6136  17068.7  129.746
 15.6556  18471.1  134.165
 15.6976  17337.8  130.065
 15.7396  17084.1  129.654
 15.7816  16932.9  128.646
 15.8236  16608.5  128.037
 15.8656  16648.4  128.032
 15.9076  16603.5  127.686
 15.9496  17764.4  134.976
 15.9916  16762.5  131.462
 16.0336  16910.8  129.013
 16.0756  16908.2  129.269
 16.1176  16421.3  127.257
 16.1596  16155.9  127.576
 16.2016  16160.6  126.347
 16.2436  16362.6  127.553
 16.2856  16226.5  126.542
 16.3276  15725.3  125.004
 16.3696  15933.5  125.659
 16.4116  15910.3  126.042
 16.4536  15914.3  125.825
 16.4956  16630.8  128.411
 16.5376  15820.3  125.383
 16.5796  15739.9  124.439
 16.6216  15616.3  124.208
 16.6636  15606.7  124.311
 16.7056  15680.7  124.515
 16.7476  15545.9  123.615
 16.7896  15616.6  124.536
 16.8316  15532.5  124.179
 16.8736  15922.8  126.025
 16.9156  15742.9  125.583
 16.9576  15346.6  124.825
 16.9996  15545.1  126.066
 17.0416  15387.4  123.927
 17.0836  15466.3  124.017
 17.1256  15241.1  123.114
 17.1676  15692.9  124.894
 17.2096  15606.6  124.439
 17.2516  15516.6  124.174
 17.2936  15124.9  122.645
 17.3356  14869.1  121.591
 17.3776  14762.9  121.338
 17.4196  14683.6  120.712
 17.4616  14828.1  121.222
 17.5036  15170.1  122.966
 17.5456  14398.4  120.425
 17.5876  14544.3  120.099
 17.6296  14585.2  120.084
 17.6716  14545.3  120.507
 17.7136  15019.3  122.591
 17.7556  14453.8  120.543
 17.7976  14340.4  119.665
 17.8396  14460.2  119.813
 17.8816  14067.3  118.719
 17.9236  14152.6  118.881
 17.9656  14168.3  119.524
 18.0076  14507.8  120.385
 18.0496  14831.4  120.861
 18.0916  18342.9  134.995
 18.1336  16334.3  127.507
 18.1756  14966.3  121.603
 18.2176  15752.7  124.98
 18.2596  14122.2  118.087
 18.3016  14667.5  120.591
 18.3436  15117.8  122.665
 18.3856  14396.5  119.632
 18.4276  13912.2  117.269
 18.4696  14078  118.004
 18.5116  14218.9  118.914
 18.5536  13762.1  117.303
 18.5956  13868.5  117.363
 18.6376  13963.5  118.176
 18.6796  13835.7  116.98
 18.7216  13854.4  117.571
 18.7636  13729.8  117.009
 18.8056  13323.6  115.17
 18.8476  13147.8  114.714
 18.8896  13336.7  115.182
 18.9316  13392.2  115.229
 18.9736  13497.4  115.563
 19.0156  13672.6  116.686
 19.0576  13764.8  116
 19.0996  13595.6  115.964
 19.1416  13576.3  116.297
 19.1836  13187.3  114.21
 19.2256  13041  113.789
 19.2676  13263.9  114.83
 19.3096  13153.5  114.581
 19.3516  13281.7  114.96
 19.3936  13221.3  114.796
 19.4356  13410.8  115.482
 19.4776  13278.5  114.972
 19.5196  13222  114.585
 19.5616  13221.1  114.836
 19.6036  13141.7  113.867
 19.6456  13340.2  114.97
 19.6876  13578.3  115.613
 19.7296  13347.8  115.128
 19.7716  13246.8  114.693
 19.8136  13481.8  116.066
 19.8556  13670.4  116.337
 19.8976  13791.3  116.916
 19.9396  13716.4  116.185
 19.9816  13849.7  116.974
 20.0236  14258.7  118.9
 20.0656  13719.9  116.611
 20.1076  13579.3  116.529
 20.1496  13274.9  115.182
 20.1916  13255.3  114.585
 20.2336  13184  114.247
 20.2756  12835.3  113.147
 20.3176  12881.5  113.1
 20.3596  12762.6  112.55
 20.4016  12991  113.377
 20.4436  12704.3  112.634
 20.4856  12726.7  112.577
 20.5276  12596.2  112.431
 20.5696  12687.7  112.409
 20.6116  12719.4  112.707
 20.6536  12646.6  111.974
 20.6956  12550.7  111.614
 20.7376  12475.2  111.467
 20.7796  12473.6  111.18
 20.8216  12743.4  112.093
 20.8636  12752.8  112.529
 20.9056  13675.4  116.433
 20.9476  12761.4  112.353
 20.9896  13430.6  115.096
 21.0316  12563.6  111.207
 21.0736  12680.2  112.25
 21.1156  12989.1  113.748
 21.1576  12603.7  112.105
 21.1996  12399.9  111.185
 21.2416  12352.8  110.82
 21.2836  12494.8  111.415
 21.3256  12544.7  111.726
 21.3676  12525.9  111.16
 21.4096  12625.5  111.965
 21.4516  12209.6  109.935
 21.4936  12132.5  109.83
 21.5356  12463.3  111.289
 21.5776  12294  110.372
 21.6196  12446.8  111.089
 21.6616  12363.3  110.799
 21.7036  12341.5  110.464
 21.7456  12113.1  109.521
 21.7876  11972  108.656
 21.8296  11965.4  108.469
 21.8716  12206.9  109.812
 21.9136  12306  110.431
 21.9556  12339  110.265
 21.9976  12142.5  109.406
 22.0396  11982.8  108.931
 22.0816  12078.8  109.838
 22.1236  12434.5  110.954
 22.1656  11956.8  108.97
 22.2076  11945.7  108.309
 22.2496  11779.4  107.617
 22.2916  11955.5  108.271
 22.3336  11954.5  108.951
 22.3756  11772.8  107.87
 22.4176  11884.1  108.233
 22.4596  11537.7  107.178
 22.5016  11779.2  107.845
 22.5436  11835.4  107.95
 22.5856  12120.2  109.516
 22.6276  12291.8  110.453
 22.6696  11852.7  108.776
 22.7116  11774.8  107.977
 22.7536  11815.6  108.109
 22.7956  11920.1  107.969
 22.8376  11663.4  107.236
 22.8796  11673.3  107.123
 22.9216  11865.3  108.498
 22.9636  11855.4  107.662
 23.0056  11702.2  107.092
 23.0476  11924.6  108.665
 23.0896  12097.4  108.839
 23.1316  12024  108.934
 23.1736  11907.3  111.33
 23.2156  12311.5  110.506
 23.2576  12364.2  110.985
 23.2996  11807.4  108.162
 23.3416  12085.8  110.026
 23.3836  11973.4  108.661
 23.4256  12293.2  110.325
 23.4676  12252  109.798
 23.5096  12208.2  110.248
 23.5516  12063.6  108.907
 23.5936  12130  110.1
 23.6356  12481.6  111.349
 23.6776  12060.7  109.981
 23.7196  11959.8  109.042
 23.7616  11998  108.842
 23.8036  12168.5  109.751
 23.8456  11894.2  107.986
 23.8876  11883  108.362
 23.9296  11777.1  108.314
 23.9716  11793.1  107.615
 24.0136  11837  108.699
 24.0556  11685.8  107.724
 24.0976  11599.7  107.15
 24.1396  11530.4  109.407
 24.1816  11718.8  109.097
 24.2236  11728.8  108.486
 24.2656  11623.1  107.486
 24.3076  11652.3  107.89
 24.3496  11706.8  108.012
 24.3916  11695.1  108.019
 24.4336  11654.9  108.027
 24.4756  11580.9  107.576
 24.5176  11680.9  107.664
 24.5596  11429.1  106.822
 24.6016  11427.1  106.9
 24.6436  11493.4  106.735
 24.6856  11363.4  105.877
 24.7276  11243.8  105.622
 24.7696  11231.8  105.683
 24.8116  11095.5  105.185
 24.8536  11156.9  105.508
 24.8956  11167.7  105.293
 24.9376  11218  105.709
 24.9796  10995  104.757
 25.0216  11056.1  105.174
 25.0636  11306.9  106.004
 25.1056  10890.6  104.454
 25.1476  10784.1  105.723
 25.1896  10895.7  104.826
 25.2316  10883.4  103.931
 25.2736  10826  103.416
 25.3156  10755.3  103.15
 25.3576  10647.5  103.066
 25.3996  10724.6  103.414
 25.4416  10695.2  103.258
 25.4836  10581.3  103.211
 25.5256  10655.6  102.945
 25.5676  10725.3  103.029
 25.6096  10585.6  102.919
 25.6516  10616.8  102.588
 25.6936  10615.6  102.907
 25.7356  10581.1  102.849
 25.7776  10632  102.736
 25.8196  10358.9  101.601
 25.8616  10428.3  101.843
 25.9036  10641.6  102.374
 25.9456  10521.5  102.395
 25.9876  10519.3  102.318
 26.0296  10596  102.418
 26.0716  10590.4  102.751
 26.1136  10630.4  102.843
 26.1556  10695.3  102.467
 26.1976  10401.9  102.047
 26.2396  10351.5  101.2
 26.2816  10439.2  101.998
 26.3236  10446.7  102.091
 26.3656  10556.4  102.477
 26.4076  10388  101.836
 26.4496  10596.9  102.477
 26.4916  10626.2  102.486
 26.5336  11008.5  104.659
 26.5756  11069.8  104.829
 26.6176  10641.9  102.773
 26.6596  10548.3  102.657
 26.7016  10311.9  101.287
 26.7436  10290.5  101.311
 26.7856  10123.7  100.448
 26.8276  10146.7  100.528
 26.8696  10168.8  100.513
 26.9116  10122.4  100.222
 26.9536  10121.5  100.267
 26.9956  10052.3  99.9361
 27.0376  10089.4  100.38
 27.0796  10048.7  99.8962
 27.1216  10170.5  100.576
 27.1636  9953.96  99.6398
 27.2056  9879.12  99.1436
 27.2476  9968.23  99.5841
 27.2896  9907.38  99.3384
 27.3316  9817.04  98.6699
 27.3736  9801.12  98.8324
 27.4156  9969.69  99.5596
 27.4576  9944.65  99.6355
 27.4996  10032.7  99.7017
 27.5416  9947.36  99.5669
 27.5836  9844.87  98.8862
 27.6256  9791.6  98.7949
 27.6676  9831.21  98.9725
 27.7096  9941.76  99.4233
 27.7516  10262.2  101.144
 27.7936  10453.3  102.261
 27.8356  10153.6  100.375
 27.8776  10203  100.72
 27.9196  9954.19  99.3155
 27.9616  9997.3  99.7273
 28.0036  9859.9  99.0083
 28.0456  9587.68  97.7418
 28.0876  9725  98.5448
 28.1296  9696.6  98.2308
 28.1716  9836.93  98.9842
 28.2136  9614.77  97.8033
 28.2556  9708.75  98.4187
 28.2976  9564.87  97.6582
 28.3396  9639.94  97.8247
 28.3816  9784.15  98.5401
 28.4236  9652.46  98.0111
 28.4656  9519.19  97.3915
 28.5076  9396.29  96.4051
 28.5496  9428  96.8103
 28.5916  9445  96.7235
 28.6336  9577.49  97.758
 28.6756  9538.8  96.7448
 28.7176  9452.68  96.8595
 28.7596  9322.07  96.0757
 28.8016  9332.91  96.2316
 28.8436  9270.09  96.0772
 28.8856  9513  97.1894
 28.9276  9446.1  97.0831
 28.9696  9244  95.7125
 29.0116  9240.66  95.8615
 29.0536  9275.36  96.2538
 29.0956  9458.21  96.906
 29.1376  9292.87  96.0155
 29.1796  9394.9  96.6274
 29.2216  9210.77  95.4934
 29.2636  9277.81  95.857
 29.3056  9330.27  95.9667
 29.3476  9206.39  95.8477
 29.3896  9281.25  96.312
 29.4316  9127.74  94.8522
 29.4736  9103.22  94.756
 29.5156  9217.7  95.301
 29.5576  8962.18  94.7152
 29.5996  8984.79  94.0896
 29.6416  8934.31  93.9693
 29.6836  9086.74  94.6674
 29.7256  8914.76  94.3114
 29.7676  9089.97  94.8733
 29.8096  8949.15  94.1064
 29.8516  8753.31  93.3637
 29.8936  8947.03  94.5117
 29.9356  8896.11  94.0065
 29.9776  9063.36  95.029
 30.0196  8961.89  93.9408
 30.0616  8900.88  93.9507
 30.1036  8996.23  94.3131
 30.1456  8849.61  93.7546
 30.1876  8840.27  93.6955
 30.2296  8837.36  93.5723
 30.2716  8838.63  93.2566
 30.3136  8887.89  94.062
 30.3556  9170.08  95.8673
 30.3976  9076.41  96.8294
 30.4396  9435.35  96.1333
 30.4816  9227.5  94.646
 30.5236  9149.51  94.2903
 30.5656  9083.94  94.5515
 30.6076  8984.2  93.7734
 30.6496  9012.82  94.0096
 30.6916  8934.32  93.6513
 30.7336  9084.73  94.6195
 30.7756  9087.4  94.9016
 30.8176  8990.15  94.1211
 30.8596  9172.64  94.8224
 30.9016  9055.21  94.1484
 30.9436  8993.49  93.9904
 30.9856  9180.85  95.1261
 31.0276  9056  94.0824
 31.0696  9083.86  94.6883
 31.1116  9005.18  94.3432
 31.1536  9009.8  94.205
 31.1956  9007.04  94.3102
 31.2376  8757.9  92.9894
 31.2796  8879.14  93.2095
 31.3216  9001.49  93.7786
 31.3636  8970.79  94.353
 31.4056  8878.43  95.1281
 31.4476  9006.69  93.8166
 31.4896  9017.98  94.3669
 31.5316  9014.99  93.8071
 31.5736  9489.2  96.0296
 31.6156  9395.11  95.5592
 31.6576  9247.5  94.875
 31.6996  9157.77  94.0911
 31.7416  9217.21  95.3502
 31.7836  9032.21  93.5343
 31.8256  8921.39  93.2902
 31.8676  8970.08  93.4582
 31.9096  8828.88  92.9423
 31.9516  8806.61  93.1327
 31.9936  8761.25  92.7133
 32.0356  8944.09  93.724
 32.0776  8918.36  93.4916
 32.1196  9077.61  94.3505
 32.1616  8923.51  93.0841
 32.2036  8840.95  93.1622
 32.2456  8752.56  93.0565
 32.2876  8704.46  92.1436
 32.3296  8856.2  93.0707
 32.3716  8540.21  91.4593
 32.4136  8666.97  92.2899
 32.4556  8832.7  92.6488
 32.4976  8781.64  92.2689
 32.5396  8653.58  91.6237
 32.5816  8581.12  91.258
 32.6236  8584.53  91.4414
 32.6656  8692.7  92.5527
 32.7076  8716.92  92.3352
 32.7496  8493.9  90.85
 32.7916  8597.87  91.35
 32.8336  8608.93  91.5096
 32.8756  8640.82  91.5018
 32.9176  8453.79  90.8763
 32.9596  8607.02  91.748
 33.0016  8682.3  91.9371
 33.0436  8511.08  91.1678
 33.0856  8577.62  91.6473
 33.1276  8410.33  90.5044
 33.1696  8611.35  91.3935
 33.2116  8528.79  91.1973
 33.2536  8641.9  91.7925
 33.2956  8562.86  91.4409
 33.3376  8326.52  89.9787
 33.3796  8528.14  91.2184
 33.4216  8515.49  90.7103
 33.4636  8533.08  90.9896
 33.5056  8374.61  90.2105
 33.5476  8407.34  90.5531
 33.5896  8417.9  90.3704
 33.6316  8426.79  90.7604
 33.6736  8311.76  90.3621
 33.7156  8225.26  89.9174
 33.7576  8447.99  90.7751
 33.7996  8390.21  90.2201
 33.8416  8291.35  89.8818
 33.8836  8292.11  89.6535
 33.9256  8473.92  90.724
 33.9676  8507.46  90.777
 34.0096  8294.13  89.9609
 34.0516  8294.39  89.5731
 34.0936  8250.31  89.6133
 34.1356  8435.89  90.3619
 34.1776  8184.63  88.9877
 34.2196  8234.24  89.4557
 34.2616  8116.04  88.9856
 34.3036  8358.94  90.5193
 34.3456  8293.78  89.9073
 34.3876  8403.35  90.5622
 34.4296  8287.13  89.5405
 34.4716  8350.58  90.0284
 34.5136  8268.12  89.7688
 34.5556  8131.64  89.2687
 34.5976  8351.29  90.3429
 34.6396  8260.44  89.5189
 34.6816  8312.06  89.9151
 34.7236  8292.17  89.5726
 34.7656  8237.61  89.4855
 34.8076  8138.17  89.2666
 34.8496  8147.45  89.1491
 34.8916  8206.21  89.3595
 34.9336  8182.97  89.194
 34.9756  8443.91  90.5871
 35.0176  8203.75  89.7645
 35.0596  8317.01  90.2258
 35.1016  8266.3  89.6887
 35.1436  8386.28  90.0298
 35.1856  8257.67  89.4557
 35.2276  8199.83  89.2952
 35.2696  8167.13  89.3238
 35.3116  8123.26  89.1696
 35.3536  8311.4  89.9705
 35.3956  8128.01  88.6329
 35.4376  8213.98  89.6869
 35.4796  8267.16  89.9912
 35.5216  8149.51  89.2639
 35.5636  7899.29  88.6504
 35.6056  8071.28  88.6345
 35.6476  8082.72  88.6215
 35.6896  8158.02  89.2003
 35.7316  8115.56  88.8664
 35.7736  8068.57  88.7842
 35.8156  8123.92  89.1106
 35.8576  8129.78  89.369
 35.8996  8119.38  89.275
 35.9416  7962.26  87.9454
 35.9836  8006.17  88.5995
 36.0256  8293.81  90.0945
 36.0676  8245.94  89.3636
 36.1096  8169.12  89.3326
 36.1516  8119.6  88.9417
 36.1936  8198.21  89.219
 36.2356  8123.55  89.4585
 36.2776  8115.14  88.8715
 36.3196  8100.5  88.4884
 36.3616  7966.03  87.8756
 36.4036  8037.4  88.3405
 36.4456  8054.26  88.6587
 36.4876  7862  87.5138
 36.5296  8025.55  88.4581
 36.5716  7987.37  89.0083
 36.6136  8097.58  88.3805
 36.6556  7981.05  87.9041
 36.6976  7921.94  88.0947
 36.7396  7871.64  87.6421
 36.7816  7744.52  87.2054
 36.8236  7806.83  87.5019
 36.8656  7640.59  86.6147
 36.9076  7785.21  87.4348
 36.9496  7661.43  86.7475
 36.9916  7728.97  86.6229
 37.0336  7908.4  87.906
 37.0756  7851.2  87.4119
 37.1176  7621.37  86.4459
 37.1596  7585.42  86.1765
 37.2016  7734.79  87.2257
 37.2436  7732.08  86.569
 37.2856  7649.77  86.3781
 37.3276  7767.09  86.3838
 37.3696  7629.62  86.4955
 37.4116  7779.07  87.1942
 37.4536  7719.99  86.7585
 37.4956  7655.07  86.4073
 37.5376  7870.34  89.2429
 37.5796  7732.68  88.3925
 37.6216  7729.18  86.6581
 37.6636  7922.25  87.6547
 37.7056  7763.71  86.9282
 37.7476  7973.49  87.677
 37.7896  7647.12  86.2934
 37.8316  7579.07  86.1206
 37.8736  7819.67  86.9489
 37.9156  7755.32  86.6186
 37.9576  7626.43  85.9094
 37.9996  7577.72  85.2546
 38.0416  7639.98  86.3883
 38.0836  7814.51  87.2755
 38.1256  7774.86  87.0267
 38.1676  7581.84  86.0604
 38.2096  7866.96  87.3187
 38.2516  7824.88  87.173
 38.2936  7823.25  87.0853
 38.3356  7753.85  86.5649
 38.3776  7635.44  86.1661
 38.4196  7710.77  86.4263
 38.4616  7770.94  87.0366
 38.5036  7849.8  87.3252
 38.5456  7601.09  86.7615
 38.5876  7615.47  86.8807
 38.6296  7615.17  85.9197
 38.6716  7705.13  86.2281
 38.7136  7665.5  85.951
 38.7556  7662.87  86.4369
 38.7976  7667.16  86.3894
 38.8396  7676.75  86.891
 38.8816  7601.58  86.2668
 38.9236  7553.39  85.7947
 38.9656  7698.56  86.5192
 39.0076  7744.87  86.1934
 39.0496  7690.79  86.45
 39.0916  7709  86.1956
 39.1336  7653.12  86.2831
 39.1756  7567.45  85.863
 39.2176  7563.11  86.3538
 39.2596  7684.29  86.971
 39.3016  7732.56  86.8339
 39.3436  7688.82  86.9894
 39.3856  7677.21  86.3726
 39.4276  7751.03  87.3048
 39.4696  7668.84  86.4638
 39.5116  7735.69  87.3536
 39.5536  7630.24  87.0891
 39.5956  7610.46  86.1212
 39.6376  7527.55  85.4807
 39.6796  7632.55  85.995
 39.7216  7598.61  85.8651
 39.7636  7652.99  86.7635
 39.8056  7586.07  86.1529
 39.8476  7520.6  86.0387
 39.8896  7670.94  86.5504
 39.9316  7501.39  85.8168
 39.9736  7695.78  86.5084
 40.0156  7554.36  85.5344
 40.0576  7609.46  86.1891
 40.0996  7711.88  85.9624
 40.1416  7594.98  86.0899
 40.1836  7704.05  86.5828
 40.2256  7668.65  86.4298
 40.2676  7531.1  85.7955
 40.3096  7721.12  86.7539
 40.3516  7562.37  86.0306
 40.3936  7757.27  86.6316
 40.4356  7590.52  85.9051
 40.4776  7696.62  86.7373
 40.5196  7588.77  86.4033
 40.5616  7778.69  87.1452
 40.6036  7552.06  86.0932
 40.6456  7646.4  86.2135
 40.6876  7709.48  86.5937
 40.7296  7591.91  86.0467
 40.7716  7621.6  86.333
 40.8136  7460.42  85.3926
 40.8556  7719.27  86.9996
 40.8976  7608.64  86.2773
 40.9396  7631.71  86.7719
 40.9816  7794.14  86.9667
 41.0236  7698.55  86.1882
 41.0656  7679.15  86.635
 41.1076  7670.33  86.3461
 41.1496  7718.65  86.5467
 41.1916  7567.77  86.0133
 41.2336  7585.31  86.12
 41.2756  7598.32  85.7883
 41.3176  7688.1  86.9129
 41.3596  7599.38  86.1304
 41.4016  7650.34  86.6469
 41.4436  7676.42  86.6101
 41.4856  7647.45  86.5957
 41.5276  7662.01  86.7101
 41.5696  7569.88  85.8091
 41.6116  7618.08  86.5028
 41.6536  7694.45  86.7641
 41.6956  7704.39  86.8096
 41.7376  7610.27  86.3793
 41.7796  7525.73  85.8148
 41.8216  7636.41  86.6357
 41.8636  7582.76  86.2687
 41.9056  7651.87  86.4701
 41.9476  7652.63  86.7063
 41.9896  7729.16  86.8277
 42.0316  7730.07  86.9002
 42.0736  7680.71  86.7467
 42.1156  7595.4  86.0756
 42.1576  7618.59  86.2895
 42.1996  7713.89  86.9769
 42.2416  7598.5  85.9009
 42.2836  7649.52  86.3287
 42.3256  7477.79  85.4517
 42.3676  7721.98  86.6678
 42.4096  7672.5  86.337
 42.4516  7658.16  86.3469
 42.4936  7488.29  85.446
 42.5356  7530.03  85.8077
 42.5776  7536.45  85.796
 42.6196  7590.99  86.062
 42.6616  7428.98  85.4029
 42.7036  7604.26  85.798
 42.7456  7629.22  86.3028
 42.7876  7544.84  85.8849
 42.8296  7607.3  86.1791
 42.8716  7459.96  85.419
 42.9136  7477.56  85.2575
 42.9556  7514.56  85.6525
 42.9976  7547.6  85.8132
 43.0396  7503.49  85.2875
 43.0816  7511.46  85.7118
 43.1236  7388.08  85.0545
 43.1656  7557.52  85.8402
 43.2076  7430.93  85.2241
 43.2496  7564.32  85.8172
 43.2916  7499.63  85.8055
 43.3336  7503.5  85.668
 43.3756  7536.67  85.6422
 43.4176  7244.32  84.018
 43.4596  7424.83  84.9213
 43.5016  7429.82  85.34
 43.5436  7411.15  85.1434
 43.5856  7279.25  84.38
 43.6276  7385  84.9118
 43.6696  7362.27  84.9024
 43.7116  7490.94  85.2769
 43.7536  7489.99  85.7823
 43.7956  7383.19  86.3328
 43.8376  7316.63  84.4899
 43.8796  7266.18  84.2462
 43.9216  7356.05  84.6865
 43.9636  7175.87  83.7207
 44.0056  7210.33  84.1752
 44.0476  7333.14  84.4959
 44.0896  7162.86  83.8719
 44.1316  7283.46  84.2722
 44.1736  7451.43  85.1962
 44.2156  7219.26  83.7354
 44.2576  7136.64  83.5427
 44.2996  7207.06  83.9584
 44.3416  7259.26  83.9767
 44.3836  7143.53  83.6547
 44.4256  7122.49  83.1547
 44.4676  7245.2  84.0431
 44.5096  7335.02  84.71
 44.5516  7210.93  83.9575
 44.5936  7199.94  83.8452
 44.6356  7097.78  82.993
 44.6776  7152.27  83.6464
 44.7196  7287.8  84.6715
 44.7616  7235.06  85.7542
 44.8036  7322.92  84.8913
 44.8456  7382.58  85.2361
 44.8876  7317.99  84.7111
 44.9296  7439.91  84.8672
 44.9716  7379.32  84.9714
 45.0136  7310.67  84.4616
 45.0556  7266.36  84.3158
 45.0976  7429.43  85.3005
 45.1396  7285.93  84.2302
 45.1816  7386.23  84.5807
 45.2236  7327.58  84.3239
 45.2656  7188.9  83.9787
 45.3076  7241.04  84.0936
 45.3496  7117.82  83.6519
 45.3916  7119.35  83.952
 45.4336  7309.36  84.9326
 45.4756  7168.29  83.933
 45.5176  7315.3  84.4553
 45.5596  7410.72  85.0863
 45.6016  7153.36  84.0133
 45.6436  7158.06  83.2294
 45.6856  7171.87  83.9617
 45.7276  7188.56  85.8704
 45.7696  7254.37  85.4378
 45.8116  7096.18  84.0037
 45.8536  7162.3  84.2971
 45.8956  7289.55  84.3949
 45.9376  7255.85  83.6666
 45.9796  7312.85  84.6993
 46.0216  7192.68  84.324
 46.0636  7467.61  85.0338
 46.1056  7322.52  84.2181
 46.1476  7311.76  84.7346
 46.1896  7229.51  84.4092
 46.2316  7208.51  84.1514
 46.2736  7139.67  83.9611
 46.3156  7318.51  84.7557
 46.3576  7195.19  84.2397
 46.3996  7182.09  84.3167
 46.4416  7178.09  83.849
 46.4836  7173.8  84.2065
 46.5256  7197.2  84.2782
 46.5676  7198.94  84.4061
 46.6096  7133.72  83.9527
 46.6516  7233.7  83.5977
 46.6936  7112.92  83.3817
 46.7356  7249.54  84.2711
 46.7776  7194.64  84.7359
 46.8196  7151.38  84.2358
 46.8616  7105.82  83.7381
 46.9036  7088.04  83.3281
 46.9456  7046.25  82.689
 46.9876  7176.93  83.5612
 47.0296  7125.76  83.9239
 47.0716  6947.27  82.7194
 47.1136  7138.83  83.5481
 47.1556  7135.78  83.3788
 47.1976  7113.42  83.4035
 47.2396  6992.98  83.0136
 47.2816  7045.3  83.0402
 47.3236  7133.73  83.9171
 47.3656  7140.26  83.896
 47.4076  7212.58  84.0212
 47.4496  7078.83  83.4223
 47.4916  7186.42  84.2288
 47.5336  7107.97  83.6028
 47.5756  7229.73  84.3624
 47.6176  7068.73  83.3816
 47.6596  7124.04  83.4379
 47.7016  7192.82  83.6386
 47.7436  7190.43  83.9788
 47.7856  7232.24  84.2581
 47.8276  7081.48  83.4086
 47.8696  7095.26  83.5607
 47.9116  7211.7  83.9666
 47.9536  7119.6  83.3395
 47.9956  7004.2  83.3922
 48.0376  7064.26  83.5313
 48.0796  7070.55  83.6838
 48.1216  7079.17  83.5711
 48.1636  7128.68  83.4431
 48.2056  7154.19  83.8414
 48.2476  7234.87  84.6364
 48.2896  7139.47  83.9732
 48.3316  7127.65  83.8059
 48.3736  7010.54  83.1718
 48.4156  7086.37  83.4621
 48.4576  7098.61  83.8401
 48.4996  7202.28  83.9133
 48.5416  7210.54  84.2978
 48.5836  7127.57  83.4692
 48.6256  7123.21  83.669
 48.6676  7069.43  83.8411
 48.7096  7146.35  83.5375
 48.7516  7232.03  84.2183
 48.7936  6948.97  82.6021
 48.8356  7094.63  83.5283
 48.8776  7031.71  83.6395
 48.9196  7177.8  83.972
 48.9616  7001.91  83.291
 49.0036  7038.41  83.8802
 49.0456  7064.88  84.0013
 49.0876  7059.23  83.578
 49.1296  6938.49  82.9478
 49.1716  7046.83  83.4456
 49.2136  7129.71  83.8881
 49.2556  7137.54  83.9566
 49.2976  7115.66  83.9204
 49.3396  6967.57  83.0789
 49.3816  7140.78  83.5444
 49.4236  7068.83  83.5411
 49.4656  7015.22  83.2157
 49.5076  7043.99  83.1538
 49.5496  7011.49  82.8853
 49.5916  7070.64  83.2958
 49.6336  7047.83  83.3644
 49.6756  7081.06  83.8068
 49.7176  7018.12  83.3572
 49.7596  7144.27  84.0668
 49.8016  6986.14  82.8487
 49.8436  7007.01  83.2659
 49.8856  7006.39  83.2736
 49.9276  6999.93  83.3514
 49.9696  7046.26  83.601
 50.0116  6995.41  83.4242
 50.0536  7026.52  83.5549
 50.0956  7019.28  83.583
 50.1376  6979  83.0315
 50.1796  6939.03  83.0753
 50.2216  6984.27  83.337
 50.2636  7054.21  83.3737
 50.3056  6952.61  82.9508
 50.3476  6977.28  83.1159
 50.3896  6971.55  83.0509
 50.4316  6994.96  83.0248
 50.4736  6969.13  83.0947
 50.5156  7002.99  83.2542
 50.5576  6980.48  82.9065
 50.5996  6995.26  83.281
 50.6416  6950.8  82.9439
 50.6836  6985.23  83.2306
 50.7256  6980.14  83.093
 50.7676  7177.56  84.6105
 50.8096  6924.28  82.6211
 50.8516  6898.84  82.8874
 50.8936  6957.08  82.9827
 50.9356  7045.58  83.6448
 50.9776  6955.31  83.2424
 51.0196  6751.82  82.1297
 51.0616  6857.06  82.1191
 51.1036  6887.39  82.6342
 51.1456  6831.76  82.2371
 51.1876  6917.49  82.061
 51.2296  6832.63  82.1847
 51.2716  6777.74  81.5426
 51.3136  6771.68  81.9904
 51.3556  6884.48  82.2656
 51.3976  6821.17  82.0642
 51.4396  6690.39  81.5797
 51.4816  6680.97  81.3761
 51.5236  6884.14  82.719
 51.5656  6768.62  81.5949
 51.6076  6804.71  81.9179
 51.6496  6667.17  81.2268
 51.6916  6643.29  81.4864
 51.7336  6672.15  81.7039
 51.7756  6809.69  82.2542
 51.8176  6687.62  81.5926
 51.8596  6739.36  81.9597
 51.9016  6908.62  82.5858
 51.9436  6809.97  83.5201
 51.9856  6785.87  83.7922
 52.0276  6779.53  82.2225
 52.0696  6859  82.7992
 52.1116  6699.99  81.8922
 52.1536  6798.97  82.3651
 52.1956  6812.7  81.9214
 52.2376  6834.55  82.2612
 52.2796  6798.79  81.8663
 52.3216  6651.4  81.6565
 52.3636  6766.43  81.9117
 52.4056  6682.47  81.2783
 52.4476  6784.73  82.2642
 52.4896  6657.33  81.5336
 52.5316  6772.8  82.3181
 52.5736  6624.37  81.0708
 52.6156  6795.91  82.5767
 52.6576  6774.05  81.8155
 52.6996  6593.37  81.7289
 52.7416  6573.25  81.4207
 52.7836  6722.41  82.2673
 52.8256  6678.5  81.2092
 52.8676  6545.91  80.9686
 52.9096  6702.47  81.9963
 52.9516  6709.18  82.4426
 52.9936  6667.67  82.5839
 53.0356  6784.23  82.336
 53.0776  6802.95  82.7606
 53.1196  6787.86  82.7574
 53.1616  6572.85  81.485
 53.2036  6657  81.9705
 53.2456  6750.87  82.6528
 53.2876  6686.8  81.9417
 53.3296  6677.26  82.2183
 53.3716  6860.76  83.0837
 53.4136  6613.02  81.7215
 53.4556  6716.24  82.3878
 53.4976  6720.81  82.2541
 53.5396  6559.2  81.6462
 53.5816  6708.62  82.2155
 53.6236  6530.64  81.4586
 53.6656  6638.03  81.7314
 53.7076  6693.85  82.0388
 53.7496  6759.71  82.5773
 53.7916  6681.14  82.2272
 53.8336  6613.11  81.6891
 53.8756  6623.9  82.307
 53.9176  6615.5  81.6038
 53.9596  6451.7  81.2625
 54.0016  6366.64  80.0971
 54.0436  6328.53  80.0478
 54.0856  6573.29  81.0318
 54.1276  6463.03  80.5362
 54.1696  6479.17  80.8053
 54.2116  6482.75  80.5934
 54.2536  6436.13  80.1068
 54.2956  6367.18  79.7223
 54.3376  6357.07  80.1391
 54.3796  6393.98  80.2778
 54.4216  6476.63  80.8417
 54.4636  6419.6  80.45
 54.5056  6412.53  80.1977
 54.5476  6332.09  80.0444
 54.5896  6298.81  79.6484
 54.6316  6435.9  80.3754
 54.6736  6396.02  80.1759
 54.7156  6379.63  80.1416
 54.7576  6215.17  79.0838
 54.7996  6387.18  80.3497
 54.8416  6395.06  80.4333
 54.8836  6382.96  80.4495
 54.9256  6314.69  79.7665
 54.9676  6265.41  79.2969
 55.0096  6349.63  79.8761
 55.0516  6238.81  79.3514
 55.0936  6298.33  79.4609
 55.1356  6186.52  78.8037
 55.1776  6410.56  80.4608
 55.2196  6271.51  79.3744
 55.2616  6467.13  80.8395
 55.3036  6091.12  78.6004
 55.3456  6160.29  79.1507
 55.3876  6324.09  79.9667
 55.4296  6151.08  78.8442
 55.4716  6210.65  79.2542
 55.5136  6256.23  79.3227
 55.5556  6371.92  80.1182
 55.5976  6306.8  79.7695
 55.6396  6276.56  79.4467
 55.6816  6249.32  79.2313
 55.7236  6210.35  79.1225
 55.7656  6293.89  79.2688
 55.8076  6174.08  78.5158
 55.8496  6361.32  80.1467
 55.8916  6147.05  78.8281
 55.9336  6335.16  79.9174
 55.9756  6098.15  78.2635
 56.0176  6128.24  78.6015
 56.0596  6003.97  77.8073
 56.1016  6101.51  78.462
 56.1436  6168.28  79.1334
 56.1856  6073.18  78.2576
 56.2276  6291.48  79.7277
 56.2696  6102.63  78.4865
 56.3116  6287.42  80.0553
 56.3536  6129.65  78.6934
 56.3956  6096.27  78.4753
 56.4376  6148.81  78.8528
 56.4796  6009.05  77.7552
 56.5216  6090.18  78.6677
 56.5636  6128.3  78.4686
 56.6056  6212.04  79.2619
 56.6476  6094.7  78.1287
 56.6896  6197.59  79.2319
 56.7316  6056.36  78.2328
 56.7736  6123.58  78.6806
 56.8156  6091.77  78.4826
 56.8576  5968.48  77.612
 56.8996  6124.29  78.558
 56.9416  5944.52  77.5373
 56.9836  6136.96  78.4853
 57.0256  5989.02  77.8121
 57.0676  6121.78  78.8288
 57.1096  6060.36  78.2
 57.1516  5954.32  77.5028
 57.1936  6028.38  77.7848
 57.2356  5982.53  77.801
 57.2776  6073.1  78.3855
 57.3196  6115.01  78.9777
 57.3616  6052.59  78.1006
 57.4036  5986.56  77.69
 57.4456  6148.89  78.7482
 57.4876  6011.77  77.7284
 57.5296  5972.07  77.6857
 57.5716  5999.9  77.9814
 57.6136  5938.59  77.4047
 57.6556  6020.52  78.0717
 57.6976  6083.97  78.3113
 57.7396  5848.81  77.1385
 57.7816  5892.32  77.7712
 57.8236  5886.07  77.5224
 57.8656  6073.81  78.4166
 57.9076  5934.16  77.5433
 57.9496  6002.32  78.3323
 57.9916  5956.1  77.505
 58.0336  5923.71  77.6171
 58.0756  5975.33  77.5546
 58.1176  5974.92  77.5781
 58.1596  5926.94  77.8507
 58.2016  5836.85  76.477
 58.2436  5754.55  76.3169
 58.2856  5613.51  75.2783
 58.3276  5711.54  76.3102
 58.3696  5752.37  76.3717
 58.4116  5714.72  75.9662
 58.4536  5823.97  76.5991
 58.4956  5691.19  75.8739
 58.5376  5808.26  76.2306
 58.5796  5777.97  76.4204
 58.6216  5755.95  76.1222
 58.6636  5677.77  75.7834
 58.7056  5691.24  75.7589
 58.7476  5637.54  75.8297
 58.7896  5622.62  75.3859
 58.8316  5726.93  76.1017
 58.8736  5758.54  76.2996
 58.9156  5676.63  75.8192
 58.9576  5745.46  76.4599
 58.9996  5730.16  75.7575
 59.0416  5672.07  75.6771
 59.0836  5671.5  75.6139
 59.1256  5697.43  76.1521
 59.1676  5667.68  76.5697
 59.2096  5800.43  76.712
 59.2516  5594.45  74.935
 59.2936  5673.42  75.7795
 59.3356  5759.18  76.2308
 59.3776  5794.21  76.6277
 59.4196  5661.88  75.685
 59.4616  5708.12  75.8582
 59.5036  5581.13  75.0425
 59.5456  5778.76  76.0611
 59.5876  5864.16  76.8091
 59.6296  5560.74  74.8619
 59.6716  5728.85  76.0415
 59.7136  5731.55  76.048
 59.7556  5658.56  75.6941
 59.7976  5609.02  75.1139
 59.8396  5762.03  76.0284
 59.8816  5649.44  75.809
 59.9236  5673.02  75.6218
 59.9656  5674.05  75.881
 60.0076  5644.22  75.0609
 60.0496  5686.53  75.8295
 60.0916  5840.22  76.2765
 60.1336  5523.9  75.2395
 60.1756  5571.51  76.699
 60.1996  0.0000000E+00  0.0000000E+00