File: docs/examples/opeando_xrd/IS17_D/Data/IS17_D/17_Da_f00043.xye
# /beamlines/bl04/projects/cycle2025-II/20250340211-lsimonelli/DATA/IS17_D/17_Da_f00043.xye : mythproc.py merge -s 0.006 -l 0.5 -f /beamlines/bl04/inhouse/ff/FlatField/ff_20Nov2024rod8mm60s_17keV.raw -b True -c true -o xye /beamlines/bl04/projects/cycle2025-II/20250340211-lsimonelli/DATA/IS17_D/17_Da_00043.dat
# IsMon = [6760097, 6759195, 6758277]  IsPos = [-1.4999, -2.4885, -3.4986]
# Wave = 0.4962  CalPath /beamlines/bl04/projects/cycle2025-II/20250340211-lsimonelli/DATA/Align/Si_Pos1_25keV_f00001.cal
# Date = 2025-09-24_05:31:20 Dt = 4.8000  Bin = 0.0060  <imon> = 6759190 +/- 743 (Min/Max) 6758277 / 6760097
# icurr 249.8630  mocoIn 1.7049E-05  mocoOut 0.7996  i15 7.07432e+06  imon 6.75919e+06  i7 5.3333  iEMpd_timer 4.8000  iEMpd_1 3.3942E-08  iEMpd_2 7.7572E-08  iEMpd_3 1.5840E-08  iEMpd_4 4.8893E-08  iEMhp_timer 4.8000  iEMhp_1 4.8824E-06  iEMhp_2 -2.5763E-08  iEMhp_3 -2.3818E-08  iEMhp_4 -2.0732E-08
#      9776
 1.5856  40986.4  207.871
 1.6276  48498.8  222.24
 1.6696  55240.2  236.347
 1.7116  63894.7  254.685
 1.7536  72419.2  269.988
 1.7956  77784.4  280.508
 1.8376  74339  274.661
 1.8796  62309.7  249.607
 1.9216  50615.2  225.866
 1.9636  42897.3  207.082
 2.0056  38452.3  195.299
 2.0476  35795.6  190.497
 2.0896  34645.6  186.313
 2.1316  33272.4  181.706
 2.1736  32079.4  179.834
 2.2156  32333.5  179.096
 2.2576  31475.7  177.339
 2.2996  29959.5  173.649
 2.3416  30535.2  173.909
 2.3836  30247.7  173.196
 2.4256  29049  170.283
 2.4676  28728.8  169.102
 2.5096  28392.8  168.165
 2.5516  28045.1  171.001
 2.5936  27989.6  167.392
 2.6356  27381.9  166.263
 2.6776  27363.1  165.074
 2.7196  26897.9  164.188
 2.7616  26886.7  163.933
 2.8036  26412.1  162.653
 2.8456  26518.9  163.61
 2.8876  26076.2  162.084
 2.9296  25678.7  160.998
 2.9716  25345.5  159.435
 3.0136  24887  158.054
 3.0556  24970.1  158.714
 3.0976  24907.7  157.441
 3.1396  24645.9  157.326
 3.1816  24136.8  155.633
 3.2236  24232.7  155.938
 3.2656  23918.6  153.965
 3.3076  24092  155.989
 3.3496  24496.6  156.469
 3.3916  24613.2  156.41
 3.4336  24872.6  157.817
 3.4756  25189.2  158.741
 3.5176  25990.7  161.04
 3.5596  25988.3  163.497
 3.6016  26200.3  161.752
 3.6436  25193.6  159.724
 3.6856  24861.8  156.954
 3.7276  24011.2  155.341
 3.7696  23638.2  154.332
 3.8116  23242.8  152.913
 3.8536  23210  152.739
 3.8956  23301.4  152.865
 3.9376  23068.8  152.395
 3.9796  23020.9  151.704
 4.0216  23074.2  150.914
 4.0636  22861  151.682
 4.1056  23074.2  152.031
 4.1476  23318  153.146
 4.1896  23591.4  153.904
 4.2316  23537.1  153.552
 4.2736  24157.6  155.346
 4.3156  24241.4  155.85
 4.3576  24877.9  157.816
 4.3996  25204.2  158.898
 4.4416  25626.3  160.009
 4.4836  26242.7  162.078
 4.5256  26536.7  163.59
 4.5676  26522.1  163.804
 4.6096  27121  164.287
 4.6516  27419  164.904
 4.6936  27664.9  166.46
 4.7356  27813.9  166.734
 4.7776  27752.7  166.384
 4.8196  27316.9  165.713
 4.8616  26903.4  164.075
 4.9036  26555  162.619
 4.9456  26773.6  163.941
 4.9876  25982.9  161.405
 5.0296  26403.4  162.518
 5.0716  26183.3  162.481
 5.1136  26396.6  162.99
 5.1556  26616.3  163.134
 5.1976  26925.4  164.063
 5.2396  27110  164.326
 5.2816  27007.9  164.474
 5.3236  27156.7  164.636
 5.3656  26691.6  164.139
 5.4076  26365.6  163.285
 5.4496  26614  163.544
 5.4916  26728.6  163.647
 5.5336  26623.9  163.338
 5.5756  26329.3  162.45
 5.6176  26660.9  162.913
 5.6596  26514.8  163.429
 5.7016  26840  163.7
 5.7436  27169.3  164.973
 5.7856  27050.4  164.669
 5.8276  27339.5  165.276
 5.8696  27393.6  165.608
 5.9116  27260.9  165.781
 5.9536  27428.3  166.061
 5.9956  27911.2  166.882
 6.0376  27809.3  167.219
 6.0796  28397.1  168.807
 6.1216  28405.9  169.04
 6.1636  28377.4  168.015
 6.2056  28477.7  168.977
 6.2476  28718  169.564
 6.2896  28923.6  169.849
 6.3316  28744.4  169.491
 6.3736  28924.3  169.917
 6.4156  28992.7  170.01
 6.4576  29089.9  169.907
 6.4996  29494.3  171.568
 6.5416  29600.4  172.011
 6.5836  29496.1  171.946
 6.6256  29516.8  171.565
 6.6676  29992.3  172.506
 6.7096  30009.5  173.407
 6.7516  30326.1  173.975
 6.7936  30625.7  174.004
 6.8356  30471.3  173.897
 6.8776  31016.6  176.257
 6.9196  30906.7  176.341
 6.9616  31269.2  176.788
 7.0036  31724.3  177.749
 7.0456  31868.7  177.447
 7.0876  31743.5  178.788
 7.1296  31853.3  178.231
 7.1716  31727  177.413
 7.2136  31568.1  176.753
 7.2556  31767.2  177.472
 7.2976  31687.6  177.748
 7.3396  31529  177.515
 7.3816  31614.5  177.969
 7.4236  31989  178.311
 7.4656  32007.3  177.847
 7.5076  32268  178.702
 7.5496  32185  179.016
 7.5916  32111.5  178.836
 7.6336  32753.4  180.514
 7.6756  32933.9  180.86
 7.7176  32944.7  181.194
 7.7596  32950.6  182.461
 7.8016  33204.4  185.322
 7.8436  33539.8  182.964
 7.8856  33744  183.142
 7.9276  34756.8  186.262
 7.9696  34599.5  186.149
 8.0116  35740  188.097
 8.0536  35817.3  188.185
 8.0956  35623.9  188.84
 8.1376  36260.6  190.001
 8.1796  36490.2  191.143
 8.2216  37027.8  191.286
 8.2636  37351.5  192.369
 8.3056  37381.9  193.223
 8.3476  37899.8  193.881
 8.3896  37733  193.981
 8.4316  37945.3  194.242
 8.4736  37830.2  193.415
 8.5156  37430.4  192.66
 8.5576  37255.3  193.187
 8.5996  37625.6  193.01
 8.6416  37111.3  192.94
 8.6836  36952.7  192.369
 8.7256  37653.2  193.614
 8.7676  36690.4  194.02
 8.8096  36772.8  191.537
 8.8516  36772.9  191.157
 8.8936  36060.7  189.183
 8.9356  36134.1  189.712
 8.9776  36116.4  189.78
 9.0196  36043.3  189.248
 9.0616  36118.7  188.932
 9.1036  35733.1  189.108
 9.1456  35857.4  188.787
 9.1876  35915.2  188.89
 9.2296  36028.7  188.597
 9.2716  35294.4  186.723
 9.3136  35369.6  186.909
 9.3556  35345.4  186.822
 9.3976  34004.4  183.764
 9.4396  34413  184.765
 9.4816  33877.4  183.177
 9.5236  34249.3  184.096
 9.5656  33809.1  183.23
 9.6076  33603.4  183.201
 9.6496  33336.3  182.395
 9.6916  33353.9  182.42
 9.7336  33114.3  181.539
 9.7756  33634.7  184.306
 9.8176  32652.3  180.998
 9.8596  32576.5  179.25
 9.9016  32204.7  178.216
 9.9436  32047.5  177.695
 9.9856  31615.3  176.713
 10.0276  30976.4  176.008
 10.0696  31565.3  176.722
 10.1116  30575  174.189
 10.1536  30621  174.484
 10.1956  29930.1  172.105
 10.2376  29521.9  170.438
 10.2796  29860.7  171.544
 10.3216  29463.5  170.66
 10.3636  29197.3  169.927
 10.4056  28969.8  169.648
 10.4476  28836.2  168.891
 10.4896  28997.1  168.819
 10.5316  28236.8  167.288
 10.5736  27732.5  166.183
 10.6156  27700.3  165.861
 10.6576  27894  165.032
 10.6996  27567.1  164.711
 10.7416  27349.2  164.297
 10.7836  27232.8  164.633
 10.8256  26999.9  164.352
 10.8676  27087.4  164.159
 10.9096  26718.3  163.075
 10.9516  26343.6  160.881
 10.9936  26589.7  161.82
 11.0356  26356.3  161.739
 11.0776  26206.5  160.6
 11.1196  25826.2  160.169
 11.1616  25473.9  158.76
 11.2036  25589.6  158.981
 11.2456  25572.5  159.622
 11.2876  25414.6  158.864
 11.3296  25133  157.881
 11.3716  25397.8  158.408
 11.4136  25349.2  159.142
 11.4556  25412.2  159.014
 11.4976  25466.9  158.172
 11.5396  25586.8  158.712
 11.5816  26188.8  161.019
 11.6236  26810  163.364
 11.6656  26857.2  162.426
 11.7076  26204  161.285
 11.7496  25518.1  163.107
 11.7916  25330.4  157.844
 11.8336  24897  157.399
 11.8756  24477.3  155.577
 11.9176  24861.2  156.704
 11.9596  24502.1  155.497
 12.0016  24239.8  155.453
 12.0436  24360.9  155.262
 12.0856  24082.2  154.898
 12.1276  24096.4  154.85
 12.1696  24109.6  154.04
 12.2116  24392.9  154.943
 12.2536  24045.1  154.659
 12.2956  24066.1  154.068
 12.3376  23745.2  153.236
 12.3796  23878.1  154.122
 12.4216  24049.8  153.898
 12.4636  23572.5  153.276
 12.5056  23617.9  152.692
 12.5476  23928.1  153.228
 12.5896  23789.5  153.416
 12.6316  23594.6  152.938
 12.6736  23968.4  154.477
 12.7156  23447  152.8
 12.7576  23747.9  154.023
 12.7996  23963.7  153.367
 12.8416  23562.1  153.119
 12.8836  23923.5  154.098
 12.9256  24216.2  154.076
 12.9676  24328.7  154.861
 13.0096  24202.6  155.539
 13.0516  24409.2  155.248
 13.0936  24323.4  155.369
 13.1356  24783.2  155.82
 13.1776  24485.1  155.866
 13.2196  24800.6  156.524
 13.2616  24650.5  156.365
 13.3036  24716.9  156.543
 13.3456  24552.7  156.175
 13.3876  24591.6  155.792
 13.4296  24309.2  155.048
 13.4716  24771.2  156.117
 13.5136  24532.4  155.523
 13.5556  24590.3  156.319
 13.5976  24566  156.375
 13.6396  24824  156.574
 13.6816  24237  155.195
 13.7236  25334.9  158.296
 13.7656  24139.9  155.062
 13.8076  24574.1  155.236
 13.8496  24219  154.709
 13.8916  24272.8  155.888
 13.9336  24186.8  154.838
 13.9756  24122.8  153.985
 14.0176  23988.1  154.236
 14.0596  24012.5  154.278
 14.1016  23677.1  153.591
 14.1436  23410  151.855
 14.1856  23340.3  151.924
 14.2276  22888.9  150.924
 14.2696  23303.8  152.135
 14.3116  22878.4  150.639
 14.3536  22608.9  149.922
 14.3956  22528.8  149.389
 14.4376  22909.8  150.425
 14.4796  22619  149.46
 14.5216  22197.2  148.855
 14.5636  22027.2  147.852
 14.6056  22138.4  147.802
 14.6476  22184.9  147.187
 14.6896  21907.2  146.8
 14.7316  21507.7  146.483
 14.7736  21513.8  145.657
 14.8156  21070.8  144.182
 14.8576  21068.4  144.025
 14.8996  20864.5  144.537
 14.9416  20281.9  142.5
 14.9836  20548.5  143.398
 15.0256  20338.1  141.591
 15.0676  20234.9  141.548
 15.1096  20146.3  140.974
 15.1516  19794.8  140.292
 15.1936  19725.4  139.479
 15.2356  19362.3  138.467
 15.2776  19434  138.31
 15.3196  18884.3  137.334
 15.3616  19046.9  137.681
 15.4036  18868.5  136.896
 15.4456  19171.7  137.41
 15.4876  18764.1  135.847
 15.5296  18636  135.657
 15.5716  18558  134.983
 15.6136  18346.1  134.535
 15.6556  18409  134.009
 15.6976  18496  134.401
 15.7396  18313.8  134.343
 15.7816  17955.9  132.534
 15.8236  17770.2  132.551
 15.8656  18021.1  133.268
 15.9076  17548.4  131.338
 15.9496  17360.1  133.381
 15.9916  17530.4  134.493
 16.0336  17231.7  130.236
 16.0756  17158.4  130.271
 16.1176  17003.7  129.754
 16.1596  16520.7  129.054
 16.2016  16928.2  129.39
 16.2436  16679.5  128.819
 16.2856  16744.9  128.616
 16.3276  16233.7  127.048
 16.3696  16441.4  127.672
 16.4116  16311  127.626
 16.4536  16654  128.749
 16.4956  16244.4  126.894
 16.5376  16312.5  127.349
 16.5796  16361.6  126.903
 16.6216  16170.6  126.459
 16.6636  16248.2  126.921
 16.7056  16265.4  126.85
 16.7476  16162.6  126.124
 16.7896  16273  127.157
 16.8316  16189.3  126.789
 16.8736  15979.8  126.223
 16.9156  16288.5  127.778
 16.9576  15968.1  127.307
 16.9996  16225.5  128.816
 17.0416  16079.2  126.593
 17.0836  16141.8  126.589
 17.1256  16159  126.68
 17.1676  16003.4  126.058
 17.2096  15877.8  125.441
 17.2516  15795.7  124.9
 17.2936  15852.1  125.444
 17.3356  15465.7  123.906
 17.3776  15618.9  124.714
 17.4196  15605.2  124.355
 17.4616  15424.7  123.549
 17.5036  15061.9  122.45
 17.5456  14918.7  122.505
 17.5876  15063.5  122.147
 17.6296  15150.3  122.319
 17.6716  14928.3  121.987
 17.7136  14616.7  120.842
 17.7556  14638.8  121.228
 17.7976  14603.8  120.696
 17.8396  14510.3  119.944
 17.8816  14538.5  120.6
 17.9236  14320.3  119.505
 17.9656  14552.3  121.17
 18.0076  14392.5  119.924
 18.0496  14440.7  119.271
 18.0916  14329.4  119.339
 18.1336  14363.3  119.581
 18.1756  14495  119.656
 18.2176  14259.6  118.91
 18.2596  14246.1  118.592
 18.3016  14285.6  119.009
 18.3436  14357.3  119.546
 18.3856  14063.2  118.21
 18.4276  14080  117.969
 18.4696  14076.6  118.044
 18.5116  13914.1  117.642
 18.5536  14190.3  119.163
 18.5956  13886.8  117.439
 18.6376  14013.8  118.374
 18.6796  13867.3  117.09
 18.7216  14015  118.267
 18.7636  13812.4  117.324
 18.8056  13840.6  117.387
 18.8476  13669.8  116.976
 18.8896  13819.8  117.26
 18.9316  14000.9  117.85
 18.9736  13860.8  117.12
 19.0156  13840.8  117.414
 19.0576  13736.6  115.872
 19.0996  13958  117.508
 19.1416  13676.2  116.696
 19.1836  13699.7  116.411
 19.2256  13614.1  116.254
 19.2676  13703.8  116.734
 19.3096  13803.9  117.397
 19.3516  13676.4  116.814
 19.3936  13726.2  116.995
 19.4356  13727.3  116.801
 19.4776  13706.4  116.814
 19.5196  13726.3  116.755
 19.5616  13696.6  116.876
 19.6036  13671.9  116.125
 19.6456  13498.5  115.65
 19.6876  13767  116.451
 19.7296  13677.4  116.515
 19.7716  13593.4  116.17
 19.8136  13637.1  116.71
 19.8556  13887.8  117.26
 19.8976  13582.2  116.03
 19.9396  13656  115.933
 19.9816  13934.6  117.347
 20.0236  13867.8  117.276
 20.0656  14297.2  119.079
 20.1076  14300.7  119.545
 20.1496  14442.3  120.146
 20.1916  14776.6  121.035
 20.2336  14872.4  121.353
 20.2756  14629.8  120.807
 20.3176  14299.1  119.178
 20.3596  14139.3  118.487
 20.4016  13836.9  117.014
 20.4436  13744.7  117.195
 20.4856  13520.3  116.009
 20.5276  13566.3  116.678
 20.5696  13400.7  115.414
 20.6116  13341.4  115.434
 20.6536  13392.9  115.219
 20.6956  13194.3  114.439
 20.7376  13188.5  114.643
 20.7796  13344.1  114.999
 20.8216  13299  114.514
 20.8636  13194.1  114.424
 20.9056  13150.6  114.189
 20.9476  12940.4  113.111
 20.9896  13320.8  114.628
 21.0316  13178.2  113.914
 21.0736  12997.3  113.646
 21.1156  13037.9  113.984
 21.1576  13033.4  114.008
 21.1996  12992.4  113.811
 21.2416  12963.2  113.513
 21.2836  12882.7  113.122
 21.3256  12814  112.903
 21.3676  12920.6  112.927
 21.4096  12784.6  112.637
 21.4516  12780.9  112.502
 21.4936  12815.1  112.897
 21.5356  12784.1  112.711
 21.5776  12898.5  113.048
 21.6196  12628.9  111.888
 21.6616  12599.2  111.85
 21.7036  12730.7  112.214
 21.7456  12748  112.364
 21.7876  12616.1  111.533
 21.8296  12723.5  111.865
 21.8716  12617.1  111.622
 21.9136  12814.5  112.695
 21.9556  12618.3  111.507
 21.9976  12582.9  111.366
 22.0396  12506.6  111.274
 22.0816  12631.6  112.378
 22.1236  12616.8  111.764
 22.1656  12624.1  111.971
 22.2076  12659.4  111.56
 22.2496  12715.9  111.832
 22.2916  12696.4  111.624
 22.3336  12626.5  112.027
 22.3756  12567.5  111.506
 22.4176  12524.5  111.172
 22.4596  12451.3  111.433
 22.5016  12586.6  111.521
 22.5436  12730.9  112.052
 22.5856  12456.7  111.081
 22.6276  12421.7  111.058
 22.6696  12732.3  112.79
 22.7116  12453.3  111.064
 22.7536  12666.9  111.991
 22.7956  12626.4  111.141
 22.8376  12439.2  110.836
 22.8796  12673.2  111.673
 22.9216  12683.9  112.269
 22.9636  12607.2  111.079
 23.0056  12555.8  110.987
 23.0476  12638.6  111.917
 23.0896  12886.1  112.386
 23.1316  12649.3  111.784
 23.1736  12401.5  113.605
 23.2156  12861.3  112.946
 23.2576  12485.2  111.503
 23.2996  12651.9  112.037
 23.3416  12727.2  112.878
 23.3836  12824.8  112.531
 23.4256  12655.9  111.916
 23.4676  12694.4  111.782
 23.5096  12577.8  111.948
 23.5516  12637.4  111.494
 23.5936  12530  111.919
 23.6356  12750.8  112.566
 23.6776  12491.3  111.961
 23.7196  12381.2  110.714
 23.7616  12588.8  111.556
 23.8036  12367.2  110.61
 23.8456  12524.2  110.886
 23.8876  12233.9  109.933
 23.9296  12365.1  111.015
 23.9716  12336.1  110.078
 24.0136  12374.3  111.151
 24.0556  12163.8  109.936
 24.0976  12151  109.685
 24.1396  12067.5  111.95
 24.1816  12164.3  111.142
 24.2236  12093.3  110.097
 24.2656  11969.9  109.011
 24.3076  11986.6  109.34
 24.3496  11895.6  108.814
 24.3916  11853.4  108.666
 24.4336  11885.2  109.02
 24.4756  11921  109.061
 24.5176  11659.9  107.505
 24.5596  11624.3  107.463
 24.6016  11598.7  107.633
 24.6436  11592.8  107.097
 24.6856  11458.4  106.242
 24.7276  11577  107.109
 24.7696  11482.7  106.781
 24.8116  11429.5  106.716
 24.8536  11345.6  106.317
 24.8956  11398.9  106.305
 24.9376  11272.1  105.65
 24.9796  10983.8  104.637
 25.0216  11039.9  105.011
 25.0636  11309.5  105.943
 25.1056  11177.3  105.747
 25.1476  11253.6  108.048
 25.1896  11241  106.471
 25.2316  11193.1  105.403
 25.2736  11246.2  105.423
 25.3156  11118.8  104.898
 25.3576  11087.5  105.167
 25.3996  11090.3  105.157
 25.4416  11068  105.043
 25.4836  10913.4  104.824
 25.5256  11128.6  105.219
 25.5676  10996.5  104.323
 25.6096  10949.6  104.671
 25.6516  10995.3  104.386
 25.6936  10890.8  104.203
 25.7356  10850.2  104.146
 25.7776  10986.1  104.397
 25.8196  10660.2  103.065
 25.8616  10891.4  104.104
 25.9036  10966.5  103.933
 25.9456  10932.2  104.366
 25.9876  10818  103.884
 26.0296  10902.4  103.891
 26.0716  10703.1  103.261
 26.1136  10806.4  103.709
 26.1556  10845.9  103.186
 26.1976  10763.5  103.805
 26.2396  10823.6  103.503
 26.2816  10763.3  103.564
 26.3236  10824.2  103.944
 26.3656  10796  103.609
 26.4076  10913.9  104.378
 26.4496  11263.3  105.525
 26.4916  10943.4  104.03
 26.5336  10933  104.301
 26.5756  11012.3  104.536
 26.6176  10756.5  103.371
 26.6596  10642.3  103.12
 26.7016  10799.1  103.684
 26.7436  10547.1  102.551
 26.7856  10586.7  102.728
 26.8276  10625.6  102.868
 26.8696  10749  103.335
 26.9116  10495.2  102.039
 26.9536  10603.6  102.628
 26.9956  10480.6  102.058
 27.0376  10446.5  102.106
 27.0796  10512.6  102.204
 27.1216  10372.8  101.554
 27.1636  10296  101.343
 27.2056  10325.2  101.374
 27.2476  10307.4  101.287
 27.2896  10341.6  101.492
 27.3316  10329.5  101.217
 27.3736  10273.7  101.214
 27.4156  10197.2  100.672
 27.4576  10203.3  100.935
 27.4996  10134.1  100.188
 27.5416  10147.9  100.575
 27.5836  10205.1  100.664
 27.6256  10516.3  102.348
 27.6676  10320.5  101.434
 27.7096  10091  100.165
 27.7516  10028.2  100.004
 27.7936  10103.5  100.54
 27.8356  10192.7  100.608
 27.8776  10038.2  99.883
 27.9196  10110.4  100.092
 27.9616  10076.1  100.117
 28.0036  9977.56  99.5894
 28.0456  10027.7  99.9817
 28.0876  9941.45  99.6383
 28.1296  10003.9  99.7901
 28.1716  9934.65  99.4472
 28.2136  9971.25  99.6046
 28.2556  9800.76  98.8582
 28.2976  9810.39  98.901
 28.3396  9929.92  99.3007
 28.3816  9876.31  99.015
 28.4236  9855.96  99.0683
 28.4656  9862.96  99.1376
 28.5076  9740.67  98.1611
 28.5496  9852.75  98.9845
 28.5916  9924.86  99.1534
 28.6336  9698.31  98.3502
 28.6756  9863.21  98.3907
 28.7176  9843.75  98.8389
 28.7596  9689.37  97.958
 28.8016  9832.63  98.8022
 28.8436  9675.02  98.1631
 28.8856  9711.57  98.1947
 28.9276  9796.2  98.8651
 28.9696  9618.22  97.6224
 29.0116  9679.22  98.111
 29.0536  9551.75  97.6761
 29.0956  9685.31  98.0738
 29.1376  9651.16  97.865
 29.1796  9495.88  97.1139
 29.2216  9661.05  97.7973
 29.2636  9543.49  97.192
 29.3056  9679.9  97.7633
 29.3476  9544.65  97.5957
 29.3896  9725.51  98.6055
 29.4316  9656.15  97.6077
 29.4736  9538.12  97.0739
 29.5156  9794.11  98.2819
 29.5576  9713.69  98.6197
 29.5996  9617.96  97.3967
 29.6416  9560.91  97.2178
 29.6836  9559.78  97.1429
 29.7256  9587.93  97.8559
 29.7676  9687.16  98.0175
 29.8096  9422.48  96.6153
 29.8516  9417.53  96.9241
 29.8936  9588.79  97.8914
 29.9356  9611.15  97.7597
 29.9776  9492.41  97.3076
 30.0196  9528.11  96.8788
 30.0616  9591.78  97.5765
 30.1036  9454.5  96.6995
 30.1456  9350.58  96.4222
 30.1876  9424  96.7558
 30.2296  9374.87  96.4545
 30.2716  9480.97  96.6349
 30.3136  9497.95  97.3177
 30.3556  9426.17  97.2154
 30.3976  9358.45  98.3754
 30.4396  9568.41  96.8017
 30.4816  9571.46  96.4212
 30.5236  9339.12  95.2573
 30.5656  9401.61  96.2265
 30.6076  9303.77  95.1584
 30.6496  9329.98  95.6751
 30.6916  9335.74  95.8019
 30.7336  9257.4  95.5466
 30.7756  9335  96.2572
 30.8176  9360.38  96.0834
 30.8596  9330.47  95.7021
 30.9016  9443.63  96.6218
 30.9436  9325.73  95.7703
 30.9856  9331.2  95.9031
 31.0276  9347.55  95.5997
 31.0696  9248.3  95.5241
 31.1116  9259.44  95.6971
 31.1536  9358.83  96.0966
 31.1956  9197.8  95.3493
 31.2376  9227.27  95.5162
 31.2796  9166.18  94.7366
 31.3216  9245.94  95.0919
 31.3636  9346.02  96.2946
 31.4056  9202.5  96.8781
 31.4476  9200.58  94.7447
 31.4896  9074.41  94.5953
 31.5316  9048.41  93.9058
 31.5736  9271.67  94.8452
 31.6156  9146.69  94.2134
 31.6576  9343.87  95.3245
 31.6996  9164.8  94.0742
 31.7416  9030.92  94.428
 31.7836  9077.74  93.7094
 31.8256  9078.16  94.0572
 31.8676  9158.24  94.3914
 31.9096  8979.08  93.8161
 31.9516  8907.97  93.5981
 31.9936  8982.91  93.8227
 32.0356  9135.17  94.6808
 32.0776  9007.55  93.9005
 32.1196  9034.47  94.1276
 32.1616  9050.36  93.6666
 32.2036  8926.38  93.5348
 32.2456  8937.19  93.9688
 32.2876  8851.1  92.8567
 32.3296  8984.17  93.6775
 32.3716  8978.41  93.756
 32.4136  8943.43  93.7935
 32.4556  9017.24  93.6167
 32.4976  8958.13  93.1547
 32.5396  8927.52  93.0686
 32.5816  8980.12  93.3576
 32.6236  9023.64  93.7629
 32.6656  9097.12  94.6815
 32.7076  8866.98  93.1313
 32.7496  8983.94  93.4138
 32.7916  8892.33  92.9013
 32.8336  9008.74  93.5996
 32.8756  9005.43  93.3915
 32.9176  8859.93  93.0262
 32.9596  8919.33  93.4109
 33.0016  8921.17  93.2191
 33.0436  8998.35  93.7909
 33.0856  8783.09  92.7314
 33.1276  8763.63  92.3718
 33.1696  8847.23  92.6452
 33.2116  8918.95  93.2481
 33.2536  8805.27  92.6511
 33.2956  8857.47  93.0124
 33.3376  8849.27  92.6727
 33.3796  8833.3  92.8332
 33.4216  8794.39  92.2313
 33.4636  8886.83  92.8567
 33.5056  8888.16  92.9452
 33.5476  8679.09  91.9937
 33.5896  8868.49  92.7431
 33.6316  8812.44  92.7841
 33.6736  8650.27  92.172
 33.7156  8668.9  92.3189
 33.7576  8925.85  93.3036
 33.7996  8857.68  92.7117
 33.8416  8575.08  91.3983
 33.8836  8762.44  92.1682
 33.9256  8835.8  92.6112
 33.9676  8826.08  92.4656
 34.0096  8590.26  91.5326
 34.0516  8673.6  91.6141
 34.0936  8635.46  91.6774
 34.1356  8760.81  92.0789
 34.1776  8615.4  91.3256
 34.2196  8608.05  91.4648
 34.2616  8695.58  92.127
 34.3036  8395.56  90.7053
 34.3456  8693.16  92.0541
 34.3876  8530.65  91.1524
 34.4296  8541.9  90.9059
 34.4716  8630.17  91.522
 34.5136  8615.79  91.6504
 34.5556  8536.27  91.4811
 34.5976  8521.87  91.1986
 34.6396  8529.29  90.9552
 34.6816  8528.11  91.0594
 34.7236  8714.65  91.8408
 34.7656  8587.4  91.3615
 34.8076  8498.44  91.2051
 34.8496  8493.29  91.0428
 34.8916  8471.65  90.7959
 34.9336  8591.04  91.3924
 34.9756  8728.67  92.0461
 35.0176  8544.92  91.6003
 35.0596  8502.96  91.1993
 35.1016  8466.22  90.7741
 35.1436  8608.91  91.2225
 35.1856  8436.58  90.4328
 35.2276  8519  91.0493
 35.2696  8467.91  90.9618
 35.3116  8502  91.2411
 35.3536  8500.43  90.9445
 35.3956  8504.14  90.669
 35.4376  8379.38  90.5496
 35.4796  8439.75  90.9383
 35.5216  8397.88  90.5967
 35.5636  8251.58  90.6176
 35.6056  8482.43  90.8955
 35.6476  8438.71  90.5503
 35.6896  8401.17  90.5122
 35.7316  8313.84  89.9355
 35.7736  8352.8  90.3494
 35.8156  8369.76  90.4355
 35.8576  8427.31  91.0008
 35.8996  8565.94  91.7093
 35.9416  8487.7  90.7859
 35.9836  8324.56  90.2673
 36.0256  8361.07  90.4818
 36.0676  8441.84  90.4578
 36.1096  8221.81  89.626
 36.1516  8403.03  90.4969
 36.1936  8235.69  89.4372
 36.2356  8228.65  90.0324
 36.2776  8397.34  90.4373
 36.3196  8310.59  89.6241
 36.3616  8335.95  89.8981
 36.4036  8266.66  89.5846
 36.4456  8272.42  89.8252
 36.4876  8217.72  89.463
 36.5296  8308.23  89.9978
 36.5716  8207.84  90.2344
 36.6136  8333.59  89.7027
 36.6556  8409.1  90.3084
 36.6976  8244.95  89.9185
 36.7396  8328.26  90.1942
 36.7816  8176.8  89.6498
 36.8236  8250.76  89.9732
 36.8656  8078.42  89.1108
 36.9076  8234.01  89.964
 36.9496  8116.85  89.334
 36.9916  8121.84  88.8437
 37.0336  8323.92  90.2608
 37.0756  8254.52  89.6718
 37.1176  8145.77  89.4437
 37.1596  8177.09  89.525
 37.2016  8130.16  89.4447
 37.2436  8235.12  89.387
 37.2856  8112.84  88.9697
 37.3276  8277.59  89.2218
 37.3696  8084.91  89.053
 37.4116  8266.75  89.9583
 37.4536  8169.17  89.2921
 37.4956  8162.86  89.2921
 37.5376  8057.38  90.2634
 37.5796  7980.8  89.7947
 37.6216  7961.86  87.9682
 37.6636  7970.04  87.9081
 37.7056  8051.29  88.548
 37.7476  7992.2  87.7592
 37.7896  8057.97  88.6239
 37.8316  7802.58  87.3755
 37.8736  8117.79  88.6482
 37.9156  7958.94  87.7794
 37.9576  7977.11  87.9168
 37.9996  7814.98  86.5829
 38.0416  8037.52  88.6284
 38.0836  8266.67  89.7903
 38.1256  7811.93  87.2333
 38.1676  7857.38  87.6328
 38.2096  7952.68  87.7856
 38.2516  8124.26  88.8341
 38.2936  7969.63  87.8826
 38.3356  8073.09  88.3695
 38.3776  7860.95  87.4715
 38.4196  8103.39  88.667
 38.4616  7911.72  87.8459
 38.5036  8049.93  88.4532
 38.5456  7878.53  88.3374
 38.5876  7951.1  88.7725
 38.6296  7794.81  86.8779
 38.6716  7829.31  86.8602
 38.7136  7795.67  86.6205
 38.7556  7754.39  86.8874
 38.7976  7803.22  87.0999
 38.8396  7837.37  87.7406
 38.8816  7808.53  87.359
 38.9236  7892.01  87.6382
 38.9656  7830.81  87.2121
 39.0076  7783.73  86.3586
 39.0496  7845.21  87.2392
 39.0916  7946.31  87.4439
 39.1336  7863.7  87.4007
 39.1756  7845.33  87.3693
 39.2176  7678.51  86.9592
 39.2596  7851.84  87.8546
 39.3016  7833.49  87.3204
 39.3436  7737.42  87.2105
 39.3856  7915.69  87.6571
 39.4276  7832.51  87.6849
 39.4696  7768.82  86.9586
 39.5116  7721.08  87.1995
 39.5536  7963.01  88.9881
 39.5956  7993.83  88.2507
 39.6376  7950.5  87.8531
 39.6796  7867.85  87.3002
 39.7216  7864.24  87.3857
 39.7636  7834.58  87.7869
 39.8056  7829.47  87.5338
 39.8476  7825.49  87.7684
 39.8896  7785.03  87.1661
 39.9316  7814.15  87.585
 39.9736  7960.87  87.9702
 40.0156  7877.41  87.3361
 40.0576  7879.03  87.7064
 40.0996  8015.25  87.6403
 40.1416  7925  87.9323
 40.1836  7934.46  87.8794
 40.2256  7897.32  87.7194
 40.2676  7854.22  87.5804
 40.3096  7986.83  88.2469
 40.3516  7928.4  88.1101
 40.3936  7922.68  87.5601
 40.4356  7874.29  87.4773
 40.4776  8026.41  88.7413
 40.5196  7920.09  88.2771
 40.5616  7912.52  87.8718
 40.6036  7846.58  87.761
 40.6456  7958.2  87.9963
 40.6876  8048.97  88.4833
 40.7296  7990.86  88.2987
 40.7716  7930.91  88.0947
 40.8136  7957.4  88.1845
 40.8556  7980.39  88.4397
 40.8976  7885.98  87.839
 40.9396  7884.65  88.1808
 40.9816  8057.76  88.428
 41.0236  7962.63  87.6878
 41.0656  8160.18  89.3124
 41.1076  7957.35  87.963
 41.1496  8009.7  88.1651
 41.1916  7858.29  87.6488
 41.2336  7833.57  87.4998
 41.2756  7840.45  87.1378
 41.3176  7896.94  88.0704
 41.3596  7874.73  87.6793
 41.4016  7956.27  88.3957
 41.4436  7798.8  87.3034
 41.4856  8046.8  88.8427
 41.5276  7870.08  87.8819
 41.5696  7988.39  88.1515
 41.6116  7832.91  87.6955
 41.6536  7961.76  88.2747
 41.6956  7871.91  87.8255
 41.7376  7826.38  87.6013
 41.7796  7917.65  88.0473
 41.8216  7832.86  87.7588
 41.8636  7846.58  87.7754
 41.9056  7634.73  86.3769
 41.9476  7938.94  88.3129
 41.9896  7952.34  88.045
 42.0316  7856.73  87.5981
 42.0736  7836.01  87.5957
 42.1156  7778.34  87.1154
 42.1576  7881.96  87.7881
 42.1996  7793.1  87.4364
 42.2416  7920.08  87.7318
 42.2836  7745.12  86.8658
 42.3256  7789.76  87.231
 42.3676  7918.42  87.7493
 42.4096  7832.49  87.2364
 42.4516  7753.24  86.8773
 42.4936  7725.5  86.7946
 42.5356  7755.3  87.095
 42.5776  7835.89  87.4828
 42.6196  7821.45  87.3783
 42.6616  7776.23  87.3774
 42.7036  7950.03  87.7247
 42.7456  7792.28  87.2012
 42.7876  7776.76  87.2181
 42.8296  7819.2  87.3512
 42.8716  7751.44  87.0703
 42.9136  7739.24  86.7909
 42.9556  7852.84  87.5583
 42.9976  7828.88  87.3903
 43.0396  7707.27  86.4413
 43.0816  7741.66  87.0089
 43.1236  7696.19  86.8136
 43.1656  7766.42  87.0396
 43.2076  7653.08  86.5052
 43.2496  7710.1  86.6399
 43.2916  7649.23  86.6617
 43.3336  7748.94  87.0622
 43.3756  7692.92  86.5009
 43.4176  7617.62  86.1594
 43.4596  7666  86.2864
 43.5016  7659.62  86.6553
 43.5436  7701.16  86.7869
 43.5856  7653.96  86.5536
 43.6276  7592.69  86.1011
 43.6696  7624.57  86.4185
 43.7116  7693.62  86.424
 43.7536  7785.42  87.4332
 43.7956  7524.28  87.1269
 43.8376  7581.41  86.0078
 43.8796  7601.71  86.2142
 43.9216  7619.47  86.232
 43.9636  7520.58  85.7792
 44.0056  7606.09  86.4962
 44.0476  7661.35  86.4397
 44.0896  7563.55  86.22
 44.1316  7597.73  86.0814
 44.1736  7562.44  85.8748
 44.2156  7671.36  86.3362
 44.2576  7482.37  85.5906
 44.2996  7638.78  86.4502
 44.3416  7647.2  86.2644
 44.3836  7401.96  85.1816
 44.4256  7441.81  85.0688
 44.4676  7320.53  84.5259
 44.5096  7616.34  86.3592
 44.5516  7489.18  85.5962
 44.5936  7429.27  85.21
 44.6356  7503.05  85.3721
 44.6776  7485.56  85.5876
 44.7196  7550.18  86.2265
 44.7616  7536.4  87.5044
 44.8036  7372.57  84.9952
 44.8456  7498.59  85.9204
 44.8876  7455.91  85.5221
 44.9296  7457.91  84.9955
 44.9716  7424.19  85.2207
 45.0136  7341.79  84.6911
 45.0556  7425.69  85.1444
 45.0976  7478.83  85.6143
 45.1396  7239.66  84.0038
 45.1816  7372  84.5265
 45.2236  7396.63  84.7396
 45.2656  7320.52  84.8013
 45.3076  7341.76  84.703
 45.3496  7418.79  85.4528
 45.3916  7312.99  85.1052
 45.4336  7374.53  85.3076
 45.4756  7326.58  84.8956
 45.5176  7367.07  84.7379
 45.5596  7460.84  85.3931
 45.6016  7162.77  84.0882
 45.6436  7287.26  84.0043
 45.6856  7262.32  84.508
 45.7276  7245.17  86.2341
 45.7696  7274.23  85.5551
 45.8116  7367.97  85.549
 45.8536  7285.23  84.9583
 45.8956  7308.03  84.4463
 45.9376  7313.79  83.9486
 45.9796  7302.2  84.569
 46.0216  7319.17  84.9958
 46.0636  7447.06  84.8832
 46.1056  7252.96  83.7556
 46.1476  7146.68  83.7225
 46.1896  7436.37  85.554
 46.2316  7212.06  84.1238
 46.2736  7140.76  84.0684
 46.3156  7195.06  83.9793
 46.3576  7185.45  84.1232
 46.3996  7275.02  84.7989
 46.4416  7194.17  83.9145
 46.4836  7221.78  84.4269
 46.5256  7191.02  84.1869
 46.5676  7301.47  84.9445
 46.6096  7240.35  84.5242
 46.6516  7336.63  84.1245
 46.6936  7275.74  84.2609
 46.7356  7303.14  84.5135
 46.7776  7182.34  84.6682
 46.8196  7142.4  84.0273
 46.8616  6997.58  83.1207
 46.9036  7066.8  83.1967
 46.9456  7135.06  83.2398
 46.9876  7152.68  83.4226
 47.0296  7188.8  84.325
 47.0716  7019.39  83.146
 47.1136  7161.38  83.659
 47.1556  7122.67  83.3055
 47.1976  7216.19  83.935
 47.2396  7103.92  83.6671
 47.2816  7057.46  83.0975
 47.3236  7100.99  83.7259
 47.3656  7023.39  83.1942
 47.4076  7068.84  83.262
 47.4496  6968.09  82.7646
 47.4916  7010.22  83.2005
 47.5336  7119.47  83.6681
 47.5756  7049.99  83.3323
 47.6176  6952.96  82.6873
 47.6596  7039.86  82.9276
 47.7016  7179.54  83.5628
 47.7436  7058.97  83.1897
 47.7856  7081.2  83.3517
 47.8276  7047.12  83.1839
 47.8696  7034.18  83.2034
 47.9116  7115.31  83.4014
 47.9536  6957.78  82.4153
 47.9956  7002.54  83.3804
 48.0376  6893.67  82.5051
 48.0796  7053.86  83.579
 48.1216  7071.62  83.5161
 48.1636  7194.62  83.8111
 48.2056  7044.36  83.1929
 48.2476  7032.86  83.4197
 48.2896  7070.01  83.562
 48.3316  6906.9  82.5391
 48.3736  6994.27  83.0756
 48.4156  6874.72  82.221
 48.4576  6861.28  82.4275
 48.4996  6971.82  82.5536
 48.5416  7093.52  83.5878
 48.5836  6961.72  82.4943
 48.6256  7028.29  83.0817
 48.6676  6924.08  82.9796
 48.7096  6987.54  82.6385
 48.7516  6937.41  82.486
 48.7936  6846.13  82.0019
 48.8356  6802.83  81.7913
 48.8776  6870.58  82.6837
 48.9196  7005.95  82.9469
 48.9616  6894.25  82.66
 49.0036  6935.26  83.2435
 49.0456  6860.68  82.7766
 49.0876  6880.21  82.539
 49.1296  6822.67  82.2529
 49.1716  6777.9  81.8582
 49.2136  6908.16  82.5448
 49.2556  6936.07  82.7688
 49.2976  6829.01  82.1916
 49.3396  6716.01  81.5583
 49.3816  6904.46  82.1365
 49.4236  6917.13  82.636
 49.4656  6820.86  82.0726
 49.5076  6824.8  81.8515
 49.5496  6850.24  81.9468
 49.5916  6835.52  81.8951
 49.6336  6712.68  81.3538
 49.6756  6756.21  81.8392
 49.7176  6816.74  82.1531
 49.7596  6851  82.3012
 49.8016  6911.83  82.4057
 49.8436  6788.03  81.9672
 49.8856  6802.58  82.0549
 49.9276  6774.07  81.9832
 49.9696  6741.19  81.7681
 50.0116  6714.79  81.7346
 50.0536  6726.7  81.7578
 50.0956  6809.52  82.33
 50.1376  6777.03  81.8334
 50.1796  6738.3  81.8691
 50.2216  6650.4  81.324
 50.2636  6762.96  81.6336
 50.3056  6654.34  81.149
 50.3476  6649.88  81.1448
 50.3896  6720.71  81.5443
 50.4316  6815.22  81.954
 50.4736  6635.87  81.0835
 50.5156  6654.22  81.1843
 50.5576  6824.46  81.9742
 50.5996  6659.8  81.2591
 50.6416  6662.21  81.2061
 50.6836  6722.87  81.6302
 50.7256  6654.19  81.1376
 50.7676  6678.47  81.5549
 50.8096  6676.19  81.1287
 50.8516  6599.65  81.0703
 50.8936  6574.7  80.7038
 50.9356  6682.96  81.4727
 50.9776  6602.69  81.1359
 51.0196  6496.19  80.6011
 51.0616  6593.37  80.539
 51.1036  6548.63  80.6156
 51.1456  6640.81  81.094
 51.1876  6537.94  79.8208
 51.2296  6549.63  80.5159
 51.2716  6484.62  79.8217
 51.3136  6469.13  80.1754
 51.3556  6604.9  80.6433
 51.3976  6526.01  80.3076
 51.4396  6489.35  80.3856
 51.4816  6454.47  80.0231
 51.5236  6537.28  80.6136
 51.5656  6496.37  79.9772
 51.6076  6490.21  80.018
 51.6496  6603.14  80.8999
 51.6916  6524.87  80.7655
 51.7336  6487.98  80.6276
 51.7756  6569.06  80.838
 51.8176  6612.53  81.1971
 51.8596  6407.7  79.9516
 51.9016  6695.84  81.3443
 51.9436  6425.57  81.1063
 51.9856  6424.8  81.5246
 52.0276  6551.47  80.8494
 52.0696  6501.57  80.6009
 52.1116  6480.78  80.5942
 52.1536  6306.85  79.3911
 52.1956  6554.15  80.4068
 52.2376  6591.85  80.8078
 52.2796  6638.55  80.9019
 52.3216  6253.6  79.196
 52.3636  6562.82  80.7091
 52.4056  6387.37  79.4705
 52.4476  6448  80.2222
 52.4896  6254.21  79.0569
 52.5316  6265.69  79.1691
 52.5736  6428.72  79.9305
 52.6156  6538.23  80.9675
 52.6576  6462.49  79.9627
 52.6996  6248.3  79.577
 52.7416  6369.88  80.1998
 52.7836  6433.68  80.4847
 52.8256  6461.96  79.889
 52.8676  6269.85  79.2618
 52.9096  6403.85  80.1755
 52.9516  6394.51  80.4879
 52.9936  6305.47  80.3124
 53.0356  6327.6  79.4695
 53.0776  6270.22  79.3831
 53.1196  6265.97  79.4615
 53.1616  6346.23  80.0164
 53.2036  6242.77  79.3027
 53.2456  6216.73  79.2498
 53.2876  6159.65  78.5981
 53.3296  6179.44  79.0441
 53.3716  6330.18  79.7491
 53.4136  6251.18  79.3935
 53.4556  6211.44  79.1697
 53.4976  6291.4  79.5301
 53.5396  6209.63  79.4014
 53.5816  6173.68  78.8137
 53.6236  6241.18  79.5732
 53.6656  6199.44  78.9463
 53.7076  6282.05  79.4332
 53.7496  6203.45  79.0505
 53.7916  6239.44  79.4086
 53.8336  6072.14  78.2273
 53.8756  6078.39  78.8131
 53.9176  6239.08  79.2064
 53.9596  6271.64  80.1779
 54.0016  6194.68  79.0197
 54.0436  6129.23  78.8135
 54.0856  6337.4  79.5699
 54.1276  6206.15  78.9341
 54.1696  6184.88  78.9723
 54.2116  6292.48  79.4092
 54.2536  6182.44  78.5315
 54.2956  6260.02  79.0678
 54.3376  6166.23  78.9464
 54.3796  6245.83  79.3586
 54.4216  6196.28  79.0908
 54.4636  6242.38  79.3469
 54.5056  6242.24  79.1682
 54.5476  6183.85  79.1261
 54.5896  6251.89  79.39
 54.6316  6270.27  79.366
 54.6736  6187.2  78.8602
 54.7156  6254.48  79.3675
 54.7576  6156.06  78.7362
 54.7996  6176.41  78.9954
 54.8416  6270.94  79.6486
 54.8836  6160.28  79.0541
 54.9256  6232.18  79.2661
 54.9676  6264.95  79.3215
 55.0096  6230.95  79.1848
 55.0516  6235.72  79.3853
 55.0936  6178.31  78.7176
 55.1356  6121.18  78.391
 55.1776  6225.9  79.3235
 55.2196  6162.45  78.7065
 55.2616  6163.54  78.9236
 55.3036  6123.16  78.8215
 55.3456  6217.28  79.5728
 55.3876  6148.41  78.8814
 55.4296  6172.3  79.0053
 55.4716  6195.31  79.1915
 55.5136  6199.87  78.9784
 55.5556  6152.08  78.7426
 55.5976  6095.27  78.4355
 55.6396  6170.9  78.8703
 55.6816  6227.13  79.1073
 55.7236  6169.9  78.882
 55.7656  6236.11  78.9636
 55.8076  6215.09  78.8139
 55.8496  6185.71  78.9427
 55.8916  6065.95  78.3447
 55.9336  6147  78.7092
 55.9756  6172.67  78.7735
 56.0176  6186.91  79.0167
 56.0596  6235.62  79.3103
 56.1016  6192.2  79.0726
 56.1436  6083.13  78.6069
 56.1856  6119.72  78.5858
 56.2276  6069.44  78.3164
 56.2696  6030.13  78.0338
 56.3116  6056.84  78.5993
 56.3536  6107.52  78.5957
 56.3956  6203.72  79.2021
 56.4376  6060.67  78.3161
 56.4796  6186.4  78.9271
 56.5216  6140.1  78.9995
 56.5636  6159.63  78.7228
 56.6056  6064.83  78.339
 56.6476  6211.29  78.9106
 56.6896  6150.08  78.9605
 56.7316  6104.02  78.58
 56.7736  6175.41  79.0326
 56.8156  6167.46  78.9799
 56.8576  6035.55  78.0774
 56.8996  6113.37  78.5111
 56.9416  6129.09  78.7857
 56.9836  6024.38  77.7578
 57.0256  6049.56  78.2389
 57.0676  6090.23  78.6158
 57.1096  6104.75  78.5066
 57.1516  6146.5  78.8037
 57.1936  6129.21  78.4742
 57.2356  6096.77  78.5877
 57.2776  6035.2  78.1356
 57.3196  6074.39  78.7647
 57.3616  6154.3  78.7742
 57.4036  6150.4  78.8088
 57.4456  6029.98  77.9992
 57.4876  6005.53  77.7016
 57.5296  6081.14  78.4288
 57.5716  6041.17  78.259
 57.6136  6059.34  78.2011
 57.6556  6079  78.4636
 57.6976  6137.47  78.6552
 57.7396  6025.92  78.3182
 57.7816  5999.37  78.4965
 57.8236  6038.74  78.5517
 57.8656  6134.02  78.8239
 57.9076  6045.13  78.2859
 57.9496  5970.73  78.1432
 57.9916  6078.81  78.3164
 58.0336  6019.88  78.2562
 58.0756  6059.92  78.135
 58.1176  6037.49  78.0031
 58.1596  6057.24  78.6945
 58.2016  6049.85  77.8964
 58.2436  6131.53  78.8197
 58.2856  6097.54  78.5216
 58.3276  6047.31  78.5642
 58.3696  6038.23  78.257
 58.4116  5987.14  77.7914
 58.4536  6038.62  78.0106
 58.4956  6027.97  78.1216
 58.5376  6078.85  78.0239
 58.5796  6019.98  78.0673
 58.6216  6107.17  78.4486
 58.6636  6076.7  78.4622
 58.7056  6044.14  78.1109
 58.7476  5948.06  77.9282
 58.7896  5989.21  77.8443
 58.8316  6037.1  78.1476
 58.8736  5964.38  77.6888
 58.9156  6004.88  77.9867
 58.9576  6236.3  79.691
 58.9996  6294.73  79.4077
 59.0416  6163.11  78.9476
 59.0836  6086.81  78.3798
 59.1256  6100.08  78.8486
 59.1676  6034.8  79.0541
 59.2096  6168.54  79.2256
 59.2516  6282.7  79.528
 59.2936  6122.76  78.8396
 59.3356  6118.2  78.6872
 59.3776  6120.38  78.8713
 59.4196  6097.33  78.6586
 59.4616  6068.29  78.3304
 59.5036  5955.09  77.6311
 59.5456  6252.11  79.2319
 59.5876  6165.03  78.8713
 59.6296  6081.87  78.407
 59.6716  5992.82  77.8886
 59.7136  6150.79  78.8966
 59.7556  6103.76  78.7317
 59.7976  6040.05  78.0618
 59.8396  5984.87  77.5991
 59.8816  6114.57  78.984
 59.9236  6086.53  78.4453
 59.9656  6063.8  78.5599
 60.0076  6179.45  78.6554
 60.0496  6098.58  78.6455
 60.0916  6298.99  79.3328
 60.1336  6020.01  78.6617
 60.1756  6031.93  79.9232
 60.1996  0.0000000E+00  0.0000000E+00