File: docs/examples/opeando_xrd/IS17_D/Data/IS17_D/17_Da_f00122.xye
# /beamlines/bl04/projects/cycle2025-II/20250340211-lsimonelli/DATA/IS17_D/17_Da_f00122.xye : mythproc.py merge -s 0.006 -l 0.5 -f /beamlines/bl04/inhouse/ff/FlatField/ff_20Nov2024rod8mm60s_17keV.raw -b True -c true -o xye /beamlines/bl04/projects/cycle2025-II/20250340211-lsimonelli/DATA/IS17_D/17_Da_00122.dat
# IsMon = [6725690, 6730876, 6729077]  IsPos = [-1.5000, -2.4884, -3.4988]
# Wave = 0.4962  CalPath /beamlines/bl04/projects/cycle2025-II/20250340211-lsimonelli/DATA/Align/Si_Pos1_25keV_f00001.cal
# Date = 2025-09-25_03:35:32 Dt = 4.8000  Bin = 0.0060  <imon> = 6728548 +/- 2150 (Min/Max) 6725690 / 6730876
# icurr 248.9422  mocoIn 1.6995E-05  mocoOut 0.7971  i15 7.05187e+06  imon 6.72855e+06  i7 9.6667  iEMpd_timer 4.8000  iEMpd_1 3.5072E-08  iEMpd_2 7.8047E-08  iEMpd_3 1.7172E-08  iEMpd_4 4.7292E-08  iEMhp_timer 4.8000  iEMhp_1 4.8668E-06  iEMhp_2 -2.4016E-08  iEMhp_3 -2.5565E-08  iEMhp_4 -2.0882E-08
#      9776
 1.5856  40913.5  207.744
 1.6276  47387.6  219.741
 1.6696  53848.6  233.417
 1.7116  62420.9  251.801
 1.7536  71482.8  268.312
 1.7956  76524.3  278.306
 1.8376  73111  272.459
 1.8796  61683.4  248.419
 1.9216  49872.4  224.265
 1.9636  42077.6  205.669
 2.0056  37866.7  193.861
 2.0476  34879.2  188.096
 2.0896  33466.9  183.168
 2.1316  32599.5  179.91
 2.1736  31381.9  177.918
 2.2156  31736.5  177.485
 2.2576  30510.5  174.648
 2.2996  29497.2  172.352
 2.3416  29791.6  171.829
 2.3836  29161.2  170.105
 2.4256  28418.9  168.473
 2.4676  27587.1  165.754
 2.5096  27605.2  165.862
 2.5516  27058.8  167.986
 2.5936  26810.2  163.835
 2.6356  26422.4  163.332
 2.6776  26315.8  161.897
 2.7196  26084.1  161.696
 2.7616  25921.4  160.97
 2.8036  25489.9  159.798
 2.8456  25668.6  160.973
 2.8876  25007.4  158.745
 2.9296  24587.9  157.55
 2.9716  24304.8  156.135
 3.0136  24227.9  155.955
 3.0556  24330.5  156.682
 3.0976  24114.7  154.931
 3.1396  23926.2  155.03
 3.1816  23758.1  154.413
 3.2236  23542.9  153.72
 3.2656  23667.1  153.152
 3.3076  23465.6  153.955
 3.3496  23851.5  154.147
 3.3916  24048.3  154.615
 3.4336  24295.3  155.983
 3.4756  24891  157.819
 3.5176  25692.9  160.122
 3.5596  25478.3  162.438
 3.6016  25845.9  160.656
 3.6436  24943.2  158.92
 3.6856  24522.3  155.884
 3.7276  23614  154.046
 3.7696  23387.3  153.307
 3.8116  22917.6  151.843
 3.8536  23171.6  152.62
 3.8956  22943.7  151.689
 3.9376  22824.1  151.543
 3.9796  22934.7  151.42
 4.0216  22902.5  150.343
 4.0636  22880.6  151.753
 4.1056  22888.1  151.412
 4.1476  22969.1  152.003
 4.1896  23398.1  153.274
 4.2316  23482.8  153.379
 4.2736  23850.7  154.356
 4.3156  23965.1  154.961
 4.3576  24939.7  158.007
 4.3996  25036.7  158.563
 4.4416  25579.6  159.864
 4.4836  25944  161.143
 4.5256  26306.8  162.891
 4.5676  26385.1  163.381
 4.6096  27023.6  164.359
 4.6516  27472.5  165.063
 4.6936  27759.1  166.74
 4.7356  27844.5  166.824
 4.7776  27634  166.017
 4.8196  27424.3  166.046
 4.8616  26853.2  163.783
 4.9036  26680.4  163.011
 4.9456  26653.3  163.571
 4.9876  25829.7  160.928
 5.0296  26269.1  162.104
 5.0716  26082.6  162.309
 5.1136  26317.3  162.743
 5.1556  26631.1  163.17
 5.1976  26828.2  163.78
 5.2396  27076.8  164.227
 5.2816  27013.3  164.501
 5.3236  27035.9  164.271
 5.3656  26700.7  164.166
 5.4076  26343.4  163.22
 5.4496  26741.2  163.925
 5.4916  26811.7  163.901
 5.5336  26716.2  163.611
 5.5756  26567.7  163.198
 5.6176  26849.5  163.488
 5.6596  26883.7  164.414
 5.7016  27154.2  164.655
 5.7436  27327.2  165.454
 5.7856  27232.4  165.226
 5.8276  27702.9  166.362
 5.8696  27683.8  166.378
 5.9116  27667.7  167.037
 5.9536  27952.7  167.652
 5.9956  28153  167.607
 6.0376  28416.7  169.032
 6.0796  28448.5  168.958
 6.1216  28526.1  169.389
 6.1636  28518.9  168.432
 6.2056  28735.3  169.731
 6.2476  28783.2  169.58
 6.2896  29211.9  170.693
 6.3316  29199.9  170.841
 6.3736  29230  170.814
 6.4156  29160.6  170.567
 6.4576  29466.8  171.004
 6.4996  29583.5  171.82
 6.5416  29418.5  171.483
 6.5836  29672.2  172.447
 6.6256  29630  171.891
 6.6676  30377.5  173.608
 6.7096  30048.5  173.53
 6.7516  30336  174.005
 6.7936  30567  174.095
 6.8356  30913.7  175.153
 6.8776  30996.1  176.188
 6.9196  31304.4  177.472
 6.9616  31661.9  177.913
 7.0036  32090.2  178.768
 7.0456  31812.7  177.288
 7.0876  31921.2  179.212
 7.1296  31894.8  178.35
 7.1716  32027.7  178.259
 7.2136  31935.2  177.777
 7.2556  31935.6  177.941
 7.2976  31934.5  178.438
 7.3396  31793.8  178.249
 7.3816  31977.2  178.987
 7.4236  32258.1  179.057
 7.4656  32360.4  178.824
 7.5076  32528.3  179.423
 7.5496  32534.7  179.98
 7.5916  32630.8  180.277
 7.6336  32968.2  181.103
 7.6756  33154  181.464
 7.7176  33159.2  181.788
 7.7596  33144.1  182.995
 7.8016  33663.1  186.63
 7.8436  34256  184.884
 7.8856  34491.1  185.129
 7.9276  35061.6  187.053
 7.9696  35154.6  187.61
 8.0116  35980  188.328
 8.0536  36352.9  189.56
 8.0956  36209.4  190.364
 8.1376  36647.7  190.983
 8.1796  36813.9  191.961
 8.2216  38058.5  193.902
 8.2636  38154.3  194.397
 8.3056  37884.1  194.493
 8.3476  38743.5  195.999
 8.3896  38148.5  194.571
 8.4316  38378.8  195.321
 8.4736  38485.9  195.054
 8.5156  38321.2  194.914
 8.5576  37856.6  194.713
 8.5996  38027.4  194.004
 8.6416  37832.4  194.783
 8.6836  37694  194.265
 8.7256  38495.9  195.747
 8.7676  37600.5  196.41
 8.8096  37721.4  194.005
 8.8516  37376.8  192.793
 8.8936  36664.5  190.79
 8.9356  36552.6  190.832
 8.9776  37130.3  192.439
 9.0196  36832.9  191.342
 9.0616  37042.6  191.347
 9.1036  36639.3  191.495
 9.1456  36639.2  190.843
 9.1876  36594.3  190.684
 9.2296  36845.7  190.727
 9.2716  36127.6  188.926
 9.3136  36328.5  189.434
 9.3556  36566.4  190.041
 9.3976  34929.5  186.269
 9.4396  35580.9  187.887
 9.4816  34834.8  185.773
 9.5236  35066.5  186.296
 9.5656  34775.3  185.847
 9.6076  34619.6  185.953
 9.6496  34453.6  185.441
 9.6916  34456  185.413
 9.7336  34358  184.932
 9.7756  34386.1  186.121
 9.8176  33792.5  184.142
 9.8596  33687  182.288
 9.9016  33086.9  180.649
 9.9436  32980.9  180.096
 9.9856  32574.3  179.381
 10.0276  32145.9  179.315
 10.0696  32474.1  179.26
 10.1116  31442  176.648
 10.1536  31100.9  175.371
 10.1956  30940.4  174.999
 10.2376  30579.2  173.482
 10.2796  30871.3  174.432
 10.3216  30489.3  173.462
 10.3636  30322.4  173.175
 10.4056  29761  171.952
 10.4476  29655.1  171.281
 10.4896  30053.5  171.879
 10.5316  29310.3  170.125
 10.5736  29064.5  170.135
 10.6156  28884.3  169.391
 10.6576  29110  168.601
 10.6996  28716.1  168.123
 10.7416  28462  167.622
 10.7836  28393.7  168.099
 10.8256  28041.5  167.491
 10.8676  28111.5  167.227
 10.9096  27910.7  166.681
 10.9516  27542.8  164.501
 10.9936  27774  165.397
 11.0356  27515.4  165.257
 11.0776  27467.1  164.422
 11.1196  26776.2  163.08
 11.1616  26770.8  162.753
 11.2036  26574.7  162.013
 11.2456  26719.6  163.153
 11.2876  26518.2  162.279
 11.3296  26406.9  161.831
 11.3716  26745.6  162.596
 11.4136  26824.1  163.706
 11.4556  27218.5  164.561
 11.4976  27406.1  164.081
 11.5396  27803.5  165.439
 11.5816  27638.8  165.415
 11.6236  27201.1  164.319
 11.6656  26703.9  161.974
 11.7076  25991.1  160.627
 11.7496  25504.9  163.065
 11.7916  25738.6  159.111
 11.8336  25451.8  159.113
 11.8756  25200  157.858
 11.9176  25398.9  158.123
 11.9596  24941.7  156.893
 12.0016  24842.2  157.374
 12.0436  25023.4  157.366
 12.0856  24696.2  156.861
 12.1276  24800.7  157.102
 12.1696  24458  155.149
 12.2116  24767.3  156.115
 12.2536  24231.1  155.233
 12.2956  24482.4  155.382
 12.3376  24247.4  154.859
 12.3796  24380.3  155.733
 12.4216  24524.9  155.414
 12.4636  24411  155.968
 12.5056  24301.2  154.891
 12.5476  24452.4  154.897
 12.5896  24467.3  155.578
 12.6316  24100.5  154.583
 12.6736  24075.2  154.973
 12.7156  24031.7  154.704
 12.7576  24335.5  155.916
 12.7996  24507.3  155.098
 12.8416  24226.7  155.262
 12.8836  24583.7  156.225
 12.9256  24600  155.298
 12.9676  24960.9  156.852
 13.0096  24736.1  157.257
 13.0516  24879.8  156.738
 13.0936  25006.9  157.264
 13.1356  25355.5  157.608
 13.1776  24979.1  157.437
 13.2196  24846.9  156.669
 13.2616  25028.4  157.551
 13.3036  24835.7  157.098
 13.3456  24983  157.735
 13.3876  24795.5  156.446
 13.4296  24681.2  156.229
 13.4716  24925.4  156.604
 13.5136  24999.3  156.986
 13.5556  24898.8  157.284
 13.5976  25021.6  157.824
 13.6396  25141.6  157.559
 13.6816  24598.8  156.231
 13.7236  25419.3  158.582
 13.7656  24801.5  157.184
 13.8076  24898.1  156.258
 13.8496  24777.1  156.67
 13.8916  24671  157.152
 13.9336  24549.9  155.986
 13.9756  24407.3  154.89
 14.0176  24430.3  155.639
 14.0596  24248.1  155.033
 14.1016  24103.9  154.967
 14.1436  23732.5  152.906
 14.1856  23579.4  152.698
 14.2276  23250  152.12
 14.2696  23530.1  152.873
 14.3116  23320.2  152.079
 14.3536  23008.5  151.248
 14.3956  22901.1  150.612
 14.4376  23082.2  150.993
 14.4796  22941  150.52
 14.5216  22627.5  150.286
 14.5636  22365.9  148.976
 14.6056  22618.2  149.398
 14.6476  22475.3  148.148
 14.6896  22177.1  147.706
 14.7316  21780.2  147.419
 14.7736  21821.5  146.689
 14.8156  21495.8  145.627
 14.8576  21406.5  145.177
 14.8996  20981  144.936
 14.9416  20701.1  143.963
 14.9836  20919.8  144.69
 15.0256  20624.7  142.564
 15.0676  20633.1  142.915
 15.1096  20591.5  142.505
 15.1516  20108.5  141.38
 15.1936  19994.7  140.409
 15.2356  19822.6  140.084
 15.2776  19832.2  139.7
 15.3196  19413.6  139.226
 15.3616  19468.8  139.18
 15.4036  19323.8  138.505
 15.4456  19308.2  138.107
 15.4876  18954.4  136.515
 15.5296  18917.2  136.663
 15.5716  18752.4  135.67
 15.6136  18860.7  136.389
 15.6556  18646.9  134.853
 15.6976  18606  134.999
 15.7396  18388.4  134.602
 15.7816  18372.2  134.045
 15.8236  18072.8  133.657
 15.8656  18059.8  133.392
 15.9076  17852.4  132.455
 15.9496  17771.3  134.963
 15.9916  17801.9  135.524
 16.0336  17635  131.77
 16.0756  17654.4  132.151
 16.1176  17598.2  131.849
 16.1596  17033.1  131.05
 16.2016  17451.9  131.379
 16.2436  17207.5  130.849
 16.2856  17111.6  130.028
 16.3276  16732.8  128.994
 16.3696  17008.2  129.87
 16.4116  16605  128.792
 16.4536  17026.3  130.19
 16.4956  16758.9  128.899
 16.5376  16548.4  128.27
 16.5796  16535.2  127.591
 16.6216  16659.1  128.364
 16.6636  16616.5  128.35
 16.7056  16653.9  128.369
 16.7476  16497  127.288
 16.7896  16611.3  128.482
 16.8316  16857.8  129.384
 16.8736  16480.7  128.206
 16.9156  16435  128.363
 16.9576  16477.1  129.32
 16.9996  16642.4  130.466
 17.0416  16681.2  128.939
 17.0836  16397.5  127.602
 17.1256  16362.7  127.48
 17.1676  16211.5  126.88
 17.2096  16030.7  126.05
 17.2516  15963.9  125.874
 17.2936  15930.4  125.773
 17.3356  15602.1  124.47
 17.3776  15828.7  125.557
 17.4196  15810.1  125.163
 17.4616  15500.4  123.861
 17.5036  15539.6  124.372
 17.5456  15356.9  124.295
 17.5876  15360.1  123.35
 17.6296  15456.3  123.545
 17.6716  15200.2  123.1
 17.7136  15213.5  123.305
 17.7556  14972.6  122.608
 17.7976  15141.1  123.035
 17.8396  14876.4  121.454
 17.8816  15057.4  122.728
 17.9236  14691.7  121.05
 17.9656  15016.9  122.919
 18.0076  14948.9  122.226
 18.0496  14974.9  121.456
 18.0916  14945.1  121.885
 18.1336  15055.8  122.428
 18.1756  15021.3  121.821
 18.2176  14670.2  120.608
 18.2596  14732.8  120.595
 18.3016  14828.1  121.244
 18.3436  14793.7  121.101
 18.3856  14607.8  120.489
 18.4276  14719  120.608
 18.4696  14536.1  119.955
 18.5116  14769.4  121.205
 18.5536  14709  121.317
 18.5956  14586.6  120.363
 18.6376  14425.1  120.098
 18.6796  14384.9  119.259
 18.7216  14596  120.609
 18.7636  14407.7  119.834
 18.8056  14262  119.161
 18.8476  14257.2  119.763
 18.8896  14382.5  119.624
 18.9316  14608.2  120.543
 18.9736  14464  119.64
 19.0156  14446.5  119.97
 19.0576  14318.2  118.308
 19.0996  14638.5  120.34
 19.1416  14120.1  118.585
 19.1836  14267.9  118.8
 19.2256  14110.2  118.354
 19.2676  14072.4  118.292
 19.3096  14372.5  119.792
 19.3516  14140.5  118.608
 19.3936  14248.8  119.13
 19.4356  14082.1  118.311
 19.4776  14262.9  119.16
 19.5196  14222.5  118.843
 19.5616  14118.6  118.666
 19.6036  14199.1  118.495
 19.6456  14121.3  118.289
 19.6876  14264.2  118.53
 19.7296  14068.6  118.178
 19.7716  14113.7  118.519
 19.8136  14302.7  119.531
 19.8556  14502.8  119.83
 19.8976  14426.3  119.581
 19.9396  14540.7  119.625
 19.9816  14916.3  121.404
 20.0236  15083.2  122.309
 20.0656  15225.7  122.878
 20.1076  14822.1  121.723
 20.1496  14564.9  120.661
 20.1916  14383.3  119.37
 20.2336  14232.1  118.714
 20.2756  14046.7  118.375
 20.3176  13916.1  117.567
 20.3596  13863.3  117.32
 20.4016  13903.8  117.29
 20.4436  13777.1  117.314
 20.4856  13651.8  116.585
 20.5276  13626.4  116.936
 20.5696  13527  116.061
 20.6116  13483.7  116.049
 20.6536  13565.9  115.908
 20.6956  13486  115.695
 20.7376  13458.5  115.801
 20.7796  13422.2  115.334
 20.8216  13489  115.323
 20.8636  13356.9  115.135
 20.9056  13435.9  115.421
 20.9476  13313.1  114.73
 20.9896  13437.8  115.127
 21.0316  13512.1  115.346
 21.0736  13258  114.777
 21.1156  13315.5  115.185
 21.1576  13346.3  115.372
 21.1996  13196.5  114.701
 21.2416  13136.1  114.274
 21.2836  13310.4  114.983
 21.3256  13183.8  114.528
 21.3676  13234.2  114.288
 21.4096  13117.8  114.149
 21.4516  13047.9  113.671
 21.4936  12987  113.655
 21.5356  13218.4  114.613
 21.5776  13157.2  114.179
 21.6196  13067  113.824
 21.6616  12902.6  113.18
 21.7036  13019.8  113.487
 21.7456  13086.4  113.848
 21.7876  12968  113.082
 21.8296  12910.4  112.685
 21.8716  12911.9  112.923
 21.9136  13099.7  113.942
 21.9556  12887.8  112.692
 21.9976  12824.7  112.431
 22.0396  12849.8  112.795
 22.0816  13081.4  114.352
 22.1236  13099  113.881
 22.1656  12931.4  113.269
 22.2076  12998.6  113.025
 22.2496  12942.3  112.807
 22.2916  13024.7  113.048
 22.3336  12823.8  112.9
 22.3756  13005  113.415
 22.4176  12843.5  112.562
 22.4596  12766.4  112.819
 22.5016  13050.3  113.538
 22.5436  13010.8  113.262
 22.5856  12722.5  112.244
 22.6276  12706.5  112.307
 22.6696  12877.7  113.41
 22.7116  12865.6  112.871
 22.7536  12890.1  112.956
 22.7956  12990.3  112.716
 22.8376  12870.3  112.725
 22.8796  12846.7  112.419
 22.9216  12925.3  113.318
 22.9636  12934.2  112.494
 23.0056  12699.6  111.604
 23.0476  12908.1  113.094
 23.0896  13136.3  113.455
 23.1316  13031  113.443
 23.1736  12807.8  115.451
 23.2156  12959.3  113.473
 23.2576  12734.3  112.625
 23.2996  12788.1  112.638
 23.3416  12627.6  112.45
 23.3836  12779.3  112.36
 23.4256  12864.5  112.847
 23.4676  12653.2  111.612
 23.5096  12489  111.561
 23.5516  12572.6  111.216
 23.5936  12798.2  113.106
 23.6356  12868.7  113.092
 23.6776  12850.9  113.222
 23.7196  12657  112.171
 23.7616  12824.5  112.597
 23.8036  12782.9  112.468
 23.8456  12748  111.876
 23.8876  12436.2  110.853
 23.9296  12453.5  111.419
 23.9716  12523.2  110.915
 24.0136  12631.1  112.307
 24.0556  12320.5  110.651
 24.0976  12292  110.334
 24.1396  12354.4  113.269
 24.1816  12300.1  111.436
 24.2236  12276  110.93
 24.2656  12071.2  109.476
 24.3076  12184.4  110.237
 24.3496  12178.1  110.094
 24.3916  11999.3  109.33
 24.4336  12016.8  109.629
 24.4756  12012.8  109.47
 24.5176  11866.7  108.46
 24.5596  11864.7  108.782
 24.6016  11641.5  107.837
 24.6436  11775.9  107.95
 24.6856  11808.4  107.858
 24.7276  11651.2  107.447
 24.7696  11854.5  108.498
 24.8116  11701.5  107.969
 24.8536  11721.6  108.071
 24.8956  11637.2  107.414
 24.9376  11577.1  107.321
 24.9796  11423.6  106.719
 25.0216  11334.8  106.417
 25.0636  11310.1  105.952
 25.1056  11311.7  106.664
 25.1476  11374.8  108.632
 25.1896  11440.1  107.406
 25.2316  11473.3  106.824
 25.2736  11360.9  105.953
 25.3156  11371.9  106.089
 25.3576  11304  106.189
 25.3996  11368.4  106.48
 25.4416  11305.6  106.166
 25.4836  11123.1  105.828
 25.5256  11132  105.233
 25.5676  11284.3  105.676
 25.6096  11132.4  105.541
 25.6516  11203.9  105.373
 25.6936  11112.8  105.268
 25.7356  11030.6  105.004
 25.7776  11271.2  105.821
 25.8196  10972.1  104.568
 25.8616  11105.7  105.126
 25.9036  11117.6  104.647
 25.9456  11042.1  104.887
 25.9876  11051.1  104.861
 26.0296  11207.1  105.238
 26.0716  10882.4  104.129
 26.1136  11124.4  105.221
 26.1556  11136.2  104.652
 26.1976  10966.3  104.78
 26.2396  11073.2  104.437
 26.2816  11005.6  104.733
 26.3236  11042.3  105.062
 26.3656  11007.6  104.629
 26.4076  11144.9  105.488
 26.4496  11558.2  106.902
 26.4916  11142.1  104.959
 26.5336  10888.8  104.088
 26.5756  11454.6  106.58
 26.6176  10972.6  104.399
 26.6596  10843.5  104.096
 26.7016  10928.2  104.25
 26.7436  10764.1  103.605
 26.7856  10757  103.55
 26.8276  10766.3  103.547
 26.8696  10804.3  103.607
 26.9116  10701.4  103.046
 26.9536  10728.6  103.221
 26.9956  10666.9  102.959
 27.0376  10620.1  102.955
 27.0796  10733.3  103.232
 27.1216  10434.3  101.863
 27.1636  10380.8  101.765
 27.2056  10623.4  102.826
 27.2476  10562.7  102.53
 27.2896  10606.8  102.854
 27.3316  10515.9  102.128
 27.3736  10550.3  102.56
 27.4156  10428.8  101.817
 27.4576  10403.9  101.925
 27.4996  10364  101.327
 27.5416  10360.1  101.622
 27.5836  10335.2  101.317
 27.6256  10765.9  103.57
 27.6676  10704.8  103.298
 27.7096  10335.5  101.366
 27.7516  10448.8  102.072
 27.7936  10336.6  101.698
 27.8356  10290.5  101.089
 27.8776  10245.8  100.913
 27.9196  10189.4  100.489
 27.9616  10278.8  101.121
 28.0036  10275.5  101.075
 28.0456  10241.4  101.036
 28.0876  10126.9  100.562
 28.1296  10172.8  100.628
 28.1716  10228.3  100.918
 28.2136  10237.5  100.925
 28.2556  10060.8  100.165
 28.2976  10073.9  100.223
 28.3396  10155.3  100.374
 28.3816  10089.4  100.075
 28.4236  10199.1  100.77
 28.4656  9973.92  99.6896
 28.5076  10181.6  100.356
 28.5496  10105.2  100.244
 28.5916  9996.65  99.5104
 28.6336  9923.13  99.4878
 28.6756  10027  99.2023
 28.7176  9981.8  99.528
 28.7596  9892.38  98.9815
 28.8016  9983.07  99.4646
 28.8436  9810.6  98.8464
 28.8856  9966.45  99.4787
 28.9276  9900.36  99.3963
 28.9696  9821.92  98.6564
 29.0116  9992.92  99.7046
 29.0536  9775.9  98.8098
 29.0956  9857.28  98.9403
 29.1376  9689.97  98.0506
 29.1796  9836.6  98.8424
 29.2216  9799.83  98.5017
 29.2636  9837.62  98.7684
 29.3056  9784.04  98.287
 29.3476  9788.58  98.8338
 29.3896  9858.79  99.2858
 29.4316  9945.87  99.0471
 29.4736  9858.86  98.6795
 29.5156  9911.94  98.8627
 29.5576  9893.46  99.5174
 29.5996  9849.44  98.5465
 29.6416  9762.09  98.2251
 29.6836  9868.34  98.6872
 29.7256  9836.39  99.0978
 29.7676  9759.74  98.3752
 29.8096  9683.82  97.9321
 29.8516  9603.63  97.8583
 29.8936  9620.67  98.0402
 29.9356  9722.87  98.3102
 29.9776  9574.5  97.7117
 30.0196  9689.5  97.674
 30.0616  9774.45  98.4843
 30.1036  9697.41  97.9186
 30.1456  9598.82  97.6609
 30.1876  9622.32  97.7528
 30.2296  9626.06  97.7195
 30.2716  9690.97  97.6849
 30.3136  9673.87  98.4642
 30.3556  9667.33  98.4513
 30.3976  9515.21  99.204
 30.4396  9637.5  97.1656
 30.4816  9722.99  97.1872
 30.5236  9671.36  96.9502
 30.5656  9520.18  96.8401
 30.6076  9648.18  97.2632
 30.6496  9512.99  96.6175
 30.6916  9624.76  97.2761
 30.7336  9674.12  97.6812
 30.7756  9547.14  97.1312
 30.8176  9501.56  96.8141
 30.8596  9478.97  96.4639
 30.9016  9638.74  97.1469
 30.9436  9523.59  96.7871
 30.9856  9607.08  97.3243
 31.0276  9379.93  95.7704
 31.0696  9331.74  96.1038
 31.1116  9322.62  96.0298
 31.1536  9437.21  96.4997
 31.1956  9373.47  96.2612
 31.2376  9258.59  95.6771
 31.2796  9467.33  96.2839
 31.3216  9433.41  96.0583
 31.3636  9453.61  96.8499
 31.4056  9391.18  97.8573
 31.4476  9461.49  96.0865
 31.4896  9233.76  95.4254
 31.5316  9357.46  95.4581
 31.5736  9411.71  95.5679
 31.6156  9272.38  94.8645
 31.6576  9344.3  95.3338
 31.6996  9330.88  94.9353
 31.7416  9327.68  95.8495
 31.7836  9243.92  94.568
 31.8256  9257.57  94.916
 31.8676  9314.82  95.1834
 31.9096  9220.58  94.9274
 31.9516  9072.73  94.4671
 31.9936  9170.98  94.7977
 32.0356  9275.81  95.411
 32.0776  9312.44  95.4815
 32.1196  9168.36  94.7535
 32.1616  9221.98  94.5617
 32.2036  9104.04  94.4725
 32.2456  9059.03  94.6129
 32.2876  9245.37  95.0743
 32.3296  9152.66  94.5604
 32.3716  9206.91  94.9381
 32.4136  9261.62  95.4414
 32.4556  9340.26  95.215
 32.4976  9208.22  94.496
 32.5396  9144.13  94.189
 32.5816  9061.35  93.891
 32.6236  9074.66  94.0266
 32.6656  9240.52  95.4254
 32.7076  9081.05  94.2512
 32.7496  9114.24  94.0873
 32.7916  9131.91  94.1404
 32.8336  9085.23  93.9925
 32.8756  9167.25  94.1456
 32.9176  8893.58  93.2013
 32.9596  9000.26  93.8408
 33.0016  9060.23  93.9388
 33.0436  9137.65  94.5188
 33.0856  9082.14  94.3
 33.1276  8867.31  92.9068
 33.1696  9110.23  94.0178
 33.2116  9070.48  94.0329
 33.2536  9088.04  94.1318
 33.2956  9071.92  94.1312
 33.3376  8945.77  93.292
 33.3796  9126.1  94.3574
 33.4216  9117.43  93.9085
 33.4636  9062.62  93.7706
 33.5056  8911.59  93.2282
 33.5476  8906  93.1957
 33.5896  8971.21  93.3021
 33.6316  8853.58  93.0176
 33.6736  8882.97  93.4047
 33.7156  8859.96  93.3289
 33.7576  8975.88  93.5592
 33.7996  9006.12  93.4808
 33.8416  8748.53  92.3217
 33.8836  8956.91  93.1865
 33.9256  8915.73  93.0407
 33.9676  8971.62  93.2241
 34.0096  8774.54  92.5138
 34.0516  8712.81  91.8191
 34.0936  8775.94  92.4214
 34.1356  8949.16  93.0632
 34.1776  8767.78  92.1222
 34.2196  8648.21  91.6797
 34.2616  8681.35  91.9856
 34.3036  8698.87  92.3358
 34.3456  8705.87  92.1222
 34.3876  8860.91  92.9959
 34.4296  8766.37  92.094
 34.4716  8839.94  92.6278
 34.5136  8725.27  92.2295
 34.5556  8689.92  92.2888
 34.5976  8731.18  92.3573
 34.6396  8647.98  91.595
 34.6816  8744.55  92.2176
 34.7236  8718.2  91.8595
 34.7656  8683.54  91.8712
 34.8076  8629.81  91.9138
 34.8496  8737.54  92.3354
 34.8916  8642.87  91.7106
 34.9336  8753.53  92.2544
 34.9756  8754.81  92.2222
 35.0176  8731.22  92.5879
 35.0596  8566.75  91.5485
 35.1016  8658.96  91.8009
 35.1436  8631.62  91.3446
 35.1856  8593.87  91.2708
 35.2276  8639.84  91.6875
 35.2696  8606.11  91.7002
 35.3116  8562.17  91.5602
 35.3536  8542.59  91.204
 35.3956  8541.89  90.8692
 35.4376  8554.08  91.4884
 35.4796  8727.23  92.4769
 35.5216  8531.55  91.3919
 35.5636  8402.8  91.4407
 35.6056  8553.85  91.2669
 35.6476  8499.49  90.8711
 35.6896  8602.51  91.5177
 35.7316  8434.77  90.5922
 35.7736  8399.58  90.6016
 35.8156  8470.71  90.9866
 35.8576  8647.73  92.1748
 35.8996  8517.89  91.4606
 35.9416  8467.69  90.6912
 35.9836  8413.94  90.8479
 36.0256  8608.2  91.8104
 36.0676  8550.13  91.2552
 36.1096  8389.27  90.5292
 36.1516  8542.83  91.2455
 36.1936  8478.02  90.7459
 36.2356  8422.07  91.0905
 36.2776  8427.83  90.5929
 36.3196  8357.92  89.8895
 36.3616  8487.67  90.7174
 36.4036  8508.69  90.8863
 36.4456  8410.05  90.5721
 36.4876  8316.66  90.01
 36.5296  8445.29  90.7354
 36.5716  8400.68  91.2863
 36.6136  8447.98  90.2937
 36.6556  8534.71  90.9712
 36.6976  8267.07  90.0257
 36.7396  8236.46  89.5905
 36.7816  8382.89  90.7593
 36.8236  8300.8  90.2354
 36.8656  8247.81  90.0225
 36.9076  8312.19  90.2475
 36.9496  8283.49  90.0818
 36.9916  8376.45  90.2135
 37.0336  8442.95  90.8925
 37.0756  8408.24  90.4912
 37.1176  8313.23  90.2491
 37.1596  8220.18  89.7468
 37.2016  8284.81  90.3295
 37.2436  8431.7  90.4322
 37.2856  8338.51  90.191
 37.3276  8275.88  89.1958
 37.3696  8226.83  89.8217
 37.4116  8390.8  90.6191
 37.4536  8084.29  88.8159
 37.4956  8320.27  90.1506
 37.5376  8258.68  91.4106
 37.5796  8188.9  90.9488
 37.6216  8131.49  88.9062
 37.6636  8128.5  88.7942
 37.7056  8184.3  89.2889
 37.7476  8075.65  88.2316
 37.7896  8152.62  89.1447
 37.8316  7982.78  88.3897
 37.8736  8231.62  89.27
 37.9156  8074.77  88.4224
 37.9576  8151.54  88.7277
 37.9996  8064.27  87.9751
 38.0416  8087.46  88.911
 38.0836  8198.02  89.4183
 38.1256  8136.68  89.0305
 38.1676  7915.44  87.9637
 38.2096  8014.07  88.1372
 38.2516  8322.08  90.0191
 38.2936  8107.81  88.6487
 38.3356  8236.06  89.2453
 38.3776  8124.8  88.9349
 38.4196  8123.19  88.7753
 38.4616  8114.75  88.9591
 38.5036  8229.51  89.4394
 38.5456  8015.89  89.1016
 38.5876  8080.6  89.4856
 38.6296  8058.39  88.3377
 38.6716  8014.14  87.8856
 38.7136  8069.52  88.1308
 38.7556  7936.21  87.9062
 38.7976  8099.17  88.7418
 38.8396  7798.89  87.5305
 38.8816  8016.66  88.5184
 38.9236  7982.98  88.1474
 38.9656  7894.36  87.5703
 39.0076  8048.6  87.8227
 39.0496  7969.33  87.9397
 39.0916  8033.73  87.9235
 39.1336  7998.23  88.1487
 39.1756  7949.04  87.948
 39.2176  7984.58  88.6712
 39.2596  7876.16  87.9957
 39.3016  7916  87.7912
 39.3436  7807.52  87.6097
 39.3856  8119.06  88.7771
 39.4276  8032.03  88.8095
 39.4696  7881.03  87.5876
 39.5116  7857.33  87.975
 39.5536  8147.21  90.0101
 39.5956  8039.79  88.5066
 39.6376  8000.91  88.3024
 39.6796  7974.13  87.8861
 39.7216  8079.34  88.5667
 39.7636  7962.22  88.5003
 39.8056  8049.74  88.7608
 39.8476  7941.7  88.4136
 39.8896  8026.96  88.509
 39.9316  7940.04  88.2883
 39.9736  8092.08  88.687
 40.0156  8012.48  88.0757
 40.0576  7961.51  88.1588
 40.0996  8185.92  88.5719
 40.1416  7989.14  88.2879
 40.1836  8040.74  88.4637
 40.2256  8064.2  88.6388
 40.2676  7956.28  88.2176
 40.3096  8098.88  88.8569
 40.3516  8115.45  89.0595
 40.3936  8060.5  88.3174
 40.4356  7988.69  88.1128
 40.4776  8126.79  89.1292
 40.5196  8080.32  89.1657
 40.5616  8059.29  88.6936
 40.6036  8022.55  88.7372
 40.6456  8137.26  88.9775
 40.6876  8225.28  89.4375
 40.7296  8097.19  88.8806
 40.7716  8021.02  88.5881
 40.8136  7980.1  88.3064
 40.8556  7977.99  88.4338
 40.8976  8046.18  88.7327
 40.9396  7950.99  88.5586
 40.9816  8163.09  89.0048
 41.0236  8074.46  88.2951
 41.0656  8063.7  88.7837
 41.1076  8095.87  88.7239
 41.1496  8052.95  88.4024
 41.1916  8006.54  88.4648
 41.2336  8044.83  88.6761
 41.2756  7954.78  87.7804
 41.3176  8081.94  89.0967
 41.3596  8078.28  88.8032
 41.4016  8088.91  89.1218
 41.4436  8098.52  88.9615
 41.4856  8125  89.2659
 41.5276  7989.25  88.5446
 41.5696  8016.7  88.3212
 41.6116  7982.97  88.538
 41.6536  8050.99  88.7679
 41.6956  8033  88.6476
 41.7376  7894.08  87.9828
 41.7796  7988.55  88.3886
 41.8216  8164.74  89.5979
 41.8636  8088.35  89.1151
 41.9056  8034.35  88.6049
 41.9476  8008.59  88.6995
 41.9896  7998.62  88.3113
 42.0316  8082.34  88.8457
 42.0736  7934.07  88.1758
 42.1156  7897.7  87.7814
 42.1576  7966.84  88.2604
 42.1996  8071.19  88.9828
 42.2416  8017.2  88.2596
 42.2836  7892.53  87.6869
 42.3256  7901.33  87.8534
 42.3676  8003.07  88.2201
 42.4096  7923.41  87.7416
 42.4516  7976.66  88.1264
 42.4936  7859.33  87.5422
 42.5356  7991.42  88.4089
 42.5776  7983.64  88.3019
 42.6196  8007.78  88.4874
 42.6616  7879.14  87.9526
 42.7036  7852.36  87.1869
 42.7456  7921.72  87.9315
 42.7876  7862.92  87.6909
 42.8296  7814.16  87.2644
 42.8716  7750.39  87.0648
 42.9136  7850.86  87.3694
 42.9556  7880.3  87.7149
 42.9976  7947.2  88.0455
 43.0396  7843.83  87.2042
 43.0816  7810.71  87.3965
 43.1236  7796.49  87.3772
 43.1656  7895.86  87.7625
 43.2076  7865.09  87.6978
 43.2496  7799.21  87.1377
 43.2916  7736.53  87.1512
 43.3336  7910.94  87.9674
 43.3756  7885.59  87.575
 43.4176  7817.01  87.2799
 43.4596  7789.12  86.978
 43.5016  7754.19  87.1887
 43.5436  7780.01  87.2331
 43.5856  7717.42  86.9091
 43.6276  7846.58  87.5251
 43.6696  7686.62  86.8868
 43.7116  7744.26  86.7105
 43.7536  7796.91  87.4943
 43.7956  7654.51  87.8633
 43.8376  7749.16  86.9521
 43.8796  7716.93  86.8516
 43.9216  7736.48  86.8809
 43.9636  7805.59  87.3772
 44.0056  7764.2  87.379
 44.0476  7699.74  86.6451
 44.0896  7574.25  86.2776
 44.1316  7700.61  86.514
 44.1736  7632.24  86.2562
 44.2156  7786.57  86.9701
 44.2576  7621.57  86.3728
 44.2996  7671.01  86.6215
 44.3416  7662.7  86.3382
 44.3836  7634.89  86.499
 44.4256  7580.38  85.8464
 44.4676  7572.27  85.9491
 44.5096  7623.44  86.3887
 44.5516  7618.9  86.3249
 44.5936  7455.45  85.3445
 44.6356  7593.13  85.8709
 44.6776  7619.42  86.3368
 44.7196  7602.47  86.5525
 44.7616  7605.99  87.9075
 44.8036  7505.4  85.9661
 44.8456  7529.46  86.102
 44.8876  7549.28  86.0681
 44.9296  7740.04  86.5966
 44.9716  7557.89  86.0042
 45.0136  7474.11  85.4566
 45.0556  7500.4  85.6852
 45.0976  7540.25  85.9748
 45.1396  7420.99  85.0508
 45.1816  7563.16  85.7902
 45.2236  7634.18  86.096
 45.2656  7434.56  85.4623
 45.3076  7481.89  85.5128
 45.3496  7568.63  86.3175
 45.3916  7418.27  85.7207
 45.4336  7422.29  85.5933
 45.4756  7461.04  85.6599
 45.5176  7488.05  85.4457
 45.5596  7537.99  85.8364
 45.6016  7439.08  85.7022
 45.6436  7470.7  85.0603
 45.6856  7323.6  84.8681
 45.7276  7350.63  86.3276
 45.7696  7441.3  86.5364
 45.8116  7508.01  86.3518
 45.8536  7335.94  85.2559
 45.8956  7499.58  85.5506
 45.9376  7465.99  84.8199
 45.9796  7363.81  84.9197
 46.0216  7408.97  85.5285
 46.0636  7480.96  85.0714
 46.1056  7395.83  84.5817
 46.1476  7446.8  85.4668
 46.1896  7344.62  85.0262
 46.2316  7268.85  84.4599
 46.2736  7347.7  85.1217
 46.3156  7340.72  84.8295
 46.3576  7416.38  85.4645
 46.3996  7310.18  85.013
 46.4416  7321.17  84.6297
 46.4836  7306.72  84.926
 46.5256  7465.68  85.7822
 46.5676  7212.36  84.4271
 46.6096  7356.86  85.1992
 46.6516  7460.59  84.8408
 46.6936  7393.14  84.9498
 46.7356  7472.96  85.5131
 46.7776  7227.96  84.9368
 46.8196  7271.36  84.9264
 46.8616  7088.08  83.6534
 46.9036  7153.48  83.7023
 46.9456  7224.77  83.7658
 46.9876  7279.43  84.1618
 47.0296  7215.2  84.4734
 47.0716  7210.14  84.2666
 47.1136  7180.91  83.7792
 47.1556  7236.9  83.9649
 47.1976  7264.23  84.2786
 47.2396  7137.62  83.8701
 47.2816  7157.92  83.686
 47.3236  7167.44  84.1087
 47.3656  7214.08  84.3136
 47.4076  7306.37  84.5917
 47.4496  7126.48  83.6964
 47.4916  7129.11  83.9129
 47.5336  7199.2  84.1325
 47.5756  7298.99  84.8392
 47.6176  7053.71  83.2923
 47.6596  7120.5  83.3936
 47.7016  7313.45  84.344
 47.7436  7159.55  83.7809
 47.7856  7135.23  83.6653
 47.8276  7085.75  83.4294
 47.8696  7210.74  84.2495
 47.9116  7152.48  83.6205
 47.9536  7135.41  83.4607
 47.9956  7049.9  83.6617
 48.0376  7044.52  83.4018
 48.0796  7045.57  83.5368
 48.1216  7249.75  84.5505
 48.1636  7259.79  84.1919
 48.2056  7265.05  84.4872
 48.2476  7164.16  84.208
 48.2896  7144.04  84.0009
 48.3316  7145.21  83.9476
 48.3736  7072.32  83.5406
 48.4156  6973.32  82.808
 48.4576  7015.2  83.3466
 48.4996  7016.44  82.8143
 48.5416  7086.76  83.5543
 48.5836  7090.99  83.2578
 48.6256  7133.55  83.7125
 48.6676  6988.99  83.3708
 48.7096  7070.96  83.1227
 48.7516  6971.41  82.6865
 48.7936  6907.24  82.3637
 48.8356  6948.54  82.6615
 48.8776  7055.21  83.8526
 48.9196  7155.37  83.83
 48.9616  6970.3  83.1037
 49.0036  7002.61  83.6498
 49.0456  7064.39  83.9989
 49.0876  7053.97  83.476
 49.1296  6925.19  82.8714
 49.1716  6895.99  82.5627
 49.2136  6990.54  83.051
 49.2556  7040.35  83.3865
 49.2976  6985.19  83.1316
 49.3396  6927.25  82.8243
 49.3816  7086.96  83.2151
 49.4236  6987.86  83.0514
 49.4656  6873.61  82.3865
 49.5076  6975.49  82.7503
 49.5496  6964.67  82.7451
 49.5916  7040.73  83.1166
 49.6336  6967.98  82.8872
 49.6756  6919.81  82.8406
 49.7176  6927.55  82.8139
 49.7596  6895.98  82.403
 49.8016  6978.19  82.811
 49.8436  6885.04  82.5468
 49.8856  6800.1  82.0437
 49.9276  6798.33  82.1268
 49.9696  6911.54  82.7998
 50.0116  6882.04  82.7521
 50.0536  6914.51  82.8945
 50.0956  6914.13  82.96
 50.1376  6858.56  82.3248
 50.1796  6802.9  82.2611
 50.2216  6822.22  82.3748
 50.2636  6709.79  81.3149
 50.3056  6806.95  82.0712
 50.3476  6819.25  82.1658
 50.3896  6738.03  81.652
 50.4316  6811.75  81.9319
 50.4736  6725.78  81.631
 50.5156  6806.72  82.116
 50.5576  6829.1  82.0084
 50.5996  6769.11  81.9223
 50.6416  6698.09  81.426
 50.6836  6767.3  81.8976
 50.7256  6775.95  81.875
 50.7676  6785.37  82.2529
 50.8096  6762.45  81.6555
 50.8516  6745.75  81.9667
 50.8936  6729.14  81.6491
 50.9356  6889.58  82.7208
 50.9776  6740.18  81.9558
 51.0196  6712.69  81.9243
 51.0616  6647.74  80.8513
 51.1036  6813.43  82.2163
 51.1456  6744.04  81.7066
 51.1876  6666.51  80.5898
 51.2296  6815.04  82.1185
 51.2716  6639.82  80.7647
 51.3136  6624.12  81.1214
 51.3556  6585.32  80.5141
 51.3976  6629.69  80.9333
 51.4396  6589.28  80.9887
 51.4816  6663.66  81.2996
 51.5236  6632.71  81.1865
 51.5656  6599.64  80.5988
 51.6076  6643.22  80.9432
 51.6496  6650.86  81.1818
 51.6916  6496.61  80.5825
 51.7336  6630  81.5
 51.7756  6727.52  81.796
 51.8176  6601.2  81.1211
 51.8596  6637.39  81.3663
 51.9016  6636.9  80.9722
 51.9436  6585.33  82.0965
 51.9856  6595.24  82.603
 52.0276  6670.85  81.5912
 52.0696  6597.2  81.2074
 52.1116  6582  81.2201
 52.1536  6518.55  80.6736
 52.1956  6668.45  81.1107
 52.2376  6648.58  81.1599
 52.2796  6703.61  81.309
 52.3216  6532.87  80.9522
 52.3636  6708.76  81.609
 52.4056  6473.43  80.0205
 52.4476  6562.17  80.9356
 52.4896  6377.42  79.8382
 52.5316  6474.43  80.4903
 52.5736  6589.65  80.9204
 52.6156  6500.69  80.7518
 52.6576  6655.39  81.1496
 52.6996  6311.1  79.9779
 52.7416  6617.51  81.7422
 52.7836  6626.9  81.6755
 52.8256  6608.83  80.7985
 52.8676  6566.47  81.115
 52.9096  6573.04  81.239
 52.9516  6438.97  80.7767
 52.9936  6391.1  80.8565
 53.0356  6322.8  79.4435
 53.0776  6384.72  80.0867
 53.1196  6363.25  80.0811
 53.1616  6284.99  79.6335
 53.2036  6321.81  79.8211
 53.2456  6375.31  80.2621
 53.2876  6365.43  79.9057
 53.3296  6402.07  80.4595
 53.3716  6436.11  80.4263
 53.4136  6401.4  80.3516
 53.4556  6344.91  80.0233
 53.4976  6335.52  79.815
 53.5396  6329.05  80.1587
 53.5816  6333.51  79.8274
 53.6236  6335.89  80.1868
 53.6656  6419.86  80.3455
 53.7076  6467.31  80.6009
 53.7496  6367.61  80.0964
 53.7916  6407.04  80.4706
 53.8336  6261.78  79.4556
 53.8756  6151.38  79.2889
 53.9176  6342.89  79.8569
 53.9596  6314.84  80.4444
 54.0016  6307.99  79.7364
 54.0436  6327.29  80.0742
 54.0856  6389.84  79.8961
 54.1276  6350.19  79.8497
 54.1696  6300.89  79.7082
 54.2116  6410.89  80.1588
 54.2536  6340.6  79.5268
 54.2956  6335.09  79.5411
 54.3376  6320.04  79.9331
 54.3796  6267.04  79.4931
 54.4216  6523.48  81.147
 54.4636  6347.79  80.003
 54.5056  6386.96  80.0833
 54.5476  6334.89  80.0846
 54.5896  6325.88  79.8561
 54.6316  6294.37  79.521
 54.6736  6285.96  79.5401
 54.7156  6312.96  79.7308
 54.7576  6285.81  79.5566
 54.7996  6288.51  79.727
 54.8416  6339.68  80.087
 54.8836  6216.12  79.4149
 54.9256  6234.93  79.2894
 54.9676  6362.97  79.9539
 55.0096  6380.81  80.1345
 55.0516  6375.14  80.3279
 55.0936  6283.34  79.3815
 55.1356  6251.27  79.222
 55.1776  6298.13  79.7883
 55.2196  6288.18  79.5053
 55.2616  6261.9  79.551
 55.3036  6252.43  79.6475
 55.3456  6302.96  80.1207
 55.3876  6345.67  80.1299
 55.4296  6223.99  79.3387
 55.4716  6235.56  79.4476
 55.5136  6344.72  79.8935
 55.5556  6313.61  79.7752
 55.5976  6204.26  79.135
 55.6396  6317.85  79.7216
 55.6816  6199.86  78.9331
 55.7236  6265.51  79.3925
 55.7656  6303.64  79.3897
 55.8076  6383.48  79.8715
 55.8496  6230.5  79.3457
 55.8916  6217.89  79.3494
 55.9336  6141.51  78.6904
 55.9756  6214.41  79.0413
 56.0176  6242.42  79.3704
 56.0596  6183.95  78.973
 56.1016  6266.54  79.5179
 56.1436  6152.79  79.0487
 56.1856  6155.51  78.809
 56.2276  6323.29  79.9425
 56.2696  6178.02  78.9866
 56.3116  6094.84  78.8534
 56.3536  6228.49  79.3681
 56.3956  6226.72  79.3483
 56.4376  6081.92  78.4499
 56.4796  6265.28  79.4233
 56.5216  6148.18  79.0499
 56.5636  6297.1  79.591
 56.6056  6111.6  78.6449
 56.6476  6148.3  78.5101
 56.6896  6141.8  78.916
 56.7316  6246.29  79.4812
 56.7736  6189.86  79.1254
 56.8156  6320.11  79.9428
 56.8576  6147.69  78.7928
 56.8996  6201.25  79.0776
 56.9416  6229.43  79.5566
 56.9836  6098.25  78.2395
 57.0256  6208.51  79.2596
 57.0676  6147.02  78.9909
 57.1096  6215.8  79.218
 57.1516  6263.38  79.5821
 57.1936  6179.46  78.7953
 57.2356  6184.9  79.1482
 57.2776  6166.75  78.9939
 57.3196  6196.88  79.5556
 57.3616  6189.06  78.997
 57.4036  6267.65  79.5586
 57.4456  6198.32  79.0856
 57.4876  6219.25  79.0573
 57.5296  6093.58  78.611
 57.5716  6100.43  78.6435
 57.6136  6232.02  79.2955
 57.6556  6130.96  78.7963
 57.6976  6181.58  78.9448
 57.7396  6046.76  78.4494
 57.7816  6113.73  79.2413
 57.8236  6171.17  79.4042
 57.8656  6235.48  79.4759
 57.9076  6149.82  78.9543
 57.9496  6102.46  79.0014
 57.9916  6033.84  78.0697
 58.0336  6194.47  79.3813
 58.0756  6152.88  78.7211
 58.1176  6188.63  78.9764
 58.1596  6170.4  79.4329
 58.2016  6189.5  78.764
 58.2436  6187.24  79.1652
 58.2856  6210.32  79.2336
 58.3276  6136.1  79.1305
 58.3696  6210.88  79.3574
 58.4116  6047.76  78.1743
 58.4536  6144.85  78.6838
 58.4956  6101.94  78.5912
 58.5376  6359.51  79.7952
 58.5796  6178.55  79.0788
 58.6216  6156.27  78.7481
 58.6636  6235.52  79.4723
 58.7056  6123.24  78.6089
 58.7476  6103.07  78.9263
 58.7896  6187.21  79.1095
 58.8316  6172.54  79.0068
 58.8736  6225.96  79.3588
 58.9156  6140.41  78.8488
 58.9576  6203.2  79.5832
 58.9996  6310.13  79.4925
 59.0416  6370.17  80.2375
 59.0836  6218.42  79.2075
 59.1256  6122.8  79.2968
 59.1676  6170.23  79.9197
 59.2096  6236.02  79.6492
 59.2516  6238.64  79.2402
 59.2936  6270.2  79.7747
 59.3356  6319.47  79.9625
 59.3776  6144.65  79.0191
 59.4196  6227.39  79.4843
 59.4616  6198.55  79.1582
 59.5036  6187.49  79.1234
 59.5456  6244.8  79.1771
 59.5876  6194.44  79.0507
 59.6296  6104.32  78.5432
 59.6716  6159.48  78.9558
 59.7136  6306.59  79.8811
 59.7556  6202.9  79.36
 59.7976  6344.07  79.9937
 59.8396  6270.84  79.423
 59.8816  6241.99  79.79
 59.9236  6262.29  79.5613
 59.9656  6115.06  78.883
 60.0076  6282.02  79.297
 60.0496  6224.99  79.4477
 60.0916  6262.62  79.095
 60.1336  6082.94  79.0634
 60.1756  6133.58  80.5852
 60.1996  0.0000000E+00  0.0000000E+00