File: docs/examples/opeando_xrd/IS17_D/Data/IS17_D/17_Db_f00148.xye
# /beamlines/bl04/projects/cycle2025-II/20250340211-lsimonelli/DATA/IS17_D/17_Db_f00148.xye : mythproc.py merge -s 0.006 -l 0.5 -f /beamlines/bl04/inhouse/ff/FlatField/ff_20Nov2024rod8mm60s_17keV.raw -b True -c true -o xye /beamlines/bl04/projects/cycle2025-II/20250340211-lsimonelli/DATA/IS17_D/17_Db_00148.dat
# IsMon = [6735694, 6741132, 6767114]  IsPos = [-1.4999, -2.4884, -3.4988]
# Wave = 0.4962  CalPath /beamlines/bl04/projects/cycle2025-II/20250340211-lsimonelli/DATA/Align/Si_Pos1_25keV_f00001.cal
# Date = 2025-09-25_10:56:50 Dt = 4.8000  Bin = 0.0060  <imon> = 6747980 +/- 13711 (Min/Max) 6735694 / 6767114
# icurr 249.2945  mocoIn 1.7005E-05  mocoOut 0.7974  i15 7.07109e+06  imon 6.74798e+06  i7 6.3333  iEMpd_timer 4.8000  iEMpd_1 3.3134E-08  iEMpd_2 7.7520E-08  iEMpd_3 1.7742E-08  iEMpd_4 4.6561E-08  iEMhp_timer 4.8000  iEMhp_1 4.8800E-06  iEMhp_2 -2.5458E-08  iEMhp_3 -2.4267E-08  iEMhp_4 -2.1124E-08
#      9776
 1.5856  44551.8  216.936
 1.6276  51292.8  228.776
 1.6696  56702.5  239.689
 1.7116  63662.6  254.471
 1.7536  71771.9  269.042
 1.7956  75607.9  276.828
 1.8376  71966.5  270.507
 1.8796  62184.9  249.595
 1.9216  52325.4  229.874
 1.9636  44597.5  211.352
 2.0056  41004.8  201.874
 2.0476  37906  196.225
 2.0896  36499  191.419
 2.1316  35600.8  188.14
 2.1736  33495.5  183.94
 2.2156  34017.5  183.88
 2.2576  33341.1  182.696
 2.2996  31374.6  177.877
 2.3416  32319.8  179.096
 2.3836  31409  176.662
 2.4256  30443.6  174.493
 2.4676  30003.8  172.982
 2.5096  29911.7  172.773
 2.5516  28635.5  172.878
 2.5936  28650.8  169.47
 2.6356  27905.3  167.956
 2.6776  27764.6  166.43
 2.7196  27531.1  166.222
 2.7616  27615.4  166.261
 2.8036  27007.1  164.581
 2.8456  27124.1  165.588
 2.8876  26365.2  163.1
 2.9296  25922  161.874
 2.9716  25642.8  160.483
 3.0136  25338  159.592
 3.0556  25600.2  160.808
 3.0976  25525.4  159.484
 3.1396  25191.2  159.164
 3.1816  24924.7  158.258
 3.2236  24612.8  157.246
 3.2656  24751.5  156.729
 3.3076  24503.8  157.428
 3.3496  24585.5  156.601
 3.3916  25038.5  157.869
 3.4336  25432.7  159.696
 3.4756  25732  160.58
 3.5176  26627.1  163.116
 3.5596  26307.7  164.513
 3.6016  26225  161.821
 3.6436  25562  160.904
 3.6856  25042.5  157.536
 3.7276  24345.4  156.434
 3.7696  23954.7  155.294
 3.8116  23839.7  154.867
 3.8536  23790  154.615
 3.8956  23666.5  154.055
 3.9376  23625.6  154.184
 3.9796  23590.5  153.566
 4.0216  23531.4  152.418
 4.0636  23584  154.038
 4.1056  23552.6  153.614
 4.1476  24076.3  155.643
 4.1896  23884.2  154.839
 4.2316  24049.8  155.191
 4.2736  24368.8  156.031
 4.3156  24460.2  156.501
 4.3576  25558.7  159.932
 4.3996  25517.4  160.103
 4.4416  26314.8  162.141
 4.4836  26521.7  162.96
 4.5256  27086.1  165.315
 4.5676  26982.3  165.218
 4.6096  27424.3  165.244
 4.6516  27960.7  166.52
 4.6936  28140.1  167.822
 4.7356  28101.8  167.59
 4.7776  27855.2  166.653
 4.8196  27896.1  167.5
 4.8616  27114.4  164.608
 4.9036  27206.1  164.629
 4.9456  26889.9  164.287
 4.9876  26404.2  162.702
 5.0296  26645.3  163.276
 5.0716  26312.2  162.957
 5.1136  26681  163.873
 5.1556  26732.2  163.456
 5.1976  27379.8  165.482
 5.2396  27672.5  166.019
 5.2816  27538.2  166.123
 5.3236  27503.5  165.677
 5.3656  27002.8  165.098
 5.4076  26994.3  165.216
 5.4496  26912.1  164.424
 5.4916  27053.5  164.638
 5.5336  26877.2  164.081
 5.5756  27010.7  164.567
 5.6176  27330  164.935
 5.6596  27536.3  166.584
 5.7016  27680  166.238
 5.7436  27751.5  166.737
 5.7856  27622.1  166.414
 5.8276  27895.1  166.917
 5.8696  28045.7  167.566
 5.9116  28023.4  168.109
 5.9536  28280.3  168.651
 5.9956  28558.4  168.827
 6.0376  28568.6  169.482
 6.0796  28646  169.539
 6.1216  28526.7  169.361
 6.1636  28822.9  169.311
 6.2056  28677.4  169.538
 6.2476  29046.9  170.53
 6.2896  29209.9  170.679
 6.3316  29309.3  171.177
 6.3736  29242.9  170.846
 6.4156  29434.1  171.325
 6.4576  29568.6  171.299
 6.4996  29515.2  171.59
 6.5416  29533  171.803
 6.5836  29205.7  171.058
 6.6256  29510.5  171.535
 6.6676  30084.2  172.764
 6.7096  30164.2  173.889
 6.7516  30336.2  174.004
 6.7936  30646.7  174.271
 6.8356  30566.2  174.156
 6.8776  30783.1  175.55
 6.9196  30888.8  176.288
 6.9616  31434.1  177.295
 7.0036  31824.4  178.024
 7.0456  31713.1  177.006
 7.0876  31663.3  178.561
 7.1296  31643.1  177.628
 7.1716  31689.1  177.284
 7.2136  31413.8  176.311
 7.2556  31734  177.363
 7.2976  31874.9  178.258
 7.3396  31540.3  177.56
 7.3816  31556.5  177.801
 7.4236  32059  178.504
 7.4656  31923.1  177.582
 7.5076  32282.8  178.731
 7.5496  32012.9  178.464
 7.5916  32320.6  179.423
 7.6336  32574.8  180.015
 7.6756  32815.4  180.519
 7.7176  33309.7  182.251
 7.7596  33142.9  182.978
 7.8016  33656.1  186.672
 7.8436  33402.3  182.497
 7.8856  33604  182.66
 7.9276  33984  184.027
 7.9696  34146.1  184.832
 8.0116  35241.8  186.322
 8.0536  35393.3  186.975
 8.0956  35441.9  188.336
 8.1376  35550.3  188.039
 8.1796  36341.7  190.71
 8.2216  36689.5  190.312
 8.2636  37017.3  191.412
 8.3056  36646.4  191.154
 8.3476  37167.7  191.9
 8.3896  37004.6  191.554
 8.4316  37215.7  192.272
 8.4736  37493.6  192.46
 8.5156  36912.1  191.235
 8.5576  36585.4  191.409
 8.5996  36905.4  191.065
 8.6416  36498.6  191.32
 8.6836  36295.8  190.5
 8.7256  36847.9  191.516
 8.7676  36807.9  194.286
 8.8096  36979  192.055
 8.8516  36781.7  191.107
 8.8936  36839.5  191.216
 8.9356  36878.9  191.72
 8.9776  37030.1  192.125
 9.0196  36898.1  191.522
 9.0616  36715.6  190.471
 9.1036  36123.2  190.097
 9.1456  35908.7  188.797
 9.1876  36292.2  189.819
 9.2296  36078.3  188.619
 9.2716  36064.9  188.693
 9.3136  36036.5  188.617
 9.3556  35959.6  188.396
 9.3976  35020.1  186.5
 9.4396  35022.5  186.345
 9.4816  35170  186.664
 9.5236  34562.9  184.879
 9.5656  34356.2  184.676
 9.6076  33811.4  183.661
 9.6496  33907.7  183.881
 9.6916  33893.1  183.724
 9.7336  33957.6  183.753
 9.7756  33531.9  183.849
 9.8176  33659.7  183.883
 9.8596  33432.4  181.694
 9.9016  32935.2  180.339
 9.9436  32880.3  180.101
 9.9856  32186  178.462
 10.0276  32305  179.877
 10.0696  32532.4  179.531
 10.1116  31190.7  176.048
 10.1536  31627.9  177.423
 10.1956  31243.2  175.97
 10.2376  30853.1  174.383
 10.2796  30865  174.514
 10.3216  30309  173.224
 10.3636  30460.1  173.684
 10.4056  29611  171.639
 10.4476  30035.8  172.478
 10.4896  30109.2  172.146
 10.5316  29578  171.343
 10.5736  29647.7  171.964
 10.6156  29182.6  170.369
 10.6576  29240  169.084
 10.6996  28816.8  168.561
 10.7416  28738.8  168.55
 10.7836  28150  167.395
 10.8256  27877.2  166.989
 10.8676  27874.8  166.54
 10.9096  27786.4  166.269
 10.9516  27411.3  164.095
 10.9936  27528.8  164.648
 11.0356  27269.7  164.506
 11.0776  27106.8  163.338
 11.1196  26640.2  162.692
 11.1616  26456  161.82
 11.2036  26644.2  162.22
 11.2456  26448.3  162.354
 11.2876  26891.9  163.449
 11.3296  26394.1  161.808
 11.3716  26753.3  162.57
 11.4136  26768.4  163.529
 11.4556  26907  163.552
 11.4976  27303.3  163.777
 11.5396  27378.1  164.197
 11.5816  27064.7  163.682
 11.6236  26306.3  161.625
 11.6656  26526.2  161.46
 11.7076  25664.6  159.608
 11.7496  25217.9  162.231
 11.7916  25242.7  157.544
 11.8336  24867  157.211
 11.8756  24962.7  157.114
 11.9176  24913.6  156.652
 11.9596  24909.5  156.824
 12.0016  24641.4  156.722
 12.0436  24764.8  156.59
 12.0856  24165.6  155.159
 12.1276  24350.8  155.694
 12.1696  24320.6  154.714
 12.2116  24284.4  154.569
 12.2536  24127.2  154.914
 12.2956  23910.9  153.528
 12.3376  24246  154.877
 12.3796  23983.2  154.483
 12.4216  24128.5  154.145
 12.4636  23736.4  153.818
 12.5056  23927.9  153.704
 12.5476  24123.5  153.848
 12.5896  23764.4  153.312
 12.6316  24058  154.462
 12.6736  23805.7  154.11
 12.7156  24004.1  154.614
 12.7576  23874.9  154.426
 12.7996  24029.6  153.563
 12.8416  23732.7  153.668
 12.8836  23947.5  154.161
 12.9256  24360.2  154.536
 12.9676  24195.2  154.39
 13.0096  24494.4  156.529
 13.0516  24426.3  155.298
 13.0936  24643.1  156.43
 13.1356  24676.3  155.469
 13.1776  24483.9  155.88
 13.2196  24574.2  155.809
 13.2616  24338.1  155.342
 13.3036  24526.2  155.934
 13.3456  24327.4  155.622
 13.3876  24563.8  155.71
 13.4296  24318.9  155.069
 13.4716  24609.7  155.617
 13.5136  24654.7  155.886
 13.5556  24383.7  155.678
 13.5976  24407  155.905
 13.6396  24556.5  155.707
 13.6816  24528  156.12
 13.7236  24961  157.091
 13.7656  26473.1  162.243
 13.8076  27182  163.049
 13.8496  26814.3  162.642
 13.8916  24918.2  157.894
 13.9336  24112.9  154.548
 13.9756  24072.8  153.827
 14.0176  23877.5  153.853
 14.0596  23874.5  153.792
 14.1016  23631.6  153.439
 14.1436  23815  153.196
 14.1856  23167.1  151.361
 14.2276  23184.6  151.929
 14.2696  23380.1  152.387
 14.3116  22718.5  150.096
 14.3536  22425.8  149.314
 14.3956  22275.6  148.559
 14.4376  22788.9  150.031
 14.4796  22528.9  149.166
 14.5216  22251.8  149.037
 14.5636  22028.8  147.86
 14.6056  22322.2  148.385
 14.6476  22150.2  147.066
 14.6896  21790.4  146.414
 14.7316  21387.1  146.087
 14.7736  21229.6  144.713
 14.8156  21267.3  144.841
 14.8576  21089.8  144.09
 14.8996  20801.6  144.31
 14.9416  20469.2  143.164
 14.9836  20310.3  142.541
 15.0256  19824  139.724
 15.0676  19786.5  139.903
 15.1096  19744.8  139.496
 15.1516  19432.7  138.984
 15.1936  19348.8  138.074
 15.2356  19084.8  137.399
 15.2776  18900.7  136.333
 15.3196  18692.5  136.568
 15.3616  18592.8  135.919
 15.4036  18507.6  135.513
 15.4456  18830.1  136.337
 15.4876  18418.9  134.527
 15.5296  18319.7  134.489
 15.5716  18318.7  134.047
 15.6136  18255.4  134.188
 15.6556  17990.5  132.413
 15.6976  18058.3  132.999
 15.7396  17580.2  131.525
 15.7816  17792.5  131.872
 15.8236  17518  131.495
 15.8656  17562  131.501
 15.9076  17221.5  130.047
 15.9496  18004.6  135.885
 15.9916  17906  135.899
 16.0336  18103  133.49
 16.0756  17717.3  132.312
 16.1176  17434.2  131.347
 16.1596  16901.6  130.492
 16.2016  17197.9  130.339
 16.2436  17113.2  130.446
 16.2856  17088.3  129.866
 16.3276  16809.8  129.251
 16.3696  16906.3  129.441
 16.4116  16637.6  128.843
 16.4536  16886  129.615
 16.4956  16699.3  128.675
 16.5376  16717.8  128.892
 16.5796  16477.7  127.328
 16.6216  16593.9  128.053
 16.6636  16282.7  126.977
 16.7056  16550.2  127.92
 16.7476  16525.9  127.357
 16.7896  16387.8  127.565
 16.8316  16441.1  127.755
 16.8736  16670.9  128.946
 16.9156  16542.4  128.735
 16.9576  16378.6  128.96
 16.9996  16248.1  128.879
 17.0416  16565.9  128.585
 17.0836  16355.5  127.533
 17.1256  16140.8  126.693
 17.1676  16224.5  126.973
 17.2096  16099.4  126.397
 17.2516  16075.3  126.084
 17.2936  16012.5  126.193
 17.3356  15896.8  125.732
 17.3776  15658.3  124.961
 17.4196  15698.3  124.809
 17.4616  15596.2  124.322
 17.5036  15547.5  124.488
 17.5456  15246.3  123.911
 17.5876  15420.4  123.667
 17.6296  15487  123.759
 17.6716  15280  123.511
 17.7136  15405.4  124.157
 17.7556  15199.5  123.615
 17.7976  15176.8  123.258
 17.8396  15101.3  122.447
 17.8816  14978.8  122.506
 17.9236  14987.2  122.322
 17.9656  14739  121.775
 18.0076  14929.5  122.117
 18.0496  14786.8  120.682
 18.0916  14919.7  121.76
 18.1336  15034.8  122.342
 18.1756  15211.4  122.601
 18.2176  14693.1  120.705
 18.2596  14721.6  120.566
 18.3016  14791.8  121.102
 18.3436  14855.3  121.379
 18.3856  14798.5  121.293
 18.4276  14845.9  121.14
 18.4696  14597.3  120.196
 18.5116  14762.2  121.163
 18.5536  14574.7  120.716
 18.5956  14484.4  119.936
 18.6376  14317  119.663
 18.6796  14515.2  119.783
 18.7216  14490.1  120.187
 18.7636  14288.2  119.359
 18.8056  14224.5  118.993
 18.8476  14138.3  119.223
 18.8896  14123.1  118.53
 18.9316  14324.8  119.323
 18.9736  14250.1  118.736
 19.0156  14025.7  118.238
 19.0576  14311.6  118.282
 19.0996  14385.2  119.29
 19.1416  14193.5  118.912
 19.1836  14202.7  118.522
 19.2256  14090.6  118.278
 19.2676  14174.5  118.717
 19.3096  14121.6  118.724
 19.3516  13954.7  117.999
 19.3936  13961.9  117.933
 19.4356  14393.7  119.637
 19.4776  14150.2  118.69
 19.5196  13963.5  117.762
 19.5616  13908.3  117.782
 19.6036  14022.5  117.718
 19.6456  14015  117.844
 19.6876  13985.8  117.333
 19.7296  14179.2  118.654
 19.7716  13868.6  117.514
 19.8136  14284.5  119.472
 19.8556  14419.3  119.482
 19.8976  14229.8  118.76
 19.9396  14357.3  118.872
 19.9816  14532.9  119.827
 20.0236  14653.1  120.526
 20.0656  14602.3  120.304
 20.1076  14526.5  120.525
 20.1496  14033.9  118.429
 20.1916  14170.5  118.548
 20.2336  13886.9  117.263
 20.2756  13745.2  117.087
 20.3176  13637.3  116.379
 20.3596  13482.4  115.682
 20.4016  13476.2  115.476
 20.4436  13418.1  115.754
 20.4856  13605.9  116.409
 20.5276  13402.4  115.974
 20.5696  13502.6  115.869
 20.6116  13330.2  115.386
 20.6536  13213.9  114.398
 20.6956  13348.2  115.107
 20.7376  13118.1  114.304
 20.7796  13157.4  114.187
 20.8216  13349.4  114.724
 20.8636  13207.5  114.518
 20.9056  13184.9  114.323
 20.9476  13189.9  114.223
 20.9896  13334.1  114.688
 21.0316  13160.2  113.813
 21.0736  13078.1  113.999
 21.1156  12994.2  113.77
 21.1576  13088.2  114.245
 21.1996  13091.6  114.241
 21.2416  13120.6  114.215
 21.2836  13031  113.777
 21.3256  13145.4  114.378
 21.3676  13095.5  113.666
 21.4096  12889.8  113.095
 21.4516  12922.3  113.106
 21.4936  12606.9  112
 21.5356  13038.7  113.829
 21.5776  13007.9  113.529
 21.6196  12834.3  112.812
 21.6616  12698.1  112.29
 21.7036  12924.1  113.038
 21.7456  12869.9  112.886
 21.7876  12721.5  112.005
 21.8296  12740.1  111.928
 21.8716  12803.5  112.471
 21.9136  12950.3  113.284
 21.9556  12680.9  111.771
 21.9976  12715.3  111.957
 22.0396  12753.7  112.382
 22.0816  12650.1  112.407
 22.1236  12846  112.776
 22.1656  12614.4  111.858
 22.2076  12528.7  110.923
 22.2496  12543.4  111.053
 22.2916  12485  110.632
 22.3336  12401.9  111.027
 22.3756  12375.8  110.598
 22.4176  12389.5  110.517
 22.4596  12128.7  109.89
 22.5016  12283.3  110.126
 22.5436  12517  111.015
 22.5856  12688.7  112.057
 22.6276  12601.4  111.84
 22.6696  12551.7  111.939
 22.7116  12477  111.152
 22.7536  12505.6  111.22
 22.7956  12460  110.383
 22.8376  12293.8  110.096
 22.8796  12320.9  110.054
 22.9216  12415.6  110.986
 22.9636  12434.2  110.256
 23.0056  12455  110.484
 23.0476  12584.5  111.626
 23.0896  12741.7  111.7
 23.1316  12605.7  111.539
 23.1736  12677.6  114.877
 23.2156  12815.5  112.776
 23.2576  12938.7  113.533
 23.2996  12626  111.846
 23.3416  12741.9  112.97
 23.3836  12651.3  111.761
 23.4256  12798.7  112.568
 23.4676  12560.1  111.164
 23.5096  12661.2  112.27
 23.5516  12525  110.968
 23.5936  12641.2  112.396
 23.6356  12884.6  113.133
 23.6776  12537.1  111.766
 23.7196  12446.9  110.984
 23.7616  12621.2  111.632
 23.8036  12766.1  112.411
 23.8456  12546.5  110.905
 23.8876  12484.1  111.075
 23.9296  12260.5  110.519
 23.9716  12483.3  110.718
 24.0136  12387.3  111.195
 24.0556  12458.6  111.229
 24.0976  12190.4  109.843
 24.1396  12071.8  111.961
 24.1816  12301.8  111.443
 24.2236  12198.3  110.65
 24.2656  12125.5  109.779
 24.3076  12013.3  109.549
 24.3496  11968.9  109.214
 24.3916  12049  109.639
 24.4336  11885.8  109.094
 24.4756  11981  109.419
 24.5176  11940.4  108.865
 24.5596  11796.5  108.326
 24.6016  11724.5  108.286
 24.6436  11902.6  108.619
 24.6856  11766.5  107.731
 24.7276  11646.7  107.499
 24.7696  11726  107.98
 24.8116  11583.3  107.495
 24.8536  11625.9  107.7
 24.8956  11610.7  107.353
 24.9376  11583.3  107.161
 24.9796  11466.3  106.984
 25.0216  11444.8  107.005
 25.0636  11504.8  106.929
 25.1056  11282.5  106.587
 25.1476  11344.6  108.467
 25.1896  11246.2  106.505
 25.2316  11248.7  105.742
 25.2736  11329.4  105.811
 25.3156  11159.5  105.074
 25.3576  11253.7  105.955
 25.3996  11252.9  105.933
 25.4416  11154.7  105.454
 25.4836  10994.6  105.208
 25.5256  11125.1  105.198
 25.5676  11108.6  104.864
 25.6096  11023.8  105.019
 25.6516  10987.1  104.363
 25.6936  11052.3  105.002
 25.7356  10993.1  104.826
 25.7776  11027.8  104.585
 25.8196  10863.9  104.049
 25.8616  10882  104.034
 25.9036  11103.5  104.577
 25.9456  10922  104.331
 25.9876  10966.6  104.593
 26.0296  11075.6  104.639
 26.0716  10969.4  104.571
 26.1136  10985.6  104.554
 26.1556  10919  103.585
 26.1976  10839  104.172
 26.2396  10798.8  103.102
 26.2816  10925.2  104.352
 26.3236  10879.8  104.289
 26.3656  10969  104.462
 26.4076  10867.4  104.16
 26.4496  11081.9  104.794
 26.4916  11115.2  104.812
 26.5336  11364.2  106.334
 26.5756  11604.7  107.332
 26.6176  11041.7  104.702
 26.6596  10837.9  104.05
 26.7016  10836.4  103.827
 26.7436  10827.1  103.913
 26.7856  10740.9  103.459
 26.8276  10611.7  102.804
 26.8696  10735.2  103.274
 26.9116  10679.3  102.948
 26.9536  10490.4  102.073
 26.9956  10524.9  102.257
 27.0376  10630  103.033
 27.0796  10524.7  102.236
 27.1216  10559.8  102.485
 27.1636  10424.4  101.963
 27.2056  10468.9  102.07
 27.2476  10451.6  101.972
 27.2896  10367.8  101.668
 27.3316  10327.1  101.196
 27.3736  10330.9  101.473
 27.4156  10448.8  101.926
 27.4576  10387.8  101.838
 27.4996  10398.7  101.51
 27.5416  10323.1  101.429
 27.5836  10157.1  100.438
 27.6256  10331.1  101.482
 27.6676  10274.9  101.177
 27.7096  10317.7  101.288
 27.7516  10262.4  101.148
 27.7936  10476.5  102.39
 27.8356  10390.8  101.548
 27.8776  10469.1  102.015
 27.9196  10148.7  100.279
 27.9616  10173.7  100.608
 28.0036  10183.7  100.615
 28.0456  10143.8  100.541
 28.0876  10003.3  99.9404
 28.1296  10053.6  100.033
 28.1716  10133.6  100.467
 28.2136  10165.5  100.569
 28.2556  10012  99.9399
 28.2976  10027.3  99.9915
 28.3396  9944.11  99.3036
 28.3816  9992.64  99.5782
 28.4236  9980.73  99.6593
 28.4656  9898.16  99.3073
 28.5076  9961.98  99.2689
 28.5496  9967.97  99.5462
 28.5916  9914.63  99.0964
 28.6336  9901.33  99.3995
 28.6756  9918.33  98.6613
 28.7176  9763.39  98.4357
 28.7596  9807.55  98.541
 28.8016  9841.66  98.7738
 28.8436  9809.38  98.8355
 28.8856  9860.21  98.9418
 28.9276  9806  98.9162
 28.9696  9792.77  98.5104
 29.0116  9698.78  98.1887
 29.0536  9606.09  97.9547
 29.0956  9743.18  98.3358
 29.1376  9734.82  98.2815
 29.1796  9696.11  98.164
 29.2216  9574.56  97.359
 29.2636  9791.57  98.5593
 29.3056  9682.73  97.7621
 29.3476  9701.42  98.3891
 29.3896  9707.64  98.496
 29.4316  9695.97  97.7608
 29.4736  9482.47  96.7101
 29.5156  9620.07  97.3584
 29.5576  9422.65  97.1127
 29.5996  9452.05  96.5067
 29.6416  9489.91  96.8423
 29.6836  9555.94  97.0819
 29.7256  9404.45  96.8676
 29.7676  9404.23  96.5006
 29.8096  9338.29  96.134
 29.8516  9223.55  95.8423
 29.8936  9467.15  97.2206
 29.9356  9430.73  96.7904
 29.9776  9312.81  96.3314
 30.0196  9438.32  96.4017
 30.0616  9379.58  96.4447
 30.1036  9450.22  96.663
 30.1456  9307.29  96.0964
 30.1876  9298.73  96.0953
 30.2296  9305.26  96.0168
 30.2716  9410.53  96.2273
 30.3136  9322.08  96.6226
 30.3556  9549.3  97.8399
 30.3976  9399.23  98.5556
 30.4396  9688.34  97.4134
 30.4816  9602.02  96.5489
 30.5236  9609.12  96.6118
 30.5656  9531.07  96.8424
 30.6076  9582.81  96.5143
 30.6496  9518.83  96.6129
 30.6916  9314.14  95.6188
 30.7336  9490.31  96.7015
 30.7756  9388.14  96.2459
 30.8176  9404.84  96.2791
 30.8596  9480.6  96.3884
 30.9016  9514.79  96.9422
 30.9436  9560.13  96.9332
 30.9856  9648.34  97.5191
 31.0276  9380.94  95.7539
 31.0696  9290.89  95.8484
 31.1116  9227.29  95.4866
 31.1536  9321.74  95.8193
 31.1956  9352.82  96.0993
 31.2376  9122.41  94.8972
 31.2796  9366.33  95.732
 31.3216  9430.77  95.9926
 31.3636  9452.02  96.8533
 31.4056  9251.03  97.0915
 31.4476  9423.54  95.961
 31.4896  9292.15  95.7897
 31.5316  9352.86  95.5015
 31.5736  9441.96  95.7904
 31.6156  9405.25  95.5999
 31.6576  9499.11  96.1608
 31.6996  9428.43  95.4838
 31.7416  9158.16  95.1755
 31.7836  9390.2  95.3669
 31.8256  9333.63  95.3516
 31.8676  9406.88  95.7119
 31.9096  9253.14  95.2987
 31.9516  9153.7  94.9553
 31.9936  9178.44  94.891
 32.0356  9222.51  95.1793
 32.0776  9321.46  95.5817
 32.1196  9304.47  95.6035
 32.1616  9432.22  95.6994
 32.2036  9393.83  96.0267
 32.2456  9175.26  95.2808
 32.2876  9292.02  95.3801
 32.3296  9218.25  94.9623
 32.3716  9036.96  94.0754
 32.4136  9008.25  94.0928
 32.4556  9147.49  94.2432
 32.4976  9078.61  93.7568
 32.5396  9080.92  93.8602
 32.5816  9026.83  93.7284
 32.6236  9034.32  93.8003
 32.6656  9167.12  95.0474
 32.7076  8826.42  92.9152
 32.7496  8911.04  93.0497
 32.7916  9150.54  94.241
 32.8336  8985.58  93.4917
 32.8756  9073.92  93.654
 32.9176  8927.18  93.3847
 32.9596  8943.74  93.5283
 33.0016  8953.05  93.3635
 33.0436  9002.41  93.7558
 33.0856  8870.42  93.195
 33.1276  8816.32  92.6538
 33.1696  9024.72  93.5617
 33.2116  8990.59  93.6334
 33.2536  8994.08  93.6436
 33.2956  9027.42  93.8861
 33.3376  8768.42  92.2652
 33.3796  8983.65  93.6216
 33.4216  8879.97  92.6341
 33.4636  9024.85  93.571
 33.5056  8838.09  92.8614
 33.5476  8857.69  92.9484
 33.5896  8945.21  93.1944
 33.6316  8906.23  93.3035
 33.6736  8717.38  92.5304
 33.7156  8729.48  92.627
 33.7576  8907.09  93.2104
 33.7996  8936.81  93.0968
 33.8416  8693.56  92.0387
 33.8836  8736.66  92.0282
 33.9256  8765.81  92.272
 33.9676  8797.55  92.3137
 34.0096  8747.88  92.3896
 34.0516  8583.72  91.1363
 34.0936  8725.78  92.157
 34.1356  8755.05  92.0533
 34.1776  8638.46  91.4247
 34.2196  8590.55  91.373
 34.2616  8613.36  91.6394
 34.3036  8648.38  92.0763
 34.3456  8628.56  91.6943
 34.3876  8736.31  92.2649
 34.4296  8747.27  91.9912
 34.4716  8772.19  92.2747
 34.5136  8667.5  91.9073
 34.5556  8517.23  91.3584
 34.5976  8688.57  92.098
 34.6396  8524.38  90.938
 34.6816  8670.83  91.841
 34.7236  8662.71  91.557
 34.7656  8670.99  91.808
 34.8076  8484.15  91.1432
 34.8496  8470.68  90.9032
 34.8916  8602.45  91.4914
 34.9336  8560.82  91.2327
 34.9756  8593.37  91.3413
 35.0176  8568.36  91.7374
 35.0596  8723.76  92.4047
 35.1016  8644.41  91.7257
 35.1436  8821.57  92.3392
 35.1856  8567.43  91.1193
 35.2276  8499.86  90.9196
 35.2696  8519.75  91.2388
 35.3116  8484.64  91.1294
 35.3536  8599.98  91.4699
 35.3956  8512.3  90.7139
 35.4376  8484.89  91.1541
 35.4796  8444.53  90.9563
 35.5216  8387.13  90.5985
 35.5636  8309.18  90.9189
 35.6056  8447.12  90.6789
 35.6476  8416.09  90.4302
 35.6896  8474.92  90.8467
 35.7316  8305.2  89.8974
 35.7736  8336.68  90.2541
 35.8156  8466.1  90.9717
 35.8576  8521.4  91.4947
 35.8996  8485.74  91.2653
 35.9416  8458.12  90.6342
 35.9836  8481.84  91.1032
 36.0256  8494.56  91.1807
 36.0676  8641.74  91.7392
 36.1096  8354.78  90.341
 36.1516  8500.71  91.0079
 36.1936  8475.44  90.7151
 36.2356  8426.82  91.1145
 36.2776  8295.3  89.8407
 36.3196  8336.31  89.7709
 36.3616  8378.46  90.1242
 36.4036  8361.56  90.1053
 36.4456  8457.49  90.8476
 36.4876  8184.88  89.293
 36.5296  8331.24  90.1234
 36.5716  8405.27  91.3101
 36.6136  8326.45  89.6208
 36.6556  8322.24  89.768
 36.6976  8117.87  89.1797
 36.7396  8153.14  89.1355
 36.7816  8118.84  89.2891
 36.8236  8193.89  89.652
 36.8656  8113.38  89.2528
 36.9076  8114.66  89.1679
 36.9496  7945.53  88.1662
 36.9916  8017.86  88.2244
 37.0336  8255.68  89.8149
 37.0756  8283.58  89.7865
 37.1176  7929.81  88.1129
 37.1596  8171.95  89.4542
 37.2016  8136.33  89.4849
 37.2436  8033.4  88.2334
 37.2856  8060.67  88.6633
 37.3276  7959.06  87.4448
 37.3696  7974.81  88.4318
 37.4116  8048.64  88.6932
 37.4536  8018.55  88.4186
 37.4956  7783.77  87.1366
 37.5376  8202.5  91.1082
 37.5796  8092.59  90.4296
 37.6216  7857.01  87.3701
 37.6636  8233.76  89.3615
 37.7056  8079  88.6763
 37.7476  8271.68  89.2992
 37.7896  8058.6  88.5812
 37.8316  8032.82  88.6646
 37.8736  8100.61  88.4944
 37.9156  8126.76  88.6686
 37.9576  8115.52  88.5159
 37.9996  8054.89  87.8953
 38.0416  8001.32  88.408
 38.0836  8254.32  89.6991
 38.1256  8058.81  88.6002
 38.1676  7979.51  88.2804
 38.2096  8093.16  88.5438
 38.2516  8108.23  88.7935
 38.2936  8218.82  89.2595
 38.3356  8098.38  88.4654
 38.3776  7899.19  87.6505
 38.4196  7980.5  87.93
 38.4616  8076.05  88.7328
 38.5036  8203.3  89.2664
 38.5456  7936.02  88.6545
 38.5876  7935.62  88.6846
 38.6296  7962.41  87.8411
 38.6716  7959.32  87.6433
 38.7136  7964.22  87.6095
 38.7556  7934.69  87.9559
 38.7976  7960.93  88.0245
 38.8396  7948.47  88.4173
 38.8816  7861.32  87.7256
 38.9236  7900.35  87.7407
 38.9656  8007.71  88.2499
 39.0076  8027.98  87.7643
 39.0496  8130.31  88.886
 39.0916  7985.84  87.731
 39.1336  7930.41  87.8322
 39.1756  7972.06  88.1149
 39.2176  7907.89  88.3032
 39.2596  8032.37  88.9234
 39.3016  7911.78  87.832
 39.3436  7890.22  88.1289
 39.3856  7926.98  87.7762
 39.4276  8100.36  89.2513
 39.4696  7873.59  87.6108
 39.5116  7908.01  88.3208
 39.5536  7888.73  88.5612
 39.5956  7940.83  87.9748
 39.6376  7936.53  87.9083
 39.6796  7933.06  87.6784
 39.7216  7869.89  87.3855
 39.7636  7964.68  88.5036
 39.8056  7875.89  87.7825
 39.8476  7738.01  87.271
 39.8896  7955  88.1328
 39.9316  7869.52  87.8915
 39.9736  8028.14  88.3577
 40.0156  7868.45  87.2933
 40.0576  7858.19  87.5961
 40.0996  8034.65  87.7496
 40.1416  7946.42  88.0594
 40.1836  7938.57  87.8952
 40.2256  7993.52  88.2501
 40.2676  7922.93  87.9542
 40.3096  7938.29  87.9714
 40.3516  7974.35  88.2797
 40.3936  8023.18  88.1039
 40.4356  7941.24  87.8686
 40.4776  7972.53  88.4392
 40.5196  8070.15  89.1044
 40.5616  8093  88.8915
 40.6036  7964.13  88.4187
 40.6456  8038.87  88.4046
 40.6876  8056.76  88.5261
 40.7296  7903.45  87.7981
 40.7716  7920.46  88.0212
 40.8136  7853.23  87.6116
 40.8556  8023.97  88.6999
 40.8976  7868.48  87.7395
 40.9396  7990.93  88.7868
 40.9816  8053.51  88.4047
 41.0236  7893.38  87.275
 41.0656  7974.4  88.2868
 41.1076  7925.37  87.7743
 41.1496  7942.47  87.786
 41.1916  7880.84  87.7807
 41.2336  8025.53  88.5806
 41.2756  8026.9  88.1782
 41.3176  8004.85  88.6794
 41.3596  7961.59  88.1634
 41.4016  7881.64  87.9488
 41.4436  7996.08  88.3967
 41.4856  7900.4  88.0178
 41.5276  7916.2  88.1339
 41.5696  7897.94  87.6814
 41.6116  7950.15  88.3661
 41.6536  7871.18  87.7603
 41.6956  8047.23  88.8208
 41.7376  7885.94  87.9379
 41.7796  7750.74  87.0309
 41.8216  7952.3  88.4221
 41.8636  7921.24  88.174
 41.9056  7912.57  87.9304
 41.9476  7984.92  88.5634
 41.9896  7999.14  88.3315
 42.0316  7888.55  87.7865
 42.0736  7995.34  88.4955
 42.1156  7868.02  87.6103
 42.1576  7905.32  87.905
 42.1996  8000.96  88.5828
 42.2416  7916.97  87.6897
 42.2836  8006.95  88.3155
 42.3256  7928.68  88.0005
 42.3676  8044.57  88.458
 42.4096  7957.03  87.9313
 42.4516  7965.42  88.071
 42.4936  7809.56  87.2562
 42.5356  7819.77  87.4433
 42.5776  7909.63  87.8946
 42.6196  7951.14  88.1874
 42.6616  7690.5  86.8932
 42.7036  7970.74  87.8388
 42.7456  7948.92  88.0914
 42.7876  7828.94  87.4928
 42.8296  7841.22  87.3903
 42.8716  7815.72  87.429
 42.9136  7797.76  87.1199
 42.9556  7959.35  88.1509
 42.9976  7839.28  87.4561
 43.0396  7846.73  87.2164
 43.0816  7730.06  86.9459
 43.1236  7740.25  87.05
 43.1656  7894.81  87.7432
 43.2076  7787.81  87.252
 43.2496  7833.68  87.3364
 43.2916  7722.07  87.0697
 43.3336  7791.08  87.2856
 43.3756  7818.64  87.2286
 43.4176  7693.39  86.5835
 43.4596  7799.25  87.0328
 43.5016  7839.06  87.6539
 43.5436  7817.16  87.4353
 43.5856  7725  86.9253
 43.6276  7764.87  87.0626
 43.6696  7663.73  86.7269
 43.7116  7783.24  86.9229
 43.7536  7846.77  87.8018
 43.7956  7724.51  88.306
 43.8376  7656.47  86.4278
 43.8796  7642.21  86.4011
 43.9216  7586.8  86.0062
 43.9636  7705.59  86.76
 44.0056  7619.48  86.5318
 44.0476  7604.36  86.0454
 44.0896  7563.93  86.1872
 44.1316  7757.53  86.8036
 44.1736  7633.89  86.2343
 44.2156  7653.01  86.2266
 44.2576  7658.82  86.5404
 44.2996  7624.58  86.3584
 44.3416  7518.01  85.4621
 44.3836  7487.72  85.6444
 44.4256  7534.08  85.5247
 44.4676  7528.08  85.6719
 44.5096  7610.64  86.2874
 44.5516  7522.46  85.753
 44.5936  7422.65  85.1327
 44.6356  7541.23  85.5471
 44.6776  7447.43  85.3569
 44.7196  7395.6  85.3096
 44.7616  7615.44  87.9795
 44.8036  7674.06  86.666
 44.8456  7616.06  86.5721
 44.8876  7642.83  86.5632
 44.9296  7741.39  86.5721
 44.9716  7709.81  86.8487
 45.0136  7690.49  86.6487
 45.0556  7766.74  87.0905
 45.0976  7593.82  86.2407
 45.1396  7701.01  86.5804
 45.1816  7571.48  85.7826
 45.2236  7589.79  85.818
 45.2656  7561.3  86.1273
 45.3076  7607.87  86.1818
 45.3496  7537.25  86.0789
 45.3916  7593.04  86.6969
 45.4336  7574.25  86.4682
 45.4756  7583.94  86.3462
 45.5176  7657.85  86.409
 45.5596  7768.77  87.1202
 45.6016  7579.45  86.4781
 45.6436  7587.22  85.6869
 45.6856  7531.54  86.0358
 45.7276  7415.51  86.674
 45.7696  7543.61  87.1268
 45.8116  7418.27  85.885
 45.8536  7500.91  86.2625
 45.8956  7556.08  85.9298
 45.9376  7570.22  85.4625
 45.9796  7541.45  85.9936
 46.0216  7575.02  86.5224
 46.0636  7629.27  85.9741
 46.1056  7527.54  85.3891
 46.1476  7507.55  85.8688
 46.1896  7536.85  86.1904
 46.2316  7603.08  86.42
 46.2736  7498.23  86.2088
 46.3156  7540.18  86.031
 46.3576  7563.19  86.3672
 46.3996  7501.33  86.1595
 46.4416  7516.21  85.8271
 46.4836  7479.57  85.9751
 46.5256  7561.08  86.3893
 46.5676  7403.87  85.601
 46.6096  7499.74  86.0784
 46.6516  7658.66  86.0113
 46.6936  7623.7  86.3244
 46.7356  7581.77  86.1861
 46.7776  7429.68  86.1082
 46.8196  7484.11  86.0379
 46.8616  7343.86  85.1285
 46.9036  7392.91  85.1097
 46.9456  7452.79  85.0485
 46.9876  7382.4  84.754
 47.0296  7424.89  85.666
 47.0716  7299.1  84.7874
 47.1136  7376.31  84.9251
 47.1556  7449.02  85.1936
 47.1976  7563.44  85.9398
 47.2396  7506.07  86.0047
 47.2816  7354.69  84.8444
 47.3236  7459.62  85.8147
 47.3656  7424.23  85.5493
 47.4076  7278.78  84.4666
 47.4496  7417.59  85.3945
 47.4916  7327.93  85.0618
 47.5336  7516.53  85.9696
 47.5756  7532.54  86.1774
 47.6176  7407.36  85.3604
 47.6596  7390.19  84.9822
 47.7016  7542.16  85.6598
 47.7436  7453.28  85.498
 47.7856  7499.9  85.7977
 47.8276  7375.58  85.1135
 47.8696  7411.74  85.4013
 47.9116  7452.39  85.3574
 47.9536  7443.9  85.2197
 47.9956  7327.49  85.2945
 48.0376  7252.97  84.6409
 48.0796  7395.94  85.5904
 48.1216  7369.19  85.2647
 48.1636  7471.48  85.4267
 48.2056  7443.48  85.5186
 48.2476  7534.55  86.375
 48.2896  7369.06  85.3061
 48.3316  7469.73  85.7994
 48.3736  7418.8  85.5625
 48.4156  7395.27  85.2568
 48.4576  7315.37  85.1117
 48.4996  7473.54  85.4789
 48.5416  7592.88  86.5052
 48.5836  7312.74  84.5473
 48.6256  7474.44  85.7106
 48.6676  7356.16  85.5236
 48.7096  7415.85  85.1049
 48.7516  7359.55  84.9605
 48.7936  7263.37  84.4496
 48.8356  7430.03  85.4805
 48.8776  7334.37  85.5135
 48.9196  7494.66  85.8086
 48.9616  7353.61  85.36
 49.0036  7428.24  86.1747
 49.0456  7262.24  85.1706
 49.0876  7396.47  85.449
 49.1296  7359.46  85.4203
 49.1716  7303.76  84.9638
 49.2136  7444.95  85.7126
 49.2556  7377.84  85.3615
 49.2976  7427.18  85.7325
 49.3396  7308.97  85.0854
 49.3816  7482.35  85.5259
 49.4236  7296.77  84.8593
 49.4656  7238.77  84.5316
 49.5076  7375.46  85.0899
 49.5496  7383.85  85.2076
 49.5916  7372.47  85.0477
 49.6336  7364.16  85.2133
 49.6756  7299.48  85.0929
 49.7176  7329.02  85.1839
 49.7596  7310.72  84.836
 49.8016  7411.78  85.3447
 49.8436  7283.18  84.8896
 49.8856  7250.7  84.7175
 49.9276  7196.62  84.514
 49.9696  7342.99  85.3422
 50.0116  7282.82  85.1316
 50.0536  7379.49  85.6336
 50.0956  7255.17  84.9821
 50.1376  7246.48  84.6087
 50.1796  7303.68  85.2332
 50.2216  7237.79  84.8406
 50.2636  7222.92  84.3579
 50.3056  7160.11  84.1863
 50.3476  7288.55  84.9433
 50.3896  7189.67  84.3439
 50.4316  7252.84  84.5434
 50.4736  7182.77  84.354
 50.5156  7260.93  84.7733
 50.5576  7323.7  84.9216
 50.5996  7232.38  84.6801
 50.6416  7255.42  84.7295
 50.6836  7280.67  84.9692
 50.7256  7269.63  84.8099
 50.7676  7270.16  85.1985
 50.8096  7266.46  84.6419
 50.8516  7234.3  84.8709
 50.8936  7157.51  84.1718
 50.9356  7259.31  84.8981
 50.9776  7278.7  85.1585
 51.0196  6954.44  83.3502
 51.0616  7109.25  83.6144
 51.1036  7014.39  83.393
 51.1456  7181.89  84.3194
 51.1876  7178.69  83.595
 51.2296  7128.87  83.9523
 51.2716  7066.39  83.2605
 51.3136  6972.28  83.1981
 51.3556  7134.41  83.7461
 51.3976  6988.16  83.0595
 51.4396  6862.73  82.6265
 51.4816  6993.54  83.2612
 51.5236  7122.75  84.1396
 51.5656  6837.29  82.0076
 51.6076  7062.91  83.4579
 51.6496  6956.95  82.9725
 51.6916  6990.28  83.5874
 51.7336  6885.02  82.997
 51.7756  7104.23  84.0099
 51.8176  7035.06  83.7246
 51.8596  6903.76  82.9539
 51.9016  7127.25  83.8794
 51.9436  7094.73  85.2538
 51.9856  7140.63  85.9636
 52.0276  7170.52  84.5608
 52.0696  7190.45  84.7735
 52.1116  6960.57  83.4693
 52.1536  7138.18  84.4693
 52.1956  7030.75  83.2287
 52.2376  7173.41  84.2752
 52.2796  7180.66  84.1279
 52.3216  7019.8  83.8849
 52.3636  6867.49  82.5304
 52.4056  6970.46  83.0136
 52.4476  6937.26  83.162
 52.4896  6902.21  83.0219
 52.5316  7099.1  84.2834
 52.5736  6952.36  83.0547
 52.6156  7209.74  85.0552
 52.6576  6990.54  83.1093
 52.6996  6730.64  82.5739
 52.7416  6821.71  82.9503
 52.7836  6894.57  83.3119
 52.8256  7014.27  83.2286
 52.8676  6850.04  82.833
 52.9096  6943.92  83.469
 52.9516  7011.67  84.2892
 52.9936  6957.33  84.3666
 53.0356  6943.24  83.3012
 53.0776  6994.23  83.8839
 53.1196  7019.41  84.1578
 53.1616  6988.08  84.0152
 53.2036  6872.69  83.2883
 53.2456  6875.75  83.4125
 53.2876  7009.24  83.9022
 53.3296  7006.56  84.2218
 53.3716  7061.63  84.2922
 53.4136  7083.22  84.5788
 53.4556  6940.72  83.749
 53.4976  6887.19  83.2675
 53.5396  6905.32  83.7739
 53.5816  6988.78  83.9157
 53.6236  6845.43  83.4058
 53.6656  6915.1  83.4171
 53.7076  6895.65  83.2782
 53.7496  6908.67  83.4855
 53.7916  6924.96  83.7142
 53.8336  6965.4  83.8485
 53.8756  6773.51  83.2271
 53.9176  6876.75  83.193
 53.9596  6722.8  82.944
 54.0016  6644.92  81.8317
 54.0436  6582.4  81.6398
 54.0856  6735.57  82.0296
 54.1276  6720.2  82.1226
 54.1696  6570.56  81.3734
 54.2116  6880.73  83.032
 54.2536  6611.56  81.1871
 54.2956  6657  81.5342
 54.3376  6542.02  81.3002
 54.3796  6576.13  81.4144
 54.4216  6773.32  82.6846
 54.4636  6566.82  81.3679
 54.5056  6681.46  81.8734
 54.5476  6648.23  82.0229
 54.5896  6660.58  81.9263
 54.6316  6675.95  81.8669
 54.6736  6589.19  81.4192
 54.7156  6581.06  81.3986
 54.7576  6541.46  81.1402
 54.7996  6657.9  82.0029
 54.8416  6633.81  81.899
 54.8836  6582.13  81.6991
 54.9256  6485.28  80.8507
 54.9676  6491.01  80.7028
 55.0096  6569.33  81.2588
 55.0516  6494.18  80.9857
 55.0936  6616.21  81.4469
 55.1356  6545.47  81.0634
 55.1776  6701.11  82.2745
 55.2196  6581.45  81.3067
 55.2616  6736.54  82.5102
 55.3036  6510.75  81.2645
 55.3456  6426.38  80.8468
 55.3876  6486.61  80.9753
 55.4296  6426.19  80.5924
 55.4716  6501.86  81.1063
 55.5136  6477.34  80.717
 55.5556  6609.69  81.5922
 55.5976  6465.83  80.7744
 55.6396  6585.94  81.4775
 55.6816  6412.91  80.2474
 55.7236  6391.94  80.162
 55.7656  6435.78  80.1822
 55.8076  6415.16  80.0381
 55.8496  6421.85  80.4095
 55.8916  6318.09  79.9754
 55.9336  6511.91  81.0225
 55.9756  6451.6  80.4993
 56.0176  6368.01  80.1323
 56.0596  6445.8  80.6205
 56.1016  6303.21  79.7115
 56.1436  6341.52  80.2175
 56.1856  6328.27  79.8872
 56.2276  6528.11  81.2143
 56.2696  6380.03  80.2462
 56.3116  6469.6  81.2121
 56.3536  6399.67  80.4262
 56.3956  6409.64  80.4516
 56.4376  6398  80.4489
 56.4796  6265.09  79.3846
 56.5216  6364.31  80.4207
 56.5636  6241.45  79.1878
 56.6056  6479.06  80.9654
 56.6476  6453.87  80.3806
 56.6896  6513.23  81.246
 56.7316  6303.56  79.8236
 56.7736  6381.09  80.32
 56.8156  6273.72  79.6519
 56.8576  6209.81  79.1684
 56.8996  6370.8  80.0963
 56.9416  6252.4  79.6793
 56.9836  6387.87  80.0785
 57.0256  6234.3  79.406
 57.0676  6384.5  80.4808
 57.1096  6246.75  79.391
 57.1516  6213.31  79.2035
 57.1936  6115.26  78.3553
 57.2356  6140.77  78.8307
 57.2776  6292.2  79.7808
 57.3196  6328.19  80.3445
 57.3616  6231.96  79.237
 57.4036  6328.89  79.8987
 57.4456  6340.34  79.969
 57.4876  6374.09  80.0466
 57.5296  6206.28  79.287
 57.5716  6205.14  79.2973
 57.6136  6178.79  78.9532
 57.6556  6231.12  79.4209
 57.6976  6341.37  79.964
 57.7396  6230.72  79.6033
 57.7816  6186.5  79.6853
 57.8236  6170.21  79.3936
 57.8656  6252.1  79.5662
 57.9076  6234.08  79.4596
 57.9496  6204.3  79.6462
 57.9916  6239.62  79.3996
 58.0336  6185.66  79.3125
 58.0756  6244.42  79.3534
 58.1176  6178.19  78.9041
 58.1596  6043.82  78.6178
 58.2016  5967.42  77.2857
 58.2436  6005.2  77.9614
 58.2856  6030.57  78.025
 58.3276  5985.53  78.1256
 58.3696  5977.78  77.8551
 58.4116  5976.67  77.6849
 58.4536  5975.16  77.5879
 58.4956  5969.09  77.7016
 58.5376  6039.27  77.7289
 58.5796  5938.19  77.4736
 58.6216  5965.3  77.4908
 58.6636  5961.52  77.6495
 58.7056  5919.96  77.267
 58.7476  5937.28  77.82
 58.7896  5896.86  77.1948
 58.8316  5979.03  77.7592
 58.8736  6023.29  78.0319
 58.9156  5951.95  77.6361
 58.9576  5921.79  77.7047
 58.9996  5990.7  77.4615
 59.0416  6017.08  77.9455
 59.0836  5944.54  77.412
 59.1256  5841.39  77.4315
 59.1676  5938.83  78.3866
 59.2096  5961.1  77.7667
 59.2516  6022.36  77.7475
 59.2936  5894.39  77.2407
 59.3356  5837.94  76.7499
 59.3776  5912.87  77.4078
 59.4196  5930.05  77.4553
 59.4616  5904.34  77.1505
 59.5036  5935.39  77.3881
 59.5456  5967.4  77.2921
 59.5876  5890.78  76.9828
 59.6296  5926.71  77.2857
 59.6716  5749.47  76.1777
 59.7136  5905.91  77.1956
 59.7556  5960.96  77.6899
 59.7976  5810.61  76.4513
 59.8396  6089.06  78.1557
 59.8816  5841.43  77.086
 59.9236  5991.56  77.7155
 59.9656  5957.11  77.7501
 60.0076  5929.05  76.9311
 60.0496  5958.34  77.6201
 60.0916  6037.78  77.5554
 60.1336  5883.8  77.6515
 60.1756  5956.62  79.305
 60.1996  0.0000000E+00  0.0000000E+00