File: docs/examples/opeando_xrd/IS17_D/Data/IS17_D/17_Da_f00109.xye
# /beamlines/bl04/projects/cycle2025-II/20250340211-lsimonelli/DATA/IS17_D/17_Da_f00109.xye : mythproc.py merge -s 0.006 -l 0.5 -f /beamlines/bl04/inhouse/ff/FlatField/ff_20Nov2024rod8mm60s_17keV.raw -b True -c true -o xye /beamlines/bl04/projects/cycle2025-II/20250340211-lsimonelli/DATA/IS17_D/17_Da_00109.dat
# IsMon = [6791277, 6792510, 6792223]  IsPos = [-1.4999, -2.4884, -3.4988]
# Wave = 0.4962  CalPath /beamlines/bl04/projects/cycle2025-II/20250340211-lsimonelli/DATA/Align/Si_Pos1_25keV_f00001.cal
# Date = 2025-09-24_23:57:35 Dt = 4.8000  Bin = 0.0060  <imon> = 6792003 +/- 527 (Min/Max) 6791277 / 6792510
# icurr 253.0950  mocoIn 1.7262E-05  mocoOut 0.8096  i15 7.11235e+06  imon 6.792e+06  i7 6.0000  iEMpd_timer 4.8000  iEMpd_1 3.4722E-08  iEMpd_2 7.8463E-08  iEMpd_3 1.9059E-08  iEMpd_4 4.8561E-08  iEMhp_timer 4.8000  iEMhp_1 4.9446E-06  iEMhp_2 -2.5594E-08  iEMhp_3 -2.5739E-08  iEMhp_4 -2.2215E-08
#      9776
 1.5856  41312.2  208.721
 1.6276  48710.8  222.752
 1.6696  55495.8  236.922
 1.7116  64638  256.193
 1.7536  73618.9  272.248
 1.7956  78528.3  281.881
 1.8376  74603.3  275.182
 1.8796  62705.9  250.432
 1.9216  50999.5  226.749
 1.9636  43566.3  208.713
 2.0056  39423.3  197.774
 2.0476  36381.2  192.073
 2.0896  35226.8  187.892
 2.1316  34487.7  185.017
 2.1736  32696.2  181.577
 2.2156  33342.3  181.89
 2.2576  32130.5  179.194
 2.2996  31137.1  177.05
 2.3416  31643.8  177.062
 2.3836  31111.1  175.672
 2.4256  30182  173.593
 2.4676  29635.9  171.771
 2.5096  29307.2  170.872
 2.5516  28645.1  172.836
 2.5936  29022.4  170.456
 2.6356  28428.7  169.418
 2.6776  28599.7  168.767
 2.7196  28102.8  167.832
 2.7616  28120.4  167.659
 2.8036  27735.2  166.684
 2.8456  27834  167.62
 2.8876  27267.5  165.778
 2.9296  26789.9  164.451
 2.9716  26428.8  162.814
 3.0136  26218.9  162.235
 3.0556  26505.8  163.535
 3.0976  26012.3  160.895
 3.1396  25899.3  161.294
 3.1816  25545.8  160.125
 3.2236  25227.8  159.121
 3.2656  25360.6  158.544
 3.3076  24657.3  157.816
 3.3496  25198.5  158.444
 3.3916  25479.7  159.148
 3.4336  25859.9  160.925
 3.4756  25977  161.218
 3.5176  26737.6  163.344
 3.5596  26724.6  165.801
 3.6016  27089  164.471
 3.6436  25990.2  162.224
 3.6856  25582.2  159.201
 3.7276  24533.9  157.02
 3.7696  24380.3  156.727
 3.8116  23952.1  155.228
 3.8536  24051  155.481
 3.8956  23869.3  154.718
 3.9376  23690.4  154.396
 3.9796  23642.5  153.738
 4.0216  23875  153.51
 4.0636  23698.8  154.441
 4.1056  23709  154.108
 4.1476  23922.1  155.121
 4.1896  24099.6  155.555
 4.2316  24265.1  155.913
 4.2736  24857.2  157.58
 4.3156  24986.9  158.228
 4.3576  25836  160.823
 4.3996  25919.2  161.336
 4.4416  26341.6  162.228
 4.4836  26826.1  163.868
 4.5256  27317.6  165.985
 4.5676  27211.4  165.918
 4.6096  27817.1  166.387
 4.6516  28078.2  166.872
 4.6936  28369.7  168.563
 4.7356  28500.5  168.779
 4.7776  28526.4  168.683
 4.8196  28256.2  168.535
 4.8616  27761.2  166.537
 4.9036  27602.9  165.8
 4.9456  27423.8  165.923
 4.9876  26741.1  163.745
 5.0296  26855.8  163.906
 5.0716  26970.5  165.05
 5.1136  27252.5  165.613
 5.1556  27537.5  165.929
 5.1976  27816.1  166.762
 5.2396  27944.1  166.835
 5.2816  27881.1  167.115
 5.3236  27919.2  166.932
 5.3656  27476.9  166.537
 5.4076  27130.9  165.639
 5.4496  27167.1  165.229
 5.4916  27483.9  165.944
 5.5336  27459.5  165.877
 5.5756  27301  165.425
 5.6176  27460.3  165.334
 5.6596  27556.8  166.61
 5.7016  27843.2  166.729
 5.7436  27954.7  167.342
 5.7856  27922.9  167.304
 5.8276  28138.8  167.67
 5.8696  28288.5  168.288
 5.9116  28034.6  168.139
 5.9536  28459.5  169.16
 5.9956  28846  169.653
 6.0376  28880.6  170.408
 6.0796  28977  170.522
 6.1216  29255.4  171.545
 6.1636  29248.8  170.578
 6.2056  29155.5  170.977
 6.2476  29426.6  171.642
 6.2896  29860  172.577
 6.3316  29692.5  172.272
 6.3736  29670.2  172.096
 6.4156  29714  172.116
 6.4576  30051.7  172.693
 6.4996  30397.9  174.175
 6.5416  30138.6  173.569
 6.5836  30327.8  174.347
 6.6256  30478  174.333
 6.6676  30974.4  175.307
 6.7096  30876.7  175.897
 6.7516  31272.9  176.67
 6.7936  31440.9  176.564
 6.8356  31529.3  176.892
 6.8776  32011.1  179.054
 6.9196  31830.1  178.954
 6.9616  32633.7  180.631
 7.0036  32983.7  181.24
 7.0456  32987.7  180.535
 7.0876  32809  181.764
 7.1296  32618.6  180.361
 7.1716  32865.1  180.569
 7.2136  32586.4  179.582
 7.2556  32795.7  180.322
 7.2976  32706.6  180.583
 7.3396  32486.5  180.186
 7.3816  32653.7  180.871
 7.4236  32637.2  180.108
 7.4656  33264.2  181.303
 7.5076  33247.6  181.395
 7.5496  33416.9  182.406
 7.5916  33243.7  181.964
 7.6336  33713.5  183.142
 7.6756  33647  182.807
 7.7176  34055  184.224
 7.7596  33904  185.083
 7.8016  34038.8  187.655
 7.8436  34637.6  185.926
 7.8856  35028.8  186.58
 7.9276  36104.1  189.824
 7.9696  36020.5  189.922
 8.0116  36960.1  190.889
 8.0536  36981.9  191.208
 8.0956  37034.6  192.536
 8.1376  37399.2  192.949
 8.1796  37522.7  193.814
 8.2216  38352.4  194.666
 8.2636  38562.2  195.45
 8.3056  38655.1  196.473
 8.3476  39052  196.793
 8.3896  38837.9  196.335
 8.4316  38996.6  196.9
 8.4736  39149.5  196.74
 8.5156  39026.4  196.719
 8.5576  38650.3  196.76
 8.5996  38533.4  195.316
 8.6416  38325.2  196.062
 8.6836  38255.5  195.719
 8.7256  38751  196.411
 8.7676  38141.2  197.804
 8.8096  38046.8  194.837
 8.8516  37681.8  193.508
 8.8936  37255.7  192.294
 8.9356  37501.1  193.286
 8.9776  37445  193.239
 9.0196  37209.6  192.301
 9.0616  37429  192.314
 9.1036  37111.4  192.715
 9.1456  36879.5  191.458
 9.1876  37299.7  192.498
 9.2296  37166.6  191.552
 9.2716  36510.3  189.916
 9.3136  36319.2  189.397
 9.3556  36689.1  190.339
 9.3976  35255.4  187.126
 9.4396  36049.8  189.107
 9.4816  35237.4  186.825
 9.5236  35194.9  186.625
 9.5656  35007.9  186.45
 9.6076  34897.1  186.695
 9.6496  34292.2  184.994
 9.6916  34820.6  186.386
 9.7336  34682.8  185.791
 9.7756  34817.6  187.427
 9.8176  34024.8  184.771
 9.8596  33651.3  182.189
 9.9016  33246.2  181.083
 9.9436  32907.1  180.07
 9.9856  32717.3  179.774
 10.0276  32279.4  179.684
 10.0696  32784.9  180.107
 10.1116  31572.2  177.009
 10.1536  31756.4  177.694
 10.1956  31282  175.961
 10.2376  30853.9  174.253
 10.2796  31101.5  175.079
 10.3216  30565.5  173.83
 10.3636  30221.1  172.883
 10.4056  29911.9  172.396
 10.4476  29826.7  171.774
 10.4896  29933.4  171.533
 10.5316  29331.7  170.512
 10.5736  29047.9  170.086
 10.6156  28546.7  168.388
 10.6576  28973.7  168.201
 10.6996  28559.3  167.669
 10.7416  28170.1  166.754
 10.7836  28457.8  168.295
 10.8256  27854.9  166.935
 10.8676  28088.7  167.165
 10.9096  27724.9  166.122
 10.9516  27599.1  164.671
 10.9936  27514  164.613
 11.0356  27369.3  164.818
 11.0776  26972.9  162.932
 11.1196  26657.5  162.726
 11.1616  26486.3  161.887
 11.2036  26805.1  162.714
 11.2456  26328.1  161.964
 11.2876  26452.5  162.079
 11.3296  26152.8  161.053
 11.3716  26280.6  161.132
 11.4136  26076.8  161.406
 11.4556  26230.1  161.549
 11.4976  26235.8  160.544
 11.5396  26579  161.756
 11.5816  27014.3  163.538
 11.6236  27722.6  165.896
 11.6656  27963.1  165.74
 11.7076  27242.5  164.455
 11.7496  26479.8  166.146
 11.7916  26309.6  160.866
 11.8336  25941.6  160.633
 11.8756  25552.3  158.952
 11.9176  25726.5  159.137
 11.9596  25383.1  158.272
 12.0016  25310.2  158.849
 12.0436  25338.1  158.346
 12.0856  24896  157.494
 12.1276  24940.1  157.541
 12.1696  24951.8  156.712
 12.2116  25062  157.054
 12.2536  24765.3  156.959
 12.2956  24957.4  156.892
 12.3376  24668.7  156.194
 12.3796  24809.3  157.091
 12.4216  24695.1  155.95
 12.4636  24531.8  156.349
 12.5056  24511.4  155.561
 12.5476  24905.6  156.327
 12.5896  24774.6  156.556
 12.6316  24262.4  155.09
 12.6736  24510.1  156.363
 12.7156  24463.6  156.079
 12.7576  24573  156.672
 12.7996  24510.7  155.109
 12.8416  24476.7  156.063
 12.8836  24983.8  157.497
 12.9256  25040.1  156.671
 12.9676  25067.8  157.192
 13.0096  24953.2  157.945
 13.0516  25131.7  157.528
 13.0936  25152.3  158
 13.1356  25631.9  158.465
 13.1776  25368.9  158.653
 13.2196  25654.4  159.199
 13.2616  25653.2  159.511
 13.3036  25597.8  159.308
 13.3456  25479.9  159.301
 13.3876  25462.6  158.528
 13.4296  25294  158.154
 13.4716  25418.5  158.145
 13.5136  25453.3  158.412
 13.5556  25272.2  158.462
 13.5976  25347.7  158.858
 13.6396  25616.9  159.049
 13.6816  25135.7  158.046
 13.7236  25909.2  160.096
 13.7656  25063.9  158.008
 13.8076  25350.9  157.674
 13.8496  24962.7  157.068
 13.8916  24926.8  157.967
 13.9336  25000.3  157.42
 13.9756  24881.4  156.384
 14.0176  24696  156.487
 14.0596  24692.3  156.443
 14.1016  24447  156.065
 14.1436  24279.7  154.653
 14.1856  23965.5  153.947
 14.2276  23700.6  153.577
 14.2696  24054.6  154.564
 14.3116  23737.4  153.444
 14.3536  23214.9  151.921
 14.3956  23387.2  152.209
 14.4376  23524.9  152.426
 14.4796  23307.8  151.717
 14.5216  23109.6  151.879
 14.5636  23031.5  151.183
 14.6056  22967.2  150.544
 14.6476  23004.4  149.88
 14.6896  22632.9  149.212
 14.7316  22267.6  149.05
 14.7736  22077.9  147.55
 14.8156  22035.7  147.444
 14.8576  21775  146.417
 14.8996  21539.8  146.855
 14.9416  21060.8  145.207
 14.9836  21238.7  145.778
 15.0256  20762.5  143.053
 15.0676  20937  143.975
 15.1096  20856.8  143.432
 15.1516  20517.1  142.822
 15.1936  20549.4  142.353
 15.2356  20257.4  141.622
 15.2776  20097  140.638
 15.3196  19719.6  140.33
 15.3616  19752.5  140.199
 15.4036  19614.4  139.564
 15.4456  19731.3  139.622
 15.4876  19541.2  138.62
 15.5296  19473.6  138.671
 15.5716  19177.5  137.212
 15.6136  19113.2  137.312
 15.6556  19134  136.611
 15.6976  18811.7  135.745
 15.7396  18840.8  136.256
 15.7816  18828.1  135.704
 15.8236  18554.3  135.435
 15.8656  18639.4  135.527
 15.9076  18188.9  133.707
 15.9496  18052  136.027
 15.9916  17995  136.257
 16.0336  17836.2  132.509
 16.0756  18114.9  133.855
 16.1176  17833.9  132.882
 16.1596  17202.7  131.694
 16.2016  17638.2  132.077
 16.2436  17342.5  131.355
 16.2856  17040.7  129.75
 16.3276  17095.9  130.382
 16.3696  17279  130.896
 16.4116  17125.1  130.778
 16.4536  17238.8  130.989
 16.4956  16896.9  129.423
 16.5376  17121.9  130.472
 16.5796  16741.8  128.367
 16.6216  16903.1  129.295
 16.6636  16693.1  128.647
 16.7056  16764.3  128.785
 16.7476  16647.9  127.862
 16.7896  16647.6  128.616
 16.8316  16645.7  128.577
 16.8736  16508.9  128.307
 16.9156  16737.8  129.527
 16.9576  16457.6  129.245
 16.9996  16569.8  130.181
 17.0416  16870.6  129.67
 17.0836  16711.5  128.818
 17.1256  16477.3  127.925
 17.1676  16785.4  129.107
 17.2096  16320.2  127.181
 17.2516  16517.9  127.724
 17.2936  16469.5  127.871
 17.3356  16075.2  126.334
 17.3776  16063.4  126.485
 17.4196  16135.5  126.451
 17.4616  15844  125.225
 17.5036  15755.1  125.242
 17.5456  15697.9  125.668
 17.5876  15462.4  123.759
 17.6296  15569.8  124.004
 17.6716  15384.2  123.828
 17.7136  15096.3  122.819
 17.7556  15235.6  123.678
 17.7976  15250.2  123.478
 17.8396  14852.7  121.356
 17.8816  15050.1  122.707
 17.9236  14987.9  122.263
 17.9656  15144.9  123.446
 18.0076  14935.2  122.165
 18.0496  14977.8  121.47
 18.0916  14968.7  121.973
 18.1336  14997.9  122.186
 18.1756  15144.8  122.303
 18.2176  14716.1  120.798
 18.2596  14823.4  120.972
 18.3016  15006.4  121.971
 18.3436  14920.3  121.617
 18.3856  14570.6  120.327
 18.4276  14699.7  120.529
 18.4696  14631.3  120.351
 18.5116  14621.8  120.598
 18.5536  14694  121.255
 18.5956  14480.5  119.919
 18.6376  14504.4  120.428
 18.6796  14448.2  119.514
 18.7216  14564.6  120.487
 18.7636  14365.1  119.645
 18.8056  14368.6  119.605
 18.8476  14235.3  119.676
 18.8896  14365.7  119.546
 18.9316  14566  120.37
 18.9736  14298.4  118.947
 19.0156  14269.3  119.236
 19.0576  14186.3  117.756
 19.0996  14487.7  119.72
 19.1416  14060.5  118.334
 19.1836  14196  118.503
 19.2256  14142.3  118.483
 19.2676  14391.1  119.619
 19.3096  14493.7  120.297
 19.3516  14127.3  118.72
 19.3936  14221.1  119.014
 19.4356  14289.3  119.168
 19.4776  14255.3  119.127
 19.5196  14327.5  119.278
 19.5616  14275.9  119.325
 19.6036  14166.5  118.355
 19.6456  14330.9  119.159
 19.6876  14331  118.809
 19.7296  14230.1  118.845
 19.7716  14196.5  118.869
 19.8136  14181.9  119.02
 19.8556  14417.1  119.475
 19.8976  14300.3  119.059
 19.9396  14358.9  118.875
 19.9816  14372.5  119.179
 20.0236  14584.5  120.271
 20.0656  14750.4  120.948
 20.1076  14723.7  121.309
 20.1496  15081.1  122.781
 20.1916  15203.8  122.772
 20.2336  15239.9  122.852
 20.2756  15059.5  122.569
 20.3176  14762.5  121.093
 20.3596  14774.1  121.113
 20.4016  14417.8  119.444
 20.4436  14302.6  119.529
 20.4856  14002.1  118.062
 20.5276  14015.4  118.583
 20.5696  13866.8  117.41
 20.6116  13995.6  118.237
 20.6536  13875.2  117.229
 20.6956  13654.9  116.405
 20.7376  13790.7  117.224
 20.7796  13691.9  116.488
 20.8216  13765  116.502
 20.8636  13592.4  116.14
 20.9056  13593.3  116.092
 20.9476  13496.4  115.521
 20.9896  13719.1  116.33
 21.0316  13731.4  116.279
 21.0736  13505.4  115.843
 21.1156  13484.7  115.92
 21.1576  13584  116.395
 21.1996  13430.4  115.711
 21.2416  13284.2  114.907
 21.2836  13417.9  115.452
 21.3256  13184.2  114.522
 21.3676  13483.8  115.362
 21.4096  13345.4  115.081
 21.4516  13207.6  114.365
 21.4936  13067.2  114.008
 21.5356  13288.7  114.915
 21.5776  13366.2  115.082
 21.6196  13225  114.505
 21.6616  13147.3  114.258
 21.7036  13268  114.561
 21.7456  13302  114.783
 21.7876  13179.4  113.989
 21.8296  13275.2  114.265
 21.8716  13137.8  113.904
 21.9136  13276.2  114.71
 21.9556  13135.5  113.77
 21.9976  12985.7  113.126
 22.0396  12994.4  113.424
 22.0816  13172.7  114.756
 22.1236  13158.9  114.138
 22.1656  13083.3  113.935
 22.2076  13161.6  113.737
 22.2496  13094.5  113.478
 22.2916  13051.5  113.17
 22.3336  13049.2  113.898
 22.3756  13069  113.703
 22.4176  13130.1  113.82
 22.4596  12797.7  112.964
 22.5016  13041.9  113.52
 22.5436  13071.1  113.531
 22.5856  13064.6  113.752
 22.6276  12914.9  113.237
 22.6696  12857.8  113.329
 22.7116  13011.6  113.519
 22.7536  13127.6  114.002
 22.7956  13053.6  113.001
 22.8376  12796.1  112.408
 22.8796  12843.8  112.412
 22.9216  13032.6  113.795
 22.9636  13032.8  112.932
 23.0056  12977.7  112.83
 23.0476  13113.4  114
 23.0896  13217.9  113.816
 23.1316  13174.8  114.077
 23.1736  12861.6  115.695
 23.2156  13004.7  113.667
 23.2576  12995.2  113.761
 23.2996  13038.2  113.734
 23.3416  12968.4  113.955
 23.3836  13154.9  113.984
 23.4256  13226.7  114.42
 23.4676  13115.7  113.626
 23.5096  13130  114.381
 23.5516  12993.9  113.06
 23.5936  13085  114.373
 23.6356  13366.8  115.249
 23.6776  13044.6  114.075
 23.7196  12779  112.476
 23.7616  13047.7  113.574
 23.8036  12937.3  113.12
 23.8456  12915.7  112.604
 23.8876  12583  111.499
 23.9296  12570.3  111.933
 23.9716  12607.2  111.284
 24.0136  12841.9  113.231
 24.0556  12599.4  111.89
 24.0976  12451.4  111.034
 24.1396  12390.9  113.43
 24.1816  12530.8  112.474
 24.2236  12517.5  112.016
 24.2656  12318.2  110.588
 24.3076  12233.6  110.466
 24.3496  12393  111.066
 24.3916  12077  109.69
 24.4336  12216.8  110.536
 24.4756  12150.7  110.109
 24.5176  12001  109.071
 24.5596  11861.2  108.562
 24.6016  11893.5  108.997
 24.6436  11882.5  108.433
 24.6856  11945.9  108.482
 24.7276  11832.3  108.282
 24.7696  11895.5  108.687
 24.8116  11859.9  108.706
 24.8536  11710.3  108.01
 24.8956  11567.8  107.094
 24.9376  11676  107.531
 24.9796  11499.9  107.067
 25.0216  11493.4  107.153
 25.0636  11585.7  107.235
 25.1056  11313.2  106.671
 25.1476  11599  109.702
 25.1896  11693.8  108.593
 25.2316  11636.7  107.586
 25.2736  11502.6  106.614
 25.3156  11517.4  106.763
 25.3576  11416.9  106.719
 25.3996  11534.1  107.254
 25.4416  11360.8  106.422
 25.4836  11362  106.96
 25.5256  11285.1  105.955
 25.5676  11442.2  106.413
 25.6096  11197.6  105.85
 25.6516  11444  106.497
 25.6936  11348.7  106.37
 25.7356  11298  106.27
 25.7776  11322.6  105.983
 25.8196  11125.3  105.297
 25.8616  11353.6  106.29
 25.9036  11336  105.673
 25.9456  11110  105.211
 25.9876  11090.3  105.181
 26.0296  11271  105.542
 26.0716  11169.9  105.496
 26.1136  11132.2  105.259
 26.1556  11252.4  105.198
 26.1976  11065.9  105.253
 26.2396  11096.1  104.547
 26.2816  11145.9  105.397
 26.3236  11066.3  105.181
 26.3656  11036.2  104.759
 26.4076  11170.8  105.609
 26.4496  11793.3  107.949
 26.4916  11291.3  105.665
 26.5336  11129.3  105.233
 26.5756  11380.5  106.269
 26.6176  11185.5  105.41
 26.6596  11047.9  105.072
 26.7016  10965.9  104.433
 26.7436  10979.6  104.635
 26.7856  10774.5  103.634
 26.8276  10906.5  104.218
 26.8696  10959.7  104.349
 26.9116  11066.8  104.796
 26.9536  10769.5  103.425
 26.9956  10836.6  103.78
 27.0376  10730.5  103.485
 27.0796  10824.9  103.673
 27.1216  10619  102.756
 27.1636  10636.1  103.007
 27.2056  10765.8  103.513
 27.2476  10777.7  103.564
 27.2896  10689.6  103.259
 27.3316  10674.4  102.895
 27.3736  10655.6  103.076
 27.4156  10497.6  102.145
 27.4576  10590.9  102.835
 27.4996  10585.9  102.402
 27.5416  10507.4  102.342
 27.5836  10439  101.824
 27.6256  10895  104.165
 27.6676  10827.8  103.887
 27.7096  10520.9  102.263
 27.7516  10493.8  102.293
 27.7936  10346  101.741
 27.8356  10456.1  101.901
 27.8776  10414.3  101.742
 27.9196  10232.5  100.701
 27.9616  10416.6  101.795
 28.0036  10410.5  101.738
 28.0456  10316.6  101.409
 28.0876  10281.7  101.329
 28.1296  10328.5  101.397
 28.1716  10271.2  101.127
 28.2136  10308.9  101.272
 28.2556  10167.9  100.698
 28.2976  10177.4  100.729
 28.3396  10280.1  100.995
 28.3816  10292.8  101.082
 28.4236  10298.1  101.265
 28.4656  10115.1  100.394
 28.5076  10087.2  99.8833
 28.5496  10216.8  100.796
 28.5916  10177.5  100.409
 28.6336  10018.7  99.9631
 28.6756  10160  99.8601
 28.7176  10130.2  100.269
 28.7596  10055.7  99.7953
 28.8016  10162.8  100.361
 28.8436  10005.7  99.8261
 28.8856  10083.4  100.06
 28.9276  10007.9  99.9346
 28.9696  10024.5  99.6663
 29.0116  10095.1  100.212
 29.0536  9936.46  99.621
 29.0956  9918.47  99.2459
 29.1376  9849.5  98.8632
 29.1796  9897.81  99.1514
 29.2216  10013.6  99.5693
 29.2636  9977.78  99.4661
 29.3056  10001.5  99.3714
 29.3476  9925.16  99.5231
 29.3896  9974.63  99.8619
 29.4316  10079.1  99.7165
 29.4736  9953.25  99.1561
 29.5156  9964.72  99.1289
 29.5576  9836.16  99.2374
 29.5996  9987.91  99.2468
 29.6416  9881.29  98.8318
 29.6836  10004.3  99.3759
 29.7256  9831.64  99.0836
 29.7676  10032.7  99.7483
 29.8096  9814.83  98.6007
 29.8516  9862.91  99.1783
 29.8936  9924.4  99.5819
 29.9356  9921.95  99.3216
 29.9776  9737.95  98.5492
 30.0196  9828.41  98.3871
 30.0616  9715.04  98.1939
 30.1036  9940.13  99.1478
 30.1456  9698.58  98.1729
 30.1876  9786.13  98.5869
 30.2296  9810.21  98.6616
 30.2716  9936.81  98.9244
 30.3136  9883.25  99.5324
 30.3556  9814.41  99.1965
 30.3976  9766.55  100.497
 30.4396  9753.12  97.74
 30.4816  9992.4  98.5206
 30.5236  9542.18  96.294
 30.5656  9712.49  97.8059
 30.6076  9763.68  97.4883
 30.6496  9779.66  97.9539
 30.6916  9632.72  97.3124
 30.7336  9691.28  97.7617
 30.7756  9501.45  96.884
 30.8176  9577.64  97.1944
 30.8596  9635.31  97.2504
 30.9016  9683.28  97.8417
 30.9436  9748.78  97.9211
 30.9856  9689.53  97.7294
 31.0276  9545.72  96.6102
 31.0696  9615.85  97.5473
 31.1116  9538.3  97.1287
 31.1536  9637.92  97.5176
 31.1956  9557.92  97.1978
 31.2376  9537.93  97.1055
 31.2796  9607.04  96.9849
 31.3216  9535.5  96.5716
 31.3636  9610.5  97.648
 31.4056  9654.91  99.2214
 31.4476  9630.91  96.9432
 31.4896  9492.47  96.7538
 31.5316  9519.41  96.2738
 31.5736  9587.45  96.4308
 31.6156  9714.86  97.1038
 31.6576  9625.51  96.7573
 31.6996  9669.27  96.6401
 31.7416  9381.53  96.2537
 31.7836  9440.09  95.5651
 31.8256  9322.37  95.2411
 31.8676  9462.33  95.9505
 31.9096  9281.59  95.3858
 31.9516  9253.13  95.3959
 31.9936  9313.31  95.5313
 32.0356  9329.75  95.6752
 32.0776  9339.3  95.6178
 32.1196  9330.18  95.6624
 32.1616  9372.42  95.3313
 32.2036  9240.76  95.1738
 32.2456  9318.87  95.9599
 32.2876  9297.45  95.3414
 32.3296  9214.64  94.8801
 32.3716  9301.71  95.4285
 32.4136  9381.79  96.059
 32.4556  9401.32  95.5256
 32.4976  9343.83  95.1466
 32.5396  9378.53  95.3881
 32.5816  9192.41  94.5621
 32.6236  9377.92  95.5855
 32.6656  9290.44  95.6797
 32.7076  9110.59  94.4057
 32.7496  9178.58  94.421
 32.7916  9249.76  94.7437
 32.8336  9286.91  95.0359
 32.8756  9301.52  94.8284
 32.9176  9125.02  94.4057
 32.9596  9142.87  94.5768
 33.0016  9270.21  95.026
 33.0436  9224.7  94.9695
 33.0856  9162.7  94.714
 33.1276  9022.72  93.7106
 33.1696  9283.57  94.9087
 33.2116  9242.79  94.9306
 33.2536  9108.02  94.2366
 33.2956  9106.8  94.3138
 33.3376  8977.56  93.3823
 33.3796  9275.57  95.1279
 33.4216  9143.08  94.0368
 33.4636  9086.88  93.8983
 33.5056  8987.45  93.6149
 33.5476  8983.16  93.5945
 33.5896  9223.31  94.6015
 33.6316  8999.87  93.7753
 33.6736  9008.38  94.0618
 33.7156  9123.21  94.7035
 33.7576  9125.44  94.3362
 33.7996  9176.87  94.3635
 33.8416  8950.73  93.371
 33.8836  9038.31  93.6064
 33.9256  9090.63  93.9457
 33.9676  9140.38  94.0944
 34.0096  8838.99  92.8489
 34.0516  9076.59  93.7189
 34.0936  9003.86  93.6091
 34.1356  9043.01  93.5523
 34.1776  8910.94  92.8758
 34.2196  8857.85  92.784
 34.2616  8853.17  92.8937
 34.3036  8860.06  93.1801
 34.3456  8954.48  93.4217
 34.3876  8887.57  93.0385
 34.4296  8918.56  92.8856
 34.4716  8969.98  93.3006
 34.5136  8883.13  93.0595
 34.5556  8879.98  93.3041
 34.5976  8848.89  92.9332
 34.6396  8883.71  92.8348
 34.6816  8746.11  92.2227
 34.7236  8825.75  92.4252
 34.7656  8887.59  92.9444
 34.8076  8755.05  92.5682
 34.8496  8752.24  92.4107
 34.8916  8773.86  92.4034
 34.9336  8850.56  92.7717
 34.9756  8762.52  92.2147
 35.0176  8735.34  92.6215
 35.0596  8696.34  92.2265
 35.1016  8803.56  92.5647
 35.1436  8753.07  91.9834
 35.1856  8780.59  92.2586
 35.2276  8813.51  92.6057
 35.2696  8728.26  92.3491
 35.3116  8819.33  92.9248
 35.3536  8727.31  92.1499
 35.3956  8739.54  91.9111
 35.4376  8812.38  92.8565
 35.4796  8824.5  92.9903
 35.5216  8810.67  92.8745
 35.5636  8510.71  92.0276
 35.6056  8800.73  92.5786
 35.6476  8781.06  92.3682
 35.6896  8733.44  92.2067
 35.7316  8648.17  91.735
 35.7736  8633.79  91.8577
 35.8156  8589.61  91.6137
 35.8576  8715.86  92.5488
 35.8996  8735.18  92.6091
 35.9416  8526.4  91.0039
 35.9836  8557.08  91.5159
 36.0256  8680.01  92.191
 36.0676  8714.07  92.1302
 36.1096  8514.92  91.2076
 36.1516  8655.31  91.8446
 36.1936  8575.19  91.2656
 36.2356  8521.33  91.6249
 36.2776  8523.78  91.1135
 36.3196  8522.9  90.7756
 36.3616  8617.9  91.4125
 36.4036  8493.95  90.7995
 36.4456  8541.68  91.2767
 36.4876  8459.7  90.7808
 36.5296  8596.45  91.5526
 36.5716  8516.65  91.9169
 36.6136  8620.68  91.2279
 36.6556  8677.21  91.7327
 36.6976  8531.66  91.4636
 36.7396  8503.54  91.0356
 36.7816  8604.06  91.9568
 36.8236  8473.53  91.1803
 36.8656  8530.6  91.5526
 36.9076  8452.55  91.0128
 36.9496  8444.88  90.9613
 36.9916  8478.17  90.7658
 37.0336  8565.66  91.5561
 37.0756  8563.7  91.3316
 37.1176  8317.06  90.2781
 37.1596  8408.63  90.775
 37.2016  8446.71  91.2148
 37.2436  8430.65  90.4323
 37.2856  8430.06  90.6874
 37.3276  8465.08  90.2201
 37.3696  8270.85  90.0678
 37.4116  8414.17  90.7517
 37.4536  8281.62  89.8999
 37.4956  8298.16  90.0293
 37.5376  8375.16  92.0236
 37.5796  8347.83  91.8311
 37.6216  8114.83  88.7974
 37.6636  8145.43  88.8771
 37.7056  8185.64  89.29
 37.7476  8381.44  89.8756
 37.7896  8265.12  89.7569
 37.8316  7987.97  88.4134
 37.8736  8304.76  89.6668
 37.9156  8060.46  88.339
 37.9576  8469.38  90.4348
 37.9996  8153.41  88.4534
 38.0416  8196.16  89.5044
 38.0836  8437.37  90.708
 38.1256  8316.49  89.9968
 38.1676  8174.16  89.3829
 38.2096  8208.78  89.1893
 38.2516  8312.89  89.9607
 38.2936  8177.88  89.0266
 38.3356  8280.08  89.4935
 38.3776  8151.17  89.0714
 38.4196  8238.06  89.3995
 38.4616  8246.09  89.6851
 38.5036  8280.04  89.7021
 38.5456  8143.29  89.8083
 38.5876  8176.11  90.0199
 38.6296  8192.39  89.0684
 38.6716  8145.56  88.6036
 38.7136  7958.76  87.5253
 38.7556  8023.49  88.3856
 38.7976  8118.79  88.8492
 38.8396  8041.48  88.8803
 38.8816  7978.62  88.3076
 38.9236  7922.86  87.8123
 38.9656  8083.64  88.6129
 39.0076  8116.15  88.1911
 39.0496  8111.8  88.7104
 39.0916  8136.53  88.4788
 39.1336  8055.23  88.4636
 39.1756  8088.08  88.7131
 39.2176  8151.68  89.601
 39.2596  8172.93  89.6324
 39.3016  8096.49  88.7875
 39.3436  8089.03  89.1738
 39.3856  8061.97  88.4689
 39.4276  8131.79  89.3467
 39.4696  7961.58  88.0371
 39.5116  8069.91  89.151
 39.5536  8252.76  90.5862
 39.5956  8209.59  89.438
 39.6376  8173.47  89.2481
 39.6796  8080.45  88.4732
 39.7216  8189.24  89.1676
 39.7636  8147.4  89.5206
 39.8056  8109.76  89.0889
 39.8476  8044.53  88.9877
 39.8896  8074.51  88.7781
 39.9316  8054.86  88.9277
 39.9736  8189.17  89.2266
 40.0156  8084.43  88.477
 40.0576  8079.02  88.8109
 40.0996  8139.95  88.3178
 40.1416  8176.75  89.3142
 40.1836  8212.1  89.4039
 40.2256  8218.82  89.4857
 40.2676  8133.52  89.1257
 40.3096  8093.94  88.8346
 40.3516  8257.75  89.835
 40.3936  8154.34  88.8307
 40.4356  8153.33  89.022
 40.4776  8284.07  90.1534
 40.5196  8294.08  90.3346
 40.5616  8252.65  89.7459
 40.6036  8114.21  89.243
 40.6456  8277.22  89.743
 40.6876  8239.72  89.5192
 40.7296  8266.46  89.8058
 40.7716  8213.15  89.6469
 40.8136  8125.93  89.1132
 40.8556  8190.05  89.6013
 40.8976  8185.53  89.4956
 40.9396  8163.78  89.7307
 40.9816  8274.13  89.6065
 41.0236  8206.37  89.0176
 41.0656  8252.73  89.8186
 41.1076  8200.99  89.3032
 41.1496  8312.26  89.8145
 41.1916  8269.73  89.9105
 41.2336  8102.07  88.9842
 41.2756  8093.94  88.5423
 41.3176  7946.18  88.3449
 41.3596  8172.2  89.3179
 41.4016  8156.14  89.4936
 41.4436  8249.29  89.7777
 41.4856  8192.99  89.6492
 41.5276  8094.62  89.1263
 41.5696  8120.43  88.8965
 41.6116  8150.86  89.4621
 41.6536  8248.73  89.85
 41.6956  8126.7  89.2338
 41.7376  8122.07  89.243
 41.7796  8065.13  88.8035
 41.8216  8095.84  89.2169
 41.8636  8162.94  89.525
 41.9056  7962.33  88.2072
 41.9476  8136.5  89.4068
 41.9896  8181.41  89.3055
 42.0316  8205.99  89.5247
 42.0736  8059.58  88.8407
 42.1156  8065.52  88.708
 42.1576  8096.13  88.9758
 42.1996  8092.76  89.0999
 42.2416  8147.59  88.9794
 42.2836  8102.34  88.8472
 42.3256  8021.73  88.5201
 42.3676  8028.36  88.3563
 42.4096  8043.21  88.4022
 42.4516  8024.99  88.3882
 42.4936  7967.57  88.1439
 42.5356  8029.27  88.6174
 42.5776  8082.31  88.8525
 42.6196  8092.69  88.9605
 42.6616  7976.53  88.4931
 42.7036  8000.08  88.0031
 42.7456  8054.9  88.6621
 42.7876  7971  88.2994
 42.8296  8048.22  88.5581
 42.8716  7927.49  88.0543
 42.9136  7952.04  87.9742
 42.9556  8018.78  88.4803
 42.9976  8144.66  89.1322
 43.0396  8081.69  88.5163
 43.0816  7916.16  87.9883
 43.1236  7823.83  87.53
 43.1656  7982.58  88.2409
 43.2076  7853.63  87.6272
 43.2496  7886.54  87.6229
 43.2916  7969.12  88.4549
 43.3336  7950.54  88.1867
 43.3756  7986.18  88.1347
 43.4176  7837.74  87.3954
 43.4596  7807.18  87.0779
 43.5016  7989.68  88.5034
 43.5436  7901.51  87.9118
 43.5856  7920.3  88.0413
 43.6276  7867.49  87.6444
 43.6696  7830  87.6967
 43.7116  7856.95  87.3398
 43.7536  7868.15  87.8932
 43.7956  7792.82  88.6617
 43.8376  7876.76  87.6755
 43.8796  7835.11  87.5223
 43.9216  7815.56  87.3206
 43.9636  7857.32  87.6763
 44.0056  7807.63  87.6269
 44.0476  7779.68  87.0985
 44.0896  7674.2  86.8515
 44.1316  7835.98  87.2756
 44.1736  7679.68  86.5289
 44.2156  7828.5  87.2059
 44.2576  7822.87  87.5138
 44.2996  7852.89  87.6393
 44.3416  7827.1  87.2673
 44.3836  7704.97  86.912
 44.4256  7652.34  86.2582
 44.4676  7567.84  85.9352
 44.5096  7738.01  87.0423
 44.5516  7570.62  86.0641
 44.5936  7600.73  86.1835
 44.6356  7689.97  86.4242
 44.6776  7706.62  86.8372
 44.7196  7659.47  86.8858
 44.7616  7711.4  88.5173
 44.8036  7596.11  86.2718
 44.8456  7650.26  86.788
 44.8876  7618.58  86.4562
 44.9296  7697.13  86.351
 44.9716  7465.76  85.4684
 45.0136  7573.86  86.0194
 45.0556  7640.37  86.3704
 45.0976  7554.81  86.0342
 45.1396  7472.73  85.348
 45.1816  7572.38  85.8364
 45.2236  7681.51  86.3542
 45.2656  7507.98  85.8737
 45.3076  7428.66  85.2107
 45.3496  7526  86.0697
 45.3916  7549.09  86.4711
 45.4336  7649.55  86.8882
 45.4756  7553.05  86.1989
 45.5176  7614.4  86.1535
 45.5596  7678.74  86.6432
 45.6016  7566.74  86.4266
 45.6436  7501.43  85.225
 45.6856  7533.98  86.0676
 45.7276  7463.43  86.9986
 45.7696  7463.01  86.661
 45.8116  7605.03  86.9134
 45.8536  7413.37  85.7005
 45.8956  7533.01  85.7414
 45.9376  7492.89  84.9741
 45.9796  7512.43  85.7702
 46.0216  7444.21  85.7299
 46.0636  7570.51  85.5811
 46.1056  7465.43  84.9778
 46.1476  7630.7  86.5144
 46.1896  7498.42  85.9135
 46.2316  7423.89  85.3565
 46.2736  7453.2  85.8909
 46.3156  7590.93  86.2622
 46.3576  7495.78  85.9236
 46.3996  7387.78  85.4646
 46.4416  7474.54  85.5358
 46.4836  7408.11  85.5145
 46.5256  7516.16  86.0711
 46.5676  7359.96  85.2862
 46.6096  7451.42  85.7436
 46.6516  7492.32  85.022
 46.6936  7549.58  85.8288
 46.7356  7461.66  85.4485
 46.7776  7378.15  85.8093
 46.8196  7316.82  85.0482
 46.8616  7234.88  84.5043
 46.9036  7240.37  84.2065
 46.9456  7265.01  83.9944
 46.9876  7352.26  84.5808
 47.0296  7270.61  84.7886
 47.0716  7284.9  84.7013
 47.1136  7358.09  84.8082
 47.1556  7361.35  84.6934
 47.1976  7336.87  84.633
 47.2396  7374.27  85.2505
 47.2816  7178.8  83.8124
 47.3236  7248.97  84.5857
 47.3656  7308.98  84.8715
 47.4076  7243.1  84.2873
 47.4496  7264.97  84.5119
 47.4916  7241.53  84.5649
 47.5336  7330.07  84.8994
 47.5756  7464.82  85.7908
 47.6176  7133.3  83.7667
 47.6596  7186.76  83.7824
 47.7016  7416.03  84.9263
 47.7436  7265.21  84.4005
 47.7856  7386.37  85.1263
 47.8276  7238.22  84.3254
 47.8696  7258.53  84.521
 47.9116  7299.93  84.4747
 47.9536  7155.79  83.5801
 47.9956  7119.34  84.0712
 48.0376  7054.94  83.464
 48.0796  7260.33  84.7949
 48.1216  7291.03  84.7961
 48.1636  7422.71  85.1281
 48.2056  7241.87  84.3527
 48.2476  7241.17  84.6497
 48.2896  7161.65  84.1021
 48.3316  7170.5  84.0981
 48.3736  7041.79  83.3609
 48.4156  7093.9  83.5212
 48.4576  7227.15  84.5947
 48.4996  7221.46  84.0164
 48.5416  7251.88  84.5213
 48.5836  7045.66  82.9839
 48.6256  7171.44  83.9303
 48.6676  7018.64  83.5379
 48.7096  7189.7  83.8084
 48.7516  7140.42  83.6803
 48.7936  7013.25  82.9964
 48.8356  7106.76  83.5975
 48.8776  7139.43  84.3617
 48.9196  7254.78  84.4035
 48.9616  6991.69  83.2458
 49.0036  7071.33  84.0588
 49.0456  7019.03  83.7212
 49.0876  7062.51  83.5302
 49.1296  6903.64  82.7447
 49.1716  6963.02  82.9691
 49.2136  7219.72  84.3947
 49.2556  7095.46  83.7066
 49.2976  7170.6  84.2266
 49.3396  6984.41  83.1797
 49.3816  7081.37  83.1857
 49.4236  7068.49  83.531
 49.4656  6959.7  82.9008
 49.5076  7041.89  83.1375
 49.5496  7037.3  83.1802
 49.5916  7091.7  83.4112
 49.6336  6953.68  82.7991
 49.6756  7098.03  83.8945
 49.7176  6928.58  82.8249
 49.7596  7032.71  83.2133
 49.8016  7117.53  83.637
 49.8436  6991.91  83.1821
 49.8856  6904.85  82.6716
 49.9276  6942.98  83.0001
 49.9696  6933.02  82.9272
 50.0116  6920.81  82.9768
 50.0536  6957.42  83.1432
 50.0956  6928.36  83.0473
 50.1376  6900.05  82.5752
 50.1796  6896.19  82.8216
 50.2216  6915.83  82.933
 50.2636  6877.56  82.3266
 50.3056  6849.68  82.3293
 50.3476  6928.79  82.8288
 50.3896  6873.5  82.4657
 50.4316  7015.81  83.1514
 50.4736  6761.17  81.8452
 50.5156  6917.59  82.7771
 50.5576  6916.21  82.5261
 50.5996  6873.18  82.5509
 50.6416  6773.34  81.8786
 50.6836  6901.29  82.7021
 50.7256  6917.05  82.7312
 50.7676  6824.75  82.4902
 50.8096  6879.02  82.3445
 50.8516  6838.71  82.5279
 50.8936  6760.29  81.8303
 50.9356  6858.51  82.5302
 50.9776  6826.17  82.4878
 51.0196  6901.79  83.076
 51.0616  6787.51  81.7112
 51.1036  6885.11  82.6532
 51.1456  6834.72  82.2644
 51.1876  6875.35  81.8491
 51.2296  6706.41  81.4695
 51.2716  6737.75  81.3654
 51.3136  6761.4  81.9558
 51.3556  6667.1  81.0161
 51.3976  6669.78  81.1837
 51.4396  6597.38  81.0418
 51.4816  6734.32  81.7278
 51.5236  6765.75  82.0106
 51.5656  6682.97  81.1128
 51.6076  6827.07  82.0623
 51.6496  6808.86  82.1481
 51.6916  6718.92  81.9534
 51.7336  6731.1  82.1216
 51.7756  6785.39  82.1536
 51.8176  6719.12  81.8548
 51.8596  6746.79  82.0371
 51.9016  6788.78  81.8974
 51.9436  6683.02  82.7029
 51.9856  6686.73  83.1735
 52.0276  6613.83  81.2372
 52.0696  6721.68  81.9614
 52.1116  6673.71  81.7765
 52.1536  6593.47  81.1741
 52.1956  6749.35  81.6023
 52.2376  6843.11  82.3315
 52.2796  6899.21  82.4664
 52.3216  6548.33  81.0429
 52.3636  6579.79  80.8128
 52.4056  6653.7  81.1189
 52.4476  6479.12  80.4114
 52.4896  6594.73  81.1813
 52.5316  6630.2  81.4449
 52.5736  6629.35  81.1646
 52.6156  6612.43  81.4316
 52.6576  6659.33  81.1703
 52.6996  6438.64  80.7755
 52.7416  6620.08  81.7646
 52.7836  6564.61  81.2951
 52.8256  6626.65  80.9087
 52.8676  6551.04  81.0154
 52.9096  6626.54  81.5687
 52.9516  6646.78  82.0662
 52.9936  6494.21  81.509
 53.0356  6505.32  80.5812
 53.0776  6495.42  80.7787
 53.1196  6432.81  80.5148
 53.1616  6521.95  81.1175
 53.2036  6362.11  80.0716
 53.2456  6424.85  80.5662
 53.2876  6470.69  80.5618
 53.3296  6385.71  80.3561
 53.3716  6467.61  80.6137
 53.4136  6426.5  80.509
 53.4556  6364.95  80.1503
 53.4976  6374.34  80.0598
 53.5396  6512.49  81.3144
 53.5816  6481.45  80.757
 53.6236  6321.49  80.0868
 53.6656  6498.36  80.8305
 53.7076  6430.64  80.3686
 53.7496  6415  80.3926
 53.7916  6604.67  81.7001
 53.8336  6341.52  79.9559
 53.8756  6300.53  80.2437
 53.9176  6553.61  81.1783
 53.9596  6495.4  81.5848
 54.0016  6369.44  80.1262
 54.0436  6436.05  80.7616
 54.0856  6442.44  80.2236
 54.1276  6438.02  80.3963
 54.1696  6431.27  80.5247
 54.2116  6459.06  80.4548
 54.2536  6398.86  79.8938
 54.2956  6494.94  80.5372
 54.3376  6362.9  80.2019
 54.3796  6440.06  80.5864
 54.4216  6542.96  81.2749
 54.4636  6358.26  80.0766
 54.5056  6453.68  80.499
 54.5476  6456.57  80.8529
 54.5896  6454.48  80.6709
 54.6316  6425.18  80.3414
 54.6736  6463.18  80.6576
 54.7156  6414.36  80.37
 54.7576  6347.51  79.9484
 54.7996  6513.24  81.1202
 54.8416  6425.03  80.6234
 54.8836  6305.36  79.979
 54.9256  6364.07  80.1009
 54.9676  6436.58  80.4044
 55.0096  6453.35  80.5863
 55.0516  6434.78  80.7071
 55.0936  6361.58  79.871
 55.1356  6440.61  80.4141
 55.1776  6430.58  80.6186
 55.2196  6469.45  80.6428
 55.2616  6360.92  80.178
 55.3036  6325.33  80.1128
 55.3456  6455  81.0774
 55.3876  6336.16  80.0761
 55.4296  6487.49  81.0031
 55.4716  6358.1  80.2191
 55.5136  6418.57  80.3589
 55.5556  6329.52  79.8689
 55.5976  6382.86  80.2555
 55.6396  6320.33  79.8176
 55.6816  6306.89  79.6111
 55.7236  6350.8  79.9263
 55.7656  6435.22  80.214
 55.8076  6399.95  79.9779
 55.8496  6338.07  79.9104
 55.8916  6325.45  80.0372
 55.9336  6361.36  80.0782
 55.9756  6302.76  79.5967
 56.0176  6282.44  79.6239
 56.0596  6306.09  79.7562
 56.1016  6338.7  79.9694
 56.1436  6265.3  79.7745
 56.1856  6313.05  79.8125
 56.2276  6324.32  79.9414
 56.2696  6299.45  79.7538
 56.3116  6269.51  79.9735
 56.3536  6290.17  79.7604
 56.3956  6313.11  79.8968
 56.4376  6309.68  79.9068
 56.4796  6298.23  79.638
 56.5216  6179  79.2528
 56.5636  6463.56  80.6398
 56.6056  6322.59  79.9889
 56.6476  6277.31  79.3281
 56.6896  6365.65  80.3379
 56.7316  6344.24  80.0963
 56.7736  6300.51  79.8322
 56.8156  6287.31  79.7452
 56.8576  6292.09  79.7153
 56.8996  6326.16  79.8746
 56.9416  6244.62  79.6548
 56.9836  6249.56  79.2035
 57.0256  6238.53  79.4501
 57.0676  6188.92  79.2551
 57.1096  6366.42  80.1716
 57.1516  6292.35  79.7664
 57.1936  6346.34  79.8537
 57.2356  6256.43  79.6059
 57.2776  6281.84  79.717
 57.3196  6354.24  80.5605
 57.3616  6262.49  79.464
 57.4036  6270.19  79.5746
 57.4456  6329.4  79.9099
 57.4876  6274.43  79.4167
 57.5296  6225.99  79.4552
 57.5716  6323.81  80.0723
 57.6136  6291.7  79.6836
 57.6556  6297.01  79.8579
 57.6976  6326.01  79.8517
 57.7396  6228.31  79.6163
 57.7816  6171  79.611
 57.8236  6137.23  79.1895
 57.8656  6275.74  79.7305
 57.9076  6198.66  79.2637
 57.9496  6185.31  79.533
 57.9916  6190.18  79.0768
 58.0336  6224.96  79.5697
 58.0756  6201.85  79.061
 58.1176  6221.35  79.1768
 58.1596  6122.6  79.1243
 58.2016  6403.67  80.1209
 58.2436  6412.08  80.5979
 58.2856  6271.38  79.6271
 58.3276  6235.69  79.7766
 58.3696  6267.58  79.7256
 58.4116  6277.3  79.648
 58.4536  6312.99  79.7553
 58.4956  6277.78  79.7228
 58.5376  6266.2  79.2138
 58.5796  6229.31  79.4073
 58.6216  6329.58  79.8612
 58.6636  6188.48  79.1793
 58.7056  6285.56  79.651
 58.7476  6277.36  80.0519
 58.7896  6199.22  79.1915
 58.8316  6239.13  79.4409
 58.8736  6371.64  80.2802
 58.9156  6239.05  79.4948
 58.9576  6308.05  80.2627
 58.9996  6300.98  79.4353
 59.0416  6510.74  81.1296
 59.0836  6279.82  79.6042
 59.1256  6118.89  79.2832
 59.1676  6213.96  80.1984
 59.2096  6272.67  79.8848
 59.2516  6475.37  80.7315
 59.2936  6236.99  79.565
 59.3356  6375.11  80.3155
 59.3776  6350.59  80.3342
 59.4196  6364.22  80.355
 59.4616  6310.6  79.8723
 59.5036  6194.62  79.1707
 59.5456  6453.26  80.4896
 59.5876  6314.65  79.816
 59.6296  6198.59  79.1492
 59.6716  6322.78  79.9974
 59.7136  6263.4  79.609
 59.7556  6297.73  79.9662
 59.7976  6384.02  80.247
 59.8396  6222.43  79.1176
 59.8816  6325.31  80.3273
 59.9236  6224  79.3196
 59.9656  6289.23  80.0001
 60.0076  6435.15  80.2595
 60.0496  6275.3  79.7699
 60.0916  6481.11  80.4648
 60.1336  6269.07  80.2657
 60.1756  6253.8  81.373
 60.1996  0.0000000E+00  0.0000000E+00