File: docs/examples/opeando_xrd/IS17_D/Data/IS17_D/17_Db_f00108.xye
# /beamlines/bl04/projects/cycle2025-II/20250340211-lsimonelli/DATA/IS17_D/17_Db_f00108.xye : mythproc.py merge -s 0.006 -l 0.5 -f /beamlines/bl04/inhouse/ff/FlatField/ff_20Nov2024rod8mm60s_17keV.raw -b True -c true -o xye /beamlines/bl04/projects/cycle2025-II/20250340211-lsimonelli/DATA/IS17_D/17_Db_00108.dat
# IsMon = [6753219, 6757782, 6754451]  IsPos = [-1.4999, -2.4884, -3.4988]
# Wave = 0.4962  CalPath /beamlines/bl04/projects/cycle2025-II/20250340211-lsimonelli/DATA/Align/Si_Pos1_25keV_f00001.cal
# Date = 2025-09-24_23:49:17 Dt = 4.8000  Bin = 0.0060  <imon> = 6755151 +/- 1927 (Min/Max) 6753219 / 6757782
# icurr 250.3984  mocoIn 1.7079E-05  mocoOut 0.8017  i15 7.0833e+06  imon 6.75515e+06  i7 3.0000  iEMpd_timer 4.8000  iEMpd_1 3.4825E-08  iEMpd_2 7.7236E-08  iEMpd_3 1.7071E-08  iEMpd_4 4.8249E-08  iEMhp_timer 4.8000  iEMhp_1 4.8921E-06  iEMhp_2 -2.6337E-08  iEMhp_3 -2.5185E-08  iEMhp_4 -2.1672E-08
#      9776
 1.5856  44677.9  217.076
 1.6276  51495.9  229.052
 1.6696  57427.4  241.032
 1.7116  64139.3  255.226
 1.7536  72992.2  271.111
 1.7956  76533.8  278.304
 1.8376  73612.4  273.373
 1.8796  63280.2  251.601
 1.9216  52469.3  230.014
 1.9636  45576.8  213.496
 2.0056  42022.7  204.208
 2.0476  39303  199.654
 2.0896  37753.6  194.532
 2.1316  37207.1  192.19
 2.1736  34963  187.782
 2.2156  35853.6  188.633
 2.2576  34677.9  186.18
 2.2996  33548.4  183.794
 2.3416  33863.3  183.182
 2.3836  33187.2  181.455
 2.4256  32437.9  179.979
 2.4676  32276.8  179.277
 2.5096  31711.4  177.758
 2.5516  30141.6  177.247
 2.5936  30240.5  173.98
 2.6356  29791.5  173.416
 2.6776  29999.9  172.873
 2.7196  29352.4  171.505
 2.7616  29326  171.201
 2.8036  28763.2  169.724
 2.8456  28707.1  170.226
 2.8876  28180.8  168.505
 2.9296  27687.5  167.169
 2.9716  27769.6  166.879
 3.0136  26928.5  164.406
 3.0556  27235.9  165.75
 3.0976  27080  164.149
 3.1396  26686.6  163.678
 3.1816  26279.9  162.391
 3.2236  26227.5  162.185
 3.2656  25737.3  159.702
 3.3076  25581.8  160.732
 3.3496  25712.5  160.023
 3.3916  26401.5  161.983
 3.4336  26340  162.401
 3.4756  26991.7  164.34
 3.5176  27402.6  165.345
 3.5596  27178  167.173
 3.6016  27077.2  164.433
 3.6436  26262.2  163.062
 3.6856  25880  160.148
 3.7276  24995.6  158.475
 3.7696  24661  157.618
 3.8116  24246.5  156.175
 3.8536  24317.8  156.344
 3.8956  24332.3  156.2
 3.9376  24149.4  155.887
 3.9796  23998.6  154.884
 4.0216  24136.2  154.333
 4.0636  23989.6  155.363
 4.1056  23874.4  154.633
 4.1476  24173.9  155.92
 4.1896  24402  156.509
 4.2316  24479.7  156.594
 4.2736  24874  157.638
 4.3156  25012.5  158.311
 4.3576  25885.8  160.945
 4.3996  25915.9  161.316
 4.4416  26527.7  162.795
 4.4836  26913.9  164.133
 4.5256  27464.5  166.43
 4.5676  27224.6  165.957
 4.6096  28039.8  167.052
 4.6516  28350.3  167.669
 4.6936  28314.1  168.403
 4.7356  28542.6  168.9
 4.7776  28376.4  168.233
 4.8196  28318.9  168.733
 4.8616  27617.6  166.099
 4.9036  27475.8  165.411
 4.9456  27316.2  165.587
 4.9876  26732.8  163.704
 5.0296  26831.2  163.844
 5.0716  26622  163.97
 5.1136  27027.4  164.93
 5.1556  27247.2  165.046
 5.1976  27701.7  166.419
 5.2396  27631.1  165.885
 5.2816  27930  167.264
 5.3236  27612.2  166.004
 5.3656  27178.8  165.631
 5.4076  27072.3  165.448
 5.4496  26897.9  164.408
 5.4916  27105.9  164.793
 5.5336  26877.1  164.098
 5.5756  26965.6  164.386
 5.6176  27050.7  164.088
 5.6596  27516.4  166.497
 5.7016  27506  165.713
 5.7436  27716  166.626
 5.7856  27453.3  165.904
 5.8276  27589.1  166.02
 5.8696  27881  167.073
 5.9116  27733  167.235
 5.9536  28214.3  168.42
 5.9956  28170.6  167.672
 6.0376  28390.7  168.948
 6.0796  28609.2  169.43
 6.1216  28510.9  169.34
 6.1636  28890  169.509
 6.2056  28582.4  169.28
 6.2476  29070.8  170.595
 6.2896  29182.3  170.601
 6.3316  29397.1  171.404
 6.3736  29253.1  170.868
 6.4156  29576.1  171.7
 6.4576  29564.9  171.287
 6.4996  29571.9  171.784
 6.5416  29771.5  172.49
 6.5836  29660.8  172.41
 6.6256  29718  172.134
 6.6676  30323.8  173.448
 6.7096  30317.6  174.3
 6.7516  30656.8  174.923
 6.7936  30890.9  174.988
 6.8356  30913  175.148
 6.8776  31006.7  176.212
 6.9196  31172  177.09
 6.9616  31550.7  177.59
 7.0036  32103.5  178.803
 7.0456  32130.4  178.17
 7.0876  32015  179.547
 7.1296  32063.7  178.803
 7.1716  31940.2  178.007
 7.2136  31712.7  177.142
 7.2556  31962.7  177.994
 7.2976  31848.9  178.18
 7.3396  31917.2  178.58
 7.3816  31788.3  178.449
 7.4236  32229.1  178.972
 7.4656  32249.6  178.479
 7.5076  32602.9  179.614
 7.5496  32224.4  179.108
 7.5916  32620.8  180.251
 7.6336  32965.7  181.088
 7.6756  32997.8  181.019
 7.7176  33267.9  182.087
 7.7596  33135.2  182.953
 7.8016  33888.7  187.28
 7.8436  33350.6  182.427
 7.8856  33779.9  183.203
 7.9276  34319.4  185.072
 7.9696  34090.1  184.751
 8.0116  35463  186.977
 8.0536  35574.3  187.521
 8.0956  35394.3  188.212
 8.1376  35788.7  188.74
 8.1796  36193.7  190.329
 8.2216  36973.1  191.121
 8.2636  36867.4  191.098
 8.3056  36775.3  191.635
 8.3476  37283.3  192.274
 8.3896  37314.7  192.433
 8.4316  37356.7  192.709
 8.4736  37166.9  191.692
 8.5156  36830.5  191.095
 8.5576  36716.8  191.758
 8.5996  36793.4  190.844
 8.6416  36559  191.48
 8.6836  36346.2  190.773
 8.7256  36923.5  191.714
 8.7676  36669.8  193.985
 8.8096  37308.6  192.972
 8.8516  37058  191.877
 8.8936  36576.7  190.595
 8.9356  36851.2  191.643
 8.9776  36700.9  191.325
 9.0196  36855.4  191.408
 9.0616  36625.7  190.306
 9.1036  36016.5  189.881
 9.1456  35880  188.85
 9.1876  36395  190.142
 9.2296  35893.6  188.271
 9.2716  35657.7  187.679
 9.3136  35629  187.614
 9.3556  35843.9  188.155
 9.3976  34839.9  186.022
 9.4396  34810.3  185.836
 9.4816  34941.1  186.046
 9.5236  34441.4  184.603
 9.5656  34093.9  184.03
 9.6076  33371.9  182.593
 9.6496  33873.3  183.834
 9.6916  33562.4  182.959
 9.7336  33834.5  183.489
 9.7756  33274.7  183.203
 9.8176  33132  182.304
 9.8596  33262.1  181.101
 9.9016  32803.8  179.843
 9.9436  32358.2  178.529
 9.9856  32131  178.178
 10.0276  31802.4  178.339
 10.0696  31931  177.736
 10.1116  31134.1  175.757
 10.1536  31201.2  176.1
 10.1956  30460.6  173.613
 10.2376  30508.8  173.283
 10.2796  30301.7  172.782
 10.3216  29968.7  172.118
 10.3636  29570.9  171.003
 10.4056  28969.3  169.642
 10.4476  29128.2  169.74
 10.4896  29514.4  170.295
 10.5316  28909.6  169.279
 10.5736  28571.8  168.693
 10.6156  28488.3  168.206
 10.6576  28390.6  166.475
 10.6996  27892  165.714
 10.7416  27707.1  165.379
 10.7836  27191.6  164.481
 10.8256  27012.2  164.38
 10.8676  26881.1  163.513
 10.9096  26912.7  163.655
 10.9516  26547.5  161.495
 10.9936  26473.8  161.484
 11.0356  26420.6  161.922
 11.0776  26350.8  161.042
 11.1196  25850.4  160.257
 11.1616  25351.4  158.375
 11.2036  25819.9  159.693
 11.2456  25512  159.426
 11.2876  25789.6  160.033
 11.3296  25309.3  158.447
 11.3716  25513.7  158.776
 11.4136  25481.6  159.547
 11.4556  25303  158.652
 11.4976  25481.4  158.213
 11.5396  25622.1  158.817
 11.5816  26200.2  161.049
 11.6236  26807.3  163.128
 11.6656  27269.4  163.672
 11.7076  26249.6  161.419
 11.7496  25653  163.611
 11.7916  25533.6  158.453
 11.8336  25051.3  157.847
 11.8756  24707.5  156.312
 11.9176  24628.2  155.724
 11.9596  24888  156.726
 12.0016  24438.3  156.075
 12.0436  24590.9  156.006
 12.0856  24030.1  154.708
 12.1276  24212.4  155.253
 12.1696  24122.1  154.077
 12.2116  23985.1  153.632
 12.2536  24121.7  154.896
 12.2956  23754.4  153.053
 12.3376  24161.2  154.573
 12.3796  23876.8  154.136
 12.4216  23661.6  152.635
 12.4636  23635.4  153.491
 12.5056  23699.7  152.968
 12.5476  24104.8  153.777
 12.5896  23660.2  152.996
 12.6316  23768.9  153.498
 12.6736  23646.8  153.586
 12.7156  23830  154.03
 12.7576  23579.3  153.461
 12.7996  23721.3  152.579
 12.8416  23723.8  153.636
 12.8836  23648.5  153.218
 12.9256  24301.6  154.349
 12.9676  23992.5  153.76
 13.0096  24272.8  155.786
 13.0516  24261.9  154.77
 13.0936  24558.1  156.135
 13.1356  24921.4  156.24
 13.1776  24288.1  155.253
 13.2196  24841.9  156.648
 13.2616  24401.9  155.569
 13.3036  24788.2  156.756
 13.3456  24455.8  156.053
 13.3876  24840.8  156.555
 13.4296  24827.4  156.675
 13.4716  24566.1  155.474
 13.5136  24611.3  155.745
 13.5556  24551.5  156.184
 13.5976  24640.9  156.649
 13.6396  24510.5  155.583
 13.6816  24602.6  156.352
 13.7236  25012.4  157.235
 13.7656  26641.9  162.7
 13.8076  27310.3  163.376
 13.8496  26769.4  162.459
 13.8916  24990.5  158.095
 13.9336  24154.3  154.7
 13.9756  24220.7  154.288
 14.0176  23874.2  153.87
 14.0596  24007.6  154.216
 14.1016  23779.7  153.915
 14.1436  23837.5  153.233
 14.1856  23287.2  151.745
 14.2276  23259.8  152.139
 14.2696  23491.4  152.741
 14.3116  22657.2  149.91
 14.3536  22581.8  149.831
 14.3956  22628.1  149.706
 14.4376  22780.9  149.999
 14.4796  22613.8  149.449
 14.5216  22208.7  148.89
 14.5636  22264.9  148.648
 14.6056  22438.3  148.785
 14.6476  22225.5  147.308
 14.6896  21752.1  146.282
 14.7316  21471.5  146.378
 14.7736  21283.6  144.863
 14.8156  21195.3  144.601
 14.8576  21141.6  144.265
 14.8996  20676.9  143.875
 14.9416  20273.6  142.475
 14.9836  20519.4  143.321
 15.0256  19863.8  139.919
 15.0676  19617.7  139.358
 15.1096  19733  139.506
 15.1516  19282  138.45
 15.1936  19427.2  138.405
 15.2356  19032.9  137.268
 15.2776  18764.8  135.892
 15.3196  18519.4  135.986
 15.3616  18407.8  135.342
 15.4036  18394  135.151
 15.4456  18840.9  136.43
 15.4876  18255.6  133.979
 15.5296  18225.8  134.148
 15.5716  17829.4  132.297
 15.6136  17915.8  132.934
 15.6556  18147.2  133.038
 15.6976  17685.4  131.62
 15.7396  17657.8  131.911
 15.7816  17680.1  131.507
 15.8236  17176.8  130.31
 15.8656  17299.8  130.565
 15.9076  17212.2  130.056
 15.9496  18032.2  135.956
 15.9916  17782.1  135.411
 16.0336  17904.7  132.734
 16.0756  17623.9  132.021
 16.1176  17403.6  131.267
 16.1596  17126.7  131.406
 16.2016  17114.4  130.106
 16.2436  17031.7  130.173
 16.2856  17009.9  129.608
 16.3276  16623.3  128.563
 16.3696  16885.8  129.405
 16.4116  16702.6  129.125
 16.4536  16901.1  129.714
 16.4956  16864.2  129.295
 16.5376  16451.3  127.9
 16.5796  16487.8  127.408
 16.6216  16372.1  127.226
 16.6636  16047.2  126.142
 16.7056  16337.5  127.137
 16.7476  16541.3  127.46
 16.7896  16161.1  126.724
 16.8316  16380  127.558
 16.8736  16411.5  127.936
 16.9156  16289  127.789
 16.9576  16023.9  127.51
 16.9996  16167.8  128.553
 17.0416  16300  127.453
 17.0836  16460.3  127.848
 17.1256  16258.6  127.059
 17.1676  16363.4  127.447
 17.2096  16094.9  126.286
 17.2516  16239.5  126.639
 17.2936  16196.2  126.822
 17.3356  15965.7  125.908
 17.3776  15897.2  125.82
 17.4196  15612  124.38
 17.4616  15675  124.542
 17.5036  15307.3  123.431
 17.5456  15225  123.74
 17.5876  15144.1  122.459
 17.6296  15181.7  122.446
 17.6716  15184.8  123.037
 17.7136  15109.7  122.862
 17.7556  14863.9  122.152
 17.7976  14928.4  122.153
 17.8396  14836.1  121.278
 17.8816  14549.2  120.649
 17.9236  14553.6  120.451
 17.9656  14533  120.902
 18.0076  14575.2  120.673
 18.0496  14467.7  119.373
 18.0916  14496  120.034
 18.1336  14307.8  119.344
 18.1756  14563.9  119.963
 18.2176  14234.6  118.806
 18.2596  14194.9  118.37
 18.3016  14405.8  119.504
 18.3436  14265.5  118.925
 18.3856  14148.5  118.574
 18.4276  14266.6  118.752
 18.4696  14216.9  118.637
 18.5116  14177.8  118.735
 18.5536  14100.2  118.775
 18.5956  14045.6  118.105
 18.6376  13883.5  117.809
 18.6796  14061.5  117.888
 18.7216  14147.5  118.738
 18.7636  13955.1  117.938
 18.8056  13905.7  117.652
 18.8476  13553.8  116.764
 18.8896  13931.9  117.721
 18.9316  14030.5  118.126
 18.9736  13858.6  117.102
 19.0156  13699.3  116.827
 19.0576  13936.9  116.699
 19.0996  14013.2  117.731
 19.1416  13783.1  117.157
 19.1836  13716.2  116.477
 19.2256  13619.7  116.287
 19.2676  13761.9  116.973
 19.3096  13719.5  117.038
 19.3516  13628.5  116.613
 19.3936  13670.2  116.676
 19.4356  13984.4  117.9
 19.4776  13741  116.956
 19.5196  13741.2  116.811
 19.5616  13627.8  116.586
 19.6036  13646.1  116.17
 19.6456  13743.6  116.696
 19.6876  13685.8  116.086
 19.7296  13837.4  117.19
 19.7716  13586.7  116.288
 19.8136  13939.4  117.992
 19.8556  13890.4  117.274
 19.8976  13870.6  117.248
 19.9396  13855.7  116.77
 19.9816  13854.6  117.013
 20.0236  14043.3  118.004
 20.0656  14182.1  118.58
 20.1076  14456.8  120.213
 20.1496  14726.6  121.327
 20.1916  14951.2  121.743
 20.2336  14902.4  121.474
 20.2756  14791.9  121.462
 20.3176  14329.8  119.295
 20.3596  14046.9  118.094
 20.4016  14111.6  118.16
 20.4436  13835.6  117.563
 20.4856  13703.7  116.795
 20.5276  13365.3  115.813
 20.5696  13719.2  116.777
 20.6116  13374.9  115.578
 20.6536  13336.5  114.922
 20.6956  13329.4  115.026
 20.7376  13158.8  114.5
 20.7796  13333.7  114.944
 20.8216  13417.9  115.021
 20.8636  13163  114.298
 20.9056  13106.3  113.989
 20.9476  13031.2  113.509
 20.9896  13193.6  114.076
 21.0316  13122.2  113.662
 21.0736  13162.6  114.358
 21.1156  12904.4  113.394
 21.1576  13107.7  114.322
 21.1996  12931.6  113.535
 21.2416  12929.5  113.36
 21.2836  13027.3  113.762
 21.3256  12910  113.324
 21.3676  12995.6  113.237
 21.4096  12853.2  112.927
 21.4516  12685.5  112.067
 21.4936  12630.3  112.077
 21.5356  12947.3  113.427
 21.5776  12936.9  113.213
 21.6196  12630.8  111.907
 21.6616  12588.2  111.802
 21.7036  12737.2  112.235
 21.7456  12656.2  111.944
 21.7876  12630.5  111.601
 21.8296  12722.2  111.853
 21.8716  12669.1  111.841
 21.9136  12860.2  112.888
 21.9556  12626.9  111.53
 21.9976  12486.7  110.947
 22.0396  12526.2  111.37
 22.0816  12557.4  112.04
 22.1236  12776.9  112.469
 22.1656  12637.1  111.999
 22.2076  12324.5  110.061
 22.2496  12379.1  110.325
 22.2916  12325.2  109.978
 22.3336  12343.4  110.767
 22.3756  12372.9  110.627
 22.4176  12317.3  110.236
 22.4596  12138.6  110.018
 22.5016  12414.5  110.762
 22.5436  12408.1  110.613
 22.5856  12568.4  111.566
 22.6276  12429.9  111.076
 22.6696  12417.4  111.383
 22.7116  12301  110.368
 22.7536  12443.7  110.988
 22.7956  12168  109.092
 22.8376  12159.9  109.576
 22.8796  12268.6  109.864
 22.9216  12208.7  110.137
 22.9636  12334.3  109.859
 23.0056  12365.8  110.129
 23.0476  12282.5  110.324
 23.0896  12661.4  111.391
 23.1316  12322.3  110.321
 23.1736  12477.8  113.946
 23.2156  12711.1  112.394
 23.2576  12942.8  113.547
 23.2996  12545.5  111.564
 23.3416  12819  113.309
 23.3836  12911.1  112.934
 23.4256  12960.7  113.267
 23.4676  12697.6  111.809
 23.5096  12686.2  112.415
 23.5516  12636.8  111.5
 23.5936  12681.7  112.61
 23.6356  12714.2  112.421
 23.6776  12557.4  111.93
 23.7196  12504.4  111.275
 23.7616  12547.8  111.38
 23.8036  12777  112.453
 23.8456  12378.7  110.229
 23.8876  12468.7  110.996
 23.9296  12311.3  110.784
 23.9716  12251.9  109.722
 24.0136  12505.1  111.754
 24.0556  12313.1  110.605
 24.0976  12167.9  109.776
 24.1396  12165.5  112.372
 24.1816  12443.5  112.043
 24.2236  12199.1  110.574
 24.2656  12168.6  109.894
 24.3076  12125.8  109.979
 24.3496  12022.8  109.382
 24.3916  12144.6  109.997
 24.4336  12156.7  110.245
 24.4756  12131.4  110.017
 24.5176  11789.4  108.075
 24.5596  11809.9  108.307
 24.6016  11717.3  108.175
 24.6436  11824.9  108.184
 24.6856  11888.5  108.214
 24.7276  11725.7  107.784
 24.7696  11738.8  107.953
 24.8116  11580.7  107.405
 24.8536  11463.6  106.871
 24.8956  11402.1  106.313
 24.9376  11362.8  106.057
 24.9796  11396.3  106.583
 25.0216  11341.6  106.443
 25.0636  11481.4  106.743
 25.1056  11318.2  106.685
 25.1476  11246.1  107.956
 25.1896  11224.7  106.378
 25.2316  11094.6  105.052
 25.2736  11135.8  104.888
 25.3156  11186.5  105.213
 25.3576  11106.6  105.258
 25.3996  11183.1  105.616
 25.4416  11064.1  105.026
 25.4836  10938.9  104.936
 25.5256  11005.3  104.624
 25.5676  11005.4  104.355
 25.6096  10972.4  104.777
 25.6516  10976.9  104.299
 25.6936  11048.9  104.962
 25.7356  10930.9  104.534
 25.7776  11032.3  104.619
 25.8196  10724.8  103.384
 25.8616  10774.2  103.554
 25.9036  10892.5  103.574
 25.9456  10880.8  104.113
 25.9876  10838.4  103.974
 26.0296  10820.4  103.407
 26.0716  10868  104.065
 26.1136  10809.3  103.713
 26.1556  10854.2  103.317
 26.1976  10763.3  103.801
 26.2396  10685.5  102.589
 26.2816  10739.5  103.451
 26.3236  10810.4  103.938
 26.3656  10841.8  103.826
 26.4076  10802.7  103.841
 26.4496  10914.6  103.973
 26.4916  11073.6  104.62
 26.5336  11183.3  105.482
 26.5756  11464.2  106.68
 26.6176  10935  104.2
 26.6596  10921.7  104.45
 26.7016  10772.9  103.492
 26.7436  10842.8  103.966
 26.7856  10678.1  103.16
 26.8276  10602  102.762
 26.8696  10567.9  102.462
 26.9116  10460.4  101.87
 26.9536  10646.1  102.825
 26.9956  10345.1  101.4
 27.0376  10588  102.812
 27.0796  10415.7  101.689
 27.1216  10551.1  102.415
 27.1636  10222.9  100.966
 27.2056  10435.7  101.895
 27.2476  10381.2  101.626
 27.2896  10301.5  101.353
 27.3316  10251.3  100.827
 27.3736  10232.8  101.001
 27.4156  10367.4  101.504
 27.4576  10233.9  101.067
 27.4996  10310  101.053
 27.5416  10184  100.743
 27.5836  10117.4  100.247
 27.6256  10208.7  100.877
 27.6676  10238.3  101.004
 27.7096  10196.3  100.688
 27.7516  10181  100.754
 27.7936  10394.3  101.962
 27.8356  10283.1  100.994
 27.8776  10422.9  101.768
 27.9196  10080.9  99.9467
 27.9616  10121  100.344
 28.0036  10064.8  100.024
 28.0456  10040.2  100.038
 28.0876  9897.14  99.4069
 28.1296  10027.5  99.8983
 28.1716  10030.4  99.9375
 28.2136  10080.9  100.147
 28.2556  9938.06  99.5488
 28.2976  9852.3  99.1104
 28.3396  9885.32  99.0403
 28.3816  9975.51  99.5009
 28.4236  9773.62  98.6424
 28.4656  9793  98.7807
 28.5076  9813.38  98.5148
 28.5496  9795.55  98.6895
 28.5916  9881.32  98.9315
 28.6336  9878.47  99.2596
 28.6756  9935.66  98.7438
 28.7176  9773.08  98.483
 28.7596  9791.88  98.4651
 28.8016  9746.05  98.2737
 28.8436  9754.95  98.5593
 28.8856  9870.36  98.991
 28.9276  9722.52  98.4909
 28.9696  9703.22  98.0586
 29.0116  9636.86  97.8967
 29.0536  9419.65  96.9956
 29.0956  9758.06  98.421
 29.1376  9707.72  98.1456
 29.1796  9726.85  98.2878
 29.2216  9654.65  97.7639
 29.2636  9775.94  98.4506
 29.3056  9512.87  96.8997
 29.3476  9581.3  97.7719
 29.3896  9616.73  98.0733
 29.4316  9547.35  97.044
 29.4736  9374.39  96.2281
 29.5156  9444.02  96.5056
 29.5576  9345.17  96.7208
 29.5996  9301.17  95.7699
 29.6416  9295.31  95.8435
 29.6836  9342.48  96.0279
 29.7256  9453.07  97.1542
 29.7676  9398.53  96.543
 29.8096  9283.73  95.8912
 29.8516  9250.21  96.048
 29.8936  9203.45  95.8941
 29.9356  9447.96  96.9141
 29.9776  9207.25  95.8239
 30.0196  9175.53  95.0536
 30.0616  9224.12  95.6772
 30.1036  9258.07  95.6762
 30.1456  9221.4  95.7262
 30.1876  9267.77  95.9374
 30.2296  9045.85  94.7392
 30.2716  9353.39  95.9727
 30.3136  9448.03  97.3127
 30.3556  9461.24  97.3887
 30.3976  9342.65  98.265
 30.4396  9721.66  97.588
 30.4816  9684.38  96.9882
 30.5236  9544.12  96.278
 30.5656  9481.18  96.6293
 30.6076  9515.33  96.2073
 30.6496  9502.91  96.562
 30.6916  9253.62  95.3726
 30.7336  9424.15  96.3874
 30.7756  9410.18  96.4041
 30.8176  9301.96  95.7809
 30.8596  9486.79  96.4695
 30.9016  9622.74  97.5282
 30.9436  9313.43  95.6893
 30.9856  9577.49  97.1513
 31.0276  9374.33  95.7487
 31.0696  9433.08  96.6092
 31.1116  9369.78  96.2662
 31.1536  9357.85  96.0697
 31.1956  9322.97  95.9756
 31.2376  9110.49  94.9039
 31.2796  9276.6  95.3096
 31.3216  9355.02  95.6279
 31.3636  9327.22  96.1776
 31.4056  9314.5  97.4256
 31.4476  9393.07  95.7358
 31.4896  9370.82  96.1254
 31.5316  9312.46  95.224
 31.5736  9438.91  95.7045
 31.6156  9229.99  94.6445
 31.6576  9379.2  95.4816
 31.6996  9534.59  95.9173
 31.7416  9193.38  95.2887
 31.7836  9275.09  94.7026
 31.8256  9250.84  94.8623
 31.8676  9419.51  95.7098
 31.9096  9220.62  95.0665
 31.9516  8964.65  93.8939
 31.9936  9098.98  94.4169
 32.0356  9272.5  95.3592
 32.0776  9253.1  95.1595
 32.1196  9334.23  95.683
 32.1616  9228.62  94.5906
 32.2036  9247.19  95.1974
 32.2456  9100.39  94.8065
 32.2876  9227.13  94.9743
 32.3296  9178.64  94.6877
 32.3716  8848.24  93.0774
 32.4136  8910.77  93.6105
 32.4556  9067.71  93.8145
 32.4976  8998.75  93.374
 32.5396  9040.05  93.6425
 32.5816  9029.52  93.7182
 32.6236  9056.01  93.9039
 32.6656  9092.41  94.6583
 32.7076  8850.23  93.0414
 32.7496  8985.65  93.4201
 32.7916  8970.39  93.3088
 32.8336  8969.06  93.3857
 32.8756  9114.99  93.8668
 32.9176  8783.14  92.6239
 32.9596  8840.06  93.0001
 33.0016  8960.49  93.4006
 33.0436  8892.04  93.2219
 33.0856  8917.79  93.445
 33.1276  8761.43  92.349
 33.1696  8894.35  92.8769
 33.2116  8841.05  92.8297
 33.2536  9069.47  94.0197
 33.2956  8958.87  93.5315
 33.3376  8805.8  92.4743
 33.3796  8962.08  93.5017
 33.4216  8809.16  92.293
 33.4636  8844.85  92.6392
 33.5056  8776.98  92.5228
 33.5476  8882.65  93.0567
 33.5896  8952.48  93.2152
 33.6316  8891.13  93.2091
 33.6736  8730.99  92.6128
 33.7156  8874.87  93.3997
 33.7576  8815.82  92.7307
 33.7996  8829.55  92.5678
 33.8416  8565.45  91.3566
 33.8836  8742.82  92.0697
 33.9256  8863.4  92.7651
 33.9676  8836.9  92.5201
 34.0096  8761.09  92.4407
 34.0516  8675.06  91.617
 34.0936  8699.79  92.0234
 34.1356  8602.07  91.2448
 34.1776  8603.73  91.2492
 34.2196  8580.64  91.3155
 34.2616  8619.15  91.6439
 34.3036  8732.33  92.5081
 34.3456  8649.54  91.8119
 34.3876  8693.91  92.0261
 34.4296  8658.09  91.5235
 34.4716  8730.02  92.056
 34.5136  8566.68  91.3771
 34.5556  8505.71  91.2997
 34.5976  8650.79  91.8949
 34.6396  8546.58  91.049
 34.6816  8669.79  91.8192
 34.7236  8623.78  91.3379
 34.7656  8560.99  91.2215
 34.8076  8431.13  90.8586
 34.8496  8436.13  90.7302
 34.8916  8555.04  91.2269
 34.9336  8436.19  90.5785
 34.9756  8529.95  91.0048
 35.0176  8460.22  91.1504
 35.0596  8641.76  91.9489
 35.1016  8636.21  91.673
 35.1436  8862.48  92.5448
 35.1856  8534.14  90.941
 35.2276  8561.38  91.2588
 35.2696  8534.4  91.2983
 35.3116  8499.43  91.217
 35.3536  8459.08  90.7099
 35.3956  8592.72  91.1421
 35.4376  8582.06  91.6479
 35.4796  8614.15  91.8613
 35.5216  8522.39  91.3395
 35.5636  8314.02  90.945
 35.6056  8474.43  90.8366
 35.6476  8479.07  90.7655
 35.6896  8503.87  90.9898
 35.7316  8400.88  90.4155
 35.7736  8412.1  90.6527
 35.8156  8517.83  91.2244
 35.8576  8411.08  90.9042
 35.8996  8532.5  91.5291
 35.9416  8379.67  90.2175
 35.9836  8420.9  90.7713
 36.0256  8593.19  91.6927
 36.0676  8545.38  91.2061
 36.1096  8509.91  91.1651
 36.1516  8493.28  90.9677
 36.1936  8415.97  90.3809
 36.2356  8401.27  90.9719
 36.2776  8405.33  90.467
 36.3196  8411.44  90.1708
 36.3616  8344.7  89.9365
 36.4036  8342.71  89.9973
 36.4456  8394.75  90.4782
 36.4876  8181.25  89.2664
 36.5296  8458.96  90.8129
 36.5716  8243.41  90.4193
 36.6136  8278.97  89.3941
 36.6556  8265.45  89.5281
 36.6976  8042.78  88.7955
 36.7396  8077  88.7123
 36.7816  7996.74  88.65
 36.8236  8031.06  88.7636
 36.8656  7904.53  88.1252
 36.9076  7991.73  88.4863
 36.9496  7969.55  88.3663
 36.9916  8133.4  88.8964
 37.0336  8117.4  89.1176
 37.0756  8042.71  88.5039
 37.1176  7933.12  88.1631
 37.1596  8090.72  89.0407
 37.2016  8013.67  88.8366
 37.2436  8036.32  88.2865
 37.2856  7850.27  87.5098
 37.3276  8014.74  87.7841
 37.3696  7880.86  87.908
 37.4116  8027.41  88.6415
 37.4536  7824.66  87.3773
 37.4956  7891.73  87.7996
 37.5376  8169.34  90.9266
 37.5796  8017.54  90.0068
 37.6216  8013.81  88.2655
 37.6636  8077.4  88.4989
 37.7056  8155.34  89.1232
 37.7476  8190.55  88.8473
 37.7896  7960.33  88.1041
 37.8316  7994.15  88.4428
 37.8736  8030.97  88.1699
 37.9156  8059.65  88.3247
 37.9576  8075.56  88.3287
 37.9996  7976.73  87.5003
 38.0416  7936.26  88.0742
 38.0836  8161.57  89.2214
 38.1256  8034.82  88.501
 38.1676  7832.19  87.4888
 38.2096  8123.54  88.7153
 38.2516  7984.72  88.1654
 38.2936  8049.22  88.3284
 38.3356  8058.38  88.309
 38.3776  8035.01  88.4363
 38.4196  7959.51  87.8715
 38.4616  7972.04  88.1849
 38.5036  8096.06  88.7035
 38.5456  7911.83  88.5058
 38.5876  7870.01  88.3058
 38.6296  7993.01  87.9694
 38.6716  7938.12  87.4595
 38.7136  7930.19  87.3576
 38.7556  7970.48  88.093
 38.7976  7911.87  87.6817
 38.8396  7767.84  87.3445
 38.8816  7856.4  87.6338
 38.9236  7942.79  87.9177
 38.9656  7981.6  88.0367
 39.0076  7992.71  87.5056
 39.0496  8077.74  88.5321
 39.0916  8035.05  87.9328
 39.1336  7921.82  87.7207
 39.1756  7925.84  87.8028
 39.2176  7945.48  88.4503
 39.2596  7949.09  88.3936
 39.3016  7908.92  87.7565
 39.3436  7843.68  87.7871
 39.3856  8067.33  88.4899
 39.4276  8128.27  89.3316
 39.4696  7888.75  87.6293
 39.5116  8005.05  88.7955
 39.5536  8014.25  89.2612
 39.5956  7955.39  88.0365
 39.6376  7852.45  87.4788
 39.6796  7899.46  87.4722
 39.7216  7874.54  87.438
 39.7636  7971.74  88.5473
 39.8056  7946.94  88.1917
 39.8476  7830.64  87.7973
 39.8896  7941.09  88.0399
 39.9316  7763.02  87.29
 39.9736  7964.67  87.9904
 40.0156  7902.13  87.4798
 40.0576  7841.89  87.4914
 40.0996  7948.99  87.2727
 40.1416  7883.38  87.7059
 40.1836  7923.51  87.8228
 40.2256  7959.05  88.0485
 40.2676  7911.87  87.8939
 40.3096  7910.53  87.8188
 40.3516  7956.73  88.18
 40.3936  7944.01  87.671
 40.4356  7864.24  87.4295
 40.4776  7987.58  88.5149
 40.5196  7973.51  88.569
 40.5616  8057.19  88.671
 40.6036  7839.49  87.722
 40.6456  7850.62  87.3881
 40.6876  8071.13  88.6012
 40.7296  7913.28  87.8678
 40.7716  7949.24  88.1825
 40.8136  7886.36  87.7747
 40.8556  8112.4  89.172
 40.8976  8036.32  88.6712
 40.9396  8044.62  89.0612
 40.9816  8171.13  89.0431
 41.0236  8022.92  88.0142
 41.0656  8063.24  88.7816
 41.1076  7876.44  87.5117
 41.1496  7979.13  87.9862
 41.1916  8007.96  88.4546
 41.2336  7998.72  88.4129
 41.2756  7912.04  87.5373
 41.3176  8028.56  88.7955
 41.3596  7930.51  87.9699
 41.4016  7948.45  88.3444
 41.4436  7964.19  88.2191
 41.4856  7911.58  88.0921
 41.5276  8007.3  88.6417
 41.5696  7939.83  87.8964
 41.6116  7954.47  88.3676
 41.6536  7876.52  87.7835
 41.6956  8049.36  88.8137
 41.7376  7938.81  88.2275
 41.7796  7765.57  87.1443
 41.8216  7982.62  88.5839
 41.8636  7896.02  88.0461
 41.9056  7747.89  87.0103
 41.9476  7870.47  87.9295
 41.9896  7996.47  88.2919
 42.0316  7943.43  88.0899
 42.0736  7996.67  88.4913
 42.1156  7892.57  87.7366
 42.1576  7929.49  88.0556
 42.1996  7887.74  87.9551
 42.2416  7998.82  88.1594
 42.2836  7875.68  87.5926
 42.3256  7777.77  87.1558
 42.3676  7949.32  87.9124
 42.4096  7850.84  87.3342
 42.4516  7955.68  87.9974
 42.4936  7961.32  88.0919
 42.5356  7703.38  86.7935
 42.5776  7998.03  88.3834
 42.6196  7965.53  88.2557
 42.6616  7730.48  87.1183
 42.7036  7816.8  86.9766
 42.7456  7965.02  88.1643
 42.7876  7806.19  87.3624
 42.8296  7866.45  87.5486
 42.8716  7768.26  87.1613
 42.9136  7803.7  87.1458
 42.9556  7961.58  88.1539
 42.9976  7765.69  87.0266
 43.0396  7855.2  87.2592
 43.0816  7658.82  86.5426
 43.1236  7771.52  87.2292
 43.1656  7939.01  87.9781
 43.2076  7770.93  87.1678
 43.2496  7771.05  86.9851
 43.2916  7729.74  87.1137
 43.3336  7862.6  87.6883
 43.3756  7841.72  87.3296
 43.4176  7653.83  86.3548
 43.4596  7717.01  86.5706
 43.5016  7750.41  87.1627
 43.5436  7772.93  87.1956
 43.5856  7691.08  86.7633
 43.6276  7730.01  86.8556
 43.6696  7729.51  87.1251
 43.7116  7817.51  87.1115
 43.7536  7808.52  87.5604
 43.7956  7663.28  87.9532
 43.8376  7554.46  85.8528
 43.8796  7575.39  86.0549
 43.9216  7559.25  85.883
 43.9636  7625.61  86.3699
 44.0056  7472.47  85.7246
 44.0476  7605.61  86.1184
 44.0896  7496.99  85.8393
 44.1316  7635.85  86.1528
 44.1736  7502.04  85.5196
 44.2156  7618.87  86.0343
 44.2576  7616.93  86.3501
 44.2996  7620.1  86.3317
 44.3416  7622.49  86.1179
 44.3836  7544.68  86.0047
 44.4256  7352.52  84.5496
 44.4676  7500.86  85.5515
 44.5096  7530.98  85.8645
 44.5516  7397.67  85.0656
 44.5936  7330.67  84.6353
 44.6356  7529.64  85.5124
 44.6776  7506.17  85.6957
 44.7196  7490.93  85.9221
 44.7616  7613.64  87.952
 44.8036  7527.27  85.8899
 44.8456  7632.22  86.6938
 44.8876  7694.37  86.8885
 44.9296  7772.47  86.7643
 44.9716  7652.33  86.5121
 45.0136  7725.28  86.881
 45.0556  7744.68  86.9613
 45.0976  7582.02  86.196
 45.1396  7577.78  85.9342
 45.1816  7501.9  85.4347
 45.2236  7670.77  86.3046
 45.2656  7523.75  85.9663
 45.3076  7524.5  85.7454
 45.3496  7480.06  85.81
 45.3916  7549.96  86.4832
 45.4336  7599.89  86.609
 45.4756  7574  86.3065
 45.5176  7551.9  85.8062
 45.5596  7721.23  86.8761
 45.6016  7443.52  85.7292
 45.6436  7631.57  85.9743
 45.6856  7501.7  85.896
 45.7276  7401.58  86.6211
 45.7696  7502.62  86.8925
 45.8116  7458.41  86.0573
 45.8536  7517.49  86.296
 45.8956  7554.31  85.8482
 45.9376  7540.84  85.2389
 45.9796  7465.01  85.4912
 46.0216  7619.16  86.7209
 46.0636  7637.05  85.9451
 46.1056  7540.74  85.4003
 46.1476  7490.06  85.7102
 46.1896  7549.6  86.1976
 46.2316  7473.11  85.6176
 46.2736  7418.73  85.6892
 46.3156  7595.55  86.2804
 46.3576  7507.99  85.9846
 46.3996  7536.32  86.2958
 46.4416  7558.44  85.9951
 46.4836  7418.25  85.5632
 46.5256  7495.4  85.949
 46.5676  7489.6  86.0275
 46.6096  7600.72  86.5844
 46.6516  7561.5  85.4085
 46.6936  7571.18  85.9635
 46.7356  7604.67  86.2449
 46.7776  7385.63  85.8566
 46.8196  7377.4  85.3856
 46.8616  7379.41  85.3579
 46.9036  7286.67  84.4739
 46.9456  7324.25  84.3415
 46.9876  7371.1  84.688
 47.0296  7380.61  85.4385
 47.0716  7357.11  85.1223
 47.1136  7394.29  85.016
 47.1556  7395.69  84.8889
 47.1976  7459.49  85.3324
 47.2396  7349.24  85.0989
 47.2816  7302.81  84.5302
 47.3236  7433.55  85.6644
 47.3656  7324.63  84.9605
 47.4076  7307.92  84.6688
 47.4496  7422.38  85.419
 47.4916  7332.6  85.1002
 47.5336  7449.63  85.5888
 47.5756  7522.62  86.1187
 47.6176  7334.14  84.9319
 47.6596  7358.28  84.7811
 47.7016  7602.87  85.9871
 47.7436  7424.75  85.3198
 47.7856  7459.6  85.5487
 47.8276  7391.74  85.1973
 47.8696  7426.81  85.4955
 47.9116  7468.49  85.4473
 47.9536  7404.89  85.0245
 47.9956  7329.89  85.3066
 48.0376  7330.52  85.0741
 48.0796  7419.5  85.726
 48.1216  7351.99  85.1504
 48.1636  7474.79  85.4221
 48.2056  7396.23  85.2462
 48.2476  7571.06  86.5663
 48.2896  7384.38  85.3935
 48.3316  7403.19  85.4377
 48.3736  7423  85.5852
 48.4156  7322.71  84.8466
 48.4576  7420.7  85.7188
 48.4996  7526.72  85.767
 48.5416  7466.26  85.7638
 48.5836  7337.99  84.6908
 48.6256  7510.16  85.8932
 48.6676  7412.81  85.8538
 48.7096  7420.68  85.161
 48.7516  7365.71  84.9878
 48.7936  7225.74  84.2427
 48.8356  7338.69  84.9514
 48.8776  7344.98  85.5622
 48.9196  7498.47  85.8124
 48.9616  7351.8  85.3482
 49.0036  7301.31  85.4114
 49.0456  7343.99  85.6431
 49.0876  7318.81  85.033
 49.1296  7266.79  84.8752
 49.1716  7221.41  84.4937
 49.2136  7344.34  85.1146
 49.2556  7339.64  85.1346
 49.2976  7368.48  85.3747
 49.3396  7336.63  85.2431
 49.3816  7423.69  85.1739
 49.4236  7331.25  85.0744
 49.4656  7255.79  84.6516
 49.5076  7373.77  85.078
 49.5496  7263.82  84.4977
 49.5916  7423.24  85.3402
 49.6336  7208.61  84.308
 49.6756  7369.7  85.4774
 49.7176  7227.91  84.5927
 49.7596  7263.08  84.5669
 49.8016  7425.11  85.4179
 49.8436  7237.13  84.6295
 49.8856  7238.82  84.65
 49.9276  7245.2  84.7836
 49.9696  7318.84  85.1995
 50.0116  7289.02  85.1593
 50.0536  7228.88  84.7512
 50.0956  7275.02  85.0908
 50.1376  7303.59  84.9512
 50.1796  7230.37  84.799
 50.2216  7229.06  84.7883
 50.2636  7368.33  85.2005
 50.3056  7183.11  84.3022
 50.3476  7273.56  84.8601
 50.3896  7196.99  84.3809
 50.4316  7278.45  84.6876
 50.4736  7220.13  84.5709
 50.5156  7256.49  84.7684
 50.5576  7296.96  84.7583
 50.5996  7295.78  85.0475
 50.6416  7260.59  84.7639
 50.6836  7249.46  84.7547
 50.7256  7281.5  84.8701
 50.7676  7365.05  85.6858
 50.8096  7245.65  84.518
 50.8516  7118.89  84.1945
 50.8936  7158.85  84.2137
 50.9356  7152.19  84.2782
 50.9776  7223.21  84.8622
 51.0196  7081.7  84.1463
 51.0616  6992.78  82.9302
 51.1036  7026.64  83.4936
 51.1456  7105.87  83.8691
 51.1876  7239.81  83.9824
 51.2296  7088.48  83.7439
 51.2716  7020.25  83.052
 51.3136  7066.84  83.7912
 51.3556  6952.86  82.733
 51.3976  7044.55  83.4297
 51.4396  6968.99  83.2937
 51.4816  6971.31  83.1546
 51.5236  7047.53  83.6927
 51.5656  6927.68  82.5748
 51.6076  7035.12  83.2957
 51.6496  7006.26  83.3253
 51.6916  6994.45  83.6148
 51.7336  6950.95  83.4537
 51.7756  6950.74  83.1316
 51.8176  6965.91  83.3437
 51.8596  6898.32  82.9518
 51.9016  7108.68  83.8043
 51.9436  7144.08  85.5524
 51.9856  7167.88  86.1013
 52.0276  6951.69  83.2799
 52.0696  7149.14  84.531
 52.1116  6968.97  83.5818
 52.1536  7142.25  84.4914
 52.1956  7134.62  83.9008
 52.2376  7220.29  84.5748
 52.2796  7172.69  84.1133
 52.3216  6987.06  83.7187
 52.3636  7010.66  83.4098
 52.4056  7059.2  83.5659
 52.4476  7042.44  83.8354
 52.4896  7002.42  83.6396
 52.5316  7065.04  84.0667
 52.5736  6938.31  83.0308
 52.6156  7115.66  84.4903
 52.6576  6974.68  83.0827
 52.6996  6954.09  83.9496
 52.7416  6999.84  84.0836
 52.7836  7041.72  84.2227
 52.8256  7027.22  83.33
 52.8676  6787.6  82.4748
 52.9096  7039.21  84.0541
 52.9516  7003.51  84.2422
 52.9936  6978.1  84.4716
 53.0356  7036.41  83.7834
 53.0776  7002.59  83.8672
 53.1196  6971.87  83.8104
 53.1616  6957.28  83.7766
 53.2036  6919.88  83.5114
 53.2456  6924.68  83.6485
 53.2876  7006.48  83.8177
 53.3296  6921.9  83.6442
 53.3716  7041.42  84.1111
 53.4136  6944.93  83.6888
 53.4556  6852.13  83.1533
 53.4976  6913.69  83.3612
 53.5396  6864.66  83.4655
 53.5816  6959.18  83.6753
 53.6236  6869.87  83.4933
 53.6656  6999.84  83.8788
 53.7076  6946.51  83.5088
 53.7496  7030.04  84.1499
 53.7916  6845.43  83.1635
 53.8336  6934.88  83.608
 53.8756  6782.48  83.2264
 53.9176  6877.45  83.1441
 53.9596  6603.56  82.2477
 54.0016  6587.56  81.4467
 54.0436  6597.06  81.7543
 54.0856  6739.26  82.0283
 54.1276  6761.04  82.3788
 54.1696  6783.35  82.673
 54.2116  6793.78  82.4847
 54.2536  6676.45  81.5825
 54.2956  6667.63  81.5776
 54.3376  6661.8  82.0246
 54.3796  6573.48  81.3852
 54.4216  6644.07  81.8932
 54.4636  6586.02  81.4786
 54.5056  6728.46  82.1723
 54.5476  6679.09  82.2049
 54.5896  6609.46  81.6244
 54.6316  6633.14  81.5965
 54.6736  6645.34  81.7725
 54.7156  6595.26  81.475
 54.7576  6449.79  80.5361
 54.7996  6604.9  81.6613
 54.8416  6723.07  82.4651
 54.8836  6610.52  81.8662
 54.9256  6671.67  81.997
 54.9676  6579.81  81.286
 55.0096  6600.19  81.4258
 55.0516  6504.88  81.0943
 55.0936  6582.62  81.2426
 55.1356  6495.94  80.7346
 55.1776  6628.23  81.8053
 55.2196  6587.81  81.3459
 55.2616  6710.07  82.3148
 55.3036  6448.65  80.8664
 55.3456  6427.49  80.8769
 55.3876  6569.16  81.4843
 55.4296  6423.31  80.5755
 55.4716  6471.77  80.9045
 55.5136  6490.92  80.7957
 55.5556  6642.71  81.79
 55.5976  6477.97  80.8405
 55.6396  6611.27  81.6198
 55.6816  6482.89  80.6794
 55.7236  6399.86  80.2246
 55.7656  6516.62  80.6672
 55.8076  6402.35  79.9707
 55.8496  6400.86  80.2697
 55.8916  6379.69  80.3477
 55.9336  6553.92  81.2556
 55.9756  6348.8  79.8691
 56.0176  6414.51  80.4056
 56.0596  6333.83  79.8964
 56.1016  6280.13  79.5906
 56.1436  6385.72  80.5109
 56.1856  6383.22  80.2431
 56.2276  6551.74  81.3449
 56.2696  6406.96  80.4169
 56.3116  6483.26  81.269
 56.3536  6338.1  80.0165
 56.3956  6351.7  80.0948
 56.4376  6366.81  80.2463
 56.4796  6244.6  79.2804
 56.5216  6330.52  80.1814
 56.5636  6276.3  79.4347
 56.6056  6418.72  80.5566
 56.6476  6351.12  79.7405
 56.6896  6569.91  81.5804
 56.7316  6334.76  80.0131
 56.7736  6379.37  80.2912
 56.8156  6330.83  80.0064
 56.8576  6147.03  78.7749
 56.8996  6269.59  79.4595
 56.9416  6214.4  79.4362
 56.9836  6432.02  80.3243
 57.0256  6274.03  79.6574
 57.0676  6409.75  80.6109
 57.1096  6335.69  79.9494
 57.1516  6284.14  79.6717
 57.1936  6268.41  79.3278
 57.2356  6189.35  79.1473
 57.2776  6333.74  80.0389
 57.3196  6271.78  79.9829
 57.3616  6229.56  79.2257
 57.4036  6338.58  79.957
 57.4456  6335.98  79.9308
 57.4876  6227.52  79.1058
 57.5296  6178.1  79.1228
 57.5716  6202.57  79.2599
 57.6136  6114.72  78.5483
 57.6556  6318.54  79.9724
 57.6976  6205.31  79.0899
 57.7396  6071.96  78.5944
 57.7816  6040.07  78.7523
 57.8236  6211.31  79.6416
 57.8656  6157.85  78.9416
 57.9076  6252.64  79.5964
 57.9496  6183.84  79.5136
 57.9916  6259.14  79.4931
 58.0336  6138.93  79.0139
 58.0756  6254.14  79.3874
 58.1176  6258.83  79.408
 58.1596  6234.56  79.8503
 58.2016  6031.99  77.7617
 58.2436  6032.3  78.1612
 58.2856  5877.27  77.0837
 58.3276  5984.78  78.1489
 58.3696  5917.01  77.4512
 58.4116  6010.06  77.9341
 58.4536  5947.92  77.414
 58.4956  5998.28  77.9246
 58.5376  6118.44  78.2703
 58.5796  5881.96  77.1632
 58.6216  5951.89  77.43
 58.6636  6019.74  78.0913
 58.7056  5962.47  77.5729
 58.7476  5955.22  77.966
 58.7896  5850.5  76.9238
 58.8316  5867.86  77.0341
 58.8736  6011.82  77.9892
 58.9156  5897.5  77.2813
 58.9576  5889.71  77.5505
 58.9996  5987.22  77.4418
 59.0416  6069.54  78.3412
 59.0836  5937.59  77.4001
 59.1256  5980.14  78.3757
 59.1676  5967.87  78.6052
 59.2096  5982.55  78.0209
 59.2516  5972.5  77.5387
 59.2936  5916.64  77.5
 59.3356  5905.51  77.3061
 59.3776  5860.38  77.1766
 59.4196  5845.29  77.0145
 59.4616  5965.22  77.6611
 59.5036  5926.65  77.4448
 59.5456  6001.88  77.6289
 59.5876  6017.13  77.9183
 59.6296  5826.38  76.7413
 59.6716  5886.91  77.1961
 59.7136  5937.11  77.5129
 59.7556  5847.49  77.0599
 59.7976  5956.58  77.5193
 59.8396  5891.23  76.9885
 59.8816  5820.29  77.0589
 59.9236  5943.88  77.5193
 59.9656  5942.72  77.7705
 60.0076  5906.51  76.8975
 60.0496  5839.1  76.9527
 60.0916  6112.59  78.149
 60.1336  5802.81  77.2285
 60.1756  5777.66  78.2194
 60.1996  0.0000000E+00  0.0000000E+00