File: docs/examples/opeando_xrd/IS17_D/Data/IS17_D/17_Da_f00151.xye
# /beamlines/bl04/projects/cycle2025-II/20250340211-lsimonelli/DATA/IS17_D/17_Da_f00151.xye : mythproc.py merge -s 0.006 -l 0.5 -f /beamlines/bl04/inhouse/ff/FlatField/ff_20Nov2024rod8mm60s_17keV.raw -b True -c true -o xye /beamlines/bl04/projects/cycle2025-II/20250340211-lsimonelli/DATA/IS17_D/17_Da_00151.dat
# IsMon = [6784309, 6784692, 6784621]  IsPos = [-1.5000, -2.4883, -3.4988]
# Wave = 0.4962  CalPath /beamlines/bl04/projects/cycle2025-II/20250340211-lsimonelli/DATA/Align/Si_Pos1_25keV_f00001.cal
# Date = 2025-09-25_11:38:11 Dt = 4.8000  Bin = 0.0060  <imon> = 6784541 +/- 166 (Min/Max) 6784309 / 6784692
# icurr 253.0017  mocoIn 1.7252E-05  mocoOut 0.8089  i15 7.10489e+06  imon 6.78454e+06  i7 4.0000  iEMpd_timer 4.8000  iEMpd_1 3.3994E-08  iEMpd_2 7.7065E-08  iEMpd_3 1.6928E-08  iEMpd_4 4.7278E-08  iEMhp_timer 4.8000  iEMhp_1 4.9403E-06  iEMhp_2 -2.6759E-08  iEMhp_3 -2.4201E-08  iEMhp_4 -2.0587E-08
#      9776
 1.5856  41061.6  208.079
 1.6276  48852.6  223.068
 1.6696  55268.3  236.427
 1.7116  63626.7  254.172
 1.7536  72756.3  270.638
 1.7956  77470.6  279.966
 1.8376  73971.2  274.004
 1.8796  62246.7  249.502
 1.9216  50531.5  225.698
 1.9636  42971.8  207.803
 2.0056  38148.3  194.542
 2.0476  35337  189.289
 2.0896  33826.1  184.112
 2.1316  33087.6  181.216
 2.1736  31568.1  178.41
 2.2156  32195.8  178.729
 2.2576  30793.7  175.422
 2.2996  29662.5  172.801
 2.3416  29857.4  171.981
 2.3836  29562.2  171.237
 2.4256  28573.1  168.896
 2.4676  27709  166.087
 2.5096  28260  167.785
 2.5516  27169.3  168.319
 2.5936  27203.5  165.03
 2.6356  26561.7  163.756
 2.6776  26436  162.257
 2.7196  26220.9  161.734
 2.7616  26001.5  161.217
 2.8036  25558.3  160.007
 2.8456  25519.1  160.5
 2.8876  25350.8  159.846
 2.9296  24826  158.307
 2.9716  24698.5  157.393
 3.0136  24555.4  157
 3.0556  24397.9  156.894
 3.0976  24212.7  155.235
 3.1396  24166.3  155.794
 3.1816  24053.8  155.082
 3.2236  23917.5  154.929
 3.2656  23783.6  153.537
 3.3076  23327.1  153.498
 3.3496  24026.2  154.715
 3.3916  24261.3  155.295
 3.4336  24725.8  157.356
 3.4756  25048.9  158.308
 3.5176  25817.1  160.509
 3.5596  25911.3  163.803
 3.6016  25967.3  161.033
 3.6436  25191.9  159.716
 3.6856  24686.2  156.39
 3.7276  23832.2  154.762
 3.7696  23656.8  154.184
 3.8116  23229.8  152.87
 3.8536  23397.1  153.354
 3.8956  23347.6  153.019
 3.9376  23128.9  152.551
 3.9796  23193.5  152.272
 4.0216  23391.3  151.946
 4.0636  23196.5  152.799
 4.1056  23264.8  152.656
 4.1476  23387.4  153.381
 4.1896  23574.7  153.851
 4.2316  23729.2  154.179
 4.2736  24236.5  155.602
 4.3156  24398.2  156.354
 4.3576  25120.3  158.571
 4.3996  25428.4  159.807
 4.4416  26000.5  161.174
 4.4836  26326.7  162.334
 4.5256  26783.5  164.353
 4.5676  26654.1  164.211
 4.6096  27261  165.084
 4.6516  27661.2  165.631
 4.6936  27849  167.005
 4.7356  27878.9  166.928
 4.7776  27928.3  166.908
 4.8196  27778  167.112
 4.8616  27215.2  164.888
 4.9036  26934.5  163.781
 4.9456  26831.4  164.118
 4.9876  26328.8  162.476
 5.0296  26690.4  163.406
 5.0716  26568.7  163.815
 5.1136  26868.7  164.443
 5.1556  27120.3  164.667
 5.1976  27219.8  164.963
 5.2396  27542.6  165.63
 5.2816  27482.5  165.914
 5.3236  27610.5  166.006
 5.3656  27179.7  165.635
 5.4076  27072.2  165.46
 5.4496  27100.4  165.024
 5.4916  27219.1  165.143
 5.5336  27275.2  165.319
 5.5756  27095.6  164.801
 5.6176  27243  164.676
 5.6596  27497.2  166.279
 5.7016  27629.8  166.091
 5.7436  28010.9  167.51
 5.7856  27686.1  166.595
 5.8276  28183.1  167.797
 5.8696  28128.1  167.698
 5.9116  28287.6  168.595
 5.9536  28431.8  169.074
 5.9956  28791  169.496
 6.0376  28739.4  169.991
 6.0796  29059.9  170.766
 6.1216  29173.8  171.356
 6.1636  29235.7  170.536
 6.2056  29223.3  171.18
 6.2476  29489.9  171.641
 6.2896  29705.3  172.13
 6.3316  29401  171.419
 6.3736  29627.1  171.973
 6.4156  29577  171.779
 6.4576  29847.6  172.108
 6.4996  29990.4  173.007
 6.5416  30068.3  173.367
 6.5836  30043  173.529
 6.6256  29890.8  172.646
 6.6676  30675.9  174.462
 6.7096  30236.4  174.062
 6.7516  30892.3  175.59
 6.7936  30945.5  175.165
 6.8356  30877.6  175.047
 6.8776  31464.9  177.522
 6.9196  31399.3  177.74
 6.9616  31922.2  178.651
 7.0036  32434  179.725
 7.0456  32424.3  178.987
 7.0876  32402.4  180.551
 7.1296  32351.9  179.621
 7.1716  32201.9  178.737
 7.2136  32112.7  178.272
 7.2556  32191.9  178.655
 7.2976  32347.1  179.584
 7.3396  32114.3  179.153
 7.3816  32116.3  179.377
 7.4236  32396.5  179.442
 7.4656  32615.9  179.532
 7.5076  32664  179.796
 7.5496  32767  180.623
 7.5916  32632.9  180.283
 7.6336  33182.9  181.695
 7.6756  33325.7  181.933
 7.7176  33525.6  182.783
 7.7596  33682.7  184.479
 7.8016  33988.3  187.508
 7.8436  34504.5  185.57
 7.8856  34784.1  185.928
 7.9276  35264  187.606
 7.9696  35381.8  188.234
 8.0116  36396  189.426
 8.0536  36871.3  190.927
 8.0956  36529.5  191.223
 8.1376  37152.9  192.316
 8.1796  37264.5  193.153
 8.2216  37966.4  193.686
 8.2636  38162.3  194.464
 8.3056  38052.6  194.94
 8.3476  38589.1  195.628
 8.3896  38436.6  195.323
 8.4316  38538.7  195.746
 8.4736  39018.2  196.418
 8.5156  38434.9  195.226
 8.5576  37912.7  195.509
 8.5996  38227.8  194.542
 8.6416  38235.5  195.841
 8.6836  37839.5  194.653
 8.7256  38433.8  195.608
 8.7676  37781.3  196.878
 8.8096  37377.4  193.114
 8.8516  37345.8  192.689
 8.8936  36881.7  191.323
 8.9356  36775.8  191.407
 8.9776  37317.8  192.911
 9.0196  37031.6  191.829
 9.0616  36797  190.682
 9.1036  36594.9  191.373
 9.1456  36913.1  191.548
 9.1876  36769.7  191.121
 9.2296  37067.6  191.29
 9.2716  36097.7  188.835
 9.3136  36361.8  189.503
 9.3556  36471  189.777
 9.3976  35146.1  186.828
 9.4396  35691.8  188.168
 9.4816  35050.2  186.327
 9.5236  35129.1  186.446
 9.5656  34671.3  185.556
 9.6076  34705.3  186.183
 9.6496  34684.5  186.045
 9.6916  34775.5  186.264
 9.7336  34426.5  185.102
 9.7756  34490.6  186.401
 9.8176  33651.9  183.756
 9.8596  33857.9  182.747
 9.9016  33537.5  181.873
 9.9436  33469.8  181.433
 9.9856  33024.7  180.624
 10.0276  32186.7  179.394
 10.0696  32644.9  179.726
 10.1116  31751.3  177.509
 10.1536  31308.6  175.942
 10.1956  31324.1  176.078
 10.2376  30872.6  174.304
 10.2796  30962.2  174.685
 10.3216  31226.9  175.564
 10.3636  30538.6  173.785
 10.4056  30393.9  173.776
 10.4476  30177.2  172.78
 10.4896  30605  173.589
 10.5316  29929.1  171.902
 10.5736  29751.9  172.144
 10.6156  29229.5  170.384
 10.6576  29480.9  169.667
 10.6996  28981.3  168.889
 10.7416  28660.1  168.197
 10.7836  29058.8  170.063
 10.8256  28425.6  168.632
 10.8676  28613.9  168.723
 10.9096  28425.8  168.206
 10.9516  28045.9  165.991
 10.9936  27870.2  165.67
 11.0356  27900.9  166.411
 11.0776  27924.3  165.779
 11.1196  27349.2  164.826
 11.1616  27227.7  164.138
 11.2036  27484.9  164.764
 11.2456  27401.7  165.227
 11.2876  27124.7  164.118
 11.3296  26955  163.498
 11.3716  27366.3  164.466
 11.4136  27328.2  165.237
 11.4556  27646.3  165.85
 11.4976  27905.6  165.566
 11.5396  28027.1  166.106
 11.5816  27569.8  165.198
 11.6236  27213.5  164.366
 11.6656  26774.7  162.178
 11.7076  26288.5  161.55
 11.7496  26032.8  164.737
 11.7916  25831.1  159.395
 11.8336  25692.4  159.863
 11.8756  25357.5  158.35
 11.9176  25684.3  159.014
 11.9596  25202.2  157.702
 12.0016  25335.2  158.639
 12.0436  25419.3  158.597
 12.0856  24778.6  157.122
 12.1276  24853.4  157.274
 12.1696  24701.5  155.923
 12.2116  25163.7  157.374
 12.2536  24511.4  156.12
 12.2956  24709.2  156.109
 12.3376  24555.5  155.83
 12.3796  24810.9  157.106
 12.4216  24566.3  155.543
 12.4636  24345.1  155.756
 12.5056  24491.6  155.494
 12.5476  24721.1  155.745
 12.5896  24677.2  156.249
 12.6316  24290.8  155.176
 12.6736  24406  156.219
 12.7156  24267.3  155.45
 12.7576  24464.2  156.327
 12.7996  24514.3  155.118
 12.8416  24317.5  155.555
 12.8836  24626.8  156.28
 12.9256  25039.6  156.678
 12.9676  25016.9  157.033
 13.0096  24732.7  157.239
 13.0516  25008.3  157.142
 13.0936  25168.5  157.772
 13.1356  25367.9  157.649
 13.1776  25178.8  158.062
 13.2196  25112.8  157.508
 13.2616  25184.2  158.046
 13.3036  25043.4  157.743
 13.3456  25258.6  158.611
 13.3876  25003.1  157.091
 13.4296  25188.3  157.826
 13.4716  25066  157.048
 13.5136  25228.2  157.712
 13.5556  25138.3  158.046
 13.5976  25108.3  158.094
 13.6396  25386.9  158.338
 13.6816  24741.9  156.674
 13.7236  25741.6  159.585
 13.7656  24791.7  157.146
 13.8076  25195.8  157.189
 13.8496  24882.4  157.001
 13.8916  24702.3  157.257
 13.9336  24864.9  156.993
 13.9756  24520.6  155.249
 14.0176  24684.9  156.458
 14.0596  24470  155.737
 14.1016  24309.1  155.619
 14.1436  24231.8  154.499
 14.1856  23789.2  153.377
 14.2276  23552.9  153.1
 14.2696  23826.8  153.829
 14.3116  23554.9  152.852
 14.3536  23043.2  151.356
 14.3956  23133.6  151.38
 14.4376  23401  152.03
 14.4796  23293.7  151.676
 14.5216  22829.6  150.961
 14.5636  22808.5  150.447
 14.6056  22792.4  149.971
 14.6476  22672.4  148.794
 14.6896  22352.2  148.289
 14.7316  22055.5  148.339
 14.7736  22141.3  147.765
 14.8156  21610.3  146.017
 14.8576  21724.1  146.246
 14.8996  21165.1  145.569
 14.9416  20883.2  144.592
 14.9836  21064.7  145.185
 15.0256  20869.8  143.427
 15.0676  20857  143.836
 15.1096  20716.6  142.951
 15.1516  20289.2  142.033
 15.1936  20180.9  141.074
 15.2356  20106.7  140.97
 15.2776  20065.3  140.533
 15.3196  19624.7  139.994
 15.3616  19693.3  139.989
 15.4036  19468  139.048
 15.4456  19809.8  139.903
 15.4876  19384.3  138.068
 15.5296  19170.1  137.594
 15.5716  19061.6  136.795
 15.6136  18886.5  136.501
 15.6556  18881.6  135.712
 15.6976  18872.5  135.977
 15.7396  18617.4  135.443
 15.7816  18610  134.915
 15.8236  18340.8  134.652
 15.8656  18322.6  134.376
 15.9076  18122.7  133.465
 15.9496  18013.7  135.874
 15.9916  18090.4  136.625
 16.0336  17809.2  132.404
 16.0756  17848.4  132.862
 16.1176  17711.1  132.265
 16.1596  17193.9  131.659
 16.2016  17461.2  131.411
 16.2436  17305.2  131.209
 16.2856  17088.1  129.928
 16.3276  16999.3  130.004
 16.3696  17250.5  130.78
 16.4116  17060  130.53
 16.4536  17288.7  131.183
 16.4956  16990.7  129.776
 16.5376  16932.1  129.743
 16.5796  16852.4  128.783
 16.6216  16844.6  129.069
 16.6636  16735.5  128.807
 16.7056  16919  129.375
 16.7476  16923.8  128.909
 16.7896  16880.6  129.51
 16.8316  16681.1  128.71
 16.8736  16663.9  128.904
 16.9156  16718.5  129.452
 16.9576  16560.2  129.647
 16.9996  16576.6  130.213
 17.0416  16824.7  129.494
 17.0836  16545.4  128.176
 17.1256  16289.8  127.194
 17.1676  16279.6  127.148
 17.2096  16204.4  126.729
 17.2516  16210  126.828
 17.2936  16046.5  126.211
 17.3356  15837.5  125.398
 17.3776  15760.5  125.276
 17.4196  16007.9  125.956
 17.4616  15734.4  124.792
 17.5036  15686.5  124.967
 17.5456  15489.7  124.831
 17.5876  15568.6  124.183
 17.6296  15439.2  123.47
 17.6716  15577.3  124.618
 17.7136  15304.8  123.664
 17.7556  15158.3  123.365
 17.7976  15328.4  123.793
 17.8396  15241.1  122.931
 17.8816  15245.1  123.49
 17.9236  15007.2  122.342
 17.9656  15280.2  123.998
 18.0076  15157.7  123.067
 18.0496  15228.2  122.48
 18.0916  15153  122.726
 18.1336  15254.5  123.235
 18.1756  15234.5  122.683
 18.2176  15046.1  122.145
 18.2596  15125  122.196
 18.3016  15135.9  122.501
 18.3436  15325.7  123.265
 18.3856  14929.2  121.788
 18.4276  14972.2  121.648
 18.4696  14895.2  121.431
 18.5116  14922.9  121.832
 18.5536  15109.9  122.958
 18.5956  14712.1  120.876
 18.6376  14772.9  121.537
 18.6796  14711.5  120.599
 18.7216  14773.1  121.346
 18.7636  14576.2  120.524
 18.8056  14552.3  120.368
 18.8476  14556.6  121.021
 18.8896  14609.9  120.563
 18.9316  14741.6  121.093
 18.9736  14510.6  119.832
 19.0156  14541.4  120.372
 19.0576  14604.2  119.478
 19.0996  14724.2  120.83
 19.1416  14365.6  119.607
 19.1836  14425.8  119.457
 19.2256  14284.1  119.085
 19.2676  14348.7  119.444
 19.3096  14600.6  120.741
 19.3516  14509  120.14
 19.3936  14400.6  119.768
 19.4356  14585.3  120.404
 19.4776  14452.3  119.949
 19.5196  14468.2  119.858
 19.5616  14339.6  119.592
 19.6036  14348.8  119.119
 19.6456  14435  119.6
 19.6876  14477  119.414
 19.7296  14162.1  118.563
 19.7716  14305.2  119.324
 19.8136  14297  119.504
 19.8556  14637.2  120.381
 19.8976  14540.3  120.051
 19.9396  14657.7  120.106
 19.9816  14770.8  120.875
 20.0236  14881.5  121.488
 20.0656  15046.5  122.156
 20.1076  14717.2  121.278
 20.1496  14466.8  120.25
 20.1916  14451.4  119.651
 20.2336  14272.5  118.883
 20.2756  14034.4  118.324
 20.3176  13888.8  117.453
 20.3596  13940.2  117.645
 20.4016  13870.9  117.158
 20.4436  13853.8  117.643
 20.4856  13874.5  117.519
 20.5276  13683.5  117.177
 20.5696  13689.7  116.759
 20.6116  13681.2  116.899
 20.6536  13626  116.169
 20.6956  13545.1  115.942
 20.7376  13734.6  116.989
 20.7796  13547  115.872
 20.8216  13639.6  115.972
 20.8636  13457.5  115.562
 20.9056  13433.2  115.406
 20.9476  13355.8  114.915
 20.9896  13564.4  115.673
 21.0316  13605.1  115.744
 21.0736  13425.7  115.492
 21.1156  13378.5  115.462
 21.1576  13443.5  115.787
 21.1996  13330.4  115.278
 21.2416  13338.6  115.146
 21.2836  13323.7  115.044
 21.3256  13211.5  114.645
 21.3676  13479.7  115.341
 21.4096  13382.6  115.299
 21.4516  13230.6  114.464
 21.4936  13086.5  114.086
 21.5356  13241.9  114.714
 21.5776  13358.3  115.047
 21.6196  13097.9  113.954
 21.6616  13045  113.808
 21.7036  13083.5  113.76
 21.7456  13211.3  114.39
 21.7876  13117.2  113.724
 21.8296  13027.2  113.192
 21.8716  13047.1  113.512
 21.9136  13200.7  114.385
 21.9556  13144.2  113.806
 21.9976  13032.4  113.337
 22.0396  13077.7  113.785
 22.0816  13013.8  114.061
 22.1236  13159.7  114.142
 22.1656  13037.4  113.741
 22.2076  13349.9  114.555
 22.2496  12977.9  112.975
 22.2916  13020  113.042
 22.3336  13159.3  114.382
 22.3756  12928.8  113.092
 22.4176  12969.2  113.119
 22.4596  12701  112.531
 22.5016  13027.4  113.461
 22.5436  13099.8  113.654
 22.5856  13020.1  113.561
 22.6276  12832.1  112.912
 22.6696  12938.7  113.699
 22.7116  12919.7  113.119
 22.7536  12977.7  113.351
 22.7956  13054  113.005
 22.8376  12944.7  113.061
 22.8796  12934.9  112.813
 22.9216  13157.9  114.342
 22.9636  13170.6  113.53
 23.0056  12969.4  112.796
 23.0476  13059.9  113.77
 23.0896  13097.5  113.298
 23.1316  13071.5  113.631
 23.1736  12942.1  115.848
 23.2156  13072  113.968
 23.2576  12889.6  113.29
 23.2996  12868  112.99
 23.3416  12732.1  112.908
 23.3836  12826.4  112.553
 23.4256  13002  113.441
 23.4676  12815.5  112.319
 23.5096  12777  112.831
 23.5516  12766.4  112.06
 23.5936  12809.9  113.157
 23.6356  13002.2  113.664
 23.6776  12841.1  113.183
 23.7196  12651  112.131
 23.7616  12944.9  113.122
 23.8036  12792.5  112.496
 23.8456  12795.5  112.079
 23.8876  12454.9  110.925
 23.9296  12518.8  111.702
 23.9716  12525  110.919
 24.0136  12823.3  113.147
 24.0556  12558.2  111.704
 24.0976  12539.8  111.419
 24.1396  12374.3  113.372
 24.1816  12406.6  111.913
 24.2236  12462.3  111.768
 24.2656  12337.3  110.674
 24.3076  12322.5  110.851
 24.3496  12349.1  110.872
 24.3916  12140.6  109.978
 24.4336  12115.8  110.078
 24.4756  12175.3  110.218
 24.5176  12056.2  109.32
 24.5596  11742.4  108.212
 24.6016  11685.1  108.034
 24.6436  11861.8  108.338
 24.6856  12010.7  108.775
 24.7276  11768.1  107.989
 24.7696  11820.9  108.345
 24.8116  11776.7  108.326
 24.8536  11798  108.416
 24.8956  11692.4  107.668
 24.9376  11532.9  107.107
 24.9796  11536.5  107.242
 25.0216  11419  106.806
 25.0636  11455  106.626
 25.1056  11248.2  106.364
 25.1476  11615.7  109.758
 25.1896  11595.9  108.138
 25.2316  11647  107.636
 25.2736  11463.8  106.436
 25.3156  11498.5  106.676
 25.3576  11341.4  106.369
 25.3996  11450.7  106.856
 25.4416  11488.9  107.022
 25.4836  11288.4  106.612
 25.5256  11193.1  105.52
 25.5676  11419.1  106.308
 25.6096  11227.7  105.993
 25.6516  11389.7  106.243
 25.6936  11135.8  105.367
 25.7356  11290.2  106.233
 25.7776  11376.6  106.312
 25.8196  11112.9  105.231
 25.8616  11280  105.94
 25.9036  11276.9  105.394
 25.9456  11184.8  105.564
 25.9876  11059.7  104.899
 26.0296  11412.6  106.203
 26.0716  11088.7  105.106
 26.1136  11206.7  105.608
 26.1556  11342.8  105.621
 26.1976  11113.7  105.483
 26.2396  11201.9  105.042
 26.2816  11262.3  105.945
 26.3236  11240.4  106.007
 26.3656  11128.6  105.195
 26.4076  11238.5  105.904
 26.4496  11700.9  107.611
 26.4916  11229.1  105.378
 26.5336  11132.5  105.245
 26.5756  11792.3  108.136
 26.6176  11170.5  105.311
 26.6596  10915  104.437
 26.7016  11007.1  104.632
 26.7436  10928.8  104.39
 26.7856  10894.7  104.211
 26.8276  10964.8  104.499
 26.8696  10886.5  103.999
 26.9116  10871.9  103.866
 26.9536  10777.8  103.462
 26.9956  10818.5  103.694
 27.0376  10697.5  103.324
 27.0796  10860.1  103.844
 27.1216  10541.6  102.381
 27.1636  10535.7  102.518
 27.2056  10552.9  102.484
 27.2476  10659.9  103.004
 27.2896  10684.6  103.263
 27.3316  10667  102.858
 27.3736  10602.9  102.821
 27.4156  10466.3  101.992
 27.4576  10590.6  102.832
 27.4996  10570.6  102.324
 27.5416  10565.7  102.624
 27.5836  10595.3  102.582
 27.6256  10728.1  103.399
 27.6676  10728.5  103.413
 27.7096  10517.8  102.26
 27.7516  10481.5  102.227
 27.7936  10462.4  102.312
 27.8356  10578.8  102.497
 27.8776  10369.3  101.518
 27.9196  10493.7  101.975
 27.9616  10335.7  101.396
 28.0036  10310.1  101.244
 28.0456  10401.7  101.826
 28.0876  10237.9  101.109
 28.1296  10274.6  101.067
 28.1716  10335.6  101.442
 28.2136  10344.3  101.449
 28.2556  10156.1  100.64
 28.2976  10220.8  100.945
 28.3396  10234.9  100.779
 28.3816  10236.3  100.804
 28.4236  10225.8  100.909
 28.4656  10085.5  100.246
 28.5076  10067.1  99.7892
 28.5496  10202.3  100.723
 28.5916  10256.6  100.797
 28.6336  10071.6  100.226
 28.6756  10322.8  100.657
 28.7176  10027.3  99.6426
 28.7596  10068.4  99.8584
 28.8016  10105.7  100.076
 28.8436  9906.53  99.3291
 28.8856  10002.3  99.7053
 28.9276  10096.6  100.371
 28.9696  10030.1  99.6938
 29.0116  9952.25  99.5029
 29.0536  9816.32  99.0099
 29.0956  9904.28  99.172
 29.1376  9907.53  99.1529
 29.1796  9929.78  99.3097
 29.2216  9842.45  98.7147
 29.2636  9973.16  99.4447
 29.3056  9916.26  98.9489
 29.3476  9977.96  99.7837
 29.3896  10029.1  100.143
 29.4316  10141.3  100.026
 29.4736  9966.1  99.2223
 29.5156  10033.5  99.479
 29.5576  9861.44  99.3661
 29.5996  9992.84  99.2725
 29.6416  9865.19  98.754
 29.6836  9922.07  98.9633
 29.7256  9822.25  98.7984
 29.7676  9882.74  99.0019
 29.8096  9780.27  98.4288
 29.8516  9729.67  98.5118
 29.8936  9898.63  99.4562
 29.9356  9956.65  99.4966
 29.9776  9728.73  98.507
 30.0196  9583.7  97.4275
 30.0616  9757.2  98.4105
 30.1036  9869.29  98.7894
 30.1456  9777.11  98.5711
 30.1876  9756.83  98.4458
 30.2296  9784.74  98.533
 30.2716  9829.97  98.3918
 30.3136  9872.79  99.4798
 30.3556  9753.51  98.8888
 30.3976  9588.82  99.5821
 30.4396  9801.68  97.9733
 30.4816  9691.29  97.017
 30.5236  9652.63  96.8484
 30.5656  9642.48  97.4524
 30.6076  9621.09  97.1147
 30.6496  9572.35  96.9125
 30.6916  9606.97  97.1799
 30.7336  9469.65  96.6358
 30.7756  9538.19  97.0784
 30.8176  9551.8  97.0597
 30.8596  9617.6  97.1602
 30.9016  9632.39  97.1063
 30.9436  9585.4  97.0971
 30.9856  9646.98  97.5132
 31.0276  9605.23  96.9108
 31.0696  9533.4  97.1261
 31.1116  9423.4  96.5412
 31.1536  9556.31  97.1021
 31.1956  9405.47  96.4204
 31.2376  9454.23  96.6801
 31.2796  9456.08  96.2235
 31.3216  9467.51  96.2246
 31.3636  9523.82  97.2083
 31.4056  9430.4  98.0695
 31.4476  9426.67  95.9075
 31.4896  9531.12  96.948
 31.5316  9463.59  95.9986
 31.5736  9448.46  95.7328
 31.6156  9438.38  95.712
 31.6576  9567.95  96.463
 31.6996  9460.23  95.5848
 31.7416  9369.09  96.0555
 31.7836  9451.64  95.6222
 31.8256  9383.34  95.5502
 31.8676  9531.73  96.2964
 31.9096  9276.47  95.2204
 31.9516  9178.62  95.0142
 31.9936  9268.86  95.3066
 32.0356  9384.28  95.9629
 32.0776  9411.75  95.987
 32.1196  9390.6  95.8869
 32.1616  9448.12  95.7145
 32.2036  9254.91  95.2441
 32.2456  9329.5  96.0126
 32.2876  9352.27  95.6212
 32.3296  9142.91  94.5096
 32.3716  9249.66  95.1611
 32.4136  9285.42  95.5685
 32.4556  9315.54  95.0892
 32.4976  9292.72  94.9281
 32.5396  9246.29  94.7172
 32.5816  9182.26  94.5094
 32.6236  9312.64  95.2499
 32.6656  9307.97  95.769
 32.7076  9245.4  95.0995
 32.7496  9232.8  94.7017
 32.7916  9322.57  95.1203
 32.8336  9319.17  95.1939
 32.8756  9322.82  94.9351
 32.9176  9012.64  93.8202
 32.9596  9067.34  94.184
 33.0016  9127.29  94.2894
 33.0436  9205.88  94.8729
 33.0856  9112.54  94.4494
 33.1276  9084.24  94.045
 33.1696  9114.95  94.0469
 33.2116  9263.47  95.0331
 33.2536  9144.93  94.4248
 33.2956  9148.78  94.531
 33.3376  9092.87  94.0599
 33.3796  9178.7  94.629
 33.4216  9241.66  94.5392
 33.4636  9125.53  94.0969
 33.5056  8980.15  93.5874
 33.5476  8997.6  93.668
 33.5896  9127.51  94.1138
 33.6316  8987.34  93.7076
 33.6736  8961.81  93.8209
 33.7156  8939.48  93.7479
 33.7576  9074.03  94.0676
 33.7996  9121.34  94.0789
 33.8416  8786.52  92.5168
 33.8836  9018.87  93.5036
 33.9256  8901.03  92.9608
 33.9676  9004.35  93.3934
 34.0096  8900.21  93.1619
 34.0516  8946.51  93.0461
 34.0936  8879.1  92.9628
 34.1356  8986.48  93.2549
 34.1776  8903.58  92.8446
 34.2196  8798.84  92.4723
 34.2616  8744.94  92.3229
 34.3036  8776.37  92.7422
 34.3456  8828.39  92.7681
 34.3876  8863.18  93.0069
 34.4296  8789.68  92.2079
 34.4716  8890.62  92.8903
 34.5136  8822.46  92.743
 34.5556  8786.46  92.8089
 34.5976  8856.42  93.0099
 34.6396  8770.71  92.3664
 34.6816  8892.4  92.9914
 34.7236  8865.49  92.6312
 34.7656  8904.46  93.0285
 34.8076  8685.43  92.2077
 34.8496  8702.83  92.2315
 34.8916  8753.81  92.2992
 34.9336  8855.65  92.7961
 34.9756  8685.8  91.8536
 35.0176  8653.44  92.1759
 35.0596  8707.52  92.2908
 35.1016  8661.8  91.8157
 35.1436  8839.69  92.4353
 35.1856  8565.12  91.117
 35.2276  8686.87  91.9336
 35.2696  8669.19  92.0344
 35.3116  8692.51  92.2556
 35.3536  8570.32  91.3472
 35.3956  8638.95  91.3821
 35.4376  8575.93  91.6076
 35.4796  8682.82  92.2385
 35.5216  8571.13  91.6006
 35.5636  8466.59  91.79
 35.6056  8679.96  91.9431
 35.6476  8702.3  91.953
 35.6896  8625.72  91.6443
 35.7316  8490.25  90.8913
 35.7736  8544.1  91.3789
 35.8156  8530.2  91.3017
 35.8576  8545.93  91.6442
 35.8996  8709.26  92.4772
 35.9416  8604.79  91.4236
 35.9836  8596.34  91.8301
 36.0256  8582.71  91.6701
 36.0676  8680.37  91.9511
 36.1096  8412.79  90.6588
 36.1516  8630.91  91.7135
 36.1936  8524.94  90.9929
 36.2356  8601.18  92.0452
 36.2776  8471.7  90.8229
 36.3196  8552.43  90.9283
 36.3616  8470.58  90.6286
 36.4036  8474.64  90.708
 36.4456  8528.53  91.2056
 36.4876  8395.45  90.4327
 36.5296  8455.8  90.7941
 36.5716  8492.06  91.7797
 36.6136  8612.78  91.1869
 36.6556  8533.09  90.966
 36.6976  8490.18  91.2426
 36.7396  8525.84  91.3357
 36.7816  8361.45  90.6547
 36.8236  8415.22  90.8665
 36.8656  8480.62  91.2887
 36.9076  8481.94  91.176
 36.9496  8384.41  90.6391
 36.9916  8508.81  90.9306
 37.0336  8576.74  91.615
 37.0756  8428.12  90.6074
 37.1176  8168.91  89.4716
 37.1596  8348.3  90.4536
 37.2016  8361.34  90.7536
 37.2436  8566.77  91.166
 37.2856  8355.8  90.2942
 37.3276  8463.23  90.2109
 37.3696  8326.33  90.3722
 37.4116  8390.66  90.6262
 37.4536  8276.27  89.7193
 37.4956  8252.71  89.7868
 37.5376  8299.25  91.6103
 37.5796  8326.61  91.7229
 37.6216  8106.04  88.7597
 37.6636  8218.45  89.2738
 37.7056  8327.67  90.0573
 37.7476  8198.97  88.8928
 37.7896  8196.74  89.3748
 37.8316  8046.69  88.7338
 37.8736  8372.48  90.0314
 37.9156  8235.46  89.2917
 37.9576  8210.37  89.0385
 37.9996  8062.42  87.9532
 38.0416  8205.92  89.552
 38.0836  8300.84  89.9713
 38.1256  8258.59  89.6999
 38.1676  8011.26  88.4863
 38.2096  8138.78  88.8096
 38.2516  8226.94  89.4931
 38.2936  8168.17  88.9728
 38.3356  8293.02  89.5596
 38.3776  8153.63  89.0852
 38.4196  8205.88  89.2227
 38.4616  8175.86  89.2886
 38.5036  8366.4  90.1702
 38.5456  8049.33  89.2881
 38.5876  8049.59  89.4901
 38.6296  8020.42  88.1254
 38.6716  8117.54  88.45
 38.7136  7994.77  87.7229
 38.7556  7980.41  88.1493
 38.7976  8069.41  88.5781
 38.8396  8067.18  88.8251
 38.8816  7875.36  87.7323
 38.9236  7860.43  87.4668
 38.9656  8049.11  88.4228
 39.0076  7994.48  87.5274
 39.0496  8091.34  88.5983
 39.0916  8049.77  88.0046
 39.1336  8040.24  88.3817
 39.1756  7999.06  88.2247
 39.2176  7960.73  88.5445
 39.2596  8061.07  89.0213
 39.3016  7978.81  88.0774
 39.3436  7976.7  88.5483
 39.3856  8074.14  88.5351
 39.4276  7999.83  88.62
 39.4696  8040.06  88.4674
 39.5116  7924.41  88.34
 39.5536  8233.76  90.4886
 39.5956  8141.23  89.0674
 39.6376  8175.79  89.2619
 39.6796  8075.2  88.4442
 39.7216  8086.87  88.6124
 39.7636  7977.44  88.5871
 39.8056  8087.26  88.9628
 39.8476  8012.79  88.8119
 39.8896  8081.44  88.8149
 39.9316  8014.13  88.7026
 39.9736  8216.69  89.4542
 40.0156  8077.46  88.428
 40.0576  8142  89.157
 40.0996  8142.94  88.3316
 40.1416  8142.71  89.1466
 40.1836  8099.82  88.787
 40.2256  8232.07  89.5552
 40.2676  8068.8  88.8387
 40.3096  8148.49  89.1325
 40.3516  8106.47  89.0112
 40.3936  8197.86  89.0685
 40.4356  8047.74  88.4379
 40.4776  8145.95  89.2313
 40.5196  8248.15  90.0013
 40.5616  8146.68  89.1671
 40.6036  8084.57  89.0863
 40.6456  8126.84  88.9204
 40.6876  8317.26  89.9413
 40.7296  8207.54  89.371
 40.7716  8090.09  88.9772
 40.8136  8152.94  89.2617
 40.8556  8076.98  88.9769
 40.8976  8153.74  89.3187
 40.9396  7996.52  88.8056
 40.9816  8166.94  89.025
 41.0236  8157  88.748
 41.0656  8253.55  89.8232
 41.1076  8159.5  89.0777
 41.1496  8134.87  88.848
 41.1916  8049.59  88.7079
 41.2336  8065.68  88.7855
 41.2756  8216.5  89.211
 41.3176  8054.68  88.9473
 41.3596  8141.66  89.1465
 41.4016  8114.02  89.2662
 41.4436  8148.59  89.2385
 41.4856  8161.77  89.4803
 41.5276  8155.97  89.463
 41.5696  8161.36  89.1149
 41.6116  7998.1  88.6193
 41.6536  8094.36  89.0026
 41.6956  8123.45  89.1481
 41.7376  8063.11  88.9194
 41.7796  8082.19  88.9057
 41.8216  8152.88  89.5324
 41.8636  8032.29  88.8082
 41.9056  7938.78  88.0783
 41.9476  8131.01  89.266
 41.9896  8073.71  88.72
 42.0316  8066.49  88.7616
 42.0736  8184.48  89.5516
 42.1156  8066.14  88.7115
 42.1576  8084.03  88.885
 42.1996  8095.34  89.1099
 42.2416  8143.78  88.9598
 42.2836  7939.19  87.9487
 42.3256  8015.36  88.4835
 42.3676  8008.8  88.2481
 42.4096  8023.33  88.2915
 42.4516  7996.56  88.2342
 42.4936  7990.92  88.273
 42.5356  7970.31  88.2836
 42.5776  8127.17  89.0885
 42.6196  8065.08  88.8102
 42.6616  7895.07  88.0403
 42.7036  8103.52  88.5676
 42.7456  7966.95  88.1778
 42.7876  7919.21  88.0092
 42.8296  7916.91  87.8299
 42.8716  7904.09  87.9229
 42.9136  7906.85  87.6876
 42.9556  8092.54  88.8889
 42.9976  7974.69  88.1988
 43.0396  7910.93  87.5694
 43.0816  7910.87  87.9518
 43.1236  7901.53  87.9633
 43.1656  7915.98  87.8743
 43.2076  7836.09  87.534
 43.2496  7823.82  87.2714
 43.2916  7901.48  88.079
 43.3336  7917.31  88.0018
 43.3756  7868.45  87.4826
 43.4176  7847.39  87.4429
 43.4596  7819.08  87.1452
 43.5016  7946.3  88.2645
 43.5436  7881.35  87.8007
 43.5856  7863.41  87.7281
 43.6276  7889.72  87.7661
 43.6696  7785.72  87.4483
 43.7116  7867.53  87.3982
 43.7536  7941.34  88.2995
 43.7956  7743.31  88.3975
 43.8376  7724.37  86.814
 43.8796  7728.69  86.9266
 43.9216  7814.69  87.3282
 43.9636  7861.2  87.6993
 44.0056  7781.77  87.4854
 44.0476  7707.8  86.6981
 44.0896  7821.94  87.6854
 44.1316  7793.25  87.0414
 44.1736  7742.22  86.8739
 44.2156  7787.87  86.9924
 44.2576  7636.99  86.4667
 44.2996  7690.91  86.7414
 44.3416  7679.43  86.4349
 44.3836  7626.22  86.4667
 44.4256  7629.45  86.1304
 44.4676  7691.82  86.6386
 44.5096  7645.35  86.5208
 44.5516  7553.5  85.966
 44.5936  7594.05  86.1422
 44.6356  7615.5  86.0043
 44.6776  7709.76  86.7776
 44.7196  7606.06  86.5787
 44.7616  7605.72  87.9038
 44.8036  7571.31  86.3372
 44.8456  7646.93  86.7667
 44.8876  7678.72  86.7948
 44.9296  7767.27  86.7371
 44.9716  7575.43  86.0887
 45.0136  7682.3  86.6329
 45.0556  7646.82  86.5139
 45.0976  7597.41  86.2963
 45.1396  7559.88  85.8261
 45.1816  7468.24  85.25
 45.2236  7771.01  86.8569
 45.2656  7498.72  85.8233
 45.3076  7438.9  85.265
 45.3496  7408.96  85.3982
 45.3916  7579.15  86.6404
 45.4336  7613.27  86.6755
 45.4756  7472.52  85.7336
 45.5176  7553.03  85.8046
 45.5596  7599.38  86.1916
 45.6016  7416.82  85.5674
 45.6436  7535.8  85.4267
 45.6856  7448.85  85.5762
 45.7276  7353.49  86.3611
 45.7696  7492.49  86.833
 45.8116  7494.05  86.279
 45.8536  7447.17  85.9006
 45.8956  7382.59  84.8799
 45.9376  7574.3  85.4343
 45.9796  7377.2  84.9904
 46.0216  7455.92  85.7964
 46.0636  7579.03  85.6324
 46.1056  7510.85  85.2355
 46.1476  7307.37  84.6615
 46.1896  7448.41  85.6214
 46.2316  7385.84  85.1342
 46.2736  7370.17  85.2486
 46.3156  7465.41  85.5456
 46.3576  7402.35  85.3861
 46.3996  7441.88  85.7742
 46.4416  7540.89  85.8918
 46.4836  7411.49  85.534
 46.5256  7387.96  85.3332
 46.5676  7323.41  85.0735
 46.6096  7353.22  85.185
 46.6516  7329.2  84.0889
 46.6936  7389.05  84.921
 46.7356  7431.99  85.2665
 46.7776  7353.59  85.6698
 46.8196  7337.94  85.3152
 46.8616  7264.73  84.6932
 46.9036  7293.72  84.5176
 46.9456  7270.67  84.0299
 46.9876  7291.52  84.2308
 47.0296  7226.45  84.5424
 47.0716  7241.51  84.4515
 47.1136  7178.42  83.7543
 47.1556  7181.44  83.6519
 47.1976  7354.25  84.7914
 47.2396  7222.64  84.3608
 47.2816  7235.78  84.1441
 47.3236  7272.68  84.7322
 47.3656  7346.25  85.0792
 47.4076  7290.56  84.4948
 47.4496  7233.74  84.33
 47.4916  7137.46  83.9492
 47.5336  7166.13  83.9406
 47.5756  7262.13  84.6193
 47.6176  7162.96  83.9367
 47.6596  7174.86  83.7228
 47.7016  7342.89  84.5017
 47.7436  7248.32  84.2986
 47.7856  7282.19  84.5221
 47.8276  7213.09  84.1712
 47.8696  7126.85  83.7514
 47.9116  7165.94  83.6918
 47.9536  7150.63  83.5493
 47.9956  7052.23  83.676
 48.0376  7108.97  83.7843
 48.0796  7146.03  84.1317
 48.1216  7281.1  84.7418
 48.1636  7301.94  84.4354
 48.2056  7243.64  84.3616
 48.2476  7163.77  84.2027
 48.2896  7112.5  83.8081
 48.3316  7084.39  83.587
 48.3736  7090.62  83.6469
 48.4156  7100.17  83.5572
 48.4576  7135.8  84.0599
 48.4996  7099.42  83.3032
 48.5416  7154.6  83.9523
 48.5836  7088.88  83.2404
 48.6256  7167.62  83.9181
 48.6676  6995.89  83.3997
 48.7096  7037.7  82.9316
 48.7516  7131.85  83.6325
 48.7936  7014.56  83.006
 48.8356  7054.14  83.2893
 48.8776  6993.33  83.4889
 48.9196  7212.74  84.1556
 48.9616  7036.37  83.5116
 49.0036  7126.05  84.3832
 49.0456  7074.71  84.0582
 49.0876  7028.09  83.309
 49.1296  6922.47  82.8529
 49.1716  6864.69  82.3766
 49.2136  7096.58  83.6821
 49.2556  7031.56  83.4401
 49.2976  7088.31  83.7375
 49.3396  6920.48  82.7918
 49.3816  7153.55  83.61
 49.4236  6972.28  82.9663
 49.4656  6954.22  82.8347
 49.5076  7042.39  83.1458
 49.5496  7016.64  83.0549
 49.5916  7060.68  83.2367
 49.6336  6950.97  82.7833
 49.6756  7008.24  83.356
 49.7176  6966.56  83.05
 49.7596  6921.28  82.5517
 49.8016  7036.13  83.1573
 49.8436  6894.54  82.6063
 49.8856  6921.98  82.7779
 49.9276  6937.63  82.9668
 49.9696  6945.44  83.002
 50.0116  6905.58  82.8922
 50.0536  6974.95  83.2518
 50.0956  6887.1  82.8009
 50.1376  6826.25  82.1256
 50.1796  6901.22  82.8506
 50.2216  6896.95  82.8231
 50.2636  6804.37  81.8831
 50.3056  6878.89  82.5067
 50.3476  7017.77  83.3617
 50.3896  6793.94  81.9862
 50.4316  6864.96  82.2519
 50.4736  6866.19  82.4757
 50.5156  6876.92  82.5366
 50.5576  6957.17  82.7728
 50.5996  6877.66  82.6925
 50.6416  6888.32  82.5634
 50.6836  6835.53  82.3106
 50.7256  6841.33  82.2549
 50.7676  6801.44  82.3479
 50.8096  6727.01  81.4382
 50.8516  6817.58  82.3989
 50.8936  6811.65  82.1415
 50.9356  6881.6  82.6742
 50.9776  6786.23  82.2484
 51.0196  6675.67  81.7058
 51.0616  6724.77  81.3339
 51.1036  6804.32  82.1665
 51.1456  6825.67  82.2104
 51.1876  6851.4  81.7084
 51.2296  6682.45  81.4291
 51.2716  6745.3  81.4073
 51.3136  6696.6  81.5675
 51.3556  6714.72  81.3069
 51.3976  6812.97  82.0493
 51.4396  6576.38  80.9152
 51.4816  6648.33  81.2139
 51.5236  6746.05  81.8997
 51.5656  6614.59  80.6954
 51.6076  6752  81.6124
 51.6496  6664.08  81.271
 51.6916  6644.28  81.5021
 51.7336  6702.69  81.9536
 51.7756  6708.81  81.6864
 51.8176  6710.58  81.8014
 51.8596  6641.06  81.3961
 51.9016  6836.95  82.1935
 51.9436  6655.11  82.5386
 51.9856  6580.15  82.5069
 52.0276  6610.65  81.2141
 52.0696  6642.61  81.468
 52.1116  6638.45  81.5701
 52.1536  6617.78  81.2778
 52.1956  6668.29  81.1058
 52.2376  6665.33  81.2521
 52.2796  6660.4  81.0293
 52.3216  6515.88  80.8362
 52.3636  6540.66  80.5738
 52.4056  6635.19  81.0076
 52.4476  6601.68  81.1674
 52.4896  6485.94  80.5086
 52.5316  6559.49  81.0094
 52.5736  6536.41  80.597
 52.6156  6514.27  80.8351
 52.6576  6549.3  80.5005
 52.6996  6321.92  80.026
 52.7416  6561.54  81.3982
 52.7836  6513.47  80.9884
 52.8256  6552.42  80.4549
 52.8676  6464.59  80.4869
 52.9096  6615.55  81.4986
 52.9516  6572.99  81.5929
 52.9936  6440.19  81.1676
 53.0356  6495.76  80.5213
 53.0776  6446.44  80.4753
 53.1196  6410.05  80.3734
 53.1616  6407.1  80.4024
 53.2036  6356.99  80.025
 53.2456  6345.23  80.0688
 53.2876  6363.51  79.891
 53.3296  6426.29  80.6104
 53.3716  6398.15  80.1753
 53.4136  6382.23  80.2309
 53.4556  6344.77  80.0235
 53.4976  6426.61  80.3869
 53.5396  6412.67  80.6916
 53.5816  6334.88  79.8356
 53.6236  6392.65  80.468
 53.6656  6470.44  80.6599
 53.7076  6546.15  81.0898
 53.7496  6417.42  80.4057
 53.7916  6550.15  81.3611
 53.8336  6406.22  80.3619
 53.8756  6334.77  80.4611
 53.9176  6494.83  80.8137
 53.9596  6513.15  81.6932
 54.0016  6401.21  80.3266
 54.0436  6407.05  80.5765
 54.0856  6418.03  80.0724
 54.1276  6376.47  80.0131
 54.1696  6390.73  80.273
 54.2116  6387.79  80.0121
 54.2536  6365.05  79.6873
 54.2956  6487.64  80.4368
 54.3376  6343.35  80.0785
 54.3796  6388.97  80.2621
 54.4216  6508.06  81.0555
 54.4636  6406.2  80.4343
 54.5056  6452.79  80.4933
 54.5476  6377.86  80.3557
 54.5896  6435.86  80.5495
 54.6316  6295.49  79.5283
 54.6736  6377.1  80.1186
 54.7156  6458.71  80.6546
 54.7576  6217.28  79.1248
 54.7996  6339.73  80.0539
 54.8416  6403.07  80.3915
 54.8836  6316.7  80.0532
 54.9256  6364.28  80.0982
 54.9676  6455.73  80.5268
 55.0096  6344.87  79.9018
 55.0516  6369.65  80.2991
 55.0936  6299.33  79.4864
 55.1356  6321.01  79.6627
 55.1776  6303.42  79.8157
 55.2196  6401.9  80.2802
 55.2616  6317.43  79.9013
 55.3036  6318.93  80.0731
 55.3456  6314  80.1906
 55.3876  6311.88  79.9152
 55.4296  6341.38  80.1245
 55.4716  6384.63  80.3871
 55.5136  6349.38  79.9228
 55.5556  6256.03  79.4054
 55.5976  6344.89  80.023
 55.6396  6309.25  79.6678
 55.6816  6259.31  79.3108
 55.7236  6358.1  79.9741
 55.7656  6344.3  79.6453
 55.8076  6349.89  79.6601
 55.8496  6298.74  79.771
 55.8916  6242.53  79.5116
 55.9336  6271.73  79.5108
 55.9756  6271.63  79.4023
 56.0176  6334.6  79.9539
 56.0596  6160.24  78.8307
 56.1016  6287.38  79.6453
 56.1436  6208.84  79.4094
 56.1856  6259.26  79.4729
 56.2276  6310.81  79.8592
 56.2696  6211.11  79.2229
 56.3116  6240.44  79.7815
 56.3536  6281.01  79.7009
 56.3956  6260.65  79.565
 56.4376  6238.72  79.4585
 56.4796  6382.8  80.1703
 56.5216  6305.93  80.0633
 56.5636  6392.73  80.1975
 56.6056  6219.41  79.3306
 56.6476  6325.87  79.6354
 56.6896  6285.91  79.8294
 56.7316  6172.73  79.0196
 56.7736  6304.86  79.8598
 56.8156  6269.18  79.6254
 56.8576  6242.99  79.4016
 56.8996  6172  78.8885
 56.9416  6251.79  79.7039
 56.9836  6155.8  78.6011
 57.0256  6208.98  79.2627
 57.0676  6174.25  79.1562
 57.1096  6212.21  79.193
 57.1516  6287.4  79.7392
 57.1936  6223.7  79.0773
 57.2356  6273.69  79.7188
 57.2776  6248.28  79.509
 57.3196  6304.83  80.0321
 57.3616  6252.3  79.3993
 57.4036  6271.46  79.5824
 57.4456  6204.52  79.1206
 57.4876  6353.4  79.9205
 57.5296  6193.66  79.2508
 57.5716  6123.01  78.7827
 57.6136  6186.59  79.0089
 57.6556  6233.31  79.4537
 57.6976  6330.7  79.8027
 57.7396  6105.7  78.8321
 57.7816  6127.13  79.3254
 57.8236  6153.16  79.2902
 57.8656  6238.93  79.4862
 57.9076  6203.6  79.3005
 57.9496  6210.27  79.69
 57.9916  6149.5  78.8129
 58.0336  6095.76  78.7475
 58.0756  6176.35  78.8837
 58.1176  6216.72  79.1534
 58.1596  6211.44  79.691
 58.2016  6306.17  79.507
 58.2436  6271.12  79.7085
 58.2856  6185.02  79.0781
 58.3276  6206.75  79.5926
 58.3696  6142.47  78.9287
 58.4116  6177.08  79.0122
 58.4536  6295.25  79.6481
 58.4956  6127.64  78.759
 58.5376  6169.12  78.725
 58.5796  6250.95  79.547
 58.6216  6398.22  80.285
 58.6636  6231.83  79.4583
 58.7056  6247.55  79.4108
 58.7476  6205.51  79.5942
 58.7896  6220.45  79.3294
 58.8316  6183.93  79.2002
 58.8736  6221.44  79.3396
 58.9156  6287.26  79.8033
 58.9576  6288.1  80.134
 58.9996  6356  79.7984
 59.0416  6387.46  80.3641
 59.0836  6097.71  78.4391
 59.1256  6291.4  80.3919
 59.1676  6115.02  79.5721
 59.2096  6376.98  80.5472
 59.2516  6427.82  80.4354
 59.2936  6262.74  79.7299
 59.3356  6328.79  80.024
 59.3776  6248.38  79.6859
 59.4196  6198.31  79.3016
 59.4616  6255.34  79.5226
 59.5036  6129.06  78.7516
 59.5456  6380.68  80.0365
 59.5876  6383.18  80.2487
 59.6296  6261.05  79.5478
 59.6716  6179.66  79.0876
 59.7136  6199.3  79.2013
 59.7556  6266.34  79.7675
 59.7976  6017.35  77.9093
 59.8396  6209.63  79.037
 59.8816  6196.15  79.5038
 59.9236  6122.24  78.6693
 59.9656  6236.83  79.6671
 60.0076  6178.55  78.6438
 60.0496  6276.86  79.7807
 60.0916  6390.16  79.899
 60.1336  6227.35  79.9991
 60.1756  6201.04  81.0299
 60.1996  0.0000000E+00  0.0000000E+00