File: docs/examples/opeando_xrd/IS17_D/Data/IS17_D/17_Db_f00054.xye
# /beamlines/bl04/projects/cycle2025-II/20250340211-lsimonelli/DATA/IS17_D/17_Db_f00054.xye : mythproc.py merge -s 0.006 -l 0.5 -f /beamlines/bl04/inhouse/ff/FlatField/ff_20Nov2024rod8mm60s_17keV.raw -b True -c true -o xye /beamlines/bl04/projects/cycle2025-II/20250340211-lsimonelli/DATA/IS17_D/17_Db_00054.dat
# IsMon = [6774160, 6779345, 6778109]  IsPos = [-1.4999, -2.4884, -3.4988]
# Wave = 0.4962  CalPath /beamlines/bl04/projects/cycle2025-II/20250340211-lsimonelli/DATA/Align/Si_Pos1_25keV_f00001.cal
# Date = 2025-09-24_08:43:41 Dt = 4.8000  Bin = 0.0060  <imon> = 6777205 +/- 2211 (Min/Max) 6774160 / 6779345
# icurr 251.7312  mocoIn 1.7185E-05  mocoOut 0.8062  i15 7.09802e+06  imon 6.7772e+06  i7 4.6667  iEMpd_timer 4.8000  iEMpd_1 3.5929E-08  iEMpd_2 7.7929E-08  iEMpd_3 1.7519E-08  iEMpd_4 4.7625E-08  iEMhp_timer 4.8000  iEMhp_1 4.9201E-06  iEMhp_2 -2.6368E-08  iEMhp_3 -2.4314E-08  iEMhp_4 -2.1239E-08
#      9776
 1.5856  44752.5  217.275
 1.6276  51602.6  229.308
 1.6696  57438.8  241.075
 1.7116  64841.5  256.64
 1.7536  71735  268.788
 1.7956  76224.5  277.764
 1.8376  73224.2  272.673
 1.8796  63235.7  251.532
 1.9216  52497.7  230.095
 1.9636  45121.5  212.444
 2.0056  41353.9  202.593
 2.0476  38295.1  197.094
 2.0896  37025  192.661
 2.1316  35607.4  188.029
 2.1736  34350.5  186.145
 2.2156  34963  186.291
 2.2576  33913.8  184.133
 2.2996  32495.4  180.902
 2.3416  32586.5  179.71
 2.3836  32095.1  178.459
 2.4256  31133.4  176.338
 2.4676  30888.2  175.393
 2.5096  30182  173.433
 2.5516  29510.4  175.381
 2.5936  29031.9  170.477
 2.6356  28398.4  169.323
 2.6776  28510.8  168.539
 2.7196  28111.2  167.844
 2.7616  27893.8  166.982
 2.8036  27660.6  166.451
 2.8456  27510.5  166.652
 2.8876  26872.7  164.55
 2.9296  26279.6  162.871
 2.9716  26292.6  162.397
 3.0136  25961.3  161.429
 3.0556  26123.9  162.328
 3.0976  26175.5  161.389
 3.1396  25652.7  160.5
 3.1816  25372.1  159.558
 3.2236  25422.1  159.714
 3.2656  25095.5  157.704
 3.3076  24967.4  158.793
 3.3496  25122.3  158.194
 3.3916  25596.3  159.503
 3.4336  25893.4  161.029
 3.4756  26220.7  161.987
 3.5176  27223.7  164.803
 3.5596  26881.6  166.253
 3.6016  26882.2  163.838
 3.6436  25857.4  161.799
 3.6856  25485  158.921
 3.7276  24444  156.724
 3.7696  24304.9  156.479
 3.8116  23717.2  154.464
 3.8536  24266.7  156.18
 3.8956  24171.2  155.68
 3.9376  23808.6  154.78
 3.9796  23784  154.185
 4.0216  23794.9  153.241
 4.0636  23985.9  155.334
 4.1056  23809.3  154.421
 4.1476  24123.4  155.77
 4.1896  24316.2  156.229
 4.2316  24387.7  156.29
 4.2736  24776.4  157.331
 4.3156  25041.5  158.398
 4.3576  25619  160.116
 4.3996  25822  161.028
 4.4416  26503.5  162.721
 4.4836  26796.2  163.772
 4.5256  27429.4  166.33
 4.5676  27302.8  166.191
 4.6096  27848.5  166.489
 4.6516  28309.5  167.539
 4.6936  28152.5  167.92
 4.7356  28485.7  168.729
 4.7776  28293.3  167.98
 4.8196  28293  168.656
 4.8616  27526.4  165.828
 4.9036  27482.9  165.429
 4.9456  27299.2  165.531
 4.9876  26755  163.77
 5.0296  26974.3  164.277
 5.0716  26743.3  164.338
 5.1136  26995.8  164.834
 5.1556  27084.8  164.547
 5.1976  27553.8  165.977
 5.2396  27526.7  165.573
 5.2816  27766.8  166.782
 5.3236  27688  166.235
 5.3656  27429.2  166.394
 5.4076  26927.1  165.005
 5.4496  27012.3  164.752
 5.4916  27016.7  164.523
 5.5336  27036.4  164.585
 5.5756  27072.3  164.728
 5.6176  27270.6  164.754
 5.6596  27331.8  165.932
 5.7016  27334.2  165.196
 5.7436  27606.9  166.301
 5.7856  27483.2  165.992
 5.8276  27640.7  166.174
 5.8696  27901.8  167.136
 5.9116  27731.5  167.227
 5.9536  28219  168.434
 5.9956  28213.8  167.806
 6.0376  28416.1  169.029
 6.0796  28586.9  169.366
 6.1216  28516.7  169.354
 6.1636  28875.3  169.469
 6.2056  28544.3  169.166
 6.2476  29055.3  170.551
 6.2896  29248.2  170.792
 6.3316  29303.6  171.137
 6.3736  29274.7  170.933
 6.4156  29570  171.687
 6.4576  29471.5  171.014
 6.4996  29660.1  172.04
 6.5416  29749.2  172.429
 6.5836  29863.8  172.998
 6.6256  29856.4  172.531
 6.6676  30274.2  173.298
 6.7096  30547.1  174.963
 6.7516  30642.6  174.882
 6.7936  30762.7  174.63
 6.8356  30801.6  174.82
 6.8776  31010  176.216
 6.9196  31136.3  176.98
 6.9616  31719.4  178.071
 7.0036  31898.2  178.231
 7.0456  31934.1  177.62
 7.0876  31990.6  179.48
 7.1296  32012.7  178.666
 7.1716  32095.1  178.438
 7.2136  31771  177.305
 7.2556  32055.3  178.262
 7.2976  32096.5  178.862
 7.3396  31815.1  178.303
 7.3816  32004.7  179.053
 7.4236  32112.3  178.651
 7.4656  32553.1  179.315
 7.5076  32664.1  179.784
 7.5496  32343.5  179.438
 7.5916  32651.9  180.34
 7.6336  32782.5  180.584
 7.6756  32893.5  180.74
 7.7176  33467  182.634
 7.7596  33326  183.468
 7.8016  34007.7  187.613
 7.8436  33618.5  183.148
 7.8856  33532.8  182.537
 7.9276  34354  185.149
 7.9696  34739  186.489
 8.0116  35410.7  186.832
 8.0536  35726.4  187.904
 8.0956  35685.9  188.986
 8.1376  35998.2  189.284
 8.1796  36428.9  190.948
 8.2216  37152.2  191.573
 8.2636  37109.5  191.716
 8.3056  36888.1  191.915
 8.3476  37643.4  193.189
 8.3896  37583.4  193.119
 8.4316  37741.2  193.691
 8.4736  38139.5  194.173
 8.5156  37433.8  192.647
 8.5576  37124.8  192.815
 8.5996  36848.4  190.981
 8.6416  36908.3  192.39
 8.6836  36569  191.342
 8.7256  37040.7  192.016
 8.7676  37068.5  195.034
 8.8096  37704.7  193.991
 8.8516  37657.4  193.426
 8.8936  36904.4  191.443
 8.9356  37201.5  192.551
 8.9776  37147.7  192.485
 9.0196  37265.2  192.468
 9.0616  37175.1  191.723
 9.1036  35964.4  189.736
 9.1456  36176.2  189.622
 9.1876  36555.9  190.568
 9.2296  36088.6  188.772
 9.2716  35861.6  188.224
 9.3136  35960  188.479
 9.3556  36323.5  189.401
 9.3976  35262.4  187.136
 9.4396  35378  187.355
 9.4816  35115  186.511
 9.5236  34700.3  185.297
 9.5656  34600.6  185.394
 9.6076  33827.4  183.828
 9.6496  34021.6  184.254
 9.6916  33896.4  183.862
 9.7336  34306.6  184.756
 9.7756  33713.1  184.398
 9.8176  33765.6  184.063
 9.8596  33585.7  181.996
 9.9016  33194.9  180.933
 9.9436  32842.9  179.877
 9.9856  32560.7  179.376
 10.0276  32155  179.336
 10.0696  32537.1  179.43
 10.1116  31666.5  177.266
 10.1536  31474.2  176.888
 10.1956  30857.4  174.759
 10.2376  30960.1  174.567
 10.2796  30765.5  174.112
 10.3216  30311.6  173.117
 10.3636  30149.4  172.683
 10.4056  29567  171.401
 10.4476  29843.8  171.816
 10.4896  29942.3  171.547
 10.5316  29006.8  169.569
 10.5736  29185.8  170.5
 10.6156  29162.8  170.19
 10.6576  28923.5  168.058
 10.6996  28398.8  167.223
 10.7416  28252.8  167.008
 10.7836  27685  165.976
 10.8256  27564.7  166.044
 10.8676  27775.6  166.213
 10.9096  27339.3  164.951
 10.9516  27023.3  162.931
 10.9936  27019.6  163.138
 11.0356  26821.2  163.136
 11.0776  26664.7  162.001
 11.1196  26229.8  161.433
 11.1616  25891.5  160.057
 11.2036  26344.8  161.302
 11.2456  26072.7  161.171
 11.2876  26321.9  161.683
 11.3296  25644.1  159.491
 11.3716  26253.9  161.064
 11.4136  26089.1  161.447
 11.4556  25968.6  160.73
 11.4976  26906  162.579
 11.5396  27242.2  163.763
 11.5816  27379.9  164.633
 11.6236  26819.3  163.166
 11.6656  26734.4  162.052
 11.7076  25937.4  160.455
 11.7496  25473.2  163.035
 11.7916  25351.1  157.886
 11.8336  24890.3  157.334
 11.8756  24694.7  156.268
 11.9176  24863.5  156.467
 11.9596  24902.3  156.777
 12.0016  24554.5  156.439
 12.0436  24863.7  156.876
 12.0856  24305  155.602
 12.1276  24378  155.778
 12.1696  24318.6  154.706
 12.2116  24296.2  154.627
 12.2536  24119.3  154.879
 12.2956  23887.3  153.479
 12.3376  24298  155.011
 12.3796  24131.5  154.958
 12.4216  24168.7  154.269
 12.4636  23791.8  154
 12.5056  23885.9  153.568
 12.5476  24203.3  154.102
 12.5896  23908.8  153.797
 12.6316  24156.4  154.751
 12.6736  23816.2  154.142
 12.7156  24108.4  154.929
 12.7576  24015  154.873
 12.7996  24134.1  153.894
 12.8416  23887.1  154.165
 12.8836  24129.7  154.766
 12.9256  24545.2  155.13
 12.9676  24410.2  155.088
 13.0096  24768.2  157.369
 13.0516  24654.4  156.021
 13.0936  24827.6  156.993
 13.1356  25146.7  156.938
 13.1776  24450.2  155.77
 13.2196  24741.5  156.327
 13.2616  24497.7  155.874
 13.3036  24644.3  156.308
 13.3456  24400.9  155.874
 13.3876  24963.6  156.954
 13.4296  24464.8  155.532
 13.4716  24726.7  155.983
 13.5136  24664.6  155.915
 13.5556  24571.2  156.248
 13.5976  24687.7  156.791
 13.6396  24744.9  156.327
 13.6816  24762.8  156.862
 13.7236  25077.5  157.443
 13.7656  26786.4  163.172
 13.8076  27122.5  162.864
 13.8496  26904.8  162.853
 13.8916  25092.5  158.436
 13.9336  24333.4  155.268
 13.9756  24307.4  154.574
 14.0176  23936  154.06
 14.0596  23993.8  154.172
 14.1016  23874.3  154.227
 14.1436  23933.9  153.552
 14.1856  23363.6  151.989
 14.2276  23333.8  152.391
 14.2696  23533.1  152.883
 14.3116  22693.9  150.033
 14.3536  22629.8  149.997
 14.3956  22498.3  149.274
 14.4376  22725.9  149.822
 14.4796  22560.5  149.273
 14.5216  22373.1  149.443
 14.5636  22343.7  148.912
 14.6056  22326.9  148.415
 14.6476  22091.5  146.868
 14.6896  21934.4  146.893
 14.7316  21592  146.786
 14.7736  21324.4  145.012
 14.8156  21231.4  144.712
 14.8576  21181.5  144.409
 14.8996  20945.7  144.792
 14.9416  20490.7  143.238
 14.9836  20357.7  142.752
 15.0256  20019.7  140.461
 15.0676  19932  140.461
 15.1096  19703.3  139.397
 15.1516  19361.6  138.727
 15.1936  19446.6  138.47
 15.2356  19059.8  137.361
 15.2776  19245  137.617
 15.3196  18748.7  136.818
 15.3616  18610  136.074
 15.4036  18494.1  135.511
 15.4456  19108  137.388
 15.4876  18410.4  134.542
 15.5296  18362.1  134.645
 15.5716  18078  133.21
 15.6136  18085.4  133.557
 15.6556  18125.2  132.953
 15.6976  17766.2  131.92
 15.7396  17720  132.133
 15.7816  17592.5  131.175
 15.8236  17584.3  131.834
 15.8656  17601.8  131.693
 15.9076  17254.8  130.209
 15.9496  18216.3  136.653
 15.9916  17648.6  134.911
 16.0336  17848.6  132.521
 16.0756  17707  132.331
 16.1176  17425.8  131.346
 16.1596  17163.3  131.537
 16.2016  17001.3  129.676
 16.2436  16748.2  129.091
 16.2856  17090.1  129.906
 16.3276  16764.4  129.113
 16.3696  17040  129.992
 16.4116  16816.7  129.568
 16.4536  16790.8  129.285
 16.4956  16756.4  128.889
 16.5376  16524.2  128.181
 16.5796  16717.4  128.285
 16.6216  16712.1  128.536
 16.6636  16340  127.282
 16.7056  16633.1  128.287
 16.7476  16578.4  127.598
 16.7896  16583.6  128.363
 16.8316  16563.9  128.273
 16.8736  16639.1  128.82
 16.9156  16397.8  128.211
 16.9576  16331.2  128.729
 16.9996  16338.9  129.231
 17.0416  16529.6  128.359
 17.0836  16632.9  128.521
 17.1256  16253.5  127.055
 17.1676  16315.9  127.248
 17.2096  16269.7  126.971
 17.2516  16194.2  126.462
 17.2936  16001.5  126.065
 17.3356  15884.2  125.591
 17.3776  15955.5  126.059
 17.4196  15747.5  124.927
 17.4616  15610.5  124.289
 17.5036  15392.2  123.773
 17.5456  15278.7  123.963
 17.5876  15315.6  123.16
 17.6296  15277  122.839
 17.6716  15253.9  123.324
 17.7136  15078.6  122.753
 17.7556  14958.7  122.545
 17.7976  15043.2  122.626
 17.8396  14893.8  121.521
 17.8816  14707.9  121.312
 17.9236  14794.9  121.463
 17.9656  14623.4  121.278
 18.0076  14708.1  121.221
 18.0496  14731.7  120.458
 18.0916  14651.5  120.679
 18.1336  14552.3  120.363
 18.1756  14760.2  120.768
 18.2176  14393.4  119.466
 18.2596  14396.4  119.2
 18.3016  14501.7  119.908
 18.3436  14475.3  119.795
 18.3856  14460.6  119.88
 18.4276  14385.8  119.251
 18.4696  14316.8  119.048
 18.5116  14413  119.715
 18.5536  14327.7  119.727
 18.5956  14212  118.802
 18.6376  14128.2  118.849
 18.6796  14104  118.059
 18.7216  14226.6  119.071
 18.7636  14249.1  119.178
 18.8056  14065.4  118.326
 18.8476  13832.5  117.963
 18.8896  14008.6  118.053
 18.9316  14168.3  118.71
 18.9736  14040.2  117.869
 19.0156  14011.7  118.157
 19.0576  14175  117.698
 19.0996  14159  118.336
 19.1416  14072.5  118.385
 19.1836  13927.7  117.374
 19.2256  13820.3  117.138
 19.2676  13977.3  117.886
 19.3096  14033.6  118.365
 19.3516  13856.2  117.58
 19.3936  13729.4  116.933
 19.4356  14054.2  118.199
 19.4776  13849.6  117.418
 19.5196  13844  117.255
 19.5616  13733.5  117.039
 19.6036  13834.7  116.959
 19.6456  13813.3  116.988
 19.6876  13910.3  117.033
 19.7296  14068.1  118.171
 19.7716  13772.5  117.08
 19.8136  14124.4  118.775
 19.8556  14400.7  119.405
 19.8976  14176.3  118.53
 19.9396  14245.2  118.399
 19.9816  14476.7  119.61
 20.0236  14823.5  121.232
 20.0656  14832.9  121.273
 20.1076  15102.6  122.865
 20.1496  14830.2  121.742
 20.1916  14668.5  120.593
 20.2336  14330  119.108
 20.2756  14031.9  118.306
 20.3176  13837.7  117.225
 20.3596  13693.8  116.599
 20.4016  13756.1  116.663
 20.4436  13482  116.054
 20.4856  13698  116.78
 20.5276  13408  115.995
 20.5696  13649.7  116.488
 20.6116  13413.6  115.746
 20.6536  13408.6  115.236
 20.6956  13329.5  115.026
 20.7376  13183.5  114.602
 20.7796  13237.5  114.529
 20.8216  13296.2  114.502
 20.8636  13185.8  114.402
 20.9056  13175.7  114.284
 20.9476  13231.8  114.382
 20.9896  13210.9  114.155
 21.0316  13141.3  113.741
 21.0736  13204  114.547
 21.1156  13004  113.826
 21.1576  13138  114.451
 21.1996  12979.8  113.75
 21.2416  13119.7  114.191
 21.2836  13086.8  114.019
 21.3256  12977.5  113.626
 21.3676  13127.7  113.807
 21.4096  12958.4  113.394
 21.4516  12825.8  112.688
 21.4936  12646.8  112.148
 21.5356  12695.9  112.32
 21.5776  13098.6  113.922
 21.6196  12837.6  112.824
 21.6616  12742.1  112.488
 21.7036  12827.2  112.631
 21.7456  12952  113.253
 21.7876  12770.4  112.219
 21.8296  12688  111.693
 21.8716  12758  112.239
 21.9136  12925.5  113.174
 21.9556  12742.3  112.046
 21.9976  12648.6  111.664
 22.0396  12794.4  112.559
 22.0816  12543.2  111.967
 22.1236  12700.5  112.133
 22.1656  12733.8  112.423
 22.2076  12470.2  110.702
 22.2496  12514.6  110.926
 22.2916  12416.3  110.379
 22.3336  12483.5  111.392
 22.3756  12482.7  111.111
 22.4176  12445.3  110.798
 22.4596  12157.6  110.094
 22.5016  12456.4  110.943
 22.5436  12554.1  111.255
 22.5856  12562.6  111.536
 22.6276  12631.2  111.973
 22.6696  12509.2  111.786
 22.7116  12407.1  110.841
 22.7536  12488.7  111.184
 22.7956  12400.2  110.126
 22.8376  12268.9  110.06
 22.8796  12215.2  109.615
 22.9216  12559.6  111.699
 22.9636  12191.4  109.212
 23.0056  12320.8  109.927
 23.0476  12345.5  110.602
 23.0896  12677.5  111.454
 23.1316  12363.9  110.501
 23.1736  12672.2  114.836
 23.2156  12871.4  113.089
 23.2576  13087.1  114.18
 23.2996  12712.7  112.297
 23.3416  12759.5  113.048
 23.3836  12576.4  111.457
 23.4256  13061.8  113.721
 23.4676  12737  111.975
 23.5096  12841.8  113.117
 23.5516  12727.9  111.899
 23.5936  12668.3  112.553
 23.6356  12893.7  113.208
 23.6776  12697.7  112.547
 23.7196  12598.1  111.688
 23.7616  12720.8  112.144
 23.8036  12849.4  112.772
 23.8456  12570.6  111.091
 23.8876  12556.8  111.391
 23.9296  12437.1  111.341
 23.9716  12378.4  110.286
 24.0136  12417.1  111.365
 24.0556  12435  111.158
 24.0976  12328.1  110.494
 24.1396  12203.9  112.574
 24.1816  12459.5  112.135
 24.2236  12236.5  110.739
 24.2656  12190.5  110.006
 24.3076  12088.6  109.816
 24.3496  12147.4  109.952
 24.3916  12214.1  110.312
 24.4336  12116.9  110.078
 24.4756  12088.6  109.833
 24.5176  12079.6  109.407
 24.5596  12023.5  109.285
 24.6016  11799.2  108.557
 24.6436  12043.7  109.187
 24.6856  11940.2  108.443
 24.7276  11600.7  107.219
 24.7696  11696.1  107.765
 24.8116  11552.5  107.28
 24.8536  11733.1  108.125
 24.8956  11739.1  107.875
 24.9376  11587.7  107.111
 24.9796  11512.4  107.123
 25.0216  11435.2  106.889
 25.0636  11475.2  106.724
 25.1056  11209.3  106.171
 25.1476  11531.6  109.343
 25.1896  11234.4  106.423
 25.2316  11263.6  105.848
 25.2736  11345.1  105.871
 25.3156  11188.6  105.22
 25.3576  11252.7  105.954
 25.3996  11249.3  105.93
 25.4416  11079.7  105.096
 25.4836  10853.7  104.536
 25.5256  11018.2  104.685
 25.5676  11091.7  104.765
 25.6096  10965.3  104.745
 25.6516  11106.5  104.915
 25.6936  11100.2  105.208
 25.7356  10995.3  104.84
 25.7776  11053.4  104.714
 25.8196  10742.9  103.472
 25.8616  10909.1  104.199
 25.9036  10926  103.735
 25.9456  10955.3  104.47
 25.9876  10869.8  104.13
 26.0296  11017.1  104.342
 26.0716  10928.9  104.359
 26.1136  10977.4  104.515
 26.1556  10934.5  103.695
 26.1976  10796.7  103.967
 26.2396  10845  103.353
 26.2816  10847.9  103.98
 26.3236  10907.7  104.413
 26.3656  11021.6  104.686
 26.4076  10860.3  104.123
 26.4496  11103.1  104.877
 26.4916  11147.1  104.974
 26.5336  11583.7  107.358
 26.5756  11682.4  107.685
 26.6176  11042.5  104.713
 26.6596  11014.3  104.893
 26.7016  10794.1  103.6
 26.7436  10958.9  104.531
 26.7856  10656.5  103.054
 26.8276  10717.3  103.313
 26.8696  10666.6  102.941
 26.9116  10648  102.792
 26.9536  10553.8  102.372
 26.9956  10455  101.933
 27.0376  10602.5  102.884
 27.0796  10674.3  102.94
 27.1216  10528.3  102.311
 27.1636  10462.9  102.153
 27.2056  10371.3  101.592
 27.2476  10491.9  102.169
 27.2896  10455.6  102.104
 27.3316  10458.2  101.837
 27.3736  10379.9  101.726
 27.4156  10384.2  101.588
 27.4576  10283.1  101.317
 27.4996  10501.5  101.987
 27.5416  10407.4  101.84
 27.5836  10274  101.019
 27.6256  10340.7  101.529
 27.6676  10342.3  101.522
 27.7096  10256.5  100.984
 27.7516  10221.2  100.955
 27.7936  10524.2  102.601
 27.8356  10404.6  101.604
 27.8776  10502  102.158
 27.9196  10163.5  100.347
 27.9616  10233.2  100.9
 28.0036  10209.3  100.735
 28.0456  10046.3  100.068
 28.0876  10060.6  100.231
 28.1296  10124.7  100.385
 28.1716  10108.3  100.323
 28.2136  10226.6  100.863
 28.2556  10060.1  100.162
 28.2976  9925.5  99.4776
 28.3396  10005.3  99.6361
 28.3816  10122.9  100.236
 28.4236  9957.24  99.5616
 28.4656  10021.5  99.9214
 28.5076  9934.93  99.1371
 28.5496  9881.16  99.1113
 28.5916  9943.03  99.2426
 28.6336  9986.33  99.8045
 28.6756  9923.47  98.6875
 28.7176  9959.56  99.4199
 28.7596  9846.62  98.7509
 28.8016  9901.25  99.0574
 28.8436  9685.67  98.2088
 28.8856  9931.57  99.3066
 28.9276  9877.33  99.2766
 28.9696  9719.39  98.123
 29.0116  9662.32  98.0342
 29.0536  9712.86  98.4986
 29.0956  9813.71  98.7044
 29.1376  9799.11  98.6049
 29.1796  9772.45  98.5238
 29.2216  9715.51  98.072
 29.2636  9779.62  98.4703
 29.3056  9782.8  98.2726
 29.3476  9794.36  98.8575
 29.3896  9708.74  98.5391
 29.4316  9648.42  97.5526
 29.4736  9489.23  96.8087
 29.5156  9535.28  96.9651
 29.5576  9585.21  97.9538
 29.5996  9432.2  96.4376
 29.6416  9529.83  97.05
 29.6836  9532.29  96.9951
 29.7256  9421.97  96.991
 29.7676  9469.55  96.9005
 29.8096  9278.89  95.861
 29.8516  9272.3  96.1578
 29.8936  9380.75  96.8094
 29.9356  9408.71  96.7096
 29.9776  9363.44  96.6224
 30.0196  9372.06  96.0654
 30.0616  9401.62  96.5898
 30.1036  9370.33  96.2557
 30.1456  9213.69  95.6781
 30.1876  9279.83  95.9962
 30.2296  9298.53  96.0452
 30.2716  9428.09  96.3505
 30.3136  9461.22  97.3766
 30.3556  9595.86  98.0794
 30.3976  9410.11  98.6097
 30.4396  9855.75  98.2536
 30.4816  9599.86  96.5709
 30.5236  9687  97.0095
 30.5656  9523.9  96.8401
 30.6076  9541.44  96.3298
 30.6496  9546.4  96.7819
 30.6916  9436.37  96.3021
 30.7336  9482.4  96.6935
 30.7756  9551.23  97.1339
 30.8176  9439.16  96.4824
 30.8596  9591.22  96.9926
 30.9016  9505.15  96.9275
 30.9436  9789.54  98.1113
 30.9856  9721.1  97.8739
 31.0276  9421.44  95.9912
 31.0696  9468.19  96.7947
 31.1116  9348.31  96.1502
 31.1536  9337.12  95.9703
 31.1956  9430.26  96.5263
 31.2376  9151.54  95.1197
 31.2796  9432.42  96.1038
 31.3216  9392.96  95.8227
 31.3636  9311.94  96.1075
 31.4056  9372.06  97.7368
 31.4476  9405.57  95.8021
 31.4896  9417.57  96.3706
 31.5316  9390.34  95.6234
 31.5736  9379.6  95.4092
 31.6156  9466.62  95.8521
 31.6576  9281.88  94.999
 31.6996  9342.84  94.9719
 31.7416  9223.04  95.4487
 31.7836  9384.86  95.2803
 31.8256  9408.42  95.6699
 31.8676  9381.39  95.5243
 31.9096  9334.03  95.6509
 31.9516  9092.81  94.5737
 31.9936  9159.74  94.729
 32.0356  9334.62  95.6853
 32.0776  9261.3  95.2125
 32.1196  9490.6  96.4893
 32.1616  9426.28  95.5968
 32.2036  9345.8  95.7173
 32.2456  9204.34  95.3667
 32.2876  9219.57  94.9412
 32.3296  9097.57  94.2692
 32.3716  9032.86  94.0466
 32.4136  8982.96  93.9836
 32.4556  9186.37  94.4268
 32.4976  9092.86  93.8607
 32.5396  9035.75  93.6203
 32.5816  9051.18  93.8369
 32.6236  9104.06  94.1753
 32.6656  9203.84  95.2268
 32.7076  8985.9  93.7538
 32.7496  8902.09  92.9916
 32.7916  9017.38  93.5515
 32.8336  9026.55  93.6868
 32.8756  9069.38  93.6345
 32.9176  8823.99  92.8413
 32.9596  8943.86  93.5443
 33.0016  8964.66  93.4182
 33.0436  9038.15  93.9834
 33.0856  9037.75  94.0735
 33.1276  8773.8  92.414
 33.1696  9010.75  93.483
 33.2116  8924.45  93.2682
 33.2536  9028.51  93.8109
 33.2956  9018.49  93.8476
 33.3376  8902.65  92.9824
 33.3796  9005.86  93.7371
 33.4216  8901.3  92.7789
 33.4636  8975.65  93.3234
 33.5056  8784.71  92.5629
 33.5476  8844.77  92.8643
 33.5896  8922.21  93.0556
 33.6316  8931.74  93.4201
 33.6736  8757.84  92.7551
 33.7156  8806.06  93.0396
 33.7576  8932.84  93.3465
 33.7996  8912.21  92.9977
 33.8416  8627.55  91.6873
 33.8836  8653.81  91.5981
 33.9256  8844.65  92.6634
 33.9676  8915.06  92.9312
 34.0096  8768.32  92.4801
 34.0516  8620.31  91.3262
 34.0936  8653.42  91.7774
 34.1356  8809.73  92.3429
 34.1776  8597.04  91.2102
 34.2196  8666.29  91.7712
 34.2616  8581.16  91.4473
 34.3036  8724.83  92.4613
 34.3456  8650.75  91.8221
 34.3876  8733.78  92.2363
 34.4296  8634.5  91.4003
 34.4716  8735.87  92.0847
 34.5136  8648.29  91.8196
 34.5556  8643.22  92.0384
 34.5976  8740.23  92.3689
 34.6396  8712.27  91.9248
 34.6816  8664.71  91.7861
 34.7236  8651.94  91.4945
 34.7656  8672.62  91.8181
 34.8076  8489.91  91.1735
 34.8496  8536.2  91.267
 34.8916  8733.22  92.1779
 34.9336  8634.76  91.638
 34.9756  8662.04  91.7063
 35.0176  8634.45  92.0876
 35.0596  8688.73  92.2058
 35.1016  8663.93  91.8241
 35.1436  8857.23  92.5215
 35.1856  8658.86  91.601
 35.2276  8640.3  91.6836
 35.2696  8613.69  91.7384
 35.3116  8494.68  91.1971
 35.3536  8543.42  91.1592
 35.3956  8556.42  90.9472
 35.4376  8517.99  91.3109
 35.4796  8597.94  91.7676
 35.5216  8484.68  91.1327
 35.5636  8296.62  90.8566
 35.6056  8439.66  90.6535
 35.6476  8511.89  90.9398
 35.6896  8481.35  90.8672
 35.7316  8375.01  90.275
 35.7736  8354.11  90.3504
 35.8156  8529.91  91.2945
 35.8576  8420.22  90.9595
 35.8996  8529.15  91.5163
 35.9416  8392.95  90.2823
 35.9836  8453.64  90.9541
 36.0256  8540.23  91.4375
 36.0676  8528.54  91.1093
 36.1096  8440.06  90.7952
 36.1516  8598.03  91.5319
 36.1936  8562.69  91.1753
 36.2356  8381.84  90.8682
 36.2776  8331.06  90.0695
 36.3196  8398.14  90.0943
 36.3616  8381.99  90.1454
 36.4036  8398.25  90.2977
 36.4456  8472.63  90.9105
 36.4876  8289.27  89.8562
 36.5296  8351.77  90.2363
 36.5716  8367.52  91.0984
 36.6136  8178.97  88.8539
 36.6556  8330.98  89.8712
 36.6976  8019.04  88.6644
 36.7396  8121.06  88.9593
 36.7816  8127.96  89.3707
 36.8236  8143.74  89.3782
 36.8656  7951.73  88.388
 36.9076  7963.66  88.3359
 36.9496  7975.64  88.3941
 36.9916  8076.88  88.5828
 37.0336  8305.94  90.1451
 37.0756  8053.82  88.5633
 37.1176  7927.98  88.1332
 37.1596  8003.41  88.5585
 37.2016  7986.6  88.6874
 37.2436  7988.98  88.0204
 37.2856  8053.45  88.6352
 37.3276  8070.84  88.0877
 37.3696  8109.9  89.1782
 37.4116  8054.55  88.7827
 37.4536  8024.68  88.4866
 37.4956  7921.93  87.9655
 37.5376  8204.81  91.1252
 37.5796  8149.32  90.7413
 37.6216  8161.26  89.0734
 37.6636  8278.14  89.6036
 37.7056  8113.63  88.8979
 37.7476  8352.38  89.7243
 37.7896  8039.39  88.5311
 37.8316  8040.98  88.7021
 37.8736  8219.31  89.1974
 37.9156  8172.07  88.9494
 37.9576  8185.96  88.9278
 37.9996  8033.82  87.8114
 38.0416  8013.14  88.4938
 38.0836  8194.51  89.4025
 38.1256  8165.41  89.2156
 38.1676  7979.18  88.3098
 38.2096  8145.9  88.8307
 38.2516  8036.78  88.4529
 38.2936  8176.37  89.0163
 38.3356  8041.49  88.2118
 38.3776  8058.63  88.5599
 38.4196  8128.91  88.8001
 38.4616  7950.91  88.0674
 38.5036  8276.41  89.6932
 38.5456  7912.14  88.5179
 38.5876  8073.11  89.4387
 38.6296  8078.85  88.4338
 38.6716  8034.95  87.9919
 38.7136  8026.2  87.8949
 38.7556  7937.61  87.916
 38.7976  8194.37  89.2484
 38.8396  8045.69  88.8996
 38.8816  7904.33  87.9105
 38.9236  7984.77  88.1557
 38.9656  8095.18  88.6719
 39.0076  8133.55  88.2767
 39.0496  8163.37  89.0054
 39.0916  8108.75  88.3442
 39.1336  7950.04  87.877
 39.1756  8015.69  88.3046
 39.2176  7847.62  87.9038
 39.2596  8054.14  88.9858
 39.3016  8108.52  88.8638
 39.3436  7922.81  88.2508
 39.3856  8172.83  89.0711
 39.4276  8140.19  89.4103
 39.4696  8092.09  88.7557
 39.5116  8029.5  88.9259
 39.5536  8018.65  89.2864
 39.5956  8007.77  88.3227
 39.6376  8011.11  88.3479
 39.6796  7945.25  87.7257
 39.7216  7911.86  87.645
 39.7636  7965.7  88.5052
 39.8056  8074.12  88.8977
 39.8476  7930.32  88.3505
 39.8896  7986.95  88.2988
 39.9316  7976.54  88.4854
 39.9736  8006.7  88.2249
 40.0156  7941.54  87.6976
 40.0576  7989.35  88.3094
 40.0996  8086.6  88.0242
 40.1416  7963.75  88.1511
 40.1836  8005.57  88.2772
 40.2256  8070.2  88.6585
 40.2676  7998.44  88.38
 40.3096  8010.98  88.379
 40.3516  8043.25  88.664
 40.3936  7975.01  87.8356
 40.4356  7873.66  87.484
 40.4776  7920.58  88.1491
 40.5196  7995.56  88.692
 40.5616  8135.03  89.1029
 40.6036  7894.55  88.0318
 40.6456  7949.4  87.9395
 40.6876  8110.6  88.8152
 40.7296  8007.9  88.3876
 40.7716  7948.6  88.1903
 40.8136  7930.06  88.0243
 40.8556  8103.82  89.1188
 40.8976  7938.28  88.123
 40.9396  7937.59  88.473
 40.9816  7995.74  88.0834
 41.0236  8002.48  87.9032
 41.0656  8142.99  89.2087
 41.1076  7960.99  87.98
 41.1496  8027.03  88.2516
 41.1916  7951  88.1537
 41.2336  7921.99  87.9988
 41.2756  7955.53  87.7813
 41.3176  8105.88  89.2321
 41.3596  7960.07  88.1541
 41.4016  7924.64  88.2174
 41.4436  8020.56  88.5237
 41.4856  8007.25  88.6197
 41.5276  7885.67  87.9669
 41.5696  7957.13  87.9928
 41.6116  7933.37  88.2499
 41.6536  7955.49  88.227
 41.6956  8037.83  88.7492
 41.7376  7898  87.9941
 41.7796  7863.78  87.6931
 41.8216  7888.87  88.065
 41.8636  7852.06  87.7982
 41.9056  7927.1  88.0138
 41.9476  7954.01  88.3986
 41.9896  8069.48  88.694
 42.0316  7942.12  88.081
 42.0736  8090.06  89.0059
 42.1156  7859.5  87.5607
 42.1576  7938.09  88.1034
 42.1996  7982.56  88.477
 42.2416  8005.05  88.1827
 42.2836  7888.07  87.6619
 42.3256  7915.23  87.9145
 42.3676  8052.73  88.4839
 42.4096  7951.18  87.8831
 42.4516  8067.39  88.616
 42.4936  7786.19  87.1213
 42.5356  7897.89  87.8824
 42.5776  7978.09  88.2707
 42.6196  7937.15  88.0978
 42.6616  7791.23  87.459
 42.7036  7994.37  87.9689
 42.7456  7993.52  88.3271
 42.7876  7844.24  87.5865
 42.8296  7914.16  87.8161
 42.8716  7914.42  87.9708
 42.9136  7807.27  87.1639
 42.9556  7910.76  87.8763
 42.9976  7893.36  87.7418
 43.0396  7897.6  87.5021
 43.0816  7858.31  87.665
 43.1236  7793.33  87.3516
 43.1656  7846.42  87.474
 43.2076  7783.54  87.2411
 43.2496  7832.94  87.3316
 43.2916  7815.24  87.5945
 43.3336  7852.91  87.6309
 43.3756  7892.9  87.6151
 43.4176  7776.16  87.0429
 43.4596  7789.08  86.9755
 43.5016  7778.63  87.3163
 43.5436  7742.92  87.0235
 43.5856  7725.17  86.9526
 43.6276  7780.71  87.149
 43.6696  7736.97  87.1665
 43.7116  7845.07  87.269
 43.7536  7877.5  87.9486
 43.7956  7662.02  87.9571
 43.8376  7636.03  86.3157
 43.8796  7558.67  85.9572
 43.9216  7565.71  85.9167
 43.9636  7681.08  86.6761
 44.0056  7649.66  86.732
 44.0476  7624.35  86.2191
 44.0896  7652.52  86.7215
 44.1316  7618.85  86.0533
 44.1736  7651.39  86.3658
 44.2156  7572.77  85.7696
 44.2576  7588.88  86.186
 44.2996  7664.34  86.5879
 44.3416  7654  86.2895
 44.3836  7418.66  85.2752
 44.4256  7569.66  85.7825
 44.4676  7426.73  85.1182
 44.5096  7638.11  86.4701
 44.5516  7613.22  86.2959
 44.5936  7545.58  85.8643
 44.6356  7560.06  85.6833
 44.6776  7582.12  86.1249
 44.7196  7525.31  86.1149
 44.7616  7686.56  88.3698
 44.8036  7632.91  86.4899
 44.8456  7760.97  87.4197
 44.8876  7733.91  87.1107
 44.9296  7755.65  86.6736
 44.9716  7699.04  86.8059
 45.0136  7750.71  87.0166
 45.0556  7752.28  87.0075
 45.0976  7676.37  86.7242
 45.1396  7614.77  86.1465
 45.1816  7647.09  86.2624
 45.2236  7663.83  86.264
 45.2656  7698.13  86.9513
 45.3076  7623.1  86.3135
 45.3496  7495.4  85.8916
 45.3916  7627.83  86.9227
 45.4336  7689.11  87.115
 45.4756  7568.2  86.2711
 45.5176  7764.87  87.0038
 45.5596  7783.21  87.2323
 45.6016  7565.39  86.4256
 45.6436  7513.61  85.296
 45.6856  7609.74  86.5086
 45.7276  7455.94  86.9501
 45.7696  7471.6  86.7094
 45.8116  7534.15  86.4953
 45.8536  7559.41  86.5398
 45.8956  7605.2  86.15
 45.9376  7573.83  85.4334
 45.9796  7634.69  86.466
 46.0216  7590.52  86.5596
 46.0636  7755.93  86.6257
 46.1056  7524.02  85.3086
 46.1476  7646.86  86.6017
 46.1896  7604.87  86.5188
 46.2316  7600.68  86.3582
 46.2736  7426.33  85.7349
 46.3156  7501.81  85.7461
 46.3576  7534.71  86.1492
 46.3996  7613.33  86.7591
 46.4416  7524.07  85.8046
 46.4836  7512.64  86.1148
 46.5256  7662.3  86.9013
 46.5676  7458.75  85.8601
 46.6096  7464.73  85.8197
 46.6516  7650.43  85.9057
 46.6936  7600.53  86.1354
 46.7356  7704.59  86.8165
 46.7776  7497.24  86.4981
 46.8196  7606.58  86.712
 46.8616  7296.44  84.8722
 46.9036  7352.65  84.8576
 46.9456  7455.63  85.0895
 46.9876  7485.6  85.3436
 47.0296  7498.75  86.1202
 47.0716  7413.77  85.4482
 47.1136  7421.45  85.1695
 47.1556  7489.31  85.4274
 47.1976  7633.65  86.3183
 47.2396  7442.37  85.6357
 47.2816  7343.69  84.7681
 47.3236  7477.14  85.9123
 47.3656  7534.23  86.1621
 47.4076  7443.65  85.4461
 47.4496  7398.69  85.2916
 47.4916  7431.87  85.6708
 47.5336  7393.61  85.2616
 47.5756  7502.18  86.0074
 47.6176  7318.72  84.8443
 47.6596  7402.57  85.0345
 47.7016  7548.21  85.6752
 47.7436  7480.38  85.6332
 47.7856  7515.89  85.881
 47.8276  7456.76  85.5859
 47.8696  7533.18  86.1104
 47.9116  7514.49  85.7099
 47.9536  7489.03  85.5043
 47.9956  7432.53  85.9006
 48.0376  7426.87  85.6302
 48.0796  7432.69  85.7993
 48.1216  7390.7  85.3744
 48.1636  7535.68  85.7771
 48.2056  7494.99  85.8139
 48.2476  7558.23  86.4897
 48.2896  7493.24  86.0191
 48.3316  7457.85  85.7626
 48.3736  7511.1  86.0892
 48.4156  7416.63  85.397
 48.4576  7559.3  86.5181
 48.4996  7505.7  85.6511
 48.5416  7441.78  85.6226
 48.5836  7434.7  85.2419
 48.6256  7526.44  85.9886
 48.6676  7366.61  85.5831
 48.7096  7472.86  85.4576
 48.7516  7418.96  85.2998
 48.7936  7467.37  85.64
 48.8356  7428.36  85.4682
 48.8776  7443.6  86.1377
 48.9196  7591.03  86.3456
 48.9616  7379.56  85.517
 49.0036  7428.29  86.1538
 49.0456  7369.8  85.7934
 49.0876  7354.23  85.2245
 49.1296  7296.29  85.0569
 49.1716  7271.37  84.7851
 49.2136  7407.18  85.4915
 49.2556  7386.92  85.415
 49.2976  7400.14  85.5531
 49.3396  7428.79  85.7799
 49.3816  7466.44  85.4231
 49.4236  7317.23  84.9814
 49.4656  7269.96  84.7271
 49.5076  7494.74  85.7726
 49.5496  7357.89  85.0514
 49.5916  7419.24  85.3081
 49.6336  7363.49  85.2097
 49.6756  7400.41  85.6527
 49.7176  7338.7  85.2401
 49.7596  7301.11  84.7842
 49.8016  7468.39  85.6654
 49.8436  7235.4  84.6175
 49.8856  7278.96  84.883
 49.9276  7339.23  85.3298
 49.9696  7294.19  85.0538
 50.0116  7302.42  85.2348
 50.0536  7333.7  85.3672
 50.0956  7277.26  85.1135
 50.1376  7399.34  85.5117
 50.1796  7260.27  84.9766
 50.2216  7240.23  84.8495
 50.2636  7318.21  84.9194
 50.3056  7323.25  85.1251
 50.3476  7195.81  84.4012
 50.3896  7298.58  84.9787
 50.4316  7345.53  85.0815
 50.4736  7188.65  84.3809
 50.5156  7274.09  84.8671
 50.5576  7432.34  85.5528
 50.5996  7320.92  85.1948
 50.6416  7251.27  84.7112
 50.6836  7310.53  85.1188
 50.7256  7312.72  85.0472
 50.7676  7479.26  86.3455
 50.8096  7189.37  84.1854
 50.8516  7154.18  84.4116
 50.8936  7227.92  84.614
 50.9356  7283.61  85.0542
 50.9776  7290.06  85.2508
 51.0196  7025.21  83.8051
 51.0616  7113.14  83.6411
 51.1036  7141.72  84.1741
 51.1456  7160.8  84.1906
 51.1876  7151.38  83.4667
 51.2296  7050.46  83.5201
 51.2716  6990.38  82.8661
 51.3136  7074.4  83.8313
 51.3556  7065.59  83.3917
 51.3976  7039.16  83.392
 51.4396  7013.57  83.5514
 51.4816  7045.1  83.5962
 51.5236  7066.28  83.8033
 51.5656  6968.73  82.8206
 51.6076  7173.36  84.1108
 51.6496  6982.55  83.18
 51.6916  7045.84  83.9196
 51.7336  7107.83  84.3865
 51.7756  7080.77  83.913
 51.8176  7047.45  83.8265
 51.8596  7040.28  83.799
 51.9016  7257.29  84.6704
 51.9436  7101.37  85.2974
 51.9856  7123.51  85.8393
 52.0276  7231.16  84.931
 52.0696  7265.96  85.222
 52.1116  7093.4  84.3168
 52.1536  7233.61  85.0363
 52.1956  7108.4  83.7433
 52.2376  7349.37  85.3283
 52.2796  7159.55  84.0363
 52.3216  6949.83  83.4874
 52.3636  7147.48  84.2182
 52.4056  7197.32  84.3814
 52.4476  7198.41  84.7657
 52.4896  6943.87  83.3005
 52.5316  7091.72  84.2281
 52.5736  6889.94  82.7367
 52.6156  7218.9  85.1065
 52.6576  7072.67  83.659
 52.6996  6902.49  83.6452
 52.7416  6892.97  83.4331
 52.7836  7041.64  84.2236
 52.8256  7025.86  83.3243
 52.8676  7069.96  84.1679
 52.9096  7094.31  84.3941
 52.9516  6949.34  83.919
 52.9936  6995.3  84.5872
 53.0356  7001.01  83.5904
 53.0776  7082.77  84.352
 53.1196  7072.89  84.419
 53.1616  7016.38  84.1407
 53.2036  6873.07  83.2347
 53.2456  6903.94  83.5281
 53.2876  7031.81  83.9751
 53.3296  6939.69  83.7614
 53.3716  7085.4  84.3804
 53.4136  7102.87  84.6374
 53.4556  6980.93  83.9351
 53.4976  7084.76  84.3973
 53.5396  6895.09  83.6554
 53.5816  6956.66  83.6624
 53.6236  6928.85  83.8459
 53.6656  7125.68  84.6402
 53.7076  7006.4  83.8653
 53.7496  7119.11  84.6899
 53.7916  7001.85  84.1081
 53.8336  7026.34  84.1574
 53.8756  6849.91  83.642
 53.9176  6828  82.8407
 53.9596  6735.47  83.0672
 54.0016  6719.01  82.2735
 54.0436  6594.03  81.7256
 54.0856  6690.46  81.7483
 54.1276  6755.26  82.3455
 54.1696  6715.14  82.273
 54.2116  6849.72  82.8291
 54.2536  6719.11  81.8377
 54.2956  6693.3  81.7186
 54.3376  6680.1  82.1525
 54.3796  6631.35  81.7392
 54.4216  6740.72  82.4816
 54.4636  6625.11  81.734
 54.5056  6850.45  82.9099
 54.5476  6621.8  81.8643
 54.5896  6756.23  82.5296
 54.6316  6706.72  82.053
 54.6736  6761.17  82.4783
 54.7156  6689.37  82.0414
 54.7576  6676.09  81.9495
 54.7996  6660.47  82.0179
 54.8416  6608.64  81.7529
 54.8836  6715.98  82.5187
 54.9256  6639.02  81.7987
 54.9676  6574.54  81.2562
 55.0096  6642.26  81.717
 55.0516  6473.98  80.9041
 55.0936  6600.53  81.3415
 55.1356  6524.51  80.9219
 55.1776  6704.67  82.2769
 55.2196  6630.61  81.5965
 55.2616  6700.02  82.2602
 55.3036  6491.04  81.1332
 55.3456  6440.11  80.9522
 55.3876  6601.34  81.6784
 55.4296  6507.57  81.1033
 55.4716  6660.86  82.0731
 55.5136  6457.08  80.5765
 55.5556  6727.76  82.3011
 55.5976  6561.4  81.3753
 55.6396  6704.65  82.1872
 55.6816  6552.97  81.1211
 55.7236  6411.96  80.3001
 55.7656  6548.06  80.8605
 55.8076  6543.65  80.8405
 55.8496  6551.88  81.2197
 55.8916  6447.54  80.7718
 55.9336  6578.43  81.412
 55.9756  6494.18  80.7794
 56.0176  6437.03  80.5436
 56.0596  6419.06  80.4527
 56.1016  6383.75  80.2431
 56.1436  6383.82  80.5033
 56.1856  6325.13  79.8681
 56.2276  6559.74  81.3865
 56.2696  6457.62  80.7238
 56.3116  6592.04  81.9529
 56.3536  6424.95  80.5797
 56.3956  6428.11  80.565
 56.4376  6524.29  81.2358
 56.4796  6400.16  80.2604
 56.5216  6342.39  80.2705
 56.5636  6376.37  80.0538
 56.6056  6553.61  81.4066
 56.6476  6443.29  80.3069
 56.6896  6613.01  81.8439
 56.7316  6339.8  80.043
 56.7736  6390.98  80.3749
 56.8156  6383  80.3414
 56.8576  6286.49  79.6664
 56.8996  6383.86  80.2079
 56.9416  6300.72  79.983
 56.9836  6453.95  80.4674
 57.0256  6310.13  79.8755
 57.0676  6482.53  81.0811
 57.1096  6356.24  80.0653
 57.1516  6286.06  79.6768
 57.1936  6354.69  79.8752
 57.2356  6262.66  79.6207
 57.2776  6329.15  79.9913
 57.3196  6355.16  80.5049
 57.3616  6302.61  79.6876
 57.4036  6365.38  80.1273
 57.4456  6388.52  80.2613
 57.4876  6335.87  79.8049
 57.5296  6284.72  79.8039
 57.5716  6235.71  79.5052
 57.6136  6218.84  79.2222
 57.6556  6262.23  79.6124
 57.6976  6314.22  79.783
 57.7396  6251.37  79.7451
 57.7816  6218.01  79.8946
 57.8236  6179.73  79.431
 57.8656  6253.39  79.5719
 57.9076  6255.66  79.6076
 57.9496  6220.99  79.7466
 57.9916  6308.79  79.809
 58.0336  6232.53  79.6067
 58.0756  6311.59  79.7544
 58.1176  6349.55  79.983
 58.1596  6210.82  79.6912
 58.2016  5999.57  77.5474
 58.2436  6082.05  78.4815
 58.2856  5959.32  77.6154
 58.3276  5915.18  77.6924
 58.3696  6028.65  78.181
 58.4116  5979.41  77.7315
 58.4536  6034.37  77.9718
 58.4956  5910.8  77.3501
 58.5376  6066.33  77.9336
 58.5796  5935.86  77.5108
 58.6216  6013.5  77.8348
 58.6636  6029.36  78.1489
 58.7056  6089.52  78.3913
 58.7476  5922.92  77.751
 58.7896  6005.87  77.9408
 58.8316  6120.31  78.6729
 58.8736  5981.45  77.7866
 58.9156  5937.12  77.5407
 58.9576  5999.16  78.2683
 58.9996  6035.91  77.7553
 59.0416  5997.44  77.8683
 59.0836  5951.61  77.4825
 59.1256  6000.09  78.5031
 59.1676  6023.81  78.9672
 59.2096  6080.4  78.647
 59.2516  6122.07  78.4943
 59.2936  6008.82  78.0921
 59.3356  5969.33  77.7135
 59.3776  5963.28  77.842
 59.4196  5865.21  77.1351
 59.4616  5988.53  77.8035
 59.5036  5943.05  77.5428
 59.5456  6047.26  77.9126
 59.5876  6001.83  77.8099
 59.6296  5824.01  76.7166
 59.6716  6009  77.9832
 59.7136  6027.6  78.0921
 59.7556  5995.78  78.0216
 59.7976  5946.25  77.4429
 59.8396  6160.18  78.7169
 59.8816  5890.52  77.5137
 59.9236  6099.74  78.5198
 59.9656  5839.09  77.0799
 60.0076  6040.96  77.7585
 60.0496  5946.02  77.645
 60.0916  6038.08  77.662
 60.1336  5830.62  77.4041
 60.1756  5850.9  78.7042
 60.1996  0.0000000E+00  0.0000000E+00