File: docs/examples/opeando_xrd/IS17_D/Data/IS17_D/17_Db_f00014.xye
# /beamlines/bl04/projects/cycle2025-II/20250340211-lsimonelli/DATA/IS17_D/17_Db_f00014.xye : mythproc.py merge -s 0.006 -l 0.5 -f /beamlines/bl04/inhouse/ff/FlatField/ff_20Nov2024rod8mm60s_17keV.raw -b True -c true -o xye /beamlines/bl04/projects/cycle2025-II/20250340211-lsimonelli/DATA/IS17_D/17_Db_00014.dat
# IsMon = [6737319, 6734013, 6744097]  IsPos = [-1.5000, -2.4885, -3.4986]
# Wave = 0.4962  CalPath /beamlines/bl04/projects/cycle2025-II/20250340211-lsimonelli/DATA/Align/Si_Pos1_25keV_f00001.cal
# Date = 2025-09-23_21:34:32 Dt = 4.8000  Bin = 0.0060  <imon> = 6738476 +/- 4197 (Min/Max) 6734013 / 6744097
# icurr 249.1887  mocoIn 1.7007E-05  mocoOut 0.7979  i15 7.05963e+06  imon 6.73848e+06  i7 4.6667  iEMpd_timer 4.8000  iEMpd_1 3.4140E-08  iEMpd_2 7.8205E-08  iEMpd_3 1.6655E-08  iEMpd_4 4.8291E-08  iEMhp_timer 4.8000  iEMhp_1 4.8708E-06  iEMhp_2 -2.3919E-08  iEMhp_3 -2.4239E-08  iEMhp_4 -2.1856E-08
#      9776
 1.5856  41290.2  208.672
 1.6276  47445.3  219.847
 1.6696  53437.4  232.494
 1.7116  61050.6  248.991
 1.7536  68505  262.63
 1.7956  73441.2  272.607
 1.8376  70284.9  267.108
 1.8796  59799.4  244.575
 1.9216  48577.9  221.307
 1.9636  42090.9  205.676
 2.0056  38221.1  194.741
 2.0476  35288.6  189.173
 2.0896  34008.4  184.62
 2.1316  32912.8  180.749
 2.1736  31599.2  178.51
 2.2156  32237.5  178.857
 2.2576  30829.4  175.535
 2.2996  29529.5  172.425
 2.3416  30386.9  173.514
 2.3836  29710.4  171.677
 2.4256  28679.2  169.221
 2.4676  29177.7  170.443
 2.5096  29377.4  171.082
 2.5516  39227.3  202.21
 2.5936  179532  424.018
 2.6356  33751.5  184.624
 2.6776  27390.5  165.22
 2.7196  26070  161.655
 2.7616  25761  160.494
 2.8036  25067.1  158.481
 2.8456  25065.9  159.102
 2.8876  24574.9  157.382
 2.9296  24059.5  155.865
 2.9716  23768.7  154.433
 3.0136  23558.2  153.806
 3.0556  23540.7  154.121
 3.0976  23736.4  153.695
 3.1396  23252.8  152.833
 3.1816  22942.1  151.754
 3.2236  22881  151.553
 3.2656  22745.7  150.184
 3.3076  22630.9  151.215
 3.3496  23004.3  151.652
 3.3916  23285.4  152.163
 3.4336  23581.2  153.692
 3.4756  24083.3  155.255
 3.5176  24658.9  156.882
 3.5596  24297  158.603
 3.6016  24539.2  156.533
 3.6436  23736.9  155.047
 3.6856  23305.6  151.973
 3.7276  22358.7  149.907
 3.7696  22311.6  149.712
 3.8116  21930.6  148.531
 3.8536  21916.1  148.406
 3.8956  21917.9  148.244
 3.9376  22834.2  151.6
 3.9796  21699.1  147.265
 4.0216  21697.8  146.347
 4.0636  21864.4  148.324
 4.1056  21623.6  147.178
 4.1476  21993.7  148.724
 4.1896  22149.2  149.11
 4.2316  22296  149.424
 4.2736  22569.1  150.154
 4.3156  22789.8  151.097
 4.3576  23778.1  154.256
 4.3996  23769.2  154.301
 4.4416  24665.4  156.976
 4.4836  26050.3  161.497
 4.5256  25997.9  161.924
 4.5676  25389.8  160.267
 4.6096  25725.3  160.367
 4.6516  26349.3  161.645
 4.6936  26513.1  162.941
 4.7356  27750.7  166.542
 4.7776  26438.2  162.386
 4.8196  26121.5  162.043
 4.8616  25557.4  159.916
 4.9036  25679.7  159.904
 4.9456  25747.5  160.766
 4.9876  24814.2  157.72
 5.0296  24748.4  157.361
 5.0716  24618.4  157.539
 5.1136  24839  158.106
 5.1556  25259.3  158.915
 5.1976  37335.5  193.171
 5.2396  26073.8  161.145
 5.2816  25608.5  160.164
 5.3236  25524.9  159.601
 5.3656  25078.5  159.105
 5.4076  24889.9  158.637
 5.4496  24665.7  157.437
 5.4916  24858.9  157.818
 5.5336  24679.2  157.246
 5.5756  24825  157.72
 5.6176  24904.4  157.444
 5.6596  24975.6  158.463
 5.7016  25219.1  158.676
 5.7436  25221.7  158.954
 5.7856  24998.5  158.313
 5.8276  25250.3  158.829
 5.8696  25612.2  160.026
 5.9116  25226.4  159.457
 5.9536  25946.3  161.504
 5.9956  26017.7  161.142
 6.0376  25950.6  161.522
 6.0796  26171.9  162.052
 6.1216  26126  162.095
 6.1636  26553.8  162.512
 6.2056  26400  162.695
 6.2476  26963  164.118
 6.2896  27060.7  164.285
 6.3316  26900.2  163.963
 6.3736  27055.5  164.332
 6.4156  26869.2  163.701
 6.4576  27297.9  164.582
 6.4996  27153.4  164.608
 6.5416  27367.6  165.375
 6.5836  27709.5  166.647
 6.6256  27456.9  165.451
 6.6676  27905.5  166.386
 6.7096  27832.7  167.001
 6.7516  28135.2  167.568
 6.7936  30280.2  173.003
 6.8356  30667.3  174.445
 6.8776  29620.6  172.23
 6.9196  28853.5  170.375
 6.9616  29200.5  170.825
 7.0036  29720.1  172.031
 7.0456  29779  171.525
 7.0876  29767.6  173.044
 7.1296  29398.9  171.215
 7.1716  29601.6  171.343
 7.2136  29050.8  169.544
 7.2556  29512.1  171.04
 7.2976  29750.1  172.21
 7.3396  29363.1  171.313
 7.3816  29712.5  172.525
 7.4236  29938.3  172.493
 7.4656  30116.7  172.472
 7.5076  30507.4  173.734
 7.5496  29964.9  172.696
 7.5916  30363  173.901
 7.6336  31043.9  175.729
 7.6756  30493.7  174.02
 7.7176  31183.7  176.304
 7.7596  31053.4  177.111
 7.8016  38567.5  199.8
 7.8436  31795.9  178.128
 7.8856  31702.6  177.492
 7.9276  32330.2  179.6
 7.9696  32213.8  179.596
 8.0116  33360.1  181.687
 8.0536  34116.6  183.639
 8.0956  36495.3  191.158
 8.1376  34126.6  184.311
 8.1796  34271.2  185.241
 8.2216  35277.5  186.695
 8.2636  36515.5  190.189
 8.3056  35718.5  188.836
 8.3476  37578.2  193.039
 8.3896  36301.1  190.223
 8.4316  35584.2  188.088
 8.4736  35500  187.35
 8.5156  35215.6  186.865
 8.5576  34919.4  187.036
 8.5996  34788.6  185.579
 8.6416  34722.5  186.646
 8.6836  34628.2  186.184
 8.7256  35583.4  188.244
 8.7676  39137.7  200.383
 8.8096  39249.9  197.878
 8.8516  36431.5  190.284
 8.8936  38170.8  194.653
 8.9356  35636.1  188.422
 8.9776  35570.5  188.313
 9.0196  35241.3  187.13
 9.0616  35666  187.747
 9.1036  37865.4  194.648
 9.1456  34552.7  185.26
 9.1876  34026.7  183.795
 9.2296  33683.6  182.319
 9.2716  33407.9  181.617
 9.3136  33299.2  181.324
 9.3556  33915  182.969
 9.3976  32544.5  179.742
 9.4396  32671.7  179.993
 9.4816  32816.4  180.27
 9.5236  32459.3  179.178
 9.5656  31680  177.347
 9.6076  31167.6  176.404
 9.6496  31512.4  177.275
 9.6916  31175.8  176.256
 9.7336  31623  177.338
 9.7756  31347.7  177.775
 9.8176  31195.6  176.927
 9.8596  31022.4  174.946
 9.9016  30640  173.845
 9.9436  30343  172.762
 9.9856  31082.1  175.286
 10.0276  29638  172.207
 10.0696  30230.5  172.961
 10.1116  29704.2  171.719
 10.1536  29316.7  170.251
 10.1956  28670.1  168.483
 10.2376  28608.5  167.818
 10.2796  28363.3  167.208
 10.3216  28074.8  166.495
 10.3636  28266.5  167.228
 10.4056  32909.7  180.876
 10.4476  33627.6  182.402
 10.4896  39322.2  196.615
 10.5316  35325.8  186.756
 10.5736  28717.4  169.153
 10.6156  28602  168.563
 10.6576  35767.8  186.917
 10.6996  28109.6  166.398
 10.7416  27143  163.722
 10.7836  28202.8  167.535
 10.8256  25875  160.883
 10.8676  25803.6  160.22
 10.9096  25879.5  160.465
 10.9516  25676  158.82
 10.9936  26769.3  162.36
 11.0356  26316.5  161.59
 11.0776  28390.5  167.163
 11.1196  28212.8  167.423
 11.1616  25699.6  159.48
 11.2036  27514.3  164.847
 11.2456  29271.2  170.788
 11.2876  25306.3  158.516
 11.3296  25154.6  157.957
 11.3716  25477.6  158.682
 11.4136  24879.4  157.654
 11.4556  24994  157.658
 11.4976  27041.2  162.989
 11.5396  27127.9  163.434
 11.5816  25192.6  157.899
 11.6236  23934.5  154.352
 11.6656  24332.6  154.595
 11.7076  23669.1  153.277
 11.7496  24011.6  158.301
 11.7916  24661.4  155.72
 11.8336  23071.5  151.501
 11.8756  24028.8  154.144
 11.9176  23091.1  151.018
 11.9596  23138.6  151.114
 12.0016  22785.1  150.689
 12.0436  22800.9  150.217
 12.0856  22580.6  149.97
 12.1276  22583.1  149.938
 12.1696  22752.9  149.632
 12.2116  23300.2  151.429
 12.2536  26467.9  162.232
 12.2956  23381.7  151.849
 12.3376  23116.3  151.191
 12.3796  22935.4  151.068
 12.4216  22905.4  150.179
 12.4636  24456.2  156.136
 12.5056  22606.6  149.397
 12.5476  22405.7  148.265
 12.5896  22219.7  148.263
 12.6316  22332  148.788
 12.6736  22174.1  148.577
 12.7156  22718.4  150.397
 12.7576  22378.7  149.513
 12.7996  22681.3  149.186
 12.8416  22945.1  151.084
 12.8836  23905.2  154.037
 12.9256  23203.3  150.825
 12.9676  23037.9  150.678
 13.0096  22938  151.437
 13.0516  22962.9  150.578
 13.0936  22715  149.877
 13.1356  23118.2  150.482
 13.1776  23417.9  152.446
 13.2196  22753.5  149.91
 13.2616  22594.9  149.701
 13.3036  22934.5  150.955
 13.3456  22558.3  149.673
 13.3876  23344.4  151.764
 13.4296  22960.8  150.673
 13.4716  23286.7  151.369
 13.5136  23039.9  150.69
 13.5556  23230.3  151.939
 13.5976  23012.2  151.383
 13.6396  23343  151.833
 13.6816  23385.6  152.31
 13.7236  23650  152.866
 13.7656  25611  159.544
 13.8076  26961.3  162.346
 13.8496  25009.2  157.189
 13.8916  23651.6  153.798
 13.9336  22633.7  149.744
 13.9756  22639.6  149.179
 14.0176  22514.5  149.418
 14.0596  23428.6  152.355
 14.1016  22523.8  149.801
 14.1436  22148.2  147.7
 14.1856  22051  147.663
 14.2276  22282.7  148.916
 14.2696  22475  149.408
 14.3116  21438.8  145.832
 14.3536  21057.5  144.69
 14.3956  21024.7  144.318
 14.4376  21109  144.391
 14.4796  21006.6  144.035
 14.5216  20780  144.028
 14.5636  21369.7  145.634
 14.6056  20967.9  143.811
 14.6476  20632.1  141.937
 14.6896  20084.4  140.561
 14.7316  19931.9  141.03
 14.7736  19492.9  138.655
 14.8156  19500.4  138.694
 14.8576  19478.4  138.476
 14.8996  19480.3  139.644
 14.9416  18993.7  137.905
 14.9836  18989  137.857
 15.0256  18398.7  134.664
 15.0676  18288.2  134.556
 15.1096  18066.4  133.49
 15.1516  17824.7  133.136
 15.1936  17758  132.329
 15.2356  17811.3  132.795
 15.2776  17886  132.678
 15.3196  17512.9  132.242
 15.3616  17393.2  131.539
 15.4036  17474.6  131.735
 15.4456  17668.3  131.882
 15.4876  17288.5  130.387
 15.5296  17043.3  129.746
 15.5716  16674  127.941
 15.6136  16919.9  129.208
 15.6556  19247.7  137.017
 15.6976  17311.3  130.02
 15.7396  17191.8  130.141
 15.7816  17029.5  129.068
 15.8236  16467.7  127.571
 15.8656  16463.4  127.374
 15.9076  16746.1  128.285
 15.9496  17716.7  134.747
 15.9916  16545.6  130.603
 16.0336  16723.2  128.262
 16.0756  16468.4  127.576
 16.1176  16142.5  126.231
 16.1596  15829.6  126.284
 16.2016  15954.9  125.582
 16.2436  16044.8  126.317
 16.2856  16002.5  125.673
 16.3276  15354.2  123.537
 16.3696  15718.9  124.809
 16.4116  15580.2  124.711
 16.4536  15717.4  125.056
 16.4956  16740.6  128.804
 16.5376  16027.6  126.202
 16.5796  15640.8  124.062
 16.6216  15579  124.068
 16.6636  15488.3  123.881
 16.7056  15406.5  123.433
 16.7476  15413.8  123.132
 16.7896  15481.7  123.994
 16.8316  15442  123.823
 16.8736  15961.2  126.143
 16.9156  15745.2  125.587
 16.9576  15087  123.739
 16.9996  15183.6  124.573
 17.0416  15139.9  122.874
 17.0836  15114.5  122.536
 17.1256  15064.4  122.342
 17.1676  15785.2  125.178
 17.2096  15893.2  125.524
 17.2516  15510.9  124.079
 17.2936  14599.1  120.433
 17.3356  14690.9  120.795
 17.3776  14382.2  119.704
 17.4196  14441.3  119.664
 17.4616  14746.3  120.821
 17.5036  15407  123.876
 17.5456  14392.5  120.325
 17.5876  14310.2  119.068
 17.6296  14469.6  119.545
 17.6716  14535.9  120.403
 17.7136  15523.9  124.556
 17.7556  14385.8  120.198
 17.7976  14524.4  120.389
 17.8396  14528.8  120.027
 17.8816  13859.2  117.793
 17.9236  13812.3  117.384
 17.9656  14040.4  118.99
 18.0076  14799.5  121.593
 18.0496  16024.6  125.635
 18.0916  22407.3  149.216
 18.1336  19266.9  138.485
 18.1756  15973.6  125.634
 18.2176  16401.7  127.519
 18.2596  14101  117.991
 18.3016  14929.6  121.664
 18.3436  15842.6  125.578
 18.3856  14831.8  121.392
 18.4276  13902.2  117.23
 18.4696  14427.7  119.497
 18.5116  14262.5  119.092
 18.5536  13869.9  117.782
 18.5956  13809.7  117.111
 18.6376  14164.7  119.017
 18.6796  13836  116.959
 18.7216  13892.6  117.736
 18.7636  13656.2  116.667
 18.8056  13267.1  114.913
 18.8476  13034.9  114.224
 18.8896  12982.7  113.65
 18.9316  13364.3  115.125
 18.9736  13193.3  114.258
 19.0156  13863.7  117.518
 19.0576  13887.6  116.493
 19.0996  13443  115.294
 19.1416  13663.5  116.647
 19.1836  13103.3  113.844
 19.2256  12857.9  112.987
 19.2676  13098.2  114.123
 19.3096  13003.4  113.945
 19.3516  13103.1  114.167
 19.3936  13279.7  115.066
 19.4356  13291.2  114.943
 19.4776  13145.1  114.395
 19.5196  12999.2  113.615
 19.5616  13120.9  114.398
 19.6036  13138.6  113.849
 19.6456  13281.4  114.713
 19.6876  13707.1  116.176
 19.7296  13288.8  114.846
 19.7716  13127.7  114.173
 19.8136  13552.8  116.341
 19.8556  13817.2  116.964
 19.8976  14062.4  118.046
 19.9396  13715.1  116.178
 19.9816  13770.3  116.659
 20.0236  14176.5  118.557
 20.0656  13242  114.587
 20.1076  13075.5  114.32
 20.1496  12827.6  113.218
 20.1916  12963.6  113.316
 20.2336  13054.1  113.67
 20.2756  12712.8  112.607
 20.3176  12576  111.755
 20.3596  12639.8  112.026
 20.4016  12773.6  112.418
 20.4436  12601.1  112.201
 20.4856  12644.4  112.193
 20.5276  12536.4  112.162
 20.5696  12378.8  111.025
 20.6116  12536.9  111.892
 20.6536  12247.2  110.193
 20.6956  12369.8  110.806
 20.7376  12334.3  110.843
 20.7796  12291  110.362
 20.8216  12525.9  111.136
 20.8636  12974.8  113.478
 20.9056  14403  119.496
 20.9476  12935.9  113.097
 20.9896  14108.5  117.969
 21.0316  12692.8  111.79
 21.0736  13144.9  114.288
 21.1156  13367.7  115.412
 21.1576  12807.2  113.003
 21.1996  12459.5  111.45
 21.2416  12335.2  110.721
 21.2836  12560.9  111.702
 21.3256  12461.5  111.334
 21.3676  12385.6  110.543
 21.4096  12787.6  112.691
 21.4516  12392.8  110.767
 21.4936  12054.4  109.495
 21.5356  12255  110.352
 21.5776  12417.5  110.924
 21.6196  12472.1  111.206
 21.6616  12543.9  111.604
 21.7036  12170.8  109.698
 21.7456  12070.3  109.325
 21.7876  11855.9  108.125
 21.8296  11806.9  107.757
 21.8716  12021.4  108.951
 21.9136  12165.3  109.791
 21.9556  12413.6  110.59
 21.9976  12117.6  109.296
 22.0396  11976.9  108.903
 22.0816  11958.7  109.315
 22.1236  12388.2  110.749
 22.1656  12044.2  109.386
 22.2076  11801.2  107.699
 22.2496  11804.9  107.757
 22.2916  11880.8  107.982
 22.3336  12056.1  109.459
 22.3756  11890.9  108.451
 22.4176  11758.5  107.705
 22.4596  11401.2  106.607
 22.5016  11696.7  107.516
 22.5436  11822.5  107.956
 22.5856  12112.6  109.529
 22.6276  12120.5  109.705
 22.6696  11713.4  108.183
 22.7116  11658.4  107.467
 22.7536  11605.8  107.189
 22.7956  11844.2  107.651
 22.8376  11378.6  105.985
 22.8796  11585.6  106.764
 22.9216  11618.5  107.427
 22.9636  11555  106.334
 23.0056  11492.6  106.173
 23.0476  11883.2  108.522
 23.0896  11923.2  108.097
 23.1316  12034.1  109.025
 23.1736  11837.7  110.994
 23.2156  11951.8  108.886
 23.2576  12158  110.03
 23.2996  11840.1  108.345
 23.3416  12020.8  109.706
 23.3836  11946.4  108.582
 23.4256  12143.9  109.628
 23.4676  11877.9  108.106
 23.5096  11937  109.024
 23.5516  11875.3  108.061
 23.5936  12050.5  109.745
 23.6356  12241.2  110.279
 23.6776  11856.2  109.052
 23.7196  11955.7  108.998
 23.7616  11915.1  108.507
 23.8036  12006.5  108.987
 23.8456  11728.3  107.272
 23.8876  11776.8  107.858
 23.9296  11617.9  107.592
 23.9716  11745.3  107.403
 24.0136  11961.8  109.277
 24.0556  11721.5  107.889
 24.0976  11525.5  106.81
 24.1396  11386.1  108.728
 24.1816  11566.5  108.368
 24.2236  11648.8  108.064
 24.2656  11827.9  108.379
 24.3076  11700.1  108.053
 24.3496  11818.9  108.486
 24.3916  11887.6  108.843
 24.4336  11720.6  108.276
 24.4756  11617.1  107.69
 24.5176  11585.2  107.165
 24.5596  11277.5  106.05
 24.6016  11314  106.321
 24.6436  11492.1  106.664
 24.6856  11404.2  106.007
 24.7276  11437.4  106.488
 24.7696  11394.5  106.387
 24.8116  11307.5  106.173
 24.8536  11163.1  105.48
 24.8956  11160.8  105.202
 24.9376  11371.3  106.367
 24.9796  11270.2  106.003
 25.0216  11212.6  105.843
 25.0636  11228.8  105.59
 25.1056  10870  104.305
 25.1476  10769.6  105.662
 25.1896  10829.3  104.499
 25.2316  10789  103.48
 25.2736  10861.3  103.597
 25.3156  10651.6  102.652
 25.3576  10574.5  102.711
 25.3996  10726.1  103.427
 25.4416  10774.3  103.639
 25.4836  10580.5  103.208
 25.5256  10544.5  102.416
 25.5676  10825  103.504
 25.6096  10477  102.383
 25.6516  10626.5  102.632
 25.6936  10523.2  102.434
 25.7356  10569.8  102.792
 25.7776  10651.9  102.858
 25.8196  10569.6  102.627
 25.8616  10487.4  102.155
 25.9036  10769.6  102.987
 25.9456  10435.3  101.967
 25.9876  10574.5  102.564
 26.0296  10580.2  102.345
 26.0716  10671.6  103.119
 26.1136  10720.1  103.286
 26.1556  10892.6  103.403
 26.1976  10392.5  102.005
 26.2396  10412.9  101.518
 26.2816  10361.9  101.623
 26.3236  10530  102.509
 26.3656  10643.5  102.866
 26.4076  10351.2  101.65
 26.4496  10544.1  102.187
 26.4916  10730.3  102.986
 26.5336  10976.1  104.501
 26.5756  11055.5  104.755
 26.6176  10814.6  103.634
 26.6596  10579.7  102.808
 26.7016  10190.6  100.703
 26.7436  10250.9  101.093
 26.7856  10178.5  100.722
 26.8276  10043.9  100.016
 26.8696  10142  100.377
 26.9116  10208.2  100.647
 26.9536  10104.7  100.182
 26.9956  9967.89  99.5321
 27.0376  10034.3  100.083
 27.0796  9974.02  99.5422
 27.1216  10151.1  100.447
 27.1636  9899.63  99.3631
 27.2056  10024.7  99.8789
 27.2476  10020.8  99.8421
 27.2896  9810.39  98.8478
 27.3316  9790.51  98.5264
 27.3736  9695.36  98.3169
 27.4156  9877.86  99.0752
 27.4576  10030.2  100.052
 27.4996  10012.5  99.5843
 27.5416  9897.49  99.3041
 27.5836  9847.78  98.9006
 27.6256  9817.66  98.9284
 27.6676  9773.26  98.6936
 27.7096  10036.1  99.8905
 27.7516  10656.1  103.083
 27.7936  10873.9  104.26
 27.8356  10462.9  101.903
 27.8776  10459.4  101.951
 27.9196  10040.5  99.7461
 27.9616  10236.6  100.915
 28.0036  9949.45  99.4468
 28.0456  9673.08  98.1964
 28.0876  9635.92  98.0865
 28.1296  9775.03  98.6283
 28.1716  9885.63  99.2085
 28.2136  9671.5  98.093
 28.2556  9710.08  98.4027
 28.2976  9637.84  98.0296
 28.3396  9738.41  98.3424
 28.3816  9650.38  97.8553
 28.4236  9788.36  98.71
 28.4656  9535.01  97.4681
 28.5076  9357.17  96.2
 28.5496  9333.92  96.3257
 28.5916  9444.04  96.7197
 28.6336  9472.43  97.1941
 28.6756  9560.96  96.862
 28.7176  9507.04  97.1337
 28.7596  9423  96.5966
 28.8016  9236.14  95.748
 28.8436  9356.77  96.5276
 28.8856  9353.3  96.3712
 28.9276  9481.63  97.2621
 28.9696  9435.27  96.6817
 29.0116  9171.09  95.4924
 29.0536  9158.5  95.6433
 29.0956  9416.61  96.6926
 29.1376  9379.84  96.4682
 29.1796  9235.73  95.785
 29.2216  9241.89  95.6515
 29.2636  9352.14  96.2185
 29.3056  9035.47  94.4354
 29.3476  9141.78  95.5041
 29.3896  9257.82  96.2137
 29.4316  9139.51  94.952
 29.4736  9022.08  94.3876
 29.5156  9203.69  95.262
 29.5576  9059.39  95.2448
 29.5996  8903.8  93.7042
 29.6416  9078.92  94.7478
 29.6836  9048.44  94.5057
 29.7256  8934.82  94.4562
 29.7676  8994.58  94.4307
 29.8096  8952.15  94.1663
 29.8516  8884.89  94.1205
 29.8936  8868.56  94.1353
 29.9356  8799.52  93.5339
 29.9776  8838.09  93.8808
 30.0196  8978.69  94.0467
 30.0616  8953.07  94.2639
 30.1036  8925.95  93.965
 30.1456  8793.99  93.4993
 30.1876  8879.09  93.9231
 30.2296  8786.39  93.3533
 30.2716  8901.68  93.6286
 30.3136  8796.44  93.6359
 30.3556  9098.99  95.5045
 30.3976  9098.98  96.9632
 30.4396  9320.24  95.5252
 30.4816  9079.26  93.8914
 30.5236  9153.75  94.2814
 30.5656  9066.92  94.4665
 30.6076  8989.41  93.8095
 30.6496  9061.44  94.2665
 30.6916  8924.22  93.6287
 30.7336  9066.53  94.5218
 30.7756  8829.67  93.5662
 30.8176  8998.14  94.1839
 30.8596  9057.41  94.236
 30.9016  9110.59  94.4046
 30.9436  8895.39  93.4983
 30.9856  9172.23  95.0511
 31.0276  8911.33  93.3333
 31.0696  8949.54  93.9594
 31.1116  8927.03  93.9243
 31.1536  8915  93.7339
 31.1956  9087.99  94.7371
 31.2376  8670.62  92.5562
 31.2796  8815.27  92.8826
 31.3216  8866.17  93.0925
 31.3636  8787  93.366
 31.4056  8833.99  94.864
 31.4476  8966.64  93.5579
 31.4896  8873.79  93.5584
 31.5316  9224.96  94.8442
 31.5736  9730.58  97.1942
 31.6156  9571.65  96.3971
 31.6576  9308.58  95.132
 31.6996  9300.11  94.7585
 31.7416  9188.28  95.1341
 31.7836  9108.3  93.8823
 31.8256  8996.02  93.6433
 31.8676  9234.9  94.7824
 31.9096  8869.63  93.1235
 31.9516  8815.9  93.1375
 31.9936  8734.04  92.5355
 32.0356  8881.42  93.3582
 32.0776  8985.95  93.7952
 32.1196  8949.91  93.6214
 32.1616  8887.74  92.8452
 32.2036  8774.94  92.7528
 32.2456  8720.45  92.8407
 32.2876  8689.29  92.0164
 32.3296  8615.11  91.7542
 32.3716  8593.88  91.7422
 32.4136  8595.73  91.9358
 32.4556  8753.02  92.2234
 32.4976  8852.97  92.6481
 32.5396  8527.53  90.9529
 32.5816  8592.44  91.3197
 32.6236  8727.97  92.1862
 32.6656  8574.1  91.9185
 32.7076  8498.25  91.1781
 32.7496  8539.34  91.0792
 32.7916  8472.93  90.6807
 32.8336  8515.92  91.0095
 32.8756  8618.51  91.3596
 32.9176  8623.54  91.7823
 32.9596  8614.33  91.7955
 33.0016  8582.03  91.411
 33.0436  8552.03  91.4016
 33.0856  8348.55  90.4143
 33.1276  8433.85  90.6198
 33.1696  8586.26  91.2496
 33.2116  8580.95  91.47
 33.2536  8583.74  91.4775
 33.2956  8528.2  91.2536
 33.3376  8355.81  90.1369
 33.3796  8506.23  91.0973
 33.4216  8473.5  90.5158
 33.4636  8518.02  90.9107
 33.5056  8345.28  90.0671
 33.5476  8474  90.891
 33.5896  8465.83  90.6271
 33.6316  8430.18  90.7596
 33.6736  8349.64  90.5664
 33.7156  8188.49  89.7072
 33.7576  8378.42  90.405
 33.7996  8338.04  89.9531
 33.8416  8314.51  90.0087
 33.8836  8365.87  90.0658
 33.9256  8448.26  90.5662
 33.9676  8509.03  90.7917
 34.0096  8270.98  89.8138
 34.0516  8275.11  89.4793
 34.0936  8270.44  89.7238
 34.1356  8322.69  89.7513
 34.1776  8176.48  88.9557
 34.2196  8132.31  88.8953
 34.2616  8092.87  88.873
 34.3036  8315.99  90.2716
 34.3456  8274.81  89.8034
 34.3876  8374.9  90.4087
 34.4296  8275.03  89.4786
 34.4716  8274.27  89.6165
 34.5136  8187.24  89.3325
 34.5556  8092.15  89.061
 34.5976  8348.77  90.3078
 34.6396  8228.44  89.3434
 34.6816  8330.43  89.99
 34.7236  8339.21  89.8087
 34.7656  8270.06  89.6545
 34.8076  8105.7  89.0868
 34.8496  8130.5  89.0731
 34.8916  8076.86  88.6439
 34.9336  8316.74  89.9365
 34.9756  8393.42  90.2948
 35.0176  8197.25  89.7269
 35.0596  8259.18  89.8913
 35.1016  8173.37  89.1829
 35.1436  8334.71  89.7501
 35.1856  8210.98  89.2053
 35.2276  8097.5  88.7584
 35.2696  8159.99  89.2921
 35.3116  8129.54  89.2175
 35.3536  8196.15  89.3215
 35.3956  8101.9  88.4998
 35.4376  8257.77  89.8964
 35.4796  8289.01  90.1138
 35.5216  8196.81  89.5006
 35.5636  7861.07  88.4423
 35.6056  8021.95  88.3837
 35.6476  8120.52  88.8289
 35.6896  8080.06  88.7668
 35.7316  8041.14  88.4559
 35.7736  8138.19  89.1748
 35.8156  7998.82  88.4093
 35.8576  8096.63  89.1761
 35.8996  8091.3  89.1194
 35.9416  8088.73  88.6294
 35.9836  7959.27  88.3522
 36.0256  8236.46  89.7878
 36.0676  8320.59  89.7727
 36.1096  8080.72  88.8385
 36.1516  8188.35  89.3258
 36.1936  8112.95  88.7557
 36.2356  8082.42  89.2332
 36.2776  8087.49  88.7106
 36.3196  8081.02  88.3721
 36.3616  8018.48  88.1653
 36.4036  7882.68  87.4853
 36.4456  7969.34  88.1608
 36.4876  7908.78  87.7724
 36.5296  7952.82  88.0435
 36.5716  7946.49  88.7736
 36.6136  8135.53  88.6236
 36.6556  7993.12  88.0291
 36.6976  7904.63  88.0335
 36.7396  7827.72  87.4288
 36.7816  7695.31  86.965
 36.8236  7795.66  87.4646
 36.8656  7803.35  87.5618
 36.9076  7708.35  87.0385
 36.9496  7600.66  86.4355
 36.9916  7654.91  86.2444
 37.0336  7802.29  87.3681
 37.0756  7784.4  87.0757
 37.1176  7605.33  86.4075
 37.1596  7606.06  86.3377
 37.2016  7630.87  86.6591
 37.2436  7677.96  86.3
 37.2856  7593.73  86.0761
 37.3276  7703.53  86.0638
 37.3696  7659.04  86.6811
 37.4116  7690.71  86.7478
 37.4536  7566.21  85.9275
 37.4956  7490.96  85.5307
 37.5376  7726.6  88.4306
 37.5796  7665.38  88.0041
 37.6216  7565.19  85.7406
 37.6636  7829.43  87.1051
 37.7056  7793.92  87.1027
 37.7476  7842.67  86.9323
 37.7896  7732.36  86.8037
 37.8316  7759.14  87.1036
 37.8736  7582.92  85.6502
 37.9156  7660.23  86.0818
 37.9576  7591.24  85.7485
 37.9996  7530.71  84.9956
 38.0416  7623.67  86.2925
 38.0836  7917.79  87.8596
 38.1256  7769.1  87.0013
 38.1676  7715.56  86.8157
 38.2096  8014.13  88.0994
 38.2516  7888.07  87.5299
 38.2936  7822.43  87.0601
 38.3356  7782.9  86.7581
 38.3776  7727.74  86.6834
 38.4196  7677.59  86.2657
 38.4616  7714.44  86.7266
 38.5036  7868.06  87.4321
 38.5456  7549.22  86.4627
 38.5876  7670.97  87.1802
 38.6296  7712.59  86.4214
 38.6716  7775.22  86.5732
 38.7136  7606.57  85.5804
 38.7556  7720.92  86.7148
 38.7976  7678.09  86.4005
 38.8396  7628.76  86.5779
 38.8816  7463.12  85.4361
 38.9236  7654.45  86.3284
 38.9656  7614.39  86.0101
 39.0076  7651.81  85.6392
 39.0496  7801.73  87.0176
 39.0916  7729.4  86.2676
 39.1336  7620.99  86.0507
 39.1756  7643.58  86.2433
 39.2176  7663.77  86.8896
 39.2596  7545.23  86.1381
 39.3016  7559.84  85.8195
 39.3436  7584.16  86.357
 39.3856  7656.02  86.2148
 39.4276  7800.45  87.5309
 39.4696  7637.01  86.2414
 39.5116  7739.13  87.3176
 39.5536  7706.49  87.5348
 39.5956  7715.44  86.7089
 39.6376  7564.43  85.6936
 39.6796  7513.7  85.3239
 39.7216  7592.15  85.8408
 39.7636  7712.64  87.0846
 39.8056  7688.59  86.7351
 39.8476  7507.81  85.9655
 39.8896  7654.28  86.4303
 39.9316  7463.15  85.5851
 39.9736  7608.93  86.0159
 40.0156  7587.38  85.7202
 40.0576  7615.58  86.2267
 40.0996  7722.7  86.0186
 40.1416  7593.82  86.0821
 40.1836  7628.79  86.1586
 40.2256  7631.46  86.2153
 40.2676  7544.28  85.8906
 40.3096  7623.35  86.2128
 40.3516  7606.03  86.2916
 40.3936  7690.16  86.2565
 40.4356  7646.43  86.2211
 40.4776  7782.14  87.2091
 40.5196  7759.71  87.3732
 40.5616  7737.17  86.8924
 40.6036  7614.86  86.4484
 40.6456  7610.65  86.0364
 40.6876  7765.22  86.9071
 40.7296  7600.75  86.1116
 40.7716  7756.5  87.1062
 40.8136  7530.69  85.7878
 40.8556  7693.33  86.8357
 40.8976  7609.27  86.2838
 40.9396  7630.38  86.7306
 40.9816  7749.94  86.7194
 41.0236  7641.95  85.893
 41.0656  7741.31  86.9756
 41.1076  7689.83  86.4693
 41.1496  7703.72  86.4481
 41.1916  7550.29  85.909
 41.2336  7670.32  86.5835
 41.2756  7701.27  86.3703
 41.3176  7692.09  86.9123
 41.3596  7636.65  86.3449
 41.4016  7591.59  86.3326
 41.4436  7667.05  86.5571
 41.4856  7558.61  86.1092
 41.5276  7551.79  86.0716
 41.5696  7729.28  86.7047
 41.6116  7705.67  86.9778
 41.6536  7569.22  86.0635
 41.6956  7775.26  87.2143
 41.7376  7525.62  85.892
 41.7796  7581.69  86.144
 41.8216  7602.75  86.4518
 41.8636  7603.14  86.3981
 41.9056  7551.3  85.8962
 41.9476  7683.78  86.881
 41.9896  7705.85  86.6753
 42.0316  7643.49  86.4107
 42.0736  7669.96  86.6903
 42.1156  7504.36  85.5596
 42.1576  7601.9  86.2155
 42.1996  7781.54  87.3574
 42.2416  7567.96  85.7457
 42.2836  7583.2  85.9529
 42.3256  7479.85  85.4704
 42.3676  7733.47  86.6981
 42.4096  7533.43  85.553
 42.4516  7631.96  86.1783
 42.4936  7571.81  85.9164
 42.5356  7501.31  85.6556
 42.5776  7684.33  86.6239
 42.6196  7618.15  86.2278
 42.6616  7372.79  85.077
 42.7036  7548.37  85.4765
 42.7456  7665.17  86.4846
 42.7876  7504.53  85.6507
 42.8296  7615.52  86.2023
 42.8716  7547.64  85.9182
 42.9136  7499.87  85.3984
 42.9556  7531.67  85.7425
 42.9976  7561.77  85.8907
 43.0396  7538.23  85.4815
 43.0816  7467.92  85.4612
 43.1236  7388.09  85.0521
 43.1656  7545.82  85.7805
 43.2076  7479.16  85.5065
 43.2496  7523.38  85.5857
 43.2916  7469.68  85.6324
 43.3336  7582.85  86.1082
 43.3756  7559.05  85.7472
 43.4176  7397.2  84.8963
 43.4596  7412  84.8449
 43.5016  7498.14  85.7214
 43.5436  7408.96  85.126
 43.5856  7347.14  84.7921
 43.6276  7434.12  85.1937
 43.6696  7401.69  85.1441
 43.7116  7432.37  84.9441
 43.7536  7426.73  85.4023
 43.7956  7248.41  85.5404
 43.8376  7235.49  84.036
 43.8796  7245.47  84.1627
 43.9216  7295.22  84.3727
 43.9636  7283.98  84.4003
 44.0056  7263.61  84.5208
 44.0476  7208.07  83.8275
 44.0896  7221.75  84.2514
 44.1316  7235.91  84.0151
 44.1736  7276.29  84.2276
 44.2156  7265.66  84.0314
 44.2576  7311.48  84.6031
 44.2996  7184.24  83.8454
 44.3416  7198.6  83.6793
 44.3836  7076.61  83.2958
 44.4256  7127.42  83.2352
 44.4676  7098.69  83.2292
 44.5096  7249.26  84.2484
 44.5516  7122.87  83.4731
 44.5936  7031.54  82.8935
 44.6356  7166.99  83.4315
 44.6776  7196.22  83.9204
 44.7196  7177.11  84.0653
 44.7616  7227.8  85.7072
 44.8036  7302.63  84.7757
 44.8456  7383.16  85.2447
 44.8876  7348.6  84.8854
 44.9296  7508.49  85.2523
 44.9716  7404.6  85.0906
 45.0136  7270.54  84.2497
 45.0556  7384.33  85.0033
 45.0976  7325.47  84.7089
 45.1396  7299.76  84.3168
 45.1816  7220.1  83.635
 45.2236  7340.15  84.4022
 45.2656  7224.52  84.2069
 45.3076  7212.36  83.9354
 45.3496  7237.13  84.3779
 45.3916  7143.23  84.0989
 45.4336  7318.04  84.9753
 45.4756  7179.94  84.0081
 45.5176  7362.83  84.7067
 45.5596  7392.84  84.9971
 45.6016  7292.55  84.8326
 45.6436  7234.21  83.6814
 45.6856  7278.76  84.5813
 45.7276  7214.08  86.0018
 45.7696  7264.63  85.5029
 45.8116  7199.5  84.5758
 45.8536  7228.25  84.643
 45.8956  7262.53  84.2034
 45.9376  7178.86  83.1881
 45.9796  7323.56  84.7121
 46.0216  7255.12  84.64
 46.0636  7345.54  84.3157
 46.1056  7362.23  84.4041
 46.1476  7282.01  84.5301
 46.1896  7266.46  84.5864
 46.2316  7177.6  83.9337
 46.2736  7230.39  84.4524
 46.3156  7345.25  84.8698
 46.3576  7186.66  84.1418
 46.3996  7047.78  83.4861
 46.4416  7275.41  84.3816
 46.4836  7197.46  84.304
 46.5256  7308.79  84.8909
 46.5676  7249.97  84.6583
 46.6096  7196.4  84.2794
 46.6516  7257.12  83.6896
 46.6936  7333.22  84.6211
 46.7356  7242.41  84.1747
 46.7776  7206.13  84.8054
 46.8196  7113.56  84.011
 46.8616  7075.28  83.5768
 46.9036  7061.98  83.1727
 46.9456  7031.45  82.6204
 46.9876  7143.88  83.3719
 47.0296  7091.76  83.7419
 47.0716  7073.28  83.4658
 47.1136  7162.86  83.6733
 47.1556  7191.92  83.7085
 47.1976  7130.71  83.4974
 47.2396  7071.49  83.4767
 47.2816  7062.85  83.1377
 47.3236  7057.37  83.4632
 47.3656  7193.82  84.2032
 47.4076  7182.32  83.8587
 47.4496  7069.56  83.365
 47.4916  7057.16  83.4755
 47.5336  7136.75  83.7674
 47.5756  7151.29  83.9202
 47.6176  7095.7  83.5412
 47.6596  7063.92  83.0813
 47.7016  7239.62  83.9163
 47.7436  7193.45  83.9835
 47.7856  7128.04  83.6215
 47.8276  7125.72  83.6529
 47.8696  7057.73  83.3409
 47.9116  7120.12  83.4281
 47.9536  7115.02  83.3349
 47.9956  7029.69  83.5402
 48.0376  7008.31  83.1987
 48.0796  7164.22  84.2406
 48.1216  7032.46  83.2845
 48.1636  7173.92  83.6893
 48.2056  7194.27  84.0734
 48.2476  7233.64  84.6138
 48.2896  7178.44  84.2041
 48.3316  7191.93  84.2068
 48.3736  7190.87  84.2389
 48.4156  7091.91  83.507
 48.4576  7133.55  84.0454
 48.4996  7126.44  83.468
 48.5416  7267.67  84.6132
 48.5836  7181.07  83.7806
 48.6256  7168.42  83.9117
 48.6676  7086.41  83.9475
 48.7096  7117.13  83.3793
 48.7516  7166.82  83.8309
 48.7936  6964.47  82.7071
 48.8356  7124.34  83.7019
 48.8776  7049.1  83.7477
 48.9196  7232.09  84.2774
 48.9616  7130.77  84.057
 49.0036  7103.69  84.2489
 49.0456  7113.13  84.2786
 49.0876  7094.18  83.8152
 49.1296  7106.57  83.9428
 49.1716  6986.07  83.1022
 49.2136  7132.85  83.8966
 49.2556  7097.19  83.7208
 49.2976  7133.05  83.9982
 49.3396  7041.89  83.5108
 49.3816  7165.88  83.682
 49.4236  7064.07  83.505
 49.4656  6924.34  82.6866
 49.5076  7078.3  83.3574
 49.5496  7042.05  83.0814
 49.5916  7120.87  83.5814
 49.6336  7024.16  83.2236
 49.6756  7104.7  83.9313
 49.7176  7028.48  83.4196
 49.7596  7107.45  83.8295
 49.8016  7164.71  83.9058
 49.8436  6992.05  83.184
 49.8856  7108.51  83.8866
 49.9276  7050.39  83.6371
 49.9696  7063.04  83.6938
 50.0116  7038.86  83.6734
 50.0536  7017.23  83.5012
 50.0956  6969.97  83.2919
 50.1376  6942.2  82.817
 50.1796  6991.75  83.3901
 50.2216  6960.32  83.1938
 50.2636  6978.39  82.9213
 50.3056  6944.26  82.8952
 50.3476  6887.47  82.5665
 50.3896  6955.57  82.9555
 50.4316  6910.74  82.5193
 50.4736  6911.73  82.7456
 50.5156  6922.09  82.7913
 50.5576  7046.72  83.3038
 50.5996  6932.67  82.9028
 50.6416  6875.03  82.4866
 50.6836  6937.59  82.9262
 50.7256  7010.87  83.2743
 50.7676  7118.95  84.2121
 50.8096  6920.18  82.5997
 50.8516  6933.81  83.0971
 50.8936  6876.34  82.5263
 50.9356  6977.37  83.2428
 50.9776  6890.34  82.8702
 51.0196  6760.27  82.2165
 51.0616  6879.32  82.2695
 51.1036  6870.76  82.5642
 51.1456  6955.86  82.9961
 51.1876  6847.41  81.6815
 51.2296  6812.66  82.1044
 51.2716  6830.94  81.9115
 51.3136  6772.83  82.0324
 51.3556  6742.59  81.4601
 51.3976  6780.23  81.8486
 51.4396  6638.58  81.2984
 51.4816  6695.3  81.4962
 51.5236  6752.92  81.9458
 51.5656  6733.02  81.4147
 51.6076  6754.09  81.6331
 51.6496  6653  81.1904
 51.6916  6704.36  81.8728
 51.7336  6693.97  81.8838
 51.7756  6715.07  81.7174
 51.8176  6713.06  81.7976
 51.8596  6762.07  82.1322
 51.9016  6861.26  82.3354
 51.9436  6779.93  83.3333
 51.9856  6756.12  83.592
 52.0276  6759.26  82.1016
 52.0696  6982.39  83.5172
 52.1116  6668.98  81.7336
 52.1536  6885.29  82.8913
 52.1956  6801.75  81.8915
 52.2376  6907.37  82.702
 52.2796  6799.63  81.873
 52.3216  6685.11  81.8572
 52.3636  6804.82  82.1621
 52.4056  6692.79  81.3471
 52.4476  6626.72  81.2997
 52.4896  6718.44  81.9163
 52.5316  6782.78  82.3602
 52.5736  6617.78  81.0574
 52.6156  6711.14  82.0423
 52.6576  6720.14  81.5105
 52.6996  6750.79  82.6965
 52.7416  6740.64  82.4839
 52.7836  6830.93  82.9331
 52.8256  6895.28  82.5258
 52.8676  6516.5  80.7954
 52.9096  6693.55  81.9513
 52.9516  6650.69  82.0818
 52.9936  6632.34  82.3533
 53.0356  6745.52  82.0631
 53.0776  6797.93  82.6789
 53.1196  6728.89  82.3576
 53.1616  6713.55  82.3149
 53.2036  6646.32  81.8611
 53.2456  6647.67  81.9766
 53.2876  6671.09  81.7963
 53.3296  6620.06  81.8257
 53.3716  6793.4  82.6324
 53.4136  6710.01  82.2782
 53.4556  6635.44  81.8437
 53.4976  6623.9  81.6174
 53.5396  6619.65  81.9937
 53.5816  6669.62  81.934
 53.6236  6538.36  81.4718
 53.6656  6615.14  81.5547
 53.7076  6832.3  82.8453
 53.7496  6731.37  82.3578
 53.7916  6727.82  82.4737
 53.8336  6689.55  82.1166
 53.8756  6758.96  83.105
 53.9176  6653.61  81.8108
 53.9596  6499.53  81.5893
 54.0016  6346.57  79.9667
 54.0436  6323.84  80.0309
 54.0856  6615.2  81.2852
 54.1276  6411.5  80.2143
 54.1696  6387.72  80.2293
 54.2116  6520.45  80.8026
 54.2536  6431.82  80.0725
 54.2956  6400.64  79.9233
 54.3376  6376.8  80.2617
 54.3796  6431.62  80.5046
 54.4216  6453.64  80.6947
 54.4636  6402.22  80.3318
 54.5056  6460.59  80.5051
 54.5476  6422.86  80.6081
 54.5896  6321.53  79.8073
 54.6316  6358.86  79.8941
 54.6736  6358.58  79.9413
 54.7156  6348.63  79.9476
 54.7576  6279.89  79.487
 54.7996  6428.02  80.5807
 54.8416  6377.48  80.314
 54.8836  6382.5  80.4269
 54.9256  6296.96  79.6696
 54.9676  6254.64  79.2463
 55.0096  6312.5  79.6724
 55.0516  6242.85  79.393
 55.0936  6249.4  79.1685
 55.1356  6195.25  78.8604
 55.1776  6414.66  80.4745
 55.2196  6316.66  79.6286
 55.2616  6438.34  80.6428
 55.3036  6243.62  79.5585
 55.3456  6092.47  78.7449
 55.3876  6224.62  79.3159
 55.4296  6181.67  79.0566
 55.4716  6298.22  79.8212
 55.5136  6211.54  79.0324
 55.5556  6401.93  80.2944
 55.5976  6289.43  79.6641
 55.6396  6169.67  78.7583
 55.6816  6240.07  79.1415
 55.7236  6239.21  79.3002
 55.7656  6249.16  78.9741
 55.8076  6135.04  78.2702
 55.8496  6314.9  79.8457
 55.8916  6184.3  79.0774
 55.9336  6252.1  79.3718
 55.9756  6109.03  78.3305
 56.0176  6136.28  78.6591
 56.0596  6139.05  78.6731
 56.1016  6028.99  78.0109
 56.1436  6144.2  78.96
 56.1856  6053.82  78.1398
 56.2276  6321.03  79.8938
 56.2696  6178.99  78.9792
 56.3116  6233.71  79.6936
 56.3536  6183.11  79.0232
 56.3956  6033.45  78.0404
 56.4376  6050.49  78.2041
 56.4796  5991.77  77.6528
 56.5216  6036.34  78.3189
 56.5636  6105.18  78.3366
 56.6056  6175.58  79.0227
 56.6476  6057.43  77.8728
 56.6896  6176.07  79.102
 56.7316  6162.44  78.9369
 56.7736  6089.18  78.4535
 56.8156  6061.27  78.2891
 56.8576  5863.41  76.9457
 56.8996  6149.17  78.6944
 56.9416  5998.52  77.8818
 56.9836  6050.96  77.896
 57.0256  6012.53  77.9791
 57.0676  6134.82  78.8581
 57.1096  6118.74  78.5752
 57.1516  5984.06  77.7021
 57.1936  6033.74  77.823
 57.2356  5951.22  77.6141
 57.2776  6053.59  78.2546
 57.3196  6055.57  78.5844
 57.3616  6024.28  77.8952
 57.4036  6080.03  78.3045
 57.4456  6162.01  78.8077
 57.4876  5974.42  77.4838
 57.5296  5943.37  77.4978
 57.5716  5874.31  77.157
 57.6136  5810.04  76.5663
 57.6556  6002.92  77.9509
 57.6976  6076.23  78.2697
 57.7396  5911.94  77.5375
 57.7816  5845.41  77.4709
 57.8236  5954.13  77.9442
 57.8656  5977.6  77.8025
 57.9076  5982.42  77.8436
 57.9496  5926.41  77.8239
 57.9916  5950.64  77.4662
 58.0336  5982.33  77.9941
 58.0756  6001.27  77.7102
 58.1176  5963.19  77.5082
 58.1596  5798.05  76.9977
 58.2016  5667.15  75.3887
 58.2436  5734.28  76.2177
 58.2856  5686.96  75.8134
 58.3276  5733.35  76.4918
 58.3696  5701.04  76.0485
 58.4116  5649.72  75.563
 58.4536  5744.21  76.0851
 58.4956  5711.54  76.0398
 58.5376  5819.06  76.3339
 58.5796  5626.45  75.458
 58.6216  5563.3  74.87
 58.6636  5775.75  76.479
 58.7056  5663.2  75.6033
 58.7476  5645.8  75.9172
 58.7896  5741.82  76.2136
 58.8316  5711.82  76.0148
 58.8736  5676.96  75.7821
 58.9156  5607.5  75.3734
 58.9576  5740.99  76.4622
 58.9996  5784.12  76.1301
 59.0416  5619.06  75.3684
 59.0836  5750.04  76.1566
 59.1256  5639.92  75.8118
 59.1676  5569.21  75.9357
 59.2096  5657.77  75.838
 59.2516  5708.81  75.7721
 59.2936  5676.82  75.8775
 59.3356  5507.96  74.6238
 59.3776  5615.97  75.5148
 59.4196  5615.02  75.4459
 59.4616  5607.79  75.2632
 59.5036  5598.72  75.2366
 59.5456  5742.47  75.8972
 59.5876  5726.27  75.9761
 59.6296  5571.79  75.0107
 59.6716  5558.6  74.9774
 59.7136  5672.84  75.7326
 59.7556  5500.56  74.704
 59.7976  5567.67  74.9108
 59.8396  5607.62  75.0772
 59.8816  5644.8  75.8506
 59.9236  5796.97  76.5195
 59.9656  5604.84  75.4908
 60.0076  5596.55  74.8175
 60.0496  5631.91  75.5346
 60.0916  5803.82  76.1139
 60.1336  5684.6  76.402
 60.1756  5533.51  76.5129
 60.1996  0.0000000E+00  0.0000000E+00