File: docs/examples/opeando_xrd/IS17_D/Data/IS17_D/17_Db_f00085.xye
# /beamlines/bl04/projects/cycle2025-II/20250340211-lsimonelli/DATA/IS17_D/17_Db_f00085.xye : mythproc.py merge -s 0.006 -l 0.5 -f /beamlines/bl04/inhouse/ff/FlatField/ff_20Nov2024rod8mm60s_17keV.raw -b True -c true -o xye /beamlines/bl04/projects/cycle2025-II/20250340211-lsimonelli/DATA/IS17_D/17_Db_00085.dat
# IsMon = [6779408, 6779188, 6777252]  IsPos = [-1.4999, -2.4884, -3.4988]
# Wave = 0.4962  CalPath /beamlines/bl04/projects/cycle2025-II/20250340211-lsimonelli/DATA/Align/Si_Pos1_25keV_f00001.cal
# Date = 2025-09-24_17:22:26 Dt = 4.8000  Bin = 0.0060  <imon> = 6778616 +/- 969 (Min/Max) 6777252 / 6779408
# icurr 252.0537  mocoIn 1.7189E-05  mocoOut 0.8069  i15 7.10182e+06  imon 6.77862e+06  i7 5.0000  iEMpd_timer 4.8000  iEMpd_1 3.3486E-08  iEMpd_2 7.8215E-08  iEMpd_3 1.4722E-08  iEMpd_4 4.6918E-08  iEMhp_timer 4.8000  iEMhp_1 4.9238E-06  iEMhp_2 -2.5417E-08  iEMhp_3 -2.3826E-08  iEMhp_4 -2.2305E-08
#      9776
 1.5856  44493  216.583
 1.6276  50901.9  227.682
 1.6696  57118.6  240.334
 1.7116  64301.5  255.497
 1.7536  72029.1  269.262
 1.7956  75964.3  277.21
 1.8376  72693.1  271.606
 1.8796  62735.7  250.458
 1.9216  51857  228.621
 1.9636  44379.9  210.632
 2.0056  40421.4  200.239
 2.0476  37655.1  195.384
 2.0896  36318.5  190.76
 2.1316  35573.1  187.885
 2.1736  33537.7  183.878
 2.2156  34168.2  184.109
 2.2576  32926.6  181.381
 2.2996  31730.1  178.708
 2.3416  32159.1  178.475
 2.3836  31668.7  177.219
 2.4256  30371.6  174.118
 2.4676  30308.2  173.689
 2.5096  30205.1  173.45
 2.5516  29085  174.083
 2.5936  33443  182.908
 2.6356  28066.6  168.315
 2.6776  28088  167.259
 2.7196  27572.1  166.212
 2.7616  27490.6  165.755
 2.8036  27000  164.434
 2.8456  26936.5  164.888
 2.8876  26136.8  162.286
 2.9296  25742.2  161.189
 2.9716  25908.3  161.19
 3.0136  25457.7  159.851
 3.0556  25416.8  160.109
 3.0976  25453.4  159.129
 3.1396  25260.5  159.257
 3.1816  24896.7  158.044
 3.2236  24724.9  157.485
 3.2656  24462.4  155.697
 3.3076  24511.2  157.329
 3.3496  24476.2  156.141
 3.3916  25308.5  158.597
 3.4336  25139.1  158.652
 3.4756  25844  160.794
 3.5176  26346.6  162.115
 3.5596  26219.2  164.197
 3.6016  26342.6  162.184
 3.6436  25241.5  159.869
 3.6856  24979.7  157.336
 3.7276  24031.2  155.4
 3.7696  23870.1  155.071
 3.8116  23643.5  154.218
 3.8536  23784  154.61
 3.8956  23635.6  153.947
 3.9376  23481.6  153.715
 3.9796  23415.5  152.977
 4.0216  23553.9  152.467
 4.0636  23578.8  154.021
 4.1056  23406.8  153.119
 4.1476  23842.3  154.843
 4.1896  23778.1  154.496
 4.2316  24008  155.07
 4.2736  24368  156.026
 4.3156  24529.7  156.781
 4.3576  25257.9  158.984
 4.3996  25433.5  159.812
 4.4416  26024.3  161.237
 4.4836  26571.4  163.089
 4.5256  27112.1  165.353
 4.5676  27067.1  165.475
 4.6096  27613.4  165.77
 4.6516  27970.2  166.542
 4.6936  27963.3  167.36
 4.7356  28235.9  167.988
 4.7776  28031.9  167.213
 4.8196  27911.6  167.505
 4.8616  27278.4  165.083
 4.9036  27223.1  164.651
 4.9456  27109.1  164.959
 4.9876  26538.3  163.113
 5.0296  26808.5  163.783
 5.0716  26354.4  163.144
 5.1136  26738.3  164.046
 5.1556  27000.4  164.304
 5.1976  27860.9  166.887
 5.2396  27554.8  165.652
 5.2816  27612.3  166.308
 5.3236  27542.9  165.787
 5.3656  27006.3  165.107
 5.4076  26844  164.751
 5.4496  27008.8  164.753
 5.4916  27158  164.954
 5.5336  26972.2  164.4
 5.5756  27218.9  165.148
 5.6176  27070.7  164.149
 5.6596  27377  166.065
 5.7016  27424.9  165.465
 5.7436  27775.5  166.806
 5.7856  27592.7  166.324
 5.8276  27719.2  166.42
 5.8696  27888  167.094
 5.9116  27944.6  167.872
 5.9536  28250  168.519
 5.9956  28533.1  168.75
 6.0376  28573.2  169.494
 6.0796  28680.4  169.646
 6.1216  28638.6  169.726
 6.1636  29019.4  169.889
 6.2056  28744.3  169.769
 6.2476  29092.6  170.66
 6.2896  29058.5  170.239
 6.3316  28963.7  170.13
 6.3736  29097.7  170.42
 6.4156  29459.6  171.349
 6.4576  29543.9  171.224
 6.4996  29352.6  171.152
 6.5416  29615.2  172.047
 6.5836  29496.3  171.939
 6.6256  29436.8  171.323
 6.6676  29956.5  172.394
 6.7096  30150.9  173.808
 6.7516  30105.6  173.34
 6.7936  30552.2  174.024
 6.8356  30622.5  174.316
 6.8776  30759.2  175.519
 6.9196  31000.3  176.6
 6.9616  31439.9  177.286
 7.0036  31689.8  177.637
 7.0456  31647.6  176.824
 7.0876  31538.8  178.203
 7.1296  31742.9  177.899
 7.1716  31561.9  176.948
 7.2136  31376.9  176.205
 7.2556  31535.1  176.806
 7.2976  31838.3  178.146
 7.3396  31330.2  176.941
 7.3816  31388.2  177.323
 7.4236  31703.9  177.509
 7.4656  31854.7  177.397
 7.5076  32158.7  178.378
 7.5496  31806.8  177.947
 7.5916  32120.8  178.866
 7.6336  32450.8  179.666
 7.6756  32616.2  179.97
 7.7176  33073.9  181.55
 7.7596  32726.7  181.814
 7.8016  33840.3  187.137
 7.8436  33266.5  182.207
 7.8856  33422.6  182.259
 7.9276  33870.2  183.87
 7.9696  33942.7  184.371
 8.0116  35089.8  186.01
 8.0536  35114  186.314
 8.0956  35330.7  188.067
 8.1376  35641.6  188.371
 8.1796  35663.8  188.953
 8.2216  36462.7  189.819
 8.2636  36706.4  190.698
 8.3056  36606.3  191.208
 8.3476  37501.2  192.857
 8.3896  36798.6  191.114
 8.4316  37074  191.997
 8.4736  37283.5  192.01
 8.5156  36635.1  190.608
 8.5576  36500.1  191.214
 8.5996  36507.3  190.121
 8.6416  36444.7  191.204
 8.6836  36051.8  190.016
 8.7256  36473  190.561
 8.7676  36717.2  194.121
 8.8096  37219.5  192.727
 8.8516  36660.2  190.837
 8.8936  36498.5  190.376
 8.9356  36679.8  191.172
 8.9776  36536.2  190.887
 9.0196  36601.6  190.72
 9.0616  36361.6  189.603
 9.1036  36375.9  190.807
 9.1456  35756.4  188.513
 9.1876  35947.6  188.962
 9.2296  35607.4  187.508
 9.2716  35335  186.832
 9.3136  35735.4  187.879
 9.3556  35557.1  187.376
 9.3976  34504.5  185.092
 9.4396  34660.7  185.427
 9.4816  34672.9  185.314
 9.5236  34432.4  184.563
 9.5656  34229  184.38
 9.6076  33448.2  182.794
 9.6496  33877.8  183.854
 9.6916  33165.9  181.857
 9.7336  33513  182.587
 9.7756  33355.1  183.422
 9.8176  33002.6  181.947
 9.8596  33237.3  181.025
 9.9016  32619.3  179.333
 9.9436  32351.3  178.512
 9.9856  31996.1  177.799
 10.0276  31661.3  177.941
 10.0696  32046.3  178.052
 10.1116  31373.9  176.439
 10.1536  30994.3  175.516
 10.1956  30655.8  174.174
 10.2376  30469.5  173.152
 10.2796  30591.9  173.617
 10.3216  30202.8  172.791
 10.3636  30177.3  172.747
 10.4056  29599.8  171.49
 10.4476  30132.7  172.627
 10.4896  30459  173.005
 10.5316  29508.8  171.017
 10.5736  29276.3  170.746
 10.6156  29408.9  170.883
 10.6576  29864  170.744
 10.6996  28631.1  167.891
 10.7416  28403.1  167.439
 10.7836  28096  167.209
 10.8256  27571.2  166.066
 10.8676  27857.7  166.46
 10.9096  27637.7  165.839
 10.9516  27259.4  163.644
 10.9936  27460  164.458
 11.0356  26805.5  163.09
 11.0776  26995.5  163.001
 11.1196  26554.6  162.429
 11.1616  26140.8  160.824
 11.2036  26475.5  161.697
 11.2456  26342.6  162.006
 11.2876  26498.9  162.209
 11.3296  25945.5  160.424
 11.3716  26458.2  161.687
 11.4136  26401.8  162.402
 11.4556  26400.2  162.059
 11.4976  27134.6  163.273
 11.5396  26978.5  162.973
 11.5816  26379  161.593
 11.6236  25768.7  159.945
 11.6656  26015.4  159.855
 11.7076  25166  158.052
 11.7496  25123.1  161.928
 11.7916  25103.7  157.115
 11.8336  24582.6  156.364
 11.8756  24742.2  156.422
 11.9176  24623.8  155.714
 11.9596  24709  156.156
 12.0016  24278.7  155.556
 12.0436  24407  155.413
 12.0856  23971  154.525
 12.1276  23990.5  154.537
 12.1696  24109.7  154.033
 12.2116  24051.1  153.854
 12.2536  23952.7  154.354
 12.2956  23726.2  152.969
 12.3376  24051.2  154.216
 12.3796  23937.3  154.337
 12.4216  23840.1  153.212
 12.4636  23638.6  153.498
 12.5056  23901.9  153.62
 12.5476  24036.9  153.559
 12.5896  23599  152.807
 12.6316  23837.8  153.72
 12.6736  23645.7  153.588
 12.7156  23822.4  153.99
 12.7576  23855.9  154.37
 12.7996  23874.7  153.061
 12.8416  23556.5  153.087
 12.8836  23900.1  154.033
 12.9256  24286.6  154.303
 12.9676  24290.5  154.716
 13.0096  24312.5  155.906
 13.0516  24091.3  154.228
 13.0936  24382  155.565
 13.1356  24753.5  155.709
 13.1776  24212.5  155.007
 13.2196  24553.2  155.742
 13.2616  24078.8  154.544
 13.3036  24433.7  155.636
 13.3456  24001.4  154.599
 13.3876  24555.2  155.654
 13.4296  24194.3  154.669
 13.4716  24328.1  154.72
 13.5136  24265  154.641
 13.5556  24165.9  154.956
 13.5976  24309.1  155.589
 13.6396  24387  155.198
 13.6816  24309.2  155.418
 13.7236  24839.8  156.681
 13.7656  26273.3  161.596
 13.8076  27123.7  162.823
 13.8496  26628.2  162.01
 13.8916  24700.5  157.185
 13.9336  23845.9  153.72
 13.9756  23950.5  153.439
 14.0176  23584.8  152.935
 14.0596  23951.9  154.057
 14.1016  23644.1  153.48
 14.1436  23626  152.544
 14.1856  22937.3  150.603
 14.2276  22979.3  151.219
 14.2696  23213.4  151.843
 14.3116  22506.6  149.422
 14.3536  22340.9  149.031
 14.3956  22211.6  148.326
 14.4376  22449.1  148.898
 14.4796  22342.1  148.55
 14.5216  22021.4  148.258
 14.5636  22027.2  147.851
 14.6056  22138.4  147.786
 14.6476  21748.9  145.724
 14.6896  21539.3  145.564
 14.7316  21279.2  145.715
 14.7736  21209.5  144.618
 14.8156  21019.6  143.993
 14.8576  20961  143.642
 14.8996  20589.7  143.57
 14.9416  20116.3  141.925
 14.9836  20176.6  142.121
 15.0256  19495  138.628
 15.0676  19611.7  139.352
 15.1096  19341.4  138.13
 15.1516  19045.1  137.611
 15.1936  19084.5  137.192
 15.2356  18864.6  136.675
 15.2776  18878.1  136.318
 15.3196  18676.9  136.574
 15.3616  18527.6  135.792
 15.4036  18521  135.633
 15.4456  18665.8  135.805
 15.4876  18329.5  134.265
 15.5296  18287.8  134.389
 15.5716  18173.2  133.58
 15.6136  17789.9  132.485
 15.6556  17879.8  132.068
 15.6976  17869.4  132.315
 15.7396  17661.6  131.938
 15.7816  17569.6  131.11
 15.8236  17180.8  130.328
 15.8656  17409.9  130.992
 15.9076  17292.2  130.376
 15.9496  17875.8  135.36
 15.9916  17565.5  134.571
 16.0336  17811.5  132.384
 16.0756  17558  131.77
 16.1176  17309.5  130.909
 16.1596  16708.2  129.775
 16.2016  16893.7  129.264
 16.2436  16930.4  129.777
 16.2856  16785.5  128.749
 16.3276  16653.3  128.67
 16.3696  16921.2  129.528
 16.4116  16612.2  128.764
 16.4536  16712.1  128.973
 16.4956  16986.7  129.757
 16.5376  16624.7  128.562
 16.5796  16546.8  127.627
 16.6216  16548.3  127.904
 16.6636  16282.6  127.058
 16.7056  16432.5  127.496
 16.7476  16629.2  127.786
 16.7896  16453.6  127.855
 16.8316  16376.2  127.535
 16.8736  16508.1  128.295
 16.9156  16374.8  128.114
 16.9576  16234.6  128.345
 16.9996  16062  128.136
 17.0416  16287.8  127.413
 17.0836  16146.3  126.62
 17.1256  16091.5  126.413
 17.1676  16198.7  126.793
 17.2096  15957.8  125.744
 17.2516  15974.9  125.594
 17.2936  15899.2  125.646
 17.3356  15744.5  125.011
 17.3776  15727.1  125.142
 17.4196  15569.8  124.214
 17.4616  15437.8  123.598
 17.5036  15199.6  122.997
 17.5456  15316.7  124.106
 17.5876  15259.3  122.923
 17.6296  15355.6  123.142
 17.6716  15170.6  122.977
 17.7136  15250.5  123.425
 17.7556  15041.6  122.876
 17.7976  15164  123.109
 17.8396  15086.6  122.293
 17.8816  14826.4  121.797
 17.9236  14857.8  121.723
 17.9656  14753  121.82
 18.0076  14880.5  121.929
 18.0496  14907.3  121.173
 18.0916  15189.2  122.872
 18.1336  15111.6  122.654
 18.1756  15143.2  122.326
 18.2176  14868.5  121.425
 18.2596  14775.2  120.765
 18.3016  15018.8  122.028
 18.3436  15005.4  121.974
 18.3856  14912.8  121.724
 18.4276  14807.1  120.981
 18.4696  14698.1  120.627
 18.5116  14585.9  120.428
 18.5536  14640.8  121.025
 18.5956  14596.3  120.401
 18.6376  14405.5  120.012
 18.6796  14447.4  119.499
 18.7216  14388.2  119.74
 18.7636  14454.7  120.018
 18.8056  14182.3  118.814
 18.8476  13938.5  118.417
 18.8896  14113.4  118.494
 18.9316  14236.7  118.993
 18.9736  14211.2  118.583
 19.0156  14186.2  118.896
 19.0576  14280.4  118.126
 19.0996  14317.7  119.007
 19.1416  14058.7  118.319
 19.1836  13983.6  117.602
 19.2256  14127.6  118.431
 19.2676  13990.7  117.938
 19.3096  13818.7  117.464
 19.3516  13879.5  117.677
 19.3936  14009.5  118.121
 19.4356  14084.9  118.315
 19.4776  13980.2  117.966
 19.5196  13863.7  117.335
 19.5616  13806.4  117.349
 19.6036  13754.8  116.628
 19.6456  14025.9  117.893
 19.6876  13886.5  116.944
 19.7296  14010.8  117.923
 19.7716  13816.7  117.276
 19.8136  14174.8  118.978
 19.8556  14412.7  119.457
 19.8976  14379.3  119.376
 19.9396  14215.7  118.279
 19.9816  14435.8  119.45
 20.0236  14650  120.521
 20.0656  14438.4  119.657
 20.1076  14143.1  118.894
 20.1496  13907.3  117.894
 20.1916  14001.5  117.807
 20.2336  13826.9  117.002
 20.2756  13689.6  116.851
 20.3176  13294.6  114.901
 20.3596  13400.7  115.351
 20.4016  13403.5  115.154
 20.4436  13347  115.47
 20.4856  13310.8  115.107
 20.5276  13243.8  115.283
 20.5696  13412.1  115.454
 20.6116  13246.2  115.018
 20.6536  13191.2  114.304
 20.6956  13087.5  113.976
 20.7376  13034.5  113.952
 20.7796  13116  114.003
 20.8216  13188.8  114.035
 20.8636  13123  114.119
 20.9056  13085.9  113.883
 20.9476  13151.8  114.024
 20.9896  13324.9  114.638
 21.0316  13148.2  113.78
 21.0736  13067.5  113.953
 21.1156  13097.2  114.246
 21.1576  13133  114.441
 21.1996  12939.9  113.58
 21.2416  13056.6  113.903
 21.2836  13094.8  114.055
 21.3256  12956.1  113.519
 21.3676  12944.2  113.021
 21.4096  12924.6  113.245
 21.4516  12830  112.702
 21.4936  12633.5  112.096
 21.5356  12869.8  113.09
 21.5776  12927.5  113.177
 21.6196  12762.6  112.497
 21.6616  12728.7  112.423
 21.7036  12779.4  112.415
 21.7456  12841.3  112.77
 21.7876  12666.7  111.762
 21.8296  12650  111.53
 21.8716  12700.2  111.972
 21.9136  12754.1  112.417
 21.9556  12738.9  112.035
 21.9976  12565  111.293
 22.0396  12540.7  111.435
 22.0816  12605  112.254
 22.1236  12688.4  112.08
 22.1656  12540.6  111.569
 22.2076  12486.6  110.794
 22.2496  12438.6  110.604
 22.2916  12288.8  109.826
 22.3336  12284.3  110.514
 22.3756  12359.1  110.578
 22.4176  12169.2  109.58
 22.4596  12190  110.255
 22.5016  12119.7  109.448
 22.5436  12322.6  110.24
 22.5856  12486.5  111.212
 22.6276  12542  111.59
 22.6696  12337.9  111.037
 22.7116  12351  110.603
 22.7536  12274.8  110.243
 22.7956  12432.7  110.281
 22.8376  12161.9  109.597
 22.8796  12255.1  109.813
 22.9216  12460.9  111.279
 22.9636  12264.3  109.556
 23.0056  12357.5  110.105
 23.0476  12241.1  110.151
 23.0896  12541.6  110.873
 23.1316  12298.2  110.224
 23.1736  12541.3  114.235
 23.2156  12679.6  112.247
 23.2576  12746.8  112.672
 23.2996  12552.6  111.59
 23.3416  12721.6  112.865
 23.3836  12524.6  111.223
 23.4256  12799.3  112.557
 23.4676  12444.8  110.684
 23.5096  12696.7  112.454
 23.5516  12613.7  111.385
 23.5936  12530.5  111.931
 23.6356  12786.1  112.729
 23.6776  12357.1  111.034
 23.7196  12465.4  111.087
 23.7616  12487.1  111.112
 23.8036  12769.5  112.411
 23.8456  12321.5  109.983
 23.8876  12475.1  111.01
 23.9296  12307.3  110.758
 23.9716  12272.9  109.807
 24.0136  12267.7  110.685
 24.0556  12297.1  110.526
 24.0976  12331.8  110.505
 24.1396  11899.7  111.135
 24.1816  12276.8  111.298
 24.2236  12098.4  110.09
 24.2656  12046.5  109.35
 24.3076  12112.3  109.915
 24.3496  12009.3  109.322
 24.3916  12094.1  109.756
 24.4336  11916.2  109.153
 24.4756  11949.9  109.193
 24.5176  11727.2  107.791
 24.5596  11806.4  108.286
 24.6016  11799.5  108.547
 24.6436  11909.6  108.561
 24.6856  11805.1  107.817
 24.7276  11641.8  107.4
 24.7696  11839  108.417
 24.8116  11541.2  107.227
 24.8536  11607.1  107.532
 24.8956  11488.8  106.712
 24.9376  11533.4  106.861
 24.9796  11457.3  106.864
 25.0216  11413.8  106.775
 25.0636  11491.2  106.789
 25.1056  11219.9  106.211
 25.1476  11233.2  107.901
 25.1896  11268  106.592
 25.2316  11195.4  105.525
 25.2736  11144  104.934
 25.3156  11191.5  105.233
 25.3576  11104.5  105.253
 25.3996  11172.6  105.563
 25.4416  11073  105.065
 25.4836  11012.9  105.295
 25.5256  10917.9  104.204
 25.5676  11038.3  104.511
 25.6096  10887.4  104.369
 25.6516  10957.4  104.212
 25.6936  11110.5  105.252
 25.7356  11009.2  104.907
 25.7776  11000.1  104.463
 25.8196  10752.9  103.513
 25.8616  10769.8  103.535
 25.9036  10997.2  104.07
 25.9456  10897.5  104.193
 25.9876  10751.5  103.559
 26.0296  10970.9  104.127
 26.0716  10937.3  104.389
 26.1136  10829.2  103.807
 26.1556  10917.9  103.62
 26.1976  10854.8  104.248
 26.2396  10825.9  103.258
 26.2816  10890.1  104.172
 26.3236  10853.8  104.158
 26.3656  11006.8  104.609
 26.4076  10843.7  104.036
 26.4496  11032.4  104.527
 26.4916  10976.8  104.139
 26.5336  11374.4  106.377
 26.5756  11722.6  107.876
 26.6176  10918.2  104.128
 26.6596  10812.8  103.934
 26.7016  10740  103.342
 26.7436  10800.7  103.757
 26.7856  10649.6  103.022
 26.8276  10672.2  103.097
 26.8696  10535  102.305
 26.9116  10534.6  102.24
 26.9536  10454.7  101.9
 26.9956  10411.4  101.726
 27.0376  10572.3  102.725
 27.0796  10436.1  101.789
 27.1216  10534.1  102.323
 27.1636  10394.8  101.824
 27.2056  10441.9  101.934
 27.2476  10423  101.831
 27.2896  10291.4  101.301
 27.3316  10368.5  101.402
 27.3736  10218.6  100.94
 27.4156  10374.7  101.534
 27.4576  10315  101.466
 27.4996  10390.9  101.445
 27.5416  10310.7  101.362
 27.5836  10143.5  100.377
 27.6256  10348.5  101.557
 27.6676  10235.3  100.999
 27.7096  10293  101.168
 27.7516  10252.4  101.112
 27.7936  10532.6  102.623
 27.8356  10394.3  101.566
 27.8776  10460.4  101.949
 27.9196  10154.6  100.31
 27.9616  10184.9  100.659
 28.0036  10213  100.759
 28.0456  10062.4  100.151
 28.0876  10061.5  100.23
 28.1296  10086.8  100.181
 28.1716  10147.1  100.507
 28.2136  10125  100.366
 28.2556  10020  99.9489
 28.2976  9921.33  99.4582
 28.3396  10014.6  99.6814
 28.3816  9952.01  99.379
 28.4236  9933.36  99.4462
 28.4656  9853.04  99.0795
 28.5076  9899.04  98.952
 28.5496  9831.58  98.863
 28.5916  9892.03  98.9872
 28.6336  9805.79  98.8864
 28.6756  9950.84  98.8161
 28.7176  9851.4  98.8762
 28.7596  9690.92  97.9642
 28.8016  9804.7  98.5712
 28.8436  9816.92  98.8771
 28.8856  9898.13  99.1308
 28.9276  9729.82  98.5351
 28.9696  9728.67  98.1907
 29.0116  9755.29  98.5011
 29.0536  9549.06  97.6646
 29.0956  9695.9  98.1124
 29.1376  9591.88  97.5445
 29.1796  9610.15  97.6978
 29.2216  9630.7  97.6413
 29.2636  9675.28  97.9431
 29.3056  9642.44  97.5576
 29.3476  9620.44  97.9676
 29.3896  9686.47  98.4265
 29.4316  9512.77  96.8783
 29.4736  9438.11  96.5633
 29.5156  9621.49  97.4133
 29.5576  9389.58  96.9625
 29.5996  9304.06  95.7944
 29.6416  9283.22  95.8007
 29.6836  9353.56  96.0941
 29.7256  9452.32  97.1613
 29.7676  9283.74  95.9576
 29.8096  9381.21  96.4034
 29.8516  9277.02  96.1977
 29.8936  9197.24  95.8696
 29.9356  9210.64  95.6963
 29.9776  9129.88  95.4309
 30.0196  9233.01  95.3662
 30.0616  9393.21  96.5612
 30.1036  9279.51  95.7974
 30.1456  9113.12  95.1682
 30.1876  9261.69  95.9133
 30.2296  9062.41  94.8349
 30.2716  9307.24  95.745
 30.3136  9272.83  96.4157
 30.3556  9421.1  97.18
 30.3976  9375.91  98.4387
 30.4396  9643.02  97.17
 30.4816  9521.76  96.1697
 30.5236  9535.1  96.2408
 30.5656  9302.35  95.7133
 30.6076  9560.29  96.4277
 30.6496  9346.66  95.7515
 30.6916  9232.27  95.2645
 30.7336  9460.93  96.5836
 30.7756  9555.66  97.1435
 30.8176  9387.11  96.2083
 30.8596  9382.93  95.9321
 30.9016  9428.66  96.5298
 30.9436  9340.03  95.8234
 30.9856  9610.41  97.3075
 31.0276  9345.82  95.5966
 31.0696  9337.68  96.1144
 31.1116  9319.89  95.9883
 31.1536  9259.45  95.5487
 31.1956  9262.02  95.66
 31.2376  9139.06  95.0446
 31.2796  9393.11  95.8884
 31.3216  9318.08  95.4428
 31.3636  9338.91  96.2411
 31.4056  9372.94  97.7392
 31.4476  9311.92  95.3109
 31.4896  9245.99  95.4783
 31.5316  9257.54  94.9465
 31.5736  9449.94  95.7576
 31.6156  9301.97  95.0086
 31.6576  9408.66  95.6388
 31.6996  9413.69  95.329
 31.7416  9325.39  95.9689
 31.7836  9478.55  95.7439
 31.8256  9315.48  95.1783
 31.8676  9475.54  95.9907
 31.9096  9234.8  95.1295
 31.9516  8980.26  93.9756
 31.9936  8969.76  93.742
 32.0356  9301.38  95.5065
 32.0776  9332.72  95.5669
 32.1196  9276.56  95.3875
 32.1616  9248.23  94.6864
 32.2036  9347.24  95.7119
 32.2456  9181.42  95.2366
 32.2876  9175.77  94.7084
 32.3296  9152.28  94.5437
 32.3716  8907.67  93.3897
 32.4136  8997.66  94.0706
 32.4556  9047.51  93.71
 32.4976  9052.78  93.6557
 32.5396  8975.94  93.3167
 32.5816  8962.64  93.3655
 32.6236  8936.31  93.2834
 32.6656  9033.64  94.3434
 32.7076  8969.69  93.6719
 32.7496  8866.6  92.8047
 32.7916  9019.5  93.5642
 32.8336  8893.8  92.9976
 32.8756  9032.12  93.4366
 32.9176  8739.35  92.3964
 32.9596  8892.67  93.2691
 33.0016  8895.46  93.0564
 33.0436  8928.32  93.4097
 33.0856  8899.62  93.3515
 33.1276  8694.32  91.9945
 33.1696  8915.37  92.9855
 33.2116  8873.72  93.0119
 33.2536  9026.13  93.7871
 33.2956  8866.77  93.0501
 33.3376  8774.64  92.305
 33.3796  8774.79  92.5275
 33.4216  8871.37  92.6243
 33.4636  8759.21  92.192
 33.5056  8724.67  92.2504
 33.5476  8794.76  92.5974
 33.5896  8833.98  92.5963
 33.6316  8748.7  92.4475
 33.6736  8595  91.8888
 33.7156  8748.25  92.7279
 33.7576  8792.2  92.6108
 33.7996  8868.93  92.7728
 33.8416  8602.32  91.5526
 33.8836  8588.54  91.258
 33.9256  8782.86  92.3341
 33.9676  8804.7  92.3496
 34.0096  8676.64  91.9866
 34.0516  8712.03  91.8091
 34.0936  8658.79  91.8036
 34.1356  8757.71  92.0663
 34.1776  8556.46  91.0012
 34.2196  8668.54  91.7807
 34.2616  8501.79  91.0311
 34.3036  8642.06  92.014
 34.3456  8658.21  91.8626
 34.3876  8693.13  92.0183
 34.4296  8640.72  91.431
 34.4716  8663.68  91.7006
 34.5136  8633.58  91.725
 34.5556  8451.88  91.0256
 34.5976  8671.33  92.0069
 34.6396  8526.24  90.945
 34.6816  8611.06  91.5019
 34.7236  8588.69  91.1629
 34.7656  8543.68  91.1326
 34.8076  8580.55  91.6568
 34.8496  8397  90.5264
 34.8916  8543.92  91.1675
 34.9336  8545.54  91.1679
 34.9756  8439.36  90.5098
 35.0176  8554.05  91.6564
 35.0596  8607.08  91.7625
 35.1016  8558.46  91.2625
 35.1436  8734.54  91.8837
 35.1856  8502.7  90.7745
 35.2276  8450.25  90.672
 35.2696  8537.39  91.3195
 35.3116  8482.16  91.1366
 35.3536  8476.17  90.7983
 35.3956  8343.4  89.8092
 35.4376  8572.65  91.592
 35.4796  8354.62  90.4741
 35.5216  8460.49  91.0036
 35.5636  8188.32  90.2567
 35.6056  8327.35  90.0458
 35.6476  8444.92  90.5785
 35.6896  8396.18  90.4151
 35.7316  8132.65  88.96
 35.7736  8322.88  90.178
 35.8156  8464.82  90.9448
 35.8576  8421.99  90.9617
 35.8996  8501.05  91.3582
 35.9416  8408.73  90.348
 35.9836  8346.97  90.3755
 36.0256  8611.51  91.8058
 36.0676  8502.59  90.9821
 36.1096  8352.31  90.3202
 36.1516  8463.96  90.8237
 36.1936  8443.72  90.5364
 36.2356  8325.65  90.5609
 36.2776  8382.38  90.3468
 36.3196  8258.98  89.3499
 36.3616  8309.26  89.7461
 36.4036  8313.39  89.8418
 36.4456  8310.3  90.0294
 36.4876  8175.32  89.2356
 36.5296  8343.75  90.1872
 36.5716  8270.89  90.5717
 36.6136  8338.11  89.727
 36.6556  8229.01  89.333
 36.6976  8068.2  88.9487
 36.7396  8071.29  88.6916
 36.7816  8123.48  89.359
 36.8236  8083.75  89.0603
 36.8656  8010.64  88.7294
 36.9076  8045.46  88.7921
 36.9496  7947.98  88.2543
 36.9916  8014.28  88.2515
 37.0336  8149.52  89.3087
 37.0756  8128.43  88.9819
 37.1176  8016.44  88.6364
 37.1596  7894.41  87.9636
 37.2016  7984.77  88.69
 37.2436  8043.85  88.3269
 37.2856  7932.45  87.9754
 37.3276  7997.22  87.6974
 37.3696  7907.81  88.0708
 37.4116  7974.93  88.3586
 37.4536  7834.57  87.4451
 37.4956  7751.52  87.022
 37.5376  8179.8  90.986
 37.5796  7986.67  89.823
 37.6216  8020.05  88.2966
 37.6636  8139.47  88.8388
 37.7056  8130.31  88.9815
 37.7476  8177.28  88.7738
 37.7896  7907.22  87.8044
 37.8316  8026.29  88.5999
 37.8736  8077.88  88.4332
 37.9156  8119.44  88.6437
 37.9576  8069.55  88.2882
 37.9996  7910.49  87.1279
 38.0416  8061.45  88.762
 38.0836  8070.63  88.7137
 38.1256  7941.83  87.9799
 38.1676  7902.5  87.877
 38.2096  8099  88.5689
 38.2516  7920.32  87.8118
 38.2936  8102.22  88.6034
 38.3356  7993.64  87.9522
 38.3776  7926.96  87.8313
 38.4196  7948.09  87.8111
 38.4616  7940.4  88.0019
 38.5036  8118.46  88.8284
 38.5456  7916.25  88.5394
 38.5876  7884.49  88.3788
 38.6296  7934.22  87.633
 38.6716  8009.5  87.8537
 38.7136  7942.21  87.4292
 38.7556  7934.65  87.892
 38.7976  8111.44  88.7937
 38.8396  7865.79  87.8968
 38.8816  7779.78  87.2077
 38.9236  8002.47  88.2453
 38.9656  7988.41  88.0659
 39.0076  8037.09  87.7473
 39.0496  8032.72  88.2775
 39.0916  8032.42  87.9198
 39.1336  7899.83  87.5952
 39.1756  8016.79  88.3066
 39.2176  7914.72  88.2753
 39.2596  7949.7  88.3946
 39.3016  7922.78  87.8326
 39.3436  7918.73  88.2123
 39.3856  7998.88  88.1111
 39.4276  8058.82  88.9489
 39.4696  7932.99  87.874
 39.5116  8005.05  88.7883
 39.5536  7991.47  89.1343
 39.5956  7885.24  87.649
 39.6376  7964.21  88.0933
 39.6796  7957.47  87.7922
 39.7216  7868.46  87.4108
 39.7636  7908.66  88.1828
 39.8056  7939.95  88.1493
 39.8476  7781.66  87.5206
 39.8896  7903.41  87.8312
 39.9316  7831.73  87.6674
 39.9736  7905.39  87.6644
 40.0156  7903.97  87.4884
 40.0576  7888.06  87.7507
 40.0996  7914.54  87.0843
 40.1416  7898.28  87.7828
 40.1836  7998.04  88.2322
 40.2256  7925.93  87.8707
 40.2676  7847.22  87.5327
 40.3096  8067.28  88.6786
 40.3516  7935.24  88.0669
 40.3936  8032.14  88.1476
 40.4356  7873.69  87.4863
 40.4776  7925.76  88.1786
 40.5196  7969.72  88.5483
 40.5616  7966.87  88.1681
 40.6036  7898.08  88.0482
 40.6456  7859.8  87.4498
 40.6876  8051.79  88.4981
 40.7296  7897.73  87.7817
 40.7716  7927.4  88.0583
 40.8136  7827.02  87.4464
 40.8556  7975.51  88.408
 40.8976  8072.83  88.869
 40.9396  7893.1  88.2152
 40.9816  7934.21  87.7429
 41.0236  8009.56  87.9438
 41.0656  8021.55  88.5402
 41.1076  7939.45  87.8682
 41.1496  7911.12  87.6169
 41.1916  7797.96  87.2938
 41.2336  7895.2  87.8418
 41.2756  7934.5  87.6654
 41.3176  7885.93  88.0042
 41.3596  7848.93  87.5333
 41.4016  7793.5  87.4838
 41.4436  7933.39  88.0401
 41.4856  7919.94  88.1408
 41.5276  7874.12  87.898
 41.5696  7881.18  87.5712
 41.6116  7985.62  88.5389
 41.6536  7911.5  87.9848
 41.6956  8014.57  88.6209
 41.7376  7919.42  88.1242
 41.7796  7885.4  87.8227
 41.8216  7917.49  88.2201
 41.8636  7873  87.9174
 41.9056  7836.97  87.5097
 41.9476  7823.23  87.665
 41.9896  8084.13  88.7782
 42.0316  7955.73  88.1562
 42.0736  7939.01  88.1647
 42.1156  7875.45  87.6502
 42.1576  7891.35  87.8445
 42.1996  7890.3  87.9657
 42.2416  7898.72  87.6043
 42.2836  7764.63  86.9712
 42.3256  7721.76  86.8443
 42.3676  8029.02  88.3499
 42.4096  7859.23  87.3846
 42.4516  7930.66  87.8554
 42.4936  7899.95  87.7615
 42.5356  7829.27  87.5064
 42.5776  7915.95  87.9215
 42.6196  7839.53  87.556
 42.6616  7795.58  87.4853
 42.7036  7880.92  87.3313
 42.7456  7862.19  87.5885
 42.7876  7710.67  86.8357
 42.8296  7809.86  87.2369
 42.8716  7730.42  86.9538
 42.9136  7853.87  87.4305
 42.9556  7857.99  87.5863
 42.9976  7812.09  87.296
 43.0396  7777.41  86.8284
 43.0816  7851.93  87.6326
 43.1236  7754.95  87.1389
 43.1656  7738.54  86.8664
 43.2076  7718.03  86.862
 43.2496  7778.47  87.0274
 43.2916  7727.37  87.1008
 43.3336  7764.61  87.1403
 43.3756  7820.73  87.2111
 43.4176  7681.85  86.5081
 43.4596  7723.84  86.6085
 43.5016  7745.98  87.1365
 43.5436  7826.42  87.4937
 43.5856  7732.04  86.9951
 43.6276  7753.04  86.9943
 43.6696  7655.85  86.7069
 43.7116  7790.7  86.9645
 43.7536  7776.9  87.3812
 43.7956  7582.53  87.4959
 43.8376  7729  86.8456
 43.8796  7479.72  85.5182
 43.9216  7523.78  85.6803
 43.9636  7530.37  85.8347
 44.0056  7510.19  85.947
 44.0476  7479.22  85.4046
 44.0896  7380.55  85.1783
 44.1316  7696.14  86.5004
 44.1736  7481.68  85.4059
 44.2156  7545.53  85.6273
 44.2576  7520.09  85.8059
 44.2996  7596.86  86.2123
 44.3416  7611.12  86.0609
 44.3836  7449.32  85.4675
 44.4256  7384.6  84.7402
 44.4676  7400.79  84.9876
 44.5096  7389.71  85.0667
 44.5516  7438.56  85.3133
 44.5936  7397.35  85.0284
 44.6356  7618.92  86.0289
 44.6776  7491.02  85.6156
 44.7196  7452.56  85.7074
 44.7616  7452.3  87.0208
 44.8036  7638.24  86.5174
 44.8456  7658.11  86.8333
 44.8876  7555.6  86.0941
 44.9296  7711.27  86.4213
 44.9716  7623.18  86.3364
 45.0136  7668.74  86.5563
 45.0556  7727.63  86.8583
 45.0976  7563.63  86.0788
 45.1396  7518  85.5892
 45.1816  7488.74  85.3611
 45.2236  7738.48  86.6773
 45.2656  7592.73  86.3559
 45.3076  7558.99  85.9483
 45.3496  7484.2  85.8319
 45.3916  7521.02  86.3106
 45.4336  7570.92  86.4254
 45.4756  7570.27  86.2882
 45.5176  7682.12  86.5328
 45.5596  7625.85  86.3337
 45.6016  7510.84  86.1092
 45.6436  7445.66  84.9079
 45.6856  7502.34  85.8795
 45.7276  7343.07  86.2849
 45.7696  7562.92  87.2409
 45.8116  7527.55  86.4522
 45.8536  7519.87  86.3099
 45.8956  7562.54  85.8979
 45.9376  7544.03  85.2567
 45.9796  7468.8  85.5164
 46.0216  7519.99  86.1401
 46.0636  7607.19  85.786
 46.1056  7558.87  85.4986
 46.1476  7451.31  85.4799
 46.1896  7542.51  86.152
 46.2316  7549.52  86.0548
 46.2736  7270.96  84.8299
 46.3156  7449.26  85.4434
 46.3576  7558.42  86.2751
 46.3996  7542.31  86.3391
 46.4416  7558.03  85.9976
 46.4836  7441.66  85.6952
 46.5256  7634.36  86.7376
 46.5676  7454.46  85.8253
 46.6096  7399.08  85.4261
 46.6516  7560.62  85.4009
 46.6936  7438.51  85.2028
 46.7356  7591.58  86.1743
 46.7776  7358.39  85.6929
 46.8196  7448.63  85.8011
 46.8616  7275.42  84.76
 46.9036  7258.45  84.3103
 46.9456  7397.06  84.7504
 46.9876  7389.44  84.795
 47.0296  7360.78  85.323
 47.0716  7259.09  84.5532
 47.1136  7340.49  84.6994
 47.1556  7428.88  85.0762
 47.1976  7529.15  85.7288
 47.2396  7284.3  84.7251
 47.2816  7395.1  85.0643
 47.3236  7494.82  86.012
 47.3656  7364.1  85.1915
 47.4076  7355.67  84.9462
 47.4496  7296.85  84.696
 47.4916  7391.65  85.4357
 47.5336  7393.94  85.2636
 47.5756  7403.39  85.436
 47.6176  7422.53  85.446
 47.6596  7269.1  84.2686
 47.7016  7459.96  85.1792
 47.7436  7422.08  85.3023
 47.7856  7428.24  85.367
 47.8276  7349.33  84.9661
 47.8696  7340.19  84.9976
 47.9116  7535.78  85.8322
 47.9536  7338.89  84.6467
 47.9956  7297.82  85.1202
 48.0376  7224.01  84.4606
 48.0796  7423.56  85.7512
 48.1216  7288.59  84.7864
 48.1636  7390.72  84.9428
 48.2056  7395.74  85.2422
 48.2476  7546.92  86.4225
 48.2896  7348.73  85.1897
 48.3316  7324.23  84.9927
 48.3736  7386.54  85.3751
 48.4156  7304.25  84.7461
 48.4576  7365.72  85.4033
 48.4996  7435.7  85.2503
 48.5416  7431.53  85.5571
 48.5836  7343.6  84.7194
 48.6256  7481.68  85.7176
 48.6676  7319.59  85.313
 48.7096  7377.86  84.9041
 48.7516  7363.08  84.9809
 48.7936  7273.24  84.5203
 48.8356  7332.53  84.9167
 48.8776  7448.54  86.1662
 48.9196  7379.74  85.1278
 48.9616  7348.94  85.3389
 49.0036  7322.4  85.5329
 49.0456  7282.49  85.2774
 49.0876  7397.24  85.475
 49.1296  7199.3  84.4907
 49.1716  7139.13  84.0121
 49.2136  7306.95  84.8874
 49.2556  7385.46  85.4022
 49.2976  7300.25  84.9791
 49.3396  7221.83  84.5772
 49.3816  7403.81  85.0543
 49.4236  7291.94  84.8386
 49.4656  7207.61  84.3672
 49.5076  7304.08  84.6732
 49.5496  7246.66  84.4038
 49.5916  7361.66  84.9866
 49.6336  7261.14  84.6085
 49.6756  7471.14  86.0551
 49.7176  7270.94  84.846
 49.7596  7252.91  84.5085
 49.8016  7304.15  84.7248
 49.8436  7249.72  84.7102
 49.8856  7274.43  84.8495
 49.9276  7143.24  84.186
 49.9696  7249.82  84.792
 50.0116  7251.98  84.9262
 50.0536  7226.94  84.7389
 50.0956  7166.63  84.4607
 50.1376  7254.08  84.6625
 50.1796  7191.53  84.5775
 50.2216  7174.02  84.4649
 50.2636  7156.15  83.971
 50.3056  7125.08  83.9672
 50.3476  7228.04  84.5855
 50.3896  7177.34  84.2683
 50.4316  7304.03  84.8374
 50.4736  7155.64  84.187
 50.5156  7229.31  84.6206
 50.5576  7301.56  84.7887
 50.5996  7241.43  84.7295
 50.6416  7134.55  84.0161
 50.6836  7220.76  84.5878
 50.7256  7230.7  84.5829
 50.7676  7239.95  84.9493
 50.8096  7176.14  84.0922
 50.8516  7187.19  84.602
 50.8936  7018.1  83.3721
 50.9356  7283.36  85.0485
 50.9776  7151.09  84.4349
 51.0196  7021.59  83.7979
 51.0616  7085.1  83.4852
 51.1036  7109.79  83.9987
 51.1456  7206.17  84.4728
 51.1876  7010.46  82.6476
 51.2296  7153.88  84.1461
 51.2716  7018.79  83.0502
 51.3136  7003.74  83.4255
 51.3556  6951.47  82.7313
 51.3976  7045.77  83.4419
 51.4396  6871.74  82.7178
 51.4816  6917.81  82.848
 51.5236  7041.96  83.6731
 51.5656  7053.49  83.3341
 51.6076  7042.69  83.351
 51.6496  6980.96  83.1845
 51.6916  6936.69  83.2739
 51.7336  6922.9  83.2934
 51.7756  7032.56  83.6319
 51.8176  6934.64  83.1646
 51.8596  6833.26  82.5653
 51.9016  7070.12  83.5843
 51.9436  7078.91  85.1464
 51.9856  7074.13  85.5427
 52.0276  7102.94  84.1848
 52.0696  7090.79  84.1751
 52.1116  6948.83  83.4591
 52.1536  7022.18  83.7692
 52.1956  7079.91  83.5745
 52.2376  7167.75  84.2622
 52.2796  7072.62  83.5151
 52.3216  6937.01  83.4139
 52.3636  6956.74  83.0593
 52.4056  6872.46  82.4354
 52.4476  6991.23  83.5234
 52.4896  6819.77  82.5424
 52.5316  6997.01  83.6561
 52.5736  6859.43  82.5506
 52.6156  7017.04  83.8938
 52.6576  6955.02  82.9532
 52.6996  6774.74  82.8664
 52.7416  6852.39  83.1923
 52.7836  6919.93  83.4872
 52.8256  6965.19  82.9585
 52.8676  6743.34  82.2013
 52.9096  6927.19  83.3913
 52.9516  6915.94  83.7224
 52.9936  6919.36  84.1064
 53.0356  7023.59  83.7101
 53.0776  6850.43  82.9556
 53.1196  6865.35  83.1672
 53.1616  6916.16  83.5246
 53.2036  6932.47  83.5855
 53.2456  6868.71  83.3063
 53.2876  6953.13  83.4943
 53.3296  7002.92  84.1271
 53.3716  7058.22  84.2071
 53.4136  6868.31  83.2255
 53.4556  6858.98  83.1907
 53.4976  6918.11  83.3584
 53.5396  6711.34  82.5118
 53.5816  6851.54  83.0222
 53.6236  6845.35  83.339
 53.6656  6891.38  83.2153
 53.7076  6957.73  83.5686
 53.7496  6930.54  83.5427
 53.7916  6928.18  83.6617
 53.8336  6845.43  83.0502
 53.8756  6824.08  83.457
 53.9176  6820.85  82.8027
 53.9596  6641.24  82.4681
 54.0016  6671.82  81.9818
 54.0436  6546.27  81.4405
 54.0856  6765.16  82.1915
 54.1276  6687.96  81.9312
 54.1696  6667.95  81.965
 54.2116  6806.51  82.5671
 54.2536  6670.52  81.5384
 54.2956  6706.13  81.8155
 54.3376  6500.09  81.0374
 54.3796  6570.74  81.3652
 54.4216  6676.89  82.0765
 54.4636  6519.37  81.0717
 54.5056  6663.74  81.7684
 54.5476  6525.2  81.2489
 54.5896  6618.63  81.6718
 54.6316  6675.36  81.8701
 54.6736  6709.74  82.1524
 54.7156  6561.18  81.2729
 54.7576  6448.68  80.5528
 54.7996  6590.99  81.574
 54.8416  6505.69  81.1061
 54.8836  6607.27  81.8355
 54.9256  6479.84  80.8038
 54.9676  6482.79  80.6888
 55.0096  6580.67  81.3203
 55.0516  6470.4  80.8882
 55.0936  6474.98  80.5745
 55.1356  6443.64  80.4116
 55.1776  6646  81.9171
 55.2196  6505.74  80.8476
 55.2616  6708.38  82.289
 55.3036  6357.91  80.3071
 55.3456  6350.85  80.3885
 55.3876  6526.76  81.2358
 55.4296  6384.33  80.3326
 55.4716  6481.18  80.9544
 55.5136  6473.3  80.6826
 55.5556  6581.85  81.4028
 55.5976  6509.89  81.0392
 55.6396  6514.98  81.0277
 55.6816  6399.54  80.1608
 55.7236  6407.73  80.2715
 55.7656  6321.97  79.4571
 55.8076  6402.06  79.9725
 55.8496  6441.72  80.5406
 55.8916  6290.56  79.7878
 55.9336  6483.57  80.8158
 55.9756  6476.6  80.666
 56.0176  6341.25  79.9657
 56.0596  6332.07  79.9022
 56.1016  6228.44  79.2566
 56.1436  6338.77  80.2067
 56.1856  6214.15  79.1723
 56.2276  6460.02  80.7805
 56.2696  6386.07  80.2726
 56.3116  6468.84  81.1917
 56.3536  6349.17  80.088
 56.3956  6441.37  80.6656
 56.4376  6372.96  80.2736
 56.4796  6220.03  79.1191
 56.5216  6322.36  80.1568
 56.5636  6277.63  79.4284
 56.6056  6470.04  80.8847
 56.6476  6350.51  79.7301
 56.6896  6462.26  80.8964
 56.7316  6321.54  79.9269
 56.7736  6331.25  79.9882
 56.8156  6323.99  79.964
 56.8576  6080.37  78.3516
 56.8996  6332.08  79.8729
 56.9416  6255.5  79.6875
 56.9836  6347.06  79.786
 57.0256  6249.62  79.4931
 57.0676  6388.43  80.4731
 57.1096  6319.54  79.8484
 57.1516  6216.74  79.2429
 57.1936  6291.08  79.4551
 57.2356  6150.78  78.9041
 57.2776  6179  79.0565
 57.3196  6219.32  79.6562
 57.3616  6279.59  79.5303
 57.4036  6232.62  79.2839
 57.4456  6290.05  79.6371
 57.4876  6281.69  79.4487
 57.5296  6206.87  79.3063
 57.5716  6200.92  79.2685
 57.6136  6111.69  78.5397
 57.6556  6328.89  80.0415
 57.6976  6298.34  79.6819
 57.7396  6100.83  78.767
 57.7816  6078.66  78.9981
 57.8236  6174.39  79.4008
 57.8656  6214.69  79.3363
 57.9076  6194.44  79.2106
 57.9496  6093.5  78.9242
 57.9916  6160.94  78.8703
 58.0336  6203.4  79.4273
 58.0756  6200.52  79.0426
 58.1176  6139.6  78.6325
 58.1596  6143.24  79.2534
 58.2016  5966.06  77.3414
 58.2436  5904.1  77.3437
 58.2856  5868.31  77.027
 58.3276  5884.24  77.4964
 58.3696  5938.04  77.6028
 58.4116  5958.34  77.6056
 58.4536  5909.54  77.1733
 58.4956  5786.13  76.5418
 58.5376  5958.06  77.2445
 58.5796  5860.82  77.0311
 58.6216  6022.19  77.9016
 58.6636  5972.73  77.7921
 58.7056  5911.25  77.2473
 58.7476  5742.68  76.5713
 58.7896  5932.9  77.4771
 58.8316  5993.95  77.865
 58.8736  5953.48  77.6179
 58.9156  5840.64  76.9183
 58.9576  5826.19  77.1407
 58.9996  6005.19  77.5664
 59.0416  5867.3  77.0316
 59.0836  5957.75  77.5382
 59.1256  5837.27  77.4416
 59.1676  5865.21  77.9317
 59.2096  5944.8  77.7781
 59.2516  6037.67  77.9644
 59.2936  5974.37  77.8809
 59.3356  5953.53  77.6236
 59.3776  5807.8  76.8334
 59.4196  5823.15  76.8724
 59.4616  5939.09  77.4946
 59.5036  5734.95  76.1853
 59.5456  5971.58  77.4365
 59.5876  5927.51  77.3396
 59.6296  5825.96  76.7422
 59.6716  5928  77.4688
 59.7136  5973.27  77.7524
 59.7556  5793.88  76.7096
 59.7976  5911.55  77.2295
 59.8396  5900.76  77.0545
 59.8816  5850.78  77.2645
 59.9236  5876.19  77.0804
 59.9656  5770.31  76.6379
 60.0076  5913.09  76.944
 60.0496  5837.94  76.9466
 60.0916  6066.14  77.8552
 60.1336  5790.73  77.1518
 60.1756  5907.64  79.0982
 60.1996  0.0000000E+00  0.0000000E+00