File: docs/examples/opeando_xrd/IS17_D/Data/IS17_D/17_Db_f00084.xye
# /beamlines/bl04/projects/cycle2025-II/20250340211-lsimonelli/DATA/IS17_D/17_Db_f00084.xye : mythproc.py merge -s 0.006 -l 0.5 -f /beamlines/bl04/inhouse/ff/FlatField/ff_20Nov2024rod8mm60s_17keV.raw -b True -c true -o xye /beamlines/bl04/projects/cycle2025-II/20250340211-lsimonelli/DATA/IS17_D/17_Db_00084.dat
# IsMon = [6769236, 6766163, 6769146]  IsPos = [-1.4999, -2.4884, -3.4989]
# Wave = 0.4962  CalPath /beamlines/bl04/projects/cycle2025-II/20250340211-lsimonelli/DATA/Align/Si_Pos1_25keV_f00001.cal
# Date = 2025-09-24_17:05:50 Dt = 4.8000  Bin = 0.0060  <imon> = 6768182 +/- 1428 (Min/Max) 6766163 / 6769236
# icurr 251.1322  mocoIn 1.7119E-05  mocoOut 0.8031  i15 7.08849e+06  imon 6.76818e+06  i7 5.0000  iEMpd_timer 4.8000  iEMpd_1 3.3472E-08  iEMpd_2 7.7642E-08  iEMpd_3 1.6286E-08  iEMpd_4 4.6730E-08  iEMhp_timer 4.8000  iEMhp_1 4.9044E-06  iEMhp_2 -2.5794E-08  iEMhp_3 -2.4142E-08  iEMhp_4 -2.0985E-08
#      9776
 1.5856  44418.2  216.396
 1.6276  50790.9  227.429
 1.6696  56274.1  238.546
 1.7116  63512.2  253.919
 1.7536  72228.9  269.63
 1.7956  75630.2  276.595
 1.8376  71980  270.265
 1.8796  62378.6  249.744
 1.9216  51638.7  228.135
 1.9636  43925.3  209.546
 2.0056  40250.5  199.811
 2.0476  37824.2  195.819
 2.0896  35957.9  189.807
 2.1316  35114.3  186.666
 2.1736  33754.6  184.468
 2.2156  34151.8  184.061
 2.2576  32805.5  181.044
 2.2996  31521.2  178.115
 2.3416  32027.1  178.107
 2.3836  31148.3  175.754
 2.4256  30525.6  174.555
 2.4676  29603  171.653
 2.5096  29720.1  172.049
 2.5516  29049.6  174.037
 2.5936  41403.7  203.528
 2.6356  28313  169.067
 2.6776  27981.8  166.967
 2.7196  27310.7  165.436
 2.7616  27136.7  164.7
 2.8036  26811.5  163.871
 2.8456  26753.6  164.342
 2.8876  26066.5  162.084
 2.9296  25578.7  160.68
 2.9716  25718.6  160.612
 3.0136  25252.5  159.214
 3.0556  25296.1  159.748
 3.0976  25258.9  158.515
 3.1396  24940.8  158.261
 3.1816  24719.7  157.495
 3.2236  24634.6  157.214
 3.2656  24495.9  155.825
 3.3076  24122.8  156.088
 3.3496  24462.2  156.118
 3.3916  24924.9  157.397
 3.4336  24994  158.202
 3.4756  25494.4  159.712
 3.5176  26417.9  162.357
 3.5596  26056.1  163.676
 3.6016  26078.7  161.37
 3.6436  25101.3  159.432
 3.6856  24924.6  157.164
 3.7276  23949.7  155.144
 3.7696  23858.5  155.026
 3.8116  23355.5  153.278
 3.8536  23601.3  154.006
 3.8956  23576.7  153.756
 3.9376  23432.2  153.552
 3.9796  23382.1  152.88
 4.0216  23313.9  151.699
 4.0636  23197.6  152.765
 4.1056  23251.3  152.617
 4.1476  23574.4  153.967
 4.1896  23706.4  154.25
 4.2316  24079  155.288
 4.2736  24354.1  155.981
 4.3156  24317.8  156.094
 4.3576  25346.3  159.255
 4.3996  25307  159.425
 4.4416  26023.8  161.242
 4.4836  26624.3  163.26
 4.5256  26980.3  164.947
 4.5676  26686.7  164.31
 4.6096  27337.7  164.938
 4.6516  27568.8  165.338
 4.6936  27743.2  166.695
 4.7356  28236.5  167.991
 4.7776  27883.3  166.77
 4.8196  27762.1  167.052
 4.8616  27214.2  164.895
 4.9036  27006.7  163.984
 4.9456  26968  164.525
 4.9876  26214.6  162.111
 5.0296  26588.7  163.104
 5.0716  26303.6  162.978
 5.1136  26370.4  162.912
 5.1556  26746  163.527
 5.1976  28416.2  168.542
 5.2396  27298.1  164.887
 5.2816  27666.6  166.471
 5.3236  27390.5  165.328
 5.3656  26870.6  164.692
 5.4076  26827.9  164.701
 5.4496  26827.1  164.197
 5.4916  26939.3  164.284
 5.5336  26935.1  164.363
 5.5756  26883.7  164.136
 5.6176  27044.5  164.065
 5.6596  27231.4  165.62
 5.7016  27187  164.75
 5.7436  27323.1  165.061
 5.7856  27345.6  165.577
 5.8276  27530.7  165.853
 5.8696  27927.4  167.214
 5.9116  27559  166.71
 5.9536  28181  168.311
 5.9956  28172.4  167.68
 6.0376  28201.4  168.388
 6.0796  28513.2  169.149
 6.1216  28394.7  169.003
 6.1636  28757.6  169.116
 6.2056  28466.5  168.949
 6.2476  28751.6  169.66
 6.2896  29305.1  170.96
 6.3316  29050  170.379
 6.3736  28955.1  169.999
 6.4156  29165.4  170.5
 6.4576  29177.6  170.158
 6.4996  29110.5  170.447
 6.5416  29376.4  171.342
 6.5836  29360.3  171.397
 6.6256  29318.2  170.976
 6.6676  30043.6  172.643
 6.7096  29971.7  173.293
 6.7516  30135  173.425
 6.7936  30271.9  173.215
 6.8356  30689.8  174.509
 6.8776  30635  175.16
 6.9196  30571.2  175.371
 6.9616  31080.3  176.273
 7.0036  31580.9  177.334
 7.0456  31520  176.467
 7.0876  31323.2  177.595
 7.1296  31562.1  177.404
 7.1716  31527.4  176.841
 7.2136  31178  175.639
 7.2556  31376.8  176.357
 7.2976  31533  177.301
 7.3396  31106.7  176.32
 7.3816  31060.2  176.396
 7.4236  31687.6  177.453
 7.4656  31755.3  177.12
 7.5076  32038.1  178.053
 7.5496  31784.4  177.879
 7.5916  31878.4  178.185
 7.6336  32677.8  180.373
 7.6756  32509.8  179.685
 7.7176  32914.4  181.117
 7.7596  32724.4  181.815
 7.8016  34071.7  187.767
 7.8436  33038.2  181.735
 7.8856  33253.8  181.791
 7.9276  33797.2  183.663
 7.9696  34040.9  184.636
 8.0116  35009.9  185.8
 8.0536  35178.1  186.492
 8.0956  35219.6  187.784
 8.1376  35266.3  187.379
 8.1796  35698.7  189.058
 8.2216  36325.8  189.179
 8.2636  36546  190.284
 8.3056  36249.3  190.264
 8.3476  37190.3  192.055
 8.3896  36959.2  191.54
 8.4316  37004.6  191.82
 8.4736  36719.4  190.552
 8.5156  36888.4  191.267
 8.5576  36735.3  191.844
 8.5996  36474.1  190.036
 8.6416  36349.1  190.966
 8.6836  35925.7  189.67
 8.7256  36600.3  190.91
 8.7676  36769.3  194.249
 8.8096  37047.9  192.262
 8.8516  36644.9  190.792
 8.8936  36599.2  190.621
 8.9356  36940.1  191.836
 8.9776  36226.3  190.058
 9.0196  36410.9  190.208
 9.0616  35781.1  188.122
 9.1036  36129.4  190.146
 9.1456  35343.6  187.407
 9.1876  35734.2  188.376
 9.2296  35462.2  187.108
 9.2716  35250.2  186.584
 9.3136  35397.2  186.966
 9.3556  35714.1  187.775
 9.3976  34398.9  184.794
 9.4396  34502.5  184.986
 9.4816  34610.6  185.136
 9.5236  33946.9  183.25
 9.5656  33890.5  183.45
 9.6076  33167.2  182.007
 9.6496  33410.9  182.552
 9.6916  33094.3  181.643
 9.7336  33533  182.614
 9.7756  33144.9  182.835
 9.8176  32853  181.547
 9.8596  33031.1  180.489
 9.9016  32679.8  179.508
 9.9436  32162.6  178.008
 9.9856  32340.8  178.769
 10.0276  31683.2  178.014
 10.0696  32224.2  178.558
 10.1116  31149.4  175.81
 10.1536  30881.8  175.219
 10.1956  30385.7  173.423
 10.2376  30381.5  172.913
 10.2796  30293.7  172.771
 10.3216  30086.6  172.472
 10.3636  29913  171.995
 10.4056  29673.8  171.728
 10.4476  30274.9  173.047
 10.4896  31524.1  176.005
 10.5316  29916  172.208
 10.5736  29447  171.266
 10.6156  29342.2  170.703
 10.6576  29926.4  170.943
 10.6996  28578.5  167.751
 10.7416  28448.9  167.587
 10.7836  28302.2  167.83
 10.8256  27375.3  165.481
 10.8676  27647.9  165.845
 10.9096  27463.6  165.314
 10.9516  27114.5  163.21
 10.9936  27320.8  164.033
 11.0356  26851.7  163.225
 11.0776  26868.9  162.62
 11.1196  26384.7  161.905
 11.1616  26054.8  160.574
 11.2036  26423.6  161.544
 11.2456  26506.3  162.519
 11.2876  26260.8  161.476
 11.3296  25769.2  159.876
 11.3716  26417.2  161.558
 11.4136  26402.8  162.409
 11.4556  26271.7  161.661
 11.4976  26964.2  162.758
 11.5396  26976.9  162.974
 11.5816  26356.9  161.525
 11.6236  25758.6  159.912
 11.6656  26008  159.835
 11.7076  25123.6  157.922
 11.7496  24868.5  160.283
 11.7916  25087.4  157.055
 11.8336  24562.3  156.299
 11.8756  24574.6  155.891
 11.9176  24415.2  155.06
 11.9596  24467.5  155.386
 12.0016  24060.4  154.848
 12.0436  24571  155.935
 12.0856  24197.7  155.247
 12.1276  23804  153.823
 12.1696  24175.8  154.241
 12.2116  24003.6  153.705
 12.2536  24058.5  154.688
 12.2956  23797  153.079
 12.3376  24019.9  154.111
 12.3796  23868.7  154.114
 12.4216  23894.9  153.394
 12.4636  23758.8  153.891
 12.5056  23470.5  152.293
 12.5476  23847.8  152.964
 12.5896  23669.1  153.026
 12.6316  23716  153.325
 12.6736  23538.2  153.239
 12.7156  23853.5  154.096
 12.7576  23497.9  153.196
 12.7996  23589.2  152.151
 12.8416  23477.8  152.837
 12.8836  23901  154.04
 12.9256  24122.2  153.78
 12.9676  24050.4  153.957
 13.0096  24145.5  155.366
 13.0516  24151.5  154.428
 13.0936  24477.9  155.87
 13.1356  24487.5  154.86
 13.1776  23900.5  154.003
 13.2196  24169.8  154.508
 13.2616  23935.2  154.08
 13.3036  24203.7  154.908
 13.3456  23976.2  154.708
 13.3876  24556.5  155.649
 13.4296  24006.8  154.066
 13.4716  24430  155.047
 13.5136  24248.3  154.592
 13.5556  24116.1  154.523
 13.5976  24316.9  155.614
 13.6396  24239.2  154.726
 13.6816  24283.9  155.334
 13.7236  24640.2  156.06
 13.7656  26228.5  161.46
 13.8076  27019.2  162.535
 13.8496  26589.1  161.894
 13.8916  24470.9  156.451
 13.9336  23861.4  153.76
 13.9756  23749  152.787
 14.0176  23448.6  152.399
 14.0596  23633.3  153.024
 14.1016  23364.1  152.566
 14.1436  23581.9  152.408
 14.1856  23023.1  150.884
 14.2276  22808.4  150.616
 14.2696  22928.7  150.908
 14.3116  22448.6  149.23
 14.3536  22363.9  149.113
 14.3956  22250  148.461
 14.4376  22448.9  148.895
 14.4796  22316.5  148.461
 14.5216  21779.6  147.446
 14.5636  22022.9  147.839
 14.6056  22054.2  147.496
 14.6476  21837  146.024
 14.6896  21535.5  145.552
 14.7316  21124.4  145.185
 14.7736  21012.7  143.948
 14.8156  20876.2  143.502
 14.8576  20802.2  143.112
 14.8996  20407.7  142.926
 14.9416  20174.3  142.126
 14.9836  19965  141.366
 15.0256  19652.5  139.189
 15.0676  19624.5  139.312
 15.1096  19594.7  139.033
 15.1516  19262.4  138.408
 15.1936  19139.7  137.391
 15.2356  18937.8  136.942
 15.2776  18791.3  136.416
 15.3196  18271.3  135.085
 15.3616  18220.9  134.656
 15.4036  18321.3  134.897
 15.4456  18743  136.082
 15.4876  18083.6  133.362
 15.5296  18149.6  133.893
 15.5716  17888.3  132.528
 15.6136  17906.7  132.929
 15.6556  18075.4  133.147
 15.6976  17921.5  132.52
 15.7396  17467.9  131.203
 15.7816  17456.3  130.685
 15.8236  17457.1  131.323
 15.8656  17166.4  130.075
 15.9076  17096.6  129.636
 15.9496  18067  136.082
 15.9916  17468.6  134.23
 16.0336  17757  132.16
 16.0756  17330.8  130.881
 16.1176  17411.6  131.276
 16.1596  16969.6  130.769
 16.2016  16807.8  128.919
 16.2436  16829.7  129.38
 16.2856  16954.1  129.366
 16.3276  16375.6  127.587
 16.3696  16762.5  128.902
 16.4116  16536.5  128.46
 16.4536  16606.7  128.554
 16.4956  16758.9  128.88
 16.5376  16410.7  127.718
 16.5796  16316  126.719
 16.6216  16422.2  127.392
 16.6636  16078.3  126.238
 16.7056  16521.3  127.833
 16.7476  16398.2  126.888
 16.7896  16346.4  127.426
 16.8316  16299.3  127.223
 16.8736  16477.5  128.168
 16.9156  16410  128.242
 16.9576  16191.4  128.18
 16.9996  16055  128.099
 17.0416  16212.9  127.133
 17.0836  16105.8  126.472
 17.1256  16053  126.271
 17.1676  16105.2  126.44
 17.2096  16075.6  126.216
 17.2516  15856.8  125.141
 17.2936  15810.8  125.311
 17.3356  15652.7  124.667
 17.3776  15504  124.26
 17.4196  15480.7  123.874
 17.4616  15627.8  124.351
 17.5036  15320.4  123.506
 17.5456  15418.5  124.52
 17.5876  15335.7  123.243
 17.6296  15351.3  123.134
 17.6716  15094.6  122.679
 17.7136  15351.2  123.836
 17.7556  15095.9  123.111
 17.7976  15159.4  123.091
 17.8396  14874  121.437
 17.8816  14616.3  120.945
 17.9236  14795.2  121.466
 17.9656  14866.3  122.282
 18.0076  14892.4  121.973
 18.0496  14851.4  120.944
 18.0916  15739.1  124.987
 18.1336  15709.1  125.033
 18.1756  15061.5  121.996
 18.2176  14840.1  121.304
 18.2596  14750  120.672
 18.3016  14987.8  121.899
 18.3436  15022.3  122.044
 18.3856  14788.2  121.409
 18.4276  14749.6  120.747
 18.4696  14620.2  120.293
 18.5116  14641.8  120.656
 18.5536  14450.8  120.237
 18.5956  14318.1  119.247
 18.6376  14338.3  119.741
 18.6796  14609.3  120.165
 18.7216  14372.7  119.684
 18.7636  14310.8  119.419
 18.8056  14042.4  118.234
 18.8476  13827.9  117.944
 18.8896  13989.5  117.965
 18.9316  14233.9  118.979
 18.9736  14299.5  118.948
 19.0156  14150.4  118.749
 19.0576  14288  118.154
 19.0996  14198.2  118.509
 19.1416  13996.2  118.048
 19.1836  13873  117.142
 19.2256  13809.6  117.18
 19.2676  13876.9  117.463
 19.3096  13921.4  117.903
 19.3516  14005.3  118.213
 19.3936  13870.1  117.536
 19.4356  14095.9  118.361
 19.4776  13931.3  117.767
 19.5196  13920.7  117.574
 19.5616  13743.4  117.078
 19.6036  13746.4  116.584
 19.6456  13856.8  117.176
 19.6876  13975.4  117.319
 19.7296  14100.1  118.294
 19.7716  13864.7  117.487
 19.8136  14116  118.727
 19.8556  14340.9  119.154
 19.8976  14288.5  119
 19.9396  14304  118.651
 19.9816  14429.6  119.423
 20.0236  14524.9  120.007
 20.0656  14231  118.791
 20.1076  14092.9  118.684
 20.1496  13829  117.564
 20.1916  13956.2  117.619
 20.2336  13690.7  116.415
 20.2756  13509.5  116.08
 20.3176  13416  115.425
 20.3596  13276.9  114.819
 20.4016  13307.6  114.736
 20.4436  13322.1  115.278
 20.4856  13461.6  115.76
 20.5276  13238.5  115.26
 20.5696  13281.6  114.895
 20.6116  13141.6  114.565
 20.6536  13213.1  114.359
 20.6956  13087.4  113.977
 20.7376  12978.4  113.71
 20.7796  12879.3  112.976
 20.8216  13161.2  113.914
 20.8636  13271.5  114.761
 20.9056  13197.7  114.38
 20.9476  13050.1  113.586
 20.9896  13488.3  115.35
 21.0316  13126.7  113.689
 21.0736  13085.3  114.026
 21.1156  12944.7  113.577
 21.1576  13081.9  114.209
 21.1996  12968.1  113.704
 21.2416  13073.3  113.976
 21.2836  12891.2  113.164
 21.3256  12834.6  113.033
 21.3676  12981.1  113.169
 21.4096  12977.6  113.477
 21.4516  12555.7  111.487
 21.4936  12743.3  112.589
 21.5356  12910.2  113.266
 21.5776  13045.4  113.689
 21.6196  12676.7  112.114
 21.6616  12624.7  111.958
 21.7036  12800.2  112.511
 21.7456  12781.3  112.501
 21.7876  12653.1  111.701
 21.8296  12503.4  110.879
 21.8716  12675.6  111.88
 21.9136  12963  113.34
 21.9556  12736.4  112.018
 21.9976  12580.9  111.364
 22.0396  12399.8  110.808
 22.0816  12475.2  111.668
 22.1236  12568.7  111.555
 22.1656  12603.8  112.203
 22.2076  12272.1  109.835
 22.2496  12422.4  110.539
 22.2916  12306.1  109.906
 22.3336  12367.2  110.895
 22.3756  12176.2  109.758
 22.4176  12229.6  109.854
 22.4596  12046.9  109.6
 22.5016  12235.3  109.972
 22.5436  12430.5  110.835
 22.5856  12528.7  111.403
 22.6276  12521.6  111.505
 22.6696  12253.3  110.657
 22.7116  12449.7  111.053
 22.7536  12243  110.102
 22.7956  12315.1  109.768
 22.8376  12072.4  109.187
 22.8796  12118.9  109.203
 22.9216  12331.5  110.695
 22.9636  12206.4  109.297
 23.0056  12317  109.926
 23.0476  12098  109.505
 23.0896  12550.1  110.912
 23.1316  12407.2  110.711
 23.1736  12464.5  113.891
 23.2156  12487.5  111.382
 23.2576  12851  113.123
 23.2996  12402.4  110.916
 23.3416  12703.5  112.769
 23.3836  12557.3  111.36
 23.4256  12769.9  112.416
 23.4676  12626.7  111.478
 23.5096  12487.8  111.524
 23.5516  12524.9  110.983
 23.5936  12517.4  111.863
 23.6356  12573.4  111.776
 23.6776  12523.4  111.766
 23.7196  12323.6  110.448
 23.7616  12579.6  111.51
 23.8036  12717.5  112.172
 23.8456  12381.9  110.092
 23.8876  12377  110.569
 23.9296  12100.7  109.809
 23.9716  12357  110.174
 24.0136  12267.4  110.674
 24.0556  12181.5  110.002
 24.0976  12144.3  109.647
 24.1396  11982.3  111.525
 24.1816  12256.4  111.203
 24.2236  12193  110.542
 24.2656  12062.2  109.427
 24.3076  12033.8  109.567
 24.3496  12014  109.36
 24.3916  11947.3  109.099
 24.4336  12053.7  109.79
 24.4756  12016.7  109.508
 24.5176  11946.1  108.802
 24.5596  11772  108.139
 24.6016  11653.9  107.886
 24.6436  11963  108.808
 24.6856  11586.5  106.832
 24.7276  11547.2  106.979
 24.7696  11542.2  107.063
 24.8116  11532.2  107.195
 24.8536  11585.3  107.442
 24.8956  11412.9  106.371
 24.9376  11482.8  106.62
 24.9796  11239.6  105.853
 25.0216  11266.3  106.082
 25.0636  11358.8  106.177
 25.1056  11169  105.98
 25.1476  11107.1  107.297
 25.1896  11231.6  106.426
 25.2316  11218.5  105.634
 25.2736  11159.4  105.012
 25.3156  11123.5  104.909
 25.3576  10994.7  104.73
 25.3996  11044.2  104.953
 25.4416  11003.4  104.736
 25.4836  10911.1  104.811
 25.5256  11099.6  105.078
 25.5676  11073.9  104.684
 25.6096  10889.2  104.379
 25.6516  10975.2  104.298
 25.6936  10953.9  104.502
 25.7356  10972.9  104.735
 25.7776  10990.3  104.41
 25.8196  10703.8  103.281
 25.8616  10917.7  104.24
 25.9036  11050.6  104.326
 25.9456  10794.7  103.713
 25.9876  10736.6  103.488
 26.0296  10905.8  103.822
 26.0716  10770.1  103.59
 26.1136  10907.3  104.183
 26.1556  10878.7  103.426
 26.1976  10858.8  104.27
 26.2396  10815.9  103.211
 26.2816  10850.6  103.988
 26.3236  10830.4  104.054
 26.3656  10933.4  104.261
 26.4076  10767.3  103.68
 26.4496  11023.3  104.478
 26.4916  10832.3  103.471
 26.5336  11219.6  105.737
 26.5756  11580.4  107.219
 26.6176  10981.6  104.434
 26.6596  10791.9  103.821
 26.7016  10612.8  102.736
 26.7436  10688.5  103.221
 26.7856  10461.5  102.109
 26.8276  10513.2  102.328
 26.8696  10612.5  102.679
 26.9116  10463.6  101.898
 26.9536  10363.4  101.45
 26.9956  10385.8  101.603
 27.0376  10528.8  102.516
 27.0796  10397.1  101.605
 27.1216  10390.5  101.62
 27.1636  10214.3  100.921
 27.2056  10298.6  101.224
 27.2476  10261.7  101.049
 27.2896  10246.2  101.087
 27.3316  10302.5  101.074
 27.3736  10279.9  101.241
 27.4156  10321.5  101.28
 27.4576  10343.7  101.615
 27.4996  10277.8  100.886
 27.5416  10163.6  100.642
 27.5836  10264.4  100.972
 27.6256  10128.2  100.479
 27.6676  10140.9  100.525
 27.7096  10266.9  101.039
 27.7516  10209.4  100.81
 27.7936  10568.8  102.806
 27.8356  10312.1  101.172
 27.8776  10437.5  101.834
 27.9196  10100.3  100.042
 27.9616  10038.8  99.9383
 28.0036  10131.7  100.35
 28.0456  10036.2  100.025
 28.0876  9979.45  99.8249
 28.1296  9997.48  99.7384
 28.1716  10157.7  100.558
 28.2136  10073.5  100.11
 28.2556  9990.81  99.8066
 28.2976  9913.72  99.4236
 28.3396  9813.03  98.6751
 28.3816  10014.8  99.6953
 28.4236  9901.4  99.2855
 28.4656  9750.66  98.5559
 28.5076  9887.46  98.8923
 28.5496  9805.61  98.7364
 28.5916  9783.4  98.4425
 28.6336  9874.25  99.2337
 28.6756  9867.35  98.4043
 28.7176  9746.85  98.3515
 28.7596  9845.03  98.7284
 28.8016  9775.4  98.4321
 28.8436  9846.11  99.0258
 28.8856  9840.22  98.8427
 28.9276  9767.03  98.7224
 28.9696  9710.98  98.0846
 29.0116  9667.64  98.0619
 29.0536  9571.74  97.7799
 29.0956  9695.46  98.1074
 29.1376  9628.54  97.7461
 29.1796  9639.96  97.8515
 29.2216  9593.28  97.4542
 29.2636  9796.78  98.5553
 29.3056  9555.4  97.1036
 29.3476  9636.4  98.0541
 29.3896  9555.25  97.7545
 29.4316  9612.29  97.3853
 29.4736  9271.15  95.7012
 29.5156  9393.86  96.2598
 29.5576  9367.94  96.8544
 29.5996  9411.23  96.3454
 29.6416  9351.25  96.1553
 29.6836  9284.16  95.7388
 29.7256  9257.82  96.1573
 29.7676  9279.61  95.9284
 29.8096  9231.28  95.629
 29.8516  9177.98  95.6765
 29.8936  9236.95  96.079
 29.9356  9426.43  96.8141
 29.9776  9299.04  96.3114
 30.0196  9362.05  96.0246
 30.0616  9274.01  95.9473
 30.1036  9323.85  96.0325
 30.1456  9182.1  95.5244
 30.1876  9153.4  95.3592
 30.2296  9136.35  95.2149
 30.2716  9390.31  96.1636
 30.3136  9230.74  96.1927
 30.3556  9459.52  97.3817
 30.3976  9374.55  98.4056
 30.4396  9710.79  97.5093
 30.4816  9593.45  96.5228
 30.5236  9573.75  96.412
 30.5656  9494.59  96.6659
 30.6076  9542.53  96.3411
 30.6496  9515.27  96.6115
 30.6916  9410.52  96.1628
 30.7336  9453.82  96.5297
 30.7756  9268.03  95.6661
 30.8176  9407.4  96.3011
 30.8596  9439.43  96.2194
 30.9016  9342.93  96.0736
 30.9436  9433.96  96.2998
 30.9856  9400.26  96.2405
 31.0276  9303.39  95.3658
 31.0696  9317.34  96.0062
 31.1116  9289.82  95.8282
 31.1536  9174.88  95.1033
 31.1956  9230.6  95.4832
 31.2376  9020.71  94.4161
 31.2796  9307.88  95.4519
 31.3216  9237.94  95.0074
 31.3636  9282.85  95.9543
 31.4056  9393.84  97.8503
 31.4476  9241.97  94.9681
 31.4896  9327.66  95.9077
 31.5316  9287.84  95.1143
 31.5736  9417.67  95.6018
 31.6156  9439.81  95.7164
 31.6576  9387.68  95.5264
 31.6996  9454.13  95.5412
 31.7416  9223.49  95.4453
 31.7836  9395.69  95.3351
 31.8256  9362.46  95.4275
 31.8676  9488.7  96.0375
 31.9096  9247.29  95.2012
 31.9516  9092.85  94.5739
 31.9936  9036.12  94.0997
 32.0356  9148  94.7282
 32.0776  9223.44  95.0085
 32.1196  9245.4  95.2349
 32.1616  9314.75  95.0345
 32.2036  9229.77  95.109
 32.2456  9289.82  95.8096
 32.2876  9181.19  94.7437
 32.3296  9018.27  93.8655
 32.3716  8907.81  93.3998
 32.4136  8991.73  94.0382
 32.4556  9061.09  93.7836
 32.4976  8880.53  92.7568
 32.5396  9003.79  93.4574
 32.5816  8917.45  93.1304
 32.6236  8861.58  92.9063
 32.6656  8996.24  94.1551
 32.7076  8864.69  93.121
 32.7496  8883.75  92.8969
 32.7916  9030.72  93.6136
 32.8336  8999.46  93.5541
 32.8756  9042.95  93.4921
 32.9176  8812.85  92.781
 32.9596  8835.25  92.9654
 33.0016  8933.11  93.2479
 33.0436  9075.03  93.8988
 33.0856  8785.08  92.7503
 33.1276  8665.55  91.8466
 33.1696  8902.54  92.9285
 33.2116  8769.86  92.4653
 33.2536  8944.65  93.37
 33.2956  8901.57  93.2319
 33.3376  8825.99  92.565
 33.3796  8824.13  92.7833
 33.4216  8752.58  91.9977
 33.4636  8863  92.7341
 33.5056  8574.82  91.459
 33.5476  8850.49  92.8912
 33.5896  8753.92  92.1809
 33.6316  8763.49  92.535
 33.6736  8672.6  92.3003
 33.7156  8602.46  91.6889
 33.7576  8721.07  92.2279
 33.7996  8743.57  92.1149
 33.8416  8562.49  91.3402
 33.8836  8645.96  91.6986
 33.9256  8785.56  92.351
 33.9676  8718.37  91.8975
 34.0096  8649.19  91.8451
 34.0516  8638.98  91.4165
 34.0936  8486.9  90.7943
 34.1356  8699.69  91.7581
 34.1776  8569.39  91.0679
 34.2196  8638.48  91.6206
 34.2616  8468.54  90.8536
 34.3036  8573.62  91.6522
 34.3456  8412.79  90.5488
 34.3876  8574.35  91.385
 34.4296  8467.77  90.5104
 34.4716  8630.75  91.483
 34.5136  8609.1  91.5997
 34.5556  8522.68  91.4018
 34.5976  8645.22  91.8663
 34.6396  8547.99  91.0608
 34.6816  8667.23  91.7981
 34.7236  8460.27  90.474
 34.7656  8532.88  91.0755
 34.8076  8425.85  90.83
 34.8496  8398.25  90.5319
 34.8916  8513.26  90.9956
 34.9336  8516.21  91.0097
 34.9756  8498.5  90.8368
 35.0176  8639.77  92.1182
 35.0596  8547.84  91.4483
 35.1016  8446.1  90.6502
 35.1436  8719.74  91.8061
 35.1856  8458.24  90.5296
 35.2276  8387.75  90.3255
 35.2696  8546.34  91.3761
 35.3116  8325.5  90.2808
 35.3536  8398.45  90.3897
 35.3956  8354.47  89.8623
 35.4376  8388.11  90.6029
 35.4796  8401.03  90.7184
 35.5216  8373.74  90.5273
 35.5636  8119.84  89.8812
 35.6056  8300.94  89.9084
 35.6476  8365.01  90.152
 35.6896  8405.34  90.4653
 35.7316  8300.06  89.868
 35.7736  8297.92  90.0447
 35.8156  8319.78  90.1576
 35.8576  8376.1  90.7184
 35.8996  8461.84  91.1424
 35.9416  8360.79  90.1096
 35.9836  8328.25  90.2709
 36.0256  8542.14  91.4464
 36.0676  8482.63  90.8747
 36.1096  8351.58  90.3133
 36.1516  8434.79  90.6622
 36.1936  8354.75  90.0638
 36.2356  8315.34  90.5077
 36.2776  8217.1  89.4498
 36.3196  8355.75  89.8778
 36.3616  8307.06  89.6913
 36.4036  8385.48  90.2273
 36.4456  8402.37  90.5232
 36.4876  8126.83  88.9721
 36.5296  8262.59  89.7443
 36.5716  8246.67  90.2048
 36.6136  8039.53  88.1062
 36.6556  8021.15  88.199
 36.6976  8031.35  88.7427
 36.7396  7952.67  88.0462
 36.7816  8055.6  88.9854
 36.8236  7982.21  88.5034
 36.8656  8017.52  88.7606
 36.9076  7944.38  88.2456
 36.9496  7873.8  87.8365
 36.9916  7910.11  87.6764
 37.0336  8128.85  89.1924
 37.0756  8059.99  88.6098
 37.1176  8049.74  88.8196
 37.1596  8001.07  88.5538
 37.2016  8014.98  88.8591
 37.2436  8076.77  88.5186
 37.2856  7932.85  87.9808
 37.3276  7916.45  87.4179
 37.3696  8015.42  88.6682
 37.4116  7959.55  88.2692
 37.4536  7958.93  88.1374
 37.4956  7681.07  86.8284
 37.5376  8174.81  90.9473
 37.5796  8071.25  90.304
 37.6216  8052.74  88.4651
 37.6636  8202.01  89.1702
 37.7056  8242.16  89.5837
 37.7476  8125.82  88.4848
 37.7896  7931.17  87.9302
 37.8316  7926.02  88.0495
 37.8736  7944.17  87.6859
 37.9156  8006.4  88.0258
 37.9576  8073.86  88.3043
 37.9996  7924.48  87.1956
 38.0416  7965.3  88.2278
 38.0836  8236.5  89.6186
 38.1256  7929.49  87.9029
 38.1676  7783.97  87.2027
 38.2096  8089.79  88.5186
 38.2516  7890.37  87.6391
 38.2936  8093.13  88.5506
 38.3356  7892.04  87.3815
 38.3776  7943.53  87.913
 38.4196  8023.99  88.2122
 38.4616  7996.9  88.3099
 38.5036  7956.06  87.9251
 38.5456  7773.04  87.7203
 38.5876  7873.64  88.3287
 38.6296  7835.97  87.0873
 38.6716  7914.31  87.3322
 38.7136  7888.71  87.1311
 38.7556  7870.08  87.5403
 38.7976  8028.71  88.3391
 38.8396  7951.97  88.3812
 38.8816  7799.42  87.324
 38.9236  8019.42  88.3433
 38.9656  8013.19  88.2253
 39.0076  7966.48  87.3615
 39.0496  8053.86  88.3981
 39.0916  8097.18  88.2803
 39.1336  7884.55  87.5176
 39.1756  7958.01  87.9798
 39.2176  7779.39  87.5304
 39.2596  7896.87  88.1034
 39.3016  7883.28  87.619
 39.3436  7808.4  87.6096
 39.3856  7972.18  87.9619
 39.4276  8044.13  88.8727
 39.4696  7933.36  87.8695
 39.5116  7868.7  88.0261
 39.5536  8023.07  89.3118
 39.5956  7894.01  87.7022
 39.6376  7886.57  87.6618
 39.6796  7823.78  87.0599
 39.7216  7892.89  87.5397
 39.7636  7937.25  88.3432
 39.8056  7861.58  87.7097
 39.8476  7844.46  87.8713
 39.8896  7864.98  87.6118
 39.9316  7876.67  87.9336
 39.9736  7899.85  87.6408
 40.0156  7828.14  87.0687
 40.0576  7857.56  87.5735
 40.0996  7957.81  87.3265
 40.1416  7836.65  87.4439
 40.1836  7898.46  87.6778
 40.2256  7993.46  88.2401
 40.2676  7805.78  87.2977
 40.3096  7862.23  87.5346
 40.3516  7838.2  87.5196
 40.3936  7930.05  87.59
 40.4356  7931.06  87.807
 40.4776  7890.5  87.9768
 40.5196  8003.42  88.7385
 40.5616  7949.85  88.0752
 40.6036  7853.21  87.793
 40.6456  7896.73  87.6398
 40.6876  8005.29  88.2421
 40.7296  7848.73  87.5109
 40.7716  7864.52  87.71
 40.8136  7834.87  87.4927
 40.8556  8037  88.7514
 40.8976  7920.47  88.0281
 40.9396  7846.3  87.9595
 40.9816  7853.14  87.2943
 41.0236  7910.66  87.399
 41.0656  7971.19  88.2699
 41.1076  7873.44  87.4968
 41.1496  7956.49  87.8679
 41.1916  7907.38  87.9102
 41.2336  7927.98  88.0257
 41.2756  7943.27  87.7146
 41.3176  7947.51  88.3468
 41.3596  7876.65  87.6903
 41.4016  7877.51  87.9498
 41.4436  7918.25  87.9614
 41.4856  7817.39  87.5717
 41.5276  7813.16  87.5519
 41.5696  7919.53  87.7845
 41.6116  7901.95  88.0648
 41.6536  7877.31  87.7836
 41.6956  7949.79  88.2602
 41.7376  7814.17  87.5301
 41.7796  7760.47  87.1143
 41.8216  7909.14  88.1738
 41.8636  7899.5  88.0684
 41.9056  7783.62  87.2118
 41.9476  7945.38  88.3499
 41.9896  7953.89  88.0517
 42.0316  7992.42  88.3598
 42.0736  7875.87  87.8087
 42.1156  7943.95  88.0322
 42.1576  7835.44  87.5333
 42.1996  7922.13  88.1447
 42.2416  7946.17  87.7778
 42.2836  7852.79  87.4656
 42.3256  7716.03  86.7971
 42.3676  7894.31  87.601
 42.4096  7904.06  87.6363
 42.4516  7798.76  87.1774
 42.4936  7770.62  87.0451
 42.5356  7664.1  86.5825
 42.5776  7810.79  87.3375
 42.6196  7827  87.4884
 42.6616  7796.21  87.4896
 42.7036  7854.35  87.1958
 42.7456  7852.5  87.5347
 42.7876  7812.35  87.4096
 42.8296  7798.94  87.1639
 42.8716  7743.8  87.0245
 42.9136  7758.88  86.895
 42.9556  7841.27  87.4936
 42.9976  7871.01  87.6268
 43.0396  7652.93  86.1317
 43.0816  7729.52  86.9464
 43.1236  7840.19  87.6109
 43.1656  7686.03  86.5693
 43.2076  7744.11  87.0112
 43.2496  7701.2  86.5921
 43.2916  7655.9  86.6944
 43.3336  7699.87  86.7815
 43.3756  7720.81  86.6613
 43.4176  7732.99  86.8094
 43.4596  7766.7  86.8425
 43.5016  7634.51  86.5048
 43.5436  7806.47  87.3806
 43.5856  7598.05  86.2324
 43.6276  7724.16  86.834
 43.6696  7665.14  86.7139
 43.7116  7717.42  86.5598
 43.7536  7696.75  86.932
 43.7956  7683.35  88.0715
 43.8376  7601.58  86.1359
 43.8796  7569.23  86.0282
 43.9216  7484.49  85.4636
 43.9636  7524.29  85.8001
 44.0056  7574.35  86.3135
 44.0476  7512.33  85.7125
 44.0896  7423.19  85.4158
 44.1316  7543.98  85.6425
 44.1736  7508.36  85.5652
 44.2156  7507.16  85.4153
 44.2576  7542.78  85.9344
 44.2996  7364.02  84.8847
 44.3416  7532.52  85.612
 44.3836  7397.99  85.1718
 44.4256  7370.26  84.6522
 44.4676  7356.42  84.7324
 44.5096  7489.36  85.6386
 44.5516  7468.38  85.4785
 44.5936  7348.02  84.7433
 44.6356  7452.76  85.0864
 44.6776  7512.67  85.7467
 44.7196  7464.02  85.7673
 44.7616  7503.31  87.3198
 44.8036  7445.69  85.4126
 44.8456  7560.27  86.2685
 44.8876  7771.62  87.4089
 44.9296  7704.02  86.3797
 44.9716  7532.34  85.8269
 45.0136  7529.98  85.7405
 45.0556  7656.8  86.4537
 45.0976  7575.04  86.1485
 45.1396  7444.62  85.1555
 45.1816  7508.53  85.4617
 45.2236  7525.7  85.4699
 45.2656  7502.35  85.8365
 45.3076  7410.67  85.0847
 45.3496  7413.46  85.4134
 45.3916  7529.51  86.3508
 45.4336  7558.6  86.3569
 45.4756  7630.85  86.6235
 45.5176  7610.45  86.1211
 45.5596  7671.91  86.5905
 45.6016  7564.64  86.4082
 45.6436  7640.04  86.0037
 45.6856  7467.02  85.6786
 45.7276  7422.4  86.7533
 45.7696  7421.12  86.4204
 45.8116  7508.46  86.3561
 45.8536  7437.96  85.8386
 45.8956  7572.07  85.9562
 45.9376  7490.82  84.9628
 45.9796  7491.38  85.6522
 46.0216  7509.72  86.0939
 46.0636  7650.47  86.0172
 46.1056  7447.47  84.8745
 46.1476  7588.46  86.2751
 46.1896  7564.38  86.2698
 46.2316  7554.32  86.0897
 46.2736  7337.27  85.2227
 46.3156  7487.91  85.6679
 46.3576  7463.51  85.7415
 46.3996  7421.58  85.6614
 46.4416  7463.64  85.4648
 46.4836  7391.6  85.4005
 46.5256  7437.41  85.6215
 46.5676  7309  84.9852
 46.6096  7299.31  84.8653
 46.6516  7429.74  84.6656
 46.6936  7481.81  85.4548
 46.7356  7547.18  85.9207
 46.7776  7248.65  85.1188
 46.8196  7421.92  85.65
 46.8616  7357.24  85.2346
 46.9036  7232.44  84.1721
 46.9456  7267.76  84.0076
 46.9876  7349.56  84.5632
 47.0296  7436.4  85.6705
 47.0716  7208.04  84.2567
 47.1136  7378.64  84.9215
 47.1556  7345.53  84.5931
 47.1976  7469.5  85.3878
 47.2396  7357.02  85.1504
 47.2816  7342.83  84.7688
 47.3236  7324.86  85.0238
 47.3656  7398.58  85.3921
 47.4076  7386.4  85.1192
 47.4496  7295.18  84.6885
 47.4916  7377.18  85.3503
 47.5336  7426.84  85.4529
 47.5756  7439.88  85.6465
 47.6176  7171.15  83.9712
 47.6596  7278.71  84.3305
 47.7016  7524.63  85.5516
 47.7436  7444.03  85.4367
 47.7856  7413.81  85.2738
 47.8276  7412.99  85.3329
 47.8696  7296.02  84.7425
 47.9116  7441.58  85.2915
 47.9536  7362.23  84.777
 47.9956  7300.02  85.1327
 48.0376  7300.94  84.9132
 48.0796  7320.86  85.1543
 48.1216  7307.38  84.9002
 48.1636  7432.2  85.1788
 48.2056  7401.85  85.2789
 48.2476  7336.13  85.182
 48.2896  7338.96  85.1366
 48.3316  7405.49  85.4565
 48.3736  7282.93  84.7717
 48.4156  7281.07  84.7239
 48.4576  7145.73  84.1162
 48.4996  7368.21  84.8671
 48.5416  7406.5  85.4135
 48.5836  7407.66  85.0926
 48.6256  7437.4  85.4601
 48.6676  7321.12  85.3299
 48.7096  7454.94  85.3559
 48.7516  7290.7  84.5587
 48.7936  7287.32  84.707
 48.8356  7369.38  85.1281
 48.8776  7277.23  85.1753
 48.9196  7471.77  85.6525
 48.9616  7279.59  84.9397
 49.0036  7358.07  85.7446
 49.0456  7300.3  85.3827
 49.0876  7280.54  84.7925
 49.1296  7291.94  85.0378
 49.1716  7112.5  84.0807
 49.2136  7273.6  84.7283
 49.2556  7359.06  85.2477
 49.2976  7341.53  85.2129
 49.3396  7271.89  84.8637
 49.3816  7314.6  84.6884
 49.4236  7351.67  85.1871
 49.4656  7244.84  84.5851
 49.5076  7300.32  84.6545
 49.5496  7200.16  84.1397
 49.5916  7283.85  84.5362
 49.6336  7363.2  85.2026
 49.6756  7369.9  85.4731
 49.7176  7191.74  84.3781
 49.7596  7254.79  84.5142
 49.8016  7413.69  85.3525
 49.8436  7212.09  84.4899
 49.8856  7178.01  84.2924
 49.9276  7241.71  84.7611
 49.9696  7265.83  84.8922
 50.0116  7181.46  84.532
 50.0536  7179.11  84.4626
 50.0956  7257.71  84.9901
 50.1376  7232.63  84.5303
 50.1796  7146.77  84.3129
 50.2216  7134.93  84.2301
 50.2636  7161.03  84.0018
 50.3056  7175.13  84.2648
 50.3476  7158.58  84.1844
 50.3896  7109.48  83.87
 50.4316  7311.13  84.8752
 50.4736  7153.63  84.1694
 50.5156  7199.55  84.4378
 50.5576  7292.32  84.7414
 50.5996  7131  84.0823
 50.6416  7143.91  84.0785
 50.6836  7178.8  84.3524
 50.7256  7197.23  84.3878
 50.7676  7248.33  85.0006
 50.8096  7170.51  84.0795
 50.8516  7161.95  84.4515
 50.8936  7041.42  83.5194
 50.9356  7244.13  84.8182
 50.9776  7133.89  84.3322
 51.0196  6970.72  83.4953
 51.0616  6989.56  82.9271
 51.1036  6902.41  82.7651
 51.1456  7129.83  84.03
 51.1876  6933.62  82.1953
 51.2296  7098.15  83.8134
 51.2716  7024.14  83.0785
 51.3136  7060.57  83.7641
 51.3556  6946.02  82.6959
 51.3976  6972.08  82.9937
 51.4396  6861.89  82.6607
 51.4816  6903.26  82.7634
 51.5236  7028.84  83.6013
 51.5656  6891.1  82.3712
 51.6076  7059.48  83.4556
 51.6496  6987.02  83.2174
 51.6916  6862.75  82.8326
 51.7336  6847.22  82.8294
 51.7756  6908.08  82.8915
 51.8176  6906.29  82.9956
 51.8596  6915.05  83.0599
 51.9016  7036.36  83.3831
 51.9436  7000.32  84.6771
 51.9856  6948.72  84.7815
 52.0276  7116.63  84.2559
 52.0696  7107.32  84.2663
 52.1116  6916.22  83.2458
 52.1536  7023.99  83.7735
 52.1956  6947.61  82.781
 52.2376  7090.2  83.7969
 52.2796  6948.93  82.7781
 52.3216  6896.94  83.1628
 52.3636  6896.29  82.7055
 52.4056  7043.47  83.4617
 52.4476  6834.67  82.574
 52.4896  7031.21  83.8095
 52.5316  6974.16  83.5208
 52.5736  6730.4  81.7558
 52.6156  7024.95  83.9304
 52.6576  6869.3  82.4289
 52.6996  6798.77  83.0019
 52.7416  6921.79  83.6727
 52.7836  6926.49  83.5193
 52.8256  7024.45  83.2914
 52.8676  6738.31  82.1648
 52.9096  6996.72  83.8031
 52.9516  6886.74  83.5412
 52.9936  6912.29  84.0706
 53.0356  6845.53  82.6535
 53.0776  6933.85  83.4619
 53.1196  6945.39  83.6582
 53.1616  6927.55  83.5968
 53.2036  7007.37  84.0437
 53.2456  6871.16  83.3293
 53.2876  7020.6  83.9063
 53.3296  6909.41  83.5783
 53.3716  7031.03  84.0513
 53.4136  6854.52  83.1477
 53.4556  6928.27  83.6237
 53.4976  6789.22  82.599
 53.5396  6849.68  83.3927
 53.5816  6942.29  83.5723
 53.6236  6818.94  83.1877
 53.6656  6817.04  82.7682
 53.7076  6910.39  83.2958
 53.7496  6900.83  83.3712
 53.7916  6889.94  83.444
 53.8336  6839.74  83.0203
 53.8756  6727.14  82.8772
 53.9176  6762.98  82.4562
 53.9596  6556.89  81.9546
 54.0016  6641.72  81.7998
 54.0436  6611.27  81.833
 54.0856  6640.27  81.4344
 54.1276  6803.54  82.627
 54.1696  6590.73  81.4981
 54.2116  6679.83  81.7802
 54.2536  6654.25  81.4531
 54.2956  6610.82  81.2369
 54.3376  6498.75  81.0276
 54.3796  6550.72  81.2399
 54.4216  6497.93  80.7943
 54.4636  6570.79  81.3913
 54.5056  6616.92  81.467
 54.5476  6584.34  81.6112
 54.5896  6604.85  81.5797
 54.6316  6582.01  81.2898
 54.6736  6671.82  81.9188
 54.7156  6518.6  81.0135
 54.7576  6439.21  80.4899
 54.7996  6482.38  80.8906
 54.8416  6589.48  81.6367
 54.8836  6482.47  81.0596
 54.9256  6541.53  81.1858
 54.9676  6398.57  80.1614
 55.0096  6561.53  81.1974
 55.0516  6449.95  80.7518
 55.0936  6448.31  80.4016
 55.1356  6422.86  80.2947
 55.1776  6548.31  81.3094
 55.2196  6584.1  81.3163
 55.2616  6640.94  81.8921
 55.3036  6346.8  80.2321
 55.3456  6341.38  80.3303
 55.3876  6515.81  81.1703
 55.4296  6305.19  79.8318
 55.4716  6361.9  80.2192
 55.5136  6386.73  80.1444
 55.5556  6544.08  81.1686
 55.5976  6385  80.266
 55.6396  6550.7  81.2412
 55.6816  6449.49  80.4929
 55.7236  6319.3  79.7139
 55.7656  6465.91  80.3513
 55.8076  6434.09  80.1747
 55.8496  6358.79  79.9928
 55.8916  6309.73  79.9208
 55.9336  6537.48  81.1592
 55.9756  6300.21  79.5491
 56.0176  6286.48  79.6218
 56.0596  6368.88  80.1234
 56.1016  6318.43  79.8342
 56.1436  6266.93  79.7506
 56.1856  6248.77  79.3955
 56.2276  6500.83  81.013
 56.2696  6308  79.7896
 56.3116  6510.93  81.4602
 56.3536  6385.3  80.3335
 56.3956  6243.32  79.4107
 56.4376  6329.03  80.0031
 56.4796  6172.46  78.8212
 56.5216  6331.67  80.2079
 56.5636  6274.69  79.4095
 56.6056  6394.48  80.397
 56.6476  6408.35  80.0813
 56.6896  6453.76  80.85
 56.7316  6292.39  79.7465
 56.7736  6163.44  78.9002
 56.8156  6287.81  79.7446
 56.8576  6158.96  78.8543
 56.8996  6264.47  79.4437
 56.9416  6196.67  79.3265
 56.9836  6318.76  79.6198
 57.0256  6220.03  79.3098
 57.0676  6322.66  80.0571
 57.1096  6260.25  79.483
 57.1516  6203.12  79.1551
 57.1936  6246.34  79.1917
 57.2356  6142.48  78.8573
 57.2776  6321.67  79.9552
 57.3196  6203.79  79.5601
 57.3616  6268.23  79.4568
 57.4036  6221.27  79.2296
 57.4456  6250.31  79.3717
 57.4876  6256.53  79.2978
 57.5296  6201.9  79.2677
 57.5716  6128.42  78.8182
 57.6136  6096.98  78.4419
 57.6556  6191.76  79.1802
 57.6976  6184.5  78.9483
 57.7396  6033.38  78.3188
 57.7816  6051.28  78.826
 57.8236  6077.93  78.8261
 57.8656  6193.63  79.1789
 57.9076  6175.33  79.0912
 57.9496  6051.61  78.6572
 57.9916  6232.11  79.335
 58.0336  6138.14  79.0066
 58.0756  6174.77  78.8839
 58.1176  6200.9  79.0308
 58.1596  6137.16  79.2181
 58.2016  5936.61  77.1471
 58.2436  5978.71  77.8246
 58.2856  5799.39  76.5746
 58.3276  5916.38  77.7105
 58.3696  5965.86  77.7904
 58.4116  5925.72  77.3945
 58.4536  6013.69  77.8556
 58.4956  5853.34  76.9853
 58.5376  6047  77.8177
 58.5796  5857.83  77.0073
 58.6216  5893.62  77.0676
 58.6636  5948.16  77.6276
 58.7056  5898.43  77.1639
 58.7476  5841.21  77.2261
 58.7896  5855.79  76.9727
 58.8316  5967.25  77.695
 58.8736  5980.08  77.7918
 58.9156  5782.94  76.5417
 58.9576  5959.28  78.0124
 58.9996  5926.58  77.0622
 59.0416  5940.96  77.5092
 59.0836  5920.55  77.2977
 59.1256  5806.24  77.2361
 59.1676  5873.16  77.9901
 59.2096  5913.27  77.5583
 59.2516  5965.07  77.4809
 59.2936  5769.4  76.5201
 59.3356  5802.28  76.6181
 59.3776  5790.07  76.7028
 59.4196  5873.97  77.1894
 59.4616  5873.75  77.0539
 59.5036  5819  76.7289
 59.5456  6127.88  78.4299
 59.5876  5899.7  77.1447
 59.6296  5699.31  75.8904
 59.6716  5846.94  76.9241
 59.7136  5799.29  76.5985
 59.7556  5958.3  77.7771
 59.7976  5823.29  76.6376
 59.8396  5852.01  76.7224
 59.8816  5963.82  77.992
 59.9236  5972.09  77.6935
 59.9656  5828.23  77.0078
 60.0076  5711.29  75.6067
 60.0496  5888.32  76.794
 60.0916  6017.01  77.526
 60.1336  5844.19  77.4938
 60.1756  5807.4  78.4108
 60.1996  5841.53  80.8402