File: docs/examples/opeando_xrd/IS17_D/Data/IS17_D/17_Da_f00055.xye
# /beamlines/bl04/projects/cycle2025-II/20250340211-lsimonelli/DATA/IS17_D/17_Da_f00055.xye : mythproc.py merge -s 0.006 -l 0.5 -f /beamlines/bl04/inhouse/ff/FlatField/ff_20Nov2024rod8mm60s_17keV.raw -b True -c true -o xye /beamlines/bl04/projects/cycle2025-II/20250340211-lsimonelli/DATA/IS17_D/17_Da_00055.dat
# IsMon = [6759283, 6757959, 6759241]  IsPos = [-1.4999, -2.4883, -3.4988]
# Wave = 0.4962  CalPath /beamlines/bl04/projects/cycle2025-II/20250340211-lsimonelli/DATA/Align/Si_Pos1_25keV_f00001.cal
# Date = 2025-09-24_08:51:56 Dt = 4.8000  Bin = 0.0060  <imon> = 6758828 +/- 614 (Min/Max) 6757959 / 6759283
# icurr 249.7808  mocoIn 1.7048E-05  mocoOut 0.7999  i15 7.07569e+06  imon 6.75883e+06  i7 7.6667  iEMpd_timer 4.8000  iEMpd_1 3.6837E-08  iEMpd_2 7.9277E-08  iEMpd_3 1.8274E-08  iEMpd_4 4.8393E-08  iEMhp_timer 4.8000  iEMhp_1 4.8800E-06  iEMhp_2 -2.5162E-08  iEMhp_3 -2.6151E-08  iEMhp_4 -2.2080E-08
#      9776
 1.5856  40511.2  206.669
 1.6276  47336.7  219.569
 1.6696  54039.6  233.773
 1.7116  63238.1  253.382
 1.7536  71795.3  268.831
 1.7956  76942.6  278.997
 1.8376  73199.2  272.556
 1.8796  61329  247.653
 1.9216  49668.3  223.75
 1.9636  41794.8  204.41
 2.0056  37824.9  193.706
 2.0476  35138.2  188.746
 2.0896  33757.8  183.917
 2.1316  33083.2  181.195
 2.1736  31082.9  177.025
 2.2156  32052.5  178.322
 2.2576  30580.1  174.804
 2.2996  29417.1  172.076
 2.3416  29826.9  171.885
 2.3836  29217.4  170.227
 2.4256  27855  166.752
 2.4676  27861.9  166.536
 2.5096  27609.7  165.835
 2.5516  27098.9  168.115
 2.5936  27100.7  164.721
 2.6356  26668.4  164.085
 2.6776  26451.5  162.317
 2.7196  26301.6  161.981
 2.7616  25927.6  160.99
 2.8036  25511.7  159.861
 2.8456  25555.8  160.615
 2.8876  25293.6  159.669
 2.9296  24737.7  158.028
 2.9716  24680.8  157.338
 3.0136  24258.7  156.051
 3.0556  24470.4  157.129
 3.0976  24270.8  155.422
 3.1396  24196.3  155.907
 3.1816  23721.3  154.008
 3.2236  23748.8  154.381
 3.2656  23815.8  153.645
 3.3076  23527.6  154.159
 3.3496  23933.1  154.42
 3.3916  24083.7  154.728
 3.4336  24678.4  157.207
 3.4756  24823.7  157.592
 3.5176  25610.3  159.874
 3.5596  25654.3  162.435
 3.6016  25936.5  160.936
 3.6436  25010.1  159.141
 3.6856  24472.3  155.718
 3.7276  23544.1  153.827
 3.7696  23403.1  153.559
 3.8116  22858.5  151.648
 3.8536  23136  152.494
 3.8956  22930.6  151.645
 3.9376  23024.7  152.211
 3.9796  22985.9  151.588
 4.0216  23162.1  151.2
 4.0636  23052.9  152.323
 4.1056  22866  151.349
 4.1476  23148  152.592
 4.1896  23421  153.345
 4.2316  23436.8  153.222
 4.2736  24094.1  155.146
 4.3156  24186.9  155.672
 4.3576  25049.3  158.352
 4.3996  25139.4  158.894
 4.4416  25524.6  159.692
 4.4836  26095.1  161.621
 4.5256  26538.5  163.593
 4.5676  26699.2  164.35
 4.6096  27072.8  164.145
 4.6516  27515.8  165.192
 4.6936  27572.8  166.182
 4.7356  27726.1  166.471
 4.7776  27810.8  166.558
 4.8196  27492.4  166.242
 4.8616  26981.7  164.179
 4.9036  26649.6  162.912
 4.9456  26539.5  163.224
 4.9876  25942.3  161.278
 5.0296  26331.1  162.3
 5.0716  26189.2  162.64
 5.1136  26501.7  163.312
 5.1556  26669.3  163.296
 5.1976  26989.8  164.263
 5.2396  27119.9  164.357
 5.2816  27126.8  164.841
 5.3236  27307.4  165.093
 5.3656  26609.1  163.884
 5.4076  26436  163.506
 5.4496  26828.3  164.2
 5.4916  26702.7  163.568
 5.5336  26813.6  163.916
 5.5756  26687.3  163.55
 5.6176  26683.1  162.981
 5.6596  26872.8  164.527
 5.7016  26996.8  164.177
 5.7436  27269.1  165.274
 5.7856  26870.3  164.117
 5.8276  27436.9  165.569
 5.8696  27512.8  165.965
 5.9116  27665.1  166.734
 5.9536  27903.8  167.495
 5.9956  28007.3  167.175
 6.0376  28152.6  168.247
 6.0796  28424.7  168.889
 6.1216  28469.9  169.273
 6.1636  28482.4  168.327
 6.2056  28603.4  169.354
 6.2476  28748.4  169.653
 6.2896  29058.5  170.245
 6.3316  28973.1  170.164
 6.3736  29012.9  170.18
 6.4156  29321.4  170.973
 6.4576  29408.1  170.836
 6.4996  29555.6  171.747
 6.5416  29515.3  171.763
 6.5836  29526.1  172.03
 6.6256  29755.1  172.254
 6.6676  30309.9  173.418
 6.7096  30056.9  173.541
 6.7516  30574.3  174.687
 6.7936  30840.7  174.868
 6.8356  30969.7  175.314
 6.8776  31167.5  176.684
 6.9196  31261.4  177.349
 6.9616  31618.4  177.801
 7.0036  32128.1  178.877
 7.0456  31854.3  177.406
 7.0876  31883.2  179.18
 7.1296  31998.5  178.638
 7.1716  31942.1  178.01
 7.2136  31800.3  177.399
 7.2556  31923.9  177.908
 7.2976  32044.6  178.745
 7.3396  31745.8  178.125
 7.3816  31970.6  178.97
 7.4236  32445.5  179.578
 7.4656  32416.9  178.977
 7.5076  32621.4  179.679
 7.5496  32589.4  180.132
 7.5916  32403.6  179.651
 7.6336  32933.1  181.007
 7.6756  32937.8  180.872
 7.7176  33529.9  182.797
 7.7596  33253.4  183.296
 7.8016  33680.6  186.665
 7.8436  34201.6  184.759
 7.8856  34485.5  185.138
 7.9276  35140.5  187.279
 7.9696  35301.1  188.021
 8.0116  36052.2  188.54
 8.0536  36384.6  189.666
 8.0956  36245.7  190.489
 8.1376  36755.6  191.286
 8.1796  36984.1  192.432
 8.2216  38008.2  193.799
 8.2636  38057.2  194.203
 8.3056  37677.4  193.977
 8.3476  38578.5  195.606
 8.3896  38464.6  195.398
 8.4316  38444.4  195.512
 8.4736  38623.1  195.417
 8.5156  38172.1  194.561
 8.5576  37962.1  195.641
 8.5996  37839.8  193.557
 8.6416  37895.2  194.977
 8.6836  37627.7  194.11
 8.7256  38253.1  195.158
 8.7676  37356.8  195.772
 8.8096  37569.2  193.605
 8.8516  37159.9  192.15
 8.8936  37137.2  191.985
 8.9356  36747.1  191.314
 8.9776  37217.2  192.636
 9.0196  36749.5  191.099
 9.0616  36917.1  190.991
 9.1036  36353.2  190.729
 9.1456  36644  190.84
 9.1876  36796.8  191.185
 9.2296  36474.3  189.75
 9.2716  36032.4  188.658
 9.3136  36213.3  189.11
 9.3556  36137.8  188.9
 9.3976  34878.8  186.109
 9.4396  35202.2  186.862
 9.4816  34893.2  185.901
 9.5236  34818.5  185.614
 9.5656  34633.9  185.446
 9.6076  34368.2  185.268
 9.6496  33925.2  183.991
 9.6916  34226.1  184.777
 9.7336  34239.7  184.591
 9.7756  34273.3  185.957
 9.8176  33526.9  183.415
 9.8596  33270  181.156
 9.9016  32986.6  180.376
 9.9436  32774.7  179.708
 9.9856  32463.3  179.084
 10.0276  32101.8  179.167
 10.0696  32383.8  179.009
 10.1116  31321.1  176.309
 10.1536  31218.6  176.187
 10.1956  30695.8  174.301
 10.2376  30341  172.795
 10.2796  30746.3  174.077
 10.3216  30384.7  173.322
 10.3636  30131.4  172.628
 10.4056  29952.8  172.519
 10.4476  29728.7  171.492
 10.4896  30014  171.913
 10.5316  28928.1  169.332
 10.5736  29019.8  170.007
 10.6156  28487.1  168.207
 10.6576  28807.2  167.719
 10.6996  28267.8  166.81
 10.7416  27896.2  165.939
 10.7836  28328.3  167.916
 10.8256  27815.4  166.817
 10.8676  27987.6  166.869
 10.9096  27662.5  165.93
 10.9516  27262.7  163.663
 10.9936  27444.2  164.401
 11.0356  27359.3  164.788
 11.0776  27142.7  163.447
 11.1196  26492.2  162.218
 11.1616  26451.8  161.784
 11.2036  26608.6  162.113
 11.2456  26510.7  162.526
 11.2876  26380  161.848
 11.3296  26017.3  160.633
 11.3716  26518  161.861
 11.4136  26441.1  162.526
 11.4556  26584.4  162.636
 11.4976  27072.8  163.083
 11.5396  27519.7  164.601
 11.5816  27598.3  165.297
 11.6236  27214.2  164.372
 11.6656  26590.8  161.616
 11.7076  26000.4  160.656
 11.7496  25661.7  163.545
 11.7916  25689.7  158.959
 11.8336  25248.3  158.473
 11.8756  25142.6  157.68
 11.9176  25172  157.424
 11.9596  24775.7  156.362
 12.0016  24974.2  157.511
 12.0436  24744.5  156.477
 12.0856  24454.1  156.09
 12.1276  24661.1  156.667
 12.1696  24711.3  155.954
 12.2116  24812.9  156.266
 12.2536  24495.5  156.103
 12.2956  24432.3  155.234
 12.3376  24215.8  154.749
 12.3796  24382.3  155.743
 12.4216  24687.5  155.925
 12.4636  24005.1  154.662
 12.5056  24337.2  155.009
 12.5476  24377.8  154.663
 12.5896  24437.5  155.488
 12.6316  24048.4  154.394
 12.6736  24119.1  155.297
 12.7156  23903.1  154.279
 12.7576  24324.6  155.881
 12.7996  24375.8  154.679
 12.8416  23986.1  154.492
 12.8836  24613.8  156.234
 12.9256  24829  156.013
 12.9676  24764.7  156.242
 13.0096  24750.7  157.297
 13.0516  24861.6  156.687
 13.0936  24910.8  157.243
 13.1356  25271.5  157.348
 13.1776  24918.4  157.241
 13.2196  25126.9  157.555
 13.2616  24939.4  157.281
 13.3036  24935.5  157.235
 13.3456  24988.8  157.763
 13.3876  24791.8  156.426
 13.4296  24794.5  156.584
 13.4716  24964.3  156.729
 13.5136  24909.8  156.707
 13.5556  24985.3  157.565
 13.5976  25028.4  157.846
 13.6396  25093.4  157.42
 13.6816  24666.4  156.568
 13.7236  25525.7  158.902
 13.7656  24605.6  156.552
 13.8076  24804.9  155.967
 13.8496  24410  155.316
 13.8916  24317.1  156.025
 13.9336  24507.3  155.864
 13.9756  24260.5  154.421
 14.0176  24231.4  155.013
 14.0596  24325.4  155.281
 14.1016  24090.5  154.918
 14.1436  23921.8  153.508
 14.1856  23510.4  152.478
 14.2276  23358.2  152.46
 14.2696  23407.2  152.471
 14.3116  23133.3  151.473
 14.3536  22992.2  151.188
 14.3956  23041.9  151.084
 14.4376  23006.7  150.743
 14.4796  22900.2  150.388
 14.5216  22424  149.608
 14.5636  22300.1  148.762
 14.6056  22547.5  149.158
 14.6476  22433.6  148.011
 14.6896  22113.2  147.492
 14.7316  21715.7  147.189
 14.7736  21686  146.244
 14.8156  21466.5  145.528
 14.8576  21277  144.731
 14.8996  20895.5  144.638
 14.9416  20718.4  144.031
 14.9836  20771.9  144.161
 15.0256  20780.9  143.124
 15.0676  20634.5  143.068
 15.1096  20559  142.411
 15.1516  20069.9  141.27
 15.1936  20007.5  140.47
 15.2356  19886  140.2
 15.2776  19833.7  139.722
 15.3196  19489.5  139.515
 15.3616  19241.5  138.375
 15.4036  19233.6  138.196
 15.4456  19616.3  139.222
 15.4876  18901.2  136.341
 15.5296  18817.6  136.322
 15.5716  18541.1  134.914
 15.6136  18528.6  135.201
 15.6556  18542.7  134.492
 15.6976  18465.3  134.507
 15.7396  18347.1  134.466
 15.7816  18312.1  133.836
 15.8236  18182.6  134.074
 15.8656  18156.9  133.769
 15.9076  17619.9  131.605
 15.9496  17774.5  134.975
 15.9916  17838.1  135.655
 16.0336  17758.2  132.209
 16.0756  17729.1  132.415
 16.1176  17391  131.212
 16.1596  16942.6  130.689
 16.2016  17308.3  130.834
 16.2436  16926.1  129.761
 16.2856  16928.7  129.311
 16.3276  16686.9  128.803
 16.3696  16806  129.085
 16.4116  16604.3  128.766
 16.4536  16817  129.366
 16.4956  16758  128.876
 16.5376  16481.9  128.005
 16.5796  16660.5  128.047
 16.6216  16757.5  128.725
 16.6636  16627.6  128.384
 16.7056  16587.3  128.095
 16.7476  16596  127.654
 16.7896  16627.7  128.533
 16.8316  16513.7  128.061
 16.8736  16533  128.391
 16.9156  16401  128.212
 16.9576  16282.8  128.559
 16.9996  16415.7  129.566
 17.0416  16657.1  128.853
 17.0836  16414.4  127.671
 17.1256  16227.1  126.946
 17.1676  16273.9  127.122
 17.2096  16156.3  126.542
 17.2516  16002  125.717
 17.2936  15944.1  125.815
 17.3356  15631.9  124.577
 17.3776  15604.9  124.666
 17.4196  15825.2  125.235
 17.4616  15512.8  123.91
 17.5036  15374.4  123.725
 17.5456  15210.3  123.701
 17.5876  15301  123.113
 17.6296  15228.4  122.635
 17.6716  15034.4  122.418
 17.7136  14934.4  122.159
 17.7556  15065.7  122.989
 17.7976  15067.3  122.737
 17.8396  14953.5  121.767
 17.8816  14844.1  121.874
 17.9236  14769.9  121.373
 17.9656  14930.2  122.571
 18.0076  14887.5  121.968
 18.0496  14888.6  121.108
 18.0916  14720.9  120.957
 18.1336  14837.7  121.537
 18.1756  14884.4  121.257
 18.2176  14643.1  120.499
 18.2596  14645.1  120.245
 18.3016  14719.4  120.801
 18.3436  14805.5  121.159
 18.3856  14461.1  119.873
 18.4276  14623.9  120.216
 18.4696  14474.8  119.705
 18.5116  14526.3  120.205
 18.5536  14688.2  121.232
 18.5956  14364.5  119.442
 18.6376  14354.8  119.81
 18.6796  14238.8  118.644
 18.7216  14473.9  120.115
 18.7636  14187.2  118.906
 18.8056  14317.3  119.39
 18.8476  14175.1  119.423
 18.8896  14245.3  119.051
 18.9316  14366.5  119.542
 18.9736  14220.1  118.627
 19.0156  14165.2  118.801
 19.0576  14079.7  117.31
 19.0996  14301.5  119.085
 19.1416  13900.2  117.651
 19.1836  14152  118.318
 19.2256  13920.7  117.561
 19.2676  14113.1  118.459
 19.3096  14081.1  118.575
 19.3516  14025.9  118.294
 19.3936  14090.2  118.472
 19.4356  14111  118.427
 19.4776  14042.5  118.237
 19.5196  14165.1  118.6
 19.5616  13934.3  117.888
 19.6036  14100.9  118.088
 19.6456  14075.8  118.101
 19.6876  14249.8  118.473
 19.7296  13955.1  117.688
 19.7716  13995.3  118.025
 19.8136  14269.6  119.388
 19.8556  14319.1  119.07
 19.8976  14357.4  119.296
 19.9396  14495.2  119.441
 19.9816  14621.6  120.269
 20.0236  14817.9  121.229
 20.0656  15102.4  122.384
 20.1076  15028.1  122.556
 20.1496  14813.3  121.687
 20.1916  14540.2  120.059
 20.2336  14417.1  119.489
 20.2756  14093.5  118.572
 20.3176  13886.9  117.447
 20.3596  13978.5  117.808
 20.4016  13831.6  116.991
 20.4436  13783.4  117.345
 20.4856  13630.5  116.48
 20.5276  13640.2  116.983
 20.5696  13453.4  115.643
 20.6116  13403.8  115.707
 20.6536  13421.7  115.292
 20.6956  13392.9  115.293
 20.7376  13495.5  115.966
 20.7796  13366.2  115.092
 20.8216  13513.6  115.434
 20.8636  13327.9  115
 20.9056  13427.8  115.385
 20.9476  13089.2  113.762
 20.9896  13489.5  115.355
 21.0316  13457.5  115.116
 21.0736  13329.4  115.086
 21.1156  13242  114.872
 21.1576  13224.5  114.842
 21.1996  13119.8  114.362
 21.2416  13136.9  114.273
 21.2836  13199.5  114.506
 21.3256  13085.5  114.095
 21.3676  13283.7  114.502
 21.4096  12970.4  113.45
 21.4516  13080.3  113.806
 21.4936  12899.7  113.277
 21.5356  13188.9  114.482
 21.5776  13109.8  113.973
 21.6196  13064.6  113.806
 21.6616  12939.8  113.352
 21.7036  12905.1  112.981
 21.7456  13028  113.593
 21.7876  12921.7  112.88
 21.8296  12913.9  112.7
 21.8716  12919.4  112.958
 21.9136  12927  113.192
 21.9556  12864.1  112.584
 21.9976  12857.6  112.572
 22.0396  12763  112.415
 22.0816  12844.6  113.316
 22.1236  12843.2  112.761
 22.1656  13004.8  113.597
 22.2076  12839.4  112.346
 22.2496  12887  112.58
 22.2916  12926.6  112.628
 22.3336  12700.8  112.372
 22.3756  12628.3  111.773
 22.4176  12772.6  112.267
 22.4596  12522  111.745
 22.5016  12969.7  113.216
 22.5436  12873.8  112.673
 22.5856  12719.3  112.242
 22.6276  12668.8  112.191
 22.6696  12724.1  112.747
 22.7116  12680.8  112.075
 22.7536  12814.9  112.641
 22.7956  12846.2  112.107
 22.8376  12655  111.788
 22.8796  12723.3  111.884
 22.9216  12909.1  113.256
 22.9636  12766.2  111.776
 23.0056  12695.2  111.598
 23.0476  12886.5  113.014
 23.0896  13133.7  113.456
 23.1316  12936.6  113.047
 23.1736  12692.3  114.724
 23.2156  13059.7  113.902
 23.2576  12901.4  113.347
 23.2996  12832.1  112.827
 23.3416  12757.6  113.007
 23.3836  12728.7  112.122
 23.4256  12816.4  112.621
 23.4676  12615.3  111.435
 23.5096  12721.1  112.58
 23.5516  12839.2  112.374
 23.5936  12784.5  113.049
 23.6356  12937.1  113.382
 23.6776  12728.6  112.677
 23.7196  12565.2  111.533
 23.7616  12745.1  112.238
 23.8036  12846.9  112.728
 23.8456  12762.4  111.923
 23.8876  12492.6  111.087
 23.9296  12541.7  111.804
 23.9716  12448.6  110.578
 24.0136  12431.4  111.404
 24.0556  12377.7  110.896
 24.0976  12321.8  110.441
 24.1396  12318.1  113.099
 24.1816  12398  111.875
 24.2236  12344.1  111.237
 24.2656  12095.3  109.584
 24.3076  12116.4  109.927
 24.3496  12117.2  109.829
 24.3916  12128.4  109.923
 24.4336  11924.8  109.207
 24.4756  11988.2  109.361
 24.5176  11828  108.28
 24.5596  11817.5  108.359
 24.6016  11689.2  108.057
 24.6436  11817  108.131
 24.6856  11861.1  108.098
 24.7276  11758.6  107.947
 24.7696  11537.1  107.038
 24.8116  11691  107.933
 24.8536  11513.5  107.104
 24.8956  11546.1  106.994
 24.9376  11560  106.987
 24.9796  11422  106.711
 25.0216  11234.3  105.936
 25.0636  11316.6  105.982
 25.1056  11206  106.164
 25.1476  11493  109.191
 25.1896  11400.1  107.224
 25.2316  11458.6  106.759
 25.2736  11393.4  106.11
 25.3156  11335.9  105.915
 25.3576  11297.6  106.165
 25.3996  11299.3  106.147
 25.4416  11306.3  106.162
 25.4836  11044.9  105.449
 25.5256  11193.6  105.525
 25.5676  11172.2  105.155
 25.6096  11171.3  105.726
 25.6516  11129.4  105.026
 25.6936  11123.5  105.309
 25.7356  11078.7  105.236
 25.7776  11128.6  105.074
 25.8196  11021.5  104.805
 25.8616  11140.1  105.295
 25.9036  11203.7  105.054
 25.9456  10980.6  104.6
 25.9876  11076.3  105.113
 26.0296  11165.2  105.048
 26.0716  10977.2  104.581
 26.1136  10962.2  104.455
 26.1556  11144  104.683
 26.1976  10876.7  104.352
 26.2396  11002.8  104.102
 26.2816  10872.7  104.102
 26.3236  11053.9  105.124
 26.3656  10929.4  104.25
 26.4076  11020.4  104.866
 26.4496  11470.2  106.496
 26.4916  11141.1  104.961
 26.5336  11017.8  104.703
 26.5756  11219.1  105.518
 26.6176  10979.9  104.41
 26.6596  10908.5  104.405
 26.7016  10806.9  103.677
 26.7436  10745.7  103.503
 26.7856  10635.2  102.961
 26.8276  10820.9  103.806
 26.8696  10695.6  103.087
 26.9116  10626.3  102.688
 26.9536  10618.1  102.693
 26.9956  10675.2  103.007
 27.0376  10528.1  102.511
 27.0796  10683  102.991
 27.1216  10617.3  102.746
 27.1636  10562.6  102.647
 27.2056  10542.2  102.432
 27.2476  10467.7  102.071
 27.2896  10594.9  102.828
 27.3316  10461.3  101.855
 27.3736  10479  102.217
 27.4156  10417.2  101.752
 27.4576  10381.7  101.815
 27.4996  10320.4  101.107
 27.5416  10435.9  101.993
 27.5836  10467.6  101.962
 27.6256  10656.6  103.028
 27.6676  10648.4  103.032
 27.7096  10427.9  101.823
 27.7516  10357.5  101.626
 27.7936  10233.8  101.189
 27.8356  10271.2  100.991
 27.8776  10300.1  101.18
 27.9196  10221.7  100.647
 27.9616  10177.1  100.617
 28.0036  10201.1  100.711
 28.0456  10296  101.305
 28.0876  10080.3  100.332
 28.1296  10158.4  100.497
 28.1716  10197.2  100.76
 28.2136  10145.8  100.469
 28.2556  10064.9  100.182
 28.2976  10026.9  99.9876
 28.3396  10091.5  100.069
 28.3816  10092.3  100.092
 28.4236  10141.8  100.495
 28.4656  9816.04  98.8985
 28.5076  9961.67  99.2613
 28.5496  10053.3  99.9865
 28.5916  10036.9  99.7058
 28.6336  9948.65  99.6113
 28.6756  10149.1  99.8059
 28.7176  9954.51  99.2774
 28.7596  9854.53  98.7925
 28.8016  9985.73  99.482
 28.8436  9938.79  99.492
 28.8856  9842.2  98.9039
 28.9276  9936.76  99.5716
 28.9696  9762.47  98.3537
 29.0116  9873.03  99.1034
 29.0536  9675.31  98.3024
 29.0956  9857.39  98.9392
 29.1376  9811.94  98.676
 29.1796  9841.47  98.8669
 29.2216  9806.59  98.5344
 29.2636  9866.2  98.9032
 29.3056  9830.96  98.5233
 29.3476  9841.37  99.1009
 29.3896  9854.13  99.2572
 29.4316  9944.72  99.0538
 29.4736  9873.69  98.7614
 29.5156  9917.51  98.8898
 29.5576  9797.5  99.0495
 29.5996  9680.03  97.7093
 29.6416  9801.4  98.4336
 29.6836  9798.1  98.3495
 29.7256  9797.57  98.6816
 29.7676  9758.33  98.3738
 29.8096  9479.95  96.9073
 29.8516  9568  97.688
 29.8936  9663.7  98.2705
 29.9356  9794.78  98.6876
 29.9776  9646.06  98.0882
 30.0196  9639.62  97.7094
 30.0616  9661.99  97.9312
 30.1036  9742.83  98.1659
 30.1456  9664.28  97.9984
 30.1876  9498.96  97.1354
 30.2296  9599.61  97.5975
 30.2716  9692.81  97.7061
 30.3136  9459.75  97.3802
 30.3556  9606.42  98.1404
 30.3976  9502.49  99.1278
 30.4396  9678.42  97.3505
 30.4816  9826.49  97.6934
 30.5236  9601.9  96.5909
 30.5656  9612.57  97.2976
 30.6076  9617.12  96.7492
 30.6496  9644.89  97.2747
 30.6916  9602.05  97.1532
 30.7336  9498.64  96.7791
 30.7756  9579.44  97.2836
 30.8176  9469.76  96.6407
 30.8596  9605.52  97.0918
 30.9016  9362.1  96.2008
 30.9436  9646.94  97.4037
 30.9856  9649.55  97.5227
 31.0276  9426.01  95.9995
 31.0696  9400.57  96.4465
 31.1116  9416.63  96.5028
 31.1536  9497.91  96.7975
 31.1956  9413.61  96.4581
 31.2376  9335.05  96.0662
 31.2796  9360.73  95.7328
 31.3216  9469  96.2302
 31.3636  9422.48  96.6899
 31.4056  9377.97  97.7958
 31.4476  9381.54  95.6821
 31.4896  9385.74  96.2083
 31.5316  9355.81  95.4524
 31.5736  9425.36  95.6308
 31.6156  9314.48  95.0813
 31.6576  9343.51  95.3228
 31.6996  9365.36  95.1078
 31.7416  9282.07  95.7466
 31.7836  9447.49  95.6032
 31.8256  9128.12  94.2417
 31.8676  9400.3  95.6273
 31.9096  9183.38  94.8806
 31.9516  9069.86  94.4477
 31.9936  9237.71  95.1464
 32.0356  9253.68  95.2917
 32.0776  9310.26  95.4694
 32.1196  9229.57  95.1435
 32.1616  9173.5  94.3129
 32.2036  9075.06  94.3137
 32.2456  9104.41  94.8499
 32.2876  9106.15  94.3562
 32.3296  9090.96  94.2418
 32.3716  9103.98  94.4203
 32.4136  9237.23  95.3157
 32.4556  9275.73  94.8862
 32.4976  9132.68  94.0579
 32.5396  9085.72  93.8923
 32.5816  9036.19  93.7552
 32.6236  9152.85  94.4281
 32.6656  9264.05  95.5481
 32.7076  9116.59  94.4368
 32.7496  9063.96  93.8296
 32.7916  9177.93  94.3808
 32.8336  9127.8  94.2194
 32.8756  9156  94.0767
 32.9176  9015.62  93.8359
 32.9596  8949.07  93.5626
 33.0016  9121.16  94.2579
 33.0436  9209.69  94.8905
 33.0856  9000.73  93.872
 33.1276  8897.34  93.0726
 33.1696  9013.37  93.5173
 33.2116  9094.53  94.1636
 33.2536  9003.93  93.6935
 33.2956  9001.76  93.7634
 33.3376  8960.52  93.2871
 33.3796  9035.72  93.8856
 33.4216  9106.23  93.8411
 33.4636  9049.72  93.7041
 33.5056  8925.55  93.307
 33.5476  8900.96  93.1625
 33.5896  9018.76  93.5493
 33.6316  8811.33  92.7781
 33.6736  8762.72  92.7704
 33.7156  8872.89  93.399
 33.7576  8920.43  93.2741
 33.7996  9026.75  93.5865
 33.8416  8638.59  91.7242
 33.8836  8846.66  92.6179
 33.9256  8793.78  92.398
 33.9676  8977.98  93.2502
 34.0096  8669.78  91.9522
 34.0516  8847.88  92.5331
 34.0936  8827.41  92.6876
 34.1356  8781.47  92.1933
 34.1776  8721.11  91.8827
 34.2196  8765.38  92.2972
 34.2616  8581.6  91.4585
 34.3036  8698.58  92.3293
 34.3456  8719.75  92.1955
 34.3876  8811.43  92.6405
 34.4296  8729.96  91.8975
 34.4716  8730.95  92.0603
 34.5136  8758.59  92.4081
 34.5556  8764.76  92.6976
 34.5976  8669.09  91.9903
 34.6396  8708.86  92.0395
 34.6816  8814.2  92.5792
 34.7236  8660.49  91.5557
 34.7656  8670.32  91.8023
 34.8076  8626.41  91.8958
 34.8496  8713.15  92.2818
 34.8916  8707.96  92.0514
 34.9336  8734.42  92.1527
 34.9756  8727.85  92.0419
 35.0176  8766.01  92.7699
 35.0596  8601.84  91.729
 35.1016  8633.06  91.665
 35.1436  8765.87  92.0483
 35.1856  8674.68  91.6958
 35.2276  8694.25  91.9782
 35.2696  8603.99  91.6852
 35.3116  8637.43  91.9631
 35.3536  8565.93  91.2936
 35.3956  8523.58  90.7712
 35.4376  8582.72  91.6463
 35.4796  8659.28  92.1145
 35.5216  8535.9  91.413
 35.5636  8370.92  91.27
 35.6056  8494.01  90.9547
 35.6476  8578.87  91.3027
 35.6896  8664.66  91.8519
 35.7316  8401.56  90.4099
 35.7736  8527.11  91.2874
 35.8156  8365.18  90.4148
 35.8576  8447.3  91.1084
 35.8996  8624.22  92.0167
 35.9416  8830.58  92.5312
 35.9836  8418.99  90.7788
 36.0256  8503.73  91.248
 36.0676  8579.02  91.415
 36.1096  8469.59  90.9641
 36.1516  8479.7  90.9065
 36.1936  8414.09  90.4005
 36.2356  8393.3  90.9267
 36.2776  8418.8  90.5528
 36.3196  8361.05  89.9094
 36.3616  8425.44  90.3815
 36.4036  8422.38  90.4256
 36.4456  8391.9  90.4717
 36.4876  8375.99  90.3284
 36.5296  8431.46  90.6624
 36.5716  8386.42  91.2103
 36.6136  8487.02  90.5185
 36.6556  8436.12  90.4504
 36.6976  8434.25  90.942
 36.7396  8385.69  90.5843
 36.7816  8445.05  91.1086
 36.8236  8273.55  90.0984
 36.8656  8383.12  90.7692
 36.9076  8264.42  90.0002
 36.9496  8310.02  90.2374
 36.9916  8227.16  89.4164
 37.0336  8405.88  90.6989
 37.0756  8352.28  90.2004
 37.1176  8229  89.8028
 37.1596  8277.23  90.0675
 37.2016  8261.14  90.2112
 37.2436  8397.39  90.261
 37.2856  8275.57  89.8641
 37.3276  8495.35  90.384
 37.3696  8201.79  89.6989
 37.4116  8317.3  90.227
 37.4536  8197.66  89.2979
 37.4956  8175.32  89.3686
 37.5376  8258.04  91.3752
 37.5796  8177.38  90.8896
 37.6216  8283.49  89.7203
 37.6636  8117.9  88.7202
 37.7056  8138.76  89.0296
 37.7476  8204.39  88.9156
 37.7896  8112.37  88.9254
 37.8316  7969.21  88.3
 37.8736  8172.61  88.9422
 37.9156  8115.72  88.6356
 37.9576  8189.97  88.9298
 37.9996  7960.12  87.3957
 38.0416  8054.32  88.7193
 38.0836  8267.61  89.7918
 38.1256  8147.97  89.0976
 38.1676  7952.31  88.1563
 38.2096  8002.6  88.0573
 38.2516  8289.09  89.818
 38.2936  8078.76  88.4809
 38.3356  8268.48  89.4223
 38.3776  7947.75  87.9502
 38.4196  8084.27  88.5576
 38.4616  8069.38  88.7049
 38.5036  8172.32  89.1138
 38.5456  7970.09  88.8497
 38.5876  8040.43  89.443
 38.6296  8065.43  88.3741
 38.6716  7980.23  87.6992
 38.7136  7791.87  86.6024
 38.7556  7885.44  87.6239
 38.7976  8015.39  88.2693
 38.8396  7955.89  88.2109
 38.8816  7817.84  87.4116
 38.9236  7994.15  88.2041
 38.9656  7962.27  87.9458
 39.0076  8038.03  87.765
 39.0496  7922.33  87.6703
 39.0916  8116.94  88.3684
 39.1336  7931.33  87.7846
 39.1756  7894.95  87.6494
 39.2176  7909.94  88.2656
 39.2596  7828.55  87.7275
 39.3016  8000.72  88.1902
 39.3436  7813.98  87.6452
 39.3856  7908.6  87.624
 39.4276  8027  88.7684
 39.4696  7926.78  87.8451
 39.5116  7962.02  88.5411
 39.5536  8081.66  89.6504
 39.5956  8125.76  88.9851
 39.6376  7932.55  87.9226
 39.6796  7929.9  87.6516
 39.7216  8108.15  88.7225
 39.7636  8013.85  88.7765
 39.8056  8021.67  88.5969
 39.8476  7814.48  87.7052
 39.8896  7989.59  88.3077
 39.9316  7888.8  88.0067
 39.9736  8162.27  89.1612
 40.0156  8030.14  88.1766
 40.0576  7969.05  88.2059
 40.0996  8093.88  88.0651
 40.1416  8027.57  88.5165
 40.1836  8026.73  88.3839
 40.2256  8010.52  88.3464
 40.2676  7952.62  88.1294
 40.3096  8099.37  88.8627
 40.3516  8116.97  89.0672
 40.3936  8106.54  88.5706
 40.4356  8058.56  88.499
 40.4776  8029.7  88.7571
 40.5196  8065.21  89.0029
 40.5616  8115.98  88.9997
 40.6036  8014.1  88.6964
 40.6456  8031.43  88.3993
 40.6876  8186.58  89.2266
 40.7296  8098.45  88.7741
 40.7716  8114.89  89.1089
 40.8136  8012.76  88.4906
 40.8556  8088.23  89.041
 40.8976  8015.98  88.5649
 40.9396  8010.93  88.8863
 40.9816  8092.42  88.6188
 41.0236  8139.85  88.6532
 41.0656  8134.92  89.1752
 41.1076  8038.48  88.4138
 41.1496  8180.16  89.0964
 41.1916  8054.41  88.7382
 41.2336  8033.27  88.6071
 41.2756  7972.35  87.8745
 41.3176  8015.64  88.7291
 41.3596  8071.65  88.7706
 41.4016  8010.48  88.6937
 41.4436  8134.02  89.1559
 41.4856  8113.34  89.214
 41.5276  7996.05  88.582
 41.5696  7932.23  87.858
 41.6116  7899.38  88.0669
 41.6536  8031.56  88.6619
 41.6956  7877.45  87.8585
 41.7376  7896.76  87.9941
 41.7796  7957.83  88.2101
 41.8216  7932.63  88.3148
 41.8636  8036.79  88.8318
 41.9056  7865.57  87.662
 41.9476  7982.59  88.4499
 41.9896  7966.24  88.1295
 42.0316  8014.09  88.4747
 42.0736  7946.87  88.2148
 42.1156  7917.96  87.894
 42.1576  7961.54  88.2108
 42.1996  7967.43  88.4039
 42.2416  8000.15  88.1707
 42.2836  7937.13  87.9345
 42.3256  7914.09  87.9238
 42.3676  8019.61  88.3069
 42.4096  7963.05  87.9618
 42.4516  7932.2  87.8734
 42.4936  7824.88  87.351
 42.5356  7911.69  87.9606
 42.5776  7907.5  87.8844
 42.6196  8082.14  88.9074
 42.6616  7760.77  87.2906
 42.7036  7916.47  87.5418
 42.7456  7922.11  87.9277
 42.7876  7956.25  88.2172
 42.8296  7917.96  87.8376
 42.8716  7775.22  87.2054
 42.9136  7799.08  87.1248
 42.9556  7989.54  88.3208
 42.9976  7981.2  88.2397
 43.0396  7844.76  87.2072
 43.0816  7872.17  87.7373
 43.1236  7723.35  86.9671
 43.1656  7883.27  87.6873
 43.2076  7699.54  86.762
 43.2496  7660.81  86.3644
 43.2916  7739.04  87.1651
 43.3336  7822.79  87.4763
 43.3756  7835.16  87.297
 43.4176  7625.68  86.2056
 43.4596  7844.42  87.2877
 43.5016  7733.88  87.0764
 43.5436  7831.12  87.5192
 43.5856  7735.34  87.0073
 43.6276  7719.84  86.8188
 43.6696  7786.18  87.4497
 43.7116  7804.61  87.0386
 43.7536  7863.09  87.8686
 43.7956  7625.39  87.6963
 43.8376  7733.61  86.8784
 43.8796  7711.42  86.8326
 43.9216  7714  86.759
 43.9636  7631.71  86.4099
 44.0056  7706.99  87.0622
 44.0476  7720.94  86.7715
 44.0896  7552.13  86.1617
 44.1316  7736.04  86.7235
 44.1736  7617.44  86.1761
 44.2156  7775.68  86.9307
 44.2576  7687.69  86.7506
 44.2996  7753.34  87.0968
 44.3416  7653.72  86.2964
 44.3836  7568.99  86.1481
 44.4256  7501.62  85.4049
 44.4676  7534.65  85.7516
 44.5096  7557.83  86.0222
 44.5516  7667.32  86.6103
 44.5936  7490.4  85.5591
 44.6356  7718.82  86.5898
 44.6776  7588.51  86.093
 44.7196  7595.91  86.5195
 44.7616  7575.47  87.7385
 44.8036  7434.65  85.3524
 44.8456  7590  86.4413
 44.8876  7481.8  85.6715
 44.9296  7728.83  86.5247
 44.9716  7381.65  84.9779
 45.0136  7510.11  85.6524
 45.0556  7666.05  86.5081
 45.0976  7452.54  85.4443
 45.1396  7559.27  85.8201
 45.1816  7417.9  84.9553
 45.2236  7622.69  86.0221
 45.2656  7402.85  85.2741
 45.3076  7510.11  85.666
 45.3496  7377.02  85.2113
 45.3916  7253.11  84.7544
 45.4336  7356.95  85.2048
 45.4756  7398.79  85.3102
 45.5176  7412.56  84.9997
 45.5596  7522.62  85.7514
 45.6016  7459.07  85.8071
 45.6436  7466.86  85.0337
 45.6856  7374.52  85.1399
 45.7276  7308.2  86.0991
 45.7696  7370.69  86.1222
 45.8116  7369.07  85.5601
 45.8536  7385.96  85.5459
 45.8956  7380.85  84.8686
 45.9376  7500.84  85.0202
 45.9796  7459.14  85.4661
 46.0216  7445.18  85.7347
 46.0636  7359.68  84.383
 46.1056  7362.02  84.3872
 46.1476  7435.13  85.3986
 46.1896  7411.05  85.4101
 46.2316  7394.2  85.1826
 46.2736  7252.96  84.7307
 46.3156  7263.65  84.3826
 46.3576  7351.2  85.0919
 46.3996  7258.9  84.7167
 46.4416  7306.71  84.5741
 46.4836  7345.64  85.1511
 46.5256  7255.03  84.5593
 46.5676  7314.82  85.0234
 46.6096  7416.21  85.5502
 46.6516  7503.72  85.0811
 46.6936  7257.56  84.1631
 46.7356  7400.19  85.0941
 46.7776  7213.62  84.8514
 46.8196  7259.3  84.7178
 46.8616  7037.22  83.3556
 46.9036  7146.1  83.6641
 46.9456  7266.51  84.0054
 46.9876  7204.86  83.7339
 47.0296  7185.67  84.3017
 47.0716  7193.67  84.1728
 47.1136  7257.75  84.2243
 47.1556  7144.5  83.4254
 47.1976  7293.23  84.3709
 47.2396  7231.15  84.4126
 47.2816  7180.94  83.8246
 47.3236  7122.23  83.8395
 47.3656  7375.65  85.2605
 47.4076  7186.27  83.9518
 47.4496  7250.58  84.4222
 47.4916  7158.86  84.0762
 47.5336  7241.48  84.3836
 47.5756  7311.75  84.9116
 47.6176  7212.04  84.2294
 47.6596  7170.84  83.6974
 47.7016  7254.05  83.9821
 47.7436  7209.06  84.0793
 47.7856  7173.85  83.8872
 47.8276  7177.79  83.9682
 47.8696  7115.06  83.6793
 47.9116  7220.11  84.0103
 47.9536  7096.06  83.2315
 47.9956  6997.56  83.35
 48.0376  7069.39  83.5553
 48.0796  7211.71  84.5162
 48.1216  7158.69  84.0298
 48.1636  7268.42  84.2364
 48.2056  7176.37  83.9695
 48.2476  7151.41  84.1288
 48.2896  7064.47  83.528
 48.3316  7083.94  83.5817
 48.3736  7021.76  83.2439
 48.4156  7020.67  83.0904
 48.4576  6963.71  83.0405
 48.4996  7140.79  83.5439
 48.5416  7155.16  83.9525
 48.5836  7098.84  83.3003
 48.6256  7136  83.7263
 48.6676  7074.74  83.8782
 48.7096  7083.8  83.1996
 48.7516  7060.67  83.2132
 48.7936  6987.13  82.8451
 48.8356  6982.78  82.8557
 48.8776  7014.14  83.619
 48.9196  7115.01  83.5866
 48.9616  6962.84  83.0725
 49.0036  7029.06  83.8048
 49.0456  6971.03  83.4402
 49.0876  6999.7  83.15
 49.1296  6901.61  82.7305
 49.1716  6796.05  81.9703
 49.2136  6960.3  82.8647
 49.2556  6904.27  82.6767
 49.2976  6967.99  83.0209
 49.3396  6977.07  83.1337
 49.3816  7064.65  83.078
 49.4236  6995.03  83.1021
 49.4656  6938.62  82.7351
 49.5076  6976.17  82.7527
 49.5496  6851.3  82.0746
 49.5916  6983.91  82.7816
 49.6336  6951.6  82.7858
 49.6756  6989.13  83.2409
 49.7176  6975.97  83.1091
 49.7596  6907.67  82.4691
 49.8016  6958.13  82.6911
 49.8436  6872.99  82.4779
 49.8856  6884.99  82.5583
 49.9276  6828.58  82.3144
 49.9696  6900.31  82.7269
 50.0116  6902.9  82.8808
 50.0536  6967.12  83.2069
 50.0956  6854.1  82.6001
 50.1376  6830.8  82.1608
 50.1796  6820.54  82.3673
 50.2216  6793.92  82.1952
 50.2636  6809.86  81.9206
 50.3056  6735.66  81.6445
 50.3476  6828.96  82.2215
 50.3896  6772.54  81.8545
 50.4316  6928.8  82.6335
 50.4736  6816.38  82.1777
 50.5156  6824.39  82.2186
 50.5576  6765.43  81.6248
 50.5996  6713.02  81.6961
 50.6416  6707.64  81.4809
 50.6836  6786.88  82.0159
 50.7256  6809.11  82.0823
 50.7676  6714.37  81.8157
 50.8096  6735.28  81.4843
 50.8516  6797.25  82.277
 50.8936  6711.25  81.5438
 50.9356  6815.53  82.2713
 50.9776  6781.07  82.2209
 51.0196  6626.94  81.4079
 51.0616  6600.49  80.5842
 51.1036  6696.87  81.5159
 51.1456  6710.41  81.5168
 51.1876  6788.15  81.3323
 51.2296  6618.5  81.0528
 51.2716  6696.29  81.113
 51.3136  6592.62  80.937
 51.3556  6704.14  81.2421
 51.3976  6728.96  81.547
 51.4396  6532.19  80.6392
 51.4816  6689.04  81.4558
 51.5236  6670.18  81.449
 51.5656  6726.19  81.3779
 51.6076  6637.48  80.9198
 51.6496  6614.21  80.9646
 51.6916  6618.66  81.346
 51.7336  6689.71  81.8695
 51.7756  6663.84  81.4181
 51.8176  6673.51  81.5739
 51.8596  6563.67  80.9224
 51.9016  6677.9  81.2338
 51.9436  6595.46  82.1694
 51.9856  6547.97  82.3085
 52.0276  6674.79  81.6066
 52.0696  6648.86  81.5114
 52.1116  6605.54  81.3643
 52.1536  6536.19  80.8182
 52.1956  6637.81  80.9162
 52.2376  6744.33  81.7345
 52.2796  6706.84  81.3211
 52.3216  6518.14  80.8494
 52.3636  6563.27  80.7103
 52.4056  6622.21  80.9225
 52.4476  6537.84  80.7767
 52.4896  6415.92  80.0697
 52.5316  6589.13  81.1872
 52.5736  6624.14  81.1313
 52.6156  6506.09  80.779
 52.6576  6671.53  81.2421
 52.6996  6361.84  80.2943
 52.7416  6536.56  81.2359
 52.7836  6469.52  80.6822
 52.8256  6557.37  80.4626
 52.8676  6438.23  80.315
 52.9096  6576  81.2552
 52.9516  6436.5  80.7543
 52.9936  6442  81.1764
 53.0356  6331.46  79.4946
 53.0776  6391.6  80.1303
 53.1196  6405  80.3423
 53.1616  6330.76  79.9227
 53.2036  6252.93  79.3836
 53.2456  6320.53  79.9195
 53.2876  6311.98  79.5692
 53.3296  6361.99  80.207
 53.3716  6358.25  79.9319
 53.4136  6374.7  80.1805
 53.4556  6322.73  79.8852
 53.4976  6319.47  79.7129
 53.5396  6436.09  80.8422
 53.5816  6292.52  79.5724
 53.6236  6297.22  79.8702
 53.6656  6358.14  79.9549
 53.7076  6414.1  80.2615
 53.7496  6381.26  80.18
 53.7916  6416.17  80.5241
 53.8336  6252.8  79.3916
 53.8756  6139.3  79.2109
 53.9176  6309.26  79.6535
 53.9596  6398.62  80.9779
 54.0016  6311.22  79.7592
 54.0436  6248.53  79.5759
 54.0856  6421.06  80.0915
 54.1276  6313.84  79.6156
 54.1696  6316.79  79.8064
 54.2116  6386.11  79.9991
 54.2536  6439.83  80.1537
 54.2956  6407.9  79.9406
 54.3376  6327.99  79.9815
 54.3796  6314.07  79.7972
 54.4216  6436.37  80.6061
 54.4636  6303.98  79.7931
 54.5056  6367.23  79.9541
 54.5476  6319.36  79.9886
 54.5896  6332.31  79.9022
 54.6316  6430.45  80.3759
 54.6736  6407.65  80.309
 54.7156  6365.7  80.0637
 54.7576  6302.54  79.6677
 54.7996  6444.43  80.69
 54.8416  6363.86  80.1498
 54.8836  6252.11  79.6408
 54.9256  6287.5  79.6176
 54.9676  6310.06  79.6173
 55.0096  6199.13  78.9857
 55.0516  6324.69  80.0121
 55.0936  6355.72  79.8384
 55.1356  6236.26  79.13
 55.1776  6286.3  79.7028
 55.2196  6278.24  79.5002
 55.2616  6236.93  79.3879
 55.3036  6164.37  79.0878
 55.3456  6325.6  80.2654
 55.3876  6347.51  80.1471
 55.4296  6261.83  79.6189
 55.4716  6320.64  79.9844
 55.5136  6242.34  79.2518
 55.5556  6226.78  79.2177
 55.5976  6345.06  80.0287
 55.6396  6258.46  79.4241
 55.6816  6210.24  78.9969
 55.7236  6335.35  79.8336
 55.7656  6255.91  79.0881
 55.8076  6314.24  79.4402
 55.8496  6218.52  79.1544
 55.8916  6253.55  79.5818
 55.9336  6265.28  79.4681
 55.9756  6252.78  79.2824
 56.0176  6146.99  78.761
 56.0596  6252.62  79.4155
 56.1016  6213.82  79.179
 56.1436  6186.45  79.2642
 56.1856  6267.08  79.524
 56.2276  6163.61  78.9183
 56.2696  6218.43  79.2694
 56.3116  6126.85  79.0554
 56.3536  6297.86  79.8081
 56.3956  6214.7  79.2701
 56.4376  6211.25  79.2798
 56.4796  6223.34  79.164
 56.5216  6226.13  79.5583
 56.5636  6251.6  79.3066
 56.6056  6153.61  78.9083
 56.6476  6154.33  78.5468
 56.6896  6215.72  79.3829
 56.7316  6141.54  78.8174
 56.7736  6193.73  79.1529
 56.8156  6276.08  79.6665
 56.8576  6215.87  79.232
 56.8996  6213.49  79.1505
 56.9416  6213.9  79.4625
 56.9836  6142.08  78.5133
 57.0256  6153.1  78.9017
 57.0676  6122.97  78.8353
 57.1096  6173.35  78.9483
 57.1516  6237.9  79.4225
 57.1936  6164.6  78.7007
 57.2356  6248.43  79.5569
 57.2776  6179.88  79.0705
 57.3196  6212.48  79.444
 57.3616  6182.98  78.9564
 57.4036  6250.14  79.4466
 57.4456  6139.06  78.6981
 57.4876  6178.53  78.8145
 57.5296  6112.39  78.7298
 57.5716  6135.86  78.8675
 57.6136  6194.26  79.0703
 57.6556  6247.47  79.5422
 57.6976  6232.11  79.1824
 57.7396  6123.9  78.9491
 57.7816  6075.43  78.9934
 57.8236  6122.59  79.0852
 57.8656  6186.9  79.1659
 57.9076  6155.51  78.9859
 57.9496  6187.19  79.5386
 57.9916  6141.13  78.7572
 58.0336  6119.9  78.9035
 58.0756  6132.71  78.6193
 58.1176  6152.12  78.7415
 58.1596  6107.74  79.0255
 58.2016  6255.7  79.1911
 58.2436  6279.55  79.7639
 58.2856  6287.68  79.7297
 58.3276  6160.07  79.2931
 58.3696  6055.62  78.3659
 58.4116  6154.05  78.8696
 58.4536  6301.62  79.6936
 58.4956  6087.86  78.5103
 58.5376  6284.54  79.459
 58.5796  6166.78  79.0109
 58.6216  6217.08  79.1506
 58.6636  6216.08  79.349
 58.7056  6247.49  79.4129
 58.7476  6053.41  78.6146
 58.7896  6167.38  78.9923
 58.8316  6217.02  79.413
 58.8736  6164.15  78.9768
 58.9156  6237.14  79.4874
 58.9576  6199.42  79.5676
 58.9996  6274.49  79.2735
 59.0416  6288.76  79.7341
 59.0836  6187.72  79.0216
 59.1256  6135.96  79.3954
 59.1676  6190.32  80.0569
 59.2096  6146.69  79.0774
 59.2516  6406.64  80.3008
 59.2936  6158  79.0584
 59.3356  6242.5  79.4747
 59.3776  6255.94  79.7322
 59.4196  6199.55  79.3077
 59.4616  6155.13  78.8812
 59.5036  6101.64  78.5731
 59.5456  6187.14  78.8114
 59.5876  6266.9  79.5124
 59.6296  6184.56  79.0584
 59.6716  6189.23  79.1469
 59.7136  6237.53  79.4432
 59.7556  6260.12  79.7259
 59.7976  6214.32  79.1722
 59.8396  6068.18  78.1297
 59.8816  6178.96  79.3896
 59.9236  6109.08  78.5827
 59.9656  6212.95  79.5124
 60.0076  6271.14  79.229
 60.0496  6145.15  78.9373
 60.0916  6390.84  79.9013
 60.1336  6056.78  78.8938
 60.1756  6198.85  81.0136
 60.1996  0.0000000E+00  0.0000000E+00