File: docs/examples/opeando_xrd/IS17_D/Data/IS17_D/17_Db_f00083.xye
# /beamlines/bl04/projects/cycle2025-II/20250340211-lsimonelli/DATA/IS17_D/17_Db_f00083.xye : mythproc.py merge -s 0.006 -l 0.5 -f /beamlines/bl04/inhouse/ff/FlatField/ff_20Nov2024rod8mm60s_17keV.raw -b True -c true -o xye /beamlines/bl04/projects/cycle2025-II/20250340211-lsimonelli/DATA/IS17_D/17_Db_00083.dat
# IsMon = [6758358, 6756185, 6759295]  IsPos = [-1.4999, -2.4884, -3.4988]
# Wave = 0.4962  CalPath /beamlines/bl04/projects/cycle2025-II/20250340211-lsimonelli/DATA/Align/Si_Pos1_25keV_f00001.cal
# Date = 2025-09-24_16:49:15 Dt = 4.8000  Bin = 0.0060  <imon> = 6757946 +/- 1303 (Min/Max) 6756185 / 6759295
# icurr 250.3616  mocoIn 1.7075E-05  mocoOut 0.8005  i15 7.07897e+06  imon 6.75795e+06  i7 5.3333  iEMpd_timer 4.8000  iEMpd_1 3.2650E-08  iEMpd_2 7.8431E-08  iEMpd_3 1.5830E-08  iEMpd_4 4.6048E-08  iEMhp_timer 4.8000  iEMhp_1 4.8891E-06  iEMhp_2 -2.5335E-08  iEMhp_3 -2.5008E-08  iEMhp_4 -2.1636E-08
#      9776
 1.5856  43675.1  214.589
 1.6276  50723.1  227.288
 1.6696  56233.9  238.472
 1.7116  63351.8  253.61
 1.7536  71340.8  267.98
 1.7956  75487.6  276.347
 1.8376  72399.6  271.065
 1.8796  62019.8  249.046
 1.9216  51102  226.958
 1.9636  43966.3  209.653
 2.0056  40075.9  199.387
 2.0476  37449.1  194.855
 2.0896  36139.9  190.296
 2.1316  34980.6  186.319
 2.1736  33416.6  183.551
 2.2156  34381.8  184.689
 2.2576  32346.1  179.78
 2.2996  31338.5  177.607
 2.3416  32007.2  178.055
 2.3836  31366  176.375
 2.4256  30320.2  173.975
 2.4676  29412.9  171.109
 2.5096  29370.6  171.042
 2.5516  29475.8  175.302
 2.5936  59754.1  244.411
 2.6356  28628.9  170.008
 2.6776  27887.4  166.686
 2.7196  27125.5  164.864
 2.7616  26971  164.199
 2.8036  26595.2  163.22
 2.8456  26850.7  164.641
 2.8876  25842  161.384
 2.9296  25387.9  160.085
 2.9716  25630.3  160.339
 3.0136  25027.3  158.5
 3.0556  25095.9  159.109
 3.0976  25364.5  158.854
 3.1396  24856  157.991
 3.1816  24427.8  156.559
 3.2236  24376.2  156.396
 3.2656  24262.2  155.082
 3.3076  24166.7  156.23
 3.3496  24137.9  155.068
 3.3916  24863.6  157.21
 3.4336  25053.4  158.396
 3.4756  25407.5  159.443
 3.5176  26333.9  162.086
 3.5596  25910.2  163.23
 3.6016  26151.6  161.597
 3.6436  25068.6  159.325
 3.6856  24865.8  156.978
 3.7276  23882.5  154.927
 3.7696  23799.6  154.844
 3.8116  23296.9  153.094
 3.8536  23484.1  153.628
 3.8956  23309.6  152.882
 3.9376  23427.9  153.54
 3.9796  23240.5  152.418
 4.0216  23371.5  151.882
 4.0636  23130.6  152.559
 4.1056  23152.2  152.293
 4.1476  23508.7  153.757
 4.1896  23608.1  153.943
 4.2316  23785.4  154.347
 4.2736  24123.4  155.241
 4.3156  24250.8  155.875
 4.3576  24931.7  157.95
 4.3996  25145.7  158.909
 4.4416  25776.1  160.474
 4.4836  26443.5  162.705
 4.5256  27017.7  165.067
 4.5676  26792.7  164.636
 4.6096  27238.6  164.645
 4.6516  27754.6  165.902
 4.6936  27699.5  166.562
 4.7356  28093.4  167.567
 4.7776  27877.6  166.746
 4.8196  27488.4  166.222
 4.8616  27097.5  164.54
 4.9036  26947.5  163.808
 4.9456  26822.1  164.081
 4.9876  26195.8  162.054
 5.0296  26351.7  162.376
 5.0716  26223.2  162.726
 5.1136  26455.2  163.172
 5.1556  26550.8  162.93
 5.1976  29145.4  170.69
 5.2396  27379  165.124
 5.2816  27222.6  165.131
 5.3236  27349.4  165.209
 5.3656  26709.6  164.197
 5.4076  26622.2  164.066
 5.4496  26568.5  163.402
 5.4916  26734.3  163.66
 5.5336  26798.8  163.869
 5.5756  26773.2  163.797
 5.6176  26794.9  163.305
 5.6596  27140.5  165.342
 5.7016  27093.4  164.463
 5.7436  27281  165.317
 5.7856  27304.1  165.451
 5.8276  27456.2  165.627
 5.8696  27661.9  166.417
 5.9116  27470.2  166.439
 5.9536  28046.3  167.905
 5.9956  28060  167.343
 6.0376  28154.1  168.248
 6.0796  28364  168.704
 6.1216  28145.4  168.255
 6.1636  28455.1  168.226
 6.2056  28421.9  168.812
 6.2476  28559.7  169.091
 6.2896  28916.6  169.822
 6.3316  29046.9  170.379
 6.3736  28991.9  170.099
 6.4156  29200.9  170.606
 6.4576  29025.2  169.715
 6.4996  28982  170.067
 6.5416  29451.9  171.569
 6.5836  29272.2  171.281
 6.6256  29191.7  170.602
 6.6676  29780.8  171.882
 6.7096  29852.6  172.948
 6.7516  29980.7  172.984
 6.7936  30531  173.953
 6.8356  30602.3  174.252
 6.8776  30475.4  174.706
 6.9196  30466.8  175.073
 6.9616  30908.4  175.787
 7.0036  31458.6  176.992
 7.0456  31462.6  176.304
 7.0876  31358.6  177.697
 7.1296  31432  177.034
 7.1716  31318  176.254
 7.2136  31129.6  175.513
 7.2556  31361.7  176.319
 7.2976  31354.4  176.782
 7.3396  31213.2  176.618
 7.3816  31091.9  176.486
 7.4236  31464.4  176.838
 7.4656  31666.6  176.87
 7.5076  32044.1  178.065
 7.5496  31657.1  177.519
 7.5916  31677.4  177.622
 7.6336  32242.9  179.092
 7.6756  32573.4  179.851
 7.7176  32784.9  180.768
 7.7596  32633.4  181.554
 7.8016  34506.6  188.977
 7.8436  32843.6  181.044
 7.8856  33109.5  181.395
 7.9276  33687.6  183.36
 7.9696  33962.9  184.418
 8.0116  34904.3  185.515
 8.0536  35057.6  186.166
 8.0956  35476.7  188.462
 8.1376  35049.3  186.795
 8.1796  35384.2  188.219
 8.2216  36256.7  189.276
 8.2636  36505.2  190.173
 8.3056  36172.4  190.057
 8.3476  37432.3  192.671
 8.3896  36894.6  191.362
 8.4316  36631.3  190.846
 8.4736  36792.9  190.739
 8.5156  36372.9  189.921
 8.5576  36445.2  191.082
 8.5996  36204.8  189.33
 8.6416  36143.8  190.422
 8.6836  35893.2  189.582
 8.7256  36678  191.107
 8.7676  37272.3  195.57
 8.8096  37572.9  193.619
 8.8516  36528.1  190.477
 8.8936  37010.9  191.69
 8.9356  36552.1  190.828
 8.9776  36429.8  190.589
 9.0196  36534.2  190.535
 9.0616  36382.6  189.642
 9.1036  36573.5  191.307
 9.1456  35386.3  187.517
 9.1876  35480.8  187.713
 9.2296  35555.6  187.351
 9.2716  35265.4  186.619
 9.3136  35201.9  186.456
 9.3556  35485.5  187.175
 9.3976  34264.7  184.446
 9.4396  34390.3  184.681
 9.4816  34407.2  184.587
 9.5236  33938.7  183.219
 9.5656  33960.2  183.64
 9.6076  33090.3  181.794
 9.6496  33459.7  182.683
 9.6916  33080.4  181.607
 9.7336  33386.7  182.24
 9.7756  33072.1  182.647
 9.8176  32876.3  181.609
 9.8596  32789.8  179.828
 9.9016  32574.7  179.235
 9.9436  32356.8  178.548
 9.9856  31945  177.675
 10.0276  31641.8  177.903
 10.0696  31907.9  177.682
 10.1116  30878.9  175.064
 10.1536  30827.7  175.059
 10.1956  30662.1  174.215
 10.2376  30215.3  172.44
 10.2796  30214.9  172.557
 10.3216  29849.9  171.796
 10.3636  29844.7  171.806
 10.4056  30285.5  173.484
 10.4476  30352.7  173.271
 10.4896  32562.4  178.865
 10.5316  30388.2  173.56
 10.5736  29439.6  171.244
 10.6156  29040  169.825
 10.6576  30146.4  171.564
 10.6996  28729.4  168.196
 10.7416  28338  167.256
 10.7836  28069.6  167.14
 10.8256  27496.2  165.84
 10.8676  27352.4  164.951
 10.9096  27347.3  164.966
 10.9516  26837.9  162.374
 10.9936  27427  164.355
 11.0356  26902  163.383
 11.0776  27028.5  163.097
 11.1196  26645.7  162.709
 11.1616  25876.1  160.021
 11.2036  26357.4  161.347
 11.2456  27153.2  164.492
 11.2876  26392.2  161.884
 11.3296  25834.9  160.081
 11.3716  26473.9  161.727
 11.4136  26093.1  161.456
 11.4556  26266  161.636
 11.4976  27096.4  163.155
 11.5396  26923.5  162.81
 11.5816  26273.3  161.264
 11.6236  25721  159.803
 11.6656  25743.1  159.017
 11.7076  24984.2  157.479
 11.7496  24938.4  161.323
 11.7916  24972.2  156.694
 11.8336  24265.2  155.351
 11.8756  24468.8  155.556
 11.9176  24182  154.321
 11.9596  24592.5  155.782
 12.0016  24242.2  155.437
 12.0436  24543.7  155.848
 12.0856  23983.6  154.565
 12.1276  23867.7  154.144
 12.1696  23774.6  152.962
 12.2116  24061.6  153.89
 12.2536  24645.2  156.565
 12.2956  23716.7  152.937
 12.3376  23811.9  153.446
 12.3796  23656  153.426
 12.4216  23877.8  153.337
 12.4636  23845.1  154.17
 12.5056  23634.9  152.757
 12.5476  23985.3  153.396
 12.5896  23477.2  152.407
 12.6316  23613  152.992
 12.6736  23397.4  152.782
 12.7156  23720.2  153.665
 12.7576  23341.2  152.69
 12.7996  23685.8  152.45
 12.8416  23517.6  152.967
 12.8836  23818.3  153.764
 12.9256  24127.8  153.8
 12.9676  23899.5  153.467
 13.0096  24183.5  155.493
 13.0516  23987.7  153.902
 13.0936  24347.9  155.457
 13.1356  24383.5  154.539
 13.1776  24092.2  154.626
 13.2196  24272.6  154.844
 13.2616  24074.5  154.527
 13.3036  23962  154.127
 13.3456  23782.5  153.893
 13.3876  24557.3  155.652
 13.4296  23967.1  153.943
 13.4716  24230.8  154.411
 13.5136  24202.6  154.456
 13.5556  24036.7  154.549
 13.5976  24259.7  155.431
 13.6396  24447.2  155.384
 13.6816  24221.8  155.143
 13.7236  24569.9  155.843
 13.7656  26215.7  161.397
 13.8076  27043.7  162.601
 13.8496  26468.7  161.533
 13.8916  24495.6  156.527
 13.9336  23792.5  153.548
 13.9756  23854.1  153.121
 14.0176  23422.7  152.405
 14.0596  23955.7  154.06
 14.1016  23451.9  152.853
 14.1436  23383  151.759
 14.1856  23101.6  151.14
 14.2276  22946.9  151.118
 14.2696  22907.7  150.838
 14.3116  22498.8  149.395
 14.3536  22284  148.847
 14.3956  22092.7  147.934
 14.4376  22335.5  148.53
 14.4796  22203  148.086
 14.5216  21736.3  147.302
 14.5636  22143.7  148.243
 14.6056  21998.3  147.311
 14.6476  21820.1  145.962
 14.6896  21420.4  145.162
 14.7316  21124.3  145.186
 14.7736  20870.7  143.47
 14.8156  20800.2  143.232
 14.8576  20565  142.289
 14.8996  20469.5  143.14
 14.9416  20154.7  142.063
 14.9836  19969.6  141.381
 15.0256  19398  138.281
 15.0676  19395.4  138.576
 15.1096  19574.5  138.959
 15.1516  19045.4  137.618
 15.1936  19111.4  137.287
 15.2356  18879.3  136.726
 15.2776  18757.3  135.879
 15.3196  18292.9  135.163
 15.3616  18307.9  134.974
 15.4036  18253.6  134.641
 15.4456  18760.6  136.151
 15.4876  18033.6  133.175
 15.5296  18136  133.838
 15.5716  17725.5  131.923
 15.6136  17749.1  132.336
 15.6556  18286  133.559
 15.6976  17810  132.105
 15.7396  17555  131.528
 15.7816  17707.4  131.619
 15.8236  17150.8  130.207
 15.8656  17328.9  130.684
 15.9076  17361.5  130.632
 15.9496  18123.8  136.297
 15.9916  17629.1  134.825
 16.0336  17700.7  131.952
 16.0756  17510.8  131.572
 16.1176  17208.2  130.511
 16.1596  16777.9  130.033
 16.2016  16712.8  128.558
 16.2436  16768.8  129.142
 16.2856  16662.8  128.256
 16.3276  16424.2  127.777
 16.3696  16796.9  129.031
 16.4116  16332.9  127.685
 16.4536  16669.1  128.796
 16.4956  16817.8  129.101
 16.5376  16386.2  127.627
 16.5796  16345.4  126.835
 16.6216  16288.1  126.872
 16.6636  16199  126.722
 16.7056  16474.7  127.651
 16.7476  16417.5  126.952
 16.7896  16285.7  127.184
 16.8316  16147.1  126.629
 16.8736  16515.2  128.316
 16.9156  16356.2  128.027
 16.9576  16030.7  127.548
 16.9996  16117.6  128.335
 17.0416  16367.9  127.74
 17.0836  16037.5  126.205
 17.1256  16082.5  126.391
 17.1676  16025.2  126.12
 17.2096  15955.2  125.75
 17.2516  15818.2  124.988
 17.2936  15714.1  124.928
 17.3356  15612.6  124.507
 17.3776  15448.4  124.04
 17.4196  15507.2  123.979
 17.4616  15498.1  123.842
 17.5036  15452.4  124.024
 17.5456  15096.1  123.22
 17.5876  15122.3  122.38
 17.6296  15201.9  122.535
 17.6716  15209.1  123.144
 17.7136  15384.3  123.981
 17.7556  14966.8  122.583
 17.7976  14969.5  122.33
 17.8396  14861.4  121.371
 17.8816  14710.7  121.337
 17.9236  15056.3  122.537
 17.9656  14679.5  121.517
 18.0076  15063.8  122.667
 18.0496  14996.4  121.536
 18.0916  16091.6  126.468
 18.1336  15566.5  124.49
 18.1756  15004.7  121.765
 18.2176  15029.4  122.081
 18.2596  14757.8  120.7
 18.3016  14983.8  121.876
 18.3436  15133.7  122.497
 18.3856  14904.8  121.699
 18.4276  14605.9  120.159
 18.4696  14655.4  120.44
 18.5116  14625.7  120.601
 18.5536  14458.9  120.268
 18.5956  14318.2  119.248
 18.6376  14308.5  119.618
 18.6796  14361.7  119.144
 18.7216  14482.7  120.144
 18.7636  14294.8  119.361
 18.8056  14075.3  118.371
 18.8476  13931.6  118.384
 18.8896  14156.6  118.66
 18.9316  14125.3  118.521
 18.9736  13982.6  117.63
 19.0156  14084  118.472
 19.0576  14177.3  117.701
 19.0996  14251.6  118.724
 19.1416  14143.4  118.672
 19.1836  13944  117.439
 19.2256  13803.2  117.069
 19.2676  13939.9  117.731
 19.3096  13843.1  117.567
 19.3516  13827.4  117.462
 19.3936  13884.8  117.595
 19.4356  14006.5  117.989
 19.4776  13869.4  117.501
 19.5196  13749  116.845
 19.5616  13765.2  117.176
 19.6036  13738.5  116.557
 19.6456  13888.1  117.307
 19.6876  13962.1  117.252
 19.7296  13968.4  117.746
 19.7716  13790.6  117.166
 19.8136  14157.3  118.911
 19.8556  14328.1  119.105
 19.8976  14257.3  118.862
 19.9396  14267.1  118.495
 19.9816  14272  118.769
 20.0236  14658.5  120.561
 20.0656  14214  118.722
 20.1076  14081.2  118.634
 20.1496  13674.2  116.9
 20.1916  13784.9  116.9
 20.2336  13674.9  116.355
 20.2756  13468  115.897
 20.3176  13458.9  115.615
 20.3596  13184.6  114.417
 20.4016  13252.1  114.506
 20.4436  13220.2  114.925
 20.4856  13386.9  115.441
 20.5276  13108.4  114.69
 20.5696  13300.2  114.969
 20.6116  13242.6  115
 20.6536  13198.2  114.328
 20.6956  12896.7  113.141
 20.7376  12975.6  113.698
 20.7796  13070.4  113.805
 20.8216  13151.6  113.873
 20.8636  13130.1  114.154
 20.9056  13320.4  114.92
 20.9476  13213.7  114.298
 20.9896  13374.7  114.854
 21.0316  13051.1  113.365
 21.0736  13002  113.664
 21.1156  12989.9  113.774
 21.1576  13083.9  114.223
 21.1996  12908.5  113.441
 21.2416  13052.7  113.893
 21.2836  12916.5  113.268
 21.3256  12951.7  113.503
 21.3676  12985.9  113.203
 21.4096  13028.1  113.703
 21.4516  12836  112.725
 21.4936  12580  111.868
 21.5356  12676.8  112.239
 21.5776  12881.5  112.976
 21.6196  12768.4  112.516
 21.6616  12622.9  111.956
 21.7036  12716  112.138
 21.7456  12714.5  112.203
 21.7876  12598.4  111.458
 21.8296  12475.4  110.763
 21.8716  12625.7  111.65
 21.9136  12727.4  112.304
 21.9556  12621.8  111.51
 21.9976  12487.5  110.952
 22.0396  12581.8  111.617
 22.0816  12412.4  111.39
 22.1236  12588.8  111.637
 22.1656  12565.1  111.675
 22.2076  12213.1  109.573
 22.2496  12379.8  110.346
 22.2916  12368.6  110.176
 22.3336  12311  110.639
 22.3756  12280.4  110.219
 22.4176  12228.7  109.843
 22.4596  11988.6  109.336
 22.5016  12190.5  109.768
 22.5436  12345.3  110.331
 22.5856  12500.3  111.273
 22.6276  12471.7  111.279
 22.6696  12252.9  110.651
 22.7116  12192.8  109.9
 22.7536  12164.6  109.745
 22.7956  12288.3  109.643
 22.8376  12080.2  109.218
 22.8796  12148.9  109.336
 22.9216  12280.3  110.46
 22.9636  12105.1  108.841
 23.0056  12183.9  109.327
 23.0476  12327.6  110.538
 23.0896  12527.5  110.81
 23.1316  12502  111.132
 23.1736  12366.9  113.447
 23.2156  12552.3  111.673
 23.2576  12727.4  112.578
 23.2996  12394.2  110.87
 23.3416  12609.6  112.36
 23.3836  12412.6  110.717
 23.4256  12637  111.831
 23.4676  12511.2  110.972
 23.5096  12393.1  111.091
 23.5516  12473.2  110.758
 23.5936  12515.2  111.855
 23.6356  12709.9  112.383
 23.6776  12363.5  111.053
 23.7196  12271.6  110.214
 23.7616  12405.4  110.737
 23.8036  12551.2  111.439
 23.8456  12368.7  110.181
 23.8876  12281.9  110.149
 23.9296  12193  110.236
 23.9716  12265.4  109.766
 24.0136  12338.3  110.994
 24.0556  12302.1  110.548
 24.0976  12053.4  109.241
 24.1396  11952.4  111.393
 24.1816  12135  110.643
 24.2236  12168.6  110.437
 24.2656  11995.3  109.123
 24.3076  12044.3  109.617
 24.3496  11864.1  108.676
 24.3916  12005.6  109.371
 24.4336  11940.2  109.265
 24.4756  11919.2  109.063
 24.5176  11829  108.268
 24.5596  11838.7  108.441
 24.6016  11748.4  108.326
 24.6436  11916.4  108.601
 24.6856  11715.5  107.434
 24.7276  11608.5  107.26
 24.7696  11552.1  107.099
 24.8116  11592.2  107.472
 24.8536  11596.6  107.497
 24.8956  11445.7  106.52
 24.9376  11577.7  107.059
 24.9796  11355.2  106.394
 25.0216  11373.5  106.593
 25.0636  11448.5  106.595
 25.1056  11139.6  105.841
 25.1476  11180.9  107.659
 25.1896  11154.4  106.053
 25.2316  11162.6  105.364
 25.2736  11138.6  104.91
 25.3156  11055.4  104.582
 25.3576  10980.5  104.665
 25.3996  11131  105.363
 25.4416  10999.7  104.716
 25.4836  10922.5  104.865
 25.5256  11007.6  104.634
 25.5676  11024.2  104.45
 25.6096  10733  103.63
 25.6516  10929.6  104.084
 25.6936  11029.7  104.869
 25.7356  10989.2  104.81
 25.7776  10921.6  104.079
 25.8196  10770.8  103.604
 25.8616  10704.1  103.212
 25.9036  11003.6  104.1
 25.9456  10849  103.97
 25.9876  10706.5  103.34
 26.0296  10971.2  104.132
 26.0716  10826.3  103.856
 26.1136  10843.4  103.881
 26.1556  10872  103.394
 26.1976  10855  104.251
 26.2396  10770.4  102.995
 26.2816  10778.6  103.643
 26.3236  10675.5  103.292
 26.3656  10909  104.139
 26.4076  10690.8  103.305
 26.4496  10966.5  104.211
 26.4916  10919.3  103.894
 26.5336  11451.9  106.741
 26.5756  11600.2  107.309
 26.6176  10903.5  104.056
 26.6596  10858  104.149
 26.7016  10616  102.748
 26.7436  10709.4  103.316
 26.7856  10538.2  102.477
 26.8276  10592  102.714
 26.8696  10523.8  102.248
 26.9116  10474.6  101.931
 26.9536  10426.7  101.766
 26.9956  10364  101.497
 27.0376  10432.9  102.049
 27.0796  10463.4  101.931
 27.1216  10443.9  101.878
 27.1636  10213.2  100.924
 27.2056  10302.6  101.253
 27.2476  10480.5  102.124
 27.2896  10274  101.223
 27.3316  10295.4  101.034
 27.3736  10086.8  100.279
 27.4156  10293.2  101.134
 27.4576  10355.7  101.665
 27.4996  10291.6  100.96
 27.5416  10329.6  101.452
 27.5836  10146  100.389
 27.6256  10228.6  100.975
 27.6676  10095.4  100.311
 27.7096  10270.4  101.053
 27.7516  10224  100.973
 27.7936  10589.7  102.899
 27.8356  10378.7  101.487
 27.8776  10463.5  101.963
 27.9196  10039.1  99.738
 27.9616  10184.1  100.654
 28.0036  10148.5  100.441
 28.0456  9965.44  99.6687
 28.0876  10004  99.948
 28.1296  10052.8  100.029
 28.1716  10108.5  100.315
 28.2136  10098.9  100.238
 28.2556  10002.4  99.8745
 28.2976  9825.13  98.9776
 28.3396  9907.91  99.1458
 28.3816  9882.5  99.0347
 28.4236  9879.17  99.1666
 28.4656  9822.19  98.9285
 28.5076  9727.26  98.0866
 28.5496  9897.24  99.1923
 28.5916  9751.2  98.2769
 28.6336  9870.93  99.2165
 28.6756  9913.25  98.6329
 28.7176  9813.52  98.6853
 28.7596  9746.6  98.2388
 28.8016  9831.76  98.7085
 28.8436  9694.49  98.2567
 28.8856  9813.23  98.7
 28.9276  9733.94  98.5531
 28.9696  9719.75  98.1318
 29.0116  9674.53  98.0944
 29.0536  9530.74  97.5707
 29.0956  9703.6  98.1332
 29.1376  9627.13  97.7373
 29.1796  9629.84  97.7979
 29.2216  9588.09  97.4186
 29.2636  9637.18  97.7472
 29.3056  9642.49  97.5597
 29.3476  9599.71  97.8706
 29.3896  9607.2  98.0218
 29.4316  9597.46  97.3088
 29.4736  9397.84  96.3496
 29.5156  9386.94  96.2172
 29.5576  9280.91  96.4016
 29.5996  9312.46  95.8352
 29.6416  9321.27  95.9937
 29.6836  9381.32  96.2337
 29.7256  9396.72  96.8732
 29.7676  9315.99  96.1113
 29.8096  9280.76  95.8841
 29.8516  9299.95  96.3072
 29.8936  9362.47  96.7267
 29.9356  9318.46  96.2579
 29.9776  9082.13  95.1749
 30.0196  9187.71  95.1352
 30.0616  9227.69  95.7045
 30.1036  9266.76  95.7382
 30.1456  9137.68  95.2907
 30.1876  9182.84  95.5134
 30.2296  9162.28  95.3489
 30.2716  9271.96  95.5621
 30.3136  9257.21  96.3311
 30.3556  9487.98  97.5223
 30.3976  9282.03  97.9306
 30.4396  9646.17  97.1815
 30.4816  9469.61  95.9009
 30.5236  9517.83  96.1362
 30.5656  9425.28  96.3213
 30.6076  9477.57  96.0194
 30.6496  9545.51  96.7515
 30.6916  9188.84  95.0261
 30.7336  9295.07  95.7131
 30.7756  9380.43  96.2409
 30.8176  9393.36  96.2339
 30.8596  9406.46  96.0551
 30.9016  9389.19  96.3188
 30.9436  9298.55  95.6055
 30.9856  9492.96  96.7175
 31.0276  9181.63  94.7478
 31.0696  9100.27  94.8764
 31.1116  9283.33  95.8051
 31.1536  9320.13  95.8537
 31.1956  9149.26  95.0739
 31.2376  9055.45  94.6035
 31.2796  9203.96  94.9186
 31.3216  9246.49  95.0672
 31.3636  9263.08  95.8527
 31.4056  9212.39  96.8925
 31.4476  9280.61  95.1671
 31.4896  9236.51  95.4442
 31.5316  9228.81  94.8105
 31.5736  9637.32  96.712
 31.6156  9337.62  95.2036
 31.6576  9397.92  95.5963
 31.6996  9362.07  95.0784
 31.7416  9213.38  95.3962
 31.7836  9268.44  94.6867
 31.8256  9240.3  94.8066
 31.8676  9438.52  95.8092
 31.9096  9067.29  94.2722
 31.9516  9153.41  94.8863
 31.9936  9072.46  94.2894
 32.0356  9268.37  95.348
 32.0776  9221.68  95.0001
 32.1196  9178.19  94.8883
 32.1616  9214.47  94.5229
 32.2036  9219.9  95.0608
 32.2456  8967.11  94.1264
 32.2876  9116.88  94.4089
 32.3296  8997.73  93.7571
 32.3716  8871.99  93.2117
 32.4136  8942.55  93.7802
 32.4556  8985.83  93.3943
 32.4976  9005.22  93.406
 32.5396  8914.79  92.9843
 32.5816  8979.87  93.4594
 32.6236  8907.9  93.1469
 32.6656  8914.91  93.7289
 32.7076  8860.45  93.0934
 32.7496  8917.75  93.0743
 32.7916  8945.72  93.1786
 32.8336  8940.96  93.2444
 32.8756  9015.58  93.3479
 32.9176  8813.7  92.781
 32.9596  8790.5  92.7323
 33.0016  8841.21  92.7706
 33.0436  8869.85  93.074
 33.0856  8740.65  92.5125
 33.1276  8659.86  91.8247
 33.1696  8869.38  92.7427
 33.2116  8860.58  92.9391
 33.2536  8904.44  93.1606
 33.2956  8695.8  92.1494
 33.3376  8729.09  92.0675
 33.3796  8797.13  92.6446
 33.4216  8765.34  92.0671
 33.4636  8785.41  92.3277
 33.5056  8597.75  91.5818
 33.5476  8797.21  92.6087
 33.5896  8706.03  91.929
 33.6316  8738.73  92.4006
 33.6736  8566.46  91.7369
 33.7156  8594.14  91.9173
 33.7576  8768.2  92.4838
 33.7996  8691.56  91.8377
 33.8416  8489.97  90.9524
 33.8836  8561.16  91.1139
 33.9256  8731.77  92.0691
 33.9676  8713.48  91.8743
 34.0096  8609.2  91.6318
 34.0516  8537  90.8747
 34.0936  8498.62  90.9511
 34.1356  8667.48  91.585
 34.1776  8461.32  90.492
 34.2196  8509.5  90.9269
 34.2616  8409.3  90.5358
 34.3036  8597.43  91.7758
 34.3456  8534.08  91.2025
 34.3876  8749.51  92.3131
 34.4296  8564.52  91.0261
 34.4716  8680.87  91.7958
 34.5136  8534.61  91.2085
 34.5556  8510.27  91.3408
 34.5976  8667.78  91.9849
 34.6396  8430.21  90.4295
 34.6816  8644  91.6804
 34.7236  8543.06  90.9128
 34.7656  8475.17  90.7613
 34.8076  8471.53  91.0746
 34.8496  8366.71  90.3571
 34.8916  8543.3  91.1699
 34.9336  8454.9  90.682
 34.9756  8567.44  91.2006
 35.0176  8528.68  91.5216
 35.0596  8550.05  91.4567
 35.1016  8532.1  91.1217
 35.1436  8631.28  91.3332
 35.1856  8472.15  90.606
 35.2276  8363.56  90.1989
 35.2696  8447.64  90.8342
 35.3116  8352.52  90.4347
 35.3536  8327.31  90.0055
 35.3956  8395.89  90.093
 35.4376  8426.04  90.8102
 35.4796  8437.69  90.9216
 35.5216  8409.93  90.7258
 35.5636  8161.03  90.1099
 35.6056  8310.31  89.9574
 35.6476  8460.37  90.6713
 35.6896  8424.77  90.5713
 35.7316  8303.24  89.8857
 35.7736  8331.08  90.2148
 35.8156  8437.85  90.8005
 35.8576  8411.04  90.9088
 35.8996  8411.4  90.8719
 35.9416  8383.12  90.2254
 35.9836  8347.21  90.3779
 36.0256  8450.19  90.9455
 36.0676  8442.19  90.6507
 36.1096  8371.64  90.4227
 36.1516  8515.5  91.0841
 36.1936  8503.11  90.8619
 36.2356  8355.03  90.7157
 36.2776  8312.48  89.9675
 36.3196  8329.75  89.7193
 36.3616  8296.16  89.6778
 36.4036  8130  88.8457
 36.4456  8291.86  89.9356
 36.4876  8191.21  89.3249
 36.5296  8199.07  89.3982
 36.5716  8248.07  90.4513
 36.6136  8164.59  88.7857
 36.6556  8101.99  88.6331
 36.6976  8024.58  88.7073
 36.7396  7996.03  88.2821
 36.7816  8059.9  89.0069
 36.8236  7930.16  88.2091
 36.8656  8015.31  88.7522
 36.9076  7945.16  88.2422
 36.9496  7848.68  87.6946
 36.9916  8002.08  88.1848
 37.0336  8067.41  88.8523
 37.0756  8035.86  88.4725
 37.1176  7901.41  87.9969
 37.1596  8085.35  89.0162
 37.2016  7932.99  88.3947
 37.2436  7976.13  87.9607
 37.2856  8034.68  88.5437
 37.3276  7976.22  87.5809
 37.3696  7870.6  87.8682
 37.4116  7924.32  88.0711
 37.4536  7968.35  88.1843
 37.4956  7734.65  86.9244
 37.5376  8048.44  90.2535
 37.5796  7985.58  89.8236
 37.6216  7990.28  88.124
 37.6636  8104.31  88.6358
 37.7056  7950.57  87.9804
 37.7476  8167.99  88.7162
 37.7896  7896.32  87.7331
 37.8316  8044.83  88.7071
 37.8736  8076.57  88.4065
 37.9156  7920.3  87.535
 37.9576  8056.47  88.2098
 37.9996  7864.14  86.8662
 38.0416  7853.9  87.6024
 38.0836  8000.59  88.3205
 38.1256  8107.67  88.8841
 38.1676  7773.94  87.145
 38.2096  8067.17  88.3875
 38.2516  7986.99  88.1754
 38.2936  8123.57  88.7211
 38.3356  8015.66  88.0602
 38.3776  7888.79  87.6092
 38.4196  8055.68  88.391
 38.4616  7935.03  87.9684
 38.5036  8068.59  88.5489
 38.5456  7863.63  88.2523
 38.5876  7857.09  88.2195
 38.6296  7909.14  87.4928
 38.6716  7874.96  87.1146
 38.7136  7904.3  87.2216
 38.7556  7849.34  87.4249
 38.7976  7888.97  87.5709
 38.8396  7924.3  88.2308
 38.8816  7793.9  87.2947
 38.9236  7884.29  87.5907
 38.9656  7939.34  87.8167
 39.0076  7981.88  87.4441
 39.0496  7927.43  87.7021
 39.0916  7900.35  87.2024
 39.1336  7886.93  87.5262
 39.1756  7904.3  87.6851
 39.2176  7915.79  88.2986
 39.2596  7827.25  87.7185
 39.3016  7907.12  87.7546
 39.3436  7974.08  88.5327
 39.3856  7903.41  87.5829
 39.4276  7964.02  88.4293
 39.4696  7845.18  87.3958
 39.5116  7917.94  88.3087
 39.5536  7850.23  88.3423
 39.5956  7853.47  87.4764
 39.6376  7786.29  87.0965
 39.6796  7785.64  86.8475
 39.7216  7829.26  87.1852
 39.7636  7889.53  88.0796
 39.8056  7930.44  88.0958
 39.8476  7730.88  87.2351
 39.8896  7887.79  87.7414
 39.9316  7791.29  87.4584
 39.9736  7889.24  87.5799
 40.0156  7868.15  87.2928
 40.0576  7800.33  87.2636
 40.0996  7957.48  87.3204
 40.1416  7773.29  87.0917
 40.1836  7786.58  87.0544
 40.2256  7863.69  87.5308
 40.2676  7849.77  87.5492
 40.3096  7937.06  87.9677
 40.3516  7874.8  87.7227
 40.3936  7967.47  87.7901
 40.4356  7866.98  87.4531
 40.4776  7865.12  87.8419
 40.5196  7971.2  88.5595
 40.5616  7955.06  88.1074
 40.6036  7731.86  87.1147
 40.6456  7851.13  87.3954
 40.6876  7898.91  87.6505
 40.7296  7802.61  87.2513
 40.7716  7884.3  87.8184
 40.8136  7787.53  87.2327
 40.8556  8031.42  88.7196
 40.8976  7914.32  87.9956
 40.9396  7942.65  88.497
 40.9816  7913.37  87.6209
 41.0236  7859.84  87.1159
 41.0656  7848.8  87.5711
 41.1076  7876.03  87.5102
 41.1496  8044.84  88.3485
 41.1916  7782.73  87.2225
 41.2336  7827.05  87.4607
 41.2756  7929.66  87.6396
 41.3176  7990.08  88.5739
 41.3596  7837.09  87.4691
 41.4016  7791.85  87.47
 41.4436  7870.81  87.6998
 41.4856  7851.47  87.7539
 41.5276  7813.72  87.5625
 41.5696  7894.56  87.6533
 41.6116  7938.41  88.2744
 41.6536  7907.11  87.95
 41.6956  7906.69  88.0261
 41.7376  7887.1  87.9341
 41.7796  7787.08  87.2614
 41.8216  7821.31  87.6825
 41.8636  7807.74  87.5522
 41.9056  7756.19  87.0609
 41.9476  7811.64  87.5953
 41.9896  7881.26  87.6544
 42.0316  7872.56  87.6956
 42.0736  7956.19  88.2568
 42.1156  7775.76  87.0803
 42.1576  7800.16  87.3377
 42.1996  7986.57  88.5044
 42.2416  7819.87  87.166
 42.2836  7779.78  87.0566
 42.3256  7825.98  87.4188
 42.3676  7982.02  88.0783
 42.4096  7897.25  87.5921
 42.4516  7884.85  87.5935
 42.4936  7734.96  86.8395
 42.5356  7763.91  87.144
 42.5776  7795.97  87.2574
 42.6196  7867.31  87.7171
 42.6616  7718.56  87.0497
 42.7036  7810.78  86.946
 42.7456  7878.63  87.6734
 42.7876  7808.37  87.3815
 42.8296  7762.24  86.9657
 42.8716  7647.21  86.476
 42.9136  7679.36  86.4507
 42.9556  7755.62  87.0111
 42.9976  7858.47  87.5543
 43.0396  7720.89  86.5172
 43.0816  7690.94  86.7288
 43.1236  7668.34  86.651
 43.1656  7782.55  87.1209
 43.2076  7738.94  86.9825
 43.2496  7748.55  86.8587
 43.2916  7739.29  87.1624
 43.3336  7729.7  86.9387
 43.3756  7793.4  87.064
 43.4176  7619.98  86.166
 43.4596  7725.12  86.6073
 43.5016  7716.1  86.967
 43.5436  7539.12  85.867
 43.5856  7576.95  86.1094
 43.6276  7672.53  86.5405
 43.6696  7575.74  86.2498
 43.7116  7645.02  86.139
 43.7536  7715.36  87.038
 43.7956  7632.78  87.7886
 43.8376  7556.21  85.8772
 43.8796  7578.94  86.0833
 43.9216  7694.08  86.6511
 43.9636  7403.39  85.1023
 44.0056  7442.36  85.5562
 44.0476  7385.98  84.8678
 44.0896  7416.97  85.3868
 44.1316  7483.96  85.2991
 44.1736  7410.02  85.0018
 44.2156  7452.06  85.0984
 44.2576  7512.52  85.7637
 44.2996  7539.36  85.8892
 44.3416  7365.06  84.6511
 44.3836  7376.25  85.0403
 44.4256  7346.78  84.5181
 44.4676  7447.26  85.2519
 44.5096  7360.36  84.8964
 44.5516  7445.04  85.3492
 44.5936  7267.13  84.2759
 44.6356  7390.15  84.7262
 44.6776  7441.44  85.3394
 44.7196  7450.42  85.6833
 44.7616  7428.01  86.8794
 44.8036  7544.5  85.978
 44.8456  7582.49  86.3947
 44.8876  7595.39  86.3105
 44.9296  7593.44  85.7442
 44.9716  7630.21  86.3864
 45.0136  7490.36  85.5312
 45.0556  7692.8  86.6533
 45.0976  7676.99  86.7198
 45.1396  7493.79  85.4421
 45.1816  7432.22  85.0345
 45.2236  7643.8  86.1384
 45.2656  7451.78  85.5449
 45.3076  7594.26  86.1373
 45.3496  7330.33  84.932
 45.3916  7614.69  86.8296
 45.4336  7591.83  86.5469
 45.4756  7516.16  85.971
 45.5176  7649.24  86.3436
 45.5596  7643.36  86.4331
 45.6016  7484.48  85.9505
 45.6436  7510.79  85.2762
 45.6856  7457  85.6211
 45.7276  7328.5  86.2013
 45.7696  7417.19  86.3973
 45.8116  7527.8  86.4635
 45.8536  7387.73  85.5557
 45.8956  7532.17  85.7291
 45.9376  7521.69  85.1361
 45.9796  7409.82  85.1816
 46.0216  7454.24  85.7824
 46.0636  7558.96  85.5118
 46.1056  7551.68  85.4694
 46.1476  7487.94  85.6989
 46.1896  7452.54  85.6444
 46.2316  7584.49  86.268
 46.2736  7349.29  85.2943
 46.3156  7491.44  85.6955
 46.3576  7484.88  85.8644
 46.3996  7445.57  85.8008
 46.4416  7457.57  85.4316
 46.4836  7373.36  85.3053
 46.5256  7598.64  86.5402
 46.5676  7295.9  84.9075
 46.6096  7476.74  85.8784
 46.6516  7422.41  84.62
 46.6936  7356.4  84.74
 46.7356  7503.28  85.6776
 46.7776  7439.34  86.1669
 46.8196  7346.39  85.218
 46.8616  7247.01  84.5902
 46.9036  7206.85  84.0178
 46.9456  7337.42  84.4039
 46.9876  7394.37  84.821
 47.0296  7371.26  85.3747
 47.0716  7249.28  84.4942
 47.1136  7393.31  85.0042
 47.1556  7332.3  84.5235
 47.1976  7366.01  84.7941
 47.2396  7293.8  84.7809
 47.2816  7288.77  84.4529
 47.3236  7412.25  85.5312
 47.3656  7350.07  85.1125
 47.4076  7295.22  84.5862
 47.4496  7222.83  84.2677
 47.4916  7274.13  84.7519
 47.5336  7524.78  86.0172
 47.5756  7428.05  85.5815
 47.6176  7247.29  84.4303
 47.6596  7294.19  84.4118
 47.7016  7439.54  85.0661
 47.7436  7388.44  85.1202
 47.7856  7356.66  84.957
 47.8276  7390.51  85.1986
 47.8696  7230.95  84.358
 47.9116  7408.31  85.104
 47.9536  7291.3  84.3687
 47.9956  7263.83  84.9221
 48.0376  7223.91  84.4654
 48.0796  7356.31  85.3529
 48.1216  7289.14  84.7931
 48.1636  7441.6  85.2338
 48.2056  7300.7  84.6931
 48.2476  7322.33  85.1259
 48.2896  7340.74  85.1399
 48.3316  7463.5  85.7885
 48.3736  7332.07  85.051
 48.4156  7289.91  84.6643
 48.4576  7278.57  84.8954
 48.4996  7457.72  85.3793
 48.5416  7422.94  85.5079
 48.5836  7373.55  84.8979
 48.6256  7405.39  85.2854
 48.6676  7280.36  85.0895
 48.7096  7298.12  84.4483
 48.7516  7305.81  84.6416
 48.7936  7182.58  83.9937
 48.8356  7273.5  84.5712
 48.8776  7246.39  84.9829
 48.9196  7443.44  85.4896
 48.9616  7238.36  84.6901
 49.0036  7344.08  85.6657
 49.0456  7203.45  84.819
 49.0876  7306.55  84.9523
 49.1296  7192.12  84.4487
 49.1716  7168.89  84.1873
 49.2136  7317.23  84.9648
 49.2556  7321.95  85.0341
 49.2976  7304.08  85.0004
 49.3396  7195.41  84.416
 49.3816  7352.63  84.7627
 49.4236  7300.13  84.8899
 49.4656  7227.35  84.4866
 49.5076  7242.37  84.3174
 49.5496  7244.24  84.3941
 49.5916  7303.26  84.6468
 49.6336  7280.11  84.7214
 49.6756  7280.93  84.9486
 49.7176  7215.29  84.5205
 49.7596  7242.39  84.4436
 49.8016  7226.47  84.2667
 49.8436  7200.43  84.4132
 49.8856  7244.38  84.6764
 49.9276  7131.43  84.1229
 49.9696  7263.39  84.867
 50.0116  7218.16  84.7462
 50.0536  7281.34  85.0583
 50.0956  7241.69  84.8959
 50.1376  7224.15  84.4844
 50.1796  7103.08  84.0491
 50.2216  7171.84  84.4525
 50.2636  7260.31  84.574
 50.3056  7092.61  83.7771
 50.3476  7142.42  84.09
 50.3896  7153.23  84.1287
 50.4316  7227.76  84.3963
 50.4736  7085.05  83.7806
 50.5156  7157.32  84.1873
 50.5576  7143.29  83.8542
 50.5996  7124.02  84.0396
 50.6416  7111.47  83.8864
 50.6836  7172.94  84.3173
 50.7256  7214.53  84.4881
 50.7676  7273.12  85.1427
 50.8096  7129.22  83.8281
 50.8516  7154.62  84.4065
 50.8936  7010.8  83.3314
 50.9356  7220.97  84.684
 50.9776  7123.74  84.2728
 51.0196  7025.24  83.8095
 51.0616  6862.62  82.1687
 51.1036  6930.8  82.9332
 51.1456  7131.86  84.0394
 51.1876  7020.32  82.709
 51.2296  7011.31  83.3008
 51.2716  6857.37  82.084
 51.3136  6893.91  82.7671
 51.3556  6986.53  82.9344
 51.3976  6995.71  83.147
 51.4396  6806.88  82.3249
 51.4816  6883.33  82.6402
 51.5236  7003.53  83.4443
 51.5656  6980.67  82.9028
 51.6076  7068.74  83.5078
 51.6496  6928.98  82.8665
 51.6916  6858.9  82.8091
 51.7336  6739.13  82.1728
 51.7756  6905.83  82.8677
 51.8176  6832.66  82.5497
 51.8596  6876.59  82.8271
 51.9016  6938.51  82.8033
 51.9436  6982.5  84.567
 51.9856  6944.68  84.7539
 52.0276  6995.52  83.5367
 52.0696  7091.26  84.1719
 52.1116  6901.21  83.1597
 52.1536  7083.68  84.1323
 52.1956  7056.9  83.4312
 52.2376  7188.64  84.3746
 52.2796  7108.08  83.7202
 52.3216  6890.56  83.1248
 52.3636  7011.02  83.4042
 52.4056  6965.43  82.9995
 52.4476  6901.72  82.9731
 52.4896  6915.14  83.1064
 52.5316  6935.97  83.2912
 52.5736  6865.51  82.5798
 52.6156  7047.68  84.0715
 52.6576  6961.23  82.9874
 52.6996  6867.24  83.4229
 52.7416  6874.45  83.3134
 52.7836  6891.04  83.303
 52.8256  6967.73  82.9628
 52.8676  6794.69  82.5025
 52.9096  6814.14  82.6922
 52.9516  6821.46  83.1388
 52.9936  6842.64  83.6486
 53.0356  6894.04  82.9447
 53.0776  6934.25  83.4622
 53.1196  6954.4  83.7099
 53.1616  6865.7  83.2203
 53.2036  6887.76  83.3248
 53.2456  6785.18  82.8081
 53.2876  6874.19  83.034
 53.3296  6949.75  83.8107
 53.3716  6952.5  83.5835
 53.4136  6885.91  83.3378
 53.4556  6880.97  83.3375
 53.4976  6865.64  83.0689
 53.5396  6880.17  83.5638
 53.5816  6807.43  82.7525
 53.6236  6790.55  83.0146
 53.6656  6887.56  83.191
 53.7076  6964.5  83.6315
 53.7496  6906.23  83.4039
 53.7916  6841.97  83.1572
 53.8336  6904.02  83.4099
 53.8756  6697.39  82.7208
 53.9176  6793.21  82.641
 53.9596  6559.95  81.9849
 54.0016  6645.12  81.8253
 54.0436  6519.73  81.2617
 54.0856  6797.2  82.3951
 54.1276  6627.69  81.5513
 54.1696  6549.97  81.2456
 54.2116  6702.99  81.9284
 54.2536  6624.24  81.2533
 54.2956  6604.15  81.1801
 54.3376  6601.41  81.6658
 54.3796  6524.23  81.0726
 54.4216  6582.66  81.509
 54.4636  6474.35  80.7919
 54.5056  6643.58  81.6444
 54.5476  6560.96  81.4738
 54.5896  6508.89  80.9912
 54.6316  6521.36  80.905
 54.6736  6540.69  81.1202
 54.7156  6583.08  81.4026
 54.7576  6429.39  80.4299
 54.7996  6500.91  81.034
 54.8416  6447.37  80.7403
 54.8836  6535.4  81.3726
 54.9256  6448.57  80.5965
 54.9676  6411.26  80.2354
 55.0096  6515.48  80.9155
 55.0516  6397.35  80.4184
 55.0936  6459.83  80.4866
 55.1356  6352.92  79.8498
 55.1776  6481.03  80.8739
 55.2196  6409.84  80.2182
 55.2616  6602.51  81.6649
 55.3036  6365.57  80.3537
 55.3456  6399.84  80.7087
 55.3876  6369.09  80.2457
 55.4296  6332.26  80.0088
 55.4716  6356.83  80.1926
 55.5136  6456.34  80.5721
 55.5556  6609.46  81.5793
 55.5976  6367.01  80.1566
 55.6396  6511.78  81.0021
 55.6816  6396.72  80.1383
 55.7236  6344.34  79.8726
 55.7656  6391.46  79.8975
 55.8076  6324.3  79.4835
 55.8496  6388.18  80.1828
 55.8916  6314.2  79.9296
 55.9336  6537.29  81.1502
 55.9756  6367.2  79.95
 56.0176  6300.6  79.6965
 56.0596  6351.02  80.0115
 56.1016  6311.59  79.779
 56.1436  6288.21  79.9004
 56.1856  6253.27  79.4269
 56.2276  6466.95  80.8156
 56.2696  6379.85  80.2361
 56.3116  6357.89  80.4808
 56.3536  6338.79  80.0339
 56.3956  6200.03  79.1238
 56.4376  6296.05  79.8041
 56.4796  6186.43  78.9132
 56.5216  6220.36  79.4894
 56.5636  6184.98  78.8471
 56.6056  6379.71  80.3224
 56.6476  6323.53  79.5485
 56.6896  6394.79  80.4739
 56.7316  6223.6  79.3146
 56.7736  6236.02  79.3954
 56.8156  6298.76  79.8032
 56.8576  6120.37  78.6126
 56.8996  6184.65  78.9167
 56.9416  6197.03  79.3464
 56.9836  6303.71  79.5224
 57.0256  6173  79.0006
 57.0676  6325.77  80.0843
 57.1096  6254.85  79.4269
 57.1516  6252.22  79.4533
 57.1936  6277.89  79.3786
 57.2356  6083.16  78.4727
 57.2776  6201.89  79.209
 57.3196  6195.78  79.4994
 57.3616  6321.58  79.7921
 57.4036  6145  78.7284
 57.4456  6242.51  79.343
 57.4876  6170.05  78.7526
 57.5296  6188.29  79.1893
 57.5716  6189.35  79.1932
 57.6136  6108.24  78.5213
 57.6556  6214.49  79.3193
 57.6976  6285.54  79.6071
 57.7396  6113.99  78.8487
 57.7816  6117.68  79.2528
 57.8236  6091.75  78.879
 57.8656  6097  78.5607
 57.9076  6113.3  78.6848
 57.9496  6183.22  79.5025
 57.9916  6176.83  78.973
 58.0336  6160.94  79.1562
 58.0756  6163.55  78.8102
 58.1176  6210.58  79.104
 58.1596  6069.81  78.7857
 58.2016  5941.63  77.1773
 58.2436  5836.33  76.8974
 58.2856  5949.63  77.5571
 58.3276  5897.38  77.5854
 58.3696  5851.69  77.0429
 58.4116  5771.13  76.3764
 58.4536  5977.85  77.62
 58.4956  5965.74  77.7196
 58.5376  6025.48  77.6808
 58.5796  5835.78  76.8603
 58.6216  5865.29  76.8776
 58.6636  5899.4  77.3071
 58.7056  5942.23  77.448
 58.7476  5973.42  78.0918
 58.7896  5828.5  76.791
 58.8316  5904.66  77.2875
 58.8736  5811.77  76.6835
 58.9156  5845.07  76.9516
 58.9576  5884.82  77.5252
 58.9996  5978.45  77.3971
 59.0416  5958.82  77.6262
 59.0836  5919.06  77.284
 59.1256  5782.11  77.0736
 59.1676  5860.97  77.9072
 59.2096  6006.29  78.1637
 59.2516  5919.04  77.1792
 59.2936  6021.22  78.1701
 59.3356  5752.55  76.2868
 59.3776  5904.84  77.4571
 59.4196  5823.83  76.8612
 59.4616  5773.53  76.3916
 59.5036  5780.58  76.4728
 59.5456  5979.14  77.47
 59.5876  5971.71  77.6118
 59.6296  5730.64  76.0966
 59.6716  5892.04  77.218
 59.7136  5878.99  77.1208
 59.7556  5678.33  75.9256
 59.7976  5850.7  76.8157
 59.8396  5801  76.385
 59.8816  5869.99  77.3757
 59.9236  5757.13  76.2803
 59.9656  5746.89  76.4667
 60.0076  5846.79  76.4962
 60.0496  5778.7  76.5424
 60.0916  6001.66  77.4248
 60.1336  5827.32  77.3796
 60.1756  5829.73  78.5591
 60.1996  0.0000000E+00  0.0000000E+00