File: docs/examples/opeando_xrd/IS17_D/Data/IS17_D/17_Da_f00079.xye
# /beamlines/bl04/projects/cycle2025-II/20250340211-lsimonelli/DATA/IS17_D/17_Da_f00079.xye : mythproc.py merge -s 0.006 -l 0.5 -f /beamlines/bl04/inhouse/ff/FlatField/ff_20Nov2024rod8mm60s_17keV.raw -b True -c true -o xye /beamlines/bl04/projects/cycle2025-II/20250340211-lsimonelli/DATA/IS17_D/17_Da_00079.dat
# IsMon = [6749493, 6747937, 6755336]  IsPos = [-1.4999, -2.4884, -3.4988]
# Wave = 0.4962  CalPath /beamlines/bl04/projects/cycle2025-II/20250340211-lsimonelli/DATA/Align/Si_Pos1_25keV_f00001.cal
# Date = 2025-09-24_15:34:38 Dt = 4.8000  Bin = 0.0060  <imon> = 6750922 +/- 3185 (Min/Max) 6747937 / 6755336
# icurr 249.1428  mocoIn 1.7002E-05  mocoOut 0.7976  i15 7.06757e+06  imon 6.75092e+06  i7 5.3333  iEMpd_timer 4.8000  iEMpd_1 3.2678E-08  iEMpd_2 7.8183E-08  iEMpd_3 1.7153E-08  iEMpd_4 4.6547E-08  iEMhp_timer 4.8000  iEMhp_1 4.8684E-06  iEMhp_2 -2.4260E-08  iEMhp_3 -2.3141E-08  iEMhp_4 -2.0668E-08
#      9776
 1.5856  39238.1  203.424
 1.6276  45980  216.43
 1.6696  52774  231.051
 1.7116  61280.6  249.464
 1.7536  70393.5  266.231
 1.7956  75188.3  275.836
 1.8376  71441.7  269.302
 1.8796  59739.8  244.437
 1.9216  48183.9  220.412
 1.9636  40493.9  201.232
 2.0056  36507.6  190.33
 2.0476  33626.8  184.668
 2.0896  32211.1  179.679
 2.1316  31316.7  176.316
 2.1736  30223.5  174.585
 2.2156  30437.3  173.795
 2.2576  29285.6  171.088
 2.2996  28090.9  168.175
 2.3416  28536.1  168.15
 2.3836  27759.3  165.948
 2.4256  27203.5  164.814
 2.4676  27045.7  164.102
 2.5096  27069.2  164.227
 2.5516  31982.1  182.636
 2.5936  112642  335.835
 2.6356  28291.3  169.035
 2.6776  25721.3  160.074
 2.7196  25114.1  158.684
 2.7616  24933.5  157.896
 2.8036  24528  156.777
 2.8456  24490.2  157.255
 2.8876  24097.1  155.872
 2.9296  23497.9  154.04
 2.9716  23448.8  153.38
 3.0136  23116.3  152.355
 3.0556  23587.7  154.292
 3.0976  23138.9  151.767
 3.1396  22926.2  151.785
 3.1816  22844.2  151.44
 3.2236  22572.2  150.54
 3.2656  22708.6  150.052
 3.3076  22461.1  150.647
 3.3496  22675.5  150.33
 3.3916  23122.3  151.631
 3.4336  23491.6  153.403
 3.4756  23732.8  154.111
 3.5176  24775.5  157.263
 3.5596  24623.1  159.154
 3.6016  24784.7  157.323
 3.6436  23902.7  155.585
 3.6856  23713.3  153.285
 3.7276  22605.5  150.734
 3.7696  22435.6  150.341
 3.8116  22136.3  149.232
 3.8536  22177.4  149.297
 3.8956  22086.8  148.829
 3.9376  22693.6  151.107
 3.9796  21955.3  148.152
 4.0216  22081.3  147.636
 4.0636  21979.9  148.738
 4.1056  22131.2  148.901
 4.1476  22279.3  149.705
 4.1896  22468.2  150.192
 4.2316  22523.2  150.203
 4.2736  22982.6  151.521
 4.3156  23180.4  152.389
 4.3576  23919.8  154.742
 4.3996  24354.9  156.407
 4.4416  24800  157.408
 4.4836  26189.1  161.914
 4.5256  25927.6  161.709
 4.5676  25646.9  161.079
 4.6096  26160.3  161.358
 4.6516  26800.1  163.028
 4.6936  26865.7  164.023
 4.7356  27738  166.505
 4.7776  27176  164.641
 4.8196  26412.2  162.957
 4.8616  26149.5  161.639
 4.9036  25842.9  160.433
 4.9456  26069.9  161.772
 4.9876  25637.9  160.328
 5.0296  25394.5  159.386
 5.0716  25323.2  159.913
 5.1136  25502.8  160.209
 5.1556  25863.8  160.804
 5.1976  32451.2  180.116
 5.2396  26612.8  162.813
 5.2816  26410.5  162.65
 5.3236  26434.3  162.432
 5.3656  26055.5  162.174
 5.4076  25582  160.84
 5.4496  25846.2  161.16
 5.4916  26073.5  161.63
 5.5336  26000.1  161.406
 5.5756  25812.8  160.86
 5.6176  25975.5  160.799
 5.6596  26107.7  162.179
 5.7016  26463  162.547
 5.7436  26683.5  163.494
 5.7856  26627.8  163.382
 5.8276  26930.6  164.031
 5.8696  26965.2  164.307
 5.9116  26879.1  164.643
 5.9536  27112.6  165.111
 5.9956  27446.3  165.494
 6.0376  27419.2  166.041
 6.0796  27707.4  166.745
 6.1216  27695.3  166.907
 6.1636  28075.1  167.115
 6.2056  27952.8  167.409
 6.2476  28147.7  167.871
 6.2896  28505.4  168.618
 6.3316  28140.2  167.709
 6.3736  28532.9  168.767
 6.4156  28327.6  168.056
 6.4576  28711.7  168.801
 6.4996  28753  169.397
 6.5416  28567.9  168.986
 6.5836  29236.6  171.182
 6.6256  28866.1  169.66
 6.6676  29222  170.276
 6.7096  29097  170.753
 6.7516  29736.7  172.273
 6.7936  30521  173.949
 6.8356  31252.5  176.113
 6.8776  30799  175.631
 6.9196  30086.5  173.984
 6.9616  30666.2  175.112
 7.0036  31198.1  176.269
 7.0456  31194.4  175.559
 7.0876  31068.2  176.877
 7.1296  30826.3  175.334
 7.1716  30877.5  175.016
 7.2136  30778.2  174.527
 7.2556  31181.5  175.827
 7.2976  30996.7  175.799
 7.3396  30840.7  175.574
 7.3816  31092.1  176.491
 7.4236  31239.1  176.208
 7.4656  31340.4  175.982
 7.5076  31968  177.871
 7.5496  31491.8  177.06
 7.5916  31484.3  177.079
 7.6336  32466.5  179.72
 7.6756  32348.6  179.246
 7.7176  32401  179.711
 7.7596  32579.1  181.431
 7.8016  37616.7  197.266
 7.8436  33589.7  183.085
 7.8856  33712.7  183.037
 7.9276  34232.7  184.817
 7.9696  34302.9  185.33
 8.0116  35197  186.276
 8.0536  35745.5  187.982
 8.0956  38465.5  196.231
 8.1376  35950.3  189.167
 8.1796  36270.5  190.567
 8.2216  37208.3  191.735
 8.2636  38507.8  195.305
 8.3056  37202.5  192.722
 8.3476  39300.7  197.414
 8.3896  38145.9  194.574
 8.4316  37733.1  193.682
 8.4736  37566.5  192.72
 8.5156  37318.2  192.357
 8.5576  37155.7  192.933
 8.5996  37021.1  191.435
 8.6416  36979.3  192.606
 8.6836  36713.6  191.708
 8.7256  37531.7  193.304
 8.7676  39744.9  201.916
 8.8096  39648.5  198.87
 8.8516  36916.9  191.509
 8.8936  38298.1  194.935
 8.9356  36199.8  189.882
 8.9776  36482.6  190.714
 9.0196  36044.7  189.243
 9.0616  36510.3  189.928
 9.1036  38551.6  196.398
 9.1456  36484.5  190.394
 9.1876  35952.2  188.966
 9.2296  35778.5  187.905
 9.2716  35118.7  186.236
 9.3136  35162.7  186.331
 9.3556  35628.8  187.549
 9.3976  33692.6  182.917
 9.4396  34429.3  184.782
 9.4816  33828.4  183.038
 9.5236  33990.1  183.376
 9.5656  33870.5  183.382
 9.6076  33313.4  182.375
 9.6496  33484  182.777
 9.6916  33281.3  182.182
 9.7336  33549  182.706
 9.7756  33492.6  183.813
 9.8176  32723.2  181.23
 9.8596  32573.6  179.275
 9.9016  32257.5  178.398
 9.9436  32080.2  177.82
 9.9856  32248.3  178.51
 10.0276  31315.5  177.006
 10.0696  31733.4  177.227
 10.1116  31038.6  175.535
 10.1536  30809.6  175.055
 10.1956  30082  172.578
 10.2376  29763.7  171.172
 10.2796  29904.4  171.704
 10.3216  29844  171.797
 10.3636  29426.4  170.619
 10.4056  31896.1  178.054
 10.4476  32071.8  178.149
 10.4896  36476  189.364
 10.5316  33667.1  182.689
 10.5736  29353.7  171.009
 10.6156  28706  168.877
 10.6576  34685.3  184.063
 10.6996  29116.8  169.314
 10.7416  28255.8  167.031
 10.7836  29383.6  171.017
 10.8256  27550.6  166.021
 10.8676  27720.7  166.074
 10.9096  27563.6  165.626
 10.9516  27217.7  163.517
 10.9936  28003.7  166.066
 11.0356  27445.3  165.046
 11.0776  28831.6  168.452
 11.1196  28155.9  167.233
 11.1616  26508.4  161.965
 11.2036  27593.8  165.091
 11.2456  29315.1  170.916
 11.2876  26353.8  161.776
 11.3296  26444.5  161.947
 11.3716  26705.5  162.429
 11.4136  26366.6  162.299
 11.4556  26572.5  162.587
 11.4976  27900  165.557
 11.5396  28259.3  166.794
 11.5816  26178.9  160.986
 11.6236  25885.6  160.314
 11.6656  25661.2  158.773
 11.7076  25081.8  157.792
 11.7496  25634.5  163.476
 11.7916  25745.1  159.127
 11.8336  24735.3  156.841
 11.8756  25240.1  157.982
 11.9176  24673.2  155.868
 11.9596  24447.2  155.333
 12.0016  24319.9  155.709
 12.0436  24003.8  154.126
 12.0856  23678.8  153.595
 12.1276  24072.7  154.781
 12.1696  24069.1  153.912
 12.2116  24569.6  155.5
 12.2536  27548.8  165.546
 12.2956  24440  155.252
 12.3376  24051.1  154.226
 12.3796  24260.8  155.357
 12.4216  24134.2  154.168
 12.4636  24995.7  157.825
 12.5056  23766  153.177
 12.5476  23803  152.828
 12.5896  23899.2  153.76
 12.6316  23540.8  152.766
 12.6736  23697.5  153.756
 12.7156  23959.2  154.468
 12.7576  23803.5  154.199
 12.7996  24061.3  153.68
 12.8416  24100.4  154.858
 12.8836  25075.8  157.786
 12.9256  24296.2  154.334
 12.9676  24570  155.619
 13.0096  24165.5  155.435
 13.0516  24314.2  154.946
 13.0936  24117.4  154.717
 13.1356  24689.1  155.526
 13.1776  24529.8  156.01
 13.2196  24362.5  155.14
 13.2616  24198.1  154.918
 13.3036  24271.9  155.128
 13.3456  24107.1  154.95
 13.3876  24474.7  155.424
 13.4296  24384  155.286
 13.4716  24458.5  155.13
 13.5136  24611.9  155.769
 13.5556  24447.1  155.862
 13.5976  24351.2  155.702
 13.6396  24831.7  156.591
 13.6816  24237.9  155.202
 13.7236  25050.6  157.424
 13.7656  24379.4  155.835
 13.8076  25449.3  157.975
 13.8496  24192.4  154.628
 13.8916  24234.6  155.763
 13.9336  24001.9  154.234
 13.9756  23824.9  153.026
 14.0176  23935.8  154.062
 14.0596  24800.1  156.785
 14.1016  23413.9  152.728
 14.1436  23301.8  151.501
 14.1856  23150.4  151.306
 14.2276  23084.3  151.571
 14.2696  23546.9  152.918
 14.3116  23017.5  151.093
 14.3536  22255.1  148.749
 14.3956  22472.3  149.21
 14.4376  22415.1  148.791
 14.4796  22329.1  148.5
 14.5216  22136.1  148.653
 14.5636  22562.5  149.636
 14.6056  22136.6  147.789
 14.6476  21810.8  145.94
 14.6896  21484.2  145.38
 14.7316  21086.4  145.045
 14.7736  21169.5  144.49
 14.8156  20948.7  143.764
 14.8576  21042.3  143.93
 14.8996  20711.7  143.999
 14.9416  20131.5  141.968
 14.9836  20332.3  142.627
 15.0256  20327.9  141.545
 15.0676  20097.2  141.054
 15.1096  19909.5  140.133
 15.1516  19541  139.393
 15.1936  19490.5  138.634
 15.2356  19375.7  138.503
 15.2776  19359.4  138.029
 15.3196  19160.4  138.322
 15.3616  18944.8  137.286
 15.4036  18980.2  137.287
 15.4456  19310.3  138.121
 15.4876  18876.7  136.242
 15.5296  18579.3  135.461
 15.5716  18541.4  134.913
 15.6136  18358  134.582
 15.6556  20388.1  141.017
 15.6976  18704.1  135.373
 15.7396  18468.9  134.891
 15.7816  18248.8  133.601
 15.8236  17850.6  132.823
 15.8656  17815.9  132.499
 15.9076  17584.2  131.46
 15.9496  18210.4  136.623
 15.9916  17379.2  133.904
 16.0336  17285  130.436
 16.0756  17360.7  131.021
 16.1176  17061.1  129.956
 16.1596  16738  129.886
 16.2016  16957.2  129.48
 16.2436  16668.5  128.763
 16.2856  16950.8  129.389
 16.3276  16325.3  127.391
 16.3696  16508.9  127.924
 16.4116  16340.6  127.731
 16.4536  16524.7  128.229
 16.4956  17212.9  130.614
 16.5376  16583.2  128.384
 16.5796  16336.1  126.792
 16.6216  16215  126.616
 16.6636  16414.1  127.546
 16.7056  16083  126.127
 16.7476  16341.7  126.664
 16.7896  16384.7  127.579
 16.8316  16266.2  127.084
 16.8736  16494.8  128.244
 16.9156  16457.8  128.425
 16.9576  16031  127.566
 16.9996  16103.7  128.334
 17.0416  16180.4  127.019
 17.0836  15593  124.458
 17.1256  15633.9  124.627
 17.1676  16186  126.802
 17.2096  15898.9  125.548
 17.2516  15752.1  124.749
 17.2936  15677.3  124.756
 17.3356  15225.8  122.972
 17.3776  15284.4  123.395
 17.4196  15341.2  123.326
 17.4616  15553.2  124.09
 17.5036  15911.7  125.882
 17.5456  14913.1  122.504
 17.5876  14931.4  121.635
 17.6296  14907.1  121.35
 17.6716  15183.4  123.054
 17.7136  15487.8  124.419
 17.7556  14872.8  122.217
 17.7976  14959.2  122.313
 17.8396  14901.3  121.574
 17.8816  14570.8  120.762
 17.9236  14795.9  121.497
 17.9656  15096.5  123.257
 18.0076  15521.4  124.533
 18.0496  15563.7  123.821
 18.0916  19655.7  139.758
 18.1336  17483.7  131.934
 18.1756  15725.8  124.638
 18.2176  16437.8  127.671
 18.2596  14836.9  121.032
 18.3016  15492.8  123.935
 18.3436  15739.6  124.924
 18.3856  15057.8  122.32
 18.4276  14728.8  120.657
 18.4696  14918.6  121.524
 18.5116  14825.2  121.432
 18.5536  14688.3  121.224
 18.5956  14656  120.645
 18.6376  14822.3  121.743
 18.6796  14479.6  119.645
 18.7216  14827.1  121.574
 18.7636  14305.7  119.406
 18.8056  14067.7  118.346
 18.8476  14035.1  118.823
 18.8896  13877.8  117.505
 18.9316  14289.2  119.211
 18.9736  13936.5  117.438
 19.0156  14340.8  119.547
 19.0576  14387.8  118.591
 19.0996  14246.2  118.719
 19.1416  14024.7  118.182
 19.1836  13863.8  117.105
 19.2256  13709.1  116.659
 19.2676  13945.5  117.751
 19.3096  13941.6  117.978
 19.3516  13784.6  117.274
 19.3936  13925.9  117.782
 19.4356  13897.7  117.533
 19.4776  13791.6  117.176
 19.5196  13890.2  117.447
 19.5616  14010.9  118.209
 19.6036  13951  117.441
 19.6456  13985.8  117.722
 19.6876  14399.3  119.088
 19.7296  13989.5  117.841
 19.7716  13910  117.67
 19.8136  14099.7  118.677
 19.8556  14405.3  119.426
 19.8976  14496.3  119.872
 19.9396  14299.7  118.628
 19.9816  14609.4  120.151
 20.0236  15132.8  122.51
 20.0656  14161  118.505
 20.1076  13725.2  117.125
 20.1496  13710.1  117.068
 20.1916  13792.3  116.933
 20.2336  13733.3  116.616
 20.2756  13477.8  115.952
 20.3176  13392  115.333
 20.3596  13450.2  115.56
 20.4016  13501.8  115.588
 20.4436  13489.1  116.081
 20.4856  13280.8  114.983
 20.5276  13312  115.571
 20.5696  13276  114.877
 20.6116  13328.8  115.384
 20.6536  13212.7  114.391
 20.6956  13092.9  113.997
 20.7376  13229.9  114.817
 20.7796  13166.6  114.229
 20.8216  13289.8  114.472
 20.8636  13442.2  115.498
 20.9056  14432.5  119.62
 20.9476  13163.4  114.084
 20.9896  14411  119.231
 21.0316  13322.4  114.534
 21.0736  13508.9  115.86
 21.1156  13674.5  116.727
 21.1576  13339.9  115.346
 21.1996  13005  113.865
 21.2416  12951.1  113.464
 21.2836  13129.6  114.205
 21.3256  13008.8  113.763
 21.3676  13056.1  113.515
 21.4096  13230.8  114.586
 21.4516  12955.6  113.269
 21.4936  12839.5  113.014
 21.5356  12941.5  113.404
 21.5776  13037.4  113.654
 21.6196  13015.1  113.592
 21.6616  12864.1  113.018
 21.7036  12860.7  112.782
 21.7456  12750.6  112.377
 21.7876  12609.1  111.503
 21.8296  12640.5  111.497
 21.8716  12542.1  111.299
 21.9136  12880.3  112.987
 21.9556  13068.4  113.475
 21.9976  12687.2  111.829
 22.0396  12623.1  111.799
 22.0816  12753.2  112.903
 22.1236  13162.9  114.16
 22.1656  12799.9  112.69
 22.2076  12716  111.798
 22.2496  12686  111.702
 22.2916  12777.1  111.97
 22.3336  12815.3  112.881
 22.3756  12661.9  111.915
 22.4176  12630.9  111.633
 22.4596  12258  110.539
 22.5016  12882.3  112.817
 22.5436  12657  111.704
 22.5856  12825.8  112.705
 22.6276  12610.6  111.903
 22.6696  12412.4  111.36
 22.7116  12471.9  111.149
 22.7536  12488.1  111.186
 22.7956  12667.9  111.327
 22.8376  12496.8  111.07
 22.8796  12533.3  111.043
 22.9216  12599.7  111.875
 22.9636  12578.7  110.941
 23.0056  12556.6  110.976
 23.0476  12611.7  111.794
 23.0896  13010.3  112.917
 23.1316  12780.4  112.355
 23.1736  12582.9  114.438
 23.2156  12601.6  111.873
 23.2576  12539  111.733
 23.2996  12563.4  111.622
 23.3416  12354.4  111.218
 23.3836  12319.6  110.296
 23.4256  12576  111.556
 23.4676  12665.9  111.651
 23.5096  12423.9  111.248
 23.5516  12367.2  110.284
 23.5936  12630.5  112.355
 23.6356  12902.3  113.218
 23.6776  12473.8  111.526
 23.7196  12331.5  110.476
 23.7616  12591.8  111.545
 23.8036  12373.7  110.632
 23.8456  12415.2  110.376
 23.8876  12274.9  110.115
 23.9296  12261.9  110.542
 23.9716  12444.7  110.548
 24.0136  12523.6  111.805
 24.0556  12291.8  110.501
 24.0976  12127.2  109.56
 24.1396  12061.5  111.92
 24.1816  12152.6  110.768
 24.2236  12100.7  110.153
 24.2656  12135.7  109.782
 24.3076  12097.9  109.865
 24.3496  12252.7  110.457
 24.3916  12066.6  109.66
 24.4336  11971.1  109.436
 24.4756  11918.6  109.067
 24.5176  11753.6  107.954
 24.5596  11628  107.506
 24.6016  11604.3  107.68
 24.6436  11849.9  108.288
 24.6856  11795.4  107.815
 24.7276  12005.4  109.091
 24.7696  11712.9  107.866
 24.8116  11641.1  107.721
 24.8536  11652.5  107.761
 24.8956  11353  106.112
 24.9376  11571.5  107.062
 24.9796  11360.2  106.437
 25.0216  11344.3  106.468
 25.0636  11488.8  106.798
 25.1056  11283  106.545
 25.1476  11305.8  108.31
 25.1896  11362  107.049
 25.2316  11448.4  106.704
 25.2736  11377.3  106.037
 25.3156  11125  104.922
 25.3576  11167.5  105.549
 25.3996  11242  105.877
 25.4416  11091.6  105.153
 25.4836  11105.2  105.741
 25.5256  11075.5  104.964
 25.5676  11151.9  105.063
 25.6096  10992.8  104.88
 25.6516  11127.9  105.019
 25.6936  11048.1  104.956
 25.7356  11077  105.227
 25.7776  11097.8  104.925
 25.8196  11065.8  105.009
 25.8616  11117.3  105.169
 25.9036  11210.1  105.084
 25.9456  10936.2  104.389
 25.9876  10919.7  104.366
 26.0296  11086.3  104.681
 26.0716  10949.1  104.45
 26.1136  11256.5  105.845
 26.1556  11230.1  105.084
 26.1976  10822.3  104.086
 26.2396  11063.5  104.388
 26.2816  10868.4  104.078
 26.3236  11036  105.044
 26.3656  10917.6  104.197
 26.4076  10778.1  103.737
 26.4496  11382.3  106.068
 26.4916  11091.3  104.725
 26.5336  10806  103.693
 26.5756  11017.9  104.578
 26.6176  11049.1  104.763
 26.6596  10709.2  103.449
 26.7016  10559.6  102.485
 26.7436  10603.7  102.829
 26.7856  10506.4  102.337
 26.8276  10539  102.452
 26.8696  10547.4  102.368
 26.9116  10727.5  103.178
 26.9536  10560.9  102.422
 26.9956  10547.1  102.383
 27.0376  10476.6  102.259
 27.0796  10544.5  102.325
 27.1216  10555.8  102.451
 27.1636  10290.7  101.322
 27.2056  10422.1  101.848
 27.2476  10428.3  101.879
 27.2896  10451.3  102.1
 27.3316  10355.7  101.345
 27.3736  10272.8  101.205
 27.4156  10334.5  101.353
 27.4576  10366.6  101.739
 27.4996  10447.8  101.733
 27.5416  10390.2  101.769
 27.5836  10349.7  101.385
 27.6256  10670.8  103.112
 27.6676  10466.2  102.143
 27.7096  10379.9  101.584
 27.7516  10824.7  103.891
 27.7936  10637.8  103.168
 27.8356  10510.2  102.161
 27.8776  10422.3  101.772
 27.9196  10283.6  100.947
 27.9616  10498.8  102.192
 28.0036  10302.1  101.208
 28.0456  10196.9  100.82
 28.0876  10110.3  100.482
 28.1296  10171.6  100.622
 28.1716  10241.1  100.982
 28.2136  10183.7  100.657
 28.2556  9990.11  99.8134
 28.2976  10030.3  100.006
 28.3396  10228.1  100.732
 28.3816  10157.1  100.413
 28.4236  10347.1  101.501
 28.4656  9993.27  99.7894
 28.5076  9828.05  98.601
 28.5496  10027  99.8561
 28.5916  9933.34  99.1964
 28.6336  9775.07  98.7414
 28.6756  9907.31  98.6101
 28.7176  9918.75  99.2089
 28.7596  9826.22  98.6478
 28.8016  9899.35  99.0548
 28.8436  9956.95  99.5804
 28.8856  9882.93  99.0604
 28.9276  9903.24  99.4067
 28.9696  9736.99  98.2286
 29.0116  9740.26  98.4228
 29.0536  9613.29  97.9847
 29.0956  9829.78  98.797
 29.1376  9751.17  98.3705
 29.1796  9637.19  97.8445
 29.2216  9542.63  97.2
 29.2636  9758.88  98.3739
 29.3056  9766.27  98.1973
 29.3476  9731.47  98.5448
 29.3896  9805.38  99.0069
 29.4316  9890.51  98.7762
 29.4736  9682.88  97.7873
 29.5156  9848.3  98.5419
 29.5576  9657.39  98.3381
 29.5996  9608.69  97.3421
 29.6416  9665.85  97.7562
 29.6836  9733.52  98.0168
 29.7256  9740.2  98.6206
 29.7676  9795.27  98.5465
 29.8096  9612.37  97.5752
 29.8516  9445.03  97.0406
 29.8936  9644.99  98.1692
 29.9356  9642.62  97.9114
 29.9776  9565.61  97.6704
 30.0196  9649.84  97.4887
 30.0616  9717.5  98.2049
 30.1036  9500.32  96.9358
 30.1456  9526.14  97.2835
 30.1876  9537.51  97.3381
 30.2296  9473.7  96.9405
 30.2716  9676.19  97.6144
 30.3136  9590.05  98.0416
 30.3556  9652.33  98.3742
 30.3976  9546.71  99.3456
 30.4396  9593.73  96.9257
 30.4816  9460.47  95.8486
 30.5236  9553.31  96.3377
 30.5656  9388.13  96.1461
 30.6076  9545.59  96.3839
 30.6496  9539.65  96.7358
 30.6916  9371.7  95.966
 30.7336  9421.83  96.3806
 30.7756  9492.38  96.8336
 30.8176  9377.91  96.1623
 30.8596  9372.89  95.9058
 30.9016  9395.53  96.3645
 30.9436  9272.33  95.4828
 30.9856  9392.7  96.214
 31.0276  9244.98  95.0557
 31.0696  9268.22  95.7559
 31.1116  9318.1  95.9892
 31.1536  9562.37  97.1148
 31.1956  9289.05  95.8102
 31.2376  9267.35  95.6993
 31.2796  9207.07  94.9341
 31.3216  9287.73  95.297
 31.3636  9249.91  95.8049
 31.4056  9339.77  97.5921
 31.4476  9228.41  94.909
 31.4896  9146.6  94.9887
 31.5316  9415.87  95.7709
 31.5736  9778.75  97.4157
 31.6156  9779.12  97.4282
 31.6576  9469.74  95.9818
 31.6996  9398.09  95.2849
 31.7416  9230.68  95.4897
 31.7836  9392.31  95.3375
 31.8256  9184.74  94.548
 31.8676  9252.02  94.8914
 31.9096  9099.38  94.4596
 31.9516  9196.19  95.1185
 31.9936  9100.45  94.4532
 32.0356  9161.89  94.8329
 32.0776  9121.47  94.511
 32.1196  9285.71  95.4487
 32.1616  9221.66  94.5772
 32.2036  8989.29  93.8812
 32.2456  9030.25  94.4766
 32.2876  9089.36  94.2804
 32.3296  8921.02  93.3706
 32.3716  9038.8  94.0865
 32.4136  9107.06  94.6375
 32.4556  9296.77  95.0007
 32.4976  9233.23  94.5665
 32.5396  9025.84  93.581
 32.5816  8965.3  93.3853
 32.6236  9041.82  93.8559
 32.6656  9048.42  94.4304
 32.7076  8960.25  93.6143
 32.7496  8995.99  93.4829
 32.7916  9006.07  93.4927
 32.8336  8981.02  93.4632
 32.8756  9056.73  93.5673
 32.9176  8992.05  93.7207
 32.9596  9026.48  93.9687
 33.0016  8955.72  93.4005
 33.0436  9017.59  93.8865
 33.0856  8880.66  93.2466
 33.1276  8883.68  93.0047
 33.1696  8927.12  93.0735
 33.2116  8958.77  93.4585
 33.2536  8926.57  93.2934
 33.2956  8979.25  93.651
 33.3376  8854.09  92.7318
 33.3796  8959.22  93.4898
 33.4216  8866.85  92.5962
 33.4636  8936.24  93.112
 33.5056  8794.76  92.6224
 33.5476  8663.77  91.9155
 33.5896  8888.59  92.8721
 33.6316  8724.27  92.3278
 33.6736  8661.52  92.2307
 33.7156  8821.88  93.1197
 33.7576  8895.62  93.1391
 33.7996  8859.71  92.7136
 33.8416  8633.24  91.7012
 33.8836  8778.39  92.2567
 33.9256  8729.51  92.0617
 33.9676  8880.04  92.742
 34.0096  8635.15  91.7745
 34.0516  8730.97  91.9189
 34.0936  8680.69  91.9118
 34.1356  8690.05  91.7044
 34.1776  8599.51  91.2399
 34.2196  8534.45  91.0716
 34.2616  8570.86  91.4046
 34.3036  8601.96  91.8158
 34.3456  8589.26  91.5017
 34.3876  8572.09  91.3805
 34.4296  8611.27  91.276
 34.4716  8752.3  92.1713
 34.5136  8551.23  91.3093
 34.5556  8552.32  91.5656
 34.5976  8626.88  91.7657
 34.6396  8587.29  91.2704
 34.6816  8600.02  91.4486
 34.7236  8622.51  91.3541
 34.7656  8579.93  91.3186
 34.8076  8473.45  91.0678
 34.8496  8478.62  90.9606
 34.8916  8540.72  91.1675
 34.9336  8720.72  92.0869
 34.9756  8661.51  91.6853
 35.0176  8653.4  92.1797
 35.0596  8494.36  91.1565
 35.1016  8537.24  91.1563
 35.1436  8616.75  91.2623
 35.1856  8488.1  90.7061
 35.2276  8457.98  90.7184
 35.2696  8488.64  91.074
 35.3116  8585.86  91.6871
 35.3536  8466.08  90.76
 35.3956  8436.13  90.3042
 35.4376  8458.65  90.978
 35.4796  8438.23  90.9336
 35.5216  8331.22  90.3084
 35.5636  8236.89  90.5369
 35.6056  8485.3  90.9047
 35.6476  8468.75  90.7127
 35.6896  8490.44  90.9275
 35.7316  8413.34  90.4731
 35.7736  8397.37  90.5902
 35.8156  8304.27  90.0856
 35.8576  8401.29  90.8661
 35.8996  8518.82  91.4534
 35.9416  8591.33  91.3002
 35.9836  8335.29  90.3247
 36.0256  8337.55  90.3565
 36.0676  8344.75  90.1577
 36.1096  8248.73  89.7729
 36.1516  8350.41  90.2089
 36.1936  8380.77  90.2221
 36.2356  8350.57  90.6843
 36.2776  8309.06  89.9516
 36.3196  8379.65  90.0048
 36.3616  8343.44  89.9443
 36.4036  8240.54  89.4383
 36.4456  8390.82  90.4735
 36.4876  8196.53  89.3528
 36.5296  8323.03  90.0814
 36.5716  8304.24  90.7591
 36.6136  8488.66  90.5141
 36.6556  8424.83  90.3776
 36.6976  8414.87  90.8329
 36.7396  8277.41  89.8247
 36.7816  8356.05  90.6212
 36.8236  8353.88  90.536
 36.8656  8252.18  90.0554
 36.9076  8239.62  89.8681
 36.9496  8213.21  89.6971
 36.9916  8269.91  89.6418
 37.0336  8331.83  90.2855
 37.0756  8436.64  90.6491
 37.1176  7940.65  88.209
 37.1596  8113.28  89.1649
 37.2016  8269.19  90.2489
 37.2436  8407.07  90.308
 37.2856  8219.62  89.5478
 37.3276  8229.05  88.9507
 37.3696  8137.18  89.3433
 37.4116  8266.42  89.9411
 37.4536  8183.4  89.3632
 37.4956  8110.62  89.0007
 37.5376  8180.36  90.9563
 37.5796  8103.09  90.4774
 37.6216  7918.33  87.7183
 37.6636  8016.62  88.1669
 37.7056  8125.67  88.9491
 37.7476  8122.82  88.4701
 37.7896  8200.83  89.3869
 37.8316  7843.39  87.6012
 37.8736  8131.56  88.7088
 37.9156  8126.18  88.6868
 37.9576  7984.14  87.7993
 37.9996  7897.85  87.0345
 38.0416  8107.07  89.0052
 38.0836  8133.94  89.0548
 38.1256  8019.28  88.3599
 38.1676  7987.52  88.3459
 38.2096  8168.3  88.9642
 38.2516  8089.64  88.7232
 38.2936  8081.85  88.4923
 38.3356  8091.37  88.4537
 38.3776  8061.66  88.569
 38.4196  8128.24  88.7853
 38.4616  8086.19  88.7878
 38.5036  8136.59  88.9134
 38.5456  7947.87  88.7235
 38.5876  7991.36  89.0029
 38.6296  7840.06  87.1472
 38.6716  7881.44  87.1674
 38.7136  7747.54  86.3691
 38.7556  7944.23  87.9646
 38.7976  7928.87  87.8138
 38.8396  7850.98  87.8348
 38.8816  7868.38  87.7108
 38.9236  7843.05  87.3816
 38.9656  7773.05  86.9072
 39.0076  7875.42  86.8874
 39.0496  7967.16  87.9286
 39.0916  8049.35  88.0297
 39.1336  7911.72  87.6859
 39.1756  7742.58  86.8115
 39.2176  7876.61  88.0916
 39.2596  8015.48  88.7836
 39.3016  7796.11  87.1269
 39.3436  7919.94  88.2501
 39.3856  7975.73  88.0079
 39.4276  7912.82  88.1446
 39.4696  7966.7  88.0787
 39.5116  7826.79  87.8113
 39.5536  8027.44  89.3481
 39.5956  7946.06  87.9925
 39.6376  7932.08  87.9149
 39.6796  7904.78  87.5166
 39.7216  7872.15  87.4184
 39.7636  7903.39  88.1677
 39.8056  7919.42  88.0304
 39.8476  7890.83  88.1301
 39.8896  7852.18  87.5435
 39.9316  7956.14  88.3805
 39.9736  7955.33  87.9505
 40.0156  7833.42  87.0959
 40.0576  7971.67  88.2232
 40.0996  8082.4  88.0094
 40.1416  7948.97  88.067
 40.1836  8008.21  88.2828
 40.2256  7988.34  88.2222
 40.2676  7895.35  87.8074
 40.3096  8075.16  88.7169
 40.3516  7990.19  88.3686
 40.3936  8021.75  88.1064
 40.4356  7962.53  87.9799
 40.4776  7923.23  88.1699
 40.5196  7921.92  88.287
 40.5616  7897.91  87.7985
 40.6036  7927.33  88.2098
 40.6456  8035.88  88.4176
 40.6876  8044.93  88.4585
 40.7296  8070.63  88.7362
 40.7716  8052.47  88.7687
 40.8136  7803.34  87.3297
 40.8556  8050.01  88.8316
 40.8976  8044.96  88.7194
 40.9396  7896.9  88.2542
 40.9816  8029.11  88.2713
 41.0236  7987.35  87.8135
 41.0656  8010.41  88.4873
 41.1076  7989.5  88.1429
 41.1496  8011.19  88.1733
 41.1916  7864.88  87.6892
 41.2336  7882.83  87.7745
 41.2756  7985.67  87.9441
 41.3176  7940.27  88.3136
 41.3596  7976.78  88.2471
 41.4016  7993.89  88.5914
 41.4436  8046.5  88.6749
 41.4856  7981.33  88.4793
 41.5276  7912.15  88.116
 41.5696  7992.87  88.1983
 41.6116  7853.38  87.813
 41.6536  8049.77  88.763
 41.6956  7887.05  87.9167
 41.7376  7999.22  88.5625
 41.7796  7932.43  88.0612
 41.8216  7902.13  88.1449
 41.8636  7956.03  88.3828
 41.9056  7866.47  87.677
 41.9476  7961.2  88.4326
 41.9896  8005.76  88.3442
 42.0316  7979.7  88.2883
 42.0736  7903.55  87.978
 42.1156  7844.4  87.4836
 42.1576  7933.84  88.0769
 42.1996  7940.87  88.2615
 42.2416  7889.36  87.552
 42.2836  7810.49  87.2324
 42.3256  7762.9  87.0774
 42.3676  7818.01  87.1924
 42.4096  7953.19  87.906
 42.4516  7852.16  87.4361
 42.4936  7702.88  86.6659
 42.5356  7788.08  87.2774
 42.5776  7855.39  87.5932
 42.6196  7907.12  87.9426
 42.6616  7775.34  87.3676
 42.7036  7852.37  87.1866
 42.7456  7843.46  87.4952
 42.7876  7896.19  87.8903
 42.8296  7840.19  87.4022
 42.8716  7704.66  86.809
 42.9136  7799.1  87.1268
 42.9556  7794.47  87.2353
 42.9976  7896.17  87.7646
 43.0396  7828.17  87.1162
 43.0816  7781.72  87.2344
 43.1236  7649.43  86.5495
 43.1656  7779.46  87.1126
 43.2076  7761.21  87.1096
 43.2496  7770.63  86.98
 43.2916  7671.92  86.7901
 43.3336  7855.38  87.6588
 43.3756  7745.01  86.797
 43.4176  7618.43  86.1648
 43.4596  7693.69  86.444
 43.5016  7697.06  86.869
 43.5436  7818.67  87.4528
 43.5856  7674.32  86.6576
 43.6276  7686.61  86.6298
 43.6696  7663.32  86.7511
 43.7116  7653.16  86.1982
 43.7536  7700.68  86.9535
 43.7956  7517.96  87.0953
 43.8376  7726.52  86.8402
 43.8796  7605.44  86.2277
 43.9216  7763.84  87.0364
 43.9636  7507.89  85.6905
 44.0056  7679.96  86.907
 44.0476  7590.04  86.0216
 44.0896  7593.24  86.3883
 44.1316  7715.38  86.6021
 44.1736  7614.96  86.1553
 44.2156  7663.16  86.2874
 44.2576  7509.12  85.74
 44.2996  7677  86.669
 44.3416  7615.3  86.0658
 44.3836  7377.4  85.0316
 44.4256  7383.99  84.722
 44.4676  7360.1  84.7462
 44.5096  7457.26  85.4384
 44.5516  7402.18  85.0941
 44.5936  7467.93  85.425
 44.6356  7599.15  85.91
 44.6776  7390.83  85.0448
 44.7196  7478.01  85.8393
 44.7616  7446.14  86.9843
 44.8036  7407.51  85.1784
 44.8456  7446.71  85.6162
 44.8876  7386.88  85.1206
 44.9296  7543.11  85.467
 44.9716  7411.21  85.1438
 45.0136  7420.91  85.131
 45.0556  7470.64  85.3956
 45.0976  7472.03  85.568
 45.1396  7306.34  84.3804
 45.1816  7418.45  84.9491
 45.2236  7411.89  84.818
 45.2656  7399.66  85.2422
 45.3076  7426.06  85.1877
 45.3496  7261.34  84.5304
 45.3916  7368.55  85.4181
 45.4336  7371  85.2866
 45.4756  7180.7  84.0298
 45.5176  7358.27  84.6878
 45.5596  7542  85.8534
 45.6016  7334.52  85.0815
 45.6436  7316.09  84.1645
 45.6856  7367  85.1017
 45.7276  7255.6  85.7783
 45.7696  7368.6  86.1071
 45.8116  7284.74  85.082
 45.8536  7215.11  84.5653
 45.8956  7360.43  84.7653
 45.9376  7307.87  83.9314
 45.9796  7233.72  84.1713
 46.0216  7260.94  84.6765
 46.0636  7435.35  84.8261
 46.1056  7396.52  84.5963
 46.1476  7287.65  84.5607
 46.1896  7221.8  84.3271
 46.2316  7221.1  84.1913
 46.2736  7148.83  84.1265
 46.3156  7197.44  84.0096
 46.3576  7252.11  84.53
 46.3996  7256.58  84.712
 46.4416  7364.65  84.9134
 46.4836  7244.44  84.5752
 46.5256  7287.39  84.7623
 46.5676  7280.17  84.8374
 46.6096  7235.5  84.5083
 46.6516  7285.5  83.8496
 46.6936  7342.85  84.6679
 46.7356  7302.42  84.5439
 46.7776  7205.21  84.8013
 46.8196  7105.67  83.8228
 46.8616  7049.25  83.4232
 46.9036  7106.72  83.4294
 46.9456  7058.94  82.7908
 46.9876  7160.63  83.4758
 47.0296  7157.08  84.1218
 47.0716  6947.36  82.7185
 47.1136  7203.89  83.9154
 47.1556  7113.25  83.2547
 47.1976  7136.17  83.4654
 47.2396  7019.04  83.1716
 47.2816  7105.9  83.3885
 47.3236  7033.41  83.3275
 47.3656  7154.53  83.9738
 47.4076  7063.25  83.2275
 47.4496  7082.75  83.4443
 47.4916  7051.12  83.4383
 47.5336  7177.06  84.0059
 47.5756  7114.12  83.7574
 47.6176  6942.2  82.6279
 47.6596  6979.28  82.5726
 47.7016  7172.54  83.518
 47.7436  7173.63  83.8729
 47.7856  7052.17  83.1876
 47.8276  7130.05  83.6883
 47.8696  7002.44  83.0083
 47.9116  7013.33  82.8005
 47.9536  6994.6  82.6292
 47.9956  6887.5  82.6891
 48.0376  6962.23  82.9234
 48.0796  7081.33  83.7487
 48.1216  7171.21  84.1003
 48.1636  7184.77  83.7558
 48.2056  7045.81  83.2028
 48.2476  7075.57  83.68
 48.2896  7059.22  83.4962
 48.3316  7024.9  83.2294
 48.3736  7002.37  83.1185
 48.4156  6927.55  82.5325
 48.4576  6956.27  82.9954
 48.4996  7083.52  83.2165
 48.5416  7011.47  83.1101
 48.5836  7079.44  83.1927
 48.6256  6931.28  82.5151
 48.6676  6961.27  83.2005
 48.7096  7021.21  82.8268
 48.7516  6911.81  82.3315
 48.7936  6867.73  82.1314
 48.8356  6995.12  82.934
 48.8776  6924.71  83.0882
 48.9196  7033.28  83.1076
 48.9616  6810.04  82.1526
 49.0036  6973.83  83.4737
 49.0456  6903.16  83.0228
 49.0876  6960.45  82.9102
 49.1296  6794.25  82.0812
 49.1716  6798.59  81.985
 49.2136  7008.63  83.1737
 49.2556  6892.73  82.507
 49.2976  6935.91  82.8279
 49.3396  6851.39  82.3866
 49.3816  6999.46  82.7095
 49.4236  6810.7  81.9944
 49.4656  6750.36  81.6415
 49.5076  6885.18  82.2111
 49.5496  6860.63  82.1317
 49.5916  6852.83  81.9979
 49.6336  6821  81.9967
 49.6756  6958.31  83.0546
 49.7176  6759.65  81.806
 49.7596  6851.24  82.1227
 49.8016  6925.22  82.4945
 49.8436  6808.03  82.08
 49.8856  6827.31  82.2109
 49.9276  6752.84  81.8601
 49.9696  6731.21  81.7112
 50.0116  6723.36  81.7956
 50.0536  6819.54  82.3202
 50.0956  6824.84  82.4253
 50.1376  6798.49  81.9661
 50.1796  6739.23  81.873
 50.2216  6662.15  81.4039
 50.2636  6667.7  81.0589
 50.3056  6637.04  81.0484
 50.3476  6718.78  81.5625
 50.3896  6642.17  81.0679
 50.4316  6761.11  81.6286
 50.4736  6633.92  81.0715
 50.5156  6766.92  81.8649
 50.5576  6747.56  81.5173
 50.5996  6699.98  81.5018
 50.6416  6653.26  81.1496
 50.6836  6725.11  81.6497
 50.7256  6767.36  81.823
 50.7676  6725.42  81.8892
 50.8096  6681.51  81.1646
 50.8516  6590.7  81.0205
 50.8936  6627.2  81.0221
 50.9356  6701.14  81.5792
 50.9776  6667.49  81.5148
 51.0196  6635.87  81.4592
 51.0616  6647.07  80.8679
 51.1036  6687.68  81.4578
 51.1456  6695.27  81.4256
 51.1876  6671.73  80.6209
 51.2296  6630.7  81.0066
 51.2716  6583.52  80.4147
 51.3136  6569.42  80.7905
 51.3556  6583.21  80.4967
 51.3976  6607.69  80.8029
 51.4396  6373.05  79.6533
 51.4816  6526.21  80.4536
 51.5236  6501.75  80.3941
 51.5656  6432.23  79.5742
 51.6076  6535.29  80.2965
 51.6496  6550.4  80.5634
 51.6916  6533.49  80.8244
 51.7336  6600.73  81.3169
 51.7756  6550.81  80.7194
 51.8176  6543.83  80.7772
 51.8596  6421.31  80.0333
 51.9016  6712.41  81.4373
 51.9436  6515.51  81.6724
 51.9856  6352.57  81.0633
 52.0276  6539.51  80.7679
 52.0696  6518.03  80.7052
 52.1116  6479.83  80.5698
 52.1536  6559.52  80.9649
 52.1956  6544.72  80.3341
 52.2376  6499.65  80.2286
 52.2796  6406.54  79.4745
 52.3216  6360.07  79.8511
 52.3636  6469.92  80.1271
 52.4056  6518.58  80.2876
 52.4476  6496.08  80.5082
 52.4896  6375.21  79.8087
 52.5316  6390.12  79.9505
 52.5736  6511.83  80.4271
 52.6156  6334.3  79.7014
 52.6576  6545.13  80.4563
 52.6996  6221.2  79.3915
 52.7416  6410.28  80.4334
 52.7836  6548.24  81.1856
 52.8256  6528.57  80.2855
 52.8676  6294.22  79.4029
 52.9096  6404.29  80.1784
 52.9516  6441.17  80.7878
 52.9936  6346.31  80.5803
 53.0356  6148.84  78.3545
 53.0776  6265.49  79.3511
 53.1196  6260.6  79.4422
 53.1616  6255.93  79.461
 53.2036  6315.59  79.7943
 53.2456  6268.71  79.596
 53.2876  6244  79.1491
 53.3296  6215.29  79.2881
 53.3716  6288.64  79.5019
 53.4136  6302.99  79.7442
 53.4556  6262.55  79.5157
 53.4976  6181.04  78.8484
 53.5396  6307.19  80.0403
 53.5816  6177.44  78.8515
 53.6236  6072.62  78.5089
 53.6656  6304.09  79.6282
 53.7076  6379.02  80.0556
 53.7496  6199.29  79.0379
 53.7916  6219.45  79.2878
 53.8336  6289.92  79.6397
 53.8756  6169.5  79.4112
 53.9176  6283.16  79.4981
 53.9596  6305.95  80.3892
 54.0016  6239.46  79.3085
 54.0436  6188.53  79.1865
 54.0856  6328.81  79.5113
 54.1276  6270.96  79.3459
 54.1696  6208.65  79.1216
 54.2116  6234.35  79.044
 54.2536  6225.01  78.8072
 54.2956  6210.49  78.7601
 54.3376  6295.86  79.7723
 54.3796  6271.6  79.5286
 54.4216  6299.92  79.7467
 54.4636  6289.57  79.6458
 54.5056  6270.2  79.3428
 54.5476  6252.7  79.5615
 54.5896  6256.2  79.416
 54.6316  6264.26  79.3292
 54.6736  6173  78.8197
 54.7156  6331.3  79.8438
 54.7576  6149.23  78.6936
 54.7996  6250.11  79.467
 54.8416  6245.3  79.4899
 54.8836  6100.29  78.6725
 54.9256  6217.76  79.1735
 54.9676  6316.66  79.6535
 55.0096  6214.09  79.0813
 55.0516  6227.31  79.3904
 55.0936  6169.73  78.6598
 55.1356  6139.5  78.5139
 55.1776  6137.58  78.7605
 55.2196  6224.77  79.1032
 55.2616  6210.82  79.23
 55.3036  6095.11  78.642
 55.3456  6182.96  79.3487
 55.3876  6232.57  79.416
 55.4296  6231.39  79.3852
 55.4716  6173.78  79.0544
 55.5136  6141.04  78.6085
 55.5556  6170.66  78.8611
 55.5976  6223.15  79.2463
 55.6396  6069.39  78.2153
 55.6816  6156.78  78.6595
 55.7236  6227.74  79.1523
 55.7656  6238.74  78.9802
 55.8076  6247.78  79.0198
 55.8496  6193.48  78.9907
 55.8916  6132.64  78.8097
 55.9336  6129.11  78.6011
 55.9756  6145.49  78.6014
 56.0176  6090.9  78.3989
 56.0596  6078.84  78.2985
 56.1016  6133.01  78.6587
 56.1436  5977.26  77.9099
 56.1856  6215.27  79.1845
 56.2276  6167.15  78.9411
 56.2696  6194.6  79.0916
 56.3116  6073.03  78.7088
 56.3536  6131.3  78.7387
 56.3956  6060.91  78.284
 56.4376  6060.2  78.3093
 56.4796  6182.06  78.8993
 56.5216  6121.6  78.88
 56.5636  6200.12  78.9768
 56.6056  6098.09  78.5539
 56.6476  6153.31  78.5378
 56.6896  6074.25  78.4786
 56.7316  6093.3  78.5089
 56.7736  6217.15  79.2995
 56.8156  6108.56  78.6019
 56.8576  6128.6  78.6743
 56.8996  6120.99  78.5647
 56.9416  6137.67  78.9769
 56.9836  6047.1  77.9056
 57.0256  5998.8  77.9095
 57.0676  6075.6  78.5243
 57.1096  6216.38  79.2225
 57.1516  6186.92  79.0912
 57.1936  6065.19  78.0642
 57.2356  6140.82  78.8684
 57.2776  6128.65  78.7399
 57.3196  6147.84  79.2403
 57.3616  6110.22  78.4909
 57.4036  6125.52  78.6507
 57.4456  6168.22  78.8898
 57.4876  6143.74  78.5975
 57.5296  6013.23  78.0834
 57.5716  6031.05  78.1978
 57.6136  6104.59  78.4898
 57.6556  6088.01  78.5215
 57.6976  6143.94  78.706
 57.7396  6000.61  78.1529
 57.7816  6008.95  78.5599
 57.8236  5936.42  77.8817
 57.8656  6165.16  79.0237
 57.9076  6042.56  78.2596
 57.9496  6038.46  78.5839
 57.9916  6051.24  78.1865
 58.0336  6058.37  78.5061
 58.0756  6066.75  78.2015
 58.1176  6056.27  78.1247
 58.1596  6029.69  78.5207
 58.2016  6136.93  78.4267
 58.2436  6077.47  78.4613
 58.2856  6123.45  78.6728
 58.3276  6067.27  78.6892
 58.3696  6013.97  78.0985
 58.4116  6121.6  78.651
 58.4536  6066.64  78.1914
 58.4956  5970.28  77.7436
 58.5376  6238.25  79.0343
 58.5796  6065.37  78.3474
 58.6216  6096.78  78.3714
 58.6636  6105.62  78.6344
 58.7056  6183.31  78.9978
 58.7476  5992.11  78.2094
 58.7896  6091.25  78.4961
 58.8316  6074.16  78.3881
 58.8736  6105.95  78.5909
 58.9156  6069.35  78.4105
 58.9576  6193.26  79.5116
 58.9996  6246.92  79.1068
 59.0416  6303.27  79.8245
 59.0836  6122.82  78.5939
 59.1256  6000.26  78.5059
 59.1676  6024.07  78.96
 59.2096  6138.13  78.999
 59.2516  6292.64  79.5595
 59.2936  6179.96  79.1758
 59.3356  6067.95  78.3325
 59.3776  6198.15  79.3396
 59.4196  6106.39  78.6852
 59.4616  6037.81  78.1026
 59.5036  6032.81  78.1058
 59.5456  6422.37  80.2719
 59.5876  6196.82  79.0432
 59.6296  6056.31  78.2112
 59.6716  6136.2  78.7838
 59.7136  6138.04  78.7838
 59.7556  6161.94  79.0748
 59.7976  6110.58  78.4853
 59.8396  6179.82  78.8218
 59.8816  6081.73  78.7383
 59.9236  6153.9  78.8471
 59.9656  5980.98  77.99
 60.0076  6130.66  78.3133
 60.0496  6082.5  78.5105
 60.0916  6213  78.7584
 60.1336  6160.15  79.5407
 60.1756  6018.68  79.8039
 60.1996  0.0000000E+00  0.0000000E+00