File: docs/examples/opeando_xrd/IS17_D/Data/IS17_D/17_Da_f00018.xye
# /beamlines/bl04/projects/cycle2025-II/20250340211-lsimonelli/DATA/IS17_D/17_Da_f00018.xye : mythproc.py merge -s 0.006 -l 0.5 -f /beamlines/bl04/inhouse/ff/FlatField/ff_20Nov2024rod8mm60s_17keV.raw -b True -c true -o xye /beamlines/bl04/projects/cycle2025-II/20250340211-lsimonelli/DATA/IS17_D/17_Da_00018.dat
# IsMon = [6741046, 6739458, 6743510]  IsPos = [-1.5000, -2.4885, -3.4986]
# Wave = 0.4962  CalPath /beamlines/bl04/projects/cycle2025-II/20250340211-lsimonelli/DATA/Align/Si_Pos1_25keV_f00001.cal
# Date = 2025-09-23_22:35:27 Dt = 4.8000  Bin = 0.0060  <imon> = 6741338 +/- 1667 (Min/Max) 6739458 / 6743510
# icurr 248.8594  mocoIn 1.6984E-05  mocoOut 0.7971  i15 7.05697e+06  imon 6.74134e+06  i7 6.3333  iEMpd_timer 4.8000  iEMpd_1 3.5937E-08  iEMpd_2 7.7250E-08  iEMpd_3 1.7067E-08  iEMpd_4 4.7330E-08  iEMhp_timer 4.8000  iEMhp_1 4.8642E-06  iEMhp_2 -2.4782E-08  iEMhp_3 -2.3141E-08  iEMhp_4 -2.1009E-08
#      9776
 1.5856  37478.8  198.795
 1.6276  44399.4  212.659
 1.6696  51071.3  227.274
 1.7116  59806.6  246.425
 1.7536  69527.4  264.566
 1.7956  73700.6  273.07
 1.8376  70141.9  266.819
 1.8796  58412.6  241.703
 1.9216  46981.3  217.626
 1.9636  39909.9  200.264
 2.0056  35153.7  186.751
 2.0476  32510.6  181.562
 2.0896  31522.1  177.732
 2.1316  30546.6  174.12
 2.1736  29048.1  171.142
 2.2156  29284.1  170.457
 2.2576  28319  168.225
 2.2996  27071.8  165.083
 2.3416  27394.3  164.739
 2.3836  27056.9  163.821
 2.4256  26440.7  162.472
 2.4676  26180.3  161.441
 2.5096  26887.9  163.662
 2.5516  36196.3  194.227
 2.5936  163242  404.282
 2.6356  31003.9  176.938
 2.6776  25413.4  159.111
 2.7196  24555.3  156.897
 2.7616  23996  154.886
 2.8036  23517.8  153.499
 2.8456  23514.4  154.077
 2.8876  23232.9  153.01
 2.9296  22629.9  151.155
 2.9716  22490.6  150.205
 3.0136  22263.5  149.508
 3.0556  22388.6  150.307
 3.0976  22225.8  148.739
 3.1396  22072.3  148.905
 3.1816  21812.8  147.972
 3.2236  21631.6  147.353
 3.2656  21746.4  146.825
 3.3076  21412.8  147.078
 3.3496  21802.6  147.63
 3.3916  22185.1  148.513
 3.4336  22602.6  150.46
 3.4756  23157.9  152.224
 3.5176  23913.5  154.496
 3.5596  23855.7  157.182
 3.6016  23885.4  154.442
 3.6436  23039.3  152.746
 3.6856  22658  149.833
 3.7276  21658.5  147.54
 3.7696  21608.3  147.351
 3.8116  21055.7  145.54
 3.8536  21348.7  146.484
 3.8956  21332.4  146.264
 3.9376  22078.1  149.076
 3.9796  21174.9  145.495
 4.0216  21397.7  145.333
 4.0636  21307.5  146.444
 4.1056  21300.6  146.076
 4.1476  21476.4  146.978
 4.1896  21670.1  147.501
 4.2316  21782.7  147.714
 4.2736  22212.3  148.965
 4.3156  22592.2  150.451
 4.3576  23199.8  152.396
 4.3996  23470  153.335
 4.4416  24231.2  155.591
 4.4836  25532.5  159.873
 4.5256  25344.3  159.875
 4.5676  25140.6  159.481
 4.6096  25307.3  159.057
 4.6516  26313.8  161.545
 4.6936  26152.8  161.834
 4.7356  27164  164.774
 4.7776  26302.3  161.974
 4.8196  25778.3  160.981
 4.8616  25258.6  158.979
 4.9036  25135  158.214
 4.9456  25551.4  160.159
 4.9876  24806.2  157.706
 5.0296  24658.2  157.05
 5.0716  24563.8  157.368
 5.1136  24770.4  157.89
 5.1556  25165.9  158.625
 5.1976  35807.6  189.198
 5.2396  26186.5  161.505
 5.2816  25474.3  159.736
 5.3236  25408  159.246
 5.3656  25141.9  159.306
 5.4076  24740.7  158.173
 5.4496  24853.8  158.039
 5.4916  24824.2  157.71
 5.5336  24961.4  158.153
 5.5756  24701.9  157.355
 5.6176  25021.1  157.821
 5.6596  25164.1  159.071
 5.7016  25174.2  158.539
 5.7436  25431.3  159.611
 5.7856  25133.3  158.729
 5.8276  25447.2  159.451
 5.8696  25587.4  159.947
 5.9116  25589.5  160.611
 5.9536  25739.7  160.873
 5.9956  26060.8  161.265
 6.0376  26247.1  162.453
 6.0796  26360.3  162.637
 6.1216  26481  163.209
 6.1636  26766.9  163.176
 6.2056  26725.8  163.697
 6.2476  26951.4  164.086
 6.2896  27237.7  164.826
 6.3316  27008.6  164.298
 6.3736  27025.2  164.247
 6.4156  27193.3  164.711
 6.4576  27421.2  164.962
 6.4996  27798.3  166.561
 6.5416  27664.1  166.289
 6.5836  28399.4  168.713
 6.6256  27903.1  166.808
 6.6676  28510.1  168.191
 6.7096  28050  167.651
 6.7516  28529.8  168.746
 6.7936  29775.7  171.572
 6.8356  30631.4  174.355
 6.8776  29764.7  172.66
 6.9196  29201.7  171.408
 6.9616  29712.8  172.332
 7.0036  29981.1  172.798
 7.0456  30330.5  173.111
 7.0876  29962.8  173.621
 7.1296  30043.1  173.092
 7.1716  29966.8  172.412
 7.2136  29415.2  170.62
 7.2556  29855.3  172.048
 7.2976  29836.3  172.473
 7.3396  29717.6  172.345
 7.3816  29916.7  173.125
 7.4236  29916.9  172.437
 7.4656  30227.9  172.831
 7.5076  30539.5  173.851
 7.5496  30364.6  173.869
 7.5916  30303.4  173.732
 7.6336  31169.6  176.096
 7.6756  30681.2  174.566
 7.7176  31027.2  175.845
 7.7596  31107.5  177.28
 7.8016  38228.9  198.878
 7.8436  32472.8  180.024
 7.8856  32338.2  179.274
 7.9276  32974.3  181.403
 7.9696  33300.2  182.611
 8.0116  34196.5  183.971
 8.0536  34798.5  185.479
 8.0956  37580.3  193.961
 8.1376  35126  186.995
 8.1796  34938.2  187.037
 8.2216  35944  188.458
 8.2636  36881.7  191.146
 8.3056  36310.6  190.414
 8.3476  38349.7  195.019
 8.3896  37393.7  193.087
 8.4316  36270.9  189.9
 8.4736  36524  190.037
 8.5156  36136.5  189.296
 8.5576  36020.4  189.963
 8.5996  35741.1  188.107
 8.6416  35514.1  188.746
 8.6836  35302.9  188.004
 8.7256  36580.3  190.84
 8.7676  39176  200.47
 8.8096  38954.5  197.13
 8.8516  35887.2  188.882
 8.8936  37735.9  193.502
 8.9356  35130.4  187.067
 8.9776  34990.3  186.783
 9.0196  34852.1  186.094
 9.0616  35628.8  187.629
 9.1036  37642.5  194.081
 9.1456  35058.7  186.657
 9.1876  34510.7  185.145
 9.2296  34329.5  184.076
 9.2716  33405.6  181.648
 9.3136  33272  181.26
 9.3556  33609.7  182.168
 9.3976  32174.4  178.744
 9.4396  32927.8  180.726
 9.4816  32374.9  179.065
 9.5236  32420.5  179.1
 9.5656  31920.5  178.026
 9.6076  31975.2  178.684
 9.6496  31804.6  178.142
 9.6916  31696.8  177.808
 9.7336  31838.1  177.994
 9.7756  31728  178.868
 9.8176  30933.9  176.192
 9.8596  30937.1  174.7
 9.9016  30464.8  173.355
 9.9436  30867.9  174.254
 9.9856  31115.6  175.336
 10.0276  29763  172.548
 10.0696  30212.5  172.915
 10.1116  29615.6  171.452
 10.1536  28892.2  169.024
 10.1956  28609  168.287
 10.2376  28325.1  166.97
 10.2796  28256.5  166.892
 10.3216  28210.4  166.884
 10.3636  28368.7  167.513
 10.4056  32529.3  179.8
 10.4476  32807.1  180.165
 10.4896  38190.6  193.763
 10.5316  33550.1  182.004
 10.5736  28367.1  168.1
 10.6156  27550.1  165.427
 10.6576  34540.3  183.661
 10.6996  27963.3  165.907
 10.7416  27029.6  163.359
 10.7836  28484.9  168.383
 10.8256  26282.9  162.157
 10.8676  26307.1  161.786
 10.9096  26321.8  161.858
 10.9516  25918.8  159.577
 10.9936  27018.1  163.117
 11.0356  26609  162.512
 11.0776  28309.6  166.913
 11.1196  27979  166.708
 11.1616  25679.4  159.411
 11.2036  27186.4  163.866
 11.2456  28743.6  169.241
 11.2876  24976  157.487
 11.3296  25386.4  158.674
 11.3716  25707.2  159.401
 11.4136  24837.2  157.523
 11.4556  25196.9  158.329
 11.4976  27001.6  162.866
 11.5396  27333.6  164.038
 11.5816  25277.2  158.182
 11.6236  24578.8  156.416
 11.6656  24389  154.789
 11.7076  23799.8  153.715
 11.7496  24267.6  159.068
 11.7916  24696.9  155.856
 11.8336  23644.4  153.383
 11.8756  24179.4  154.626
 11.9176  23597.4  152.666
 11.9596  23247.3  151.464
 12.0016  23182.9  152.026
 12.0436  23180.9  151.465
 12.0856  22921.8  151.12
 12.1276  23001.8  151.299
 12.1696  22930.9  150.23
 12.2116  23627.4  152.489
 12.2536  26516.4  162.383
 12.2956  23721.3  152.955
 12.3376  23205.7  151.49
 12.3796  23015.5  151.313
 12.4216  23144  150.974
 12.4636  24538.6  156.377
 12.5056  22778.1  149.959
 12.5476  22966.4  150.119
 12.5896  22621.4  149.589
 12.6316  22340  148.819
 12.6736  22695  150.31
 12.7156  22746.1  150.497
 12.7576  22623.8  150.325
 12.7996  22974.5  150.169
 12.8416  23232.4  152.044
 12.8836  24064.9  154.557
 12.9256  23480.1  151.713
 12.9676  23534.4  152.31
 13.0096  22888.3  151.265
 13.0516  23206.8  151.381
 13.0936  23167.9  151.369
 13.1356  23374.1  151.327
 13.1776  23348.9  152.211
 13.2196  23156.6  151.249
 13.2616  23098.3  151.36
 13.3036  23005.9  151.188
 13.3456  22925.7  150.907
 13.3876  23481.5  152.236
 13.4296  23347.7  151.947
 13.4716  23486.2  152.018
 13.5136  23461.9  152.09
 13.5556  23454.7  152.663
 13.5976  23261.3  152.171
 13.6396  23877.8  153.553
 13.6816  23025.7  151.148
 13.7236  24097.6  154.395
 13.7656  23594.3  153.302
 13.8076  24446  154.834
 13.8496  23487  152.537
 13.8916  23229.3  152.493
 13.9336  23043.9  151.139
 13.9756  22849.9  149.86
 14.0176  22858.7  150.556
 14.0596  24119.8  154.617
 14.1016  22764.6  150.601
 14.1436  22177.1  147.808
 14.1856  22186.5  148.12
 14.2276  22347.7  149.135
 14.2696  22663.6  150.027
 14.3116  22042.6  147.861
 14.3536  21288.3  145.485
 14.3956  21348.1  145.429
 14.4376  21553.7  145.906
 14.4796  21469  145.614
 14.5216  21113.9  145.18
 14.5636  21597  146.389
 14.6056  21179.8  144.563
 14.6476  20928.9  142.963
 14.6896  20560.5  142.214
 14.7316  20135.4  141.739
 14.7736  20118.7  140.849
 14.8156  20018.3  140.53
 14.8576  19877.9  139.895
 14.8996  19918.5  141.22
 14.9416  19358.6  139.224
 14.9836  19461.9  139.547
 15.0256  19255.6  137.766
 15.0676  19085.7  137.462
 15.1096  18961.5  136.761
 15.1516  18552.7  135.823
 15.1936  18725.1  135.891
 15.2356  18724.8  136.162
 15.2776  18660  135.518
 15.3196  18283.4  135.125
 15.3616  18317.8  135.006
 15.4036  17936  133.453
 15.4456  18472.7  134.867
 15.4876  17963.2  132.91
 15.5296  17802.3  132.6
 15.5716  17620.2  131.522
 15.6136  17489.6  131.343
 15.6556  20083.2  139.962
 15.6976  18262.2  133.542
 15.7396  17827.5  132.54
 15.7816  17641.6  131.365
 15.8236  17239.3  130.539
 15.8656  16991.9  129.402
 15.9076  17115  129.701
 15.9496  17570.6  134.194
 15.9916  16800.6  131.651
 16.0336  16513.5  127.488
 16.0756  16823  128.982
 16.1176  16455  127.476
 16.1596  16088.7  127.346
 16.2016  16283.5  126.886
 16.2436  15814.5  125.417
 16.2856  16102.2  126.115
 16.3276  15456  123.96
 16.3696  15830.1  125.276
 16.4116  15493.7  124.388
 16.4536  15838.9  125.546
 16.4956  16641.7  128.434
 16.5376  16137  126.651
 16.5796  15882.3  125.017
 16.6216  15695.8  124.582
 16.6636  15848.9  125.336
 16.7056  15566.2  124.084
 16.7476  15542.5  123.676
 16.7896  15632.7  124.624
 16.8316  15399  123.654
 16.8736  15910.8  125.949
 16.9156  15925.7  126.339
 16.9576  15338.3  124.778
 16.9996  15625.7  126.419
 17.0416  15356.7  123.73
 17.0836  15130  122.579
 17.1256  15147.4  122.663
 17.1676  15548.7  124.26
 17.2096  15446.8  123.741
 17.2516  15273.9  123.116
 17.2936  14729.3  120.939
 17.3356  14559.6  120.245
 17.3776  14421.7  119.854
 17.4196  14631.3  120.428
 17.4616  14903.4  121.461
 17.5036  15490.7  124.198
 17.5456  14351.6  120.167
 17.5876  14317.2  119.097
 17.6296  14373.8  119.138
 17.6716  14644.4  120.835
 17.7136  15236.4  123.392
 17.7556  14506.9  120.694
 17.7976  14612.4  120.746
 17.8396  14384.1  119.434
 17.8816  14108.4  118.811
 17.9236  13931  117.882
 17.9656  14269.6  119.985
 18.0076  14946.6  122.204
 18.0496  15791.8  124.722
 18.0916  21179.4  145.083
 18.1336  18368.4  135.229
 18.1756  15593.3  124.106
 18.2176  16633.6  128.419
 18.2596  14294  118.793
 18.3016  15143.9  122.532
 18.3436  15678  124.925
 18.3856  14425.7  119.727
 18.4276  14201.6  118.468
 18.4696  14487.2  119.75
 18.5116  14395.2  119.658
 18.5536  14032  118.488
 18.5956  14334.7  119.32
 18.6376  14447.9  120.201
 18.6796  13882.6  117.158
 18.7216  14198.5  119.039
 18.7636  13773.2  117.156
 18.8056  13434  115.649
 18.8476  13254.2  115.185
 18.8896  13388.2  115.414
 18.9316  13600.2  116.15
 18.9736  13462  115.422
 19.0156  14283.6  119.273
 19.0576  14017.1  117.052
 19.0996  13547.4  115.769
 19.1416  13454.3  115.751
 19.1836  13320.5  114.788
 19.2256  13131.3  114.179
 19.2676  13230.2  114.692
 19.3096  13284.6  115.172
 19.3516  13199  114.588
 19.3936  13471.1  115.901
 19.4356  13349.5  115.184
 19.4776  13398.2  115.494
 19.5196  13256.5  114.728
 19.5616  13257  114.987
 19.6036  13259.1  114.364
 19.6456  13528.8  115.786
 19.6876  13889.4  116.963
 19.7296  13321.5  114.993
 19.7716  13109.1  114.086
 19.8136  13372.2  115.575
 19.8556  13695.1  116.447
 19.8976  13874.8  117.273
 19.9396  13696.8  116.105
 19.9816  14064.1  117.887
 20.0236  14589.7  120.292
 20.0656  13625.6  116.246
 20.1076  13251.8  115.088
 20.1496  13110.6  114.478
 20.1916  13324.3  114.896
 20.2336  13196.5  114.322
 20.2756  12892.7  113.407
 20.3176  12775.9  112.649
 20.3596  12891.8  113.139
 20.4016  12929.2  113.11
 20.4436  12897.6  113.524
 20.4856  12660  112.26
 20.5276  12745.3  113.087
 20.5696  12742.9  112.647
 20.6116  12837.1  113.234
 20.6536  12575.4  111.649
 20.6956  12641.8  112.015
 20.7376  12716.7  112.569
 20.7796  12569.3  111.605
 20.8216  12886.9  112.722
 20.8636  12950.5  113.365
 20.9056  14399.8  119.488
 20.9476  12965.2  113.219
 20.9896  13881  117.012
 21.0316  12966.4  112.989
 21.0736  13025.8  113.769
 21.1156  13388.9  115.504
 21.1576  12845.1  113.184
 21.1996  12480.7  111.543
 21.2416  12378.5  110.925
 21.2836  12750.6  112.539
 21.3256  12462.4  111.347
 21.3676  12640.2  111.694
 21.4096  12980.2  113.553
 21.4516  12437  110.975
 21.4936  12399.8  111.045
 21.5356  12448.3  111.222
 21.5776  12509.5  111.326
 21.6196  12638  111.94
 21.6616  12622.7  111.955
 21.7036  12297.7  110.284
 21.7456  12318.9  110.46
 21.7876  12069.8  109.094
 21.8296  12172  109.416
 21.8716  12110.8  109.366
 21.9136  12451.4  111.09
 21.9556  12573.8  111.308
 21.9976  12396.5  110.534
 22.0396  12225.7  110.023
 22.0816  12316.2  110.953
 22.1236  12608.4  111.725
 22.1656  12280.4  110.437
 22.2076  12282.2  109.873
 22.2496  12221.3  109.635
 22.2916  12363  110.144
 22.3336  12334.6  110.72
 22.3756  12133.5  109.56
 22.4176  12133.6  109.417
 22.4596  12051.3  109.614
 22.5016  12343.7  110.437
 22.5436  12212  109.729
 22.5856  12290  110.326
 22.6276  12080.5  109.526
 22.6696  12051.9  109.732
 22.7116  12003.4  109.043
 22.7536  12127  109.573
 22.7956  12158.5  109.058
 22.8376  12155.7  109.553
 22.8796  12071.1  108.982
 22.9216  12075.8  109.533
 22.9636  12088.1  108.763
 23.0056  12009  108.536
 23.0476  12308  110.436
 23.0896  12413  110.299
 23.1316  12396.9  110.654
 23.1736  12107.6  112.249
 23.2156  12010.8  109.151
 23.2576  12138.4  109.939
 23.2996  11973  108.977
 23.3416  12035.7  109.77
 23.3836  12163.6  109.576
 23.4256  11993.6  108.95
 23.4676  12163.5  109.416
 23.5096  12040.7  109.524
 23.5516  12113.9  109.154
 23.5936  12153.5  110.207
 23.6356  12306.2  110.58
 23.6776  12005.9  109.752
 23.7196  11850.1  108.514
 23.7616  12058.6  109.173
 23.8036  12002.6  108.964
 23.8456  11901.5  108.081
 23.8876  11748.4  107.726
 23.9296  11815  108.513
 23.9716  11860.5  107.935
 24.0136  11853.7  108.778
 24.0556  11809.5  108.309
 24.0976  11765.6  107.923
 24.1396  11532.7  109.428
 24.1816  11699.9  109.005
 24.2236  11646.7  108.057
 24.2656  11692.9  107.752
 24.3076  11557.6  107.367
 24.3496  11838.3  108.562
 24.3916  11737.4  108.144
 24.4336  11592  107.678
 24.4756  11593.1  107.555
 24.5176  11244.4  105.582
 24.5596  11295.7  106.139
 24.6016  11201  105.783
 24.6436  11332.8  105.893
 24.6856  11355  105.774
 24.7276  11565.2  107.067
 24.7696  11418.1  106.492
 24.8116  11413  106.652
 24.8536  11265.3  105.953
 24.8956  11174.1  105.251
 24.9376  11021.2  104.712
 24.9796  11132.5  105.356
 25.0216  11101.4  105.315
 25.0636  11264.3  105.743
 25.1056  11039.9  105.114
 25.1476  10982.8  106.744
 25.1896  11018.6  105.414
 25.2316  11051.6  104.735
 25.2736  10924.6  103.907
 25.3156  10765.1  103.212
 25.3576  10691.6  103.27
 25.3996  10845  103.992
 25.4416  10804.2  103.781
 25.4836  10669.9  103.652
 25.5256  10781.4  103.564
 25.5676  10981.8  104.258
 25.6096  10617.3  103.069
 25.6516  10768  103.31
 25.6936  10747  103.512
 25.7356  10583.2  102.851
 25.7776  10717.5  103.189
 25.8196  10679.8  103.169
 25.8616  10653.1  102.96
 25.9036  10984.8  104.023
 25.9456  10621.8  102.878
 25.9876  10458  102.006
 26.0296  10659.8  102.729
 26.0716  10566.6  102.605
 26.1136  10820.1  103.774
 26.1556  10864.9  103.279
 26.1976  10446.3  102.265
 26.2396  10645.3  102.65
 26.2816  10485.7  102.231
 26.3236  10687  103.281
 26.3656  10571  102.525
 26.4076  10593.1  102.839
 26.4496  10871.4  103.693
 26.4916  10688.7  102.805
 26.5336  10556.2  102.486
 26.5756  10798.2  103.512
 26.6176  10694.8  103.072
 26.6596  10411.3  101.996
 26.7016  10218  100.851
 26.7436  10175.7  100.725
 26.7856  9990.44  99.7904
 26.8276  10076.8  100.178
 26.8696  10229.2  100.814
 26.9116  10170.4  100.463
 26.9536  10156.4  100.437
 26.9956  10161.3  100.496
 27.0376  10064.7  100.225
 27.0796  10243.9  100.892
 27.1216  10194.5  100.68
 27.1636  9994.94  99.8536
 27.2056  10212.2  100.815
 27.2476  10046.2  99.9935
 27.2896  10001.3  99.813
 27.3316  9935.2  99.2676
 27.3736  9900.83  99.3571
 27.4156  9836.57  98.8753
 27.4576  10228.3  101.057
 27.4996  10072.8  99.889
 27.5416  9938.22  99.5307
 27.5836  10130.5  100.307
 27.6256  10277.4  101.203
 27.6676  10075.9  100.224
 27.7096  9894.3  99.1871
 27.7516  10579.4  102.711
 27.7936  10464.2  102.321
 27.8356  10294.7  101.11
 27.8776  10151.1  100.445
 27.9196  10039.4  99.7412
 27.9616  10255.1  100.994
 28.0036  10151.2  100.459
 28.0456  9846.6  99.0716
 28.0876  9897.05  99.4171
 28.1296  9771.51  98.627
 28.1716  9836.7  98.963
 28.2136  9903.68  99.2629
 28.2556  9658.47  98.1369
 28.2976  9626.16  97.9668
 28.3396  9862.83  98.9637
 28.3816  9841.63  98.8406
 28.4236  9980.98  99.693
 28.4656  9623.47  97.9258
 28.5076  9485.3  96.8641
 28.5496  9523.78  97.3173
 28.5916  9532.53  97.1743
 28.6336  9475.46  97.2149
 28.6756  9744.6  97.7971
 28.7176  9564.61  97.4261
 28.7596  9447.52  96.7313
 28.8016  9477.98  97.0024
 28.8436  9401.77  96.7672
 28.8856  9525.8  97.2503
 28.9276  9571.65  97.7279
 28.9696  9474.21  96.8968
 29.0116  9327.25  96.3093
 29.0536  9248.18  96.1068
 29.0956  9442.65  96.8367
 29.1376  9458.07  96.8771
 29.1796  9301.35  96.1168
 29.2216  9351.6  96.2213
 29.2636  9345.14  96.1794
 29.3056  9241.65  95.5227
 29.3476  9358.06  96.6322
 29.3896  9456.67  97.2341
 29.4316  9606.66  97.3529
 29.4736  9424.4  96.4821
 29.5156  9392.62  96.2475
 29.5576  9338.68  96.7012
 29.5996  9285.03  95.6923
 29.6416  9205.15  95.3985
 29.6836  9366.55  96.1564
 29.7256  9197.53  95.8386
 29.7676  9382.78  96.4601
 29.8096  9323.75  96.1036
 29.8516  9110.47  95.3167
 29.8936  9193.2  95.8446
 29.9356  9190.93  95.5936
 29.9776  9274.53  96.18
 30.0196  9392.99  96.1902
 30.0616  9445.84  96.8274
 30.1036  9324.87  96.0367
 30.1456  9107.85  95.1575
 30.1876  9140.97  95.2935
 30.2296  9174.29  95.406
 30.2716  9168.06  95.022
 30.3136  9133.66  95.4227
 30.3556  9231.97  96.2098
 30.3976  9179.95  97.4466
 30.4396  9230.75  95.077
 30.4816  9228.87  94.6693
 30.5236  9161.73  94.3461
 30.5656  9145.68  94.9014
 30.6076  9097.76  94.4277
 30.6496  9218.26  95.0958
 30.6916  9103.76  94.5919
 30.7336  9054.04  94.4839
 30.7756  9170.58  95.3965
 30.8176  9207.55  95.2893
 30.8596  9039.52  94.1868
 30.9016  8975.43  93.73
 30.9436  8999.19  94.0717
 30.9856  9027.81  94.3296
 31.0276  8876.64  93.1469
 31.0696  9046.45  94.4737
 31.1116  9051.66  94.6064
 31.1536  9215.52  95.3467
 31.1956  9065.31  94.6533
 31.2376  8962.8  94.1235
 31.2796  8908.48  93.3886
 31.3216  8886.59  93.2179
 31.3636  8861.61  93.7703
 31.4056  9057.29  96.0945
 31.4476  8864.51  93.0118
 31.4896  8812.29  93.2298
 31.5316  9012.08  93.73
 31.5736  9660.55  96.8182
 31.6156  9575.99  96.411
 31.6576  9241.09  94.8098
 31.6996  9181.13  94.1772
 31.7416  9059.56  94.4643
 31.7836  9044.57  93.5464
 31.8256  8927.02  93.2794
 31.8676  8955.94  93.3531
 31.9096  8758.25  92.5326
 31.9516  8783.53  92.9539
 31.9936  8851.11  93.142
 32.0356  8954.73  93.7478
 32.0776  8989.12  93.8129
 32.1196  8831.58  92.9939
 32.1616  8784.31  92.298
 32.2036  8730.96  92.514
 32.2456  8715.42  92.8076
 32.2876  8827.01  92.7408
 32.3296  8771.75  92.5738
 32.3716  8751.71  92.5755
 32.4136  8784.87  92.9472
 32.4556  8869.72  92.8415
 32.4976  8839.46  92.5784
 32.5396  8743.9  92.107
 32.5816  8748.89  92.1451
 32.6236  8744.41  92.301
 32.6656  8804.04  93.1446
 32.7076  8603.14  91.7376
 32.7496  8644.51  91.6421
 32.7916  8758.04  92.1914
 32.8336  8790.98  92.468
 32.8756  8635.52  91.4547
 32.9176  8676.11  92.064
 32.9596  8704.93  92.2788
 33.0016  8683.75  91.9729
 33.0436  8728.26  92.3721
 33.0856  8497.01  91.205
 33.1276  8569.21  91.3358
 33.1696  8711.95  91.9291
 33.2116  8686.45  92.0297
 33.2536  8706.51  92.1323
 33.2956  8592  91.6058
 33.3376  8504.69  90.9452
 33.3796  8703.93  92.1431
 33.4216  8619.58  91.3021
 33.4636  8646.81  91.5988
 33.5056  8531.66  91.059
 33.5476  8460.1  90.8278
 33.5896  8543.83  91.0283
 33.6316  8418.76  90.6988
 33.6736  8296  90.2574
 33.7156  8363.42  90.6779
 33.7576  8473.22  90.9033
 33.7996  8572.85  91.2081
 33.8416  8334.33  90.114
 33.8836  8530.33  90.9451
 33.9256  8514.21  90.9156
 33.9676  8543.22  90.9717
 34.0096  8243.48  89.6687
 34.0516  8338.78  89.831
 34.0936  8332.5  90.0548
 34.1356  8336.64  89.8129
 34.1776  8380.01  90.0658
 34.2196  8228.12  89.4236
 34.2616  8274.39  89.8691
 34.3036  8316.44  90.2727
 34.3456  8250.08  89.6784
 34.3876  8309.17  90.0533
 34.4296  8382.48  90.0513
 34.4716  8398.16  90.2806
 34.5136  8326.61  90.1034
 34.5556  8281.17  90.1041
 34.5976  8285.54  89.962
 34.6396  8293.57  89.6954
 34.6816  8394.33  90.3444
 34.7236  8376.42  90.0379
 34.7656  8313.28  89.894
 34.8076  8345.95  90.3853
 34.8496  8207.63  89.4939
 34.8916  8182.59  89.2364
 34.9336  8390.43  90.3193
 34.9756  8600.25  91.3638
 35.0176  8366.74  90.6367
 35.0596  8184.83  89.4789
 35.1016  8288.91  89.8167
 35.1436  8284.48  89.4883
 35.1856  8244.82  89.3963
 35.2276  8192.71  89.2867
 35.2696  8250.33  89.7808
 35.3116  8234.97  89.7883
 35.3536  8137.21  89.0077
 35.3956  8242.58  89.2579
 35.4376  8219.82  89.685
 35.4796  8111.55  89.1545
 35.5216  8145.22  89.2195
 35.5636  7946.26  88.9244
 35.6056  8175.4  89.2337
 35.6476  8183.61  89.1639
 35.6896  8177.52  89.3004
 35.7316  8094.72  88.7501
 35.7736  8165.05  89.327
 35.8156  8092.43  88.9244
 35.8576  8124.75  89.3518
 35.8996  8252.46  90.0111
 35.9416  8117.89  88.7902
 35.9836  8137.93  89.3404
 36.0256  8168.73  89.4342
 36.0676  8125.46  88.741
 36.1096  8059.32  88.7327
 36.1516  8213.32  89.4675
 36.1936  8028.89  88.3128
 36.2356  8130.32  89.4978
 36.2776  8073.08  88.6595
 36.3196  8102.49  88.5082
 36.3616  8019.8  88.183
 36.4036  8107.39  88.7166
 36.4456  7922.56  87.9004
 36.4876  7940.97  87.9422
 36.5296  8101.96  88.872
 36.5716  8137.8  89.8467
 36.6136  8425.33  90.1878
 36.6556  8335.37  89.9032
 36.6976  8108.22  89.1663
 36.7396  8102.43  88.9551
 36.7816  8168.75  89.6038
 36.8236  8027.52  88.7487
 36.8656  7932.19  88.295
 36.9076  8034.86  88.8653
 36.9496  7895.27  88.1043
 36.9916  7906.36  87.6527
 37.0336  8113.42  89.1033
 37.0756  8151.12  89.1044
 37.1176  7947.34  88.3361
 37.1596  7929.37  88.1527
 37.2016  7899.4  88.1669
 37.2436  8009.6  88.1443
 37.2856  7869.9  87.6283
 37.3276  8143.94  88.4928
 37.3696  7851.19  87.7597
 37.4116  8014.95  88.5651
 37.4536  7780.88  87.1354
 37.4956  7808.1  87.3338
 37.5376  7848.06  89.0827
 37.5796  7915.15  89.4219
 37.6216  7667.39  86.3084
 37.6636  7811.43  87.0304
 37.7056  7865.76  87.5194
 37.7476  7727.03  86.2904
 37.7896  7825.82  87.3196
 37.8316  7612.56  86.3052
 37.8736  7840.95  87.1167
 37.9156  7763.38  86.6881
 37.9576  7829.07  87.0899
 37.9996  7717.59  86.0325
 38.0416  7729.63  86.9131
 38.0836  7844.39  87.4559
 38.1256  7809.79  87.2133
 38.1676  7889.81  87.806
 38.2096  7949.03  87.7643
 38.2516  7931.27  87.7646
 38.2936  7741.42  86.6142
 38.3356  7964.66  87.7674
 38.3776  7753.63  86.8664
 38.4196  7955.74  87.8444
 38.4616  7704.73  86.6796
 38.5036  7816.15  87.1444
 38.5456  7761.21  87.6762
 38.5876  7694.28  87.3319
 38.6296  7638.72  86.0131
 38.6716  7655.51  85.9014
 38.7136  7508.44  85.0192
 38.7556  7627.27  86.1768
 38.7976  7709.15  86.5847
 38.8396  7694.88  86.9497
 38.8816  7601.7  86.1969
 38.9236  7658.46  86.3414
 38.9656  7538.64  85.5794
 39.0076  7588.04  85.2791
 39.0496  7654.44  86.1785
 39.0916  7834.3  86.8294
 39.1336  7578.26  85.8121
 39.1756  7593.3  85.9609
 39.2176  7730.81  87.2658
 39.2596  7560.88  86.2188
 39.3016  7593.81  85.9941
 39.3436  7428.94  85.4643
 39.3856  7665.98  86.2751
 39.4276  7710.31  87.0119
 39.4696  7596.5  86.0018
 39.5116  7555.71  86.2599
 39.5536  7667.94  87.317
 39.5956  7737.72  86.8318
 39.6376  7696.33  86.4405
 39.6796  7674.85  86.2329
 39.7216  7721.34  86.5782
 39.7636  7636.86  86.6689
 39.8056  7675.53  86.6674
 39.8476  7628.2  86.6515
 39.8896  7594.55  86.0921
 39.9316  7580.7  86.2694
 39.9736  7659.36  86.2923
 40.0156  7724.27  86.4826
 40.0576  7701.41  86.7142
 40.0996  7787.14  86.3791
 40.1416  7818.32  87.3416
 40.1836  7660.91  86.3461
 40.2256  7710.6  86.6768
 40.2676  7597.31  86.2026
 40.3096  7815.24  87.2835
 40.3516  7781.32  87.2859
 40.3936  7721.29  86.4408
 40.4356  7713.11  86.5896
 40.4776  7664.67  86.554
 40.5196  7636.77  86.6813
 40.5616  7766.95  87.0664
 40.6036  7693.16  86.9026
 40.6456  7757.68  86.8724
 40.6876  7841.96  87.3399
 40.7296  7745.6  86.9327
 40.7716  7718.75  86.9085
 40.8136  7629.32  86.3497
 40.8556  7730.97  87.0511
 40.8976  7666.69  86.6117
 40.9396  7607.92  86.6222
 40.9816  7673.55  86.2933
 41.0236  7721.45  86.342
 41.0656  7818.7  87.4243
 41.1076  7789.51  87.0332
 41.1496  7783.48  86.9003
 41.1916  7707.43  86.8069
 41.2336  7730.71  86.9189
 41.2756  7770.99  86.7585
 41.3176  7620.11  86.5146
 41.3596  7727.36  86.846
 41.4016  7711.24  87.0192
 41.4436  7715.51  86.8319
 41.4856  7751.89  87.2007
 41.5276  7594.09  86.3245
 41.5696  7754.04  86.8445
 41.6116  7689.69  86.8914
 41.6536  7673.83  86.6661
 41.6956  7809.21  87.4068
 41.7376  7661.27  86.6764
 41.7796  7592.47  86.2098
 41.8216  7672.03  86.8516
 41.8636  7665.68  86.7554
 41.9056  7569.63  86.0077
 41.9476  7635.23  86.6047
 41.9896  7777.43  87.0792
 42.0316  7716.06  86.8103
 42.0736  7758.76  87.1955
 42.1156  7534.81  85.7404
 42.1576  7657.13  86.5321
 42.1996  7686.03  86.8277
 42.2416  7651.14  86.2225
 42.2836  7523.3  85.6146
 42.3256  7590.7  86.1071
 42.3676  7596.02  85.9417
 42.4096  7749.21  86.7699
 42.4516  7500.58  85.4516
 42.4936  7613.76  86.1625
 42.5356  7608.11  86.2673
 42.5776  7558.1  85.9167
 42.6196  7625.88  86.2754
 42.6616  7529.89  85.9784
 42.7036  7645.79  86.0317
 42.7456  7536.97  85.767
 42.7876  7512.07  85.7227
 42.8296  7659.28  86.4538
 42.8716  7518.93  85.754
 42.9136  7528.94  85.5646
 42.9556  7584.89  86.0542
 42.9976  7644.25  86.356
 43.0396  7482.67  85.1712
 43.0816  7529.83  85.8084
 43.1236  7489.12  85.6381
 43.1656  7551.69  85.827
 43.2076  7542.49  85.8711
 43.2496  7493.09  85.4132
 43.2916  7454.21  85.5499
 43.3336  7519.7  85.765
 43.3756  7502.81  85.4275
 43.4176  7436.46  85.1264
 43.4596  7489.81  85.2915
 43.5016  7488.13  85.6791
 43.5436  7447.14  85.3455
 43.5856  7418.44  85.208
 43.6276  7427.57  85.1549
 43.6696  7394.7  85.1117
 43.7116  7460.8  85.1095
 43.7536  7475.13  85.6667
 43.7956  7309.99  85.8883
 43.8376  7417.01  85.0797
 43.8796  7368.4  84.877
 43.9216  7388.64  84.9085
 43.9636  7412.44  85.1531
 44.0056  7341.12  84.9675
 44.0476  7321.22  84.4911
 44.0896  7207.83  84.1716
 44.1316  7326.33  84.5381
 44.1736  7490.82  85.4579
 44.2156  7373.12  84.6397
 44.2576  7300.65  84.5439
 44.2996  7399.61  85.0927
 44.3416  7384.61  84.7611
 44.3836  7200.42  84.0244
 44.4256  7175.69  83.5249
 44.4676  7194.6  83.7896
 44.5096  7308.34  84.5922
 44.5516  7195.81  83.9078
 44.5936  7251.94  84.1855
 44.6356  7208.11  83.6731
 44.6776  7228.08  84.1037
 44.7196  7294.16  84.7466
 44.7616  7248.66  85.8265
 44.8036  7090.94  83.5455
 44.8456  7259.85  84.5338
 44.8876  7206.99  84.0797
 44.9296  7349.06  84.3664
 44.9716  7137.28  83.5645
 45.0136  7274.22  84.293
 45.0556  7049.16  83.0596
 45.0976  7137.94  83.6284
 45.1396  7222.62  83.8868
 45.1816  7248.88  83.8119
 45.2236  7176.19  83.4598
 45.2656  7200.38  84.0915
 45.3076  7002.52  82.7206
 45.3496  7109.17  83.6448
 45.3916  7116.93  83.9525
 45.4336  7140.22  83.936
 45.4756  7006.42  83.0094
 45.5176  7043.63  82.8572
 45.5596  7091.37  83.256
 45.6016  7028.6  83.2911
 45.6436  7117.45  83.0133
 45.6856  7027.47  83.1184
 45.7276  7090.33  85.2917
 45.7696  7026.29  84.0877
 45.8116  7122.96  84.1228
 45.8536  6992.64  83.2443
 45.8956  7167.86  83.6423
 45.9376  7093.9  82.6869
 45.9796  7100.1  83.3944
 46.0216  7027.01  83.2995
 46.0636  7161.69  83.2448
 46.1056  7082.91  82.7781
 46.1476  7098.33  83.4483
 46.1896  7152.47  83.9137
 46.2316  7019  83.0004
 46.2736  7009.63  83.148
 46.3156  6990.48  82.786
 46.3576  7048.98  83.3288
 46.3996  6991.79  83.1485
 46.4416  7119.95  83.4632
 46.4836  7053.34  83.4483
 46.5256  7031.2  83.25
 46.5676  7028.16  83.3481
 46.6096  7173.89  84.1419
 46.6516  7102.17  82.7838
 46.6936  7115.32  83.3442
 46.7356  7155.86  83.6742
 46.7776  6946.82  83.2685
 46.8196  6874.3  82.5871
 46.8616  6800.76  81.9411
 46.9036  6779.93  81.4898
 46.9456  6914.98  81.9409
 46.9876  6846.79  81.624
 47.0296  6880.35  82.4846
 47.0716  6828.39  82.0077
 47.1136  6932.42  82.3151
 47.1556  6881.83  81.8832
 47.1976  7031.15  82.9256
 47.2396  6846.79  82.1394
 47.2816  6806.88  81.6165
 47.3236  6950.24  82.8317
 47.3656  6917.36  82.5725
 47.4076  6936.73  82.4104
 47.4496  6821.31  81.89
 47.4916  6762.94  81.7213
 47.5336  7001.7  82.9695
 47.5756  6857.84  82.1853
 47.6176  6785.62  81.6908
 47.6596  6825.7  81.6622
 47.7016  7008.52  82.5634
 47.7436  6864.65  82.051
 47.7856  6872.93  82.1209
 47.8276  6808.44  81.7744
 47.8696  6809.06  81.864
 47.9116  6883.82  82.0322
 47.9536  6830.97  81.6546
 47.9956  6767.02  81.9657
 48.0376  6716.63  81.4454
 48.0796  6774.64  81.9082
 48.1216  6823.23  82.039
 48.1636  6864.87  81.8682
 48.2056  6833.45  81.9369
 48.2476  6888.02  82.5652
 48.2896  6710.83  81.4107
 48.3316  6747.71  81.575
 48.3736  6678.58  81.1794
 48.4156  6679.75  81.047
 48.4576  6805.58  82.0908
 48.4996  6778.09  81.4004
 48.5416  6818.32  81.9513
 48.5836  6679.99  80.8068
 48.6256  6763.8  81.5125
 48.6676  6666.34  81.4214
 48.7096  6775.88  81.3767
 48.7516  6814.43  81.7454
 48.7936  6600.84  80.5176
 48.8356  6747.95  81.4612
 48.8776  6686.72  81.5644
 48.9196  6883.11  82.2176
 48.9616  6673  81.3279
 49.0036  6749.19  82.1223
 49.0456  6693.86  81.765
 49.0876  6723.6  81.5881
 49.1296  6604.92  80.9345
 49.1716  6635.37  80.9957
 49.2136  6633.44  80.9092
 49.2556  6646.75  81.0208
 49.2976  6714.23  81.4984
 49.3396  6618.76  80.9652
 49.3816  6760.59  81.2828
 49.4236  6731.93  81.5142
 49.4656  6624.18  80.8752
 49.5076  6703.12  81.1145
 49.5496  6580.79  80.3142
 49.5916  6641.54  80.7243
 49.6336  6610.45  80.7221
 49.6756  6708.59  81.5578
 49.7176  6587.27  80.7571
 49.7596  6720.04  81.5151
 49.8016  6608.76  80.5924
 49.8436  6611.59  80.8961
 49.8856  6589.67  80.7634
 49.9276  6518.17  80.4244
 49.9696  6569.17  80.7192
 50.0116  6641.85  81.2876
 50.0536  6585.52  80.8883
 50.0956  6585.8  80.9666
 50.1376  6563.47  80.536
 50.1796  6523.56  80.5535
 50.2216  6518.96  80.5158
 50.2636  6519.31  80.1495
 50.3056  6523.5  80.3475
 50.3476  6482.08  80.1087
 50.3896  6555.47  80.5366
 50.4316  6534.98  80.2504
 50.4736  6442.47  79.893
 50.5156  6504.24  80.2644
 50.5576  6555.73  80.3516
 50.5996  6504.54  80.3071
 50.6416  6505.03  80.2373
 50.6836  6491.9  80.2175
 50.7256  6538.72  80.4264
 50.7676  6578.77  80.9506
 50.8096  6426.63  79.5974
 50.8516  6388.82  79.7645
 50.8936  6395.61  79.5925
 50.9356  6506.31  80.3869
 50.9776  6464.97  80.2775
 51.0196  6359.34  79.7476
 51.0616  6352.48  79.0563
 51.1036  6468.03  80.1132
 51.1456  6487.93  80.1555
 51.1876  6417.7  79.0802
 51.2296  6360  79.3392
 51.2716  6326.18  78.8384
 51.3136  6243.56  78.7624
 51.3556  6382.09  79.2603
 51.3976  6208.4  78.323
 51.4396  6215.28  78.6621
 51.4816  6388.54  79.6069
 51.5236  6443.88  80.0408
 51.5656  6261.6  78.5136
 51.6076  6328.75  79.018
 51.6496  6292.82  78.9702
 51.6916  6299.35  79.3629
 51.7336  6284.24  79.3477
 51.7756  6324.37  79.3054
 51.8176  6331.76  79.4495
 51.8596  6249.51  78.9591
 51.9016  6440.33  79.7683
 51.9436  6285.45  80.2186
 51.9856  6255.51  80.4491
 52.0276  6326.07  79.4433
 52.0696  6245.45  78.9997
 52.1116  6233.55  79.0265
 52.1536  6251.87  78.9952
 52.1956  6353.68  79.1583
 52.2376  6408.25  79.6684
 52.2796  6274.28  78.6426
 52.3216  6221.08  78.9823
 52.3636  6292.4  79.0236
 52.4056  6285.24  78.829
 52.4476  6273.76  79.1252
 52.4896  6213.5  78.7882
 52.5316  6243.66  79.0263
 52.5736  6208.54  78.5423
 52.6156  6210.47  78.9087
 52.6576  6330.15  79.1333
 52.6996  6099.62  78.6124
 52.7416  6202.12  79.1316
 52.7836  6227.39  79.1765
 52.8256  6279.02  78.7485
 52.8676  6147.03  78.4658
 52.9096  6210.71  78.9597
 52.9516  6176.63  79.1044
 52.9936  6158.04  79.3705
 53.0356  6102.69  78.0534
 53.0776  6025.82  77.8291
 53.1196  6071.52  78.2271
 53.1616  6120.08  78.587
 53.2036  6104.01  78.4409
 53.2456  5948.48  77.536
 53.2876  5994.88  77.5494
 53.3296  6016.91  78.0049
 53.3716  6154.24  78.6428
 53.4136  6016.42  77.9033
 53.4556  5957.09  77.541
 53.4976  6001.22  77.6868
 53.5396  6081.26  78.5873
 53.5816  6119.25  78.4723
 53.6236  6067.16  78.4694
 53.6656  6009.62  77.7396
 53.7076  6163.54  78.6891
 53.7496  5995.53  77.7235
 53.7916  6151.63  78.8554
 53.8336  5996.99  77.7568
 53.8756  5943.75  77.9442
 53.9176  6083.32  78.2141
 53.9596  6069.47  78.8667
 54.0016  6050.02  78.0935
 54.0436  6020.46  78.1064
 54.0856  6106.98  78.105
 54.1276  6074.82  78.0965
 54.1696  6032.78  77.9902
 54.2116  6053.08  77.8858
 54.2536  6122.1  78.1487
 54.2956  6084.54  77.9582
 54.3376  6052.44  78.222
 54.3796  6067.31  78.218
 54.4216  6138.82  78.723
 54.4636  6017.76  77.8986
 54.5056  6062.26  78.0148
 54.5476  5982.11  77.825
 54.5896  6044.35  78.0569
 54.6316  6091.68  78.2284
 54.6736  5953.82  77.3676
 54.7156  6048.13  78.0466
 54.7576  5900.73  77.0875
 54.7996  5998.94  77.8718
 54.8416  6051.78  78.2434
 54.8836  5869.95  77.1706
 54.9256  5938.82  77.3757
 54.9676  5946.9  77.2825
 55.0096  6022.99  77.853
 55.0516  6025.05  78.0323
 55.0936  6013.34  77.6483
 55.1356  5912.2  77.0393
 55.1776  5926.45  77.3938
 55.2196  6027.46  77.8388
 55.2616  5958.94  77.6019
 55.3036  5965.17  77.8003
 55.3456  5931.33  77.7215
 55.3876  5991.86  77.87
 55.4296  5971.27  77.7137
 55.4716  5932.74  77.4913
 55.5136  6041.53  77.9646
 55.5556  5905.28  77.1448
 55.5976  5977.53  77.6709
 55.6396  6044.8  77.9722
 55.6816  6009.72  77.7136
 55.7236  5994.68  77.7588
 55.7656  5999.19  77.4469
 55.8076  6034.37  77.6607
 55.8496  5874.76  77.0403
 55.8916  5934.98  77.4914
 55.9336  5916.51  77.2278
 55.9756  5955.78  77.3715
 56.0176  5916.8  77.2716
 56.0596  6055.57  78.1533
 56.1016  5923.51  77.3371
 56.1436  5891.94  77.3572
 56.1856  5960.23  77.5538
 56.2276  5927.57  77.3965
 56.2696  5926.88  77.3638
 56.3116  5891.95  77.5211
 56.3536  5957.62  77.6248
 56.3956  5931.03  77.4415
 56.4376  5937.16  77.5133
 56.4796  5969.87  77.5324
 56.5216  5946.81  77.7422
 56.5636  6012.04  77.7715
 56.6056  5880.49  77.1392
 56.6476  5919.91  77.0369
 56.6896  5915.39  77.4456
 56.7316  5992.77  77.8544
 56.7736  5986.04  77.8152
 56.8156  5932.17  77.4575
 56.8576  5922.01  77.3368
 56.8996  5893.65  77.0959
 56.9416  5906.61  77.3335
 56.9836  5789.81  76.2271
 57.0256  5808.52  76.6646
 57.0676  5936  77.6223
 57.1096  5905.7  77.2178
 57.1516  5935.88  77.4374
 57.1936  5920.61  77.1271
 57.2356  5949.48  77.6305
 57.2776  5897.92  77.2444
 57.3196  5915.11  77.7258
 57.3616  5866.35  76.9053
 57.4036  5919.86  77.3166
 57.4456  5892.37  77.105
 57.4876  5903.2  77.0352
 57.5296  5852.16  76.9385
 57.5716  5821.09  76.8156
 57.6136  5905.26  77.1994
 57.6556  5870.25  77.0987
 57.6976  5868.68  76.9076
 57.7396  5815.01  76.9318
 57.7816  5795.18  77.1429
 57.8236  5876.59  77.4888
 57.8656  5931.37  77.5064
 57.9076  5879.91  77.2062
 57.9496  5877.33  77.5273
 57.9916  5905.74  77.1909
 58.0336  5850.25  77.1444
 58.0756  5914.05  77.156
 58.1176  5910.45  77.1807
 58.1596  5793.14  76.9566
 58.2016  6076.19  78.0619
 58.2436  5951.48  77.6502
 58.2856  5873.38  77.056
 58.3276  5779.69  76.8051
 58.3696  5867.02  77.1392
 58.4116  5967.81  77.6599
 58.4536  5907.39  77.1612
 58.4956  5853.68  76.983
 58.5376  5935.53  77.0945
 58.5796  5875.14  77.1149
 58.6216  5988.79  77.6727
 58.6636  5930.64  77.5103
 58.7056  5793.87  76.4734
 58.7476  5855.24  77.315
 58.7896  5896.53  77.2348
 58.8316  5815.6  76.7033
 58.8736  5888.47  77.1889
 58.9156  5848.34  76.97
 58.9576  6058.92  78.5333
 58.9996  6030  77.7161
 59.0416  5968.05  77.6746
 59.0836  5913.13  77.2446
 59.1256  5947.52  77.8524
 59.1676  5808.6  77.5549
 59.2096  5992.78  78.0709
 59.2516  6066.29  78.1285
 59.2936  5862.91  77.1308
 59.3356  5856.56  76.9687
 59.3776  5953.3  77.7695
 59.4196  5974.67  77.8456
 59.4616  5776.78  76.4084
 59.5036  5843.09  76.8802
 59.5456  6114.83  78.3393
 59.5876  6061.14  78.1861
 59.6296  5755.65  76.2578
 59.6716  5856.75  76.9817
 59.7136  5878.27  77.1114
 59.7556  5892.26  77.3379
 59.7976  5937.2  77.3766
 59.8396  5950.33  77.3572
 59.8816  5921.19  77.7075
 59.9236  5806.86  76.6043
 59.9656  5890.54  77.4115
 60.0076  5937.95  77.0855
 60.0496  5881.09  77.2122
 60.0916  5873.84  76.5912
 60.1336  5847.03  77.5057
 60.1756  5902.66  79.0441
 60.1996  0.0000000E+00  0.0000000E+00