File: docs/examples/opeando_xrd/IS17_D/Data/IS17_D/17_Da_f00082.xye
# /beamlines/bl04/projects/cycle2025-II/20250340211-lsimonelli/DATA/IS17_D/17_Da_f00082.xye : mythproc.py merge -s 0.006 -l 0.5 -f /beamlines/bl04/inhouse/ff/FlatField/ff_20Nov2024rod8mm60s_17keV.raw -b True -c true -o xye /beamlines/bl04/projects/cycle2025-II/20250340211-lsimonelli/DATA/IS17_D/17_Da_00082.dat
# IsMon = [6775995, 6776590, 6778178]  IsPos = [-1.4999, -2.4884, -3.4988]
# Wave = 0.4962  CalPath /beamlines/bl04/projects/cycle2025-II/20250340211-lsimonelli/DATA/Align/Si_Pos1_25keV_f00001.cal
# Date = 2025-09-24_16:24:24 Dt = 4.8000  Bin = 0.0060  <imon> = 6776921 +/- 921 (Min/Max) 6775995 / 6778178
# icurr 251.5898  mocoIn 1.7155E-05  mocoOut 0.8052  i15 7.09298e+06  imon 6.77692e+06  i7 4.3333  iEMpd_timer 4.8000  iEMpd_1 3.2109E-08  iEMpd_2 7.8298E-08  iEMpd_3 1.6332E-08  iEMpd_4 4.7751E-08  iEMhp_timer 4.8000  iEMhp_1 4.9143E-06  iEMhp_2 -2.5550E-08  iEMhp_3 -2.3939E-08  iEMhp_4 -2.0800E-08
#      9776
 1.5856  40006.3  205.398
 1.6276  47192.2  219.256
 1.6696  53566.1  232.77
 1.7116  62686.6  252.3
 1.7536  71415.5  268.147
 1.7956  76636.6  278.47
 1.8376  72817.9  271.873
 1.8796  61033.1  247.074
 1.9216  49181.4  222.674
 1.9636  41067.4  202.644
 2.0056  36952.5  191.479
 2.0476  34138.2  186.06
 2.0896  33112.9  182.17
 2.1316  32470.2  179.527
 2.1736  30418.7  175.141
 2.2156  31035.8  175.489
 2.2576  29900.3  172.866
 2.2996  28936.3  170.681
 2.3416  29255.8  170.252
 2.3836  28493.3  168.121
 2.4256  27565.2  165.899
 2.4676  27208.5  164.589
 2.5096  27108.3  164.339
 2.5516  30121.5  177.177
 2.5936  69433  263.604
 2.6356  27355.6  166.194
 2.6776  26113.8  161.284
 2.7196  25494.9  159.866
 2.7616  25377.5  159.277
 2.8036  24888.3  157.901
 2.8456  24899.2  158.538
 2.8876  24558.7  157.335
 2.9296  24192.4  156.282
 2.9716  23986.1  155.111
 3.0136  23719.1  154.313
 3.0556  23751.5  154.807
 3.0976  23568.1  153.162
 3.1396  23534.6  153.764
 3.1816  23290.8  152.897
 3.2236  22935.6  151.723
 3.2656  23188.5  151.604
 3.3076  22938.5  152.222
 3.3496  23298.9  152.362
 3.3916  23629.7  153.268
 3.4336  23832.4  154.494
 3.4756  24239.5  155.733
 3.5176  25155.2  158.448
 3.5596  25234.2  161.105
 3.6016  25249.3  158.791
 3.6436  24515.3  157.557
 3.6856  24067.3  154.428
 3.7276  23168.5  152.594
 3.7696  22977  152.148
 3.8116  22704.6  151.136
 3.8536  22645.3  150.868
 3.8956  22680.9  150.818
 3.9376  22897.2  151.784
 3.9796  22559.5  150.175
 4.0216  22669  149.582
 4.0636  22480  150.419
 4.1056  22562.2  150.338
 4.1476  22658.9  150.971
 4.1896  22979.9  151.897
 4.2316  23073.2  152.032
 4.2736  23506.4  153.241
 4.3156  23816  154.471
 4.3576  24562  156.802
 4.3996  24857.9  158.004
 4.4416  25480.7  159.554
 4.4836  26245.1  162.082
 4.5256  26287.4  162.823
 4.5676  26154.4  162.663
 4.6096  26713.4  163.053
 4.6516  27241.3  164.368
 4.6936  27393.8  165.634
 4.7356  27818.1  166.746
 4.7776  27542.2  165.746
 4.8196  27163.9  165.258
 4.8616  26744.9  163.459
 4.9036  26441.7  162.275
 4.9456  26558  163.281
 4.9876  26095.2  161.754
 5.0296  26093.9  161.563
 5.0716  25887.1  161.697
 5.1136  25964.3  161.65
 5.1556  26596.8  163.068
 5.1976  29826.1  172.677
 5.2396  27141.2  164.423
 5.2816  26940.9  164.268
 5.3236  26983.8  164.111
 5.3656  26620.7  163.923
 5.4076  26278.2  163.015
 5.4496  26395.6  162.862
 5.4916  26470.1  162.854
 5.5336  26562.3  163.143
 5.5756  26445.5  162.816
 5.6176  26833.9  163.437
 5.6596  26806.4  164.331
 5.7016  27141.1  164.616
 5.7436  27090.5  164.734
 5.7856  27134.6  164.929
 5.8276  27335.1  165.257
 5.8696  27539.5  166.044
 5.9116  27459.2  166.407
 5.9536  27790.4  167.161
 5.9956  28149.5  167.6
 6.0376  28163.8  168.279
 6.0796  28368.9  168.723
 6.1216  28308  168.743
 6.1636  28627.4  168.754
 6.2056  28672.7  169.556
 6.2476  28609.1  169.24
 6.2896  28976.8  170.006
 6.3316  28689  169.334
 6.3736  28972.3  170.062
 6.4156  28862.8  169.636
 6.4576  29113.1  169.977
 6.4996  29514.9  171.623
 6.5416  29329.1  171.221
 6.5836  29644.7  172.372
 6.6256  29546.8  171.648
 6.6676  29936.5  172.346
 6.7096  29909.7  173.123
 6.7516  30230.9  173.706
 6.7936  30609.5  174.211
 6.8356  31019.4  175.453
 6.8776  30961  176.093
 6.9196  30631.3  175.553
 6.9616  31206.5  176.638
 7.0036  31720  177.736
 7.0456  31515.9  176.455
 7.0876  31724.3  178.734
 7.1296  31641.9  177.641
 7.1716  31602.9  177.066
 7.2136  31222.3  175.782
 7.2556  31677  177.218
 7.2976  31683.4  177.735
 7.3396  31323.9  176.937
 7.3816  31353.6  177.234
 7.4236  31646.4  177.352
 7.4656  31937.8  177.649
 7.5076  32272  178.714
 7.5496  32071.7  178.693
 7.5916  32108.9  178.828
 7.6336  32725.3  180.435
 7.6756  32572.9  179.868
 7.7176  33020.2  181.409
 7.7596  32787.8  182.013
 7.8016  35338.3  191.207
 7.8436  33808.1  183.681
 7.8856  34227.1  184.425
 7.9276  34685.5  186.052
 7.9696  34734.5  186.495
 8.0116  35597.2  187.337
 8.0536  36175.2  189.111
 8.0956  37327.4  193.301
 8.1376  36523.9  190.676
 8.1796  36575.4  191.36
 8.2216  37583.1  192.704
 8.2636  38088.4  194.244
 8.3056  37436.8  193.345
 8.3476  38955.3  196.549
 8.3896  38178.9  194.662
 8.4316  37941.1  194.219
 8.4736  38180.5  194.29
 8.5156  37720  193.396
 8.5576  37346.5  193.417
 8.5996  37526.5  192.739
 8.6416  37407  193.706
 8.6836  37133.7  192.815
 8.7256  37775.3  193.93
 8.7676  38601.1  199.001
 8.8096  38421.4  195.783
 8.8516  37092.5  191.982
 8.8936  37905.6  193.95
 8.9356  36577.2  190.864
 8.9776  36660.2  191.189
 9.0196  36558.7  190.605
 9.0616  36504.5  189.929
 9.1036  37472.7  193.638
 9.1456  36474.8  190.399
 9.1876  36318.1  189.944
 9.2296  36310.1  189.31
 9.2716  35558  187.416
 9.3136  35702  187.778
 9.3556  35959.2  188.438
 9.3976  34466.1  185.01
 9.4396  34910.6  186.092
 9.4816  34417.3  184.634
 9.5236  34683.9  185.256
 9.5656  34136.2  184.117
 9.6076  33722.7  183.516
 9.6496  33723.7  183.448
 9.6916  33824.4  183.689
 9.7336  34181.1  184.438
 9.7756  34170.4  185.673
 9.8176  33157.9  182.409
 9.8596  33173.8  180.898
 9.9016  32595.5  179.309
 9.9436  32359.7  178.568
 9.9856  32573  179.381
 10.0276  31775.6  178.283
 10.0696  32067.8  178.137
 10.1116  31223  176.037
 10.1536  30926.3  175.363
 10.1956  30607.3  174.059
 10.2376  30289.4  172.655
 10.2796  30358.6  172.983
 10.3216  30030.3  172.314
 10.3636  30072.4  172.464
 10.4056  31106.4  175.81
 10.4476  31316.2  176.017
 10.4896  32974.4  180.041
 10.5316  31293.5  176.121
 10.5736  29656.8  171.874
 10.6156  28996.1  169.71
 10.6576  32667  178.609
 10.6996  29184.6  169.505
 10.7416  28359.3  167.32
 10.7836  29185.1  170.435
 10.8256  27928.6  167.157
 10.8676  28175.7  167.427
 10.9096  27814.9  166.388
 10.9516  27637.7  164.782
 10.9936  27974.5  165.984
 11.0356  27709.1  165.838
 11.0776  28135.9  166.408
 11.1196  27614  165.602
 11.1616  26786.5  162.808
 11.2036  27368.2  164.414
 11.2456  28085.4  167.288
 11.2876  26508.7  162.248
 11.3296  26442.9  161.952
 11.3716  27107.9  163.652
 11.4136  26764.8  163.521
 11.4556  26942.8  163.724
 11.4976  27714.9  165.005
 11.5396  27819.7  165.491
 11.5816  26803.5  162.901
 11.6236  26262.2  161.469
 11.6656  25963.6  159.707
 11.7076  25369.3  158.701
 11.7496  25721.1  163.745
 11.7916  25542.3  158.501
 11.8336  25082.2  157.95
 11.8756  25160.1  157.729
 11.9176  25151.5  157.362
 11.9596  24726  156.205
 12.0016  24832.8  157.341
 12.0436  24488.1  155.668
 12.0856  24476.1  156.159
 12.1276  24441.1  155.958
 12.1696  24233.4  154.438
 12.2116  24677.8  155.841
 12.2536  25468.5  159.166
 12.2956  24662.7  155.959
 12.3376  24222.9  154.776
 12.3796  24218.9  155.219
 12.4216  24307.3  154.721
 12.4636  24542.5  156.383
 12.5056  24052.5  154.092
 12.5476  24400.3  154.731
 12.5896  24213.4  154.77
 12.6316  24001.5  154.255
 12.6736  24028.5  154.822
 12.7156  24008.6  154.619
 12.7576  23930  154.602
 12.7996  24158.9  153.991
 12.8416  24214.5  155.226
 12.8836  24875.2  157.154
 12.9256  24690.1  155.575
 12.9676  24614.4  155.765
 13.0096  24408.7  156.218
 13.0516  24652.7  156.022
 13.0936  24443.3  155.759
 13.1356  24745.6  155.703
 13.1776  24439.9  155.72
 13.2196  24548.7  155.728
 13.2616  24617.5  156.257
 13.3036  24623.5  156.25
 13.3456  24566.8  156.422
 13.3876  24719.9  156.2
 13.4296  24559  155.838
 13.4716  24717.4  155.945
 13.5136  24672.4  155.966
 13.5556  24780.4  156.92
 13.5976  24659  156.677
 13.6396  25129.8  157.528
 13.6816  24613.8  156.392
 13.7236  25244.7  158.034
 13.7656  24473.5  156.136
 13.8076  25080.6  156.832
 13.8496  24443.1  155.426
 13.8916  24344.7  156.117
 13.9336  24335.2  155.303
 13.9756  24204.6  154.25
 14.0176  24213.4  154.957
 14.0596  24660.3  156.346
 14.1016  23745.4  153.805
 14.1436  23418.6  151.886
 14.1856  23447.8  152.273
 14.2276  23166.9  151.842
 14.2696  23608.5  153.119
 14.3116  23247.5  151.845
 14.3536  22633.7  150.008
 14.3956  22570.5  149.531
 14.4376  22897.8  150.39
 14.4796  22691  149.695
 14.5216  22236.9  148.988
 14.5636  22514.1  149.474
 14.6056  22295.8  148.326
 14.6476  22239.7  147.372
 14.6896  21891.5  146.748
 14.7316  21329  145.87
 14.7736  21431.7  145.376
 14.8156  21117.3  144.336
 14.8576  21176.7  144.393
 14.8996  20950.2  144.831
 14.9416  20368.8  142.8
 14.9836  20642.9  143.721
 15.0256  20336.2  141.571
 15.0676  20586.9  142.766
 15.1096  20335.2  141.625
 15.1516  19813  140.352
 15.1936  19591.9  138.998
 15.2356  19777.7  139.935
 15.2776  19508.6  138.562
 15.3196  19275.3  138.738
 15.3616  19381.9  138.872
 15.4036  18938.8  137.139
 15.4456  19352.8  138.276
 15.4876  19006.2  136.707
 15.5296  18963.2  136.844
 15.5716  18567.6  135.01
 15.6136  18559.9  135.31
 15.6556  19665.4  138.496
 15.6976  18735.8  135.482
 15.7396  18431.8  134.766
 15.7816  18503  134.531
 15.8236  18056.3  133.601
 15.8656  18131.6  133.668
 15.9076  17834.5  132.397
 15.9496  18168.1  136.464
 15.9916  17763.9  135.374
 16.0336  17409.8  130.913
 16.0756  17521.9  131.64
 16.1176  17444.7  131.424
 16.1596  16995.5  130.895
 16.2016  17235.8  130.549
 16.2436  16913.2  129.715
 16.2856  17018.8  129.662
 16.3276  16671.9  128.744
 16.3696  16921.3  129.526
 16.4116  16732.6  129.266
 16.4536  16821.3  129.393
 16.4956  17153.1  130.389
 16.5376  16833.2  129.363
 16.5796  16550.6  127.627
 16.6216  16700.7  128.513
 16.6636  16560.2  128.121
 16.7056  16572.2  128.038
 16.7476  16418  126.968
 16.7896  16401.2  127.657
 16.8316  16290.8  127.193
 16.8736  16521.3  128.348
 16.9156  16675.3  129.28
 16.9576  16362.2  128.872
 16.9996  16420.3  129.592
 17.0416  16341.7  127.633
 17.0836  16119.5  126.526
 17.1256  15967.5  125.936
 17.1676  16289.9  127.192
 17.2096  16061.5  126.174
 17.2516  15858.1  125.154
 17.2936  15842.3  125.417
 17.3356  15435.2  123.796
 17.3776  15414.2  123.904
 17.4196  15688.5  124.693
 17.4616  15533.5  123.998
 17.5036  15719.4  125.107
 17.5456  15253.5  123.88
 17.5876  15231.3  122.834
 17.6296  15144.3  122.3
 17.6716  15284.3  123.443
 17.7136  15379.1  123.971
 17.7556  15171.6  123.425
 17.7976  15106.7  122.9
 17.8396  15117.9  122.439
 17.8816  14953  122.313
 17.9236  14857.5  121.736
 17.9656  15012.4  122.909
 18.0076  15329.8  123.77
 18.0496  15333.7  122.904
 18.0916  17542.9  132.024
 18.1336  16330.8  127.501
 18.1756  15426.5  123.434
 18.2176  15693.1  124.742
 18.2596  14935.1  121.428
 18.3016  15404.2  123.576
 18.3436  15527.2  124.077
 18.3856  15079  122.404
 18.4276  14978.6  121.669
 18.4696  14971.2  121.744
 18.5116  15067.3  122.421
 18.5536  14842.7  121.866
 18.5956  14732.7  120.957
 18.6376  14878.7  121.976
 18.6796  14555.6  119.953
 18.7216  14910.3  121.908
 18.7636  14426.6  119.908
 18.8056  14363  119.582
 18.8476  14203.9  119.544
 18.8896  14301.9  119.288
 18.9316  14479.9  120.013
 18.9736  14399.2  119.371
 19.0156  14460.9  120.038
 19.0576  14418.7  118.718
 19.0996  14449.4  119.559
 19.1416  14138.8  118.662
 19.1836  14083  118.024
 19.2256  14052.8  118.109
 19.2676  14144.5  118.591
 19.3096  14154.6  118.883
 19.3516  14102.1  118.621
 19.3936  14163.6  118.779
 19.4356  14111.3  118.422
 19.4776  14146.2  118.672
 19.5196  14059.8  118.155
 19.5616  14241.1  119.169
 19.6036  14150.2  118.288
 19.6456  14087.9  118.15
 19.6876  14468.4  119.376
 19.7296  14020.1  117.969
 19.7716  14098.1  118.465
 19.8136  14160.3  118.925
 19.8556  14531.5  119.949
 19.8976  14568.2  120.168
 19.9396  14429.7  119.165
 19.9816  14742.5  120.696
 20.0236  15031.7  122.1
 20.0656  14508.3  119.951
 20.1076  14084.8  118.65
 20.1496  14128.7  118.841
 20.1916  14005.4  117.837
 20.2336  13947.4  117.524
 20.2756  13747  117.106
 20.3176  13663.2  116.495
 20.3596  13683.6  116.56
 20.4016  13623.6  116.107
 20.4436  13722.2  117.081
 20.4856  13612.8  116.413
 20.5276  13475.9  116.283
 20.5696  13426.1  115.524
 20.6116  13465.8  115.976
 20.6536  13431.1  115.336
 20.6956  13322.2  114.988
 20.7376  13401.9  115.564
 20.7796  13063.7  113.784
 20.8216  13511.8  115.427
 20.8636  13377.9  115.214
 20.9056  13876.6  117.299
 20.9476  13311.8  114.725
 20.9896  13997  117.496
 21.0316  13462  115.131
 21.0736  13375.7  115.288
 21.1156  13584.8  116.345
 21.1576  13300.3  115.172
 21.1996  13188.2  114.666
 21.2416  13150.3  114.334
 21.2836  13329.1  115.071
 21.3256  13132.3  114.3
 21.3676  13200.3  114.138
 21.4096  13302.7  114.893
 21.4516  13008.9  113.501
 21.4936  13017.1  113.791
 21.5356  13149.2  114.303
 21.5776  13159.8  114.191
 21.6196  12946.1  113.29
 21.6616  13013.1  113.675
 21.7036  12981.1  113.314
 21.7456  13168.8  114.204
 21.7876  12844.7  112.544
 21.8296  12879.4  112.549
 21.8716  12841.9  112.621
 21.9136  13049.4  113.724
 21.9556  12973  113.059
 21.9976  12824.7  112.429
 22.0396  12872.3  112.895
 22.0816  12909.5  113.599
 22.1236  13060.1  113.713
 22.1656  12912.3  113.183
 22.2076  13071  113.35
 22.2496  12792.3  112.163
 22.2916  12817.4  112.155
 22.3336  13016.1  113.755
 22.3756  12671.7  111.961
 22.4176  12671  111.813
 22.4596  12538.5  111.811
 22.5016  13038.9  113.511
 22.5436  12852.8  112.575
 22.5856  12816  112.664
 22.6276  12836  112.892
 22.6696  12676.2  112.53
 22.7116  12674.8  112.043
 22.7536  12882.9  112.932
 22.7956  12788  111.842
 22.8376  12751.8  112.206
 22.8796  12910.9  112.707
 22.9216  12804.6  112.788
 22.9636  12726.1  111.594
 23.0056  12789.3  112.002
 23.0476  13035.5  113.661
 23.0896  13101.9  113.315
 23.1316  13117.4  113.825
 23.1736  12665.9  114.811
 23.2156  12795.6  112.746
 23.2576  12707.8  112.492
 23.2996  12757.2  112.492
 23.3416  12652.8  112.552
 23.3836  12554.1  111.35
 23.4256  12674.8  112.006
 23.4676  12756.2  112.056
 23.5096  12847.5  113.138
 23.5516  12731  111.905
 23.5936  12651.4  112.451
 23.6356  13053.3  113.892
 23.6776  12700.2  112.555
 23.7196  12524  111.352
 23.7616  12885.7  112.851
 23.8036  12640.7  111.811
 23.8456  12696.7  111.641
 23.8876  12276.3  110.13
 23.9296  12542.9  111.807
 23.9716  12458  110.618
 24.0136  12576.8  112.06
 24.0556  12394.9  110.971
 24.0976  12231.9  110.048
 24.1396  12182  112.491
 24.1816  12320.6  111.527
 24.2236  11993.1  109.649
 24.2656  12227.6  110.186
 24.3076  12263.2  110.598
 24.3496  12382.8  111.025
 24.3916  12191  110.212
 24.4336  12115.3  110.08
 24.4756  12038.3  109.596
 24.5176  11920.7  108.709
 24.5596  11756.4  108.084
 24.6016  11646.6  107.864
 24.6436  11797.9  108.05
 24.6856  11782  107.74
 24.7276  11878.4  108.497
 24.7696  11768.7  108.111
 24.8116  11765.3  108.281
 24.8536  11494.8  107.019
 24.8956  11679.2  107.61
 24.9376  11615.4  107.257
 24.9796  11500.8  107.079
 25.0216  11360.2  106.536
 25.0636  11565.7  107.145
 25.1056  11265.6  106.45
 25.1476  11495.4  109.212
 25.1896  11455.5  107.48
 25.2316  11460.8  106.767
 25.2736  11470.6  106.467
 25.3156  11361.7  106.039
 25.3576  11244.2  105.912
 25.3996  11256.6  105.951
 25.4416  11361.9  106.424
 25.4836  11245.1  106.408
 25.5256  11267.9  105.872
 25.5676  11222  105.388
 25.6096  11048.8  105.142
 25.6516  11214.3  105.426
 25.6936  11186.3  105.603
 25.7356  11157  105.605
 25.7776  11105.8  104.963
 25.8196  11085.2  105.104
 25.8616  11181.9  105.483
 25.9036  11185  104.963
 25.9456  11040.9  104.875
 25.9876  10927.6  104.408
 26.0296  11201.1  105.216
 26.0716  11077.9  105.055
 26.1136  11222.8  105.68
 26.1556  11309.9  105.465
 26.1976  10973  104.809
 26.2396  11108.1  104.595
 26.2816  10965.3  104.539
 26.3236  10950.2  104.626
 26.3656  10883.5  104.031
 26.4076  11065.1  105.105
 26.4496  11578.3  106.959
 26.4916  11174.6  105.123
 26.5336  11053.9  104.876
 26.5756  11134.4  105.114
 26.6176  11114.8  105.077
 26.6596  10871.2  104.224
 26.7016  10807.1  103.675
 26.7436  10655.6  103.079
 26.7856  10612  102.85
 26.8276  10707.3  103.265
 26.8696  10818.3  103.666
 26.9116  10730.1  103.176
 26.9536  10561.5  102.422
 26.9956  10648.4  102.876
 27.0376  10557.8  102.645
 27.0796  10743.6  103.284
 27.1216  10656.7  102.939
 27.1636  10533.8  102.512
 27.2056  10439.8  101.934
 27.2476  10485  102.156
 27.2896  10538.8  102.526
 27.3316  10492.5  102.013
 27.3736  10416.5  101.907
 27.4156  10380.9  101.577
 27.4576  10527.7  102.528
 27.4996  10514.2  102.051
 27.5416  10452  102.072
 27.5836  10417.2  101.716
 27.6256  10678.9  103.129
 27.6676  10544.4  102.526
 27.7096  10315.2  101.272
 27.7516  10680.4  103.194
 27.7936  10567.7  102.827
 27.8356  10480.3  102.02
 27.8776  10396.1  101.654
 27.9196  10297  101.01
 27.9616  10412.6  101.774
 28.0036  10297.3  101.183
 28.0456  10309.3  101.373
 28.0876  10175.2  100.804
 28.1296  10148.2  100.509
 28.1716  10161.4  100.585
 28.2136  10175  100.615
 28.2556  10186.9  100.793
 28.2976  10014.2  99.9178
 28.3396  10325.7  101.218
 28.3816  10158.7  100.42
 28.4236  10226.7  100.911
 28.4656  10027.3  99.9563
 28.5076  10049.3  99.705
 28.5496  9994.34  99.6894
 28.5916  10204.3  100.538
 28.6336  9900.02  99.3673
 28.6756  10075.8  99.4459
 28.7176  9930.81  99.2697
 28.7596  9888.2  98.9612
 28.8016  9906.74  99.0887
 28.8436  9887.47  99.2329
 28.8856  9847.71  98.8813
 28.9276  9943.33  99.6107
 28.9696  9920.12  99.1493
 29.0116  9913.28  99.2953
 29.0536  9798.01  98.9239
 29.0956  9865.11  98.9723
 29.1376  9798.24  98.6005
 29.1796  9778.61  98.5539
 29.2216  9686.94  97.931
 29.2636  9744.11  98.2934
 29.3056  9720.18  97.9657
 29.3476  9823.49  99.0111
 29.3896  9968.38  99.8361
 29.4316  9999.37  99.3204
 29.4736  9805.99  98.415
 29.5156  9922.66  98.9219
 29.5576  9723.19  98.6671
 29.5996  9787.98  98.2469
 29.6416  9687.47  97.8621
 29.6836  9969.7  99.2026
 29.7256  9688.9  98.3616
 29.7676  9693.84  98.042
 29.8096  9604.64  97.5386
 29.8516  9542.41  97.5531
 29.8936  9744.26  98.6743
 29.9356  9764.61  98.5298
 29.9776  9634.51  98.0263
 30.0196  9673.03  97.6087
 30.0616  9749.12  98.3639
 30.1036  9646.13  97.6697
 30.1456  9619.79  97.7698
 30.1876  9637.24  97.8405
 30.2296  9575.19  97.4687
 30.2716  9614.75  97.3077
 30.3136  9572.04  97.9486
 30.3556  9562.67  97.9176
 30.3976  9506.46  99.1456
 30.4396  9739.75  97.6702
 30.4816  9716.91  97.1466
 30.5236  9568.89  96.4258
 30.5656  9518  96.8196
 30.6076  9657.25  96.9477
 30.6496  9610.75  97.1051
 30.6916  9492.33  96.595
 30.7336  9667.82  97.6393
 30.7756  9426.69  96.5062
 30.8176  9610.94  97.36
 30.8596  9481.93  96.466
 30.9016  9400.69  96.3991
 30.9436  9484.56  96.5827
 30.9856  9560.46  97.0773
 31.0276  9407.47  95.8961
 31.0696  9410.95  96.4989
 31.1116  9357.25  96.1998
 31.1536  9491.16  96.7629
 31.1956  9407.4  96.4284
 31.2376  9280.74  95.7842
 31.2796  9386.04  95.8643
 31.3216  9359.4  95.6686
 31.3636  9317.69  96.1505
 31.4056  9320.6  97.5082
 31.4476  9358.18  95.5635
 31.4896  9230.5  95.4132
 31.5316  9471.11  96.0374
 31.5736  9678.09  96.8862
 31.6156  9512.51  96.0842
 31.6576  9375.39  95.4941
 31.6996  9439.79  95.4817
 31.7416  9387.63  96.2948
 31.7836  9374.65  95.2369
 31.8256  9220.94  94.7242
 31.8676  9511.27  96.1987
 31.9096  9184.3  94.8863
 31.9516  9095.01  94.5764
 31.9936  9149.48  94.6908
 32.0356  9280.24  95.4348
 32.0776  9187.27  94.8402
 32.1196  9059.9  94.2738
 32.1616  9203.5  94.4727
 32.2036  9139.95  94.6539
 32.2456  9077.27  94.7101
 32.2876  9157.36  94.6211
 32.3296  9254.2  95.0871
 32.3716  9160.69  94.6982
 32.4136  9194.46  95.0939
 32.4556  9179.89  94.397
 32.4976  9287.57  94.845
 32.5396  9180.52  94.3781
 32.5816  8986.67  93.4968
 32.6236  9062.55  93.965
 32.6656  9250.78  95.4772
 32.7076  9102.54  94.3641
 32.7496  9121.83  94.1232
 32.7916  9138.46  94.1774
 32.8336  9115.2  94.149
 32.8756  9167.26  94.1363
 32.9176  9082.57  94.1836
 32.9596  9034.45  94.01
 33.0016  9054.34  93.9124
 33.0436  9088.9  94.2639
 33.0856  8987.48  93.8003
 33.1276  8967.34  93.4356
 33.1696  9142.96  94.1882
 33.2116  9025.62  93.8037
 33.2536  8965.54  93.4958
 33.2956  8929.28  93.3882
 33.3376  8963.02  93.3049
 33.3796  9022.59  93.824
 33.4216  9013.97  93.3756
 33.4636  9032.83  93.613
 33.5056  8869.24  92.9996
 33.5476  8785.77  92.5595
 33.5896  9022.32  93.5629
 33.6316  8864.61  93.0681
 33.6736  8754.3  92.7271
 33.7156  8767.2  92.8356
 33.7576  8971.61  93.5372
 33.7996  8996.41  93.4301
 33.8416  8684.86  91.9786
 33.8836  8802.44  92.38
 33.9256  8816.47  92.5171
 33.9676  8882.94  92.7603
 34.0096  8757.99  92.4252
 34.0516  8710.72  91.8115
 34.0936  8739.5  92.2235
 34.1356  8830.76  92.4517
 34.1776  8723.38  91.8964
 34.2196  8753.22  92.2334
 34.2616  8684.66  92.0031
 34.3036  8627.48  91.9534
 34.3456  8638.09  91.7638
 34.3876  8630.33  91.6866
 34.4296  8864.84  92.6099
 34.4716  8782.18  92.3201
 34.5136  8691.14  92.0535
 34.5556  8664.4  92.1605
 34.5976  8706.89  92.1811
 34.6396  8677.06  91.742
 34.6816  8621.53  91.563
 34.7236  8723.77  91.8867
 34.7656  8599.72  91.4275
 34.8076  8573.15  91.6021
 34.8496  8678.03  92.0259
 34.8916  8678.75  91.8987
 34.9336  8781.55  92.4042
 34.9756  8689  91.8386
 35.0176  8770.62  92.8086
 35.0596  8566.05  91.5452
 35.1016  8435.75  90.6093
 35.1436  8665.24  91.5098
 35.1856  8468.05  90.5987
 35.2276  8619.13  91.5775
 35.2696  8631.76  91.8299
 35.3116  8538.76  91.4355
 35.3536  8501.6  90.9485
 35.3956  8596.03  91.1561
 35.4376  8431.41  90.829
 35.4796  8568.37  91.6285
 35.5216  8466.49  91.0364
 35.5636  8293.13  90.8434
 35.6056  8574.78  91.3863
 35.6476  8536.78  91.0783
 35.6896  8550.22  91.2403
 35.7316  8453.71  90.6953
 35.7736  8419.36  90.7098
 35.8156  8494.2  91.1076
 35.8576  8492.99  91.3525
 35.8996  8631.58  92.0535
 35.9416  8717.55  91.9655
 35.9836  8379.95  90.566
 36.0256  8508.07  91.2768
 36.0676  8492.95  90.9535
 36.1096  8205.53  89.5338
 36.1516  8434.08  90.661
 36.1936  8363.33  90.1276
 36.2356  8288.97  90.365
 36.2776  8347.37  90.1656
 36.3196  8451.34  90.3906
 36.3616  8450.76  90.52
 36.4036  8373.27  90.154
 36.4456  8401.36  90.5203
 36.4876  8239.41  89.5915
 36.5296  8369.93  90.3367
 36.5716  8378.26  91.1675
 36.6136  8450.02  90.3144
 36.6556  8541.77  91.0087
 36.6976  8338.74  90.4228
 36.7396  8276.16  89.8122
 36.7816  8353.75  90.6108
 36.8236  8290.83  90.1889
 36.8656  8339.79  90.5283
 36.9076  8294.38  90.161
 36.9496  8177.33  89.5017
 36.9916  8328.6  89.9617
 37.0336  8391.96  90.6195
 37.0756  8435.52  90.6442
 37.1176  8229.18  89.799
 37.1596  8405.08  90.7611
 37.2016  8265.01  90.2261
 37.2436  8326.81  89.8769
 37.2856  8346.43  90.2377
 37.3276  8331.18  89.5011
 37.3696  8167.61  89.5021
 37.4116  8250.83  89.8616
 37.4536  8298.27  89.9901
 37.4956  8193.6  89.4644
 37.5376  8253.41  91.3666
 37.5796  8143.75  90.6992
 37.6216  8085.97  88.6527
 37.6636  8247.38  89.4315
 37.7056  8068.27  88.645
 37.7476  8176.37  88.7677
 37.7896  8151.91  89.1351
 37.8316  7917.91  88.0231
 37.8736  8131.96  88.7223
 37.9156  8080.22  88.4439
 37.9576  8128.77  88.593
 37.9996  8052.92  87.8974
 38.0416  8139.36  89.1912
 38.0836  8194.22  89.3952
 38.1256  7961.24  88.0674
 38.1676  8066.92  88.7925
 38.2096  8048.92  88.3181
 38.2516  8212.26  89.4077
 38.2936  8067.85  88.4261
 38.3356  8199.73  89.0549
 38.3776  8203.55  89.3562
 38.4196  8148.72  88.9056
 38.4616  8066.95  88.6994
 38.5036  8152.37  89.0032
 38.5456  7979.12  88.8958
 38.5876  8037.89  89.2591
 38.6296  7984.6  87.9272
 38.6716  7969.32  87.6416
 38.7136  7976.99  87.6288
 38.7556  7836.48  87.3551
 38.7976  7940.13  87.8613
 38.8396  7869.11  87.9257
 38.8816  7788.66  87.244
 38.9236  7842.4  87.3693
 38.9656  8005.86  88.187
 39.0076  7954.41  87.312
 39.0496  7933.45  87.7355
 39.0916  7922.81  87.3142
 39.1336  7882.95  87.5169
 39.1756  8014.18  88.3098
 39.2176  7956.3  88.524
 39.2596  7875.45  87.9936
 39.3016  7940.34  87.9131
 39.3436  7831.87  87.7486
 39.3856  7913.8  87.6548
 39.4276  7859.77  87.8397
 39.4696  7880.04  87.5895
 39.5116  7868.23  88.0294
 39.5536  8048.43  89.4647
 39.5956  8032.62  88.4708
 39.6376  8040.12  88.5161
 39.6796  7933.81  87.6692
 39.7216  8093.56  88.6391
 39.7636  8095.7  89.2402
 39.8056  7996.92  88.4591
 39.8476  7838.53  87.8388
 39.8896  7992.98  88.3284
 39.9316  7903.18  88.0803
 39.9736  8033.85  88.3759
 40.0156  7914.1  87.5298
 40.0576  7897.07  87.8084
 40.0996  8070.99  87.9467
 40.1416  8023.37  88.476
 40.1836  7992.47  88.1908
 40.2256  8016.74  88.3766
 40.2676  7900.79  87.8424
 40.3096  8103.68  88.8774
 40.3516  8101.23  88.9788
 40.3936  8086.99  88.464
 40.4356  8011.86  88.2423
 40.4776  8015.97  88.6815
 40.5196  8084.29  89.1875
 40.5616  8040.54  88.5873
 40.6036  7994.9  88.5884
 40.6456  7995.09  88.1982
 40.6876  8060.41  88.5401
 40.7296  7999.3  88.3473
 40.7716  8116.19  89.112
 40.8136  7902.6  87.8829
 40.8556  8036.57  88.7555
 40.8976  8112.42  89.096
 40.9396  7964.01  88.6266
 40.9816  8135.37  88.8528
 41.0236  8082.9  88.3412
 41.0656  8144.83  89.2297
 41.1076  8154.98  89.0499
 41.1496  8010.61  88.1693
 41.1916  8035.43  88.6326
 41.2336  7929.81  88.031
 41.2756  8052.95  88.3177
 41.3176  7929.56  88.2552
 41.3596  8131.65  89.0996
 41.4016  7989.95  88.5731
 41.4436  8004.09  88.4387
 41.4856  8104.43  89.1602
 41.5276  7905.39  88.0787
 41.5696  8069.37  88.6136
 41.6116  7943.42  88.3148
 41.6536  7960.99  88.2727
 41.6956  8025.62  88.6832
 41.7376  7977.01  88.4448
 41.7796  7953.51  88.1925
 41.8216  7944.74  88.3833
 41.8636  7946.05  88.3279
 41.9056  8019.32  88.519
 41.9476  7924.71  88.2299
 41.9896  8058.13  88.6412
 42.0316  8054.84  88.7025
 42.0736  8018.36  88.6125
 42.1156  7927  87.9421
 42.1576  7948.86  88.1628
 42.1996  7918.74  88.1392
 42.2416  7980.48  88.0599
 42.2836  7873.71  87.5862
 42.3256  7749.37  86.9999
 42.3676  7918.91  87.7524
 42.4096  7899.09  87.6064
 42.4516  7876.1  87.5654
 42.4936  7807.08  87.2511
 42.5356  7933.33  88.0871
 42.5776  7876.13  87.7077
 42.6196  7952.2  88.1849
 42.6616  7802.85  87.5249
 42.7036  7895.97  87.4262
 42.7456  7998.5  88.3543
 42.7876  7831.24  87.5283
 42.8296  7883.21  87.6401
 42.8716  7874.05  87.7564
 42.9136  7848.88  87.403
 42.9556  7864.8  87.6279
 42.9976  7870.55  87.622
 43.0396  7876.72  87.3862
 43.0816  7906.79  87.9269
 43.1236  7787.13  87.3252
 43.1656  7775.17  87.0883
 43.2076  7782.21  87.2318
 43.2496  7856.53  87.449
 43.2916  7694.82  86.9209
 43.3336  7813.97  87.4254
 43.3756  7806.23  87.1398
 43.4176  7580.42  85.9492
 43.4596  7628.75  86.0793
 43.5016  7739.34  87.107
 43.5436  7792.35  87.3069
 43.5856  7783.06  87.2763
 43.6276  7699.22  86.7022
 43.6696  7720.77  87.0812
 43.7116  7777.61  86.8979
 43.7536  7829.48  87.6722
 43.7956  7693.7  88.1108
 43.8376  7738.04  86.8989
 43.8796  7643.62  86.4456
 43.9216  7626.3  86.2668
 43.9636  7670.36  86.6201
 44.0056  7643.21  86.7011
 44.0476  7600.24  86.0875
 44.0896  7588.14  86.3624
 44.1316  7750.04  86.7966
 44.1736  7632.9  86.2651
 44.2156  7718.37  86.5944
 44.2576  7686.08  86.746
 44.2996  7719.06  86.8982
 44.3416  7718.81  86.6524
 44.3836  7510.11  85.8014
 44.4256  7563.66  85.7535
 44.4676  7506.04  85.5844
 44.5096  7574.02  86.1146
 44.5516  7519.37  85.7585
 44.5936  7486.66  85.5315
 44.6356  7506.13  85.3842
 44.6776  7529.5  85.8364
 44.7196  7422.02  85.5234
 44.7616  7481.53  87.1913
 44.8036  7448.61  85.424
 44.8456  7581.31  86.3865
 44.8876  7568.98  86.1699
 44.9296  7565.67  85.6049
 44.9716  7415.04  85.1743
 45.0136  7602.94  86.1821
 45.0556  7598.01  86.1258
 45.0976  7384.1  85.0638
 45.1396  7325.17  84.4975
 45.1816  7453.07  85.1596
 45.2236  7457.15  85.083
 45.2656  7455.69  85.5745
 45.3076  7483.04  85.518
 45.3496  7395.14  85.3097
 45.3916  7364.57  85.4056
 45.4336  7358.42  85.2128
 45.4756  7393.5  85.2785
 45.5176  7524.68  85.6434
 45.5596  7518.94  85.7286
 45.6016  7228.72  84.4725
 45.6436  7550.03  85.506
 45.6856  7162.55  83.9239
 45.7276  7343.6  86.3042
 45.7696  7404.37  86.3201
 45.8116  7496  86.2791
 45.8536  7260.31  84.8198
 45.8956  7432  85.1675
 45.9376  7307.69  83.9202
 45.9796  7358.69  84.8921
 46.0216  7357.44  85.2279
 46.0636  7487.19  85.1155
 46.1056  7454.32  84.9133
 46.1476  7224.67  84.1821
 46.1896  7256.54  84.5153
 46.2316  7216.42  84.153
 46.2736  7185.07  84.3358
 46.3156  7342.33  84.8397
 46.3576  7249.88  84.5061
 46.3996  7316.6  85.0522
 46.4416  7372.62  84.9593
 46.4836  7217.92  84.4105
 46.5256  7248.39  84.5271
 46.5676  7174.29  84.2065
 46.6096  7332.27  85.0655
 46.6516  7373.47  84.3446
 46.6936  7385.41  84.9013
 46.7356  7309.8  84.5755
 46.7776  7217.48  84.874
 46.8196  7249.48  84.6594
 46.8616  7060.86  83.4914
 46.9036  7158.49  83.7312
 46.9456  7148  83.3161
 46.9876  7281.34  84.1748
 47.0296  7235.76  84.591
 47.0716  7102.73  83.6366
 47.1136  7132.43  83.495
 47.1556  7114.09  83.2591
 47.1976  7287.06  84.3434
 47.2396  7190.4  84.1706
 47.2816  7156.44  83.6836
 47.3236  7120.23  83.8353
 47.3656  7223.07  84.3674
 47.4076  7097.13  83.4362
 47.4496  7083.65  83.451
 47.4916  7048.94  83.4289
 47.5336  7211.25  84.1964
 47.5756  7187.83  84.1817
 47.6176  7073.25  83.4113
 47.6596  7076.19  83.145
 47.7016  7260  84.0383
 47.7436  7114.65  83.5099
 47.7856  7109.96  83.5149
 47.8276  6999.59  82.9168
 47.8696  7146.03  83.8649
 47.9116  7186.72  83.814
 47.9536  7101.32  83.2612
 47.9956  7022.56  83.4999
 48.0376  6971.15  82.9722
 48.0796  7112.34  83.9366
 48.1216  7163.57  84.0544
 48.1636  7198.91  83.8364
 48.2056  7132.3  83.7088
 48.2476  7130.92  84.0094
 48.2896  7130.34  83.9121
 48.3316  6975.88  82.9476
 48.3736  7031.46  83.2885
 48.4156  6880.22  82.2518
 48.4576  7002.91  83.2741
 48.4996  7050.82  83.0178
 48.5416  7094.31  83.5986
 48.5836  7040.57  82.9627
 48.6256  6967.72  82.7242
 48.6676  6983.49  83.3286
 48.7096  7078.68  83.1694
 48.7516  6958.33  82.6077
 48.7936  6953.28  82.6412
 48.8356  6992.28  82.9234
 48.8776  6978.59  83.4018
 48.9196  7112.73  83.5704
 48.9616  6887.89  82.618
 49.0036  6990.35  83.5758
 49.0456  6961.38  83.3813
 49.0876  6956.08  82.8906
 49.1296  6852.17  82.429
 49.1716  6914.39  82.6784
 49.2136  6888.04  82.4259
 49.2556  6973.28  82.9796
 49.2976  6992.46  83.1642
 49.3396  6868.15  82.4814
 49.3816  7065.88  83.0982
 49.4236  7007  83.1689
 49.4656  6842.16  82.2006
 49.5076  7020.02  83.0138
 49.5496  6851.71  82.0761
 49.5916  6956.73  82.6175
 49.6336  6815.73  81.9707
 49.6756  6883.72  82.6082
 49.7176  6858.94  82.4078
 49.7596  6881.43  82.3118
 49.8016  6909.72  82.402
 49.8436  6863.23  82.4163
 49.8856  6860.61  82.4117
 49.9276  6741.22  81.7816
 49.9696  6849.25  82.4177
 50.0116  6842.23  82.5002
 50.0536  6944.29  83.074
 50.0956  6832.49  82.4704
 50.1376  6827.01  82.1297
 50.1796  6777.39  82.1038
 50.2216  6833.97  82.4431
 50.2636  6810.08  81.9183
 50.3056  6761.49  81.7982
 50.3476  6820.47  82.182
 50.3896  6711.9  81.4881
 50.4316  6882.62  82.3564
 50.4736  6756.37  81.8158
 50.5156  6831.89  82.2564
 50.5576  6826.07  81.9925
 50.5996  6718.33  81.6111
 50.6416  6678.03  81.2976
 50.6836  6766.16  81.8954
 50.7256  6871.04  82.4516
 50.7676  6721.49  81.862
 50.8096  6803  81.8981
 50.8516  6750.56  81.9961
 50.8936  6609.58  80.9135
 50.9356  6730.68  81.7573
 50.9776  6736.06  81.9452
 51.0196  6663.47  81.6303
 51.0616  6574.47  80.421
 51.1036  6735.62  81.7532
 51.1456  6712.83  81.5263
 51.1876  6720.75  80.9235
 51.2296  6707.87  81.4773
 51.2716  6699.32  81.1254
 51.3136  6637.64  81.1958
 51.3556  6596.96  80.587
 51.3976  6591.44  80.705
 51.4396  6576.19  80.914
 51.4816  6528.84  80.4649
 51.5236  6739.92  81.851
 51.5656  6525.51  80.149
 51.6076  6721.07  81.4253
 51.6496  6615.13  80.9682
 51.6916  6586.56  81.1391
 51.7336  6610.43  81.3829
 51.7756  6629.53  81.2023
 51.8176  6523.86  80.651
 51.8596  6624.82  81.2951
 51.9016  6740.53  81.6084
 51.9436  6613.33  82.2851
 51.9856  6508.83  82.0621
 52.0276  6486.14  80.4449
 52.0696  6558.07  80.9536
 52.1116  6618.97  81.4444
 52.1536  6553.04  80.9238
 52.1956  6593.03  80.6351
 52.2376  6767.88  81.8773
 52.2796  6550.45  80.3423
 52.3216  6487.32  80.6609
 52.3636  6473.92  80.1604
 52.4056  6516.11  80.2765
 52.4476  6544.75  80.8196
 52.4896  6370.53  79.7882
 52.5316  6491.92  80.5854
 52.5736  6533.38  80.5722
 52.6156  6490.41  80.6695
 52.6576  6584.88  80.7084
 52.6996  6333.24  80.1132
 52.7416  6486.43  80.9224
 52.7836  6462.5  80.6566
 52.8256  6483.84  80.0314
 52.8676  6294.81  79.4209
 52.9096  6519.96  80.9084
 52.9516  6443.6  80.7935
 52.9936  6389.95  80.8521
 53.0356  6364.73  79.7067
 53.0776  6361.14  79.9421
 53.1196  6307.82  79.7303
 53.1616  6289.46  79.6623
 53.2036  6256.87  79.4145
 53.2456  6306.48  79.829
 53.2876  6196.67  78.8415
 53.3296  6274.93  79.659
 53.3716  6383.32  80.0856
 53.4136  6367.59  80.1402
 53.4556  6328.45  79.9238
 53.4976  6430.73  80.4137
 53.5396  6347.82  80.2824
 53.5816  6294.39  79.5867
 53.6236  6206.65  79.3664
 53.6656  6250.99  79.2821
 53.7076  6377.73  80.0416
 53.7496  6239.83  79.2877
 53.7916  6266.37  79.5867
 53.8336  6260.8  79.4474
 53.8756  6238.09  79.8412
 53.9176  6346.27  79.8878
 53.9596  6398.35  80.9771
 54.0016  6316.44  79.7926
 54.0436  6312.03  79.977
 54.0856  6372.41  79.7902
 54.1276  6323.58  79.6775
 54.1696  6225.69  79.2293
 54.2116  6253.8  79.168
 54.2536  6212.41  78.7217
 54.2956  6366.3  79.7375
 54.3376  6266.93  79.5943
 54.3796  6312.95  79.7883
 54.4216  6368.82  80.1841
 54.4636  6229.85  79.2625
 54.5056  6319.54  79.6545
 54.5476  6234.84  79.4497
 54.5896  6322.78  79.8446
 54.6316  6267.86  79.354
 54.6736  6325.48  79.793
 54.7156  6331.44  79.8537
 54.7576  6223.6  79.1665
 54.7996  6340.19  80.0317
 54.8416  6326.17  80.0019
 54.8836  6150.67  78.9949
 54.9256  6304.13  79.7256
 54.9676  6349.47  79.8702
 55.0096  6241.19  79.2484
 55.0516  6261.88  79.6151
 55.0936  6271.49  79.2938
 55.1356  6239.5  79.147
 55.1776  6165.7  78.9372
 55.2196  6187.66  78.8662
 55.2616  6235.97  79.3891
 55.3036  6217.21  79.4268
 55.3456  6203.74  79.4834
 55.3876  6240.96  79.473
 55.4296  6236.51  79.4181
 55.4716  6274.6  79.697
 55.5136  6207.14  79.0253
 55.5556  6212.89  79.133
 55.5976  6267.41  79.536
 55.6396  6162.83  78.8167
 55.6816  6192.43  78.884
 55.7236  6280.99  79.4904
 55.7656  6251.43  79.0585
 55.8076  6305.97  79.3842
 55.8496  6189.9  78.9699
 55.8916  6171.8  79.0591
 55.9336  6140.95  78.6757
 55.9756  6191.61  78.8938
 56.0176  6155.23  78.814
 56.0596  6206.94  79.1251
 56.1016  6265.61  79.5084
 56.1436  6197.14  79.3388
 56.1856  6231.53  79.3
 56.2276  6250.72  79.4773
 56.2696  6186.88  79.0419
 56.3116  6207.99  79.5789
 56.3536  6236.42  79.4185
 56.3956  6215.86  79.2795
 56.4376  6142.04  78.8393
 56.4796  6261.12  79.4009
 56.5216  6175.38  79.2303
 56.5636  6225.31  79.1386
 56.6056  6136.31  78.799
 56.6476  6107.74  78.2468
 56.6896  6217.41  79.3958
 56.7316  6161.08  78.9478
 56.7736  6251.81  79.5241
 56.8156  6193.77  79.1441
 56.8576  6080.02  78.3623
 56.8996  6275.73  79.5499
 56.9416  6182.56  79.2612
 56.9836  6124.03  78.3987
 57.0256  6044.54  78.2015
 57.0676  6077.37  78.5399
 57.1096  6201.71  79.126
 57.1516  6200.45  79.1815
 57.1936  6110.55  78.3562
 57.2356  6169.5  79.0489
 57.2776  6137.96  78.8039
 57.3196  6088.48  78.8531
 57.3616  6130.96  78.6252
 57.4036  6170.77  78.9413
 57.4456  6103.51  78.4742
 57.4876  6186.94  78.8698
 57.5296  6127.5  78.8262
 57.5716  6019.82  78.1121
 57.6136  6140.08  78.7161
 57.6556  6168.11  79.0391
 57.6976  6174.47  78.9022
 57.7396  6115.29  78.8969
 57.7816  6046.11  78.8049
 57.8236  6099.75  78.9419
 57.8656  6110.19  78.6719
 57.9076  6148.99  78.9493
 57.9496  6055.99  78.6998
 57.9916  6124.66  78.6577
 58.0336  6116.2  78.8793
 58.0756  6123.58  78.5638
 58.1176  6219.97  79.1747
 58.1596  6097.19  78.9532
 58.2016  6258.35  79.2044
 58.2436  6177.45  79.1082
 58.2856  6061.64  78.2818
 58.3276  6008.86  78.3107
 58.3696  5961.7  77.7551
 58.4116  6211.41  79.2275
 58.4536  6163.39  78.8041
 58.4956  6109.16  78.6423
 58.5376  6255.2  79.143
 58.5796  6178.81  79.0775
 58.6216  6133.78  78.6103
 58.6636  6195.75  79.2205
 58.7056  6176.04  78.9534
 58.7476  6069.93  78.7178
 58.7896  6145.04  78.8451
 58.8316  6149.39  78.8691
 58.8736  6169.16  79.0008
 58.9156  6109.86  78.6665
 58.9576  6234.07  79.7897
 58.9996  6243.45  79.087
 59.0416  6248.05  79.4762
 59.0836  6186.15  79.0099
 59.1256  6098.35  79.1481
 59.1676  6143.76  79.7515
 59.2096  6204.88  79.4459
 59.2516  6278.7  79.49
 59.2936  6324.69  80.1163
 59.3356  6058.93  78.2926
 59.3776  6212.86  79.4522
 59.4196  6181.38  79.1859
 59.4616  6226.56  79.3326
 59.5036  6100.81  78.5631
 59.5456  6241.14  79.1497
 59.5876  6252.25  79.4145
 59.6296  6157.08  78.8777
 59.6716  6210.19  79.2759
 59.7136  6178.46  79.0612
 59.7556  6235.72  79.5654
 59.7976  6195.71  79.0486
 59.8396  6189.67  78.903
 59.8816  6133.8  79.096
 59.9236  6149.86  78.8397
 59.9656  6056.42  78.4995
 60.0076  6389.22  79.9664
 60.0496  6179.26  79.1465
 60.0916  6124.84  78.2159
 60.1336  6140.66  79.4334
 60.1756  6165.03  80.7872
 60.1996  0.0000000E+00  0.0000000E+00