File: docs/examples/opeando_xrd/IS17_D/Data/IS17_D/17_Da_f00081.xye
# /beamlines/bl04/projects/cycle2025-II/20250340211-lsimonelli/DATA/IS17_D/17_Da_f00081.xye : mythproc.py merge -s 0.006 -l 0.5 -f /beamlines/bl04/inhouse/ff/FlatField/ff_20Nov2024rod8mm60s_17keV.raw -b True -c true -o xye /beamlines/bl04/projects/cycle2025-II/20250340211-lsimonelli/DATA/IS17_D/17_Da_00081.dat
# IsMon = [6769774, 6769333, 6767582]  IsPos = [-1.4999, -2.4884, -3.4988]
# Wave = 0.4962  CalPath /beamlines/bl04/projects/cycle2025-II/20250340211-lsimonelli/DATA/Align/Si_Pos1_25keV_f00001.cal
# Date = 2025-09-24_16:07:48 Dt = 4.8000  Bin = 0.0060  <imon> = 6768896 +/- 947 (Min/Max) 6767582 / 6769774
# icurr 250.8187  mocoIn 1.7107E-05  mocoOut 0.8023  i15 7.08438e+06  imon 6.7689e+06  i7 7.6667  iEMpd_timer 4.8000  iEMpd_1 3.3780E-08  iEMpd_2 7.7656E-08  iEMpd_3 1.6729E-08  iEMpd_4 4.6972E-08  iEMhp_timer 4.8000  iEMhp_1 4.8981E-06  iEMhp_2 -2.4454E-08  iEMhp_3 -2.4423E-08  iEMhp_4 -2.1159E-08
#      9776
 1.5856  40301  206.126
 1.6276  46690.8  218.059
 1.6696  53809.9  233.268
 1.7116  61976.6  250.834
 1.7536  70815.5  266.982
 1.7956  76167.4  277.579
 1.8376  71739.5  269.817
 1.8796  60499.5  245.956
 1.9216  48602.9  221.331
 1.9636  40768.4  201.878
 2.0056  36835.8  191.151
 2.0476  34434.9  186.842
 2.0896  32516.4  180.498
 2.1316  32061.6  178.37
 2.1736  30131.9  174.29
 2.2156  31303.7  176.221
 2.2576  29434.4  171.491
 2.2996  28586.9  169.625
 2.3416  29073.5  169.694
 2.3836  28559.3  168.293
 2.4256  27605.9  166
 2.4676  27225.3  164.618
 2.5096  26883.3  163.634
 2.5516  30127.1  177.192
 2.5936  85192.5  292.03
 2.6356  27921.5  167.89
 2.6776  25985.8  160.858
 2.7196  25407.9  159.579
 2.7616  25288.7  158.984
 2.8036  24738.1  157.409
 2.8456  24647.7  157.728
 2.8876  24269.9  156.395
 2.9296  23796.5  154.983
 2.9716  23839.5  154.624
 3.0136  23462.8  153.462
 3.0556  23724.4  154.706
 3.0976  23543.4  153.059
 3.1396  23243.9  152.792
 3.1816  22927.9  151.685
 3.2236  23041  152.062
 3.2656  22969.4  150.878
 3.3076  22695.3  151.399
 3.3496  23127.4  151.783
 3.3916  23494.8  152.811
 3.4336  23887.6  154.658
 3.4756  24126.6  155.357
 3.5176  25106  158.279
 3.5596  25045.9  160.505
 3.6016  25095.2  158.305
 3.6436  24274.3  156.778
 3.6856  23675.1  153.152
 3.7276  23062.9  152.244
 3.7696  22729.5  151.335
 3.8116  22493.4  150.428
 3.8536  22526.3  150.473
 3.8956  22466.1  150.101
 3.9376  22848.4  151.627
 3.9796  22355.1  149.495
 4.0216  22429.9  148.793
 4.0636  22374.7  150.065
 4.1056  22385.6  149.745
 4.1476  22539.2  150.568
 4.1896  22838.3  151.428
 4.2316  22950.9  151.627
 4.2736  23412.5  152.931
 4.3156  23556.1  153.636
 4.3576  24380.9  156.223
 4.3996  24546.1  157.007
 4.4416  25434.6  159.41
 4.4836  26297.8  162.246
 4.5256  26155.1  162.41
 4.5676  25940.3  161.998
 4.6096  26573.4  162.624
 4.6516  27108.5  163.968
 4.6936  27121.4  164.82
 4.7356  27769.6  166.601
 4.7776  27299.5  165.019
 4.8196  26840.8  164.262
 4.8616  26485.9  162.665
 4.9036  26142.1  161.351
 4.9456  26563.8  163.297
 4.9876  25639  160.334
 5.0296  25855.6  160.82
 5.0716  25755.9  161.294
 5.1136  25729.2  160.917
 5.1556  26290.5  162.132
 5.1976  30719.5  175.239
 5.2396  26967.6  163.893
 5.2816  26666.5  163.429
 5.3236  26953.3  164.02
 5.3656  26445.6  163.382
 5.4076  26295.6  163.07
 5.4496  26342.5  162.708
 5.4916  26435.2  162.747
 5.5336  26455  162.818
 5.5756  26224.3  162.125
 5.6176  26281.6  161.751
 5.6596  26348.3  162.914
 5.7016  26641.1  163.092
 5.7436  26778.1  163.783
 5.7856  26911.1  164.247
 5.8276  27123.4  164.621
 5.8696  27194  165
 5.9116  27225.4  165.699
 5.9536  27520  166.339
 5.9956  27851.9  166.715
 6.0376  27511.8  166.321
 6.0796  27979.8  167.56
 6.1216  28021.2  167.891
 6.1636  28464.8  168.273
 6.2056  28350.2  168.603
 6.2476  28513  168.957
 6.2896  28715.7  169.238
 6.3316  28398.2  168.468
 6.3736  28547.5  168.81
 6.4156  28713.4  169.191
 6.4576  28937.3  169.463
 6.4996  29118.7  170.472
 6.5416  29279.2  171.077
 6.5836  29407.3  171.686
 6.6256  29324.8  170.996
 6.6676  29788.4  171.919
 6.7096  29879.5  173.026
 6.7516  29897.9  172.744
 6.7936  30622.2  174.25
 6.8356  31025  175.471
 6.8776  30933.1  176.018
 6.9196  30642  175.582
 6.9616  31057.4  176.215
 7.0036  31411.5  176.867
 7.0456  31743.4  177.096
 7.0876  31287.7  177.5
 7.1296  31309.2  176.701
 7.1716  31377.7  176.438
 7.2136  31020.3  175.214
 7.2556  31388.9  176.411
 7.2976  31451.8  177.083
 7.3396  31333.6  176.962
 7.3816  31424.4  177.432
 7.4236  31382.8  176.612
 7.4656  31716.1  177.033
 7.5076  32067.9  178.148
 7.5496  31942.4  178.342
 7.5916  31925.9  178.317
 7.6336  32504.9  179.826
 7.6756  32508.7  179.687
 7.7176  32765  180.696
 7.7596  32731.7  181.854
 7.8016  36125  193.324
 7.8436  33618.8  183.181
 7.8856  33982.7  183.777
 7.9276  34484.1  185.532
 7.9696  34498.8  185.876
 8.0116  35677  187.559
 8.0536  35754.8  188.019
 8.0956  37569.3  193.928
 8.1376  36308.9  190.127
 8.1796  36309.1  190.659
 8.2216  37358.1  192.134
 8.2636  38191.5  194.52
 8.3056  37402.6  193.279
 8.3476  38752.7  196.048
 8.3896  38307.6  195.003
 8.4316  37688.4  193.583
 8.4736  38100.1  194.1
 8.5156  37521.8  192.901
 8.5576  37485.6  193.781
 8.5996  37510.7  192.716
 8.6416  37171.8  193.098
 8.6836  37022.6  192.55
 8.7256  37821.6  194.048
 8.7676  38565.2  198.922
 8.8096  38731.8  196.567
 8.8516  37228.7  192.341
 8.8936  37972.5  194.131
 8.9356  36568.1  190.849
 8.9776  36732.4  191.386
 9.0196  36085.7  189.367
 9.0616  36632.4  190.278
 9.1036  37767  194.394
 9.1456  36346  190.077
 9.1876  36125.4  189.445
 9.2296  35824.3  188.064
 9.2716  35500.4  187.27
 9.3136  35041.6  186.041
 9.3556  35761.7  187.922
 9.3976  33952.5  183.625
 9.4396  34740.4  185.643
 9.4816  34186.5  184.012
 9.5236  34116.6  183.744
 9.5656  33893.5  183.467
 9.6076  33689.4  183.445
 9.6496  33497.7  182.838
 9.6916  33814.6  183.677
 9.7336  33605.8  182.883
 9.7756  33810.7  184.705
 9.8176  32986.1  181.916
 9.8596  32860.6  180.024
 9.9016  32379.9  178.696
 9.9436  32448  178.797
 9.9856  32375.3  178.833
 10.0276  31452.1  177.347
 10.0696  31975.5  177.862
 10.1116  31067.9  175.583
 10.1536  30990.2  175.53
 10.1956  30491.5  173.707
 10.2376  30165.7  172.288
 10.2796  30263  172.693
 10.3216  29899.6  171.925
 10.3636  30130.3  172.607
 10.4056  31203.1  176.068
 10.4476  31539.4  176.627
 10.4896  34773.4  184.87
 10.5316  31568.2  176.877
 10.5736  29601.9  171.7
 10.6156  29171.1  170.204
 10.6576  33085.3  179.732
 10.6996  28741.2  168.185
 10.7416  28413.2  167.459
 10.7836  29044.6  170.021
 10.8256  27918.4  167.123
 10.8676  28008.5  166.925
 10.9096  27661  165.931
 10.9516  27361.2  163.958
 10.9936  27972.1  165.973
 11.0356  27632.6  165.609
 11.0776  28209.2  166.629
 11.1196  27798.3  166.166
 11.1616  26602.7  162.244
 11.2036  27406.9  164.521
 11.2456  28496.5  168.507
 11.2876  26445.5  162.047
 11.3296  26548  162.265
 11.3716  26915.5  163.071
 11.4136  26579  162.952
 11.4556  26622.4  162.756
 11.4976  27712.3  164.998
 11.5396  27915.4  165.772
 11.5816  26586.6  162.244
 11.6236  26060.5  160.848
 11.6656  25850.9  159.354
 11.7076  25420.8  158.861
 11.7496  25763.3  163.875
 11.7916  25890.1  159.579
 11.8336  24954  157.553
 11.8756  25115  157.592
 11.9176  24914.8  156.62
 11.9596  24436.2  155.284
 12.0016  24514.5  156.331
 12.0436  24445.8  155.534
 12.0856  24292.4  155.569
 12.1276  24262.9  155.386
 12.1696  24205.9  154.35
 12.2116  24584.1  155.548
 12.2536  26447.8  162.2
 12.2956  24563.1  155.649
 12.3376  24192.6  154.672
 12.3796  24193.1  155.138
 12.4216  24398.3  155.012
 12.4636  24839.8  157.314
 12.5056  23929.8  153.702
 12.5476  24073.9  153.696
 12.5896  24094.2  154.39
 12.6316  23672.7  153.192
 12.6736  23811.1  154.122
 12.7156  23792.4  153.922
 12.7576  23900.6  154.519
 12.7996  24047.8  153.637
 12.8416  24024.2  154.614
 12.8836  24897.3  157.228
 12.9256  24598.2  155.291
 12.9676  24614.2  155.767
 13.0096  24166.9  155.423
 13.0516  24500.7  155.542
 13.0936  24388.2  155.582
 13.1356  24738.8  155.682
 13.1776  24691.8  156.528
 13.2196  24445.1  155.402
 13.2616  24423.7  155.642
 13.3036  24348.5  155.371
 13.3456  24501.1  156.216
 13.3876  24632  155.915
 13.4296  24302  155.02
 13.4716  24702.4  155.898
 13.5136  24539.5  155.546
 13.5556  24641  156.473
 13.5976  24455  156.035
 13.6396  24929.5  156.906
 13.6816  24392  155.696
 13.7236  25027  157.362
 13.7656  24520.8  156.278
 13.8076  25014.5  156.625
 13.8496  24241.7  154.778
 13.8916  24343.9  156.114
 13.9336  24235.3  154.996
 13.9756  23989.7  153.555
 14.0176  24065.7  154.485
 14.0596  24773.8  156.705
 14.1016  23546.8  153.164
 14.1436  23455.5  152.003
 14.1856  23329.2  151.889
 14.2276  23358.1  152.461
 14.2696  23486.8  152.719
 14.3116  23013.5  151.078
 14.3536  22359.4  149.095
 14.3956  22439.7  149.094
 14.4376  22598.4  149.403
 14.4796  22477.8  148.99
 14.5216  22401.4  149.539
 14.5636  22551.3  149.597
 14.6056  22150.2  147.843
 14.6476  22062.8  146.785
 14.6896  21893.8  146.757
 14.7316  21505.1  146.477
 14.7736  21276.6  144.851
 14.8156  21369.8  145.204
 14.8576  21176.1  144.393
 14.8996  20965.1  144.88
 14.9416  20223.7  142.29
 14.9836  20466.9  143.108
 15.0256  20240.6  141.253
 15.0676  20216  141.482
 15.1096  20226.4  141.255
 15.1516  19804.4  140.323
 15.1936  19492.8  138.654
 15.2356  19529.5  139.064
 15.2776  19461.9  138.409
 15.3196  19029.5  137.86
 15.3616  19244.8  138.396
 15.4036  19116.4  137.788
 15.4456  19371.6  138.346
 15.4876  18920.1  136.41
 15.5296  18806.3  136.286
 15.5716  18307.9  134.072
 15.6136  18458.6  134.946
 15.6556  20012.4  139.723
 15.6976  18534.2  134.755
 15.7396  18378.7  134.588
 15.7816  18361.4  134.031
 15.8236  17929.1  133.142
 15.8656  17953.4  133.022
 15.9076  17771  132.169
 15.9496  18010.2  135.864
 15.9916  17616.4  134.797
 16.0336  17140.1  129.89
 16.0756  17283.7  130.744
 16.1176  17160.9  130.355
 16.1596  16755.5  129.968
 16.2016  17008.8  129.701
 16.2436  17073.7  130.332
 16.2856  16994.3  129.57
 16.3276  16444.9  127.876
 16.3696  16766.2  128.929
 16.4116  16560.8  128.604
 16.4536  16573.8  128.436
 16.4956  17452  131.527
 16.5376  16511  128.121
 16.5796  16465.9  127.305
 16.6216  16595.6  128.101
 16.6636  16481.2  127.835
 16.7056  16288.2  126.943
 16.7476  16527.9  127.398
 16.7896  16393.7  127.63
 16.8316  16259.7  127.075
 16.8736  16533.5  128.393
 16.9156  16424.7  128.313
 16.9576  16191.4  128.195
 16.9996  16303.9  129.127
 17.0416  16281.9  127.387
 17.0836  16024.1  126.133
 17.1256  15956  125.878
 17.1676  16270.2  127.103
 17.2096  15958.7  125.758
 17.2516  15655.4  124.338
 17.2936  15621.7  124.525
 17.3356  15433.8  123.773
 17.3776  15422.1  123.928
 17.4196  15621.5  124.414
 17.4616  15451.8  123.658
 17.5036  15737.4  125.168
 17.5456  15025.6  122.939
 17.5876  15088.1  122.245
 17.6296  15253.2  122.732
 17.6716  15168.1  122.962
 17.7136  15423.9  124.137
 17.7556  15160.5  123.367
 17.7976  15170.4  123.148
 17.8396  14892.1  121.51
 17.8816  15004.8  122.52
 17.9236  14912.3  121.946
 17.9656  14980.9  122.777
 18.0076  15338.6  123.805
 18.0496  15301.5  122.776
 18.0916  18198.7  134.483
 18.1336  16578.6  128.459
 18.1756  15504.4  123.756
 18.2176  15733.1  124.899
 18.2596  14942.4  121.456
 18.3016  15311.8  123.205
 18.3436  15717.5  124.834
 18.3856  15069.1  122.362
 18.4276  14903.7  121.358
 18.4696  14940.4  121.618
 18.5116  15000.3  122.15
 18.5536  14898.8  122.104
 18.5956  14741.1  120.998
 18.6376  14745.4  121.429
 18.6796  14620.9  120.23
 18.7216  14711.7  121.095
 18.7636  14402.9  119.81
 18.8056  14192.8  118.872
 18.8476  14132.9  119.248
 18.8896  14246.9  119.059
 18.9316  14479.4  120.016
 18.9736  14238.9  118.703
 19.0156  14458.2  120.025
 19.0576  14352.3  118.437
 19.0996  14388.4  119.31
 19.1416  14137.5  118.649
 19.1836  14123.3  118.198
 19.2256  14073.9  118.204
 19.2676  13992.1  117.95
 19.3096  14081.9  118.581
 19.3516  14048.7  118.396
 19.3936  14031.3  118.221
 19.4356  13939.7  117.703
 19.4776  14123.5  118.571
 19.5196  13975.6  117.81
 19.5616  13943.6  117.927
 19.6036  14127.5  118.197
 19.6456  14089.6  118.16
 19.6876  14403.1  119.107
 19.7296  14023.4  117.98
 19.7716  13953.5  117.85
 19.8136  14099.9  118.677
 19.8556  14565.1  120.089
 19.8976  14676.2  120.612
 19.9396  14563.7  119.722
 19.9816  14731.5  120.652
 20.0236  15099.1  122.374
 20.0656  14485.4  119.859
 20.1076  13991.9  118.254
 20.1496  13856.2  117.69
 20.1916  13971.3  117.689
 20.2336  13876.3  117.227
 20.2756  13525.9  116.161
 20.3176  13586.3  116.168
 20.3596  13710.8  116.68
 20.4016  13525.5  115.69
 20.4436  13543.8  116.324
 20.4856  13375.9  115.39
 20.5276  13395.2  115.93
 20.5696  13359.3  115.234
 20.6116  13327.6  115.377
 20.6536  13186.3  114.277
 20.6956  13237.9  114.623
 20.7376  13342.9  115.311
 20.7796  13248.4  114.589
 20.8216  13479.2  115.289
 20.8636  13285  114.81
 20.9056  14126.3  118.349
 20.9476  13332.8  114.812
 20.9896  14183.5  118.283
 21.0316  13454.7  115.1
 21.0736  13451.6  115.611
 21.1156  13643.9  116.6
 21.1576  13292.4  115.134
 21.1996  13264.5  114.999
 21.2416  13061.6  113.942
 21.2836  13234.7  114.658
 21.3256  13059.3  113.979
 21.3676  13316.3  114.644
 21.4096  13305.8  114.901
 21.4516  12988.1  113.411
 21.4936  12924.6  113.386
 21.5356  12982.6  113.584
 21.5776  13093.2  113.9
 21.6196  13090  113.918
 21.6616  12882.6  113.104
 21.7036  12872.2  112.838
 21.7456  12884.6  112.966
 21.7876  12730  112.035
 21.8296  12776.7  112.101
 21.8716  12773.9  112.316
 21.9136  13026.9  113.628
 21.9556  13028.5  113.304
 21.9976  12795.4  112.294
 22.0396  12644.3  111.891
 22.0816  12931.2  113.703
 22.1236  13141  114.063
 22.1656  12835.7  112.845
 22.2076  12737.2  111.898
 22.2496  12772  112.076
 22.2916  12863.1  112.357
 22.3336  12887.4  113.195
 22.3756  12731.8  112.232
 22.4176  12804.1  112.406
 22.4596  12441.4  111.388
 22.5016  12948  113.117
 22.5436  12763.8  112.196
 22.5856  12883.5  112.968
 22.6276  12652.8  112.087
 22.6696  12607.6  112.237
 22.7116  12565.8  111.562
 22.7536  12719.6  112.223
 22.7956  12826.3  112.014
 22.8376  12664.9  111.838
 22.8796  12712.4  111.843
 22.9216  12770.2  112.652
 22.9636  12743.6  111.678
 23.0056  12677.9  111.519
 23.0476  12930.3  113.208
 23.0896  13003.1  112.894
 23.1316  12892.4  112.855
 23.1736  12548.4  114.273
 23.2156  12801.1  112.779
 23.2576  12676.3  112.35
 23.2996  12652.8  112.042
 23.3416  12567.6  112.168
 23.3836  12613.1  111.617
 23.4256  12544.6  111.425
 23.4676  12710.9  111.852
 23.5096  12622.5  112.145
 23.5516  12614  111.392
 23.5936  12533.2  111.938
 23.6356  12687.8  112.289
 23.6776  12573  111.996
 23.7196  12504.4  111.265
 23.7616  12687.9  111.996
 23.8036  12553.7  111.435
 23.8456  12517.7  110.852
 23.8876  12284.9  110.161
 23.9296  12187  110.213
 23.9716  12423  110.468
 24.0136  12514.3  111.778
 24.0556  12227.4  110.223
 24.0976  12213.6  109.968
 24.1396  12125.2  112.23
 24.1816  12284  111.359
 24.2236  12279.3  110.939
 24.2656  12084.8  109.526
 24.3076  11954.1  109.185
 24.3496  12335  110.803
 24.3916  12125  109.905
 24.4336  11984.9  109.474
 24.4756  11918.9  109.047
 24.5176  11749.4  107.915
 24.5596  11686.8  107.755
 24.6016  11718.4  108.183
 24.6436  11915.8  108.576
 24.6856  11871.2  108.137
 24.7276  11737.6  107.844
 24.7696  11705.3  107.81
 24.8116  11689.2  107.916
 24.8536  11710.4  108.008
 24.8956  11522.3  106.877
 24.9376  11638.3  107.351
 24.9796  11409.9  106.647
 25.0216  11255.2  106.032
 25.0636  11552.3  107.074
 25.1056  11113.5  105.719
 25.1476  11386.3  108.68
 25.1896  11553.1  107.939
 25.2316  11411.1  106.545
 25.2736  11390.3  106.089
 25.3156  11240  105.47
 25.3576  11293.5  106.143
 25.3996  11279.8  106.053
 25.4416  11316.5  106.214
 25.4836  11008.2  105.277
 25.5256  11121.6  105.185
 25.5676  11265.2  105.589
 25.6096  11126.2  105.51
 25.6516  11132.9  105.036
 25.6936  11122.4  105.302
 25.7356  11033.5  105.021
 25.7776  11101.4  104.946
 25.8196  10962.2  104.521
 25.8616  10967.9  104.467
 25.9036  11327.3  105.632
 25.9456  10978.5  104.583
 25.9876  10987.8  104.695
 26.0296  11095.4  104.716
 26.0716  10862.5  104.02
 26.1136  11128.3  105.236
 26.1556  11202.6  104.969
 26.1976  10871.1  104.325
 26.2396  11068.7  104.422
 26.2816  10953  104.486
 26.3236  11022.1  104.97
 26.3656  11024.6  104.703
 26.4076  10912.4  104.376
 26.4496  11438.4  106.376
 26.4916  10885.7  103.756
 26.5336  10846.2  103.886
 26.5756  11177.3  105.332
 26.6176  10976.8  104.423
 26.6596  10842.3  104.088
 26.7016  10711  103.215
 26.7436  10643.6  103.016
 26.7856  10633  102.95
 26.8276  10606.3  102.776
 26.8696  10626.1  102.75
 26.9116  10667  102.878
 26.9536  10602.9  102.622
 26.9956  10631  102.794
 27.0376  10426.8  102.007
 27.0796  10622.4  102.698
 27.1216  10642  102.865
 27.1636  10499.3  102.34
 27.2056  10537.8  102.41
 27.2476  10505.1  102.254
 27.2896  10479.4  102.241
 27.3316  10409.8  101.608
 27.3736  10469.7  102.174
 27.4156  10291.1  101.138
 27.4576  10410.5  101.955
 27.4996  10410.8  101.548
 27.5416  10319  101.419
 27.5836  10382.8  101.547
 27.6256  10750  103.513
 27.6676  10608.8  102.84
 27.7096  10349.5  101.431
 27.7516  10692.5  103.258
 27.7936  10564.8  102.811
 27.8356  10383.9  101.545
 27.8776  10373.3  101.536
 27.9196  10366.3  101.357
 27.9616  10462.4  102.01
 28.0036  10299.6  101.197
 28.0456  10225.2  100.96
 28.0876  10145.8  100.658
 28.1296  10041  99.974
 28.1716  10155.9  100.551
 28.2136  10197  100.725
 28.2556  10106.3  100.39
 28.2976  10195.5  100.82
 28.3396  10180.5  100.51
 28.3816  10056.5  99.9121
 28.4236  10171.5  100.641
 28.4656  9959.77  99.6203
 28.5076  9926.44  99.0901
 28.5496  9899.29  99.2179
 28.5916  9912.83  99.0929
 28.6336  9877.52  99.2572
 28.6756  10003.1  99.0856
 28.7176  10029.6  99.7646
 28.7596  9742.14  98.2279
 28.8016  10011.8  99.6112
 28.8436  9784.6  98.7177
 28.8856  9812.1  98.704
 28.9276  9988.63  99.8365
 28.9696  9765.98  98.3735
 29.0116  9766.79  98.5717
 29.0536  9691.15  98.3841
 29.0956  9893.14  99.1201
 29.1376  9778.36  98.5067
 29.1796  9689.05  98.0982
 29.2216  9776.89  98.3856
 29.2636  9814.66  98.6482
 29.3056  9712.78  97.9282
 29.3476  9801.09  98.8992
 29.3896  9921.33  99.6027
 29.4316  9898.37  98.8242
 29.4736  9748.1  98.1375
 29.5156  9854.07  98.5806
 29.5576  9757.25  98.8431
 29.5996  9758.88  98.1057
 29.6416  9614.76  97.4868
 29.6836  9770.95  98.2153
 29.7256  9769.42  98.7767
 29.7676  9751.24  98.3471
 29.8096  9792.06  98.4922
 29.8516  9574.41  97.7288
 29.8936  9645.37  98.1796
 29.9356  9893.85  99.1868
 29.9776  9587.12  97.7915
 30.0196  9610.36  97.2915
 30.0616  9654.23  97.8931
 30.1036  9561.73  97.2467
 30.1456  9479.44  97.065
 30.1876  9546.85  97.3837
 30.2296  9603.07  97.6206
 30.2716  9632.72  97.4051
 30.3136  9575.79  97.9773
 30.3556  9671.16  98.4698
 30.3976  9558.74  99.4349
 30.4396  9820.22  98.0654
 30.4816  9609.13  96.6111
 30.5236  9575.87  96.4603
 30.5656  9447.96  96.4656
 30.6076  9496.98  96.1506
 30.6496  9567.74  96.888
 30.6916  9292.18  95.5807
 30.7336  9599.37  97.2969
 30.7756  9424.25  96.494
 30.8176  9498.71  96.7903
 30.8596  9383  95.9722
 30.9016  9379.18  96.2932
 30.9436  9379.86  96.051
 30.9856  9417.47  96.3391
 31.0276  9315.08  95.4255
 31.0696  9407.47  96.4842
 31.1116  9269.49  95.7486
 31.1536  9468.17  96.6543
 31.1956  9405.33  96.4206
 31.2376  9180.86  95.2768
 31.2796  9380.4  95.8328
 31.3216  9391  95.8374
 31.3636  9336.56  96.2459
 31.4056  9348.67  97.6348
 31.4476  9238.83  94.94
 31.4896  9205.7  95.2733
 31.5316  9512.77  96.2305
 31.5736  9860.22  97.7989
 31.6156  9625.06  96.6456
 31.6576  9545.93  96.3515
 31.6996  9484.68  95.7028
 31.7416  9136.66  94.9818
 31.7836  9412.51  95.4202
 31.8256  9255.27  94.891
 31.8676  9393.85  95.5939
 31.9096  9133.5  94.6163
 31.9516  9046.23  94.3233
 31.9936  9140.43  94.6399
 32.0356  9094.55  94.4686
 32.0776  9240.14  95.1036
 32.1196  9163.14  94.7943
 32.1616  9304.83  94.9793
 32.2036  8852.75  93.1468
 32.2456  9232.28  95.5076
 32.2876  9178.67  94.7241
 32.3296  8927.47  93.3846
 32.3716  9162.7  94.7185
 32.4136  9126.46  94.7503
 32.4556  9221.11  94.6033
 32.4976  9270.31  94.7636
 32.5396  9056.75  93.7406
 32.5816  9001.64  93.5721
 32.6236  9163.49  94.4794
 32.6656  9289.51  95.6798
 32.7076  9021.8  93.9451
 32.7496  8993.5  93.4594
 32.7916  9054.89  93.742
 32.8336  9110.47  94.1266
 32.8756  9185.57  94.2346
 32.9176  8893.98  93.2026
 32.9596  8998.46  93.8247
 33.0016  8956.41  93.4035
 33.0436  9001.43  93.8086
 33.0856  8971.07  93.7178
 33.1276  8955.67  93.3672
 33.1696  8869.21  92.7585
 33.2116  9110.54  94.2484
 33.2536  8937.82  93.3448
 33.2956  9017.01  93.8469
 33.3376  8908.6  93.0211
 33.3796  8992.56  93.6642
 33.4216  8979.87  93.1976
 33.4636  8950.85  93.193
 33.5056  8891.17  93.121
 33.5476  8755.44  92.3957
 33.5896  8910.6  92.9897
 33.6316  8858.87  93.0322
 33.6736  8715.62  92.5126
 33.7156  8814.94  93.0922
 33.7576  8850.33  92.8989
 33.7996  9035.46  93.6336
 33.8416  8712.89  92.1269
 33.8836  8899.38  92.8921
 33.9256  8707.21  91.9392
 33.9676  8929.83  93.0086
 34.0096  8646.79  91.8269
 34.0516  8661.94  91.5518
 34.0936  8621.17  91.5968
 34.1356  8900.19  92.8131
 34.1776  8698.77  91.7708
 34.2196  8571.12  91.2689
 34.2616  8601.86  91.5662
 34.3036  8602.43  91.8132
 34.3456  8573.75  91.4158
 34.3876  8614.31  91.599
 34.4296  8707.2  91.782
 34.4716  8811.57  92.4797
 34.5136  8742.93  92.3245
 34.5556  8688.17  92.2917
 34.5976  8729.33  92.3039
 34.6396  8642.98  91.5624
 34.6816  8639.74  91.6592
 34.7236  8641.67  91.4563
 34.7656  8638.94  91.6306
 34.8076  8628.74  91.9059
 34.8496  8649.55  91.8758
 34.8916  8563.74  91.2878
 34.9336  8746.31  92.2215
 34.9756  8676.24  91.7716
 35.0176  8580.42  91.7847
 35.0596  8525.11  91.3207
 35.1016  8583.09  91.398
 35.1436  8610.46  91.2276
 35.1856  8419.8  90.3405
 35.2276  8494.35  90.9137
 35.2696  8495.84  91.1146
 35.3116  8514.22  91.3075
 35.3536  8421.14  90.516
 35.3956  8395.63  90.0892
 35.4376  8477.82  91.0758
 35.4796  8511.18  91.3225
 35.5216  8518.83  91.3193
 35.5636  8199.35  90.3303
 35.6056  8485.91  90.9071
 35.6476  8465.78  90.6981
 35.6896  8440.05  90.6427
 35.7316  8438.52  90.6102
 35.7736  8422.52  90.7268
 35.8156  8378.33  90.4807
 35.8576  8428.63  91.0105
 35.8996  8471.1  91.1984
 35.9416  8573.27  91.2402
 35.9836  8354.1  90.4302
 36.0256  8495.24  91.2057
 36.0676  8548.45  91.2508
 36.1096  8290.88  89.9979
 36.1516  8335.35  90.1279
 36.1936  8427.89  90.4795
 36.2356  8286.42  90.3549
 36.2776  8409.5  90.5063
 36.3196  8357.31  89.8889
 36.3616  8355.19  90.0106
 36.4036  8391.28  90.2572
 36.4456  8379.62  90.4046
 36.4876  8288.19  89.8427
 36.5296  8373.61  90.358
 36.5716  8280.32  90.6288
 36.6136  8456.87  90.3572
 36.6556  8384.65  90.1799
 36.6976  8393.52  90.7252
 36.7396  8378.78  90.3728
 36.7816  8227.62  89.9277
 36.8236  8319.45  90.354
 36.8656  8366.6  90.6781
 36.9076  8293.12  90.1564
 36.9496  8354.6  90.4834
 36.9916  8203.49  89.2854
 37.0336  8370.38  90.5123
 37.0756  8365.47  90.2736
 37.1176  8139.47  89.3142
 37.1596  8193.42  89.615
 37.2016  8203.14  89.8933
 37.2436  8494.66  90.7791
 37.2856  8222.22  89.5653
 37.3276  8360.46  89.6652
 37.3696  8268.42  90.0615
 37.4116  8207.73  89.6365
 37.4536  8213.07  89.5295
 37.4956  8120.89  89.0737
 37.5376  8198.02  91.0566
 37.5796  8134.69  90.6582
 37.6216  7998.03  88.1579
 37.6636  8024.82  88.2104
 37.7056  8154.25  89.1182
 37.7476  8054.87  88.108
 37.7896  7982.68  88.2031
 37.8316  7926.19  88.0639
 37.8736  8192.62  89.0607
 37.9156  8034.64  88.1955
 37.9576  8192.38  88.9462
 37.9996  8040.24  87.8327
 38.0416  8021.69  88.5463
 38.0836  8179.68  89.3166
 38.1256  8127.08  88.9809
 38.1676  7948.6  88.1416
 38.2096  8150.59  88.87
 38.2516  8074.42  88.6639
 38.2936  8037.08  88.2516
 38.3356  8104.88  88.5551
 38.3776  7941.1  87.9163
 38.4196  8110.45  88.7066
 38.4616  7914.28  87.8529
 38.5036  8039.44  88.3913
 38.5456  8013.14  89.083
 38.5876  8023.52  89.1776
 38.6296  7984.14  87.9232
 38.6716  8072.19  88.1986
 38.7136  7917.64  87.2933
 38.7556  7924.09  87.8308
 38.7976  8029.68  88.3542
 38.8396  7892.6  88.0481
 38.8816  7860.87  87.6553
 38.9236  7891.35  87.6338
 38.9656  7946.36  87.8522
 39.0076  8032.26  87.7295
 39.0496  7968.71  87.9211
 39.0916  7966.04  87.547
 39.1336  7918.89  87.7044
 39.1756  7895  87.6421
 39.2176  7878.01  88.0808
 39.2596  7786.69  87.4887
 39.3016  7979.42  88.121
 39.3436  7893.65  88.0836
 39.3856  8024.95  88.2607
 39.4276  7996.01  88.5987
 39.4696  7905.74  87.7229
 39.5116  7888.53  88.1388
 39.5536  8043.33  89.4374
 39.5956  8099.3  88.8306
 39.6376  7991.89  88.2542
 39.6796  7972.6  87.8841
 39.7216  7956.62  87.8954
 39.7636  7898.6  88.1467
 39.8056  7936.91  88.1266
 39.8476  7877.7  88.0597
 39.8896  7929.28  87.9734
 39.9316  7914.03  88.147
 39.9736  8043.07  88.4273
 40.0156  7953.2  87.7483
 40.0576  7954.08  88.1219
 40.0996  8078.4  87.9865
 40.1416  8050.04  88.6282
 40.1836  7965.17  88.051
 40.2256  7991.1  88.2384
 40.2676  7845.24  87.5351
 40.3096  8025.58  88.4582
 40.3516  7994.36  88.3905
 40.3936  8089.45  88.4762
 40.4356  7988.5  88.1146
 40.4776  8125.25  89.2832
 40.5196  8105.04  89.3023
 40.5616  8073.03  88.7637
 40.6036  7921.84  88.1861
 40.6456  8039.52  88.4493
 40.6876  8091.98  88.7127
 40.7296  8098.94  88.8966
 40.7716  8064.63  88.8379
 40.8136  7905.67  87.8944
 40.8556  7936.78  88.2009
 40.8976  8041.43  88.7068
 40.9396  7984.22  88.7376
 40.9816  8101.79  88.6674
 41.0236  8004.52  87.9155
 41.0656  8106.17  89.0132
 41.1076  8055.77  88.5111
 41.1496  8083.66  88.5705
 41.1916  7967.84  88.2566
 41.2336  7967.92  88.2398
 41.2756  8011.11  88.0897
 41.3176  7944.59  88.3353
 41.3596  8083.69  88.8343
 41.4016  7991.58  88.5877
 41.4436  8055.9  88.7311
 41.4856  8017.44  88.6777
 41.5276  7917.94  88.1481
 41.5696  7889.35  87.6206
 41.6116  7862.49  87.8622
 41.6536  7992.3  88.4411
 41.6956  7978.66  88.4201
 41.7376  7982.67  88.473
 41.7796  7889.36  87.8351
 41.8216  7926.64  88.2792
 41.8636  7954.7  88.3781
 41.9056  7844.42  87.555
 41.9476  7976.88  88.5286
 41.9896  7922.47  87.884
 42.0316  7980.31  88.2829
 42.0736  7866.15  87.7623
 42.1156  7799.89  87.2355
 42.1576  7969.19  88.2716
 42.1996  7969.52  88.4207
 42.2416  7983.41  88.0787
 42.2836  8002.44  88.2977
 42.3256  7782.45  87.1869
 42.3676  7909.49  87.6987
 42.4096  7877.13  87.4844
 42.4516  7868.96  87.5228
 42.4936  7736.33  86.8549
 42.5356  7958.13  88.2262
 42.5776  7864.69  87.6444
 42.6196  7910.68  87.9477
 42.6616  7807.14  87.5461
 42.7036  7907.25  87.4879
 42.7456  7876.36  87.6754
 42.7876  7901.57  87.9206
 42.8296  7854.49  87.4863
 42.8716  7789.43  87.2844
 42.9136  7780.92  87.0269
 42.9556  7883.19  87.7283
 42.9976  7870.4  87.6225
 43.0396  7886.72  87.4415
 43.0816  7776.2  87.1961
 43.1236  7818.23  87.4988
 43.1656  7834.01  87.4116
 43.2076  7723.89  86.907
 43.2496  7750.3  86.865
 43.2916  7776.28  87.3793
 43.3336  7821.12  87.4662
 43.3756  7706.26  86.5735
 43.4176  7722.65  86.7498
 43.4596  7766.48  86.8513
 43.5016  7713.35  86.9593
 43.5436  7687.52  86.7117
 43.5856  7694.93  86.7816
 43.6276  7735.87  86.9079
 43.6696  7743.61  87.2103
 43.7116  7661.18  86.2447
 43.7536  7758.64  87.2744
 43.7956  7668.7  87.9634
 43.8376  7709.43  86.7414
 43.8796  7713.46  86.8442
 43.9216  7661.43  86.4642
 43.9636  7722.56  86.9269
 44.0056  7709.49  87.0802
 44.0476  7619.62  86.2041
 44.0896  7504.28  85.8886
 44.1316  7660.54  86.3
 44.1736  7640.67  86.3105
 44.2156  7663.51  86.2884
 44.2576  7607.45  86.3035
 44.2996  7660.6  86.5742
 44.3416  7676.14  86.4205
 44.3836  7449.35  85.456
 44.4256  7516.22  85.4899
 44.4676  7432.17  85.1668
 44.5096  7632.59  86.4487
 44.5516  7568.95  86.0596
 44.5936  7411.65  85.1113
 44.6356  7576.86  85.7907
 44.6776  7511.22  85.7343
 44.7196  7590.08  86.4981
 44.7616  7495.01  87.2665
 44.8036  7415.82  85.2447
 44.8456  7338.45  85.0015
 44.8876  7460.03  85.5516
 44.9296  7447.77  84.9405
 44.9716  7395.71  85.0606
 45.0136  7503.76  85.6201
 45.0556  7447.18  85.268
 45.0976  7418.22  85.2705
 45.1396  7473.87  85.3451
 45.1816  7453.56  85.1718
 45.2236  7469.01  85.1545
 45.2656  7382.56  85.164
 45.3076  7383.86  84.9483
 45.3496  7298.96  84.76
 45.3916  7398.63  85.6052
 45.4336  7395.66  85.4239
 45.4756  7422.83  85.4482
 45.5176  7443.47  85.1775
 45.5596  7454.83  85.3666
 45.6016  7308.03  84.9374
 45.6436  7348.29  84.3599
 45.6856  7447.48  85.5739
 45.7276  7250.86  85.748
 45.7696  7342.08  85.9584
 45.8116  7260.74  84.9236
 45.8536  7260.82  84.8145
 45.8956  7383.27  84.8793
 45.9376  7339.11  84.0915
 45.9796  7251.49  84.2647
 46.0216  7378.36  85.3407
 46.0636  7402.98  84.6295
 46.1056  7280.94  83.9154
 46.1476  7192.03  83.9858
 46.1896  7312.24  84.8357
 46.2316  7241.53  84.2912
 46.2736  7175.01  84.2681
 46.3156  7330.62  84.765
 46.3576  7307.56  84.8343
 46.3996  7147.27  84.0566
 46.4416  7295.65  84.4939
 46.4836  7269.93  84.702
 46.5256  7305.36  84.8465
 46.5676  7375.17  85.371
 46.6096  7289.59  84.8005
 46.6516  7277.82  83.7864
 46.6936  7193.68  83.7908
 46.7356  7296.97  84.4805
 46.7776  7105.91  84.2142
 46.8196  7252.31  84.6698
 46.8616  7152.39  84.0405
 46.9036  7045.81  83.0721
 46.9456  7142.83  83.2879
 46.9876  7095.3  83.0908
 47.0296  7103.67  83.8188
 47.0716  7083.5  83.5259
 47.1136  7151.87  83.6008
 47.1556  7172.18  83.5987
 47.1976  7189.76  83.7769
 47.2396  7150.35  83.9355
 47.2816  7056.51  83.097
 47.3236  7132.1  83.901
 47.3656  7122  83.7764
 47.4076  7098.83  83.4482
 47.4496  6888.18  82.2954
 47.4916  7035.53  83.3496
 47.5336  7152.97  83.8621
 47.5756  7197.73  84.2372
 47.6176  7092.46  83.5089
 47.6596  7041.15  82.939
 47.7016  7232.16  83.8694
 47.7436  7126.71  83.5938
 47.7856  7209.31  84.101
 47.8276  7084.2  83.4244
 47.8696  7018.28  83.1057
 47.9116  7127.36  83.4731
 47.9536  7063.68  83.0399
 47.9956  7024.74  83.5125
 48.0376  7017.5  83.2433
 48.0796  7172.87  84.2898
 48.1216  7189.39  84.2071
 48.1636  7229.01  84.011
 48.2056  7089.16  83.4569
 48.2476  7088.69  83.7591
 48.2896  7023.43  83.2819
 48.3316  7058.84  83.4352
 48.3736  6926.57  82.6676
 48.4156  7069.85  83.3795
 48.4576  6857.69  82.4059
 48.4996  7057.53  83.0579
 48.5416  6973.04  82.8769
 48.5836  6940.88  82.3672
 48.6256  7062.45  83.2926
 48.6676  6983.81  83.3254
 48.7096  6982.89  82.6116
 48.7516  6995.78  82.8304
 48.7936  6828.85  81.9014
 48.8356  6922.91  82.5101
 48.8776  6933.86  83.1342
 48.9196  7103.1  83.5199
 48.9616  6983.96  83.1844
 49.0036  7086.47  84.145
 49.0456  6880.11  82.8936
 49.0876  6993.97  83.1183
 49.1296  6993.57  83.2766
 49.1716  6815.12  82.0833
 49.2136  6911.39  82.5729
 49.2556  6931.51  82.7325
 49.2976  6897.22  82.602
 49.3396  6812.88  82.1427
 49.3816  7018.76  82.8071
 49.4236  6860.51  82.2973
 49.4656  6814.06  82.0347
 49.5076  6962.4  82.6724
 49.5496  6865.47  82.1499
 49.5916  6981.63  82.7618
 49.6336  6860.11  82.2455
 49.6756  6858.9  82.4638
 49.7176  6788.99  81.987
 49.7596  6905.51  82.4583
 49.8016  6928.82  82.5132
 49.8436  6804.5  82.06
 49.8856  6852.49  82.3553
 49.9276  6793.69  82.1038
 49.9696  6805.28  82.1582
 50.0116  6872.88  82.6884
 50.0536  6840.33  82.4483
 50.0956  6718.09  81.7772
 50.1376  6877.62  82.4326
 50.1796  6790.13  82.1817
 50.2216  6793.67  82.1935
 50.2636  6651.85  80.9595
 50.3056  6749.11  81.7229
 50.3476  6804.32  82.0756
 50.3896  6742.55  81.6755
 50.4316  6760.25  81.6206
 50.4736  6696.07  81.4494
 50.5156  6751.83  81.784
 50.5576  6738.45  81.458
 50.5996  6716.76  81.606
 50.6416  6677.37  81.2949
 50.6836  6720.41  81.6139
 50.7256  6764.16  81.8048
 50.7676  6773.88  82.175
 50.8096  6738.55  81.5078
 50.8516  6576.61  80.9316
 50.8936  6656.18  81.2053
 50.9356  6786.86  82.102
 50.9776  6764.32  82.1133
 51.0196  6560.9  80.9928
 51.0616  6616.63  80.6805
 51.1036  6633.91  81.1372
 51.1456  6572.17  80.672
 51.1876  6652.3  80.5092
 51.2296  6610.06  80.8872
 51.2716  6560.18  80.2893
 51.3136  6547.52  80.6614
 51.3556  6543.26  80.2683
 51.3976  6601.23  80.7703
 51.4396  6509.38  80.5034
 51.4816  6548.21  80.6019
 51.5236  6575.5  80.8523
 51.5656  6630.42  80.7978
 51.6076  6579.34  80.5647
 51.6496  6594.21  80.8462
 51.6916  6573.3  81.0663
 51.7336  6540.44  80.9583
 51.7756  6616.84  81.1282
 51.8176  6556.57  80.8622
 51.8596  6562.63  80.9182
 51.9016  6720.23  81.4894
 51.9436  6569.65  81.9934
 51.9856  6410.48  81.4373
 52.0276  6477.5  80.3953
 52.0696  6491.77  80.5443
 52.1116  6461.23  80.4763
 52.1536  6495.52  80.5659
 52.1956  6677.85  81.1627
 52.2376  6531.5  80.4381
 52.2796  6546.46  80.3451
 52.3216  6312.24  79.567
 52.3636  6520.48  80.4506
 52.4056  6498.31  80.1742
 52.4476  6436.39  80.1515
 52.4896  6392.42  79.9274
 52.5316  6477.08  80.4962
 52.5736  6501.82  80.3826
 52.6156  6463.78  80.5137
 52.6576  6543.43  80.47
 52.6996  6303.92  79.9194
 52.7416  6480.38  80.8953
 52.7836  6416.93  80.3772
 52.8256  6504.91  80.1643
 52.8676  6336.93  79.6805
 52.9096  6370.99  79.9806
 52.9516  6505.68  81.1929
 52.9936  6405.76  80.9476
 53.0356  6385.89  79.8324
 53.0776  6302.18  79.5653
 53.1196  6287.6  79.5944
 53.1616  6363.81  80.1262
 53.2036  6199.65  79.0385
 53.2456  6229.12  79.3195
 53.2876  6324  79.6384
 53.3296  6335.72  80.036
 53.3716  6377.4  80.0441
 53.4136  6308.38  79.7595
 53.4556  6306.79  79.7786
 53.4976  6367.03  80.0087
 53.5396  6265.56  79.7568
 53.5816  6366.85  80.0359
 53.6236  6210.44  79.3758
 53.6656  6325.25  79.7396
 53.7076  6443.36  80.4433
 53.7496  6377.23  80.1472
 53.7916  6401.37  80.4239
 53.8336  6168.17  78.8472
 53.8756  6205.11  79.6289
 53.9176  6321.04  79.7205
 53.9596  6318.07  80.471
 54.0016  6305.2  79.7206
 54.0436  6264.92  79.6792
 54.0856  6348.53  79.638
 54.1276  6192.66  78.8527
 54.1696  6238.77  79.3108
 54.2116  6275.54  79.3038
 54.2536  6265.03  79.0579
 54.2956  6268.52  79.1242
 54.3376  6211.3  79.2423
 54.3796  6349.29  80.0146
 54.4216  6369.85  80.1897
 54.4636  6268.82  79.5104
 54.5056  6240.88  79.1552
 54.5476  6202.51  79.2394
 54.5896  6275.38  79.5464
 54.6316  6212.06  78.9974
 54.6736  6362.63  80.026
 54.7156  6242.63  79.285
 54.7576  6261.07  79.4035
 54.7996  6257.2  79.512
 54.8416  6282.71  79.7263
 54.8836  6122.58  78.8111
 54.9256  6251.42  79.3913
 54.9676  6247.85  79.2203
 55.0096  6244.09  79.2703
 55.0516  6235.85  79.4507
 55.0936  6226.01  79.0146
 55.1356  6255.88  79.2471
 55.1776  6236.58  79.3915
 55.2196  6204.23  78.9719
 55.2616  6207.3  79.1988
 55.3036  6186.08  79.2294
 55.3456  6213.79  79.5551
 55.3876  6226.41  79.3754
 55.4296  6212.63  79.2697
 55.4716  6273.76  79.6873
 55.5136  6228.57  79.1585
 55.5556  6207.15  79.0947
 55.5976  6171.43  78.9247
 55.6396  6209.41  79.1111
 55.6816  6193.18  78.8906
 55.7236  6267.77  79.4119
 55.7656  6265.5  79.149
 55.8076  6305.6  79.3838
 55.8496  6120.24  78.5194
 55.8916  6134.12  78.8144
 55.9336  6128.01  78.5931
 55.9756  6221.86  79.0873
 56.0176  6126.57  78.6274
 56.0596  6192.14  79.0209
 56.1016  6179.29  78.962
 56.1436  6152.64  79.0518
 56.1856  6223.42  79.2452
 56.2276  6187.17  79.0687
 56.2696  6195.6  79.0981
 56.3116  6140.81  79.1462
 56.3536  6147.93  78.8499
 56.3956  6099.9  78.5362
 56.4376  6160.5  78.9576
 56.4796  6219.09  79.1347
 56.5216  6127.6  78.918
 56.5636  6176.75  78.8314
 56.6056  6049.2  78.2305
 56.6476  6164.23  78.6104
 56.6896  6175.82  79.1265
 56.7316  6166.38  78.9827
 56.7736  6185.8  79.1026
 56.8156  6155.73  78.9047
 56.8576  6117.63  78.6041
 56.8996  6205.34  79.1073
 56.9416  6187.83  79.2947
 56.9836  6072.92  78.0705
 57.0256  6136.95  78.8017
 57.0676  6119.81  78.8095
 57.1096  6137.95  78.7214
 57.1516  6108.29  78.5959
 57.1936  6129.6  78.478
 57.2356  6235.6  79.4779
 57.2776  6111.43  78.6383
 57.3196  6123.13  79.0813
 57.3616  6156.03  78.7858
 57.4036  6196.26  79.1035
 57.4456  6104.97  78.4798
 57.4876  6164.63  78.723
 57.5296  6059.44  78.3876
 57.5716  6062.97  78.3955
 57.6136  6127.06  78.6336
 57.6556  6184.03  79.1389
 57.6976  6141.22  78.6802
 57.7396  6086.6  78.7018
 57.7816  6126.89  79.3217
 57.8236  6079.16  78.8144
 57.8656  6108.73  78.6646
 57.9076  6060.89  78.3808
 57.9496  6088.31  78.9067
 57.9916  6100.5  78.4947
 58.0336  6031.38  78.3303
 58.0756  6124.42  78.5695
 58.1176  6133.57  78.6191
 58.1596  6045.5  78.6253
 58.2016  6194.9  78.8115
 58.2436  6173.29  79.0871
 58.2856  6013.66  77.9797
 58.3276  6066.88  78.6935
 58.3696  6075.5  78.4997
 58.4116  6132.02  78.729
 58.4536  6180.73  78.9213
 58.4956  6037.81  78.184
 58.5376  6057.08  77.8853
 58.5796  6066.27  78.3693
 58.6216  6132.94  78.6
 58.6636  6185.47  79.1673
 58.7056  6083.94  78.3654
 58.7476  6143.49  79.1966
 58.7896  6173.5  79.0327
 58.8316  6026.68  78.08
 58.8736  6115.6  78.6655
 58.9156  6060.7  78.3538
 58.9576  6116.44  79.0414
 58.9996  6246.8  79.1118
 59.0416  6223.95  79.332
 59.0836  6246.03  79.3934
 59.1256  5995.5  78.4838
 59.1676  6135.07  79.7034
 59.2096  6279.01  79.9342
 59.2516  6224.44  79.1608
 59.2936  6359.61  80.3524
 59.3356  6220.38  79.3438
 59.3776  6071.53  78.5582
 59.4196  6150.97  79.0015
 59.4616  6204.19  79.205
 59.5036  6052.29  78.2648
 59.5456  6333.18  79.7463
 59.5876  6190.18  79.0343
 59.6296  5970.4  77.6875
 59.6716  6131.52  78.7871
 59.7136  6171.91  79.0343
 59.7556  6125.79  78.876
 59.7976  6134.6  78.6728
 59.8396  6211.91  79.0596
 59.8816  6097.52  78.875
 59.9236  6104.7  78.5646
 59.9656  6146.78  79.0955
 60.0076  6174.82  78.6282
 60.0496  6070.43  78.4661
 60.0916  6200.25  78.7109
 60.1336  6006.74  78.5773
 60.1756  6228.77  81.2192
 60.1996  0.0000000E+00  0.0000000E+00