File: docs/examples/opeando_xrd/IS17_D/Data/IS17_D/17_Da_f00054.xye
# /beamlines/bl04/projects/cycle2025-II/20250340211-lsimonelli/DATA/IS17_D/17_Da_f00054.xye : mythproc.py merge -s 0.006 -l 0.5 -f /beamlines/bl04/inhouse/ff/FlatField/ff_20Nov2024rod8mm60s_17keV.raw -b True -c true -o xye /beamlines/bl04/projects/cycle2025-II/20250340211-lsimonelli/DATA/IS17_D/17_Da_00054.dat
# IsMon = [6746153, 6751792, 6750693]  IsPos = [-1.4999, -2.4885, -3.4988]
# Wave = 0.4962  CalPath /beamlines/bl04/projects/cycle2025-II/20250340211-lsimonelli/DATA/Align/Si_Pos1_25keV_f00001.cal
# Date = 2025-09-24_08:35:26 Dt = 4.8000  Bin = 0.0060  <imon> = 6749546 +/- 2441 (Min/Max) 6746153 / 6751792
# icurr 248.9038  mocoIn 1.6991E-05  mocoOut 0.7973  i15 7.07005e+06  imon 6.74955e+06  i7 4.6667  iEMpd_timer 4.8000  iEMpd_1 3.4467E-08  iEMpd_2 7.8475E-08  iEMpd_3 1.6275E-08  iEMpd_4 4.6504E-08  iEMhp_timer 4.8000  iEMhp_1 4.8654E-06  iEMhp_2 -2.7191E-08  iEMhp_3 -2.5298E-08  iEMhp_4 -2.2126E-08
#      9776
 1.5856  40540  206.802
 1.6276  47781.2  220.66
 1.6696  54465.2  234.758
 1.7116  62675.1  252.323
 1.7536  72235.8  269.732
 1.7956  76912.3  279.021
 1.8376  73300.1  272.822
 1.8796  61366.5  247.79
 1.9216  49523  223.486
 1.9636  41819.7  204.529
 2.0056  37484.4  192.887
 2.0476  35511.5  189.8
 2.0896  33656.2  183.692
 2.1316  33037.6  181.121
 2.1736  31033.1  176.934
 2.2156  31622  177.171
 2.2576  30969  175.962
 2.2996  29631.7  172.751
 2.3416  29872.3  172.067
 2.3836  29019.2  169.697
 2.4256  28060.3  167.413
 2.4676  28002.4  167.003
 2.5096  27571.2  165.767
 2.5516  27146.6  168.258
 2.5936  27133.2  164.824
 2.6356  26515.1  163.622
 2.6776  26581.3  162.718
 2.7196  26274.7  162.291
 2.7616  26235.3  161.947
 2.8036  25649.5  160.3
 2.8456  25870.4  161.606
 2.8876  25191.6  159.323
 2.9296  24852.6  158.399
 2.9716  24817.5  157.778
 3.0136  24381  156.45
 3.0556  24512.9  157.272
 3.0976  24356.4  155.709
 3.1396  24181.4  155.854
 3.1816  23972.6  155.122
 3.2236  23867.6  154.776
 3.2656  23782.7  153.527
 3.3076  23641  154.535
 3.3496  23949  154.723
 3.3916  24211.4  155.142
 3.4336  24811.3  157.634
 3.4756  24969  158.068
 3.5176  25678.4  160.087
 3.5596  25558.1  162.149
 3.6016  25768.3  160.415
 3.6436  24940.5  158.91
 3.6856  24703.2  156.454
 3.7276  23619.3  154.064
 3.7696  23295.1  153.2
 3.8116  23040.1  152.249
 3.8536  23189.9  152.679
 3.8956  23146.2  152.355
 3.9376  22875.8  151.716
 3.9796  22824.3  151.055
 4.0216  22914.8  150.387
 4.0636  22959.7  152.019
 4.1056  22870  151.348
 4.1476  23161.7  152.648
 4.1896  23457.3  153.462
 4.2316  23527.2  153.524
 4.2736  23982.5  154.786
 4.3156  24221.3  155.783
 4.3576  25123.2  158.586
 4.3996  24920.4  158.196
 4.4416  25646.2  160.071
 4.4836  26089.3  161.592
 4.5256  26520  163.552
 4.5676  26467  163.634
 4.6096  26998.1  163.932
 4.6516  27449  164.993
 4.6936  27561.3  166.145
 4.7356  27746.4  166.531
 4.7776  27701.6  166.22
 4.8196  27261.7  165.559
 4.8616  26877.3  163.992
 4.9036  26715  163.12
 4.9456  26679.5  163.649
 4.9876  26058.1  161.639
 5.0296  26037.4  161.393
 5.0716  26188.4  162.488
 5.1136  26297.4  162.684
 5.1556  26631.1  163.17
 5.1976  27000  164.306
 5.2396  27214.8  164.646
 5.2816  27226.3  165.149
 5.3236  27206.1  164.784
 5.3656  26668.6  164.069
 5.4076  26518.5  163.759
 5.4496  26544  163.316
 5.4916  26795.1  163.847
 5.5336  26869.2  164.074
 5.5756  26431.3  162.778
 5.6176  26643  162.853
 5.6596  26995.7  164.91
 5.7016  26983.7  164.138
 5.7436  27138.2  164.879
 5.7856  26953.9  164.377
 5.8276  27443.1  165.578
 5.8696  27672.4  166.446
 5.9116  27574  166.755
 5.9536  27891.2  167.471
 5.9956  28138.3  167.56
 6.0376  28104.7  168.103
 6.0796  28264.3  168.412
 6.1216  28225.8  168.49
 6.1636  28537.3  168.49
 6.2056  28470  168.945
 6.2476  28762.4  169.695
 6.2896  29171.2  170.576
 6.3316  28802.4  169.676
 6.3736  29027.2  170.221
 6.4156  29070.4  170.251
 6.4576  29266  170.419
 6.4996  29555.8  171.739
 6.5416  29511.5  171.752
 6.5836  29675.8  172.456
 6.6256  29658.2  171.973
 6.6676  30459  173.844
 6.7096  30056.2  173.552
 6.7516  30376.9  174.118
 6.7936  30549.3  174.047
 6.8356  30837  174.938
 6.8776  31023.2  176.263
 6.9196  31094.3  176.874
 6.9616  31659.8  177.887
 7.0036  32159.7  178.963
 7.0456  31869.9  177.45
 7.0876  32016.8  179.558
 7.1296  32031.4  178.731
 7.1716  31766.8  177.531
 7.2136  31803.9  177.413
 7.2556  31889  177.811
 7.2976  31888.7  178.31
 7.3396  31913.6  178.588
 7.3816  31797.8  178.485
 7.4236  32156.6  178.774
 7.4656  32122.8  178.168
 7.5076  32620.9  179.678
 7.5496  32547  180.013
 7.5916  32437.4  179.744
 7.6336  32697.5  180.358
 7.6756  32962.8  180.94
 7.7176  33541.6  182.833
 7.7596  33161.8  183.046
 7.8016  33591.6  186.43
 7.8436  33983.1  184.141
 7.8856  34243.8  184.461
 7.9276  34863.2  186.515
 7.9696  35051.9  187.33
 8.0116  36018.9  188.425
 8.0536  36177.2  189.095
 8.0956  36183.7  190.287
 8.1376  36708.1  191.139
 8.1796  36871.4  192.104
 8.2216  37437.7  192.309
 8.2636  38003.2  194.009
 8.3056  37695.7  194.001
 8.3476  38490.5  195.355
 8.3896  38053.4  194.324
 8.4316  38161.9  194.765
 8.4736  38316.1  194.618
 8.5156  38065.6  194.261
 8.5576  37777.8  194.506
 8.5996  37808.4  193.448
 8.6416  37883.7  194.912
 8.6836  37636.1  194.105
 8.7256  38065.1  194.646
 8.7676  37398.3  195.874
 8.8096  37453.1  193.323
 8.8516  37132.2  192.104
 8.8936  36806.4  191.147
 8.9356  36770.9  191.418
 8.9776  36951.5  191.97
 9.0196  36700  190.998
 9.0616  36853.6  190.85
 9.1036  36405.2  190.881
 9.1456  36644.6  190.855
 9.1876  36431.8  190.257
 9.2296  36507.5  189.845
 9.2716  35795.2  188.055
 9.3136  36005.6  188.584
 9.3556  36255.7  189.223
 9.3976  34952.1  186.336
 9.4396  35201.5  186.885
 9.4816  34696.7  185.406
 9.5236  34722.3  185.38
 9.5656  34356  184.723
 9.6076  34355.3  185.241
 9.6496  34038.5  184.32
 9.6916  33977.2  184.112
 9.7336  34046  184.09
 9.7756  34330.4  186.188
 9.8176  33783.9  184.121
 9.8596  33386.3  181.476
 9.9016  32877.7  180.082
 9.9436  32650.7  179.368
 9.9856  32368.4  178.83
 10.0276  32200.1  179.468
 10.0696  32589.9  179.581
 10.1116  30988.6  175.376
 10.1536  31219  176.19
 10.1956  30946.8  175.014
 10.2376  30319.6  172.757
 10.2796  30515  173.426
 10.3216  30194.2  172.779
 10.3636  29878.3  171.904
 10.4056  29802.7  172.075
 10.4476  29497  170.828
 10.4896  29705.6  170.885
 10.5316  28844.3  169.096
 10.5736  28883  169.61
 10.6156  28530.9  168.351
 10.6576  28852.2  167.856
 10.6996  28396.5  167.195
 10.7416  28008.5  166.279
 10.7836  28205.7  167.542
 10.8256  27516  165.913
 10.8676  27785.9  166.257
 10.9096  27360.9  165.03
 10.9516  27176.9  163.402
 10.9936  27318.7  164.033
 11.0356  27090.9  163.976
 11.0776  26901.1  162.717
 11.1196  26396  161.923
 11.1616  26308.9  161.34
 11.2036  26435.6  161.588
 11.2456  26485.2  162.443
 11.2876  26090.1  160.971
 11.3296  25916.7  160.323
 11.3716  26440.7  161.634
 11.4136  26233.5  161.892
 11.4556  26717.1  163.039
 11.4976  26925.5  162.637
 11.5396  27369.6  164.141
 11.5816  27694.1  165.587
 11.6236  27166.1  164.441
 11.6656  26697.2  161.958
 11.7076  25956.2  160.527
 11.7496  25650.3  163.531
 11.7916  25481.9  158.315
 11.8336  25166  158.238
 11.8756  25093.8  157.523
 11.9176  25168.1  157.4
 11.9596  24747  156.28
 12.0016  24919.3  157.616
 12.0436  24689.9  156.321
 12.0856  24416.1  155.968
 12.1276  24575.3  156.393
 12.1696  24540.1  155.413
 12.2116  24733.8  156.013
 12.2536  24410.6  155.831
 12.2956  24517  155.494
 12.3376  24209.9  154.739
 12.3796  24198.6  155.155
 12.4216  24425.4  155.095
 12.4636  24018.6  154.717
 12.5056  24176.5  154.493
 12.5476  24572.8  155.278
 12.5896  24368.9  155.261
 12.6316  23979.9  154.192
 12.6736  24081.2  154.994
 12.7156  23940.6  154.408
 12.7576  24204  155.487
 12.7996  24359.1  154.628
 12.8416  23960.2  154.408
 12.8836  24463  155.841
 12.9256  24805.5  155.935
 12.9676  24952  156.823
 13.0096  24485.7  156.463
 13.0516  24828.3  156.58
 13.0936  24741.7  156.716
 13.1356  25156.3  156.99
 13.1776  24974.4  157.424
 13.2196  25114.2  157.513
 13.2616  24942.2  157.279
 13.3036  24982.4  157.385
 13.3456  24846.4  157.104
 13.3876  24800.8  156.464
 13.4296  24741.9  156.415
 13.4716  25012.2  156.88
 13.5136  24894  156.659
 13.5556  24731.7  156.758
 13.5976  25036.6  157.871
 13.6396  24938  156.92
 13.6816  24723  156.747
 13.7236  25374.3  158.439
 13.7656  24400.1  155.906
 13.8076  24995.3  156.565
 13.8496  24390.7  155.266
 13.8916  24504.8  156.621
 13.9336  24481.5  155.772
 13.9756  24514.1  155.223
 14.0176  24276.5  155.153
 14.0596  24129.1  154.654
 14.1016  24026.9  154.714
 14.1436  23714.9  152.849
 14.1856  23677.4  153.021
 14.2276  23205.7  151.979
 14.2696  23479.7  152.707
 14.3116  23255.7  151.864
 14.3536  22891  150.86
 14.3956  22850.1  150.448
 14.4376  22971.8  150.627
 14.4796  22871.8  150.292
 14.5216  22524.3  149.947
 14.5636  22214.9  148.474
 14.6056  22721.4  149.74
 14.6476  22461.6  148.104
 14.6896  22261.7  147.982
 14.7316  21698  147.128
 14.7736  21736.9  146.399
 14.8156  21503.6  145.651
 14.8576  21496  145.479
 14.8996  21022.1  145.079
 14.9416  20770.3  144.199
 14.9836  20862.7  144.488
 15.0256  20421.1  141.861
 15.0676  20567.8  142.686
 15.1096  20395.6  141.823
 15.1516  19968.3  140.887
 15.1936  20238  141.258
 15.2356  19664  139.52
 15.2776  19748.8  139.405
 15.3196  19084.1  138.035
 15.3616  19205.4  138.23
 15.4036  19149.6  137.883
 15.4456  19338.5  138.213
 15.4876  19068.4  136.923
 15.5296  18942.3  136.752
 15.5716  18690.5  135.444
 15.6136  18591.5  135.405
 15.6556  18871.3  135.66
 15.6976  18729.5  135.223
 15.7396  18359.5  134.494
 15.7816  18226.1  133.512
 15.8236  17935.2  133.142
 15.8656  17937.1  132.938
 15.9076  17813.8  132.307
 15.9496  17728.3  134.804
 15.9916  17687.1  135.091
 16.0336  17326.4  130.613
 16.0756  17421.8  131.275
 16.1176  17478.9  131.565
 16.1596  16911.1  130.57
 16.2016  17307.9  130.839
 16.2436  16943.1  129.842
 16.2856  16918.5  129.29
 16.3276  16647.6  128.665
 16.3696  16968.3  129.722
 16.4116  16807.4  129.566
 16.4536  16666.3  128.807
 16.4956  16743.6  128.847
 16.5376  16911.6  129.674
 16.5796  16468.6  127.321
 16.6216  16613  128.186
 16.6636  16559.8  128.129
 16.7056  16506.6  127.799
 16.7476  16646.7  127.858
 16.7896  16610.5  128.48
 16.8316  16426.8  127.72
 16.8736  16478.6  128.201
 16.9156  16263.7  127.691
 16.9576  16403.3  129.034
 16.9996  16598.6  130.293
 17.0416  16660.3  128.855
 17.0836  16523.3  128.097
 17.1256  16145.3  126.631
 17.1676  16292.7  127.201
 17.2096  15945  125.715
 17.2516  16091.2  126.072
 17.2936  15951.4  125.851
 17.3356  15614.8  124.524
 17.3776  15592.2  124.617
 17.4196  15679.8  124.655
 17.4616  15401.4  123.469
 17.5036  15226.8  123.121
 17.5456  15131.1  123.379
 17.5876  15305.6  123.135
 17.6296  15325.1  123.026
 17.6716  15097.9  122.692
 17.7136  14873.8  121.924
 17.7556  14844.7  122.088
 17.7976  14840.6  121.67
 17.8396  14731.4  120.864
 17.8816  14851.5  121.885
 17.9236  14791.3  121.464
 17.9656  14740.8  121.945
 18.0076  14785  121.551
 18.0496  14665.7  120.198
 18.0916  14674.9  120.777
 18.1336  14600.9  120.567
 18.1756  14892.4  121.296
 18.2176  14445.9  119.682
 18.2596  14474.2  119.534
 18.3016  14637.9  120.46
 18.3436  14708.9  120.998
 18.3856  14451.2  119.837
 18.4276  14506.1  119.726
 18.4696  14363.8  119.246
 18.5116  14474.9  119.991
 18.5536  14529.6  120.57
 18.5956  14270.5  119.047
 18.6376  14379.3  119.902
 18.6796  14350.6  119.111
 18.7216  14360.6  119.715
 18.7636  14251.9  119.185
 18.8056  14300.7  119.323
 18.8476  14134.6  119.25
 18.8896  14137.8  118.603
 18.9316  14180.2  118.594
 18.9736  14333.6  119.099
 19.0156  14088.7  118.481
 19.0576  14081.9  117.328
 19.0996  14200.5  118.524
 19.1416  14082.4  118.429
 19.1836  14064.5  117.952
 19.2256  13992.9  117.863
 19.2676  14005.7  118.004
 19.3096  14071.3  118.526
 19.3516  14104.1  118.628
 19.3936  13995.7  118.066
 19.4356  14124.2  118.49
 19.4776  14069.3  118.35
 19.5196  14044.4  118.099
 19.5616  13871.7  117.623
 19.6036  13968.2  117.52
 19.6456  14146.8  118.398
 19.6876  13991.1  117.389
 19.7296  14048.1  118.089
 19.7716  14053.3  118.12
 19.8136  14064.4  118.534
 19.8556  14304.6  119.006
 19.8976  14229.2  118.762
 19.9396  14444.7  119.23
 19.9816  14555.7  119.925
 20.0236  14670.4  120.624
 20.0656  15058.2  122.193
 20.1076  15053.4  122.67
 20.1496  14871.2  121.924
 20.1916  14521.7  119.996
 20.2336  14489.8  119.788
 20.2756  14068.1  118.465
 20.3176  13916.9  117.572
 20.3596  13849.1  117.258
 20.4016  13889.2  117.23
 20.4436  13856.4  117.666
 20.4856  13573.1  116.246
 20.5276  13525  116.498
 20.5696  13513.6  115.911
 20.6116  13402.6  115.699
 20.6536  13517  115.751
 20.6956  13428.7  115.446
 20.7376  13482.5  115.901
 20.7796  13328.5  114.935
 20.8216  13505.9  115.396
 20.8636  13306.8  114.921
 20.9056  13360.2  115.096
 20.9476  13183  114.174
 20.9896  13535.1  115.546
 21.0316  13358.1  114.684
 21.0736  13273.9  114.844
 21.1156  13224.7  114.79
 21.1576  13291  115.132
 21.1996  13132  114.42
 21.2416  13062.6  113.953
 21.2836  13127.7  114.195
 21.3256  13082.4  114.09
 21.3676  13149  113.917
 21.4096  13004.3  113.598
 21.4516  13055.9  113.706
 21.4936  12829  112.962
 21.5356  13094.9  114.077
 21.5776  13000.3  113.493
 21.6196  12868.7  112.955
 21.6616  12988.9  113.566
 21.7036  12902  112.972
 21.7456  12837.4  112.759
 21.7876  12873.1  112.664
 21.8296  12874.3  112.526
 21.8716  12881.4  112.789
 21.9136  13021  113.601
 21.9556  12925.9  112.858
 21.9976  12766.6  112.168
 22.0396  12661.8  111.967
 22.0816  12892.2  113.515
 22.1236  12863.6  112.853
 22.1656  12778.3  112.652
 22.2076  13003.3  113.042
 22.2496  12813.8  112.244
 22.2916  13073.9  113.255
 22.3336  12860.4  113.042
 22.3756  12798.1  112.507
 22.4176  12802.6  112.379
 22.4596  12719.6  112.609
 22.5016  12910.4  112.935
 22.5436  12764.6  112.177
 22.5856  12778.6  112.488
 22.6276  12671.7  112.145
 22.6696  12853.5  113.312
 22.7116  12731  112.278
 22.7536  12858.9  112.816
 22.7956  12839.2  112.054
 22.8376  12724.9  112.081
 22.8796  12760.1  112.034
 22.9216  12823  112.864
 22.9636  12637.4  111.195
 23.0056  12803.1  112.055
 23.0476  12780.9  112.528
 23.0896  12990.5  112.823
 23.1316  12820.1  112.519
 23.1736  12792.6  115.382
 23.2156  12946.6  113.422
 23.2576  12946.9  113.555
 23.2996  12806.3  112.72
 23.3416  12733.9  112.931
 23.3836  12750.2  112.226
 23.4256  12670.8  112
 23.4676  12738.6  111.985
 23.5096  12710.2  112.544
 23.5516  12560.5  111.165
 23.5936  12725.5  112.798
 23.6356  12926  113.343
 23.6776  12777.5  112.908
 23.7196  12481  111.167
 23.7616  12810.9  112.538
 23.8036  12801.1  112.549
 23.8456  12624.2  111.328
 23.8876  12356.3  110.501
 23.9296  12518.1  111.708
 23.9716  12450.6  110.603
 24.0136  12567  112.018
 24.0556  12124.2  109.767
 24.0976  12317.8  110.448
 24.1396  12276.7  112.912
 24.1816  12391.7  112.18
 24.2236  12243.1  110.784
 24.2656  12155.2  109.858
 24.3076  12123.8  109.971
 24.3496  12057.9  109.554
 24.3916  12035.6  109.508
 24.4336  11999.7  109.554
 24.4756  11878.5  108.87
 24.5176  11704.6  107.719
 24.5596  11842  108.476
 24.6016  11682  108.028
 24.6436  11805.5  108.094
 24.6856  11879  108.183
 24.7276  11791.1  108.09
 24.7696  11626.8  107.457
 24.8116  11647.3  107.726
 24.8536  11414.8  106.646
 24.8956  11554.5  107.037
 24.9376  11529.5  106.853
 24.9796  11230.5  105.815
 25.0216  11287.8  106.201
 25.0636  11507.4  106.873
 25.1056  11330.5  106.472
 25.1476  11394.6  108.728
 25.1896  11413.7  107.28
 25.2316  11410.4  106.531
 25.2736  11350.9  105.916
 25.3156  11387.4  106.162
 25.3576  11112.6  105.285
 25.3996  11238.1  105.864
 25.4416  11128  105.328
 25.4836  11043.4  105.45
 25.5256  11168.8  105.408
 25.5676  11196  105.259
 25.6096  11075  105.268
 25.6516  11227.4  105.481
 25.6936  11198.4  105.67
 25.7356  11114.9  105.404
 25.7776  11043.9  104.679
 25.8196  10992.9  104.674
 25.8616  11073  104.969
 25.9036  11116.6  104.645
 25.9456  11025.8  104.807
 25.9876  10948.2  104.508
 26.0296  11223  105.409
 26.0716  10869  104.069
 26.1136  10982.3  104.547
 26.1556  10986.6  103.947
 26.1976  10964.6  104.774
 26.2396  10995.5  104.32
 26.2816  10962.7  104.522
 26.3236  10946.7  104.609
 26.3656  10813.7  103.705
 26.4076  10958.8  104.601
 26.4496  11553.6  106.9
 26.4916  11161.5  105.059
 26.5336  10969.5  104.473
 26.5756  11102.2  104.977
 26.6176  10889  103.999
 26.6596  10842.5  104.081
 26.7016  10858.2  103.917
 26.7436  10678.1  103.19
 26.7856  10709.8  103.321
 26.8276  10802.9  103.72
 26.8696  10749.2  103.34
 26.9116  10591.8  102.522
 26.9536  10626.5  102.735
 26.9956  10695.2  103.099
 27.0376  10481.3  102.284
 27.0796  10723  103.257
 27.1216  10486.3  102.117
 27.1636  10459.2  102.148
 27.2056  10475.3  102.107
 27.2476  10437  101.921
 27.2896  10515.6  102.411
 27.3316  10488.2  101.992
 27.3736  10413.3  101.89
 27.4156  10352.2  101.439
 27.4576  10371.3  101.763
 27.4996  10419.9  101.598
 27.5416  10370.5  101.673
 27.5836  10324.9  101.262
 27.6256  10716.4  103.322
 27.6676  10551.1  102.554
 27.7096  10332.7  101.355
 27.7516  10285.7  101.271
 27.7936  10167.6  100.869
 27.8356  10271.8  100.993
 27.8776  10114.3  100.268
 27.9196  10138.2  100.233
 27.9616  10236.9  100.918
 28.0036  10106.2  100.233
 28.0456  10297  101.307
 28.0876  10096.6  100.413
 28.1296  10119.5  100.367
 28.1716  10134.7  100.458
 28.2136  10255  101.011
 28.2556  10024  99.9874
 28.2976  10061.7  100.163
 28.3396  10118.1  100.231
 28.3816  10097.8  100.118
 28.4236  10048.5  100.026
 28.4656  10083  100.235
 28.5076  10058.4  99.745
 28.5496  10083  100.134
 28.5916  10114.1  100.096
 28.6336  9881.16  99.2782
 28.6756  10028.6  99.2073
 28.7176  9978.23  99.513
 28.7596  9892.39  98.9819
 28.8016  9985.5  99.4744
 28.8436  9849.21  99.0385
 28.8856  10023.4  99.7595
 28.9276  9869.33  99.2387
 28.9696  9852.93  98.8113
 29.0116  9863.73  99.0498
 29.0536  9835.82  99.1135
 29.0956  9885.46  99.0808
 29.1376  9764.47  98.4353
 29.1796  9707.66  98.1949
 29.2216  9817.35  98.5873
 29.2636  9901.86  99.0092
 29.3056  9826.98  98.5009
 29.3476  9752.11  98.6508
 29.3896  9841.85  99.1965
 29.4316  9854.73  98.5906
 29.4736  9871.39  98.7392
 29.5156  9801.66  98.3039
 29.5576  9750.52  98.7944
 29.5996  9863.27  98.6159
 29.6416  9554.08  97.1699
 29.6836  9770.44  98.1917
 29.7256  9682.48  98.3215
 29.7676  9772.69  98.4372
 29.8096  9534.08  97.1686
 29.8516  9518.86  97.4255
 29.8936  9682.09  98.3506
 29.9356  9879.14  99.0974
 29.9776  9634.8  98.0142
 30.0196  9611.86  97.2882
 30.0616  9701.02  98.1144
 30.1036  9534.61  97.0948
 30.1456  9613.87  97.7331
 30.1876  9476.44  97.0073
 30.2296  9624.94  97.7171
 30.2716  9703  97.7432
 30.3136  9581.23  97.9898
 30.3556  9600.24  98.1079
 30.3976  9484.92  99.0252
 30.4396  9685.96  97.413
 30.4816  9633.17  96.7278
 30.5236  9535.33  96.266
 30.5656  9467.73  96.5724
 30.6076  9525.24  96.2984
 30.6496  9474.99  96.4207
 30.6916  9550.97  96.8997
 30.7336  9472.31  96.6572
 30.7756  9514.63  96.9659
 30.8176  9401.82  96.3043
 30.8596  9682.17  97.4969
 30.9016  9462.13  96.7237
 30.9436  9675.63  97.5582
 30.9856  9428.69  96.4136
 31.0276  9431.38  96.0221
 31.0696  9333.74  96.1129
 31.1116  9417.12  96.5154
 31.1536  9527.91  96.9594
 31.1956  9337.4  96.0778
 31.2376  9302.79  95.9045
 31.2796  9406.77  95.9767
 31.3216  9402.06  95.9001
 31.3636  9488.61  97.0289
 31.4056  9506.58  98.4514
 31.4476  9345.94  95.5023
 31.4896  9357.35  96.0649
 31.5316  9318.28  95.305
 31.5736  9417.42  95.5826
 31.6156  9295.29  94.9874
 31.6576  9371.18  95.4673
 31.6996  9345.34  95.0107
 31.7416  9128.77  94.9579
 31.7836  9191.56  94.302
 31.8256  9226.7  94.8297
 31.8676  9387.88  95.5722
 31.9096  9095.13  94.421
 31.9516  9015.91  94.1697
 31.9936  9097.14  94.4167
 32.0356  9156.84  94.7942
 32.0776  9221.31  95.0138
 32.1196  9278.28  95.388
 32.1616  9397.81  95.4643
 32.2036  9018.95  94.0336
 32.2456  9088.78  94.7707
 32.2876  9174.44  94.536
 32.3296  9038.41  93.9703
 32.3716  9141.06  94.5976
 32.4136  9162.2  94.9288
 32.4556  9180.52  94.4601
 32.4976  9091.55  93.8479
 32.5396  9065.7  93.7849
 32.5816  9003.51  93.5885
 32.6236  9022.65  93.7569
 32.6656  9184.07  95.1364
 32.7076  9105.17  94.3745
 32.7496  9055.97  93.7886
 32.7916  9170.95  94.3405
 32.8336  9050.84  93.8183
 32.8756  9112.62  93.8555
 32.9176  8828.13  92.86
 32.9596  8959.79  93.6281
 33.0016  8984.41  93.5515
 33.0436  9168.11  94.6721
 33.0856  9017.53  93.9607
 33.1276  8881.09  92.9848
 33.1696  9076.03  93.8368
 33.2116  9086.45  94.1143
 33.2536  9008.18  93.7212
 33.2956  9015.06  93.8343
 33.3376  8895.51  92.9568
 33.3796  9014.32  93.7758
 33.4216  8980.69  93.1993
 33.4636  9036.54  93.6365
 33.5056  8901.98  93.1736
 33.5476  8836.45  92.8313
 33.5896  8978.89  93.3202
 33.6316  8764.11  92.5449
 33.6736  8711.74  92.5028
 33.7156  8754.67  92.7729
 33.7576  8995.81  93.6628
 33.7996  8965.66  93.2699
 33.8416  8821.11  92.703
 33.8836  8769.5  92.208
 33.9256  8840.31  92.6479
 33.9676  8903.98  92.865
 34.0096  8703.16  92.138
 34.0516  8735.27  91.939
 34.0936  8788.71  92.4862
 34.1356  8899.24  92.8064
 34.1776  8681.59  91.6658
 34.2196  8558.08  91.2003
 34.2616  8687.48  92.0179
 34.3036  8691.41  92.2965
 34.3456  8802.68  92.6313
 34.3876  8635.97  91.7186
 34.4296  8716.3  91.8277
 34.4716  8801.77  92.4176
 34.5136  8771.24  92.4718
 34.5556  8600.56  91.8231
 34.5976  8728.64  92.3084
 34.6396  8664.11  91.6773
 34.6816  8663.57  91.7922
 34.7236  8664.86  91.5779
 34.7656  8798.98  92.4703
 34.8076  8684.06  92.1989
 34.8496  8651.99  91.8827
 34.8916  8578.5  91.3665
 34.9336  8721  92.0846
 34.9756  8625.46  91.4977
 35.0176  8707.48  92.4697
 35.0596  8587.38  91.6617
 35.1016  8633.48  91.6675
 35.1436  8658.6  91.4825
 35.1856  8599.59  91.3021
 35.2276  8673.4  91.858
 35.2696  8578.52  91.5443
 35.3116  8579.66  91.6467
 35.3536  8471.65  90.7867
 35.3956  8488.8  90.5903
 35.4376  8539.61  91.4146
 35.4796  8586.09  91.726
 35.5216  8461.42  91.0158
 35.5636  8307.2  90.9224
 35.6056  8621.48  91.6304
 35.6476  8536.32  91.0695
 35.6896  8571.84  91.4285
 35.7316  8463.41  90.7385
 35.7736  8519.8  91.249
 35.8156  8417.18  90.6988
 35.8576  8562.05  91.722
 35.8996  8666.04  92.242
 35.9416  8814.11  92.438
 35.9836  8437.9  90.8766
 36.0256  8490.78  91.1793
 36.0676  8527.16  90.914
 36.1096  8394.36  90.5598
 36.1516  8411.24  90.5374
 36.1936  8517.46  90.9476
 36.2356  8441.16  91.1852
 36.2776  8387.32  90.3809
 36.3196  8476.26  90.5252
 36.3616  8456.66  90.5563
 36.4036  8356.65  90.0701
 36.4456  8444.57  90.7584
 36.4876  8286.98  89.8445
 36.5296  8380.28  90.3922
 36.5716  8350.41  91.0132
 36.6136  8386.97  89.967
 36.6556  8493.52  90.7462
 36.6976  8351.22  90.4808
 36.7396  8398.58  90.4654
 36.7816  8370.19  90.6916
 36.8236  8350.67  90.5071
 36.8656  8251.59  90.0437
 36.9076  8362.56  90.6506
 36.9496  8406.9  90.7512
 36.9916  8186.74  89.1841
 37.0336  8367.96  90.483
 37.0756  8353.29  90.1936
 37.1176  8174.1  89.4897
 37.1596  8343.31  90.4164
 37.2016  8249.14  90.0826
 37.2436  8381.17  90.1622
 37.2856  8286.59  89.9056
 37.3276  8311.36  89.3893
 37.3696  8141.77  89.3533
 37.4116  8269.68  89.9603
 37.4536  8266.73  89.8078
 37.4956  8237.29  89.6931
 37.5376  8231.78  91.2388
 37.5796  8225.01  91.1591
 37.6216  8078.22  88.6032
 37.6636  8137.75  88.842
 37.7056  8150.82  89.1057
 37.7476  8221.08  89.0244
 37.7896  8094.81  88.8347
 37.8316  8007.07  88.5268
 37.8736  8261.55  89.4356
 37.9156  8062.48  88.3542
 37.9576  8121.27  88.5707
 37.9996  8022.08  87.7437
 38.0416  7943.94  88.1221
 38.0836  8236.09  89.6299
 38.1256  8126.23  88.9878
 38.1676  7930.99  88.0476
 38.2096  8134.84  88.7931
 38.2516  8211.83  89.4157
 38.2936  8042.87  88.2992
 38.3356  8201.49  89.0713
 38.3776  8019.34  88.3552
 38.4196  8186.79  89.1218
 38.4616  7987.91  88.2727
 38.5036  8194.83  89.2485
 38.5456  8019.67  89.122
 38.5876  8059.39  89.3729
 38.6296  7977.67  87.8938
 38.6716  7950.83  87.5374
 38.7136  7998.29  87.7435
 38.7556  7895.82  87.6837
 38.7976  7890.2  87.5853
 38.8396  7842.98  87.7794
 38.8816  7889.55  87.8218
 38.9236  7876.04  87.5549
 38.9656  8034.37  88.3446
 39.0076  7951.32  87.294
 39.0496  7911.87  87.6202
 39.0916  7942.88  87.4287
 39.1336  7906.64  87.649
 39.1756  7944.78  87.9265
 39.2176  7948.49  88.4733
 39.2596  7867.36  87.9485
 39.3016  7939.92  87.9268
 39.3436  7795.17  87.5423
 39.3856  7970.86  87.9705
 39.4276  7967.58  88.4499
 39.4696  7955.98  88.01
 39.5116  7880.01  88.0979
 39.5536  8043.35  89.4368
 39.5956  8067.84  88.6594
 39.6376  8073.52  88.6969
 39.6796  7900.01  87.482
 39.7216  8068.89  88.5115
 39.7636  7975.19  88.5677
 39.8056  8048.41  88.7566
 39.8476  7783.36  87.5287
 39.8896  7961.12  88.1575
 39.9316  7894.61  88.0392
 39.9736  8046.46  88.437
 40.0156  7938.71  87.6788
 40.0576  7894.12  87.785
 40.0996  8060.42  87.8859
 40.1416  7894.05  87.76
 40.1836  8053.57  88.5377
 40.2256  8069.92  88.6735
 40.2676  7983.36  88.303
 40.3096  8111.11  88.9297
 40.3516  8142.33  89.2121
 40.3936  8166.73  88.8974
 40.4356  8042.49  88.4115
 40.4776  8091.17  89.0929
 40.5196  8039.96  88.9435
 40.5616  8029.56  88.5308
 40.6036  7935.58  88.2618
 40.6456  8031.78  88.3973
 40.6876  8093.78  88.7252
 40.7296  8076.48  88.7649
 40.7716  8070.15  88.8629
 40.8136  7952.95  88.1547
 40.8556  8043.79  88.8019
 40.8976  8035.37  88.6671
 40.9396  7932.97  88.4566
 40.9816  7962.79  87.9068
 41.0236  8105.09  88.4666
 41.0656  8067.26  88.8028
 41.1076  8066.66  88.5612
 41.1496  8124.46  88.789
 41.1916  8029.1  88.5933
 41.2336  7871.44  87.7059
 41.2756  8065.68  88.3827
 41.3176  7978.79  88.5306
 41.3596  7977.48  88.2484
 41.4016  7952.17  88.3689
 41.4436  7991.71  88.3727
 41.4856  8088.82  89.0686
 41.5276  7964.67  88.405
 41.5696  7933.52  87.847
 41.6116  7942.08  88.3121
 41.6536  8056.85  88.8023
 41.6956  8022.02  88.6691
 41.7376  7933.1  88.2031
 41.7796  7992  88.4496
 41.8216  7912.52  88.2034
 41.8636  8045.7  88.8761
 41.9056  7882.3  87.7588
 41.9476  7920.57  88.2122
 41.9896  7974.02  88.1683
 42.0316  7920.47  87.9613
 42.0736  7965.69  88.3245
 42.1156  7811.87  87.3018
 42.1576  7986.76  88.368
 42.1996  8026.84  88.7351
 42.2416  7972.67  88.0144
 42.2836  7893.1  87.6904
 42.3256  7829.89  87.4546
 42.3676  7970.47  88.042
 42.4096  7876.8  87.4816
 42.4516  8005.93  88.2885
 42.4936  7851.57  87.4999
 42.5356  7936.65  88.1025
 42.5776  7946.81  88.1022
 42.6196  7927.3  88.043
 42.6616  7849.65  87.7867
 42.7036  7975.99  87.8699
 42.7456  7806.06  87.2861
 42.7876  7813.92  87.4298
 42.8296  7948.44  88.012
 42.8716  7742.53  87.0208
 42.9136  7801.56  87.1389
 42.9556  7787.34  87.1967
 42.9976  7891.87  87.7368
 43.0396  7885.57  87.4336
 43.0816  7701.63  86.7819
 43.1236  7724.33  86.9725
 43.1656  7811.23  87.2885
 43.2076  7735.02  86.9688
 43.2496  7872.96  87.5502
 43.2916  7758.51  87.2764
 43.3336  7804.36  87.3741
 43.3756  7762.27  86.8902
 43.4176  7729.81  86.7918
 43.4596  7746.25  86.7372
 43.5016  7760.26  87.2237
 43.5436  7686.44  86.7082
 43.5856  7746.91  87.07
 43.6276  7809.41  87.3213
 43.6696  7700.22  86.8467
 43.7116  7808.23  87.0689
 43.7536  7758.42  87.2836
 43.7956  7704.44  88.1676
 43.8376  7709.29  86.726
 43.8796  7637.19  86.4014
 43.9216  7746.73  86.9346
 43.9636  7733.32  86.9727
 44.0056  7592.16  86.4008
 44.0476  7694.56  86.615
 44.0896  7650.24  86.7076
 44.1316  7654.63  86.3934
 44.1736  7668.93  86.4597
 44.2156  7764.24  86.8389
 44.2576  7606.38  86.2858
 44.2996  7665.24  86.589
 44.3416  7688.77  86.4801
 44.3836  7477.6  85.6163
 44.4256  7535.9  85.5912
 44.4676  7568.46  85.929
 44.5096  7508.19  85.7281
 44.5516  7543.52  85.8965
 44.5936  7323.51  84.5892
 44.6356  7688.16  86.4056
 44.6776  7579.3  86.1093
 44.7196  7515.54  86.0574
 44.7616  7587.83  87.8057
 44.8036  7461.06  85.5096
 44.8456  7490.32  85.8815
 44.8876  7536.8  85.9953
 44.9296  7568.58  85.6322
 44.9716  7478.92  85.557
 45.0136  7479.12  85.4864
 45.0556  7583.43  86.0539
 45.0976  7496.25  85.7244
 45.1396  7388.92  84.8696
 45.1816  7462.02  85.211
 45.2236  7493.91  85.3015
 45.2656  7455.04  85.5747
 45.3076  7407  85.0863
 45.3496  7414.7  85.4304
 45.3916  7370.61  85.4476
 45.4336  7512.8  86.1134
 45.4756  7446.79  85.5934
 45.5176  7519.85  85.6253
 45.5596  7539.76  85.8583
 45.6016  7282.74  84.7959
 45.6436  7405.51  84.6929
 45.6856  7390.36  85.2634
 45.7276  7306.71  86.0751
 45.7696  7320.79  85.8279
 45.8116  7488.79  86.2468
 45.8536  7348.58  85.3328
 45.8956  7374.23  84.836
 45.9376  7488.71  84.9531
 45.9796  7298.35  84.5625
 46.0216  7515.55  86.1409
 46.0636  7347.51  84.3099
 46.1056  7412.79  84.6788
 46.1476  7426.16  85.3504
 46.1896  7412.96  85.4174
 46.2316  7365.27  85.0147
 46.2736  7246.29  84.6941
 46.3156  7283.28  84.4989
 46.3576  7335.91  85.0068
 46.3996  7319.53  85.0717
 46.4416  7359.5  84.881
 46.4836  7245.16  84.5716
 46.5256  7321.04  84.9507
 46.5676  7367.04  85.3319
 46.6096  7440.81  85.6859
 46.6516  7408.77  84.5498
 46.6936  7424.42  85.1305
 46.7356  7427.16  85.2556
 46.7776  7278.46  85.2318
 46.8196  7277.28  84.8232
 46.8616  7165.98  84.1152
 46.9036  7136.7  83.6031
 46.9456  7211.69  83.6822
 46.9876  7262.88  84.0673
 47.0296  7227.62  84.5465
 47.0716  7067.05  83.4288
 47.1136  7158.6  83.6513
 47.1556  7266.33  84.1374
 47.1976  7258.98  84.1763
 47.2396  7117.92  83.7488
 47.2816  7126.22  83.5012
 47.3236  7216.31  84.4021
 47.3656  7211.85  84.3028
 47.4076  7127.12  83.6065
 47.4496  7129.34  83.7223
 47.4916  7139.49  83.9691
 47.5336  7279.1  84.5984
 47.5756  7185.84  84.1729
 47.6176  7048.46  83.2526
 47.6596  7192.05  83.819
 47.7016  7314.85  84.3486
 47.7436  7150.98  83.7348
 47.7856  7264.12  84.4304
 47.8276  7086.6  83.4255
 47.8696  7136.36  83.8121
 47.9116  7152.08  83.6159
 47.9536  7108.3  83.3012
 47.9956  7061.1  83.7289
 48.0376  7039.13  83.3695
 48.0796  7079.08  83.7407
 48.1216  7230.96  84.4424
 48.1636  7268.86  84.2493
 48.2056  7152.2  83.8276
 48.2476  7163.18  84.2072
 48.2896  7115.79  83.8349
 48.3316  7046.01  83.3586
 48.3736  6949.34  82.811
 48.4156  6944.68  82.6361
 48.4576  7086.16  83.7673
 48.4996  7112.58  83.379
 48.5416  7066.99  83.4364
 48.5836  7041.25  82.9594
 48.6256  7106.12  83.5537
 48.6676  6977.44  83.2953
 48.7096  7125.03  83.4484
 48.7516  6983.13  82.759
 48.7936  6925.62  82.4696
 48.8356  7047.59  83.2413
 48.8776  7031.9  83.6443
 48.9196  7098.23  83.4929
 48.9616  6969.68  83.1071
 49.0036  6963.9  83.421
 49.0456  6968.87  83.4308
 49.0876  6980.86  83.1287
 49.1296  6753.41  81.8336
 49.1716  6800.77  81.9963
 49.2136  6938.62  82.751
 49.2556  7114.31  83.8227
 49.2976  6951.32  82.9323
 49.3396  6975.79  83.1216
 49.3816  7024.43  82.8507
 49.4236  6913.1  82.6028
 49.4656  6871.45  82.3727
 49.5076  6990.37  82.8377
 49.5496  6965.59  82.7498
 49.5916  6926.05  82.4279
 49.6336  6916.25  82.5784
 49.6756  6975.14  83.1678
 49.7176  6945.96  82.9285
 49.7596  6873.73  82.2669
 49.8016  6969.67  82.7605
 49.8436  6781.88  81.923
 49.8856  6844.39  82.3067
 49.9276  6801.39  82.1469
 49.9696  6807.91  82.171
 50.0116  6836.53  82.4775
 50.0536  6937.81  83.0256
 50.0956  6815.5  82.3628
 50.1376  6876.72  82.4393
 50.1796  6801.28  82.2477
 50.2216  6799.41  82.2249
 50.2636  6792.29  81.8073
 50.3056  6867.74  82.4341
 50.3476  6847.28  82.3397
 50.3896  6725.83  81.5747
 50.4316  6789.17  81.7965
 50.4736  6736.52  81.6949
 50.5156  6789.03  82.0018
 50.5576  6825.78  81.9857
 50.5996  6717.67  81.6087
 50.6416  6776.26  81.8929
 50.6836  6685.15  81.403
 50.7256  6794.78  81.9972
 50.7676  6681.79  81.5839
 50.8096  6743.11  81.5348
 50.8516  6677  81.5487
 50.8936  6772.71  81.9123
 50.9356  6799.94  82.18
 50.9776  6788.48  82.2607
 51.0196  6550.34  80.927
 51.0616  6636.89  80.7917
 51.1036  6709.95  81.5871
 51.1456  6721.19  81.5674
 51.1876  6722.23  80.9237
 51.2296  6733.07  81.6183
 51.2716  6681.9  81.0181
 51.3136  6646.6  81.256
 51.3556  6630.74  80.7869
 51.3976  6613.56  80.8331
 51.4396  6572.35  80.8769
 51.4816  6577.75  80.7651
 51.5236  6615.68  81.0821
 51.5656  6682.67  81.103
 51.6076  6728.38  81.4606
 51.6496  6586.08  80.7838
 51.6916  6559.95  80.966
 51.7336  6658.39  81.6711
 51.7756  6579.09  80.8821
 51.8176  6506.12  80.5402
 51.8596  6616.96  81.2388
 51.9016  6769.69  81.7762
 51.9436  6535.98  81.7985
 51.9856  6457.5  81.7321
 52.0276  6655.79  81.4997
 52.0696  6612.63  81.3034
 52.1116  6586.62  81.2459
 52.1536  6609.61  81.2873
 52.1956  6607.92  80.7281
 52.2376  6759.65  81.8333
 52.2796  6671.13  81.1112
 52.3216  6406.44  80.1658
 52.3636  6665.45  81.3454
 52.4056  6536.64  80.4088
 52.4476  6477.75  80.4117
 52.4896  6466.49  80.3925
 52.5316  6449.32  80.3353
 52.5736  6477.36  80.2345
 52.6156  6388  80.0509
 52.6576  6581.82  80.693
 52.6996  6330.79  80.1022
 52.7416  6458.09  80.7541
 52.7836  6511.41  80.9825
 52.8256  6534.21  80.3252
 52.8676  6340.13  79.707
 52.9096  6494.26  80.7569
 52.9516  6360.14  80.2685
 52.9936  6364.88  80.6919
 53.0356  6342.15  79.5666
 53.0776  6401.54  80.2255
 53.1196  6357.18  80.0443
 53.1616  6369.93  80.1721
 53.2036  6301.69  79.6964
 53.2456  6288.66  79.6956
 53.2876  6417.57  80.2342
 53.3296  6387.82  80.3716
 53.3716  6455.78  80.5515
 53.4136  6324.81  79.8722
 53.4556  6285.2  79.6508
 53.4976  6278.32  79.4573
 53.5396  6406.01  80.6428
 53.5816  6363.07  80.0193
 53.6236  6214.95  79.4143
 53.6656  6366.61  80.0129
 53.7076  6356.12  79.9067
 53.7496  6365.52  80.0901
 53.7916  6350.33  80.1144
 53.8336  6299.12  79.6956
 53.8756  6255.18  79.9511
 53.9176  6358.19  79.9538
 53.9596  6353.11  80.6869
 54.0016  6341.09  79.9455
 54.0436  6334.97  80.122
 54.0856  6377.63  79.8164
 54.1276  6344.6  79.8163
 54.1696  6422.18  80.4704
 54.2116  6373.08  79.923
 54.2536  6245.45  78.9316
 54.2956  6313.36  79.4013
 54.3376  6341.8  80.0707
 54.3796  6250.5  79.3897
 54.4216  6352.57  80.0839
 54.4636  6291.57  79.6578
 54.5056  6360.03  79.912
 54.5476  6328.21  80.0451
 54.5896  6349.3  80.0122
 54.6316  6435.64  80.409
 54.6736  6347.07  79.8722
 54.7156  6302.96  79.6585
 54.7576  6222.32  79.1508
 54.7996  6374.6  80.2561
 54.8416  6361.2  80.2182
 54.8836  6209.08  79.3723
 54.9256  6284.5  79.5925
 54.9676  6297.4  79.5332
 55.0096  6329.81  79.811
 55.0516  6337.83  80.025
 55.0936  6251.06  79.1784
 55.1356  6260.26  79.2744
 55.1776  6265.03  79.5803
 55.2196  6339.45  79.8288
 55.2616  6246.15  79.458
 55.3036  6152.22  79.0105
 55.3456  6208.17  79.5115
 55.3876  6301.58  79.857
 55.4296  6273.84  79.65
 55.4716  6264.51  79.6319
 55.5136  6272.69  79.434
 55.5556  6197.53  79.0379
 55.5976  6257.09  79.4712
 55.6396  6178.5  78.9188
 55.6816  6263.16  79.334
 55.7236  6226.12  79.1375
 55.7656  6317.52  79.4772
 55.8076  6297.13  79.3281
 55.8496  6186.63  78.9485
 55.8916  6262.99  79.6041
 55.9336  6224.5  79.2177
 55.9756  6203.15  78.9655
 56.0176  6185.19  79.0042
 56.0596  6266.8  79.51
 56.1016  6253.76  79.4661
 56.1436  6117.68  78.824
 56.1856  6299.37  79.727
 56.2276  6244.69  79.4417
 56.2696  6191.61  79.0691
 56.3116  6156.98  79.2575
 56.3536  6196.6  79.1658
 56.3956  6128.18  78.7184
 56.4376  6220.29  79.341
 56.4796  6263.81  79.4161
 56.5216  6094.03  78.7122
 56.5636  6240.73  79.234
 56.6056  6166.22  78.9924
 56.6476  6130.08  78.3875
 56.6896  6250.32  79.6084
 56.7316  6201.13  79.1893
 56.7736  6217.07  79.2989
 56.8156  6269.92  79.6269
 56.8576  6203.62  79.1548
 56.8996  6171.56  78.8881
 56.9416  6175.99  79.2248
 56.9836  6063.24  78.0076
 57.0256  6122.49  78.705
 57.0676  6116.11  78.79
 57.1096  6132.87  78.6878
 57.1516  6249.71  79.4547
 57.1936  6174.99  78.7679
 57.2356  6136.43  78.8378
 57.2776  6209.03  79.2596
 57.3196  6223.05  79.7252
 57.3616  6124.89  78.5855
 57.4036  6211.95  79.2013
 57.4456  6136.72  78.6913
 57.4876  6210.64  79.0206
 57.5296  6127.92  78.7306
 57.5716  6130.32  78.8334
 57.6136  6193.73  79.0516
 57.6556  6200.32  79.2263
 57.6976  6224.6  79.2181
 57.7396  6070.63  78.6028
 57.7816  6079.59  79.0224
 57.8236  6104.96  78.9773
 57.8656  6173.98  79.0822
 57.9076  6140.12  78.8952
 57.9496  6059.35  78.7159
 57.9916  6139.44  78.755
 58.0336  6128.25  78.9505
 58.0756  6110.74  78.461
 58.1176  6225.89  79.2124
 58.1596  6033.28  78.5482
 58.2016  6111.79  78.2679
 58.2436  6246.3  79.5409
 58.2856  6162.49  78.9254
 58.3276  6124.79  79.0554
 58.3696  6099.54  78.6313
 58.4116  6163.68  78.92
 58.4536  6248.88  79.3457
 58.4956  6041.04  78.1973
 58.5376  6118.36  78.2644
 58.5796  6093.15  78.5301
 58.6216  6208.89  79.0869
 58.6636  6239.5  79.4961
 58.7056  6140.89  78.7198
 58.7476  6068.68  78.7016
 58.7896  6104.43  78.5771
 58.8316  6167.85  78.9779
 58.8736  6172.06  79.0071
 58.9156  6039.93  78.208
 58.9576  6252.17  79.898
 58.9996  6348.22  79.7232
 59.0416  6331.11  79.9935
 59.0836  6067.62  78.2436
 59.1256  6061.25  78.8945
 59.1676  6117.59  79.5715
 59.2096  6147.98  79.0814
 59.2516  6176.48  78.8409
 59.2936  6206.59  79.3654
 59.3356  6185.5  79.1067
 59.3776  6289.7  79.9427
 59.4196  6168.23  79.1026
 59.4616  6045.68  78.1724
 59.5036  6193.39  79.1569
 59.5456  6409.55  80.2111
 59.5876  6377.21  80.2048
 59.6296  6122.56  78.6568
 59.6716  6099.65  78.5678
 59.7136  6338.63  80.0801
 59.7556  6190.52  79.2771
 59.7976  6089.75  78.3704
 59.8396  6137.09  78.5678
 59.8816  6243.99  79.8026
 59.9236  6286.45  79.711
 59.9656  6084.94  78.6825
 60.0076  6219.52  78.8979
 60.0496  6179.32  79.1501
 60.0916  6230.02  78.8853
 60.1336  6172.86  79.642
 60.1756  6111.3  80.4351
 60.1996  0.0000000E+00  0.0000000E+00