File: docs/examples/opeando_xrd/IS17_D/Data/IS17_D/17_Db_f00109.xye
# /beamlines/bl04/projects/cycle2025-II/20250340211-lsimonelli/DATA/IS17_D/17_Db_f00109.xye : mythproc.py merge -s 0.006 -l 0.5 -f /beamlines/bl04/inhouse/ff/FlatField/ff_20Nov2024rod8mm60s_17keV.raw -b True -c true -o xye /beamlines/bl04/projects/cycle2025-II/20250340211-lsimonelli/DATA/IS17_D/17_Db_00109.dat
# IsMon = [6765499, 6763836, 6767301]  IsPos = [-1.5000, -2.4884, -3.4988]
# Wave = 0.4962  CalPath /beamlines/bl04/projects/cycle2025-II/20250340211-lsimonelli/DATA/Align/Si_Pos1_25keV_f00001.cal
# Date = 2025-09-25_00:05:50 Dt = 4.8000  Bin = 0.0060  <imon> = 6765545 +/- 1415 (Min/Max) 6763836 / 6767301
# icurr 251.1403  mocoIn 1.7125E-05  mocoOut 0.8039  i15 7.0931e+06  imon 6.76555e+06  i7 5.0000  iEMpd_timer 4.8000  iEMpd_1 3.4966E-08  iEMpd_2 7.8472E-08  iEMpd_3 1.6889E-08  iEMpd_4 4.8209E-08  iEMhp_timer 4.8000  iEMhp_1 4.9070E-06  iEMhp_2 -2.6169E-08  iEMhp_3 -2.5154E-08  iEMhp_4 -2.2295E-08
#      9776
 1.5856  44805.8  217.356
 1.6276  51746.7  229.577
 1.6696  57489.5  241.128
 1.7116  65331.8  257.552
 1.7536  72660.9  270.457
 1.7956  76783.7  278.719
 1.8376  73607.6  273.326
 1.8796  63665.1  252.327
 1.9216  53040.9  231.231
 1.9636  46742.3  216.725
 2.0056  42599.6  205.576
 2.0476  39380.8  199.824
 2.0896  38004.5  195.15
 2.1316  36773.5  191.041
 2.1736  35359.9  188.819
 2.2156  36610.6  190.587
 2.2576  34976.6  186.952
 2.2996  33474.5  183.566
 2.3416  34124.4  183.861
 2.3836  33661.8  182.722
 2.4256  32641.2  180.517
 2.4676  31759.5  177.81
 2.5096  31876.3  178.195
 2.5516  30530.5  178.404
 2.5936  30439.6  174.561
 2.6356  30038.8  174.151
 2.6776  29900.9  172.596
 2.7196  29719.4  172.592
 2.7616  29667.9  172.217
 2.8036  29225.9  171.106
 2.8456  28949.8  170.961
 2.8876  28297.1  168.884
 2.9296  27956.3  167.994
 2.9716  27974.2  167.511
 3.0136  27528.1  166.242
 3.0556  27480.3  166.509
 3.0976  27506.2  165.43
 3.1396  26993.8  164.645
 3.1816  26702.4  163.7
 3.2236  26597.9  163.377
 3.2656  26088.6  160.815
 3.3076  26065.9  162.268
 3.3496  26145.2  161.397
 3.3916  26517.6  162.361
 3.4336  26572.7  163.134
 3.4756  26943.4  164.195
 3.5176  27654.7  166.114
 3.5596  27089.8  167.483
 3.6016  27576.3  165.942
 3.6436  26495.3  163.799
 3.6856  26343.3  161.575
 3.7276  25398  159.763
 3.7696  25166.7  159.006
 3.8116  24564.9  157.195
 3.8536  24841.5  158.011
 3.8956  24582.7  157.002
 3.9376  24438.5  156.816
 3.9796  24387.9  156.128
 4.0216  24319.9  154.93
 4.0636  24351.1  156.526
 4.1056  24232.6  155.802
 4.1476  24571  157.188
 4.1896  24830.1  157.876
 4.2316  24731  157.386
 4.2736  25086.4  158.309
 4.3156  25221.9  158.967
 4.3576  26171.5  161.836
 4.3996  26319.9  162.579
 4.4416  26876.7  163.863
 4.4836  27166.2  164.911
 4.5256  27835.9  167.543
 4.5676  27474.7  166.714
 4.6096  28097.6  167.599
 4.6516  28593.7  168.392
 4.6936  28528.6  169.034
 4.7356  28777.3  169.591
 4.7776  28639.8  169.014
 4.8196  28712.3  169.896
 4.8616  28124.7  167.63
 4.9036  27793.4  166.362
 4.9456  27776.5  166.977
 4.9876  26828.4  164.005
 5.0296  27100.1  164.668
 5.0716  26948.6  164.968
 5.1136  27107.9  165.175
 5.1556  27374.6  165.439
 5.1976  28046.4  167.445
 5.2396  27899.9  166.697
 5.2816  27981.1  167.415
 5.3236  27826.1  166.644
 5.3656  27554.9  166.775
 5.4076  27283.2  166.094
 5.4496  27099.1  165.025
 5.4916  27415.9  165.732
 5.5336  27351  165.547
 5.5756  27396.7  165.693
 5.6176  27574.5  165.671
 5.6596  27896.8  167.483
 5.7016  27697.8  166.291
 5.7436  27830.9  166.971
 5.7856  27622.2  166.41
 5.8276  27833.4  166.758
 5.8696  28427.3  168.585
 5.9116  28223.2  168.707
 5.9536  28403.5  168.978
 5.9956  28698.7  169.241
 6.0376  28576.9  169.505
 6.0796  28821.7  170.057
 6.1216  28701.7  169.912
 6.1636  29272.1  170.625
 6.2056  28907.9  170.246
 6.2476  29511.8  171.695
 6.2896  29547.9  171.666
 6.3316  29600  171.995
 6.3736  29683.9  172.127
 6.4156  29576.5  171.765
 6.4576  29842.1  172.087
 6.4996  29797.4  172.437
 6.5416  30028.6  173.239
 6.5836  29866  173.012
 6.6256  30116.2  173.285
 6.6676  30822.8  174.87
 6.7096  30662.7  175.279
 6.7516  30943.3  175.737
 6.7936  31237.3  175.961
 6.8356  31172.8  175.879
 6.8776  31354.9  177.198
 6.9196  31710.6  178.611
 6.9616  31868.5  178.499
 7.0036  32416.1  179.669
 7.0456  32530.3  179.274
 7.0876  32668.9  181.278
 7.1296  32475.8  179.955
 7.1716  32249.9  178.858
 7.2136  32153.6  178.375
 7.2556  32344.3  179.055
 7.2976  32500.9  179.989
 7.3396  32171.1  179.301
 7.3816  32350.5  180.019
 7.4236  32837.6  180.652
 7.4656  32868.3  180.191
 7.5076  32907.7  180.451
 7.5496  32686  180.383
 7.5916  32766.3  180.649
 7.6336  33187.9  181.697
 7.6756  33373.4  182.049
 7.7176  33950.3  183.952
 7.7596  33758.4  184.651
 7.8016  34288.4  188.374
 7.8436  34108.5  184.504
 7.8856  34168.2  184.261
 7.9276  34455  185.435
 7.9696  34513.3  185.905
 8.0116  35860.2  188.035
 8.0536  35968.5  188.567
 8.0956  35950.9  189.716
 8.1376  36141.5  189.682
 8.1796  36374.2  190.837
 8.2216  37129.6  191.534
 8.2636  37454.2  192.626
 8.3056  37215.6  192.775
 8.3476  38000.7  194.125
 8.3896  37827.6  193.761
 8.4316  37553.7  193.229
 8.4736  37912.4  193.619
 8.5156  37430.4  192.66
 8.5576  37479.7  193.764
 8.5996  37339.5  192.271
 8.6416  37382.3  193.654
 8.6836  37100.8  192.741
 8.7256  37559.1  193.388
 8.7676  37249.3  195.506
 8.8096  37410.7  193.204
 8.8516  37821.3  193.883
 8.8936  37271  192.365
 8.9356  37399.4  193.033
 8.9776  37346.5  192.973
 9.0196  37433.3  192.871
 9.0616  36955  191.129
 9.1036  36721  191.7
 9.1456  36353.3  190.065
 9.1876  36753.6  191.052
 9.2296  36344.2  189.418
 9.2716  35911.7  188.334
 9.3136  36038.8  188.656
 9.3556  36349.1  189.443
 9.3976  35383.3  187.425
 9.4396  35197.1  186.838
 9.4816  35532.4  187.584
 9.5236  34652.4  185.142
 9.5656  34704.5  185.641
 9.6076  34046.8  184.401
 9.6496  34264.6  184.85
 9.6916  33979.7  184.052
 9.7336  34279.7  184.629
 9.7756  34019  185.093
 9.8176  33750.1  184.019
 9.8596  33717.1  182.352
 9.9016  33219.3  180.999
 9.9436  32776.2  179.532
 9.9856  32625  179.559
 10.0276  32289  179.714
 10.0696  32363.5  178.947
 10.1116  31647.7  177.224
 10.1536  31632.8  176.837
 10.1956  31090.8  175.425
 10.2376  30845  174.231
 10.2796  30835.9  174.317
 10.3216  30376.3  173.161
 10.3636  30209.6  172.86
 10.4056  29685.8  171.76
 10.4476  29511  170.863
 10.4896  29844.2  171.262
 10.5316  29491.3  170.643
 10.5736  28924.9  169.743
 10.6156  29044.5  169.844
 10.6576  28986  168.244
 10.6996  28507.9  167.548
 10.7416  28225.3  166.927
 10.7836  27523.8  165.504
 10.8256  27642.8  166.281
 10.8676  27505  165.414
 10.9096  27174.3  164.447
 10.9516  26940.4  162.686
 10.9936  27017.8  163.125
 11.0356  26910.8  163.41
 11.0776  26716.9  162.156
 11.1196  26080.1  160.972
 11.1616  26000  160.4
 11.2036  26100.2  160.556
 11.2456  25912.9  160.688
 11.2876  26241.6  161.423
 11.3296  25510.6  159.076
 11.3716  25764.1  159.588
 11.4136  25568  159.82
 11.4556  25553.5  159.43
 11.4976  25714  158.938
 11.5396  26100.5  160.304
 11.5816  26715  162.61
 11.6236  27052.6  163.885
 11.6656  27935  165.649
 11.7076  26890.1  163.384
 11.7496  26128.8  165.129
 11.7916  25721  159.033
 11.8336  25226.6  158.391
 11.8756  25186.1  157.818
 11.9176  25085.3  157.174
 11.9596  25279.7  157.946
 12.0016  24836  157.323
 12.0436  24757.7  156.535
 12.0856  24566.8  156.427
 12.1276  24473.8  156.087
 12.1696  24482.8  155.22
 12.2116  24661.4  155.793
 12.2536  24365.3  155.652
 12.2956  24227.7  154.575
 12.3376  24411.8  155.369
 12.3796  24367.7  155.717
 12.4216  24406.7  155.026
 12.4636  24047.5  154.824
 12.5056  24231.8  154.676
 12.5476  24521.5  155.104
 12.5896  24077.2  154.341
 12.6316  24151.3  154.729
 12.6736  24112.2  155.095
 12.7156  24264.8  155.428
 12.7576  23993.6  154.802
 12.7996  24145.2  153.925
 12.8416  23928.6  154.295
 12.8836  24153.8  154.852
 12.9256  24681.2  155.549
 12.9676  24479.5  155.319
 13.0096  24637.4  156.946
 13.0516  24772.5  156.396
 13.0936  24761.7  156.492
 13.1356  25138.5  156.901
 13.1776  24675.2  156.484
 13.2196  25178.6  157.712
 13.2616  24838.8  156.957
 13.3036  25308.6  158.576
 13.3456  24781  157.093
 13.3876  25315.2  158.036
 13.4296  24935.5  157.021
 13.4716  25090.1  157.125
 13.5136  25055.4  157.143
 13.5556  24859.8  157.168
 13.5976  25137.2  158.217
 13.6396  24933.1  156.925
 13.6816  25138.7  157.925
 13.7236  25419.7  158.509
 13.7656  26900.2  163.522
 13.8076  27729.3  164.661
 13.8496  26302.3  161.252
 13.8916  25134.2  158.551
 13.9336  24560.4  156.01
 13.9756  24534.6  155.294
 14.0176  24079  154.527
 14.0596  24347.7  155.314
 14.1016  24098.6  154.948
 14.1436  24203.5  154.401
 14.1856  23567.1  152.661
 14.2276  23603.7  153.252
 14.2696  23618.6  153.16
 14.3116  23127.6  151.467
 14.3536  23136.3  151.659
 14.3956  22734.9  150.071
 14.4376  23246  151.524
 14.4796  23128.7  151.14
 14.5216  22680.8  150.464
 14.5636  22411  149.136
 14.6056  22629.8  149.408
 14.6476  22596.3  148.535
 14.6896  22140.7  147.579
 14.7316  21982.1  148.105
 14.7736  21719  146.351
 14.8156  21465.8  145.513
 14.8576  21350  144.975
 14.8996  20989.5  144.953
 14.9416  20769.6  144.209
 14.9836  20706.3  143.964
 15.0256  20131.1  140.866
 15.0676  20000.9  140.719
 15.1096  19856.8  139.949
 15.1516  19644  139.762
 15.1936  19484.7  138.619
 15.2356  19266.5  138.119
 15.2776  19342.8  137.981
 15.3196  18967.2  137.628
 15.3616  18914  137.188
 15.4036  18796.5  136.63
 15.4456  19039.9  137.158
 15.4876  18657  135.454
 15.5296  18528.2  135.278
 15.5716  18280.5  133.969
 15.6136  18152.4  133.831
 15.6556  18208.9  133.274
 15.6976  18129.3  133.282
 15.7396  17926.8  132.908
 15.7816  18004.1  132.718
 15.8236  17523.8  131.614
 15.8656  17763.7  132.312
 15.9076  17456.2  130.988
 15.9496  18233.6  136.713
 15.9916  17955.8  136.081
 16.0336  18014.5  133.116
 16.0756  17825.6  132.738
 16.1176  17507.1  131.474
 16.1596  17113.5  131.331
 16.2016  17175.1  130.322
 16.2436  17014.8  130.092
 16.2856  17189.7  130.257
 16.3276  16850.3  129.416
 16.3696  17168.8  130.464
 16.4116  16853.6  129.709
 16.4536  16974.6  129.975
 16.4956  16929.6  129.533
 16.5376  16693  128.816
 16.5796  16644.7  127.987
 16.6216  16736.5  128.626
 16.6636  16329.7  127.23
 16.7056  16431.3  127.483
 16.7476  16545.3  127.442
 16.7896  16541.5  128.189
 16.8316  16622.2  128.479
 16.8736  16754.2  129.241
 16.9156  16429  128.315
 16.9576  16335.5  128.75
 16.9996  16375  129.374
 17.0416  16521.3  128.34
 17.0836  16679.1  128.707
 17.1256  16537.7  128.168
 17.1676  16664.2  128.62
 17.2096  16576.5  128.16
 17.2516  16511.6  128.008
 17.2936  16526.8  128.121
 17.3356  16220.2  126.905
 17.3776  15941.2  126.002
 17.4196  15984.2  125.875
 17.4616  15815.1  125.115
 17.5036  15378.3  123.741
 17.5456  15438.8  124.618
 17.5876  15211.1  122.741
 17.6296  15709.3  124.539
 17.6716  15525.2  124.42
 17.7136  15235  123.376
 17.7556  15075.5  123.029
 17.7976  15144.4  123.039
 17.8396  14864.4  121.391
 17.8816  14909.8  122.156
 17.9236  14948.5  122.099
 17.9656  14766.1  121.873
 18.0076  14751.6  121.392
 18.0496  14794  120.713
 18.0916  14714.7  120.927
 18.1336  14635.5  120.699
 18.1756  14676.3  120.425
 18.2176  14452  119.713
 18.2596  14438.8  119.391
 18.3016  14542.8  120.077
 18.3436  14555.2  120.135
 18.3856  14414.3  119.678
 18.4276  14529.7  119.844
 18.4696  14249.2  118.76
 18.5116  14497.9  120.073
 18.5536  14305.3  119.622
 18.5956  14264.6  119.024
 18.6376  14177.4  119.067
 18.6796  14157.3  118.305
 18.7216  14369.6  119.677
 18.7636  14143.6  118.732
 18.8056  14077.3  118.375
 18.8476  13814.7  117.886
 18.8896  14103  118.448
 18.9316  14088.9  118.365
 18.9736  14021.9  117.791
 19.0156  13956.7  117.933
 19.0576  14265.3  118.06
 19.0996  14201.8  118.523
 19.1416  14150.8  118.705
 19.1836  14028.1  117.795
 19.2256  13823.2  117.15
 19.2676  13994.6  117.962
 19.3096  13966.4  118.092
 19.3516  14203.3  118.851
 19.3936  13770.6  117.115
 19.4356  14036.2  118.116
 19.4776  13866.9  117.491
 19.5196  13899.4  117.479
 19.5616  13794.7  117.293
 19.6036  13857.2  117.058
 19.6456  13947.6  117.559
 19.6876  13996.6  117.395
 19.7296  14124.8  118.403
 19.7716  13761.5  117.047
 19.8136  14069.5  118.531
 19.8556  14158  118.396
 19.8976  14091.5  118.17
 19.9396  13990.2  117.342
 19.9816  13958.6  117.457
 20.0236  14263.8  118.923
 20.0656  14392.1  119.455
 20.1076  14528.5  120.506
 20.1496  14759.9  121.45
 20.1916  15102.4  122.315
 20.2336  15206.9  122.705
 20.2756  15067.6  122.593
 20.3176  14571.6  120.297
 20.3596  14294.8  119.138
 20.4016  14269.1  118.819
 20.4436  13950.3  118.057
 20.4856  13985  117.99
 20.5276  13782.2  117.604
 20.5696  13683.1  116.732
 20.6116  13497.7  116.105
 20.6536  13633.4  116.192
 20.6956  13444.3  115.521
 20.7376  13408.6  115.58
 20.7796  13421  115.328
 20.8216  13570  115.664
 20.8636  13329.3  115.018
 20.9056  13363.2  115.103
 20.9476  13403.1  115.112
 20.9896  13499.6  115.391
 21.0316  13274.5  114.33
 21.0736  13206.3  114.557
 21.1156  13146.1  114.453
 21.1576  13202.3  114.731
 21.1996  13169.8  114.578
 21.2416  13278.9  114.879
 21.2836  13100  114.076
 21.3256  13317.6  115.096
 21.3676  13053.6  113.474
 21.4096  13010.9  113.669
 21.4516  12983.6  113.371
 21.4936  12851.6  113.061
 21.5356  13117.5  114.171
 21.5776  13070.4  113.801
 21.6196  13056.2  113.78
 21.6616  12955.6  113.42
 21.7036  13015.9  113.453
 21.7456  12863.4  112.869
 21.7876  12921.4  112.88
 21.8296  12967.2  112.922
 21.8716  12896.8  112.847
 21.9136  12998.7  113.492
 21.9556  12854.9  112.538
 21.9976  12736  112.05
 22.0396  12817.3  112.66
 22.0816  12785  113.049
 22.1236  12833.9  112.719
 22.1656  12756  112.518
 22.2076  12736.8  111.894
 22.2496  12538.5  111.05
 22.2916  12488.3  110.706
 22.3336  12621.5  112.025
 22.3756  12581.2  111.559
 22.4176  12380.2  110.523
 22.4596  12357.8  111.003
 22.5016  12339.8  110.431
 22.5436  12570.1  111.332
 22.5856  12837.4  112.762
 22.6276  12775  112.624
 22.6696  12590.5  112.165
 22.7116  12561.4  111.549
 22.7536  12666.7  111.986
 22.7956  12475.4  110.479
 22.8376  12330.5  110.342
 22.8796  12443.2  110.648
 22.9216  12530.9  111.581
 22.9636  12458.8  110.416
 23.0056  12429.2  110.42
 23.0476  12512.8  111.363
 23.0896  12827  112.125
 23.1316  12422.7  110.776
 23.1736  12634.2  114.674
 23.2156  12657.1  112.137
 23.2576  13027.8  113.9
 23.2996  12822.8  112.775
 23.3416  13059.6  114.349
 23.3836  12902.6  112.882
 23.4256  13183.8  114.224
 23.4676  12933.3  112.825
 23.5096  12893.2  113.319
 23.5516  12908.9  112.678
 23.5936  12750.5  112.901
 23.6356  13163.6  114.368
 23.6776  12788.2  112.941
 23.7196  12780.8  112.7
 23.7616  12822.1  112.578
 23.8036  12909  113.017
 23.8456  12680  111.558
 23.8876  12460.2  110.945
 23.9296  12492.5  111.581
 23.9716  12536.9  110.975
 24.0136  12575.4  112.056
 24.0556  12317.3  110.617
 24.0976  12282  110.269
 24.1396  12230.5  112.694
 24.1816  12484.3  112.238
 24.2236  12520.9  112.024
 24.2656  12241.7  110.244
 24.3076  12475.3  111.563
 24.3496  12154.8  109.998
 24.3916  12275.5  110.595
 24.4336  12307.8  110.942
 24.4756  12168.2  110.199
 24.5176  12063.3  109.338
 24.5596  12119.5  109.926
 24.6016  11965.8  109.321
 24.6436  12168.5  109.745
 24.6856  11981  108.642
 24.7276  11721.6  107.783
 24.7696  11805.7  108.283
 24.8116  11666.3  107.825
 24.8536  11819.5  108.527
 24.8956  11663.5  107.53
 24.9376  11625.2  107.54
 24.9796  11581.7  107.45
 25.0216  11438.6  106.899
 25.0636  11604.7  107.327
 25.1056  11376.2  106.965
 25.1476  11463.2  109.012
 25.1896  11295.7  106.725
 25.2316  11419.5  106.573
 25.2736  11268.6  105.522
 25.3156  11338.2  105.912
 25.3576  11242.8  105.907
 25.3996  11242.8  105.893
 25.4416  11228.7  105.803
 25.4836  11091.3  105.67
 25.5256  11300.2  106.022
 25.5676  11136.5  104.973
 25.6096  11025.4  105.028
 25.6516  11086.1  104.823
 25.6936  11230.1  105.816
 25.7356  10999  104.858
 25.7776  11118.4  105.097
 25.8196  10921.2  104.321
 25.8616  10955.5  104.416
 25.9036  11077.7  104.454
 25.9456  10986  104.624
 25.9876  10996.3  104.581
 26.0296  10974.6  104.144
 26.0716  10977  104.582
 26.1136  11026.1  104.738
 26.1556  11086.1  104.409
 26.1976  10877.4  104.352
 26.2396  10875.7  103.496
 26.2816  10932.8  104.385
 26.3236  10909.5  104.426
 26.3656  10992.2  104.542
 26.4076  10858.6  104.109
 26.4496  11178  105.22
 26.4916  11195.9  105.191
 26.5336  11524.8  107.083
 26.5756  11661.4  107.593
 26.6176  11143.9  105.191
 26.6596  11118.5  105.388
 26.7016  10958.8  104.394
 26.7436  10973.9  104.591
 26.7856  10688.7  103.21
 26.8276  10796.3  103.693
 26.8696  10946.5  104.276
 26.9116  10739.3  103.226
 26.9536  10736.5  103.266
 26.9956  10579.5  102.543
 27.0376  10618.1  102.947
 27.0796  10581.9  102.507
 27.1216  10678.8  103.019
 27.1636  10532.1  102.488
 27.2056  10494.5  102.191
 27.2476  10604.4  102.709
 27.2896  10422  101.944
 27.3316  10417.3  101.636
 27.3736  10398.8  101.821
 27.4156  10447.5  101.891
 27.4576  10375.2  101.763
 27.4996  10482.5  101.89
 27.5416  10460.4  102.099
 27.5836  10391.2  101.594
 27.6256  10445.5  102.046
 27.6676  10340.6  101.512
 27.7096  10350.5  101.439
 27.7516  10216.3  100.933
 27.7936  10573.4  102.826
 27.8356  10320.4  101.203
 27.8776  10459.1  101.928
 27.9196  10124  100.161
 27.9616  10235.2  100.91
 28.0036  10199.2  100.694
 28.0456  10198.5  100.83
 28.0876  9997.66  99.9115
 28.1296  10103.4  100.271
 28.1716  10220.6  100.876
 28.2136  10115.5  100.322
 28.2556  10081.3  100.264
 28.2976  10091.1  100.31
 28.3396  10036.9  99.798
 28.3816  10061.8  99.933
 28.4236  9976.5  99.6611
 28.4656  9976.26  99.7026
 28.5076  9979.49  99.3539
 28.5496  10047.1  99.9511
 28.5916  9938.17  99.2159
 28.6336  9933.47  99.5333
 28.6756  10023.1  99.1729
 28.7176  9905.56  99.145
 28.7596  9869.8  98.863
 28.8016  10026.5  99.6843
 28.8436  9828.66  98.9288
 28.8856  9940.79  99.3489
 28.9276  9959.15  99.6843
 28.9696  9679.94  97.9413
 29.0116  9740.59  98.4322
 29.0536  9631.42  98.0828
 29.0956  9819.18  98.7299
 29.1376  9807.17  98.6495
 29.1796  9862.73  98.9763
 29.2216  9639.06  97.6889
 29.2636  9875.3  98.9568
 29.3056  9748.95  98.0815
 29.3476  9733.64  98.5527
 29.3896  9838.72  99.1923
 29.4316  9666.21  97.6546
 29.4736  9538.65  97.0654
 29.5156  9523.71  96.9168
 29.5576  9482.95  97.4451
 29.5996  9328.87  95.9183
 29.6416  9476.23  96.7909
 29.6836  9617.55  97.436
 29.7256  9516.37  97.4868
 29.7676  9474.85  96.9334
 29.8096  9486.84  96.9419
 29.8516  9350.2  96.5675
 29.8936  9485.63  97.3597
 29.9356  9534.95  97.3668
 29.9776  9494.43  97.3061
 30.0196  9408.77  96.2714
 30.0616  9447.52  96.8367
 30.1036  9461.4  96.7336
 30.1456  9326.5  96.2688
 30.1876  9356.09  96.407
 30.2296  9342.65  96.2806
 30.2716  9448.04  96.4608
 30.3136  9466.36  97.4129
 30.3556  9577.27  97.9787
 30.3976  9420.19  98.6757
 30.4396  9801.23  97.9664
 30.4816  9717.19  97.1387
 30.5236  9616.81  96.6466
 30.5656  9552.86  96.9699
 30.6076  9536.71  96.6554
 30.6496  9593.7  97.0047
 30.6916  9434.19  96.2879
 30.7336  9470.89  96.6169
 30.7756  9488.67  96.7965
 30.8176  9547.09  97.018
 30.8596  9551.83  96.7969
 30.9016  9599.69  96.9128
 30.9436  9642.17  97.338
 30.9856  9713.56  97.8239
 31.0276  9395.5  95.8463
 31.0696  9414.28  96.5014
 31.1116  9479.16  96.7989
 31.1536  9509.88  96.8428
 31.1956  9418.93  96.4734
 31.2376  9211.11  95.4171
 31.2796  9554.04  96.7055
 31.3216  9460.01  96.155
 31.3636  9514.11  97.141
 31.4056  9365.6  97.6966
 31.4476  9490.52  96.2353
 31.4896  9334.14  95.9389
 31.5316  9500.59  96.1971
 31.5736  9480.17  95.9221
 31.6156  9500.7  96.0271
 31.6576  9507.2  96.1336
 31.6996  9478.64  95.6596
 31.7416  9378.37  96.1114
 31.7836  9587.83  96.3039
 31.8256  9474.55  96.0019
 31.8676  9467.09  95.9454
 31.9096  9260.06  95.1284
 31.9516  9164.25  94.9454
 31.9936  9109.8  94.4892
 32.0356  9371.65  95.8877
 32.0776  9327.22  95.5397
 32.1196  9375.64  95.8167
 32.1616  9360.22  95.2587
 32.2036  9411.2  96.0451
 32.2456  9305.98  95.8919
 32.2876  9411.65  95.9241
 32.3296  9145.13  94.5183
 32.3716  9028.16  94.025
 32.4136  9075.19  94.4696
 32.4556  9078.38  93.8761
 32.4976  9165.79  94.2717
 32.5396  9116.61  94.0404
 32.5816  9184.2  94.5171
 32.6236  9033.55  93.7967
 32.6656  9191.4  95.169
 32.7076  9101.77  94.3585
 32.7496  9015.29  93.5844
 32.7916  9059.25  93.7605
 32.8336  9078.2  93.959
 32.8756  9145.49  94.0301
 32.9176  9027.44  93.9042
 32.9596  8988.34  93.765
 33.0016  9028.14  93.7481
 33.0436  8990.75  93.7364
 33.0856  9007.48  93.9147
 33.1276  8845.74  92.796
 33.1696  9093.23  93.914
 33.2116  8947.23  93.3968
 33.2536  9113.22  94.2309
 33.2956  9035.18  93.9217
 33.3376  8926.69  93.1869
 33.3796  8981.61  93.6105
 33.4216  8933.72  92.9461
 33.4636  9116.37  94.0466
 33.5056  8847.87  92.9026
 33.5476  8899.36  93.1482
 33.5896  8969.24  93.31
 33.6316  8991.73  93.7301
 33.6736  8879.84  93.3926
 33.7156  8808.91  93.0526
 33.7576  9010.9  93.7498
 33.7996  8993.64  93.4186
 33.8416  8856.6  92.8961
 33.8836  8885.03  92.8166
 33.9256  8985.21  93.395
 33.9676  9009.17  93.4125
 34.0096  8767.05  92.4677
 34.0516  8839.76  92.4817
 34.0936  8761.04  92.345
 34.1356  8870.06  92.6527
 34.1776  8711.47  91.8222
 34.2196  8712.34  92.0074
 34.2616  8648.81  91.8164
 34.3036  8786.54  92.7867
 34.3456  8708.85  92.1246
 34.3876  8785.3  92.5948
 34.4296  8824.68  92.3983
 34.4716  8780.34  92.3158
 34.5136  8821.46  92.7276
 34.5556  8589.81  91.756
 34.5976  8790.3  92.6651
 34.6396  8703.63  91.884
 34.6816  8724.47  92.1043
 34.7236  8781.77  92.1757
 34.7656  8712.24  92.0251
 34.8076  8609.69  91.8142
 34.8496  8611.32  91.6668
 34.8916  8665.4  91.8245
 34.9336  8759.87  92.3024
 34.9756  8705.25  91.9578
 35.0176  8651.65  92.1769
 35.0596  8749.05  92.5205
 35.1016  8689.14  91.9537
 35.1436  8856.08  92.5156
 35.1856  8714.37  91.9022
 35.2276  8570.07  91.3044
 35.2696  8689.2  92.1283
 35.3116  8599.81  91.7548
 35.3536  8803.73  92.5705
 35.3956  8559.71  90.9639
 35.4376  8688.87  92.222
 35.4796  8658.44  92.0954
 35.5216  8582.03  91.6528
 35.5636  8416.03  91.4992
 35.6056  8578.18  91.3928
 35.6476  8600.73  91.4197
 35.6896  8561.55  91.2956
 35.7316  8399.77  90.409
 35.7736  8419.73  90.6993
 35.8156  8589.15  91.607
 35.8576  8511.5  91.4484
 35.8996  8547.51  91.6057
 35.9416  8576.48  91.2685
 35.9836  8423.12  90.8944
 36.0256  8619.71  91.8518
 36.0676  8622.85  91.6222
 36.1096  8585.86  91.5709
 36.1516  8602.4  91.5599
 36.1936  8588.42  91.305
 36.2356  8505.84  91.5338
 36.2776  8534.04  91.1427
 36.3196  8462.37  90.4442
 36.3616  8479.55  90.6613
 36.4036  8475.17  90.7026
 36.4456  8453.38  90.8054
 36.4876  8315.19  89.9967
 36.5296  8373.61  90.3563
 36.5716  8419.99  91.3834
 36.6136  8341.89  89.7435
 36.6556  8384.11  90.1629
 36.6976  8235.47  89.8633
 36.7396  8234.63  89.5945
 36.7816  8253.51  90.0634
 36.8236  8187.52  89.634
 36.8656  8156.59  89.5287
 36.9076  8109.07  89.1529
 36.9496  8049.38  88.8061
 36.9916  8153.79  89.0119
 37.0336  8186.07  89.5004
 37.0756  8272.71  89.7687
 37.1176  8024.09  88.6742
 37.1596  8087.28  89.0311
 37.2016  8114.76  89.4069
 37.2436  8181.44  89.0894
 37.2856  8128.99  89.0573
 37.3276  8128.65  88.4097
 37.3696  8116.35  89.2309
 37.4116  8096.14  89.0178
 37.4536  8109.34  88.9603
 37.4956  7993.35  88.363
 37.5376  8214.92  91.1712
 37.5796  8141.92  90.6957
 37.6216  8119.78  88.8333
 37.6636  8282.48  89.6052
 37.7056  8192.27  89.3164
 37.7476  8353.55  89.7171
 37.7896  8021.06  88.4249
 37.8316  8134.05  89.1977
 37.8736  8154.58  88.8381
 37.9156  8154.09  88.8325
 37.9576  8145.86  88.6975
 37.9996  8060.97  87.9464
 38.0416  8141.83  89.1917
 38.0836  8358.93  90.2778
 38.1256  8172.47  89.2411
 38.1676  8083.34  88.8695
 38.2096  8192.99  89.0835
 38.2516  8130.89  88.9642
 38.2936  8277.06  89.5568
 38.3356  8176.42  88.941
 38.3776  8065.24  88.5789
 38.4196  8099.7  88.6255
 38.4616  8018.68  88.4314
 38.5036  8233.51  89.4463
 38.5456  8090.99  89.5115
 38.5876  8004.7  89.0588
 38.6296  8129.5  88.7038
 38.6716  8103.25  88.377
 38.7136  7976.97  87.6263
 38.7556  8030.07  88.4272
 38.7976  8054.31  88.4857
 38.8396  7994.18  88.6176
 38.8816  7989.75  88.3866
 38.9236  7939.65  87.907
 38.9656  8068.98  88.5198
 39.0076  8134.41  88.288
 39.0496  8177.77  89.0786
 39.0916  8164.89  88.652
 39.1336  8055.97  88.4712
 39.1756  8011.45  88.2767
 39.2176  8036.1  88.9625
 39.2596  8059.72  89.0163
 39.3016  8148.83  89.0869
 39.3436  8085.74  89.1516
 39.3856  8157.17  88.9843
 39.4276  8125.83  89.3258
 39.4696  8093.06  88.7621
 39.5116  8007.69  88.8107
 39.5536  8114.08  89.8204
 39.5956  8108.52  88.8852
 39.6376  7964.95  88.0881
 39.6796  7945.31  87.719
 39.7216  7999.43  88.1259
 39.7636  8047.94  88.9583
 39.8056  8060.64  88.8111
 39.8476  7965.24  88.5462
 39.8896  8005.66  88.3924
 39.9316  7970.79  88.457
 39.9736  8021.96  88.3092
 40.0156  8172.5  88.9642
 40.0576  8030.44  88.5393
 40.0996  8118.73  88.2025
 40.1416  8050.92  88.6361
 40.1836  8096.38  88.7691
 40.2256  7915.99  87.8118
 40.2676  7835.51  87.5366
 40.3096  8019.46  88.4173
 40.3516  7965.27  88.2218
 40.3936  7992.4  87.9291
 40.4356  7952.63  87.9274
 40.4776  8148.37  89.2388
 40.5196  8023.47  88.8407
 40.5616  8095.87  88.8857
 40.6036  7951.56  88.3426
 40.6456  8024.16  88.3452
 40.6876  8099.8  88.7556
 40.7296  7919.09  87.8957
 40.7716  8179.83  89.4604
 40.8136  8004.41  88.4429
 40.8556  8120.14  89.2033
 40.8976  8065.31  88.8326
 40.9396  7999.37  88.8165
 40.9816  8177.8  89.0814
 41.0236  8045.71  88.1408
 41.0656  8109.46  89.0305
 41.1076  8015.51  88.2813
 41.1496  8122.32  88.7791
 41.1916  8048.26  88.6921
 41.2336  8068.93  88.7997
 41.2756  8026.98  88.1761
 41.3176  8093.76  89.149
 41.3596  8130.26  89.0912
 41.4016  8028.55  88.7921
 41.4436  8099.87  88.9712
 41.4856  8036.73  88.7862
 41.5276  7978.48  88.4804
 41.5696  8056.82  88.5459
 41.6116  8117.74  89.2715
 41.6536  7991.61  88.429
 41.6956  8178.37  89.4449
 41.7376  8038.26  88.7732
 41.7796  7863.46  87.6906
 41.8216  7994.45  88.6493
 41.8636  7973.92  88.4839
 41.9056  7962.11  88.2085
 41.9476  8087.77  89.1388
 41.9896  8025.18  88.4526
 42.0316  8033.31  88.588
 42.0736  8133.52  89.2645
 42.1156  7913.09  87.856
 42.1576  7977.13  88.3202
 42.1996  8020.47  88.687
 42.2416  8060.08  88.4895
 42.2836  7983.89  88.193
 42.3256  7910.91  87.8989
 42.3676  8001.1  88.1933
 42.4096  7964.99  87.9732
 42.4516  8077.35  88.6695
 42.4936  7899.48  87.7574
 42.5356  7878.86  87.7883
 42.5776  7983.61  88.3012
 42.6196  7980.77  88.3329
 42.6616  7919.88  88.1791
 42.7036  8006.47  88.0359
 42.7456  7990.67  88.2995
 42.7876  7909.97  87.9305
 42.8296  7963.64  88.0874
 42.8716  7973.01  88.3054
 42.9136  7882.03  87.5483
 42.9556  7955.5  88.1183
 42.9976  8002.73  88.3561
 43.0396  8014.29  88.143
 43.0816  7977.38  88.3208
 43.1236  7760.53  87.169
 43.1656  7975.08  88.1969
 43.2076  7852.01  87.6163
 43.2496  7977.88  88.1355
 43.2916  7876.7  87.9339
 43.3336  7898.09  87.8918
 43.3756  7938.51  87.8649
 43.4176  7785.06  87.0991
 43.4596  7718.94  86.5818
 43.5016  7862.38  87.7896
 43.5436  7918.06  88.0037
 43.5856  7731.33  86.985
 43.6276  7941.18  88.0502
 43.6696  7844.02  87.7601
 43.7116  7893.19  87.539
 43.7536  7932.89  88.2611
 43.7956  7661.15  87.935
 43.8376  7648.02  86.3966
 43.8796  7627.48  86.3557
 43.9216  7589.42  86.0606
 43.9636  7745.46  87.0468
 44.0056  7677.55  86.899
 44.0476  7576.01  85.9473
 44.0896  7614.59  86.5154
 44.1316  7848.79  87.3506
 44.1736  7656.36  86.4026
 44.2156  7637.85  86.1561
 44.2576  7688.22  86.7607
 44.2996  7631  86.4128
 44.3416  7636.42  86.1957
 44.3836  7442.26  85.4239
 44.4256  7550.63  85.6788
 44.4676  7622.59  86.2464
 44.5096  7608.82  86.316
 44.5516  7553.11  85.9595
 44.5936  7557.94  85.9442
 44.6356  7593.72  85.8828
 44.6776  7561.77  86.0231
 44.7196  7635.92  86.7488
 44.7616  7664.53  88.2511
 44.8036  7735.91  87.2661
 44.8456  7690.91  87.0126
 44.8876  7792.85  87.4322
 44.9296  7912.23  87.5389
 44.9716  7759.64  87.1257
 45.0136  7841.38  87.5063
 45.0556  7813.43  87.4472
 45.0976  7672.69  86.7027
 45.1396  7651.34  86.3246
 45.1816  7689.23  86.4846
 45.2236  7919.62  87.6792
 45.2656  7639.61  86.614
 45.3076  7576.05  86.0187
 45.3496  7654.42  86.7859
 45.3916  7600.21  86.7567
 45.4336  7712.51  87.2354
 45.4756  7598.03  86.4371
 45.5176  7751.57  86.9196
 45.5596  7785.1  87.2291
 45.6016  7800.96  87.7495
 45.6436  7749.53  86.6159
 45.6856  7685.24  86.9196
 45.7276  7530.39  87.3803
 45.7696  7599.75  87.4523
 45.8116  7631.58  87.067
 45.8536  7608.37  86.8267
 45.8956  7654.75  86.4343
 45.9376  7671.36  85.9808
 45.9796  7551.21  85.9946
 46.0216  7641.93  86.8506
 46.0636  7690.7  86.2628
 46.1056  7735.05  86.5037
 46.1476  7658.59  86.6773
 46.1896  7695.02  87.0238
 46.2316  7611.4  86.4149
 46.2736  7523.63  86.1389
 46.3156  7596.18  86.2949
 46.3576  7576.07  86.3814
 46.3996  7562.29  86.4563
 46.4416  7617.17  86.3145
 46.4836  7605.17  86.6354
 46.5256  7756.97  87.435
 46.5676  7586.31  86.5919
 46.6096  7514.71  86.1023
 46.6516  7714.36  86.2719
 46.6936  7568.31  85.9528
 46.7356  7717.04  86.9006
 46.7776  7579.47  86.9746
 46.8196  7563.23  86.6177
 46.8616  7496.72  86.0321
 46.9036  7446.22  85.4005
 46.9456  7530.7  85.5107
 46.9876  7458.26  85.1863
 47.0296  7503.57  86.1323
 47.0716  7467.55  85.7601
 47.1136  7451.66  85.3386
 47.1556  7443.17  85.1514
 47.1976  7582.76  86.1202
 47.2396  7459.64  85.7385
 47.2816  7465.98  85.4734
 47.3236  7571.43  86.4527
 47.3656  7523.76  86.1103
 47.4076  7539.69  85.9156
 47.4496  7530.75  86.0455
 47.4916  7485.28  85.9761
 47.5336  7461.41  85.6501
 47.5756  7572.02  86.3969
 47.6176  7392.66  85.2656
 47.6596  7546.97  85.8704
 47.7016  7648.93  86.2491
 47.7436  7496.38  85.7249
 47.7856  7594.08  86.3165
 47.8276  7507.59  85.8689
 47.8696  7509.01  85.9662
 47.9116  7561.18  85.9698
 47.9536  7457.51  85.3204
 47.9956  7400.11  85.7122
 48.0376  7386  85.4076
 48.0796  7525.07  86.3244
 48.1216  7518.53  86.1166
 48.1636  7596.98  86.1222
 48.2056  7602.3  86.4236
 48.2476  7597.09  86.7104
 48.2896  7543.93  86.3148
 48.3316  7630.55  86.7448
 48.3736  7480.61  85.9208
 48.4156  7438.55  85.5237
 48.4576  7531.83  86.36
 48.4996  7607.15  86.2294
 48.5416  7505.02  85.9777
 48.5836  7485.54  85.5353
 48.6256  7452.03  85.5571
 48.6676  7510.71  86.429
 48.7096  7489.91  85.5497
 48.7516  7507.99  85.8112
 48.7936  7374.96  85.1116
 48.8356  7447.2  85.5743
 48.8776  7451.95  86.1949
 48.9196  7599.5  86.3861
 48.9616  7439.15  85.8577
 49.0036  7551.52  86.8683
 49.0456  7375.38  85.8246
 49.0876  7476.76  85.9206
 49.1296  7315.98  85.1623
 49.1716  7335.96  85.159
 49.2136  7502.92  86.0448
 49.2556  7407.33  85.5251
 49.2976  7434.02  85.7483
 49.3396  7333.86  85.2234
 49.3816  7526.15  85.7431
 49.4236  7465.48  85.8403
 49.4656  7358.99  85.2543
 49.5076  7458.58  85.5627
 49.5496  7354.56  85.0323
 49.5916  7446.6  85.4705
 49.6336  7425.95  85.5725
 49.6756  7560.65  86.5869
 49.7176  7462.43  85.9548
 49.7596  7370.71  85.1892
 49.8016  7456.86  85.6001
 49.8436  7328.37  85.1678
 49.8856  7457.65  85.91
 49.9276  7268.94  84.9247
 49.9696  7448.73  85.9551
 50.0116  7390.8  85.7495
 50.0536  7395.85  85.7216
 50.0956  7338.8  85.4613
 50.1376  7377.3  85.3745
 50.1796  7322.35  85.3346
 50.2216  7325.53  85.3577
 50.2636  7335.49  85.0176
 50.3056  7231.46  84.5903
 50.3476  7395.91  85.5695
 50.3896  7295.88  84.9648
 50.4316  7347.12  85.0878
 50.4736  7331.39  85.2194
 50.5156  7326.22  85.1795
 50.5576  7329.5  84.9573
 50.5996  7292.41  85.031
 50.6416  7271.24  84.8246
 50.6836  7358.53  85.3956
 50.7256  7409.46  85.6038
 50.7676  7458.07  86.2391
 50.8096  7280.36  84.7123
 50.8516  7310.86  85.3249
 50.8936  7229.05  84.6218
 50.9356  7330.32  85.32
 50.9776  7330.46  85.4839
 51.0196  7051  83.9729
 51.0616  7168.17  83.967
 51.1036  7148.68  84.2255
 51.1456  7209.72  84.4961
 51.1876  7324.81  84.474
 51.2296  7259.88  84.7541
 51.2716  7166.75  83.9123
 51.3136  7208.54  84.6341
 51.3556  7099.36  83.6007
 51.3976  7135.05  83.9645
 51.4396  7063.65  83.8644
 51.4816  7138.3  84.1536
 51.5236  7113.36  84.0997
 51.5656  7093.8  83.5632
 51.6076  7177.27  84.146
 51.6496  7011.64  83.3601
 51.6916  7125.79  84.4072
 51.7336  7039.55  83.9846
 51.7756  7167.84  84.4362
 51.8176  7035.12  83.7628
 51.8596  6975.19  83.4199
 51.9016  7152.81  84.071
 51.9436  7149.18  85.5642
 51.9856  7181.95  86.1789
 52.0276  7157.41  84.4867
 52.0696  7253.28  85.1304
 52.1116  7080.79  84.232
 52.1536  7043.16  83.8354
 52.1956  7127.37  83.8455
 52.2376  7248.8  84.729
 52.2796  7149.41  83.9641
 52.3216  7052.58  84.0917
 52.3636  7212.08  84.5944
 52.4056  7116.67  83.8931
 52.4476  6954.37  83.2987
 52.4896  6893.19  82.9758
 52.5316  7174.67  84.7003
 52.5736  6899.56  82.7745
 52.6156  7148.21  84.672
 52.6576  7012.94  83.2862
 52.6996  6819.29  83.131
 52.7416  6942.24  83.7158
 52.7836  7126.61  84.7176
 52.8256  7108.29  83.7996
 52.8676  6977.09  83.6062
 52.9096  7100.26  84.4066
 52.9516  7121.63  84.952
 52.9936  7070.17  85.0205
 53.0356  7125.43  84.3243
 53.0776  7134.4  84.6655
 53.1196  7074.2  84.4291
 53.1616  7068.73  84.4469
 53.2036  6926.72  83.5609
 53.2456  6995.11  84.0805
 53.2876  7094.94  84.3604
 53.3296  6983.99  84.0301
 53.3716  7177.29  84.9228
 53.4136  7180.04  85.0969
 53.4556  7030.01  84.236
 53.4976  7001  83.8979
 53.5396  6918.04  83.8044
 53.5816  7073.01  84.3547
 53.6236  7036.67  84.5092
 53.6656  7016.27  83.9764
 53.7076  7116.79  84.5473
 53.7496  7104.95  84.5949
 53.7916  6935.67  83.7263
 53.8336  6860.93  83.1558
 53.8756  6894.4  83.9278
 53.9176  6990.34  83.8395
 53.9596  6787.96  83.3835
 54.0016  6709.71  82.2163
 54.0436  6681.64  82.2705
 54.0856  6875.25  82.8722
 54.1276  6796.99  82.5873
 54.1696  6730.89  82.3545
 54.2116  6905.2  83.1568
 54.2536  6862.99  82.7142
 54.2956  6783.43  82.2923
 54.3376  6693.52  82.2216
 54.3796  6672.99  82.0096
 54.4216  6796.1  82.8126
 54.4636  6691.04  82.121
 54.5056  6732.37  82.1671
 54.5476  6721.96  82.4672
 54.5896  6639.53  81.8009
 54.6316  6743.49  82.278
 54.6736  6754.55  82.4396
 54.7156  6668.42  81.9188
 54.7576  6668.83  81.9285
 54.7996  6845.28  83.1658
 54.8416  6694.27  82.2829
 54.8836  6659.69  82.1645
 54.9256  6708.2  82.2161
 54.9676  6588.12  81.3414
 55.0096  6678.95  81.9119
 55.0516  6525.76  81.2253
 55.0936  6688.05  81.9013
 55.1356  6613.36  81.4814
 55.1776  6840.13  83.0865
 55.2196  6742.04  82.2971
 55.2616  6796.98  82.8513
 55.3036  6554.21  81.5211
 55.3456  6547.46  81.6338
 55.3876  6604.66  81.7168
 55.4296  6531.38  81.2452
 55.4716  6619.22  81.8228
 55.5136  6622.3  81.6138
 55.5556  6748.32  82.4288
 55.5976  6561.73  81.3709
 55.6396  6601.45  81.4682
 55.6816  6514.19  80.8696
 55.7236  6442.03  80.4797
 55.7656  6610.18  81.2512
 55.8076  6469.84  80.3923
 55.8496  6682.1  82.13
 55.8916  6512.49  81.1918
 55.9336  6739.72  82.4044
 55.9756  6395.75  80.155
 56.0176  6399.33  80.3177
 56.0596  6499.61  80.9518
 56.1016  6405.28  80.385
 56.1436  6459.97  80.9807
 56.1856  6365.22  80.1402
 56.2276  6679.69  82.14
 56.2696  6501.5  81.0127
 56.3116  6595.72  81.9753
 56.3536  6466.5  80.8224
 56.3956  6492.6  80.98
 56.4376  6483.05  80.9659
 56.4796  6400.69  80.2695
 56.5216  6454.18  80.9644
 56.5636  6329.1  79.7652
 56.6056  6578.69  81.5661
 56.6476  6462.48  80.444
 56.6896  6555.9  81.4897
 56.7316  6432.98  80.64
 56.7736  6434.2  80.6351
 56.8156  6488.11  81.0031
 56.8576  6311.23  79.8229
 56.8996  6378.78  80.1653
 56.9416  6315.38  80.0849
 56.9836  6555.02  81.0872
 57.0256  6295.77  79.7914
 57.0676  6510.5  81.2576
 57.1096  6349.64  80.0243
 57.1516  6262.26  79.5409
 57.1936  6421.09  80.2875
 57.2356  6317.69  79.9713
 57.2776  6376.08  80.299
 57.3196  6363.4  80.5934
 57.3616  6291.75  79.6169
 57.4036  6334.68  79.9263
 57.4456  6435.06  80.5629
 57.4876  6363.5  79.9709
 57.5296  6302.37  79.9091
 57.5716  6308.44  79.9654
 57.6136  6164.06  78.8696
 57.6556  6423.6  80.6344
 57.6976  6452.47  80.6416
 57.7396  6254.44  79.752
 57.7816  6269.47  80.2189
 57.8236  6204.67  79.604
 57.8656  6341.91  80.131
 57.9076  6289.22  79.8179
 57.9496  6348  80.5523
 57.9916  6320.75  79.8882
 58.0336  6347.03  80.3347
 58.0756  6223.38  79.1688
 58.1176  6229.97  79.2161
 58.1596  6174.58  79.4619
 58.2016  6103.83  78.2193
 58.2436  6167.19  79.0324
 58.2856  6124.35  78.6852
 58.3276  5969.46  78.0568
 58.3696  5903.97  77.3813
 58.4116  6106.39  78.5602
 58.4536  6194.62  79.0142
 58.4956  5947.3  77.598
 58.5376  6058.55  77.8902
 58.5796  6025.65  78.0991
 58.6216  6040.98  78.022
 58.6636  6077.16  78.4584
 58.7056  5995.12  77.791
 58.7476  5869.24  77.4005
 58.7896  6014.91  78.0039
 58.8316  6004.39  77.9378
 58.8736  6214.9  79.3011
 58.9156  6104.71  78.6396
 58.9576  6002.65  78.2954
 58.9996  6109.13  78.2381
 59.0416  6103.5  78.5609
 59.0836  6229.53  79.2791
 59.1256  6010.68  78.5792
 59.1676  5918.81  78.2853
 59.2096  5911.6  77.5428
 59.2516  6098.46  78.3378
 59.2936  5977.53  77.8836
 59.3356  6016  78.0118
 59.3776  6181.91  79.2511
 59.4196  5961.25  77.7606
 59.4616  6017.45  77.9862
 59.5036  5847.94  76.9149
 59.5456  6114.21  78.3378
 59.5876  6031.8  77.999
 59.6296  6041.88  78.1334
 59.6716  5939.1  77.5234
 59.7136  6148.36  78.8655
 59.7556  5934.96  77.6201
 59.7976  6052.53  78.127
 59.8396  5881.14  76.9086
 59.8816  5902.86  77.588
 59.9236  5884.36  77.1162
 59.9656  5978.39  77.9894
 60.0076  6037.2  77.7294
 60.0496  5912.12  77.4179
 60.0916  6107.37  78.1014
 60.1336  5820.16  77.3298
 60.1756  5860.54  78.7641
 60.1996  0.0000000E+00  0.0000000E+00