File: docs/examples/opeando_xrd/IS17_D/Data/IS17_D/17_Da_f00103.xye
# /beamlines/bl04/projects/cycle2025-II/20250340211-lsimonelli/DATA/IS17_D/17_Da_f00103.xye : mythproc.py merge -s 0.006 -l 0.5 -f /beamlines/bl04/inhouse/ff/FlatField/ff_20Nov2024rod8mm60s_17keV.raw -b True -c true -o xye /beamlines/bl04/projects/cycle2025-II/20250340211-lsimonelli/DATA/IS17_D/17_Da_00103.dat
# IsMon = [6747308, 6744173, 6745236]  IsPos = [-1.4999, -2.4884, -3.4989]
# Wave = 0.4962  CalPath /beamlines/bl04/projects/cycle2025-II/20250340211-lsimonelli/DATA/Align/Si_Pos1_25keV_f00001.cal
# Date = 2025-09-24_22:15:38 Dt = 4.8000  Bin = 0.0060  <imon> = 6745572 +/- 1302 (Min/Max) 6744173 / 6747308
# icurr 248.8455  mocoIn 1.6971E-05  mocoOut 0.7966  i15 7.06521e+06  imon 6.74557e+06  i7 3.0000  iEMpd_timer 4.8000  iEMpd_1 3.3112E-08  iEMpd_2 7.8117E-08  iEMpd_3 1.7903E-08  iEMpd_4 4.8971E-08  iEMhp_timer 4.8000  iEMhp_1 4.8633E-06  iEMhp_2 -2.4505E-08  iEMhp_3 -2.4630E-08  iEMhp_4 -2.2143E-08
#      9776
 1.5856  40363.2  206.272
 1.6276  47254.1  219.356
 1.6696  54275.5  234.26
 1.7116  62334  251.54
 1.7536  72412.3  269.958
 1.7956  76772.1  278.661
 1.8376  72752.8  271.698
 1.8796  61188  247.318
 1.9216  49526  223.408
 1.9636  41938.3  204.741
 2.0056  37872.1  193.808
 2.0476  35293.2  189.144
 2.0896  33767.3  183.925
 2.1316  32907.7  180.696
 2.1736  31150.3  177.2
 2.2156  31919.4  177.935
 2.2576  30749.9  175.272
 2.2996  29781  173.12
 2.3416  30002.7  172.378
 2.3836  29581.8  171.269
 2.4256  28320.4  168.123
 2.4676  28262.3  167.713
 2.5096  28334.1  167.981
 2.5516  27286.8  168.685
 2.5936  27426.1  165.699
 2.6356  27095.2  165.393
 2.6776  26995.7  163.957
 2.7196  26777.8  163.827
 2.7616  26627.2  163.143
 2.8036  26387.7  162.579
 2.8456  26326.5  163.013
 2.8876  25799.8  161.261
 2.9296  25329.2  159.902
 2.9716  25035.9  158.461
 3.0136  25012.2  158.453
 3.0556  24796  158.164
 3.0976  24681.1  156.709
 3.1396  24532.5  156.975
 3.1816  24209.7  155.875
 3.2236  24037.5  155.319
 3.2656  23993.5  154.21
 3.3076  23717.1  154.775
 3.3496  24031.6  154.735
 3.3916  23988.9  154.419
 3.4336  24602.3  156.96
 3.4756  25129  158.546
 3.5176  25741.8  160.271
 3.5596  25649.7  162.421
 3.6016  25743.6  160.338
 3.6436  24921.5  158.863
 3.6856  24420.9  155.561
 3.7276  23699.6  154.335
 3.7696  23336.1  153.337
 3.8116  22981.1  152.051
 3.8536  23123  152.451
 3.8956  22863  151.422
 3.9376  23118.9  152.52
 3.9796  22769.1  150.873
 4.0216  22997.2  150.668
 4.0636  22806.6  151.502
 4.1056  22933.3  151.569
 4.1476  22929.6  151.861
 4.1896  23046.9  152.115
 4.2316  23380.7  153.039
 4.2736  23849.3  154.355
 4.3156  24019.3  155.133
 4.3576  24743.2  157.383
 4.3996  24968.1  158.353
 4.4416  25596.3  159.911
 4.4836  26029.7  161.421
 4.5256  26352.9  163.021
 4.5676  26182.7  162.753
 4.6096  26938.2  163.732
 4.6516  27209.9  164.275
 4.6936  27522.2  166.029
 4.7356  27616.1  166.139
 4.7776  27669.8  166.139
 4.8196  27385.6  165.919
 4.8616  26719.7  163.387
 4.9036  26534.8  162.554
 4.9456  26342.5  162.618
 4.9876  25960.9  161.339
 5.0296  26139.2  161.708
 5.0716  25897.6  161.737
 5.1136  26263  162.577
 5.1556  26451.2  162.63
 5.1976  26855.9  163.851
 5.2396  26976.7  163.924
 5.2816  26851.9  163.996
 5.3236  27035.7  164.265
 5.3656  26519.5  163.607
 5.4076  26332.1  163.179
 5.4496  26609.9  163.532
 5.4916  26452.2  162.799
 5.5336  26557  163.213
 5.5756  26318.3  162.418
 5.6176  26851.1  163.489
 5.6596  26597.5  163.676
 5.7016  26767.3  163.479
 5.7436  26965.4  163.976
 5.7856  26823.8  163.976
 5.8276  27356  165.326
 5.8696  27512.3  165.96
 5.9116  27409.2  166.255
 5.9536  27613.9  166.62
 5.9956  28037.6  167.268
 6.0376  27901.7  167.496
 6.0796  28216.7  168.268
 6.1216  28222.4  168.495
 6.1636  28461.8  168.269
 6.2056  28243.4  168.285
 6.2476  28640.6  169.335
 6.2896  28896.6  169.771
 6.3316  28466  168.663
 6.3736  28875.3  169.773
 6.4156  28750.8  169.299
 6.4576  28998.4  169.64
 6.4996  29265.8  170.908
 6.5416  29114.9  170.594
 6.5836  29292.7  171.2
 6.6256  29317.1  170.983
 6.6676  29958.4  172.41
 6.7096  29646.4  172.348
 6.7516  30211.6  173.649
 6.7936  30184.1  172.997
 6.8356  30645  174.391
 6.8776  30729.8  175.442
 6.9196  30684  175.704
 6.9616  31277.7  176.845
 7.0036  31692.9  177.658
 7.0456  31491.4  176.392
 7.0876  31494.9  178.087
 7.1296  31470.9  177.16
 7.1716  31359.5  176.379
 7.2136  31292.6  175.98
 7.2556  31539.3  176.835
 7.2976  31440.8  177.053
 7.3396  31468.6  177.346
 7.3816  31406.6  177.382
 7.4236  31647  177.354
 7.4656  31871.1  177.472
 7.5076  32069  178.151
 7.5496  32041.8  178.615
 7.5916  31742.8  177.808
 7.6336  32464.5  179.789
 7.6756  32355.5  179.265
 7.7176  32740.3  180.627
 7.7596  32632.8  181.578
 7.8016  33013  184.797
 7.8436  33421.3  182.795
 7.8856  33907.3  183.583
 7.9276  34230.7  184.848
 7.9696  34686.3  186.387
 8.0116  35673.4  187.557
 8.0536  35270.7  186.748
 8.0956  35400.2  188.252
 8.1376  35871.4  188.982
 8.1796  36123.3  190.189
 8.2216  37058.6  191.087
 8.2636  37088  191.694
 8.3056  36804  191.723
 8.3476  37526.7  192.93
 8.3896  37273.4  192.358
 8.4316  37583  193.319
 8.4736  37568.4  192.748
 8.5156  37309.4  192.358
 8.5576  36910.9  192.303
 8.5996  36745.3  190.745
 8.6416  36935.2  192.495
 8.6836  36639.6  191.552
 8.7256  37140.3  192.305
 8.7676  36487  193.47
 8.8096  36334.5  190.382
 8.8516  36453.4  190.314
 8.8936  35849.7  188.617
 8.9356  35667.8  188.475
 8.9776  36000.6  189.463
 9.0196  35643.7  188.188
 9.0616  35771.5  188.087
 9.1036  35493.6  188.458
 9.1456  35380  187.522
 9.1876  35761.9  188.473
 9.2296  35655.1  187.611
 9.2716  34919.5  185.715
 9.3136  34771.6  185.307
 9.3556  35053.7  186.044
 9.3976  33694.6  182.911
 9.4396  34144.6  184.029
 9.4816  33937.9  183.325
 9.5236  33861.4  183.042
 9.5656  33494  182.364
 9.6076  33403.5  182.651
 9.6496  33331.9  182.373
 9.6916  33220.9  182.043
 9.7336  33216.2  181.809
 9.7756  33411.3  183.607
 9.8176  32427.8  180.376
 9.8596  32485.1  179.001
 9.9016  31741.9  176.935
 9.9436  31794.8  176.998
 9.9856  31382.4  176.062
 10.0276  30977.3  176.018
 10.0696  31342  176.101
 10.1116  30362.9  173.588
 10.1536  30386.2  173.817
 10.1956  29902.6  172.032
 10.2376  29413.2  170.121
 10.2796  29502.3  170.516
 10.3216  29142.7  169.739
 10.3636  29111.8  169.679
 10.4056  28901.2  169.46
 10.4476  28719  168.551
 10.4896  28950.7  168.691
 10.5316  28070.6  166.793
 10.5736  28061.1  167.168
 10.6156  27713.7  165.899
 10.6576  27741.7  164.583
 10.6996  27628.5  164.903
 10.7416  27038.6  163.366
 10.7836  27281.9  164.787
 10.8256  27111.8  164.694
 10.8676  27079  164.14
 10.9096  26689.9  162.988
 10.9516  26420.6  161.114
 10.9936  26512.3  161.582
 11.0356  26461.1  162.06
 11.0776  26300.3  160.89
 11.1196  25674.3  159.693
 11.1616  25611.5  159.2
 11.2036  25726.1  159.404
 11.2456  25605.1  159.725
 11.2876  25525  159.197
 11.3296  25196.1  158.071
 11.3716  25679.3  159.282
 11.4136  25285.4  158.938
 11.4556  25637.4  159.715
 11.4976  25840.9  159.33
 11.5396  26111.7  160.338
 11.5816  26442.9  161.802
 11.6236  26907.4  163.446
 11.6656  26444.1  161.168
 11.7076  25617.8  159.477
 11.7496  25167.6  161.17
 11.7916  25236.4  157.55
 11.8336  24750.4  156.906
 11.8756  24619.6  156.029
 11.9176  24723.2  156.017
 11.9596  24240.3  154.662
 12.0016  24117.4  155.058
 12.0436  24030.6  154.206
 12.0856  24180.4  155.215
 12.1276  24122.3  154.831
 12.1696  23843.4  153.191
 12.2116  24086.4  153.961
 12.2536  23622.6  153.294
 12.2956  23804.4  153.106
 12.3376  23643.1  152.904
 12.3796  23737.3  153.672
 12.4216  23828.8  153.192
 12.4636  23618.1  153.422
 12.5056  23744.8  153.181
 12.5476  23779.2  152.752
 12.5896  23815.5  153.501
 12.6316  23375.9  152.223
 12.6736  23618  153.496
 12.7156  23278.2  152.241
 12.7576  23578.5  153.469
 12.7996  23680.3  152.458
 12.8416  23398.1  152.586
 12.8836  23886.1  154.004
 12.9256  24233.8  154.135
 12.9676  24262.3  154.652
 13.0096  23828  154.337
 13.0516  24146.6  154.415
 13.0936  24022.7  154.408
 13.1356  24742.6  155.694
 13.1776  24266.3  155.169
 13.2196  24490.1  155.54
 13.2616  24376.4  155.499
 13.3036  24578.2  156.103
 13.3456  24209.7  155.469
 13.3876  24254  154.712
 13.4296  24101.7  154.383
 13.4716  24415.4  154.998
 13.5136  24306.7  154.8
 13.5556  24439.4  155.549
 13.5976  24332.8  155.64
 13.6396  24550.2  155.707
 13.6816  24223.8  155.15
 13.7236  24577  155.936
 13.7656  24092.1  154.903
 13.8076  24387.9  154.651
 13.8496  23880.4  153.62
 13.8916  23908.5  154.702
 13.9336  23986.2  154.202
 13.9756  23827.8  153.043
 14.0176  23614.7  152.937
 14.0596  23757.5  153.454
 14.1016  23573.1  153.248
 14.1436  23279.6  151.426
 14.1856  23074.8  151.055
 14.2276  22845.9  150.734
 14.2696  22958.7  151.004
 14.3116  22618.1  149.786
 14.3536  22402  149.24
 14.3956  22441.1  149.103
 14.4376  22427.2  148.835
 14.4796  22546.3  149.223
 14.5216  22136.4  148.649
 14.5636  22006.9  147.781
 14.6056  22061.1  147.536
 14.6476  22028.4  146.664
 14.6896  21595.4  145.756
 14.7316  21359.4  145.981
 14.7736  21301.3  144.935
 14.8156  21043.7  144.082
 14.8576  21080.7  144.068
 14.8996  20506.5  143.283
 14.9416  20256.3  142.405
 14.9836  20352.4  142.713
 15.0256  20094.9  140.748
 15.0676  20182.4  141.278
 15.1096  20079.7  140.746
 15.1516  19643.5  139.769
 15.1936  19526.8  138.78
 15.2356  19503.1  138.973
 15.2776  19535.2  139.094
 15.3196  19015.2  137.812
 15.3616  18910.1  137.186
 15.4036  18674.8  136.193
 15.4456  19054.5  137.22
 15.4876  18733.7  135.742
 15.5296  18516.2  135.235
 15.5716  18401.2  134.416
 15.6136  18210.7  134.048
 15.6556  18515.4  134.768
 15.6976  18008  132.84
 15.7396  18121.1  133.641
 15.7816  18199.5  133.443
 15.8236  17942.6  133.14
 15.8656  17783.4  132.393
 15.9076  17458  131.003
 15.9496  17379  133.448
 15.9916  17416.5  134.05
 16.0336  17068  129.61
 16.0756  16985.3  129.605
 16.1176  17222.2  130.577
 16.1596  16747.4  129.929
 16.2016  16898.6  129.278
 16.2436  16770.6  129.162
 16.2856  16612.9  128.102
 16.3276  16317.6  127.371
 16.3696  16614.3  128.338
 16.4116  16398.3  127.963
 16.4536  16373.8  127.648
 16.4956  16383.3  127.427
 16.5376  16288.8  127.237
 16.5796  16160.4  126.111
 16.6216  16375.7  127.252
 16.6636  16155.2  126.547
 16.7056  16157.6  126.422
 16.7476  16183.3  126.058
 16.7896  16093  126.446
 16.8316  16116.9  126.504
 16.8736  15968  126.174
 16.9156  16024.2  126.724
 16.9576  16046.2  127.62
 16.9996  16023.2  128.014
 17.0416  16373.1  127.753
 17.0836  16070.4  126.314
 17.1256  15996.2  126.036
 17.1676  15899.9  125.658
 17.2096  15749.3  124.932
 17.2516  15704.4  124.538
 17.2936  15805.1  125.255
 17.3356  15301.1  123.25
 17.3776  15458.7  124.077
 17.4196  15479.3  123.853
 17.4616  15300  123.05
 17.5036  15224  123.116
 17.5456  14794.5  121.996
 17.5876  14928.4  121.601
 17.6296  14718  120.559
 17.6716  14790.5  121.427
 17.7136  14662.5  121.034
 17.7556  14664.6  121.335
 17.7976  14657.9  121.055
 17.8396  14496  119.889
 17.8816  14469.9  120.323
 17.9236  14348  119.622
 17.9656  14558.7  121.034
 18.0076  14514.8  120.431
 18.0496  14468  119.382
 18.0916  14319.5  119.213
 18.1336  14355.1  119.54
 18.1756  14525.1  119.782
 18.2176  14343.2  119.256
 18.2596  14325.2  118.926
 18.3016  14386.7  119.423
 18.3436  14321.1  119.16
 18.3856  14207.2  119.003
 18.4276  14220.9  118.549
 18.4696  14107.9  118.174
 18.5116  14115.2  118.49
 18.5536  14355.9  119.859
 18.5956  14094.9  118.311
 18.6376  14004.1  118.341
 18.6796  14037.6  117.805
 18.7216  14033.1  118.27
 18.7636  13863.5  117.542
 18.8056  13889.8  117.594
 18.8476  13828.1  117.947
 18.8896  13880.7  117.518
 18.9316  13972.5  117.894
 18.9736  13758.6  116.685
 19.0156  13864.5  117.538
 19.0576  13824.5  116.24
 19.0996  13967.8  117.551
 19.1416  13778.1  117.133
 19.1836  13944.9  117.448
 19.2256  13754.8  116.95
 19.2676  13806.9  117.168
 19.3096  13844.5  117.579
 19.3516  13761.4  117.176
 19.3936  13721.4  116.912
 19.4356  13775.6  117.005
 19.4776  13826.9  117.326
 19.5196  13655  116.446
 19.5616  13670.2  116.76
 19.6036  13762  116.661
 19.6456  13706.1  116.543
 19.6876  13795.8  116.575
 19.7296  13663.1  116.45
 19.7716  13620.1  116.441
 19.8136  13566.6  116.408
 19.8556  14054.7  117.964
 19.8976  13860.8  117.215
 19.9396  13912.8  117.007
 19.9816  13998.5  117.607
 20.0236  14105.2  118.278
 20.0656  14525.7  120.024
 20.1076  14339.7  119.713
 20.1496  14675.9  121.122
 20.1916  14753.2  120.937
 20.2336  14477  119.735
 20.2756  14253  119.241
 20.3176  13932.8  117.64
 20.3596  13870  117.354
 20.4016  13602.9  116.017
 20.4436  13603.8  116.48
 20.4856  13297.6  115.047
 20.5276  13266.1  115.38
 20.5696  13230.4  114.676
 20.6116  13314.2  115.323
 20.6536  13359.1  114.995
 20.6956  13076.9  113.93
 20.7376  13186  114.634
 20.7796  13115.2  114.004
 20.8216  13397.8  114.938
 20.8636  12989.8  113.529
 20.9056  13062.2  113.804
 20.9476  12986.4  113.309
 20.9896  13272.9  114.426
 21.0316  13135  113.73
 21.0736  12924.8  113.328
 21.1156  12930  113.51
 21.1576  13045.9  114.061
 21.1996  12890.5  113.366
 21.2416  12848.4  113.004
 21.2836  12853.5  112.993
 21.3256  12739  112.621
 21.3676  12999.6  113.27
 21.4096  12798  112.694
 21.4516  12729  112.273
 21.4936  12538.9  111.681
 21.5356  12844.6  112.98
 21.5776  12891  113.011
 21.6196  12669.4  112.072
 21.6616  12764.3  112.578
 21.7036  12676.8  111.976
 21.7456  12662.2  111.987
 21.7876  12671.5  111.784
 21.8296  12669.8  111.63
 21.8716  12552.5  111.34
 21.9136  12876.5  112.968
 21.9556  12567.2  111.279
 21.9976  12574.9  111.327
 22.0396  12620.5  111.788
 22.0816  12529.7  111.912
 22.1236  12668.6  111.993
 22.1656  12588.5  112.117
 22.2076  12658.2  111.554
 22.2496  12653.4  111.563
 22.2916  12668.8  111.5
 22.3336  12591.7  111.896
 22.3756  12664.1  111.938
 22.4176  12513.8  111.129
 22.4596  12493.8  111.622
 22.5016  12602.7  111.601
 22.5436  12581.6  111.508
 22.5856  12596.6  111.707
 22.6276  12536.8  111.578
 22.6696  12584  112.133
 22.7116  12461.4  111.107
 22.7536  12559.7  111.517
 22.7956  12606.6  111.057
 22.8376  12479.6  111.018
 22.8796  12537.4  111.076
 22.9216  12644  112.09
 22.9636  12588.6  111.001
 23.0056  12416.3  110.373
 23.0476  12628.3  111.88
 23.0896  12777.9  111.916
 23.1316  12545  111.328
 23.1736  12534  114.213
 23.2156  12663.8  112.166
 23.2576  12523.9  111.666
 23.2996  12690  112.2
 23.3416  12442.7  111.612
 23.3836  12433.1  110.812
 23.4256  12641.4  111.829
 23.4676  12587.6  111.309
 23.5096  12611.3  112.091
 23.5516  12450.6  110.656
 23.5936  12609.6  112.26
 23.6356  12705.8  112.359
 23.6776  12499.4  111.664
 23.7196  12247.6  110.109
 23.7616  12462.3  110.993
 23.8036  12594.8  111.599
 23.8456  12402.8  110.181
 23.8876  12262.4  110.057
 23.9296  12137.2  109.978
 23.9716  12321.5  110.009
 24.0136  12185.7  110.289
 24.0556  12128.1  109.77
 24.0976  12098.3  109.44
 24.1396  12065.3  111.939
 24.1816  12054.3  110.311
 24.2236  11946  109.425
 24.2656  11885.5  108.627
 24.3076  11738.3  108.201
 24.3496  11869.8  108.7
 24.3916  11752.9  108.205
 24.4336  11898.4  109.084
 24.4756  11805.6  108.531
 24.5176  11522.3  106.871
 24.5596  11642.6  107.552
 24.6016  11613.3  107.703
 24.6436  11525.1  106.787
 24.6856  11477  106.33
 24.7276  11519  106.847
 24.7696  11329.7  106.065
 24.8116  11261.5  105.932
 24.8536  11367.5  106.421
 24.8956  11381.2  106.225
 24.9376  11166.8  105.159
 24.9796  11118.7  105.28
 25.0216  11128  105.43
 25.0636  11074.8  104.84
 25.1056  10914.8  104.773
 25.1476  11270.6  108.137
 25.1896  11221.1  106.378
 25.2316  11211.2  105.597
 25.2736  11076  104.622
 25.3156  10958.3  104.135
 25.3576  11004.7  104.776
 25.3996  10958  104.534
 25.4416  10986.5  104.657
 25.4836  10954.1  105.022
 25.5256  10978  104.503
 25.5676  10988.9  104.289
 25.6096  10825.3  104.074
 25.6516  10946  104.156
 25.6936  10837.1  103.944
 25.7356  10770.5  103.76
 25.7776  10921.1  104.089
 25.8196  10725.3  103.386
 25.8616  10794.9  103.648
 25.9036  10975.7  103.98
 25.9456  10795.9  103.719
 25.9876  10854.2  104.054
 26.0296  10856.5  103.581
 26.0716  10749.6  103.476
 26.1136  10783.1  103.59
 26.1556  10891.6  103.492
 26.1976  10624.5  103.137
 26.2396  10766.6  102.974
 26.2816  10648.9  103.023
 26.3236  10725.8  103.554
 26.3656  10638.6  102.853
 26.4076  10799.4  103.838
 26.4496  11301.7  105.707
 26.4916  10790.8  103.299
 26.5336  10864.5  104.057
 26.5756  10961  104.296
 26.6176  10703.6  103.118
 26.6596  10737.1  103.575
 26.7016  10716.3  103.242
 26.7436  10494.1  102.29
 26.7856  10498.6  102.299
 26.8276  10577.2  102.636
 26.8696  10589.2  102.571
 26.9116  10568.2  102.416
 26.9536  10384.6  101.561
 26.9956  10459.1  101.957
 27.0376  10298.1  101.374
 27.0796  10348.2  101.369
 27.1216  10351.3  101.449
 27.1636  10281.8  101.275
 27.2056  10264  101.073
 27.2476  10312.1  101.31
 27.2896  10290  101.314
 27.3316  10258.8  100.867
 27.3736  10321.1  101.445
 27.4156  10059.5  99.9885
 27.4576  10276.5  101.292
 27.4996  10246.7  100.744
 27.5416  10170.6  100.688
 27.5836  10169.8  100.496
 27.6256  10529.5  102.429
 27.6676  10374.2  101.699
 27.7096  10079  100.098
 27.7516  9989.02  99.7143
 27.7936  10052.8  100.285
 27.8356  10067  99.985
 27.8776  9949.93  99.4426
 27.9196  9911.75  99.1068
 27.9616  9890.22  99.1941
 28.0036  9973.37  99.5765
 28.0456  9927.9  99.4795
 28.0876  9931.05  99.5865
 28.1296  9894.12  99.2396
 28.1716  9895.27  99.2546
 28.2136  10081.4  100.149
 28.2556  9784.55  98.7755
 28.2976  9787.75  98.7832
 28.3396  9913.25  99.1733
 28.3816  9933.21  99.3002
 28.4236  9821.78  98.8985
 28.4656  9735.95  98.497
 28.5076  9886.4  98.8877
 28.5496  9816.99  98.8036
 28.5916  9728.15  98.167
 28.6336  9716.37  98.4396
 28.6756  9808.09  98.1147
 28.7176  9761  98.417
 28.7596  9673.13  97.8794
 28.8016  9711.38  98.1048
 28.8436  9539.34  97.4689
 28.8856  9724.8  98.2657
 28.9276  9776.3  98.7676
 28.9696  9772.29  98.4034
 29.0116  9580.55  97.6243
 29.0536  9450.71  97.1547
 29.0956  9592.8  97.5986
 29.1376  9507.25  97.1312
 29.1796  9520.84  97.2425
 29.2216  9441.86  96.6824
 29.2636  9617.17  97.6473
 29.3056  9567.35  97.1922
 29.3476  9495.92  97.3453
 29.3896  9630.08  98.1243
 29.4316  9725.61  97.961
 29.4736  9615.44  97.467
 29.5156  9725.05  97.9335
 29.5576  9563.9  97.8646
 29.5996  9491.31  96.7568
 29.6416  9432.04  96.5721
 29.6836  9617.52  97.4397
 29.7256  9604.07  97.9413
 29.7676  9478.38  96.9572
 29.8096  9545.17  97.2454
 29.8516  9428.05  96.9771
 29.8936  9497.8  97.4288
 29.9356  9502.04  97.2054
 29.9776  9303.05  96.3331
 30.0196  9407.85  96.2647
 30.0616  9340.45  96.2875
 30.1036  9486.11  96.8642
 30.1456  9470.92  97.0209
 30.1876  9440.07  96.8413
 30.2296  9437.38  96.7763
 30.2716  9485.35  96.6603
 30.3136  9616.75  98.1909
 30.3556  9451.49  97.3458
 30.3976  9226.96  97.6889
 30.4396  9421.14  96.0518
 30.4816  9315.88  95.1179
 30.5236  9337.71  95.2445
 30.5656  9249.43  95.4402
 30.6076  9321.88  95.2513
 30.6496  9401.81  96.0367
 30.6916  9257.21  95.3932
 30.7336  9169.78  95.0872
 30.7756  9262.36  95.659
 30.8176  9334.36  95.9455
 30.8596  9330.99  95.698
 30.9016  9238.64  95.5626
 30.9436  9465.27  96.4801
 30.9856  9314.59  95.8122
 31.0276  9204.99  94.8623
 31.0696  9249.08  95.6606
 31.1116  9325.76  96.0343
 31.1536  9280.38  95.6874
 31.1956  9058.71  94.6202
 31.2376  9162.65  95.1733
 31.2796  9081.88  94.2895
 31.3216  9185.14  94.7739
 31.3636  9210.2  95.5894
 31.4056  9117.99  96.4146
 31.4476  9114.89  94.3078
 31.4896  9028.31  94.3558
 31.5316  9115.8  94.2191
 31.5736  9284.43  94.9026
 31.6156  8969.77  93.302
 31.6576  9319.01  95.2019
 31.6996  9360.79  95.0813
 31.7416  8930.5  93.9176
 31.7836  8984.81  93.2297
 31.8256  9018.95  93.6696
 31.8676  9116.72  94.1748
 31.9096  8946.43  93.6407
 31.9516  8941.28  93.7727
 31.9936  8945.72  93.6318
 32.0356  9021.04  94.0771
 32.0776  8974.71  93.7305
 32.1196  9031.11  94.1152
 32.1616  9034.85  93.5975
 32.2036  8902.33  93.4074
 32.2456  8900.57  93.7793
 32.2876  9051.14  94.0641
 32.3296  8874.51  93.1105
 32.3716  8929.11  93.5062
 32.4136  8889.19  93.507
 32.4556  8982.48  93.3769
 32.4976  8921.95  92.9691
 32.5396  8904.56  92.9503
 32.5816  8875.61  92.9128
 32.6236  8896.79  93.1002
 32.6656  8953.38  93.9341
 32.7076  8812.02  92.8456
 32.7496  8885.69  92.9051
 32.7916  8989.55  93.4004
 32.8336  8908.48  93.0828
 32.8756  8996.89  93.255
 32.9176  8718.95  92.2808
 32.9596  8799.12  92.7763
 33.0016  8873.74  92.9708
 33.0436  8859.68  92.7995
 33.0856  8896.54  93.3334
 33.1276  8736.07  92.2271
 33.1696  8819.15  92.5045
 33.2116  8913.08  93.2197
 33.2536  8905.19  93.1769
 33.2956  8819.64  92.8143
 33.3376  8817.63  92.5431
 33.3796  8804.92  92.68
 33.4216  8886.28  92.7112
 33.4636  8863.68  92.7385
 33.5056  8742.06  92.3419
 33.5476  8673.44  91.9593
 33.5896  8889.36  92.8817
 33.6316  8732  92.3647
 33.6736  8708.93  92.4792
 33.7156  8644.19  91.9126
 33.7576  8718.47  92.2103
 33.7996  8904.24  92.9585
 33.8416  8579.07  91.4251
 33.8836  8680.94  91.881
 33.9256  8658.78  91.6812
 33.9676  8707.62  91.8384
 34.0096  8563.47  91.3859
 34.0516  8580.8  91.1245
 34.0936  8528.98  91.0117
 34.1356  8737.06  91.9573
 34.1776  8604.21  91.2718
 34.2196  8521.21  91.0012
 34.2616  8443.3  90.721
 34.3036  8442.4  90.9526
 34.3456  8617.58  91.6534
 34.3876  8554.9  91.2812
 34.4296  8476.85  90.5468
 34.4716  8681.7  91.7563
 34.5136  8601.55  91.5759
 34.5556  8461.84  91.0779
 34.5976  8610.68  91.6788
 34.6396  8425.81  90.4008
 34.6816  8464.8  90.72
 34.7236  8464.04  90.5112
 34.7656  8502.36  90.9041
 34.8076  8395.85  90.6599
 34.8496  8470.18  90.9181
 34.8916  8458.57  90.723
 34.9336  8529.29  91.0703
 34.9756  8542.28  91.0595
 35.0176  8463.14  91.1645
 35.0596  8349.12  90.3728
 35.1016  8471.61  90.8045
 35.1436  8568.34  91.0041
 35.1856  8359.61  90.0179
 35.2276  8548.97  91.2074
 35.2696  8422.26  90.7134
 35.3116  8482.24  91.1214
 35.3536  8365.52  90.216
 35.3956  8278.83  89.4533
 35.4376  8345.02  90.3666
 35.4796  8372.33  90.5752
 35.5216  8328.28  90.2947
 35.5636  8316.78  90.9749
 35.6056  8395.08  90.4221
 35.6476  8327.11  89.9532
 35.6896  8500.75  90.9754
 35.7316  8316.94  89.9605
 35.7736  8333.92  90.2483
 35.8156  8252.68  89.7981
 35.8576  8331.15  90.4837
 35.8996  8498.79  91.3477
 35.9416  8400.92  90.3155
 35.9836  8163.14  89.3905
 36.0256  8342.35  90.3839
 36.0676  8349.24  90.1813
 36.1096  8134.11  89.1461
 36.1516  8337.85  90.1409
 36.1936  8326.95  89.9364
 36.2356  8218.98  89.9814
 36.2776  8202.99  89.3832
 36.3196  8248.27  89.2992
 36.3616  8233.23  89.2958
 36.4036  8124.09  88.8093
 36.4456  8283.97  89.8875
 36.4876  8126.13  88.972
 36.5296  8242.38  89.6467
 36.5716  8213.07  90.0224
 36.6136  8408.24  90.1058
 36.6556  8399.68  90.2573
 36.6976  8156.55  89.4367
 36.7396  8193.95  89.3782
 36.7816  8132.93  89.4132
 36.8236  8113.41  89.234
 36.8656  8212.1  89.8466
 36.9076  8057.88  88.8744
 36.9496  8214.72  89.7191
 36.9916  8204.32  89.2966
 37.0336  8281.72  90.0297
 37.0756  8080.05  88.7229
 37.1176  7958.33  88.3174
 37.1596  8223.87  89.777
 37.2016  8103.69  89.3518
 37.2436  8089.75  88.5945
 37.2856  8078.62  88.7874
 37.3276  8099.43  88.4254
 37.3696  8011.56  88.6529
 37.4116  8140.8  89.2683
 37.4536  8124.53  89.0517
 37.4956  7893.84  88.0251
 37.5376  7921.18  89.4947
 37.5796  7987.45  89.8326
 37.6216  7975.73  88.0328
 37.6636  7897.22  87.5016
 37.7056  8075.19  88.6794
 37.7476  7958.06  87.5641
 37.7896  8032.23  88.4604
 37.8316  7859.4  87.6877
 37.8736  8106.31  88.5861
 37.9156  8034.29  88.1885
 37.9576  7965.22  87.6909
 37.9996  7763.37  86.3029
 38.0416  7868.47  87.692
 38.0836  8032.45  88.5025
 38.1256  7902.82  87.7251
 38.1676  7736.1  86.9466
 38.2096  7842.32  87.1637
 38.2516  8004.05  88.2729
 38.2936  7964.45  87.8499
 38.3356  8007.72  87.9992
 38.3776  7890.36  87.6301
 38.4196  7968.17  87.9173
 38.4616  7920.27  87.8813
 38.5036  7942.82  87.8439
 38.5456  7815.55  87.9825
 38.5876  7870.75  88.3296
 38.6296  7727.89  86.5063
 38.6716  7779.31  86.5878
 38.7136  7829.13  86.8054
 38.7556  7778.07  87.0233
 38.7976  7723.15  86.6552
 38.8396  7786.24  87.4564
 38.8816  7609.95  86.2367
 38.9236  7646.38  86.2659
 38.9656  7806.48  87.0773
 39.0076  7854.85  86.7585
 39.0496  7763.78  86.7843
 39.0916  7867.17  87.0032
 39.1336  7831.21  87.223
 39.1756  7817.93  87.2186
 39.2176  7809.91  87.7048
 39.2596  7671.99  86.8356
 39.3016  7700.42  86.5759
 39.3436  7707.51  87.0438
 39.3856  7873  87.4238
 39.4276  7738.27  87.1491
 39.4696  7687.02  86.5043
 39.5116  7687.3  87.0032
 39.5536  7936.02  88.8358
 39.5956  7964.42  88.0956
 39.6376  7879.25  87.6272
 39.6796  7814.6  87.0073
 39.7216  7849.42  87.2973
 39.7636  7828.9  87.751
 39.8056  7849.72  87.6484
 39.8476  7662.07  86.8431
 39.8896  7679.16  86.5701
 39.9316  7695.11  86.9182
 39.9736  7861.63  87.424
 40.0156  7863.15  87.254
 40.0576  7865.38  87.6292
 40.0996  7892.48  86.9665
 40.1416  7872.62  87.6389
 40.1836  7851.06  87.4162
 40.2256  7869.26  87.5618
 40.2676  7813.63  87.3555
 40.3096  7817.15  87.2991
 40.3516  7824.17  87.4498
 40.3936  7890.05  87.3803
 40.4356  7867.03  87.4462
 40.4776  7876.25  87.9066
 40.5196  7905.39  88.1905
 40.5616  7854.3  87.5481
 40.6036  7870.98  87.9022
 40.6456  7954.48  87.9731
 40.6876  7891.94  87.6117
 40.7296  7915.23  87.8839
 40.7716  7893.12  87.8863
 40.8136  7878.92  87.7513
 40.8556  7886.92  87.923
 40.8976  7832.38  87.5422
 40.9396  7833.54  87.8947
 40.9816  7901.7  87.5665
 41.0236  7943.37  87.5812
 41.0656  7926.12  88.0231
 41.1076  8097.4  88.739
 41.1496  7983.95  88.0228
 41.1916  7845.72  87.579
 41.2336  7819.67  87.4188
 41.2756  7921.74  87.593
 41.3176  7818.31  87.6296
 41.3596  7895.64  87.7962
 41.4016  7879.18  87.9638
 41.4436  7827.85  87.4628
 41.4856  7889.05  87.9689
 41.5276  7769.58  87.3191
 41.5696  7830.1  87.2862
 41.6116  7778.35  87.3865
 41.6536  7801.54  87.3844
 41.6956  7819.99  87.5314
 41.7376  7914.26  88.0933
 41.7796  7773.58  87.19
 41.8216  7774.18  87.4284
 41.8636  7859.65  87.8467
 41.9056  7712.48  86.8106
 41.9476  7814.24  87.6166
 41.9896  7789.49  87.1428
 42.0316  7819.98  87.3966
 42.0736  7762.34  87.182
 42.1156  7663.68  86.4694
 42.1576  7802.81  87.355
 42.1996  7675.04  86.7741
 42.2416  7838.23  87.1871
 42.2836  7656.26  86.365
 42.3256  7685.41  86.6416
 42.3676  7776.6  86.9557
 42.4096  7778.75  86.9376
 42.4516  7741.09  86.8736
 42.4936  7661.23  86.433
 42.5356  7760.95  87.126
 42.5776  7862.12  87.6227
 42.6196  7796.87  87.3235
 42.6616  7615.05  86.4665
 42.7036  7736.54  86.5401
 42.7456  7700.56  86.6893
 42.7876  7696.82  86.7646
 42.8296  7754.63  86.9258
 42.8716  7584.22  86.1273
 42.9136  7684.81  86.4868
 42.9556  7802.04  87.2773
 42.9976  7723.08  86.7974
 43.0396  7707.06  86.4402
 43.0816  7717.63  86.8741
 43.1236  7728.74  86.9966
 43.1656  7664.68  86.4636
 43.2076  7611.45  86.2628
 43.2496  7567.04  85.8331
 43.2916  7615.5  86.4705
 43.3336  7585.6  86.1409
 43.3756  7690.45  86.4862
 43.4176  7644.1  86.3086
 43.4596  7559.86  85.6882
 43.5016  7593.37  86.2802
 43.5436  7511.89  85.7213
 43.5856  7594.86  86.2198
 43.6276  7632.22  86.3245
 43.6696  7607.8  86.3942
 43.7116  7614.69  85.9825
 43.7536  7684.92  86.8655
 43.7956  7588.93  87.4905
 43.8376  7511.8  85.6228
 43.8796  7603.67  86.2278
 43.9216  7662.81  86.4766
 43.9636  7563.2  86.0242
 44.0056  7499.32  85.8855
 44.0476  7395.63  85.0462
 44.0896  7457.96  85.6255
 44.1316  7621.01  86.0808
 44.1736  7474.59  85.367
 44.2156  7539.06  85.5939
 44.2576  7508.64  85.746
 44.2996  7600.65  86.2362
 44.3416  7493.64  85.3909
 44.3836  7326.46  84.7524
 44.4256  7526.29  85.5487
 44.4676  7360.84  84.761
 44.5096  7402.74  85.1364
 44.5516  7335.88  84.7256
 44.5936  7477.36  85.4874
 44.6356  7500.59  85.3604
 44.6776  7517.48  85.7735
 44.7196  7435.49  85.609
 44.7616  7371.85  86.5513
 44.8036  7305.6  84.6023
 44.8456  7359.16  85.1161
 44.8876  7475.72  85.7305
 44.9296  7420.49  84.7774
 44.9716  7417.99  85.1827
 45.0136  7432.48  85.2084
 45.0556  7319.81  84.5312
 45.0976  7295.29  84.5555
 45.1396  7316.35  84.4272
 45.1816  7288.55  84.2146
 45.2236  7454.03  85.0633
 45.2656  7264.8  84.4773
 45.3076  7265.8  84.2593
 45.3496  7299.43  84.7596
 45.3916  7240.57  84.6783
 45.4336  7256.52  84.6162
 45.4756  7283.06  84.6306
 45.5176  7312.85  84.421
 45.5596  7263.02  84.2574
 45.6016  7242.14  84.549
 45.6436  7290.99  84.0244
 45.6856  7327.22  84.8842
 45.7276  7144.96  85.1173
 45.7696  7266.63  85.5114
 45.8116  7259.18  84.9172
 45.8536  7173.02  84.3033
 45.8956  7208.28  83.8694
 45.9376  7323.98  84.0091
 45.9796  7215.82  84.0584
 46.0216  7233.42  84.5051
 46.0636  7260.56  83.8189
 46.1056  7104.38  82.8954
 46.1476  7183.15  83.9376
 46.1896  7220  84.2932
 46.2316  7246.49  84.3261
 46.2736  7039.44  83.4718
 46.3156  7193.37  83.9711
 46.3576  7208.94  84.2633
 46.3996  7123.55  83.9162
 46.4416  7101.98  83.3745
 46.4836  7130.94  83.8953
 46.5256  7206.9  84.282
 46.5676  7100.63  83.77
 46.6096  7203.32  84.3018
 46.6516  7184.21  83.2535
 46.6936  7191.92  83.7827
 46.7356  7232.01  84.1112
 46.7776  6943.74  83.3097
 46.8196  7073.94  83.6244
 46.8616  6963.25  82.9163
 46.9036  7031.37  82.99
 46.9456  6991.37  82.4011
 46.9876  7056.27  82.865
 47.0296  7092.61  83.6671
 47.0716  6962.41  82.8078
 47.1136  7013.67  82.7942
 47.1556  7042.2  82.8332
 47.1976  7133.15  83.4368
 47.2396  7002.22  83.0652
 47.2816  7038.39  82.9911
 47.3236  7103.2  83.7392
 47.3656  7042.01  83.3094
 47.4076  6973.65  82.706
 47.4496  6981.24  82.8462
 47.4916  7008.64  83.1902
 47.5336  6997.98  82.9449
 47.5756  7053.93  83.3914
 47.6176  7014.52  83.0637
 47.6596  6905.12  82.1329
 47.7016  7106.57  83.1421
 47.7436  7076.71  83.297
 47.7856  7049.96  83.158
 47.8276  6899.51  82.3218
 47.8696  6969.65  82.8178
 47.9116  7050.27  83.0201
 47.9536  6893.3  82.0349
 47.9956  6894.47  82.7332
 48.0376  6899.97  82.5498
 48.0796  6964.87  83.0543
 48.1216  7059.3  83.4442
 48.1636  7103.07  83.2751
 48.2056  7009.53  82.9881
 48.2476  6878.08  82.4932
 48.2896  6906.09  82.5858
 48.3316  6997.8  83.0664
 48.3736  6978.17  82.9847
 48.4156  6835.44  82.0894
 48.4576  6874.01  82.5021
 48.4996  6938.25  82.3541
 48.5416  6987.78  82.9611
 48.5836  6893.96  82.0889
 48.6256  6917.65  82.4282
 48.6676  6871.08  82.6628
 48.7096  6912.53  82.1907
 48.7516  6835.74  81.8783
 48.7936  6812.5  81.8994
 48.8356  6862.67  82.1511
 48.8776  6823.81  82.475
 48.9196  7021  83.0277
 48.9616  6803.94  82.1092
 49.0036  6856.37  82.7625
 49.0456  6742.62  82.0585
 49.0876  6865.89  82.356
 49.1296  6671.14  81.3313
 49.1716  6664.99  81.3929
 49.2136  6816.79  82.021
 49.2556  6823.11  82.0851
 49.2976  6875.99  82.4736
 49.3396  6615.27  80.9456
 49.3816  6820.29  81.7852
 49.4236  6783.78  81.8325
 49.4656  6743.89  81.6135
 49.5076  6814.84  81.787
 49.5496  6759.33  81.5235
 49.5916  6785.58  81.5955
 49.6336  6742.23  81.5229
 49.6756  6808.41  82.1612
 49.7176  6771.64  81.8794
 49.7596  6787.41  81.7433
 49.8016  6731.2  81.3366
 49.8436  6722.95  81.5697
 49.8856  6753.66  81.7587
 49.9276  6677.36  81.3979
 49.9696  6759.32  81.8816
 50.0116  6708.52  81.7059
 50.0536  6665.64  81.3848
 50.0956  6646.85  81.3408
 50.1376  6770.45  81.7979
 50.1796  6650.15  81.3307
 50.2216  6672.58  81.4617
 50.2636  6580.4  80.5241
 50.3056  6653.02  81.1432
 50.3476  6644.73  81.1121
 50.3896  6660.37  81.1795
 50.4316  6735.72  81.4744
 50.4736  6600.73  80.8683
 50.5156  6636.37  81.074
 50.5576  6734.46  81.4419
 50.5996  6551.86  80.5976
 50.6416  6622.18  80.9618
 50.6836  6559.62  80.6326
 50.7256  6704.61  81.4542
 50.7676  6642.02  81.3567
 50.8096  6610.38  80.7296
 50.8516  6577.45  80.9372
 50.8936  6554.44  80.5847
 50.9356  6648.95  81.2637
 50.9776  6589.93  81.0511
 51.0196  6451.51  80.3278
 51.0616  6429.07  79.5335
 51.1036  6583.09  80.8302
 51.1456  6541.52  80.4898
 51.1876  6534.69  79.8036
 51.2296  6496.99  80.1941
 51.2716  6554.68  80.2557
 51.3136  6503.75  80.3918
 51.3556  6488.16  79.9275
 51.3976  6480.03  80.0283
 51.4396  6438.52  80.0696
 51.4816  6489.93  80.2406
 51.5236  6568.11  80.8134
 51.5656  6513.08  80.0803
 51.6076  6409.64  79.5244
 51.6496  6431.15  79.843
 51.6916  6509.59  80.6771
 51.7336  6421.58  80.2201
 51.7756  6399.98  79.7939
 51.8176  6404.07  79.9183
 51.8596  6391.39  79.8493
 51.9016  6558.15  80.5051
 51.9436  6367.78  80.7316
 51.9856  6388.82  81.2952
 52.0276  6535.26  80.7441
 52.0696  6467.84  80.39
 52.1116  6509.03  80.762
 52.1536  6436.13  80.1956
 52.1956  6460.98  79.8325
 52.2376  6650  81.1611
 52.2796  6343.78  79.0861
 52.3216  6397.61  80.0991
 52.3636  6345.63  79.357
 52.4056  6411.84  79.6219
 52.4476  6360.1  79.6645
 52.4896  6375.82  79.8136
 52.5316  6285.53  79.2895
 52.5736  6349.18  79.4261
 52.6156  6411.18  80.1747
 52.6576  6460.47  79.9458
 52.6996  6258.63  79.6377
 52.7416  6226.38  79.3548
 52.7836  6404.5  80.2952
 52.8256  6329.93  79.0681
 52.8676  6295.16  79.4173
 52.9096  6426.44  80.322
 52.9516  6310.87  79.9673
 52.9936  6215.25  79.7382
 53.0356  6083.5  77.9182
 53.0776  6252.64  79.2528
 53.1196  6171.48  78.8618
 53.1616  6116.64  78.5569
 53.2036  6186.53  78.9596
 53.2456  6243.21  79.4203
 53.2876  6214.66  78.951
 53.3296  6256.98  79.5402
 53.3716  6295.04  79.5242
 53.4136  6211.62  79.1496
 53.4556  6158.94  78.8418
 53.4976  6272.01  79.4123
 53.5396  6271.52  79.7976
 53.5816  6159.85  78.7247
 53.6236  6135.98  78.9085
 53.6656  6194.57  78.9112
 53.7076  6154.41  78.6236
 53.7496  6276.81  79.516
 53.7916  6234.77  79.3747
 53.8336  6205.24  79.0783
 53.8756  6029.47  78.4964
 53.9176  6172.63  78.7859
 53.9596  6272.32  80.1718
 54.0016  6188.24  78.9795
 54.0436  6190.64  79.2084
 54.0856  6207.18  78.7437
 54.1276  6167.47  78.6791
 54.1696  6122.21  78.5694
 54.2116  6198.8  78.816
 54.2536  6141.66  78.2719
 54.2956  6214.44  78.7834
 54.3376  6125.48  78.6924
 54.3796  6231.31  79.2707
 54.4216  6324.58  79.7291
 54.4636  6139.54  78.689
 54.5056  6154.57  78.6085
 54.5476  6181.53  79.1088
 54.5896  6160.73  78.8148
 54.6316  6181.42  78.7989
 54.6736  6169.15  78.8012
 54.7156  6183.76  78.9152
 54.7576  6146.15  78.6738
 54.7996  6249.1  79.4606
 54.8416  6194.16  79.1598
 54.8836  6096.79  78.6461
 54.9256  6157.56  78.7897
 54.9676  6150.48  78.6062
 55.0096  6153.71  78.6927
 55.0516  6183.03  79.113
 55.0936  6156.67  78.5772
 55.1356  6056.78  77.9802
 55.1776  6154.42  78.8673
 55.2196  6116.26  78.4103
 55.2616  6099.81  78.5099
 55.3036  6055.22  78.3843
 55.3456  6137.64  79.057
 55.3876  6028.87  78.11
 55.4296  6153.65  78.8943
 55.4716  6172.78  79.0463
 55.5136  6100.19  78.3439
 55.5556  6127.56  78.5829
 55.5976  6142.24  78.729
 55.6396  6135.62  78.6382
 55.6816  6115.18  78.3924
 55.7236  6188.66  78.9022
 55.7656  6189.36  78.6657
 55.8076  6187.47  78.642
 55.8496  6006.62  77.7924
 55.8916  6036.55  78.1892
 55.9336  6113.57  78.5025
 55.9756  6028.64  77.8466
 56.0176  6089.12  78.3897
 56.0596  6106.3  78.4741
 56.1016  6195.65  79.0575
 56.1436  6061.33  78.456
 56.1856  6131.65  78.6594
 56.2276  6124.85  78.6662
 56.2696  6065.99  78.2683
 56.3116  6017.93  78.3475
 56.3536  6054.68  78.2526
 56.3956  6049.04  78.2088
 56.4376  5989.91  77.8552
 56.4796  6146.54  78.674
 56.5216  6026.2  78.252
 56.5636  6101.26  78.3501
 56.6056  6032.94  78.131
 56.6476  6068.17  77.9943
 56.6896  6114.69  78.7337
 56.7316  6118.89  78.6778
 56.7736  6061.48  78.2755
 56.8156  6128.19  78.7207
 56.8576  5984.68  77.7476
 56.8996  6059.49  78.17
 56.9416  6014.49  78.1771
 56.9836  6051.53  77.9319
 57.0256  6054.7  78.2709
 57.0676  6042.28  78.3034
 57.1096  6030.04  78.0216
 57.1516  6056.08  78.2489
 57.1936  6094.74  78.255
 57.2356  6102.78  78.6262
 57.2776  6065.41  78.3385
 57.3196  5976.55  78.1248
 57.3616  6083.42  78.3197
 57.4036  5906.71  77.2336
 57.4456  5974.31  77.6378
 57.4876  6133.69  78.5184
 57.5296  6024.24  78.1577
 57.5716  6029.65  78.1894
 57.6136  6025.02  77.9698
 57.6556  6061.86  78.3533
 57.6976  6007.91  77.8305
 57.7396  5877.66  77.3425
 57.7816  5947.22  78.1573
 57.8236  5987.61  78.2577
 57.8656  6104.46  78.6323
 57.9076  6040.97  78.2465
 57.9496  5999.38  78.3318
 57.9916  5965.61  77.63
 58.0336  6042.89  78.4067
 58.0756  6032.66  77.9737
 58.1176  6093.15  78.361
 58.1596  5940.57  77.9337
 58.2016  6140  78.4607
 58.2436  6111.96  78.6958
 58.2856  6046.6  78.1933
 58.3276  5991.71  78.2071
 58.3696  5936.5  77.5982
 58.4116  6026.42  78.0507
 58.4536  5998.61  77.7562
 58.4956  5909.81  77.3549
 58.5376  6068.15  77.9587
 58.5796  6051.03  78.2716
 58.6216  6019.79  77.8859
 58.6636  6010.35  78.0355
 58.7056  6115.07  78.5672
 58.7476  6028.24  78.4543
 58.7896  5937.05  77.5062
 58.8316  5981.74  77.7934
 58.8736  6024.44  78.0816
 58.9156  5917.9  77.4244
 58.9576  6076.48  78.7726
 58.9996  6115.7  78.2725
 59.0416  6077.1  78.3951
 59.0836  6051.56  78.151
 59.1256  6059.15  78.9015
 59.1676  6015.71  78.9229
 59.2096  6068.73  78.5787
 59.2516  6257.32  79.3639
 59.2936  6000.07  78.0423
 59.3356  6126.58  78.7377
 59.3776  6222.2  79.5213
 59.4196  6046  78.3237
 59.4616  6029.2  78.0744
 59.5036  6001.39  77.9288
 59.5456  6089.21  78.1896
 59.5876  6071.33  78.2663
 59.6296  5968.55  77.6698
 59.6716  5975.52  77.7728
 59.7136  6010.91  77.9911
 59.7556  5975.21  77.8948
 59.7976  5957.25  77.5216
 59.8396  6197.09  78.9596
 59.8816  6060.08  78.627
 59.9236  6003.91  77.9077
 59.9656  6001.3  78.1495
 60.0076  6097.01  78.1256
 60.0496  6143.04  78.445
 60.0916  6178.33  78.566
 60.1336  6032.15  78.7377
 60.1756  5990.81  79.6469
 60.1996  6094.7  82.5814