File: docs/examples/opeando_xrd/IS17_D/Data/IS17_D/17_Da_f00039.xye
# /beamlines/bl04/projects/cycle2025-II/20250340211-lsimonelli/DATA/IS17_D/17_Da_f00039.xye : mythproc.py merge -s 0.006 -l 0.5 -f /beamlines/bl04/inhouse/ff/FlatField/ff_20Nov2024rod8mm60s_17keV.raw -b True -c true -o xye /beamlines/bl04/projects/cycle2025-II/20250340211-lsimonelli/DATA/IS17_D/17_Da_00039.dat
# IsMon = [6751419, 6751891, 6765405]  IsPos = [-1.5000, -2.4885, -3.4986]
# Wave = 0.4962  CalPath /beamlines/bl04/projects/cycle2025-II/20250340211-lsimonelli/DATA/Align/Si_Pos1_25keV_f00001.cal
# Date = 2025-09-24_04:25:15 Dt = 4.8000  Bin = 0.0060  <imon> = 6756238 +/- 6485 (Min/Max) 6751419 / 6765405
# icurr 251.2599  mocoIn 1.7145E-05  mocoOut 0.8036  i15 7.07384e+06  imon 6.75624e+06  i7 5.0000  iEMpd_timer 4.8000  iEMpd_1 3.4058E-08  iEMpd_2 7.7683E-08  iEMpd_3 1.5722E-08  iEMpd_4 4.7399E-08  iEMhp_timer 4.8000  iEMhp_1 4.9108E-06  iEMhp_2 -2.3908E-08  iEMhp_3 -2.3047E-08  iEMhp_4 -2.1451E-08
#      9776
 1.5856  40949  207.864
 1.6276  47745.1  220.6
 1.6696  54441  234.731
 1.7116  63294.4  253.594
 1.7536  72994.6  271.173
 1.7956  77496.5  280.109
 1.8376  73648.8  273.499
 1.8796  61987.3  249.072
 1.9216  50061.5  224.722
 1.9636  42174.4  205.936
 2.0056  38065.3  194.396
 2.0476  35110.4  188.745
 2.0896  33614.4  183.598
 2.1316  32485.9  179.622
 2.1736  31316.6  177.758
 2.2156  32036.1  178.346
 2.2576  30554.3  174.798
 2.2996  29775.1  173.187
 2.3416  29652.4  171.449
 2.3836  29099  169.948
 2.4256  28269.7  168.054
 2.4676  27781.1  166.359
 2.5096  27524.8  165.645
 2.5516  27183.4  168.431
 2.5936  27117.1  164.823
 2.6356  26541.6  163.752
 2.6776  26465.2  162.411
 2.7196  26100.7  161.8
 2.7616  26315.6  162.243
 2.8036  25688.2  160.47
 2.8456  25413  160.218
 2.8876  25302.2  159.719
 2.9296  24919.6  158.659
 2.9716  24807.9  157.793
 3.0136  24193.6  155.894
 3.0556  24271  156.54
 3.0976  24185.6  155.197
 3.1396  24022.9  155.389
 3.1816  23738.1  154.406
 3.2236  23657.9  154.138
 3.2656  23479.5  152.6
 3.3076  23342  153.6
 3.3496  23520.6  153.374
 3.3916  23942.7  154.325
 3.4336  24386.9  156.327
 3.4756  24701.7  157.254
 3.5176  25759.9  160.379
 3.5596  25415.9  162.248
 3.6016  25391.1  159.236
 3.6436  24695.8  158.15
 3.6856  24258.9  155.041
 3.7276  23455  153.547
 3.7696  23145.3  152.494
 3.8116  22882.4  151.728
 3.8536  22779  151.305
 3.8956  22767.2  151.104
 3.9376  22461.8  150.346
 3.9796  22615.4  150.362
 4.0216  22525  149.117
 4.0636  22569.2  150.719
 4.1056  22658.9  150.669
 4.1476  22818.7  151.513
 4.1896  23004.4  151.98
 4.2316  23277.3  152.693
 4.2736  23654.6  153.722
 4.3156  23838.4  154.521
 4.3576  24467.9  156.503
 4.3996  24899.4  157.921
 4.4416  25410.6  159.334
 4.4836  25962.6  161.218
 4.5256  26344.3  163.013
 4.5676  26364.4  163.317
 4.6096  26778.7  163.615
 4.6516  27326.1  164.625
 4.6936  27247  165.167
 4.7356  27214.6  164.927
 4.7776  27506.6  165.629
 4.8196  27051.4  164.92
 4.8616  26913.1  164.103
 4.9036  26258.9  161.73
 4.9456  26278.8  162.415
 4.9876  25646.3  160.356
 5.0296  26249.2  162.042
 5.0716  25810.1  161.304
 5.1136  25990.5  161.73
 5.1556  26439.7  162.577
 5.1976  26680.2  163.333
 5.2396  26848.2  163.535
 5.2816  26842.5  163.984
 5.3236  26775.7  163.476
 5.3656  26352.3  163.093
 5.4076  26127.5  162.546
 5.4496  26330.3  162.653
 5.4916  26221.5  162.086
 5.5336  26190  161.987
 5.5756  26089.9  161.73
 5.6176  26343.9  161.942
 5.6596  26408.4  162.952
 5.7016  26611.9  163.002
 5.7436  26726.5  163.627
 5.7856  26597.5  163.286
 5.8276  26889.4  163.897
 5.8696  26955.8  164.182
 5.9116  26688.7  164.004
 5.9536  27397.8  165.986
 5.9956  27569.3  165.865
 6.0376  27485.4  166.241
 6.0796  27890  167.292
 6.1216  27920.7  167.576
 6.1636  28202.1  167.496
 6.2056  28055  167.709
 6.2476  28196.6  167.85
 6.2896  28308.1  168.034
 6.3316  28475.6  168.714
 6.3736  28705.3  169.273
 6.4156  28673.4  169.133
 6.4576  28914.2  169.392
 6.4996  28899.3  169.818
 6.5416  28955.7  170.129
 6.5836  28976.6  170.407
 6.6256  29055.9  170.214
 6.6676  29772.7  171.874
 6.7096  29454.6  171.811
 6.7516  29896.5  172.739
 6.7936  30119.2  172.576
 6.8356  30129.3  172.919
 6.8776  30390.6  174.451
 6.9196  30412.6  174.925
 6.9616  30867.6  175.649
 7.0036  31366.8  176.745
 7.0456  31378.4  176.076
 7.0876  31411.3  177.78
 7.1296  31445.6  177.09
 7.1716  31217  175.97
 7.2136  30897.3  174.864
 7.2556  31159.6  175.766
 7.2976  31138.5  176.199
 7.3396  31032.6  176.121
 7.3816  30926.5  176.023
 7.4236  31326.1  176.451
 7.4656  31399.3  176.15
 7.5076  31833  177.494
 7.5496  31483.6  177.021
 7.5916  31582.9  177.359
 7.6336  32087.8  178.671
 7.6756  32069.2  178.471
 7.7176  32401.1  179.719
 7.7596  32170.8  180.295
 7.8016  32583.7  183.601
 7.8436  33429.8  182.627
 7.8856  33258.3  181.767
 7.9276  33852.4  183.75
 7.9696  34018.5  184.538
 8.0116  35327.1  186.931
 8.0536  35104.2  186.262
 8.0956  35200.4  187.714
 8.1376  35443.9  187.81
 8.1796  35480.2  188.471
 8.2216  36476.6  189.817
 8.2636  36299.8  189.599
 8.3056  36440.3  190.698
 8.3476  37300.6  192.298
 8.3896  36908.4  191.774
 8.4316  36884.1  191.467
 8.4736  37120.6  191.551
 8.5156  36821.9  191.052
 8.5576  36670.1  191.654
 8.5996  36374.6  189.73
 8.6416  36366.4  190.995
 8.6836  36149.9  190.196
 8.7256  36599.7  190.888
 8.7676  36007.6  192.168
 8.8096  35692.4  188.675
 8.8516  35493.7  187.853
 8.8936  35326.5  187.213
 8.9356  35294.7  187.494
 8.9776  35645.2  188.504
 9.0196  35010  186.518
 9.0616  35330.9  186.826
 9.1036  34406.2  185.529
 9.1456  34884.2  186.148
 9.1876  34776.6  185.842
 9.2296  34793.8  185.268
 9.2716  34277.4  183.986
 9.3136  34205  183.77
 9.3556  34651.1  184.947
 9.3976  33098.7  181.308
 9.4396  33478.1  182.198
 9.4816  32947  180.648
 9.5236  33233  181.311
 9.5656  33024.9  181.068
 9.6076  32867.2  181.121
 9.6496  32533.3  180.153
 9.6916  32574.1  180.211
 9.7336  32358.4  179.425
 9.7756  32608.2  181.337
 9.8176  31785.9  178.648
 9.8596  31778  177.107
 9.9016  31178  175.417
 9.9436  31365.5  175.695
 9.9856  30540  173.739
 10.0276  30390.6  174.407
 10.0696  30873.4  174.841
 10.1116  29864  172.213
 10.1536  29585.7  171.091
 10.1956  29279.6  170.295
 10.2376  28853  168.562
 10.2796  29187.4  169.663
 10.3216  29139  169.643
 10.3636  28417.1  167.693
 10.4056  28188.2  167.411
 10.4476  27923.3  166.257
 10.4896  28162.6  166.437
 10.5316  27741.4  165.556
 10.5736  27760.4  166.334
 10.6156  27033.3  163.914
 10.6576  27117.5  162.779
 10.6996  26951.4  162.937
 10.7416  26315.3  161.225
 10.7836  26834.1  163.437
 10.8256  26187.3  161.857
 10.8676  26575.9  162.617
 10.9096  25988.1  160.824
 10.9516  25978  159.751
 10.9936  25969.1  159.914
 11.0356  25804  160.033
 11.0776  25683.8  158.989
 11.1196  24981.7  157.508
 11.1616  24921.8  157.048
 11.2036  25070.6  157.36
 11.2456  25010.4  157.87
 11.2876  24945.3  157.405
 11.3296  24553.8  156.055
 11.3716  25072.3  157.397
 11.4136  24856.6  157.583
 11.4556  24992.4  157.666
 11.4976  25251.5  157.5
 11.5396  25543.4  158.588
 11.5816  25870.9  160.042
 11.6236  26162.4  161.379
 11.6656  25971.5  159.743
 11.7076  25187.5  158.125
 11.7496  24641.6  160.28
 11.7916  24518.5  155.294
 11.8336  24052.7  154.694
 11.8756  24006.8  154.075
 11.9176  24211.9  154.625
 11.9596  23756.5  153.125
 12.0016  23695.3  153.697
 12.0436  23751.3  153.31
 12.0856  23604.3  153.352
 12.1276  23509.1  152.954
 12.1696  23444.6  151.901
 12.2116  23663  152.595
 12.2536  23135.4  151.686
 12.2956  23569.1  152.454
 12.3376  23063.7  151.035
 12.3796  23382  152.507
 12.4216  23387.2  151.764
 12.4636  22952.9  151.226
 12.5056  23284  151.605
 12.5476  23351.6  151.37
 12.5896  23347.2  151.969
 12.6316  22920.7  150.75
 12.6736  23252.1  152.13
 12.7156  22860.9  150.895
 12.7576  22956.4  151.43
 12.7996  23236.1  151.021
 12.8416  23000.8  151.284
 12.8836  23646.3  153.213
 12.9256  23753.7  152.597
 12.9676  23721.7  152.903
 13.0096  23356.5  152.813
 13.0516  23842.8  153.43
 13.0936  23851.6  153.583
 13.1356  24057.8  153.52
 13.1776  23766.5  153.562
 13.2196  24098.7  154.296
 13.2616  23894.7  153.936
 13.3036  23840.8  153.92
 13.3456  23898.3  154.055
 13.3876  23999.6  153.915
 13.4296  23850.5  153.577
 13.4716  24021.6  153.74
 13.5136  23910.9  153.528
 13.5556  23721.8  153.539
 13.5976  24043.1  154.708
 13.6396  24097.2  154.251
 13.6816  23473.5  152.623
 13.7236  24353.2  155.201
 13.7656  23890.5  154.276
 13.8076  24089.5  153.701
 13.8496  23666.6  153.12
 13.8916  23639  153.832
 13.9336  23461.5  152.492
 13.9756  23598.9  152.297
 14.0176  23342.7  152.138
 14.0596  23345.6  152.11
 14.1016  23046.8  151.531
 14.1436  22821  149.946
 14.1856  22695.8  149.815
 14.2276  22260.2  148.854
 14.2696  22745.2  150.298
 14.3116  22428.7  149.136
 14.3536  21918  147.617
 14.3956  22018.8  147.698
 14.4376  22243.2  148.222
 14.4796  22007  147.42
 14.5216  21656.9  147.032
 14.5636  21345.8  145.542
 14.6056  21753.4  146.5
 14.6476  21642.7  145.379
 14.6896  21305.7  144.773
 14.7316  21124.1  145.162
 14.7736  20781.4  143.167
 14.8156  20767.2  143.141
 14.8576  20590.2  142.38
 14.8996  20149.5  142.033
 14.9416  19856.8  140.997
 14.9836  19943.6  141.241
 15.0256  19792.8  139.652
 15.0676  19930.9  140.452
 15.1096  19698.8  139.372
 15.1516  19365.7  138.766
 15.1936  19135.4  137.349
 15.2356  19077.6  137.416
 15.2776  19068.8  136.974
 15.3196  18566.6  136.144
 15.3616  18648.5  136.18
 15.4036  18432.9  135.273
 15.4456  18618.5  135.361
 15.4876  18352.3  134.32
 15.5296  18461.6  135.021
 15.5716  18172.7  133.55
 15.6136  17930.7  132.996
 15.6556  17902.8  132.123
 15.6976  18028  132.663
 15.7396  17807.8  132.427
 15.7816  17680  131.486
 15.8236  17385.8  131.058
 15.8656  17483.7  131.241
 15.9076  16955.1  129.072
 15.9496  17059.5  132.249
 15.9916  17028.8  132.557
 16.0336  16792.5  128.569
 16.0756  16882.6  129.196
 16.1176  16876.5  129.07
 16.1596  16323.5  128.262
 16.2016  16587.8  128.038
 16.2436  16296.6  127.312
 16.2856  16372.9  127.151
 16.3276  16164.8  126.757
 16.3696  16328.5  127.219
 16.4116  16083.8  126.741
 16.4536  16172.7  126.845
 16.4956  15954.2  125.758
 16.5376  16002.7  126.111
 16.5796  15843  124.85
 16.6216  15866.8  125.246
 16.6636  15913.8  125.565
 16.7056  15836.9  125.142
 16.7476  15822.3  124.744
 16.7896  15921.1  125.753
 16.8316  15833.4  125.366
 16.8736  15837.3  125.662
 16.9156  15922.3  126.31
 16.9576  15692.5  126.223
 16.9996  15629.1  126.434
 17.0416  15835.2  125.677
 17.0836  15890.6  125.656
 17.1256  15529.5  124.232
 17.1676  15819.6  125.376
 17.2096  15492.7  123.954
 17.2516  15299.6  123.255
 17.2936  15441  123.858
 17.3356  15066.2  122.35
 17.3776  15237.5  123.222
 17.4196  15144.4  122.547
 17.4616  15011.5  121.928
 17.5036  14849.8  121.632
 17.5456  14522.4  120.91
 17.5876  14660  120.546
 17.6296  14698  120.508
 17.6716  14611.2  120.731
 17.7136  14325  119.681
 17.7556  14376.6  120.181
 17.7976  14298.8  119.471
 17.8396  14363.9  119.383
 17.8816  14234.5  119.373
 17.9236  14184.5  118.98
 17.9656  14155.3  119.505
 18.0076  14126  118.797
 18.0496  14152.1  118.074
 18.0916  14017.5  118.027
 18.1336  13963.6  117.9
 18.1756  14150.1  118.228
 18.2176  13991  117.784
 18.2596  14016.4  117.64
 18.3016  14133.2  118.371
 18.3436  13953  117.853
 18.3856  13706.6  116.717
 18.4276  13910.3  117.258
 18.4696  13699  116.432
 18.5116  13867.7  117.449
 18.5536  13818.6  117.568
 18.5956  13662.4  116.487
 18.6376  13696.9  117.038
 18.6796  13453.6  115.339
 18.7216  13752.5  117.154
 18.7636  13505.3  116.023
 18.8056  13510.5  115.975
 18.8476  13615.9  116.741
 18.8896  13574.7  116.216
 18.9316  13777.8  116.896
 18.9736  13586.1  115.952
 19.0156  13595  116.363
 19.0576  13553.9  115.111
 19.0996  13601.8  116.001
 19.1416  13383.7  115.456
 19.1836  13415.4  115.197
 19.2256  13432.1  115.473
 19.2676  13408.9  115.468
 19.3096  13509.6  116.132
 19.3516  13405.6  115.49
 19.3936  13484.9  115.953
 19.4356  13484.1  115.771
 19.4776  13507.9  115.964
 19.5196  13363.1  115.194
 19.5616  13361.1  115.435
 19.6036  13334.3  114.692
 19.6456  13353.4  115.03
 19.6876  13556.2  115.546
 19.7296  13382.3  115.262
 19.7716  13245.8  114.686
 19.8136  13430.1  115.832
 19.8556  13738.2  116.629
 19.8976  13712.1  116.584
 19.9396  13642.7  115.867
 19.9816  13772.1  116.641
 20.0236  13917.2  117.487
 20.0656  14234.2  118.804
 20.1076  14131.9  118.856
 20.1496  14422.9  120.072
 20.1916  14557.9  120.094
 20.2336  14375.9  119.311
 20.2756  14001  118.182
 20.3176  13721.1  116.743
 20.3596  13563.7  116.039
 20.4016  13636.6  116.165
 20.4436  13304.6  115.284
 20.4856  13131.4  114.341
 20.5276  13076.5  114.546
 20.5696  13115.8  114.287
 20.6116  13043.6  114.14
 20.6536  12893.6  113.06
 20.6956  12988.2  113.536
 20.7376  12921.7  113.465
 20.7796  12964.4  113.35
 20.8216  12989.3  113.175
 20.8636  12869.2  113.008
 20.9056  12745  112.41
 20.9476  12698.5  112.062
 20.9896  13022.2  113.338
 21.0316  12912.5  112.749
 21.0736  12791.3  112.738
 21.1156  12787.9  112.868
 21.1576  12788.4  112.931
 21.1996  12647.6  112.291
 21.2416  12565.7  111.769
 21.2836  12633.5  112.013
 21.3256  12636.7  112.131
 21.3676  12601  111.52
 21.4096  12601.7  111.877
 21.4516  12578.5  111.607
 21.4936  12512.8  111.545
 21.5356  12613  111.95
 21.5776  12668.9  112.038
 21.6196  12441.8  111.064
 21.6616  12364.9  110.806
 21.7036  12377.7  110.641
 21.7456  12480.5  111.181
 21.7876  12396.8  110.553
 21.8296  12282.9  109.907
 21.8716  12340.6  110.412
 21.9136  12585.6  111.685
 21.9556  12427  110.656
 21.9976  12344.7  110.308
 22.0396  12374  110.691
 22.0816  12353.5  111.111
 22.1236  12246.5  110.112
 22.1656  12267.7  110.38
 22.2076  12584.1  111.2
 22.2496  12347.4  110.196
 22.2916  12382.2  110.214
 22.3336  12346  110.752
 22.3756  12388.9  110.688
 22.4176  12211.4  109.751
 22.4596  12179  110.165
 22.5016  12207.4  109.811
 22.5436  12387.9  110.487
 22.5856  12305.1  110.378
 22.6276  12190.5  110.018
 22.6696  12272.5  110.708
 22.7116  12220.1  110.017
 22.7536  12364.9  110.624
 22.7956  12164.3  109.084
 22.8376  12103.3  109.288
 22.8796  12102  109.102
 22.9216  12316.8  110.59
 22.9636  12261.2  109.522
 23.0056  12181.2  109.295
 23.0476  12367.9  110.695
 23.0896  12622.3  111.206
 23.1316  12465.6  110.937
 23.1736  12182.3  112.609
 23.2156  12470.2  111.199
 23.2576  12457.1  111.372
 23.2996  12453.5  111.116
 23.3416  12339.7  111.153
 23.3836  12530  111.19
 23.4256  12370.7  110.652
 23.4676  12388.3  110.411
 23.5096  12283.4  110.612
 23.5516  12332.3  110.123
 23.5936  12277.7  110.767
 23.6356  12315.5  110.606
 23.6776  12206.2  110.657
 23.7196  12260.6  110.384
 23.7616  12170.4  109.651
 23.8036  12147.9  109.618
 23.8456  12264.7  109.694
 23.8876  12039.8  109.062
 23.9296  11912.6  108.95
 23.9716  12027.7  108.673
 24.0136  12167  110.192
 24.0556  11971.9  109.046
 24.0976  11964.6  108.823
 24.1396  11981.9  111.546
 24.1816  12008.3  110.448
 24.2236  11898.3  109.246
 24.2656  11656.8  107.614
 24.3076  11657.3  107.857
 24.3496  11869.1  108.728
 24.3916  11646.5  107.755
 24.4336  11672.9  108.082
 24.4756  11577.8  107.505
 24.5176  11509.7  106.851
 24.5596  11320.4  106.285
 24.6016  11313.7  106.34
 24.6436  11383.8  106.165
 24.6856  11392.7  105.977
 24.7276  11397.7  106.309
 24.7696  11261.2  105.784
 24.8116  11336.7  106.315
 24.8536  11264.2  105.966
 24.8956  11085.1  104.868
 24.9376  11059.8  104.926
 24.9796  10900.6  104.279
 25.0216  10833.4  104.066
 25.0636  11036.8  104.696
 25.1056  10954.5  104.731
 25.1476  11120.5  107.383
 25.1896  11102.8  105.819
 25.2316  10891  103.971
 25.2736  10968.1  104.109
 25.3156  10952.7  104.105
 25.3576  10891.6  104.228
 25.3996  10905.8  104.274
 25.4416  10900.4  104.24
 25.4836  10743  104.003
 25.5256  10790.8  103.603
 25.5676  10814.2  103.463
 25.6096  10610  103.024
 25.6516  10835.4  103.635
 25.6936  10630.5  102.953
 25.7356  10688  103.351
 25.7776  10818.1  103.657
 25.8196  10506.6  102.327
 25.8616  10725.8  103.298
 25.9036  10740.4  102.859
 25.9456  10621.2  102.876
 25.9876  10590.1  102.654
 26.0296  10823.4  103.512
 26.0716  10594.5  102.746
 26.1136  10564.3  102.54
 26.1556  10797.1  102.958
 26.1976  10638.4  103.199
 26.2396  10646.7  102.652
 26.2816  10605.9  102.812
 26.3236  10720.1  103.437
 26.3656  10562.8  102.496
 26.4076  10661.9  103.163
 26.4496  11076  104.684
 26.4916  10653.1  102.635
 26.5336  10627.7  102.834
 26.5756  11052.9  104.726
 26.6176  10536.8  102.296
 26.6596  10490.2  102.383
 26.7016  10512.1  102.286
 26.7436  10402.5  101.851
 26.7856  10259.8  101.13
 26.8276  10330.1  101.435
 26.8696  10416.2  101.729
 26.9116  10262.8  100.919
 26.9536  10218.3  100.74
 26.9956  10351.4  101.424
 27.0376  10204.3  100.922
 27.0796  10361  101.453
 27.1216  10190  100.667
 27.1636  10119.6  100.475
 27.2056  10182.6  100.671
 27.2476  10241.3  100.961
 27.2896  10116.3  100.388
 27.3316  10065.9  99.9155
 27.3736  10118.4  100.432
 27.4156  10067.9  100.044
 27.4576  10049.1  100.17
 27.4996  10105.5  100.056
 27.5416  10083.1  100.254
 27.5836  10009.5  99.701
 27.6256  10310.2  101.351
 27.6676  10206.1  100.858
 27.7096  9952.27  99.468
 27.7516  9945.11  99.5774
 27.7936  9819.89  99.13
 27.8356  9908.03  99.1939
 27.8776  9955  99.4765
 27.9196  9838.46  98.738
 27.9616  9779.99  98.6305
 28.0036  9813.16  98.778
 28.0456  9835.34  99.0105
 28.0876  9774.15  98.7928
 28.1296  9796.52  98.7515
 28.1716  9735.94  98.4601
 28.2136  9856.95  99.0282
 28.2556  9588.89  97.7948
 28.2976  9711.91  98.4028
 28.3396  9682.82  98.0417
 28.3816  9777.65  98.5165
 28.4236  9700.58  98.2756
 28.4656  9590.33  97.7574
 28.5076  9677.56  97.8353
 28.5496  9697.83  98.2012
 28.5916  9703.06  98.0408
 28.6336  9626.08  97.9951
 28.6756  9666.61  97.4054
 28.7176  9602.36  97.6188
 28.7596  9582.46  97.4195
 28.8016  9633.99  97.7896
 28.8436  9439.12  96.9562
 28.8856  9583.75  97.5461
 28.9276  9630.98  98.0331
 28.9696  9510.01  97.0812
 29.0116  9567.03  97.5418
 29.0536  9341.39  96.5819
 29.0956  9559.48  97.4318
 29.1376  9427.54  96.7172
 29.1796  9369.53  96.4762
 29.2216  9513.68  97.052
 29.2636  9468.2  96.8205
 29.3056  9471.47  96.705
 29.3476  9353.4  96.6135
 29.3896  9483.65  97.3573
 29.4316  9497.06  96.7798
 29.4736  9427.81  96.4726
 29.5156  9334.95  95.9334
 29.5576  9366.68  96.8408
 29.5996  9476.6  96.6585
 29.6416  9297.69  95.8711
 29.6836  9355.88  96.0843
 29.7256  9370.08  96.7149
 29.7676  9203.62  95.5018
 29.8096  9449.2  96.7279
 29.8516  9163.56  95.5617
 29.8936  9389.47  96.8479
 29.9356  9435.33  96.8412
 29.9776  9310.21  96.3461
 30.0196  9278.5  95.6005
 30.0616  9291.59  96.0175
 30.1036  9377.48  96.3025
 30.1456  9326.53  96.2765
 30.1876  9247.31  95.8368
 30.2296  9132.22  95.1583
 30.2716  9315.75  95.768
 30.3136  9232.85  95.9115
 30.3556  9279.81  96.459
 30.3976  9137.36  97.2194
 30.4396  9320.87  95.5456
 30.4816  9161.23  94.3168
 30.5236  9130.99  94.194
 30.5656  9207.16  95.2106
 30.6076  9337.48  95.647
 30.6496  9107.94  94.516
 30.6916  9150.97  94.8154
 30.7336  8979.46  94.0854
 30.7756  9212.85  95.5929
 30.8176  9223.86  95.3646
 30.8596  9219.91  95.1129
 30.9016  9141.12  94.5972
 30.9436  9275.21  95.4917
 30.9856  9129.51  94.8607
 31.0276  9155.11  94.5971
 31.0696  9000.61  94.2427
 31.1116  8960.47  94.1239
 31.1536  9175.51  95.1163
 31.1956  8984.82  94.2225
 31.2376  8948.34  94.022
 31.2796  9096.38  94.3568
 31.3216  9073.64  94.185
 31.3636  9031.74  94.6764
 31.4056  9109.81  96.3769
 31.4476  9059.37  94.0528
 31.4896  9110.73  94.8191
 31.5316  9017.25  93.7812
 31.5736  8949.72  93.2061
 31.6156  9081.39  93.9146
 31.6576  9023.37  93.7115
 31.6996  8937.11  92.9418
 31.7416  8894.14  93.626
 31.7836  9034.59  93.5207
 31.8256  8962.41  93.4895
 31.8676  8994.05  93.577
 31.9096  8981.83  93.7264
 31.9516  8753.16  92.8128
 31.9936  8720.45  92.4745
 32.0356  8889.41  93.4278
 32.0776  8859.41  93.1599
 32.1196  8990.28  93.852
 32.1616  8886.39  92.8579
 32.2036  8782.23  92.8122
 32.2456  8799.02  93.2748
 32.2876  8881.34  93.0481
 32.3296  8728.91  92.3754
 32.3716  8794.2  92.8047
 32.4136  8901.94  93.5557
 32.4556  8963.41  93.328
 32.4976  8894.4  92.8625
 32.5396  8751.76  92.1482
 32.5816  8805.96  92.4429
 32.6236  8857.28  92.8942
 32.6656  8938.41  93.8453
 32.7076  8744.24  92.4866
 32.7496  8791.37  92.407
 32.7916  8761.73  92.2128
 32.8336  8851.56  92.7815
 32.8756  8718.67  91.9072
 32.9176  8595.17  91.6221
 32.9596  8715.8  92.3335
 33.0016  8770.74  92.4303
 33.0436  8844.32  92.9676
 33.0856  8589.28  91.6974
 33.1276  8570.43  91.3507
 33.1696  8691.54  91.8296
 33.2116  8689.59  92.0522
 33.2536  8680.48  92.0035
 33.2956  8616.78  91.7413
 33.3376  8539.05  91.1274
 33.3796  8711.94  92.1937
 33.4216  8685.5  91.6417
 33.4636  8794.42  92.3744
 33.5056  8580.75  91.3152
 33.5476  8613.78  91.6576
 33.5896  8723.47  91.986
 33.6316  8547.66  91.3971
 33.6736  8499.92  91.3714
 33.7156  8552.07  91.6932
 33.7576  8604.26  91.5873
 33.7996  8685.22  91.7975
 33.8416  8359.47  90.2455
 33.8836  8531.04  90.9404
 33.9256  8490.09  90.7961
 33.9676  8583.58  91.184
 34.0096  8403.41  90.5386
 34.0516  8360.55  89.9448
 34.0936  8591.09  91.4426
 34.1356  8475.28  90.5664
 34.1776  8519.11  90.8023
 34.2196  8346.46  90.0655
 34.2616  8479.68  90.9695
 34.3036  8421.34  90.852
 34.3456  8292.64  89.9117
 34.3876  8518.72  91.1769
 34.4296  8356.43  89.9044
 34.4716  8572.01  91.2166
 34.5136  8403.91  90.519
 34.5556  8387.01  90.666
 34.5976  8393.71  90.5533
 34.6396  8316.98  89.8217
 34.6816  8382.06  90.2914
 34.7236  8468.47  90.5336
 34.7656  8418.45  90.4505
 34.8076  8251.18  89.8712
 34.8496  8365.97  90.3467
 34.8916  8353.37  90.1616
 34.9336  8373.35  90.2232
 34.9756  8560.38  91.1789
 35.0176  8404.71  90.8424
 35.0596  8345.38  90.3615
 35.1016  8345.22  90.1256
 35.1436  8470.02  90.479
 35.1856  8257.11  89.4636
 35.2276  8419  90.5073
 35.2696  8259.69  89.8386
 35.3116  8365.26  90.4958
 35.3536  8331.55  90.0726
 35.3956  8283.86  89.4885
 35.4376  8282.71  90.0398
 35.4796  8370.68  90.5668
 35.5216  8185.44  89.4483
 35.5636  8011.74  89.2899
 35.6056  8307.93  89.9468
 35.6476  8372.85  90.1957
 35.6896  8271.65  89.8117
 35.7316  8151.53  89.0555
 35.7736  8073.89  88.8293
 35.8156  8078.13  88.8565
 35.8576  8172.62  89.6164
 35.8996  8284.09  90.1813
 35.9416  8305.75  89.8173
 35.9836  8120.6  89.241
 36.0256  8227.52  89.7577
 36.0676  8204.45  89.1768
 36.1096  8015.52  88.4945
 36.1516  8260.58  89.726
 36.1936  8179  89.1337
 36.2356  8185.51  89.8037
 36.2776  8172.12  89.1983
 36.3196  8224  89.1669
 36.3616  8184.7  89.0882
 36.4036  8087.89  88.6015
 36.4456  8137.76  89.1038
 36.4876  8100.21  88.8298
 36.5296  8061.83  88.6561
 36.5716  8155.35  89.946
 36.6136  8296.66  89.4858
 36.6556  8202.43  89.1593
 36.6976  8112.35  89.173
 36.7396  8139.63  89.1421
 36.7816  8061.05  88.9959
 36.8236  8058.13  88.9166
 36.8656  8001.33  88.6636
 36.9076  7997.46  88.6443
 36.9496  7986.63  88.5965
 36.9916  8038.56  88.3638
 37.0336  8106.84  89.0404
 37.0756  8060.78  88.5954
 37.1176  7825.48  87.6319
 37.1596  7929.91  88.1315
 37.2016  7975.6  88.5868
 37.2436  8189.32  89.1171
 37.2856  7941.73  88.025
 37.3276  8161.42  88.573
 37.3696  7867.22  87.8417
 37.4116  8041.41  88.6904
 37.4536  7958.97  88.1177
 37.4956  7973.8  88.2321
 37.5376  7965.49  89.7496
 37.5796  7955.46  89.6463
 37.6216  7875.35  87.4733
 37.6636  7883.39  87.4332
 37.7056  7997.04  88.238
 37.7476  7839.78  86.9231
 37.7896  7815.18  87.2482
 37.8316  7664.3  86.5963
 37.8736  7917.01  87.5143
 37.9156  7845.93  87.1391
 37.9576  7848.16  87.1764
 37.9996  7688.33  85.872
 38.0416  7846.94  87.5614
 38.0836  7890.79  87.7107
 38.1256  7779.5  87.0468
 38.1676  7594.4  86.1399
 38.2096  7817.67  87.0378
 38.2516  7802.39  87.0489
 38.2936  7906.15  87.5345
 38.3356  7933.63  87.5752
 38.3776  7787.44  87.0472
 38.4196  7872.43  87.3626
 38.4616  7748.76  86.915
 38.5036  7808.47  87.0956
 38.5456  7722.45  87.456
 38.5876  7792.42  87.8866
 38.6296  7678.21  86.2577
 38.6716  7772.13  86.5778
 38.7136  7648.72  85.8311
 38.7556  7641.65  86.2878
 38.7976  7676.33  86.4205
 38.8396  7585.52  86.3511
 38.8816  7521.82  85.7627
 38.9236  7764.29  86.9589
 38.9656  7681.6  86.4096
 39.0076  7795.84  86.4571
 39.0496  7615.3  85.9852
 39.0916  7667.55  85.9243
 39.1336  7684.83  86.436
 39.1756  7695.92  86.5659
 39.2176  7766.45  87.4845
 39.2596  7739.56  87.2564
 39.3016  7835.28  87.3612
 39.3436  7632.19  86.6474
 39.3856  7636.28  86.1291
 39.4276  7739.65  87.1993
 39.4696  7673.87  86.457
 39.5116  7635.4  86.7435
 39.5536  7784.36  87.9792
 39.5956  7759.18  86.9594
 39.6376  7699.22  86.4565
 39.6796  7642.39  86.0526
 39.7216  7725.26  86.5909
 39.7636  7721.9  87.1416
 39.8056  7668.41  86.628
 39.8476  7731.18  87.2367
 39.8896  7683.09  86.5995
 39.9316  7608.42  86.4279
 39.9736  7780.67  86.978
 40.0156  7697.13  86.3179
 40.0576  7699.03  86.7003
 40.0996  7833.05  86.6403
 40.1416  7765.1  87.0411
 40.1836  7784.53  87.0417
 40.2256  7726.78  86.7676
 40.2676  7739.5  86.9905
 40.3096  7873.21  87.6187
 40.3516  7798.14  87.3802
 40.3936  7833.84  87.0685
 40.4356  7648.72  86.2302
 40.4776  7780.2  87.2126
 40.5196  7793.99  87.5722
 40.5616  7803.6  87.2775
 40.6036  7653.99  86.6787
 40.6456  7766.03  86.9088
 40.6876  7813.43  87.1746
 40.7296  7756.52  86.9904
 40.7716  7859.82  87.6986
 40.8136  7805.33  87.3445
 40.8556  7803.3  87.4661
 40.8976  7796.08  87.3376
 40.9396  7718.19  87.2547
 40.9816  7807.95  87.0451
 41.0236  7883.23  87.2313
 41.0656  7876.89  87.7402
 41.1076  7856.28  87.3966
 41.1496  7911.73  87.6232
 41.1916  7801.44  87.3387
 41.2336  7725.99  86.8997
 41.2756  7700.88  86.3664
 41.3176  7694.99  86.9435
 41.3596  7747.86  86.9679
 41.4016  7638.71  86.5986
 41.4436  7851.56  87.5972
 41.4856  7821.99  87.5828
 41.5276  7703.65  86.9433
 41.5696  7619.55  86.0939
 41.6116  7698.94  86.9528
 41.6536  7726.99  86.9655
 41.6956  7822.36  87.481
 41.7376  7716.9  86.9864
 41.7796  7677.48  86.6845
 41.8216  7809.16  87.625
 41.8636  7779.69  87.3932
 41.9056  7625.88  86.3234
 41.9476  7750.4  87.2551
 41.9896  7756.4  86.9668
 42.0316  7851.93  87.5692
 42.0736  7740.82  87.0954
 42.1156  7618.17  86.2117
 42.1576  7662.24  86.5529
 42.1996  7739.07  87.131
 42.2416  7685.5  86.4131
 42.2836  7647.59  86.3165
 42.3256  7629.93  86.3307
 42.3676  7703.51  86.5567
 42.4096  7661.15  86.2805
 42.4516  7658.83  86.3584
 42.4936  7683.09  86.5564
 42.5356  7636.32  86.419
 42.5776  7693.05  86.684
 42.6196  7689.26  86.6317
 42.6616  7594.55  86.3484
 42.7036  7681.59  86.2334
 42.7456  7670.52  86.5285
 42.7876  7504.93  85.6792
 42.8296  7645.7  86.3837
 42.8716  7535.29  85.8446
 42.9136  7623.27  86.0938
 42.9556  7608.49  86.1891
 42.9976  7696.68  86.6582
 43.0396  7580.16  85.7221
 43.0816  7576.19  86.0712
 43.1236  7525.55  85.8444
 43.1656  7670.08  86.4969
 43.2076  7489.42  85.5669
 43.2496  7495.75  85.4306
 43.2916  7587.77  86.3116
 43.3336  7554.55  85.9639
 43.3756  7541.41  85.6532
 43.4176  7558.36  85.8231
 43.4596  7492.28  85.3047
 43.5016  7446.54  85.4408
 43.5436  7590.96  86.1659
 43.5856  7527.16  85.8142
 43.6276  7489.26  85.5089
 43.6696  7466.91  85.5206
 43.7116  7521.7  85.4548
 43.7536  7601.78  86.4083
 43.7956  7414.28  86.4807
 43.8376  7498.74  85.5441
 43.8796  7419.36  85.1552
 43.9216  7655.93  86.4184
 43.9636  7461.99  85.4099
 44.0056  7420.66  85.4179
 44.0476  7426.48  85.0726
 44.0896  7367.85  85.0856
 44.1316  7391.44  84.9096
 44.1736  7290.18  84.2878
 44.2156  7480.64  85.2495
 44.2576  7390.55  85.0491
 44.2996  7520.39  85.7662
 44.3416  7368.63  84.6366
 44.3836  7269.12  84.3976
 44.4256  7269.27  84.0441
 44.4676  7295.35  84.3619
 44.5096  7447.86  85.379
 44.5516  7322.26  84.6216
 44.5936  7331.27  84.6306
 44.6356  7363.65  84.5567
 44.6776  7337.97  84.7389
 44.7196  7283.71  84.6762
 44.7616  7299.33  86.1261
 44.8036  7240.95  84.4215
 44.8456  7317.74  84.861
 44.8876  7249.72  84.3185
 44.9296  7260.93  83.854
 44.9716  7205.48  83.9567
 45.0136  7285.74  84.3471
 45.0556  7411.87  85.1608
 45.0976  7215.07  84.0767
 45.1396  7232.98  83.9504
 45.1816  7323.01  84.2278
 45.2236  7325.87  84.3175
 45.2656  7171.31  83.9048
 45.3076  7258.27  84.2195
 45.3496  7123.61  83.7074
 45.3916  7210.15  84.4931
 45.4336  7173.83  84.1407
 45.4756  7076.37  83.4199
 45.5176  7220.62  83.8945
 45.5596  7266.2  84.2657
 45.6016  7066.6  83.5092
 45.6436  7180.79  83.3739
 45.6856  7055.92  83.2866
 45.7276  7020.7  84.8874
 45.7696  7100.18  84.525
 45.8116  7236.3  84.8108
 45.8536  6997.28  83.2934
 45.8956  7091.44  83.2175
 45.9376  7168.73  83.1437
 45.9796  7164.2  83.7954
 46.0216  7182.68  84.2381
 46.0636  7075.09  82.7681
 46.1056  7155.26  83.221
 46.1476  7138.69  83.7067
 46.1896  7195.76  84.1869
 46.2316  7121.28  83.6194
 46.2736  7055.24  83.433
 46.3156  7151.14  83.7523
 46.3576  7067.18  83.4599
 46.3996  7045  83.4861
 46.4416  7132.48  83.5613
 46.4836  7053.52  83.471
 46.5256  7214.44  84.3557
 46.5676  7000.05  83.2033
 46.6096  7106.53  83.7734
 46.6516  7131.88  82.9771
 46.6936  7171.3  83.6922
 46.7356  7171.16  83.7921
 46.7776  7017.06  83.6878
 46.8196  6985.07  83.2493
 46.8616  6910.33  82.5815
 46.9036  6911.77  82.2844
 46.9456  6874.13  81.6902
 46.9876  7032.45  82.7206
 47.0296  7012.09  83.265
 47.0716  6947.83  82.7211
 47.1136  6950.57  82.4274
 47.1556  7085.02  83.0782
 47.1976  7041.56  82.9823
 47.2396  6907.49  82.5058
 47.2816  6879.79  82.0545
 47.3236  6909.88  82.5921
 47.3656  7024.47  83.2105
 47.4076  6938.49  82.4151
 47.4496  6888.06  82.2834
 47.4916  6844.59  82.2064
 47.5336  7056.12  83.2932
 47.5756  6904.18  82.4533
 47.6176  6815.82  81.873
 47.6596  6811.68  81.5825
 47.7016  7046.62  82.793
 47.7436  6969.05  82.6626
 47.7856  7019.42  82.9926
 47.8276  6821.37  81.8466
 47.8696  6859.57  82.1535
 47.9116  7039.29  82.9527
 47.9536  6937.96  82.2863
 47.9956  6899.37  82.761
 48.0376  6800.41  81.9512
 48.0796  6906.92  82.7099
 48.1216  6973.47  82.9406
 48.1636  7023.77  82.818
 48.2056  6875  82.1885
 48.2476  6952.19  82.955
 48.2896  6794.75  81.9193
 48.3316  6809.71  81.9385
 48.3736  6791.01  81.8606
 48.4156  6795.88  81.744
 48.4576  6775.32  81.9096
 48.4996  6848.62  81.8276
 48.5416  6875.87  82.3047
 48.5836  6833.03  81.7245
 48.6256  6874.79  82.1916
 48.6676  6856.34  82.5632
 48.7096  6799.67  81.4966
 48.7516  6878.51  82.1365
 48.7936  6742.84  81.3766
 48.8356  6799.58  81.7723
 48.8776  6804.06  82.2812
 48.9196  6956.61  82.6608
 48.9616  6729.56  81.6634
 49.0036  6775.2  82.2862
 49.0456  6738.15  82.0296
 49.0876  6624.56  80.9864
 49.1296  6609.12  80.9554
 49.1716  6547.4  80.4499
 49.2136  6818.32  82.009
 49.2556  6797.99  81.9301
 49.2976  6759.68  81.7734
 49.3396  6675.47  81.3217
 49.3816  6795.1  81.4843
 49.4236  6749.77  81.632
 49.4656  6655.12  81.059
 49.5076  6657.57  80.8408
 49.5496  6691.08  80.9813
 49.5916  6771.48  81.5009
 49.6336  6754.36  81.6048
 49.6756  6715.23  81.6023
 49.7176  6669.72  81.2634
 49.7596  6623.41  80.9296
 49.8016  6717.64  81.2485
 49.8436  6572.99  80.6521
 49.8856  6604.28  80.8556
 49.9276  6594.8  80.9018
 49.9696  6673.08  81.3526
 50.0116  6632.5  81.2278
 50.0536  6571.05  80.8077
 50.0956  6550.39  80.7473
 50.1376  6610.55  80.8193
 50.1796  6564.99  80.8035
 50.2216  6602.83  81.0372
 50.2636  6486.51  79.9478
 50.3056  6594.12  80.7882
 50.3476  6569.28  80.6476
 50.3896  6536.16  80.4169
 50.4316  6580.93  80.5323
 50.4736  6491.26  80.1912
 50.5156  6551.64  80.5489
 50.5576  6592.89  80.5681
 50.5996  6536.28  80.5022
 50.6416  6497.68  80.1877
 50.6836  6624.21  81.0365
 50.7256  6548.73  80.4901
 50.7676  6618.65  81.2223
 50.8096  6573.28  80.5046
 50.8516  6516.65  80.5603
 50.8936  6448.7  79.9149
 50.9356  6554.15  80.6792
 50.9776  6582.37  80.9838
 51.0196  6370.62  79.8011
 51.0616  6417.94  79.4562
 51.1036  6497.93  80.2865
 51.1456  6497.42  80.2072
 51.1876  6524.37  79.7211
 51.2296  6481.2  80.0777
 51.2716  6359.81  79.0253
 51.3136  6433.55  79.939
 51.3556  6494.74  79.9381
 51.3976  6455.62  79.8555
 51.4396  6293.56  79.1423
 51.4816  6349.43  79.3516
 51.5236  6336.87  79.3685
 51.5656  6444.4  79.6398
 51.6076  6436.36  79.6834
 51.6496  6404.85  79.648
 51.6916  6412.1  80.0615
 51.7336  6401.28  80.0627
 51.7756  6345.79  79.4348
 51.8176  6322.53  79.3611
 51.8596  6456.12  80.2395
 51.9016  6546.32  80.4139
 51.9436  6413.37  81.0301
 51.9856  6309.05  80.7967
 52.0276  6354.44  79.6135
 52.0696  6361.67  79.7324
 52.1116  6404.56  80.0912
 52.1536  6311.17  79.348
 52.1956  6423.62  79.5711
 52.2376  6482.89  80.1162
 52.2796  6322.36  78.9405
 52.3216  6211.76  78.9196
 52.3636  6495.14  80.2799
 52.4056  6249.87  78.6055
 52.4476  6242.71  78.9204
 52.4896  6237.02  78.9322
 52.5316  6292.86  79.3439
 52.5736  6306.92  79.1436
 52.6156  6276.26  79.338
 52.6576  6349.98  79.2365
 52.6996  6167.25  79.0427
 52.7416  6384.01  80.2585
 52.7836  6271.31  79.4359
 52.8256  6270.69  78.699
 52.8676  6109.46  78.2247
 52.9096  6348.7  79.8273
 52.9516  6211.84  79.3419
 52.9936  6193.55  79.6082
 53.0356  6284.62  79.2288
 53.0776  6191.93  78.9183
 53.1196  6050.16  78.1107
 53.1616  6260.46  79.5032
 53.2036  6098.12  78.42
 53.2456  6132.49  78.7425
 53.2876  6137.32  78.4847
 53.3296  6109.31  78.6235
 53.3716  6134.53  78.5333
 53.4136  6108.5  78.5108
 53.4556  6056.05  78.2073
 53.4976  6054.64  78.0522
 53.5396  6152.17  79.0624
 53.5816  6133.22  78.579
 53.6236  6162.02  79.0896
 53.6656  6136.74  78.577
 53.7076  6188.98  78.8729
 53.7496  6139.3  78.6656
 53.7916  6010.61  77.9684
 53.8336  6085.86  78.3522
 53.8756  5912.8  77.7605
 53.9176  6164.77  78.7604
 53.9596  6163.76  79.4657
 54.0016  6150.01  78.7382
 54.0436  6091.4  78.5497
 54.0856  6263.69  79.1066
 54.1276  6058.89  77.9901
 54.1696  6166.08  78.8511
 54.2116  6070.65  78.0065
 54.2536  6104.33  78.0269
 54.2956  6174.32  78.5326
 54.3376  6057.11  78.2493
 54.3796  6083.87  78.3287
 54.4216  6210.42  79.1821
 54.4636  6112.09  78.5098
 54.5056  6100.19  78.2577
 54.5476  6135.96  78.8194
 54.5896  6133.27  78.6197
 54.6316  6111.19  78.3557
 54.6736  6135.94  78.5406
 54.7156  6053.81  78.0797
 54.7576  5994.16  77.6941
 54.7996  6041.04  78.1424
 54.8416  6073.66  78.3913
 54.8836  5974.27  77.8521
 54.9256  6102.47  78.4299
 54.9676  6072.46  78.0895
 55.0096  6093.78  78.3093
 55.0516  6080.34  78.382
 55.0936  6157.59  78.5818
 55.1356  6015.09  77.7197
 55.1776  6016.15  77.9798
 55.2196  6131.6  78.5093
 55.2616  6030.93  78.0759
 55.3036  6070.99  78.4908
 55.3456  5986.22  78.0686
 55.3876  6021.75  78.0646
 55.4296  6063.37  78.3052
 55.4716  6021.34  78.0696
 55.5136  6065.93  78.1233
 55.5556  6000.98  77.7768
 55.5976  5982.26  77.7017
 55.6396  6060.57  78.082
 55.6816  6013.91  77.7406
 55.7236  6080.75  78.312
 55.7656  6049.73  77.7728
 55.8076  6145.58  78.3657
 55.8496  5985.52  77.7734
 55.8916  5988.82  77.8452
 55.9336  5979.37  77.6448
 55.9756  6025.67  77.8316
 56.0176  5901.58  77.1729
 56.0596  5955.78  77.5088
 56.1016  6029.97  78.0275
 56.1436  5859.46  77.1439
 56.1856  6036.67  78.0459
 56.2276  5981.46  77.7478
 56.2696  5955.42  77.5472
 56.3116  5857.45  77.307
 56.3536  6023.51  78.0526
 56.3956  5919.13  77.3646
 56.4376  6085.28  78.4751
 56.4796  6093.5  78.3262
 56.5216  5982.72  77.9847
 56.5636  6101.12  78.3388
 56.6056  5930.97  77.4762
 56.6476  5941.14  77.1747
 56.6896  6031.56  78.205
 56.7316  5978.88  77.7634
 56.7736  5974.11  77.733
 56.8156  6070.46  78.3552
 56.8576  5979.73  77.7085
 56.8996  5963.15  77.5449
 56.9416  5907.98  77.3362
 56.9836  5839.22  76.5567
 57.0256  5989.84  77.8519
 57.0676  5900.28  77.3881
 57.1096  5949.33  77.5024
 57.1516  6044.44  78.1387
 57.1936  5976.58  77.491
 57.2356  5952.16  77.6413
 57.2776  5972.91  77.7335
 57.3196  5957.51  78.0011
 57.3616  5954.51  77.4854
 57.4036  5971.73  77.6556
 57.4456  5871.32  76.9715
 57.4876  5901.74  77.0244
 57.5296  5926.87  77.4296
 57.5716  5861.06  77.0895
 57.6136  5973.26  77.6271
 57.6556  5966.4  77.7294
 57.6976  5943.28  77.4147
 57.7396  5884.49  77.3933
 57.7816  5888.89  77.773
 57.8236  5877.15  77.4904
 57.8656  5963.69  77.7209
 57.9076  5988.43  77.9145
 57.9496  5935.63  77.9077
 57.9916  5918.9  77.2781
 58.0336  5865.95  77.2476
 58.0756  5939.31  77.3259
 58.1176  5970.07  77.5666
 58.1596  5941.1  77.9413
 58.2016  5905.64  76.9453
 58.2436  6013.13  78.0381
 58.2856  5996.44  77.8361
 58.3276  5928.57  77.7748
 58.3696  5932.17  77.5616
 58.4116  5950.87  77.5412
 58.4536  5995.85  77.7308
 58.4956  5870.82  77.0809
 58.5376  5892.9  76.8066
 58.5796  5906.35  77.2988
 58.6216  5960.35  77.4765
 58.6636  6010.21  77.9983
 58.7056  5948.45  77.474
 58.7476  5875.33  77.4345
 58.7896  5980.31  77.7699
 58.8316  5849.47  76.9218
 58.8736  6020.6  78.0363
 58.9156  5903.49  77.3281
 58.9576  6165.18  79.2091
 58.9996  6045.03  77.8174
 59.0416  6078.38  78.366
 59.0836  5941.36  77.4204
 59.1256  6031.71  78.3791
 59.1676  5851.67  77.818
 59.2096  6093.58  78.6841
 59.2516  6081.85  78.1882
 59.2936  6086.09  78.5446
 59.3356  5944.27  77.5028
 59.3776  6025.76  78.201
 59.4196  5951.51  77.6536
 59.4616  5931.83  77.3869
 59.5036  5944.66  77.5058
 59.5456  6079.66  78.0734
 59.5876  6004.4  77.779
 59.6296  5888.04  77.09
 59.6716  6011.52  77.9519
 59.7136  5863.31  76.9734
 59.7556  5887.15  77.2644
 59.7976  5939.97  77.3547
 59.8396  5958.08  77.3676
 59.8816  5884.19  77.4237
 59.9236  5927.31  77.3547
 59.9656  5827.13  76.9534
 60.0076  5975.71  77.2902
 60.0496  5900.61  77.3005
 60.0916  6130.67  78.2074
 60.1336  5948.85  78.1372
 60.1756  5962.58  79.4033
 60.1996  0.0000000E+00  0.0000000E+00