File: docs/examples/opeando_xrd/IS17_D/Data/IS17_D/17_Db_f00002.xye
# /beamlines/bl04/projects/cycle2025-II/20250340211-lsimonelli/DATA/IS17_D/17_Db_f00002.xye : mythproc.py merge -s 0.006 -l 0.5 -f /beamlines/bl04/inhouse/ff/FlatField/ff_20Nov2024rod8mm60s_17keV.raw -b True -c true -o xye /beamlines/bl04/projects/cycle2025-II/20250340211-lsimonelli/DATA/IS17_D/17_Db_00002.dat
# IsMon = [6738906, 6731143, 6730964]  IsPos = [-1.5000, -2.4886, -3.4986]
# Wave = 0.4962  CalPath /beamlines/bl04/projects/cycle2025-II/20250340211-lsimonelli/DATA/Align/Si_Pos1_25keV_f00001.cal
# Date = 2025-09-23_18:15:59 Dt = 4.8000  Bin = 0.0060  <imon> = 6733671 +/- 3702 (Min/Max) 6730964 / 6738906
# icurr 248.7884  mocoIn 1.6979E-05  mocoOut 0.7966  i15 7.04085e+06  imon 6.73367e+06  i7 5.6667  iEMpd_timer 4.8000  iEMpd_1 3.4771E-08  iEMpd_2 7.8004E-08  iEMpd_3 1.7845E-08  iEMpd_4 4.7741E-08  iEMhp_timer 4.8000  iEMhp_1 4.8633E-06  iEMhp_2 -2.5497E-08  iEMhp_3 -2.2903E-08  iEMhp_4 -2.2737E-08
#      9776
 1.5856  44277.9  215.987
 1.6276  50290.5  226.235
 1.6696  56401.1  238.741
 1.7116  63925.5  254.665
 1.7536  72334  269.742
 1.7956  76099.8  277.365
 1.8376  73365.8  272.77
 1.8796  62455.1  249.826
 1.9216  51976.4  228.809
 1.9636  44657.3  211.753
 2.0056  40138.9  199.472
 2.0476  37852.9  195.832
 2.0896  36397.2  190.904
 2.1316  35714.7  188.196
 2.1736  33869.4  184.724
 2.2156  34622.1  185.266
 2.2576  33102.5  181.804
 2.2996  31698.2  178.559
 2.3416  32166.1  178.437
 2.3836  31297.2  176.119
 2.4256  30287.5  173.819
 2.4676  30270.2  173.523
 2.5096  29908.3  172.539
 2.5516  28460.3  172.23
 2.5936  28710.8  169.51
 2.6356  27884.1  167.764
 2.6776  27709.1  166.124
 2.7196  27460  165.873
 2.7616  27100  164.565
 2.8036  27035.7  164.536
 2.8456  26852.6  164.62
 2.8876  26254.9  162.62
 2.9296  25822.2  161.423
 2.9716  25568.6  160.123
 3.0136  25328.3  159.432
 3.0556  25566.8  160.576
 3.0976  25305  158.639
 3.1396  24796.9  157.785
 3.1816  24700.6  157.417
 3.2236  24630  157.18
 3.2656  24431.1  155.611
 3.3076  24358.5  156.831
 3.3496  24412  156.169
 3.3916  24756.4  156.841
 3.4336  25155.2  158.692
 3.4756  25794.6  160.618
 3.5176  26371.3  162.189
 3.5596  25679.2  163.06
 3.6016  25959.9  161.007
 3.6436  25117.6  159.481
 3.6856  24651.5  156.299
 3.7276  23794.7  154.645
 3.7696  23829.4  154.73
 3.8116  23361  153.296
 3.8536  23533.9  153.792
 3.8956  23293.4  152.827
 3.9376  23092.9  152.479
 3.9796  23160  152.152
 4.0216  23116.7  151.052
 4.0636  23042.5  152.265
 4.1056  23263.1  152.655
 4.1476  23448.8  153.546
 4.1896  23559  153.787
 4.2316  23698.8  154.061
 4.2736  24125.3  155.247
 4.3156  24041.2  155.218
 4.3576  24846.5  157.681
 4.3996  25223.9  158.966
 4.4416  25621.1  159.99
 4.4836  26055.2  161.503
 4.5256  26666.7  163.966
 4.5676  26501.1  163.736
 4.6096  27130.4  164.688
 4.6516  27564.5  165.33
 4.6936  27437.1  165.781
 4.7356  27790.2  166.663
 4.7776  27515.7  165.678
 4.8196  27375.6  165.87
 4.8616  26639.5  163.271
 4.9036  26738.6  163.162
 4.9456  26338  162.597
 4.9876  25788.1  160.786
 5.0296  26093.4  161.577
 5.0716  25863.3  161.487
 5.1136  26068.8  161.978
 5.1556  26167.6  161.758
 5.1976  26722.5  163.428
 5.2396  26623.3  162.842
 5.2816  26796.9  163.816
 5.3236  26755.9  163.398
 5.3656  26265.7  162.825
 5.4076  26036.7  162.255
 5.4496  26047.3  161.802
 5.4916  26011  161.431
 5.5336  26102  161.81
 5.5756  26052.3  161.559
 5.6176  26063.8  161.065
 5.6596  26320.9  162.673
 5.7016  26364.8  162.239
 5.7436  26686.8  163.28
 5.7856  26464.6  162.886
 5.8276  26535.5  162.837
 5.8696  26916.2  164.027
 5.9116  26415.2  163.193
 5.9536  27224  165.417
 5.9956  27307.3  165.088
 6.0376  27251.1  165.529
 6.0796  27622.3  166.483
 6.1216  27479.4  166.267
 6.1636  27870.5  166.485
 6.2056  27632.1  166.462
 6.2476  28221.5  167.881
 6.2896  28142.4  167.535
 6.3316  28414  168.487
 6.3736  28231.9  167.859
 6.4156  28105.2  167.429
 6.4576  28517.8  168.224
 6.4996  28571.5  168.866
 6.5416  28694.5  169.338
 6.5836  28456.2  168.833
 6.6256  28772.5  169.377
 6.6676  29318.9  170.548
 6.7096  29065.2  170.638
 6.7516  29508.2  171.613
 6.7936  29895.5  172.094
 6.8356  29801.1  171.969
 6.8776  29872.2  172.98
 6.9196  30126.2  174.094
 6.9616  30317.3  174.064
 7.0036  30877.5  175.352
 7.0456  30945.9  174.853
 7.0876  31056.4  176.727
 7.1296  30886.5  175.503
 7.1716  30792.5  175.151
 7.2136  30453.4  173.593
 7.2556  30804.5  174.745
 7.2976  30834.3  175.32
 7.3396  30761.8  175.578
 7.3816  30524  174.872
 7.4236  31099.2  175.807
 7.4656  31011.6  175.016
 7.5076  31596.6  176.813
 7.5496  30859.7  175.274
 7.5916  31195  176.269
 7.6336  31677.5  177.514
 7.6756  31827.1  177.785
 7.7176  32372.5  179.61
 7.7596  31955.5  179.669
 7.8016  32761.8  184.113
 7.8436  32096.5  179.011
 7.8856  32488.3  179.715
 7.9276  32918.3  181.293
 7.9696  33443  183.029
 8.0116  33865.6  183.044
 8.0536  34392.1  184.428
 8.0956  34257.8  185.224
 8.1376  34451.7  185.231
 8.1796  34895.7  186.945
 8.2216  35506.8  187.341
 8.2636  35576.1  187.771
 8.3056  35449.5  188.188
 8.3476  36290.5  189.744
 8.3896  35910.4  189.267
 8.4316  35836.8  188.798
 8.4736  36267  189.405
 8.5156  35886.9  188.683
 8.5576  35379.2  188.288
 8.5996  35350.7  187.117
 8.6416  35356.6  188.364
 8.6836  35217.4  187.831
 8.7256  35626.8  188.183
 8.7676  35273  190.263
 8.8096  35722.2  188.785
 8.8516  35897.3  188.855
 8.8936  35388.7  187.438
 8.9356  35564.3  188.208
 8.9776  35413.3  187.902
 9.0196  35287.6  187.232
 9.0616  35133  186.351
 9.1036  34651.6  186.214
 9.1456  34216.9  184.408
 9.1876  34761.5  185.801
 9.2296  34359.5  184.189
 9.2716  33839.2  182.803
 9.3136  34042.2  183.351
 9.3556  34478.6  184.5
 9.3976  33397  182.063
 9.4396  33372.3  181.923
 9.4816  33284.5  181.527
 9.5236  33184.9  181.175
 9.5656  32568.3  179.835
 9.6076  32042  178.904
 9.6496  32379.6  179.715
 9.6916  31958.9  178.517
 9.7336  32099.3  178.68
 9.7756  32136.5  179.998
 9.8176  31795.7  178.568
 9.8596  31784.8  177.02
 9.9016  31365.5  175.831
 9.9436  30795.7  174.005
 9.9856  30868.2  174.627
 10.0276  30500  174.638
 10.0696  30744.5  174.385
 10.1116  29727.9  171.74
 10.1536  29532.8  170.822
 10.1956  29352.6  170.425
 10.2376  29115.5  169.236
 10.2796  28913.1  168.774
 10.3216  28735.3  168.391
 10.3636  28303.3  167.286
 10.4056  27660.9  165.785
 10.4476  28342  167.409
 10.4896  28291.2  166.712
 10.5316  27821.2  165.687
 10.5736  27156  164.443
 10.6156  27238.5  164.434
 10.6576  26980.8  162.275
 10.6996  26831.8  162.668
 10.7416  26331.6  161.206
 10.7836  26230.7  161.575
 10.8256  25823.9  160.714
 10.8676  25860.8  160.706
 10.9096  25792.1  160.203
 10.9516  25384.7  157.918
 10.9936  25403.8  158.172
 11.0356  25268.2  158.34
 11.0776  25193.6  157.46
 11.1196  24674.9  156.575
 11.1616  24428.7  155.479
 11.2036  24534  155.664
 11.2456  24506.6  156.706
 11.2876  24793.2  156.891
 11.3296  24146.9  154.763
 11.3716  24317.4  155.053
 11.4136  24540.1  156.561
 11.4556  24326.7  155.559
 11.4976  24765.7  155.983
 11.5396  24919.5  156.634
 11.5816  25781.3  159.721
 11.6236  26032.3  160.983
 11.6656  25882.6  159.43
 11.7076  24687.8  156.545
 11.7496  24298.2  159.241
 11.7916  24156.6  154.127
 11.8336  23688.8  153.528
 11.8756  23774.3  153.332
 11.9176  23615.7  152.748
 11.9596  23676.4  152.847
 12.0016  23585.1  153.324
 12.0436  23441.3  152.31
 12.0856  22880.8  150.964
 12.1276  23162.5  151.848
 12.1696  23069.2  150.675
 12.2116  23016.7  150.522
 12.2536  23038.9  151.335
 12.2956  22788.4  149.925
 12.3376  23024.1  150.871
 12.3796  23122.4  151.686
 12.4216  23037.2  150.612
 12.4636  22540  149.889
 12.5056  22801.1  149.934
 12.5476  22932.5  149.988
 12.5896  22718  149.934
 12.6316  22768.6  150.217
 12.6736  22774.8  150.602
 12.7156  22949.5  151.136
 12.7576  22903.5  151.245
 12.7996  22914.7  149.948
 12.8416  22723.7  150.356
 12.8836  23179.7  151.683
 12.9256  23272  151.049
 12.9676  23188.8  151.177
 13.0096  23376.9  152.863
 13.0516  23362.5  151.876
 13.0936  23300.6  151.804
 13.1356  24047.9  153.469
 13.1776  23448.7  152.38
 13.2196  23647  152.837
 13.2616  23459.1  152.553
 13.3036  23772.9  153.672
 13.3456  23473.9  152.702
 13.3876  23741.3  153.037
 13.4296  23483.1  152.377
 13.4716  23719.1  152.775
 13.5136  23606.3  152.529
 13.5556  23355.1  152.345
 13.5976  23688.4  153.586
 13.6396  23597.9  152.673
 13.6816  23893.8  153.94
 13.7236  24008.3  154.006
 13.7656  25838.7  160.222
 13.8076  26575.1  161.175
 13.8496  24915.6  156.91
 13.8916  23955  154.797
 13.9336  23233.1  151.749
 13.9756  23084.4  150.634
 14.0176  22933  150.861
 14.0596  23024.6  151.026
 14.1016  22886.8  151.005
 14.1436  22910.4  150.202
 14.1856  22483.1  149.1
 14.2276  22286.9  148.91
 14.2696  22223.5  148.566
 14.3116  21765.8  146.953
 14.3536  21527  146.29
 14.3956  21917.3  147.31
 14.4376  21435.6  145.5
 14.4796  21486.9  145.678
 14.5216  21246.8  145.627
 14.5636  21121.3  144.782
 14.6056  21277.4  144.75
 14.6476  21208  143.905
 14.6896  20848.4  143.213
 14.7316  20443.7  142.827
 14.7736  20444.3  142.024
 14.8156  20292.3  141.478
 14.8576  20166.3  140.901
 14.8996  19798.3  140.776
 14.9416  19409.2  139.404
 14.9836  19401  139.366
 15.0256  18852.3  136.346
 15.0676  18937.3  136.954
 15.1096  18675.8  135.755
 15.1516  18357.5  135.131
 15.1936  18404.9  134.747
 15.2356  18023.4  133.615
 15.2776  18177.4  133.785
 15.3196  17683.8  132.918
 15.3616  17692.6  132.716
 15.4036  17701.5  132.611
 15.4456  17799.4  132.419
 15.4876  17588.3  131.542
 15.5296  17374.5  131.015
 15.5716  17220.9  130.053
 15.6136  17130.3  130.024
 15.6556  17096.3  129.164
 15.6976  17036.1  129.011
 15.7396  16888.4  129.036
 15.7816  16725.1  127.942
 15.8236  16579.6  128.051
 15.8656  16668.1  128.191
 15.9076  16394.5  126.966
 15.9496  17167.7  132.643
 15.9916  16819.8  132.179
 16.0336  16899.9  128.926
 16.0756  16862.5  129.11
 16.1176  16604.4  128.055
 16.1596  16187.6  127.719
 16.2016  16287.5  126.911
 16.2436  16190.7  126.901
 16.2856  16179  126.361
 16.3276  15904.5  125.732
 16.3696  16102.2  126.335
 16.4116  15989  126.309
 16.4536  16093.4  126.551
 16.4956  16102.9  126.307
 16.5376  15818.6  125.39
 16.5796  15715  124.359
 16.6216  15780.4  124.885
 16.6636  15675.5  124.659
 16.7056  15701.4  124.617
 16.7476  15560.5  123.747
 16.7896  15684.9  124.81
 16.8316  15643.3  124.634
 16.8736  15891.6  125.855
 16.9156  15539.8  124.778
 16.9576  15446.2  125.193
 16.9996  15457.3  125.709
 17.0416  15649.1  125.066
 17.0836  15799.6  125.245
 17.1256  15383.2  123.591
 17.1676  15435  123.767
 17.2096  15325.2  123.211
 17.2516  15361.8  123.441
 17.2936  15310  123.294
 17.3356  15227.4  122.85
 17.3776  15024.7  122.31
 17.4196  14880.2  121.438
 17.4616  15021.6  121.902
 17.5036  14599.7  120.558
 17.5456  14696.2  121.56
 17.5876  14493.6  119.787
 17.6296  14754.8  120.672
 17.6716  14279.6  119.298
 17.7136  14231.3  119.212
 17.7556  14136.7  119.109
 17.7976  14031.5  118.294
 17.8396  13965.7  117.651
 17.8816  13930  118.059
 17.9236  13883.8  117.657
 17.9656  13813.2  118.028
 18.0076  13873.4  117.724
 18.0496  13805  116.6
 18.0916  13780.7  117.025
 18.1336  13756.5  117.02
 18.1756  13746.8  116.475
 18.2176  13607.1  116.153
 18.2596  13564.4  115.72
 18.3016  13723.2  116.645
 18.3436  13708.1  116.815
 18.3856  13484.5  115.744
 18.4276  13622.6  116.04
 18.4696  13401.9  115.186
 18.5116  13470.8  115.736
 18.5536  13419.6  115.853
 18.5956  13288  114.876
 18.6376  13331.2  115.451
 18.6796  13329.8  114.785
 18.7216  13428.1  115.75
 18.7636  13330.5  115.252
 18.8056  13395.6  115.474
 18.8476  13235  115.091
 18.8896  13223.6  114.692
 18.9316  13350.6  115.078
 18.9736  13118  113.934
 19.0156  13040.5  113.984
 19.0576  13348.8  114.194
 19.0996  13356.4  114.934
 19.1416  13217.6  114.708
 19.1836  13224.8  114.366
 19.2256  13095.9  114.027
 19.2676  13161.6  114.39
 19.3096  13108.7  114.416
 19.3516  13329.6  115.129
 19.3936  13028.4  113.98
 19.4356  13273.5  114.853
 19.4776  13168.3  114.496
 19.5196  13068.7  113.921
 19.5616  13056.9  114.118
 19.6036  13025.4  113.488
 19.6456  12985.4  113.437
 19.6876  13114  113.644
 19.7296  13226.2  114.562
 19.7716  13182.3  114.411
 19.8136  13356.9  115.487
 19.8556  13375.8  115.077
 19.8976  13359.2  115.062
 19.9396  13407.4  114.87
 19.9816  13454.3  115.324
 20.0236  13613.1  116.181
 20.0656  13772.8  116.87
 20.1076  13950.2  118.067
 20.1496  13956.8  118.107
 20.1916  14248.5  118.808
 20.2336  14000.8  117.737
 20.2756  13656.2  116.702
 20.3176  13430.8  115.492
 20.3596  13314.1  114.988
 20.4016  13332.3  114.845
 20.4436  13079.2  114.325
 20.4856  13068.9  114.051
 20.5276  12928.4  113.904
 20.5696  12797.1  112.885
 20.6116  12759.7  112.888
 20.6536  12723  112.309
 20.6956  12750  112.489
 20.7376  12533.8  111.758
 20.7796  12577  111.64
 20.8216  12742.6  112.091
 20.8636  12587.7  111.757
 20.9056  12558.6  111.582
 20.9476  12521.7  111.256
 20.9896  12568.7  111.345
 21.0316  12540  111.125
 21.0736  12536.9  111.616
 21.1156  12361.7  110.993
 21.1576  12597  112.07
 21.1996  12458.2  111.445
 21.2416  12400.2  110.999
 21.2836  12419.9  111.079
 21.3256  12427.1  111.173
 21.3676  12433.3  110.757
 21.4096  12342.6  110.723
 21.4516  12315.7  110.419
 21.4936  12088.6  109.5
 21.5356  12292  110.52
 21.5776  12294.4  110.372
 21.6196  12190.4  109.946
 21.6616  12158.9  109.878
 21.7036  12257.4  110.088
 21.7456  12208.2  109.956
 21.7876  12145.6  109.437
 21.8296  12114.1  109.149
 21.8716  12209.8  109.789
 21.9136  12357.5  110.656
 21.9556  12171.6  109.508
 21.9976  12154.7  109.459
 22.0396  11976.3  108.9
 22.0816  12053.2  109.77
 22.1236  12169.9  109.754
 22.1656  11973.9  109.075
 22.2076  11889.7  108.126
 22.2496  11873.9  108.082
 22.2916  11771.3  107.503
 22.3336  11837.3  108.488
 22.3756  11803  108.079
 22.4176  11753.8  107.705
 22.4596  11566.5  107.418
 22.5016  11658.1  107.357
 22.5436  11912.7  108.407
 22.5856  12061.8  109.323
 22.6276  12287  110.463
 22.6696  11890.9  109.025
 22.7116  11915.8  108.661
 22.7536  11851.8  108.345
 22.7956  11955.3  107.967
 22.8376  11715.6  107.581
 22.8796  11792.6  107.74
 22.9216  11784.1  108.228
 22.9636  11895.8  107.915
 23.0056  11815  107.679
 23.0476  11667.9  107.559
 23.0896  12074.6  108.808
 23.1316  12032.1  109.042
 23.1736  11996.2  111.733
 23.2156  12354.7  110.711
 23.2576  12291.5  110.617
 23.2996  12112.1  109.608
 23.3416  12297.2  110.944
 23.3836  12215  109.821
 23.4256  12577.1  111.551
 23.4676  12264.2  109.859
 23.5096  12137.4  109.946
 23.5516  12079.7  108.991
 23.5936  12029.1  109.658
 23.6356  12326.3  110.67
 23.6776  12056.4  109.98
 23.7196  12127.9  109.766
 23.7616  12013.9  108.981
 23.8036  12309.4  110.342
 23.8456  11941.3  108.266
 23.8876  11978.5  108.762
 23.9296  11897.8  108.878
 23.9716  11836.8  107.824
 24.0136  11896.8  108.986
 24.0556  11918.5  108.8
 24.0976  11671.8  107.492
 24.1396  11615  109.8
 24.1816  11727.6  109.11
 24.2236  11651.2  108.038
 24.2656  11696.4  107.739
 24.3076  11652.4  107.803
 24.3496  11685.7  107.803
 24.3916  11626.9  107.614
 24.4336  11591.8  107.657
 24.4756  11495  107.083
 24.5176  11433  106.442
 24.5596  11508.5  107.09
 24.6016  11232.7  105.904
 24.6436  11332.4  105.838
 24.6856  11424.4  106.07
 24.7276  11168.1  105.198
 24.7696  11394.5  106.358
 24.8116  11173.1  105.512
 24.8536  11092  105.115
 24.8956  10998.4  104.404
 24.9376  11097.4  105.043
 24.9796  11003.2  104.719
 25.0216  10873  104.187
 25.0636  11021.6  104.569
 25.1056  10830  104.097
 25.1476  10800.7  105.82
 25.1896  10753.2  104.133
 25.2316  10702.2  103.063
 25.2736  10709  102.861
 25.3156  10754.1  103.147
 25.3576  10662.2  103.134
 25.3996  10668.1  103.144
 25.4416  10655.8  103.069
 25.4836  10544.3  102.945
 25.5256  10566.9  102.514
 25.5676  10682.1  102.812
 25.6096  10429.3  102.151
 25.6516  10610  102.578
 25.6936  10581.8  102.706
 25.7356  10442.5  102.17
 25.7776  10535.9  102.31
 25.8196  10444.6  102.022
 25.8616  10346.8  101.425
 25.9036  10512.8  101.756
 25.9456  10459.3  102.087
 25.9876  10484.4  102.109
 26.0296  10577.6  102.33
 26.0716  10438.1  101.972
 26.1136  10417.4  101.816
 26.1556  10455.5  101.313
 26.1976  10268.6  101.393
 26.2396  10341.8  101.178
 26.2816  10470  102.154
 26.3236  10377.6  101.777
 26.3656  10425  101.8
 26.4076  10446.2  102.114
 26.4496  10613.5  102.521
 26.4916  10828.3  103.455
 26.5336  10971.2  104.475
 26.5756  11046.5  104.718
 26.6176  10405.7  101.664
 26.6596  10417.5  102.017
 26.7016  10329.3  101.405
 26.7436  10423.4  101.917
 26.7856  10303.3  101.341
 26.8276  10244.6  101.014
 26.8696  10201.7  100.676
 26.9116  10194.4  100.572
 26.9536  10160.2  100.456
 26.9956  9993.16  99.6656
 27.0376  10057.4  100.189
 27.0796  10025.7  99.8146
 27.1216  10036.3  99.8726
 27.1636  9969.47  99.7059
 27.2056  9984.47  99.6777
 27.2476  9953.83  99.5202
 27.2896  9836.38  98.976
 27.3316  9901.61  99.0778
 27.3736  9785.83  98.7826
 27.4156  9968.63  99.5207
 27.4576  9849.93  99.1641
 27.4996  9925.63  99.133
 27.5416  9904.39  99.3342
 27.5836  9733.12  98.3193
 27.6256  9782.04  98.7503
 27.6676  9799.3  98.8378
 27.7096  9755.07  98.4877
 27.7516  9804.26  98.8419
 27.7936  10000.6  99.9934
 27.8356  9805.8  98.6593
 27.8776  9942.11  99.3826
 27.9196  9664.43  97.8631
 27.9616  9728.99  98.2837
 28.0036  9593.53  97.6493
 28.0456  9619.32  97.9276
 28.0876  9651.45  98.1681
 28.1296  9623.14  97.8641
 28.1716  9636.54  97.93
 28.2136  9629.45  97.8814
 28.2556  9577.91  97.714
 28.2976  9567.28  97.67
 28.3396  9482.38  97.0461
 28.3816  9579.82  97.5049
 28.4236  9454.9  97.0205
 28.4656  9415.48  96.8543
 28.5076  9487.65  96.8797
 28.5496  9536.11  97.3667
 28.5916  9486.91  96.9378
 28.6336  9445.01  97.0385
 28.6756  9571.9  96.9162
 28.7176  9411.44  96.6439
 28.7596  9382.56  96.3911
 28.8016  9364.43  96.4243
 28.8436  9333.24  96.4052
 28.8856  9418.23  96.6931
 28.9276  9366.86  96.66
 28.9696  9347.31  96.2352
 29.0116  9179.35  95.5304
 29.0536  9258.1  96.1652
 29.0956  9292.31  96.0534
 29.1376  9313.19  96.1332
 29.1796  9310.04  96.1552
 29.2216  9253.21  95.7113
 29.2636  9465.51  96.785
 29.3056  9281.89  95.717
 29.3476  9250.3  96.0749
 29.3896  9248.15  96.1779
 29.4316  9086.47  94.6989
 29.4736  9084.1  94.7489
 29.5156  9019.29  94.3338
 29.5576  8981.31  94.8446
 29.5996  9153.49  95.0281
 29.6416  8925.38  93.9519
 29.6836  8950.16  94.0152
 29.7256  9064.08  95.1604
 29.7676  8957.58  94.2701
 29.8096  9043.4  94.6668
 29.8516  8793.45  93.6717
 29.8936  8917.18  94.4161
 29.9356  8958.29  94.3954
 29.9776  8849.61  93.9684
 30.0196  8894.97  93.6125
 30.0616  8959.91  94.3233
 30.1036  9057.83  94.6672
 30.1456  8783.53  93.467
 30.1876  8890.2  94.1662
 30.2296  8836.35  93.6531
 30.2716  8976.69  94.0442
 30.3136  8874.29  94.0834
 30.3556  9040.19  95.1911
 30.3976  8963.9  96.2397
 30.4396  9318.49  95.512
 30.4816  9235.86  94.6968
 30.5236  9210.76  94.5563
 30.5656  9004.56  94.154
 30.6076  9083.84  94.3308
 30.6496  9200.57  94.9947
 30.6916  8904.09  93.5503
 30.7336  9155.84  94.9838
 30.7756  9022.92  94.6208
 30.8176  9072.58  94.5757
 30.8596  9185.09  94.9038
 30.9016  9168.7  94.6992
 30.9436  9166.1  94.9059
 30.9856  9210.77  95.2533
 31.0276  8992.81  93.766
 31.0696  9050.84  94.4696
 31.1116  8980.87  94.2299
 31.1536  8894.9  93.6607
 31.1956  8997.62  94.2877
 31.2376  8766.02  93.0853
 31.2796  9044.88  94.0907
 31.3216  8983.84  93.6872
 31.3636  8998.63  94.4721
 31.4056  8922.51  95.3437
 31.4476  8980.17  93.5992
 31.4896  8978.17  94.0767
 31.5316  8929.42  93.2833
 31.5736  9009.28  93.4939
 31.6156  8896.46  92.9114
 31.6576  8951.69  93.2747
 31.6996  9030.18  93.3525
 31.7416  8946.43  93.8474
 31.7836  9005.69  93.3199
 31.8256  8925.09  93.2335
 31.8676  9047.37  93.7919
 31.9096  8797.25  92.706
 31.9516  8715.61  92.5741
 31.9936  8690.35  92.401
 32.0356  8885.47  93.3309
 32.0776  8897.06  93.296
 32.1196  9019.11  93.9538
 32.1616  8929.1  93.0356
 32.2036  8824.61  92.9806
 32.2456  8695.22  92.6762
 32.2876  8712.12  92.1182
 32.3296  8690.06  92.1246
 32.3716  8498.62  91.2262
 32.4136  8643.33  92.2065
 32.4556  8666.66  91.7746
 32.4976  8763.79  92.1827
 32.5396  8673.98  91.7328
 32.5816  8639.95  91.5768
 32.6236  8641.81  91.748
 32.6656  8710.21  92.6558
 32.7076  8652.32  91.9976
 32.7496  8640.52  91.6215
 32.7916  8702.59  91.9047
 32.8336  8588.44  91.501
 32.8756  8762.71  92.1063
 32.9176  8460.32  90.9091
 32.9596  8504.81  91.2106
 33.0016  8379.49  90.3112
 33.0436  8579.68  91.576
 33.0856  8523.07  91.3561
 33.1276  8396.69  90.4181
 33.1696  8594.36  91.3097
 33.2116  8553.06  91.1235
 33.2536  8593.74  91.5059
 33.2956  8576.93  91.5153
 33.3376  8486.44  90.8338
 33.3796  8631.46  91.7679
 33.4216  8488.29  90.6395
 33.4636  8529.15  90.9708
 33.5056  8424.43  90.4999
 33.5476  8558.15  91.3328
 33.5896  8579.55  91.2321
 33.6316  8504.24  91.1418
 33.6736  8355.01  90.594
 33.7156  8386.81  90.7929
 33.7576  8566.87  91.4113
 33.7996  8433.86  90.4765
 33.8416  8161.96  89.1779
 33.8836  8334.43  89.9007
 33.9256  8497.1  90.8175
 33.9676  8463.79  90.545
 34.0096  8323.83  90.0862
 34.0516  8348.85  89.8851
 34.0936  8214.6  89.4194
 34.1356  8361.17  89.9537
 34.1776  8219.2  89.1837
 34.2196  8268.58  89.6343
 34.2616  8130.11  89.1405
 34.3036  8404.61  90.7267
 34.3456  8299.64  89.9305
 34.3876  8427.75  90.6863
 34.4296  8278.2  89.4993
 34.4716  8307.75  89.9541
 34.5136  8267.48  89.7602
 34.5556  8264.26  90.0184
 34.5976  8352.71  90.3183
 34.6396  8243.16  89.4232
 34.6816  8398.76  90.3588
 34.7236  8256.53  89.3855
 34.7656  8249.05  89.5481
 34.8076  8155.49  89.3591
 34.8496  8165.49  89.2725
 34.8916  8275.66  89.7342
 34.9336  8235.45  89.5044
 34.9756  8373.26  90.1764
 35.0176  8217.6  89.8391
 35.0596  8379.25  90.5316
 35.1016  8343.99  90.1108
 35.1436  8387.6  90.0349
 35.1856  8265.11  89.4872
 35.2276  8190.18  89.2714
 35.2696  8216.72  89.5943
 35.3116  8243.92  89.8705
 35.3536  8231.34  89.5013
 35.3956  8235.18  89.2213
 35.4376  8209.71  89.6355
 35.4796  8229.93  89.7881
 35.5216  8071.7  88.8169
 35.5636  8037.65  89.427
 35.6056  8016.39  88.3658
 35.6476  8240.01  89.4721
 35.6896  8196.11  89.408
 35.7316  8045.37  88.4803
 35.7736  7985.48  88.3277
 35.8156  8087.94  88.8932
 35.8576  8186.65  89.6845
 35.8996  8071.91  89.073
 35.9416  8017.42  88.2304
 35.9836  8008.37  88.6393
 36.0256  8253.99  89.8866
 36.0676  8346.5  89.9142
 36.1096  8041.27  88.6124
 36.1516  8130.66  89.0104
 36.1936  8175.89  89.068
 36.2356  8151.32  89.6099
 36.2776  8001.04  88.3969
 36.3196  7961.97  87.7336
 36.3616  8014.9  88.1461
 36.4036  8127.38  88.8287
 36.4456  8086.18  88.7623
 36.4876  7968.62  88.106
 36.5296  7937.25  87.9645
 36.5716  7986.51  88.9983
 36.6136  8011.19  87.9621
 36.6556  7819.9  87.0998
 36.6976  7704.45  86.9357
 36.7396  7799.98  87.2981
 36.7816  7798.45  87.5664
 36.8236  7751.26  87.223
 36.8656  7831.21  87.7361
 36.9076  7621.23  86.5635
 36.9496  7723.82  87.1598
 36.9916  7717.54  86.6172
 37.0336  7755.74  87.1377
 37.0756  7827.63  87.3377
 37.1176  7760.26  87.3114
 37.1596  7650.95  86.6063
 37.2016  7600.11  86.494
 37.2436  7706.4  86.4793
 37.2856  7550.83  85.8386
 37.3276  7775.56  86.4873
 37.3696  7708.83  86.9738
 37.4116  7584.28  86.1791
 37.4536  7707.49  86.7458
 37.4956  7563.69  85.9767
 37.5376  7953.93  89.7146
 37.5796  7715.36  88.2959
 37.6216  7622.59  86.07
 37.6636  7879.4  87.3884
 37.7056  7919.1  87.8052
 37.7476  7833.12  86.8639
 37.7896  7691.29  86.595
 37.8316  7678.78  86.6529
 37.8736  7709.73  86.3902
 37.9156  7743.23  86.5529
 37.9576  7741  86.616
 37.9996  7651  85.678
 38.0416  7594.02  86.1381
 38.0836  7814.55  87.2784
 38.1256  7657.37  86.3805
 38.1676  7553.18  85.9093
 38.2096  7747  86.6168
 38.2516  7904.96  87.6293
 38.2936  7793.19  86.8895
 38.3356  7668.88  86.1444
 38.3776  7589.07  85.9307
 38.4196  7601.29  85.8618
 38.4616  7622.06  86.2141
 38.5036  7885.55  87.5357
 38.5456  7653.39  87.0589
 38.5876  7554.91  86.5206
 38.6296  7646.29  86.0229
 38.6716  7774.25  86.5476
 38.7136  7636.11  85.7201
 38.7556  7648.82  86.2872
 38.7976  7736.56  86.6991
 38.8396  7585.3  86.3043
 38.8816  7517.1  85.7149
 38.9236  7686.27  86.4793
 38.9656  7663.71  86.2536
 39.0076  7752.38  86.1749
 39.0496  7670.98  86.2541
 39.0916  7852.69  86.9257
 39.1336  7752.95  86.7738
 39.1756  7612.55  86.0345
 39.2176  7571.66  86.3446
 39.2596  7738.58  87.2117
 39.3016  7732.38  86.7638
 39.3436  7645.6  86.6773
 39.3856  7757.27  86.7566
 39.4276  7896.68  88.0366
 39.4696  7780.15  87.0141
 39.5116  7666.19  86.8706
 39.5536  7633.31  87.1174
 39.5956  7562.57  85.8451
 39.6376  7703.97  86.4778
 39.6796  7619.66  85.92
 39.7216  7573.81  85.7579
 39.7636  7775.09  87.4353
 39.8056  7637.59  86.4529
 39.8476  7508.57  85.9719
 39.8896  7698.73  86.6792
 39.9316  7552.34  86.1043
 39.9736  7608.79  86.0069
 40.0156  7569.84  85.6214
 40.0576  7506.99  85.6073
 40.0996  7621.41  85.4503
 40.1416  7596.68  86.0978
 40.1836  7667.81  86.3853
 40.2256  7533.65  85.6579
 40.2676  7559.11  85.9777
 40.3096  7662.58  86.4315
 40.3516  7603.48  86.285
 40.3936  7749.06  86.5879
 40.4356  7601.94  85.9674
 40.4776  7752.53  87.0336
 40.5196  7696.88  87.0241
 40.5616  7763.7  87.0354
 40.6036  7577.99  86.2428
 40.6456  7549.12  85.7001
 40.6876  7824.48  87.2408
 40.7296  7564.84  85.9125
 40.7716  7619.43  86.336
 40.8136  7561.58  85.9614
 40.8556  7708.44  86.9026
 40.8976  7685.19  86.7128
 40.9396  7790.27  87.6349
 40.9816  7720.83  86.5464
 41.0236  7626.83  85.8235
 41.0656  7668.09  86.5766
 41.1076  7682.38  86.4408
 41.1496  7649.87  86.1594
 41.1916  7641.73  86.4178
 41.2336  7682.12  86.6414
 41.2756  7667.08  86.1753
 41.3176  7634.77  86.5716
 41.3596  7759.06  87.0355
 41.4016  7600.96  86.4017
 41.4436  7774.61  87.16
 41.4856  7582.52  86.2512
 41.5276  7591.15  86.3036
 41.5696  7603.2  85.9983
 41.6116  7678.17  86.8051
 41.6536  7690.81  86.744
 41.6956  7670.52  86.6241
 41.7376  7539.97  85.9754
 41.7796  7490.77  85.6367
 41.8216  7662.74  86.7845
 41.8636  7539.45  86.0445
 41.9056  7500.19  85.6067
 41.9476  7656.6  86.7298
 41.9896  7700.73  86.6365
 42.0316  7611.2  86.2284
 42.0736  7697.42  86.8458
 42.1156  7543.46  85.7807
 42.1576  7649.76  86.499
 42.1996  7809.62  87.5048
 42.2416  7619.46  86.0491
 42.2836  7607.98  86.0823
 42.3256  7630.71  86.324
 42.3676  7784.76  86.9861
 42.4096  7700.95  86.4949
 42.4516  7690.83  86.5019
 42.4936  7587.84  86.0112
 42.5356  7485.15  85.5701
 42.5776  7625.91  86.3042
 42.6196  7561.2  85.9155
 42.6616  7503.12  85.8249
 42.7036  7698.26  86.3196
 42.7456  7600.04  86.1092
 42.7876  7520.56  85.7529
 42.8296  7568.31  85.9184
 42.8716  7513.96  85.718
 42.9136  7486.5  85.3293
 42.9556  7626.61  86.2866
 42.9976  7540.7  85.7829
 43.0396  7543.47  85.5164
 43.0816  7471.52  85.4831
 43.1236  7473.63  85.5463
 43.1656  7542.98  85.7646
 43.2076  7507.83  85.6759
 43.2496  7581.73  85.9186
 43.2916  7395.07  85.2068
 43.3336  7573.23  86.0614
 43.3756  7553.64  85.7043
 43.4176  7502.82  85.4938
 43.4596  7391.03  84.7247
 43.5016  7525.01  85.8746
 43.5436  7490.6  85.5937
 43.5856  7424.16  85.2463
 43.6276  7406.34  85.035
 43.6696  7426.07  85.2923
 43.7116  7486.67  85.2532
 43.7536  7520.42  85.9268
 43.7956  7374.77  86.2832
 43.8376  7370.61  84.6573
 43.8796  7318.63  84.6071
 43.9216  7255.68  84.1635
 43.9636  7378.67  84.9767
 44.0056  7274.22  84.5944
 44.0476  7248.22  84.0881
 44.0896  7292.59  84.6794
 44.1316  7186.33  83.7395
 44.1736  7350.27  84.6671
 44.2156  7443.13  85.0583
 44.2576  7278.48  84.4281
 44.2996  7078.08  83.4199
 44.3416  7356.05  84.6197
 44.3836  7122.25  83.5846
 44.4256  7265.97  84.0691
 44.4676  7298.43  84.4064
 44.5096  7356.84  84.8911
 44.5516  7187.99  83.8775
 44.5936  7171.42  83.7342
 44.6356  7316.13  84.316
 44.6776  7263.68  84.3199
 44.7196  7193.43  84.1769
 44.7616  7250.12  85.8358
 44.8036  7424.32  85.4867
 44.8456  7424.01  85.4864
 44.8876  7385.79  85.1129
 44.9296  7497.24  85.2104
 44.9716  7404.09  85.0886
 45.0136  7428.87  85.1652
 45.0556  7443.36  85.3484
 45.0976  7297.62  84.5555
 45.1396  7287.33  84.2576
 45.1816  7317.43  84.204
 45.2236  7324.14  84.3153
 45.2656  7227.9  84.2511
 45.3076  7343.13  84.6963
 45.3496  7299.69  84.762
 45.3916  7197.96  84.4261
 45.4336  7325.18  85.0017
 45.4756  7326.1  84.8802
 45.5176  7446.82  85.1817
 45.5596  7399.96  85.0422
 45.6016  7266.05  84.6838
 45.6436  7311.29  84.13
 45.6856  7211.32  84.1903
 45.7276  7231.66  86.114
 45.7696  7225.77  85.2741
 45.8116  7282.67  85.0443
 45.8536  7234.18  84.6406
 45.8956  7305.27  84.4201
 45.9376  7369.93  84.2653
 45.9796  7345.42  84.803
 46.0216  7226.99  84.4532
 46.0636  7269.53  83.8552
 46.1056  7418.18  84.6988
 46.1476  7310.24  84.6648
 46.1896  7312.98  84.8204
 46.2316  7325.08  84.7555
 46.2736  7283.79  84.6713
 46.3156  7371.68  84.9976
 46.3576  7238.92  84.426
 46.3996  7153.09  84.0822
 46.4416  7292.33  84.4568
 46.4836  7164.3  84.0786
 46.5256  7321.95  84.9366
 46.5676  7239.25  84.5735
 46.6096  7219.43  84.3767
 46.6516  7122.18  82.8776
 46.6936  7342.26  84.6441
 46.7356  7352.17  84.7908
 46.7776  7133.74  84.3729
 46.8196  7139.19  84.1603
 46.8616  7099.77  83.7333
 46.9036  7192.72  83.9355
 46.9456  7161.83  83.3931
 46.9876  7243.13  83.9462
 47.0296  7175.84  84.2494
 47.0716  7000.27  83.0334
 47.1136  7174.98  83.7262
 47.1556  7246.34  84.025
 47.1976  7229.51  84.0329
 47.2396  7072.75  83.4793
 47.2816  7091.65  83.3068
 47.3236  7178.1  84.1744
 47.3656  7165.71  84.1171
 47.4076  7239.29  84.1961
 47.4496  7158.44  83.892
 47.4916  7160.39  84.081
 47.5336  7126.82  83.7056
 47.5756  7233.01  84.418
 47.6176  7007.27  83.0248
 47.6596  7163.08  83.6596
 47.7016  7228.74  83.8475
 47.7436  7249.29  84.2577
 47.7856  7270.71  84.4377
 47.8276  7219.78  84.2143
 47.8696  7140.61  83.8275
 47.9116  7195.68  83.8731
 47.9536  7206.48  83.882
 47.9956  7022.45  83.499
 48.0376  7056.32  83.478
 48.0796  7254.44  84.7556
 48.1216  7222.82  84.5162
 48.1636  7253.87  84.1443
 48.2056  7136.13  83.7333
 48.2476  7272.78  84.8299
 48.2896  7318.43  85.0126
 48.3316  7200.43  84.2715
 48.3736  7130.96  83.8838
 48.4156  7102.46  83.5783
 48.4576  7176.45  84.2957
 48.4996  7201.51  83.8799
 48.5416  7298.21  84.7675
 48.5836  7142.57  83.5579
 48.6256  7266.44  84.4739
 48.6676  7124.81  84.1707
 48.7096  7148.71  83.6062
 48.7516  7236.69  84.2451
 48.7936  7041.16  83.1678
 48.8356  7090.2  83.4991
 48.8776  7127.92  84.2105
 48.9196  7231.63  84.266
 48.9616  7168.5  84.2811
 49.0036  7108.33  84.2681
 49.0456  7030.99  83.7924
 49.0876  7059.08  83.6076
 49.1296  6957.96  83.0654
 49.1716  6950.39  82.9012
 49.2136  7217.43  84.3913
 49.2556  7093.4  83.6907
 49.2976  7133.7  83.9977
 49.3396  7107.88  83.8994
 49.3816  7188.36  83.7934
 49.4236  7185.03  84.2161
 49.4656  7006.33  83.1833
 49.5076  7106.87  83.5216
 49.5496  7074.82  83.2844
 49.5916  7188.34  83.9834
 49.6336  7151.77  83.9772
 49.6756  7124.13  84.0254
 49.7176  7058.24  83.5935
 49.7596  7094.28  83.7477
 49.8016  7136.03  83.7473
 49.8436  6996.76  83.222
 49.8856  6949.27  82.9398
 49.9276  7098.41  83.9252
 49.9696  7035.66  83.5322
 50.0116  7015.61  83.5482
 50.0536  7097.33  83.9742
 50.0956  7071.56  83.889
 50.1376  7052.76  83.4818
 50.1796  6959.17  83.1967
 50.2216  7072.08  83.8603
 50.2636  7080.39  83.522
 50.3056  7006.62  83.2704
 50.3476  6945.39  82.9161
 50.3896  6985.27  83.1338
 50.4316  7094.09  83.6093
 50.4736  6915.23  82.7674
 50.5156  6994.66  83.2429
 50.5576  7042.41  83.2675
 50.5996  6978.69  83.1777
 50.6416  6928.61  82.8027
 50.6836  6955.8  83.0279
 50.7256  7034.65  83.4106
 50.7676  7122.91  84.2033
 50.8096  6933.45  82.6667
 50.8516  7021.95  83.6244
 50.8936  6852.65  82.3927
 50.9356  6975.91  83.234
 50.9776  6932.19  83.1352
 51.0196  6839.96  82.7181
 51.0616  6859.53  82.163
 51.1036  6984.54  83.2693
 51.1456  6898.79  82.6679
 51.1876  6942.29  82.2618
 51.2296  6804.64  82.076
 51.2716  6819.07  81.8734
 51.3136  6825.79  82.3726
 51.3556  6740.66  81.4795
 51.3976  6812.28  82.0472
 51.4396  6723.77  81.8361
 51.4816  6754.74  81.8792
 51.5236  6846.45  82.52
 51.5656  6854.67  82.1622
 51.6076  6888.07  82.4456
 51.6496  6729.3  81.679
 51.6916  6734.94  82.1446
 51.7336  6750.56  82.2622
 51.7756  6868  82.657
 51.8176  6713.36  81.8295
 51.8596  6692.62  81.7288
 51.9016  6977.73  83.0453
 51.9436  6875.02  83.9204
 51.9856  6842.12  84.1147
 52.0276  6849.71  82.6566
 52.0696  6846  82.6923
 52.1116  6781.34  82.4446
 52.1536  6818.29  82.4906
 52.1956  6910.08  82.5675
 52.2376  6943.86  82.9229
 52.2796  6858.78  82.2375
 52.3216  6653.77  81.6689
 52.3636  6869.28  82.5481
 52.4056  6811.86  82.0769
 52.4476  6831.31  82.5381
 52.4896  6668.46  81.6085
 52.5316  6870.48  82.8829
 52.5736  6640.8  81.2256
 52.6156  6921.53  83.3065
 52.6576  6847.83  82.3095
 52.6996  6674.98  82.2443
 52.7416  6671.13  82.0776
 52.7836  6749.46  82.4432
 52.8256  6739.58  81.5906
 52.8676  6626.02  81.4774
 52.9096  6671.84  81.8252
 52.9516  6799.61  83.0056
 52.9936  6694.3  82.7247
 53.0356  6784.68  82.2778
 53.0776  6854.17  82.9891
 53.1196  6650.72  81.8595
 53.1616  6721.39  82.3299
 53.2036  6680.04  82.046
 53.2456  6767.41  82.6865
 53.2876  6672.95  81.7937
 53.3296  6831.11  83.0869
 53.3716  6726.45  82.271
 53.4136  6726.02  82.3468
 53.4556  6677.44  82.0805
 53.4976  6731.3  82.256
 53.5396  6657.85  82.2122
 53.5816  6701.3  82.1004
 53.6236  6602.78  81.8478
 53.6656  6831.18  82.836
 53.7076  6734.3  82.2267
 53.7496  6736.55  82.3567
 53.7916  6684.07  82.1795
 53.8336  6742.53  82.4394
 53.8756  6585.39  82.0069
 53.9176  6703.53  82.086
 53.9596  6366.3  80.7485
 54.0016  6434.12  80.5091
 54.0436  6400.64  80.5328
 54.0856  6481.12  80.4535
 54.1276  6461.69  80.5248
 54.1696  6534.64  81.1364
 54.2116  6548.56  80.9809
 54.2536  6434.28  80.0849
 54.2956  6465.09  80.3314
 54.3376  6378.75  80.266
 54.3796  6400.31  80.3059
 54.4216  6493.16  80.9518
 54.4636  6436.2  80.5438
 54.5056  6423.26  80.275
 54.5476  6357.7  80.2071
 54.5896  6326.24  79.856
 54.6316  6447.23  80.4604
 54.6736  6401.72  80.2091
 54.7156  6414.14  80.3538
 54.7576  6341.72  79.8729
 54.7996  6493.3  80.9894
 54.8416  6450.27  80.7659
 54.8836  6450.5  80.8454
 54.9256  6339.05  79.9269
 54.9676  6344.94  79.8233
 55.0096  6357.86  79.9315
 55.0516  6259.66  79.5046
 55.0936  6361.73  79.8611
 55.1356  6301.32  79.525
 55.1776  6455.84  80.7245
 55.2196  6441.29  80.4385
 55.2616  6528.47  81.1892
 55.3036  6218.97  79.4145
 55.3456  6129.61  78.9854
 55.3876  6327.05  79.9807
 55.4296  6213.54  79.2627
 55.4716  6340.68  80.0871
 55.5136  6337.68  79.8338
 55.5556  6474.16  80.7298
 55.5976  6270.55  79.536
 55.6396  6197.41  78.9332
 55.6816  6228.8  79.0853
 55.7236  6280.09  79.5775
 55.7656  6326.27  79.4797
 55.8076  6232.01  78.9025
 55.8496  6414.09  80.4389
 55.8916  6320.56  79.9212
 55.9336  6384.45  80.1896
 55.9756  6247.25  79.2253
 56.0176  6163.4  78.8355
 56.0596  6248.66  79.3809
 56.1016  6177.08  78.9639
 56.1436  6103.28  78.7024
 56.1856  6149.34  78.7612
 56.2276  6391.33  80.3127
 56.2696  6263.19  79.4991
 56.3116  6232.86  79.6881
 56.3536  6193.28  79.1123
 56.3956  6171.15  78.9519
 56.4376  6197.91  79.1623
 56.4796  6087  78.2836
 56.5216  6199.37  79.3613
 56.5636  6162.57  78.7151
 56.6056  6360.59  80.1909
 56.6476  6194.77  78.7636
 56.6896  6323.38  80.0377
 56.7316  6168.64  78.9671
 56.7736  6071.81  78.5461
 56.8156  6198.76  79.1557
 56.8576  6027.56  78.0238
 56.8996  6085.39  78.29
 56.9416  6015.7  78.0088
 56.9836  6172.03  78.6911
 57.0256  6162.06  78.9377
 57.0676  6204.42  79.3012
 57.1096  6139.29  78.7029
 57.1516  6050.26  78.1567
 57.1936  6124.21  78.4113
 57.2356  6006.11  77.9833
 57.2776  6186.97  79.1004
 57.3196  6068.21  78.6907
 57.3616  6033.89  77.9612
 57.4036  6111.94  78.5189
 57.4456  6152.51  78.7471
 57.4876  6137.2  78.533
 57.5296  5958.44  77.6024
 57.5716  6033.93  78.1907
 57.6136  5929.76  77.3636
 57.6556  6041.27  78.2061
 57.6976  6087.33  78.3385
 57.7396  5931.94  77.6806
 57.7816  5895.27  77.7958
 57.8236  5911.26  77.6959
 57.8656  5990.61  77.8759
 57.9076  5976.39  77.812
 57.9496  5951.12  77.9961
 57.9916  5965.9  77.5658
 58.0336  5898.06  77.4447
 58.0756  5997.01  77.6876
 58.1176  6083.76  78.2774
 58.1596  5923.93  77.8338
 58.2016  5816.08  76.3892
 58.2436  5809.58  76.7218
 58.2856  5790.46  76.5294
 58.3276  5698.36  76.276
 58.3696  5712.7  76.1316
 58.4116  5752.39  76.2661
 58.4536  5828.5  76.6559
 58.4956  5634  75.5408
 58.5376  5738.46  75.81
 58.5796  5720.3  76.1127
 58.6216  5798.84  76.4556
 58.6636  5715.28  76.1079
 58.7056  5768.97  76.3245
 58.7476  5774.58  76.7957
 58.7896  5617.47  75.4017
 58.8316  5796.13  76.5832
 58.8736  5730.92  76.164
 58.9156  5757.53  76.3832
 58.9576  5720.15  76.3412
 58.9996  5941.07  77.1753
 59.0416  5761.7  76.3463
 59.0836  5767.7  76.2957
 59.1256  5724.82  76.4089
 59.1676  5729.71  77.0399
 59.2096  5722.78  76.3196
 59.2516  5587.66  75.0102
 59.2936  5827.73  76.927
 59.3356  5834.11  76.8489
 59.3776  5779.44  76.6533
 59.4196  5637.76  75.6418
 59.4616  5631.54  75.4691
 59.5036  5672.41  75.7767
 59.5456  5913.99  77.0699
 59.5876  5640.14  75.4492
 59.6296  5587.59  75.1634
 59.6716  5591.17  75.2433
 59.7136  5775.75  76.4637
 59.7556  5697.51  76.0766
 59.7976  5779.85  76.372
 59.8396  5794.54  76.3655
 59.8816  5698.81  76.2584
 59.9236  5741.79  76.2015
 59.9656  5696.79  76.1552
 60.0076  5755.37  75.9186
 60.0496  5712.08  76.1225
 60.0916  5694.84  75.4425
 60.1336  5636.14  76.1227
 60.1756  5726.48  77.8837
 60.1996  0.0000000E+00  0.0000000E+00