File: docs/examples/opeando_xrd/IS17_D/Data/IS17_D/17_Db_f00096.xye
# /beamlines/bl04/projects/cycle2025-II/20250340211-lsimonelli/DATA/IS17_D/17_Db_f00096.xye : mythproc.py merge -s 0.006 -l 0.5 -f /beamlines/bl04/inhouse/ff/FlatField/ff_20Nov2024rod8mm60s_17keV.raw -b True -c true -o xye /beamlines/bl04/projects/cycle2025-II/20250340211-lsimonelli/DATA/IS17_D/17_Db_00096.dat
# IsMon = [6761741, 6766352, 6766607]  IsPos = [-1.4998, -2.4884, -3.4988]
# Wave = 0.4962  CalPath /beamlines/bl04/projects/cycle2025-II/20250340211-lsimonelli/DATA/Align/Si_Pos1_25keV_f00001.cal
# Date = 2025-09-24_20:27:27 Dt = 4.8000  Bin = 0.0060  <imon> = 6764900 +/- 2236 (Min/Max) 6761741 / 6766607
# icurr 250.7778  mocoIn 1.7108E-05  mocoOut 0.8029  i15 7.08854e+06  imon 6.7649e+06  i7 4.3333  iEMpd_timer 4.8000  iEMpd_1 3.4584E-08  iEMpd_2 7.8765E-08  iEMpd_3 1.7504E-08  iEMpd_4 4.7025E-08  iEMhp_timer 4.8000  iEMhp_1 4.8983E-06  iEMhp_2 -2.5822E-08  iEMhp_3 -2.5168E-08  iEMhp_4 -2.1634E-08
#      9776
 1.5856  45058.8  218.019
 1.6276  51079  228.144
 1.6696  57187.6  240.549
 1.7116  63800.1  254.573
 1.7536  71707.5  268.739
 1.7956  75821.3  277.03
 1.8376  72750.3  271.792
 1.8796  62938.1  250.943
 1.9216  51870.4  228.718
 1.9636  44736  211.537
 2.0056  41070.2  201.899
 2.0476  37816.2  195.859
 2.0896  36700.1  191.816
 2.1316  35744.1  188.391
 2.1736  33878.8  184.865
 2.2156  34779.1  185.802
 2.2576  33361  183.247
 2.2996  32177.9  180.017
 2.3416  32464.7  179.374
 2.3836  31910.1  177.945
 2.4256  31032.5  175.585
 2.4676  30529  174.371
 2.5096  30300  173.773
 2.5516  28779.7  173.202
 2.5936  28919.3  170.15
 2.6356  28241.4  168.851
 2.6776  28133.1  167.421
 2.7196  27871.6  167.138
 2.7616  27822.2  166.775
 2.8036  27148.5  164.91
 2.8456  27253  165.873
 2.8876  26563.3  163.617
 2.9296  26292  162.917
 2.9716  25987.7  161.455
 3.0136  25797.4  160.924
 3.0556  25853.1  161.5
 3.0976  25883.1  160.494
 3.1396  25528.1  160.128
 3.1816  25039.8  158.521
 3.2236  24865  157.959
 3.2656  24830  156.874
 3.3076  24778.3  158.203
 3.3496  24948.4  157.644
 3.3916  25187.3  158.228
 3.4336  25697.8  160.422
 3.4756  26159.5  161.802
 3.5176  26652.8  163.073
 3.5596  26452.5  164.924
 3.6016  26332.1  162.153
 3.6436  25580.4  160.931
 3.6856  25237  158.145
 3.7276  24141  155.754
 3.7696  24105  155.827
 3.8116  23813.2  154.776
 3.8536  23797  154.659
 3.8956  23832.3  154.591
 3.9376  23785.1  154.713
 3.9796  23572.4  153.495
 4.0216  23530.2  152.383
 4.0636  23561.2  153.967
 4.1056  23410.8  153.128
 4.1476  23910.9  155.086
 4.1896  23790.5  154.525
 4.2316  23942  154.863
 4.2736  24377.3  156.055
 4.3156  24631.9  157.095
 4.3576  25604  160.071
 4.3996  25557.2  160.193
 4.4416  26175.4  161.712
 4.4836  26554.9  163.035
 4.5256  27257.3  165.804
 4.5676  27070.6  165.483
 4.6096  27643.7  165.877
 4.6516  28029.3  166.718
 4.6936  27857.3  167.035
 4.7356  28297.2  168.176
 4.7776  28010  167.137
 4.8196  27647.4  166.822
 4.8616  27422.6  165.516
 4.9036  27165.9  164.478
 4.9456  27171.6  165.155
 4.9876  26187.7  162.032
 5.0296  26620.3  163.202
 5.0716  26365.2  163.167
 5.1136  26787.6  164.194
 5.1556  26775.7  163.611
 5.1976  27756.3  166.587
 5.2396  27439.4  165.313
 5.2816  27652.5  166.439
 5.3236  27365.7  165.26
 5.3656  27192.7  165.675
 5.4076  26906.3  164.935
 5.4496  26803.2  164.112
 5.4916  27119  164.828
 5.5336  26846.9  164.005
 5.5756  27064.3  164.694
 5.6176  27120.7  164.306
 5.6596  27305.8  165.857
 5.7016  27336.1  165.2
 5.7436  27441.8  165.799
 5.7856  27285.9  165.397
 5.8276  27589.1  166.019
 5.8696  27851.6  166.986
 5.9116  27619.5  166.892
 5.9536  27888.5  167.45
 5.9956  28159.6  167.643
 6.0376  28514  169.306
 6.0796  28372  168.727
 6.1216  28295.4  168.693
 6.1636  28712.6  168.995
 6.2056  28485.5  168.992
 6.2476  28770.5  169.714
 6.2896  29041.4  170.183
 6.3316  29086.2  170.496
 6.3736  28931.3  169.918
 6.4156  29273.5  170.823
 6.4576  29174.9  170.151
 6.4996  29204.8  170.712
 6.5416  29343.2  171.247
 6.5836  29154.3  170.931
 6.6256  29499.5  171.499
 6.6676  29907.3  172.245
 6.7096  30059.4  173.558
 6.7516  30223.6  173.681
 6.7936  30444.6  173.715
 6.8356  30544.4  174.098
 6.8776  30671.4  175.252
 6.9196  30641.4  175.577
 6.9616  31135.1  176.421
 7.0036  31319.8  176.603
 7.0456  31554.3  176.561
 7.0876  31461  177.984
 7.1296  31476.1  177.158
 7.1716  31409  176.522
 7.2136  31137.6  175.528
 7.2556  31362.2  176.321
 7.2976  31375.7  176.837
 7.3396  31356.6  177.016
 7.3816  31446.5  177.485
 7.4236  31597.2  177.205
 7.4656  31781.2  177.194
 7.5076  31912.7  177.707
 7.5496  31524.6  177.147
 7.5916  32060.7  178.697
 7.6336  32029  178.313
 7.6756  32331.2  179.176
 7.7176  32977.9  181.299
 7.7596  32544.6  181.315
 7.8016  33262.5  185.546
 7.8436  32995.4  181.446
 7.8856  32890.6  180.766
 7.9276  33645.7  183.228
 7.9696  33674.5  183.608
 8.0116  34856.6  185.364
 8.0536  34780.3  185.405
 8.0956  34839.2  186.732
 8.1376  35294  187.423
 8.1796  35471.2  188.422
 8.2216  36142.3  188.956
 8.2636  36359.2  189.767
 8.3056  36215.1  190.153
 8.3476  36888.9  191.244
 8.3896  36406.6  190.069
 8.4316  36885.9  191.482
 8.4736  36638.4  190.316
 8.5156  36446  190.087
 8.5576  36058.7  190.026
 8.5996  36142.7  189.143
 8.6416  36123.1  190.334
 8.6836  35670.2  188.975
 8.7256  36299.2  190.089
 8.7676  36099.2  192.461
 8.8096  36491.1  190.837
 8.8516  36312.4  189.941
 8.8936  35867.2  188.73
 8.9356  36265.7  190.11
 8.9776  36243.2  190.125
 9.0196  36091.1  189.406
 9.0616  35809.5  188.164
 9.1036  35834.5  189.486
 9.1456  35240.6  187.142
 9.1876  35550.2  187.916
 9.2296  35423  187.015
 9.2716  34898.2  185.672
 9.3136  34789.5  185.374
 9.3556  35103.9  186.188
 9.3976  34252.4  184.442
 9.4396  34392.3  184.712
 9.4816  34203.4  184.08
 9.5236  33873.3  183.071
 9.5656  33659.8  182.85
 9.6076  32993.5  181.536
 9.6496  33281.7  182.225
 9.6916  32723.3  180.626
 9.7336  33590.1  182.802
 9.7756  32891.7  182.136
 9.8176  32848.1  181.54
 9.8596  32498.7  179.03
 9.9016  32220.6  178.242
 9.9436  32165.9  178.017
 9.9856  31795  177.26
 10.0276  31213.8  176.695
 10.0696  31541.6  176.652
 10.1116  30655.6  174.426
 10.1536  30558.4  174.299
 10.1956  30210.3  172.919
 10.2376  30133.1  172.224
 10.2796  30021  171.991
 10.3216  29473.7  170.712
 10.3636  29594.7  171.09
 10.4056  28815.7  169.214
 10.4476  29071.4  169.585
 10.4896  29155.2  169.273
 10.5316  28582.8  168.332
 10.5736  28358.7  168.072
 10.6156  28622.1  168.617
 10.6576  28478.6  166.754
 10.6996  28004.9  166.473
 10.7416  27667.7  165.273
 10.7836  27231.2  164.604
 10.8256  26882.3  163.975
 10.8676  26990.2  163.852
 10.9096  26550.5  162.592
 10.9516  26571.1  161.554
 10.9936  26724.6  162.241
 11.0356  26337.6  161.662
 11.0776  26188.3  160.545
 11.1196  25635.9  159.594
 11.1616  25683.4  159.412
 11.2036  25817.6  159.683
 11.2456  25639.3  159.823
 11.2876  25894.3  160.363
 11.3296  25222.5  158.173
 11.3716  25782.2  159.606
 11.4136  25590  159.887
 11.4556  25656.2  159.753
 11.4976  25926.2  159.595
 11.5396  26316.7  160.96
 11.5816  26702.6  162.58
 11.6236  26238  161.388
 11.6656  26076.5  160.054
 11.7076  25289.5  158.427
 11.7496  24749.2  160.714
 11.7916  24739.6  155.975
 11.8336  24263.4  155.334
 11.8756  24081.4  154.319
 11.9176  24272  154.594
 11.9596  24193.5  154.529
 12.0016  23926.4  154.428
 12.0436  24155.2  154.622
 12.0856  23741.7  153.783
 12.1276  23744.6  153.739
 12.1696  23711.8  152.76
 12.2116  23669.8  152.617
 12.2536  23571.2  153.118
 12.2956  23416  151.955
 12.3376  23673.6  153.01
 12.3796  23670.4  153.473
 12.4216  23476.3  152.044
 12.4636  23121.3  151.809
 12.5056  23379  151.927
 12.5476  23710.9  152.52
 12.5896  23392.2  152.126
 12.6316  23587.5  152.918
 12.6736  23185.8  152.089
 12.7156  23393.2  152.619
 12.7576  23223.3  152.303
 12.7996  23348.5  151.358
 12.8416  23207.9  151.953
 12.8836  23475.2  152.651
 12.9256  23900.9  153.074
 12.9676  23836.5  153.258
 13.0096  23966.2  154.802
 13.0516  23898.9  153.619
 13.0936  24015.6  154.402
 13.1356  24520.8  154.969
 13.1776  23857.9  153.871
 13.2196  24159.3  154.477
 13.2616  23750.5  153.478
 13.3036  24111.9  154.611
 13.3456  23809.7  153.984
 13.3876  24233.6  154.646
 13.4296  24056.3  154.227
 13.4716  24306  154.746
 13.5136  23974.7  153.717
 13.5556  24052.2  154.594
 13.5976  24163.1  155.123
 13.6396  24181.3  154.533
 13.6816  24174.6  154.982
 13.7236  24621.4  156.005
 13.7656  25895.6  160.407
 13.8076  26780.1  161.8
 13.8496  26173.3  160.637
 13.8916  24522.8  156.627
 13.9336  23778.2  153.49
 13.9756  23828.2  153.04
 14.0176  23342.2  152.14
 14.0596  23557.6  152.751
 14.1016  23294.9  152.339
 14.1436  23528.9  152.245
 14.1856  23037.1  150.933
 14.2276  22990.1  151.256
 14.2696  22807.2  150.509
 14.3116  22353.4  148.908
 14.3536  22186.8  148.509
 14.3956  22150.8  148.12
 14.4376  22296.5  148.397
 14.4796  22240.6  148.207
 14.5216  21796.3  147.505
 14.5636  21563.9  146.291
 14.6056  21965.2  147.208
 14.6476  21789.9  145.858
 14.6896  21392.2  145.07
 14.7316  21081.1  145.04
 14.7736  21095.5  144.143
 14.8156  20764.8  143.113
 14.8576  20902.1  143.455
 14.8996  20381  142.826
 14.9416  20138.1  141.994
 14.9836  20014.7  141.542
 15.0256  19351  138.093
 15.0676  19401.7  138.583
 15.1096  19401.4  138.322
 15.1516  19025.1  137.52
 15.1936  19085.1  137.176
 15.2356  18748  136.232
 15.2776  18791.9  135.984
 15.3196  18354.6  135.372
 15.3616  18243.7  134.724
 15.4036  18201.1  134.429
 15.4456  18629  135.652
 15.4876  18147.7  133.578
 15.5296  18034.8  133.441
 15.5716  17773.8  132.084
 15.6136  17734.6  132.26
 15.6556  17734.3  131.51
 15.6976  17465.8  130.801
 15.7396  17221.3  130.253
 15.7816  17441.1  130.611
 15.8236  17022.7  129.711
 15.8656  17336.6  130.697
 15.9076  16805.1  128.505
 15.9496  17487.1  133.177
 15.9916  17559.5  134.562
 16.0336  17717.3  132.038
 16.0756  17289.5  130.749
 16.1176  17180.8  130.424
 16.1596  16655.6  129.573
 16.2016  16677.9  128.428
 16.2436  16658.2  128.732
 16.2856  16738.2  128.539
 16.3276  16491.3  128.036
 16.3696  16774  128.964
 16.4116  16421.9  128.028
 16.4536  16566.3  128.413
 16.4956  16679.9  128.593
 16.5376  16180.1  126.822
 16.5796  16245  126.454
 16.6216  16175.1  126.438
 16.6636  16035.9  126.093
 16.7056  16380.2  127.298
 16.7476  16355  126.731
 16.7896  16142.5  126.653
 16.8316  16179.3  126.764
 16.8736  16087.8  126.422
 16.9156  16210.6  127.469
 16.9576  16027.6  127.533
 16.9996  15892.5  127.463
 17.0416  16236.2  127.137
 17.0836  16277.5  127.144
 17.1256  16082.5  126.386
 17.1676  15917.9  125.693
 17.2096  15900.6  125.53
 17.2516  15863.2  125.177
 17.2936  15789.5  125.229
 17.3356  15746.7  125.055
 17.3776  15390.1  123.808
 17.4196  15315.1  123.191
 17.4616  15364.2  123.316
 17.5036  14890.5  121.747
 17.5456  14979.2  122.747
 17.5876  15085.6  122.232
 17.6296  15084.8  122.064
 17.6716  14888.2  121.841
 17.7136  14855.6  121.836
 17.7556  14747.4  121.68
 17.7976  14963.1  122.302
 17.8396  14688.9  120.682
 17.8816  14537  120.606
 17.9236  14754.9  121.316
 17.9656  14440.7  120.521
 18.0076  14550.2  120.571
 18.0496  14565.3  119.773
 18.0916  14473.2  119.938
 18.1336  14334.6  119.459
 18.1756  14594.1  120.087
 18.2176  14230.8  118.787
 18.2596  14243.1  118.565
 18.3016  14621.9  120.399
 18.3436  14384  119.42
 18.3856  14421.6  119.717
 18.4276  14481.2  119.64
 18.4696  14213.4  118.61
 18.5116  14230.7  118.963
 18.5536  14115.3  118.837
 18.5956  14030  118.042
 18.6376  13922  117.975
 18.6796  13900  117.208
 18.7216  13958.9  117.941
 18.7636  14038.2  118.294
 18.8056  14016.2  118.121
 18.8476  13808.1  117.852
 18.8896  13789  117.125
 18.9316  13977.7  117.9
 18.9736  13904  117.293
 19.0156  13723.9  116.938
 19.0576  13977.8  116.866
 19.0996  14009.5  117.712
 19.1416  13980.9  117.991
 19.1836  13636.8  116.138
 19.2256  13637.5  116.361
 19.2676  13798  117.12
 19.3096  13686.3  116.889
 19.3516  13739.5  117.086
 19.3936  13683.3  116.731
 19.4356  13888.1  117.496
 19.4776  13649.6  116.568
 19.5196  13819.4  117.148
 19.5616  13672.9  116.779
 19.6036  13520.9  115.629
 19.6456  13627  116.205
 19.6876  13631.4  115.855
 19.7296  13831.2  117.172
 19.7716  13515  115.982
 19.8136  13856.8  117.648
 19.8556  13992.7  117.701
 19.8976  13776.9  116.846
 19.9396  14067.3  117.659
 19.9816  14100  118.043
 20.0236  14396.2  119.471
 20.0656  14425.3  119.588
 20.1076  14578.4  120.72
 20.1496  14357.3  119.789
 20.1916  14258.1  118.895
 20.2336  13960.5  117.57
 20.2756  13641.6  116.646
 20.3176  13495.1  115.757
 20.3596  13422.5  115.437
 20.4016  13507.8  115.609
 20.4436  13124.6  114.502
 20.4856  13292.2  115.037
 20.5276  13077.8  114.559
 20.5696  13389.4  115.363
 20.6116  13110.2  114.432
 20.6536  13228.4  114.459
 20.6956  13012.9  113.65
 20.7376  12894.7  113.346
 20.7796  12996.3  113.485
 20.8216  13079.2  113.557
 20.8636  13068.4  113.891
 20.9056  12885.7  113.023
 20.9476  12927.1  113.055
 20.9896  13052  113.461
 21.0316  12922  112.79
 21.0736  12865.7  113.069
 21.1156  12784.4  112.867
 21.1576  12854.2  113.208
 21.1996  12729.8  112.652
 21.2416  12842.7  113.153
 21.2836  12762.1  112.599
 21.3256  12892.2  113.244
 21.3676  12797  112.354
 21.4096  12655.3  112.058
 21.4516  12505.9  111.267
 21.4936  12430.4  111.195
 21.5356  12826.6  112.902
 21.5776  12589.8  111.691
 21.6196  12580.9  111.683
 21.6616  12699.6  112.296
 21.7036  12470.6  111.194
 21.7456  12604.4  111.718
 21.7876  12472.1  110.898
 21.8296  12595.6  111.285
 21.8716  12584.1  111.466
 21.9136  12648.5  111.957
 21.9556  12442.6  110.717
 21.9976  12481.6  110.923
 22.0396  12434.7  110.965
 22.0816  12366  111.174
 22.1236  12579.3  111.595
 22.1656  12514.2  111.449
 22.2076  12347.8  110.16
 22.2496  12321.3  110.066
 22.2916  12053.5  108.753
 22.3336  12170.9  109.988
 22.3756  12265.2  110.14
 22.4176  12009.2  108.838
 22.4596  12042.7  109.571
 22.5016  12076.1  109.235
 22.5436  12256.5  109.925
 22.5856  12468.8  111.119
 22.6276  12467.1  111.235
 22.6696  12284.6  110.78
 22.7116  12190  109.868
 22.7536  12068.4  109.294
 22.7956  12154.6  109.029
 22.8376  12074.5  109.181
 22.8796  12111.4  109.151
 22.9216  12239.6  110.267
 22.9636  12043.6  108.552
 23.0056  12017.6  108.564
 23.0476  12152.2  109.729
 23.0896  12583.9  111.044
 23.1316  12249  109.987
 23.1736  12429.9  113.734
 23.2156  12644.7  112.089
 23.2576  12811.6  112.864
 23.2996  12405.5  110.925
 23.3416  12661.5  112.611
 23.3836  12552  111.346
 23.4256  12623.7  111.794
 23.4676  12574  111.262
 23.5096  12542.9  111.782
 23.5516  12500.5  110.892
 23.5936  12549.5  112.02
 23.6356  12493.6  111.434
 23.6776  12417  111.3
 23.7196  12340.5  110.538
 23.7616  12348.3  110.488
 23.8036  12600  111.672
 23.8456  12264.6  109.718
 23.8876  12327.3  110.366
 23.9296  12063.9  109.66
 23.9716  12342.2  110.122
 24.0136  12356.7  111.09
 24.0556  12113.6  109.705
 24.0976  12003.2  109.028
 24.1396  11869.6  111.008
 24.1816  12074.5  110.756
 24.2236  12226.1  110.697
 24.2656  12031.5  109.288
 24.3076  11919.7  109.048
 24.3496  12034.8  109.313
 24.3916  11919.1  108.981
 24.4336  11913.9  109.15
 24.4756  11877.2  108.865
 24.5176  11719.9  107.774
 24.5596  11685.8  107.729
 24.6016  11572.4  107.517
 24.6436  11754  107.869
 24.6856  11646.5  107.103
 24.7276  11679.6  107.533
 24.7696  11433.1  106.536
 24.8116  11314.3  106.176
 24.8536  11346.8  106.334
 24.8956  11441  106.503
 24.9376  11383.5  106.171
 24.9796  11318.6  106.228
 25.0216  11213.5  105.849
 25.0636  11246.3  105.654
 25.1056  11132.3  105.843
 25.1476  11174.1  107.63
 25.1896  11112.4  105.853
 25.2316  11014.1  104.661
 25.2736  10973.3  104.121
 25.3156  10796  103.458
 25.3576  11001.5  104.762
 25.3996  11089.8  105.175
 25.4416  11032  104.872
 25.4836  10882  104.672
 25.5256  10868.8  103.975
 25.5676  10887  103.791
 25.6096  10779.4  103.854
 25.6516  10779  103.355
 25.6936  10936.7  104.43
 25.7356  10905.7  104.414
 25.7776  10879.5  103.89
 25.8196  10666.7  103.106
 25.8616  10670.5  103.051
 25.9036  10814.3  103.203
 25.9456  10775.8  103.613
 25.9876  10749.9  103.552
 26.0296  10784.6  103.235
 26.0716  10706.1  103.29
 26.1136  10744.5  103.41
 26.1556  10881  103.44
 26.1976  10698.1  103.492
 26.2396  10513.2  101.757
 26.2816  10745.6  103.477
 26.3236  10672.3  103.281
 26.3656  10775.6  103.515
 26.4076  10588.5  102.804
 26.4496  10815.9  103.5
 26.4916  10980.9  104.178
 26.5336  11252.7  105.81
 26.5756  11436.1  106.548
 26.6176  10865  103.861
 26.6596  10743  103.594
 26.7016  10641.2  102.859
 26.7436  10677.1  103.169
 26.7856  10538.1  102.485
 26.8276  10641.4  102.959
 26.8696  10681  103.011
 26.9116  10483.5  101.99
 26.9536  10470.9  101.977
 26.9956  10268.8  101.023
 27.0376  10419.5  101.817
 27.0796  10287.7  101.063
 27.1216  10291  101.153
 27.1636  10155.3  100.64
 27.2056  10290.5  101.194
 27.2476  10285  101.146
 27.2896  10058.3  100.146
 27.3316  10188.4  100.512
 27.3736  10039.4  100.037
 27.4156  10229.4  100.823
 27.4576  10124.7  100.528
 27.4996  10196.6  100.497
 27.5416  10153.2  100.585
 27.5836  10147.8  100.397
 27.6256  10060.4  100.14
 27.6676  10083.7  100.248
 27.7096  10041.7  99.9215
 27.7516  9994.77  99.8296
 27.7936  10295.3  101.481
 27.8356  10118.8  100.215
 27.8776  10341.7  101.37
 27.9196  9960.17  99.3439
 27.9616  10077.7  100.131
 28.0036  10005.1  99.7213
 28.0456  9921.61  99.4421
 28.0876  9960.88  99.7345
 28.1296  9904.39  99.281
 28.1716  9836.86  99.0691
 28.2136  9951.94  99.5082
 28.2556  9926.48  99.4939
 28.2976  9612.92  97.9048
 28.3396  9855.51  98.9326
 28.3816  9714.98  98.192
 28.4236  9734.56  98.4348
 28.4656  9634.94  97.9774
 28.5076  9736.34  98.129
 28.5496  9774.03  98.5757
 28.5916  9804.62  98.5435
 28.6336  9734.26  98.5359
 28.6756  9799.77  98.0697
 28.7176  9680.26  98.0152
 28.7596  9605.19  97.524
 28.8016  9736.89  98.1418
 28.8436  9574.55  97.6462
 28.8856  9702.02  98.1474
 28.9276  9594.71  97.842
 28.9696  9667.53  97.8734
 29.0116  9421.75  96.8051
 29.0536  9446.16  97.1366
 29.0956  9474  97.031
 29.1376  9557.22  97.3765
 29.1796  9529.95  97.2889
 29.2216  9474.45  96.8487
 29.2636  9568.47  97.3953
 29.3056  9497.39  96.8071
 29.3476  9486.03  97.2868
 29.3896  9486.66  97.3988
 29.4316  9378.3  96.1765
 29.4736  9239.04  95.5231
 29.5156  9303.05  95.7767
 29.5576  9305.25  96.515
 29.5996  9172.12  95.097
 29.6416  9251.1  95.62
 29.6836  9236.39  95.477
 29.7256  9291.94  96.3178
 29.7676  9224.86  95.6371
 29.8096  9287.61  95.9074
 29.8516  9064.76  95.0701
 29.8936  9232.49  96.0404
 29.9356  9319.34  96.2494
 29.9776  9203.43  95.7996
 30.0196  9193.18  95.136
 30.0616  9140.17  95.2367
 30.1036  9211.48  95.4329
 30.1456  9245.04  95.8361
 30.1876  9151.78  95.3345
 30.2296  9089.23  94.9504
 30.2716  9241.34  95.3903
 30.3136  9190.92  95.9746
 30.3556  9489.97  97.5383
 30.3976  9278.79  97.9505
 30.4396  9626.85  97.0933
 30.4816  9426.09  95.6891
 30.5236  9497.17  96.0347
 30.5656  9259.98  95.4917
 30.6076  9325.9  95.2389
 30.6496  9281.66  95.4214
 30.6916  9156.19  94.8701
 30.7336  9223.67  95.3429
 30.7756  9232.95  95.4849
 30.8176  9251.49  95.4953
 30.8596  9283.12  95.424
 30.9016  9423.62  96.5035
 30.9436  9332.47  95.7838
 30.9856  9493.61  96.7314
 31.0276  9214.76  94.9289
 31.0696  9267.56  95.7565
 31.1116  9246.92  95.6117
 31.1536  9232.83  95.4184
 31.1956  9246.45  95.5711
 31.2376  9004.1  94.3444
 31.2796  9157.86  94.6877
 31.3216  9288.28  95.2626
 31.3636  9115.98  95.2791
 31.4056  9174.22  96.6981
 31.4476  9293.9  95.2376
 31.4896  9273.88  95.6274
 31.5316  9143.77  94.1089
 31.5736  9386.74  95.4481
 31.6156  9251.42  94.7616
 31.6576  9351.9  95.3589
 31.6996  9301.92  94.7731
 31.7416  9119.31  94.911
 31.7836  9223.02  94.4439
 31.8256  9200.67  94.6086
 31.8676  9300.11  95.0964
 31.9096  9109.3  94.4934
 31.9516  8996.46  94.0723
 31.9936  9005.15  93.9368
 32.0356  8998.54  93.9632
 32.0776  9098.98  94.3688
 32.1196  9113.52  94.5563
 32.1616  9200.81  94.4591
 32.2036  9111.62  94.5131
 32.2456  9072.73  94.6791
 32.2876  9157.58  94.7444
 32.3296  8973.4  93.6324
 32.3716  8854.79  93.1159
 32.4136  8795.29  93.0004
 32.4556  8993.11  93.4278
 32.4976  8880.84  92.7583
 32.5396  8869.3  92.7598
 32.5816  8906.87  93.0857
 32.6236  8936.47  93.3002
 32.6656  8970.75  94.0195
 32.7076  8784.24  92.6998
 32.7496  8687.02  91.8513
 32.7916  8934.84  93.1211
 32.8336  8788.75  92.4448
 32.8756  8891.37  92.7125
 32.9176  8719.46  92.2875
 32.9596  8699.97  92.2534
 33.0016  8803.17  92.5636
 33.0436  8811.63  92.7808
 33.0856  8762.87  92.6298
 33.1276  8568.99  91.3325
 33.1696  8796.26  92.3606
 33.2116  8818.83  92.7206
 33.2536  8874.45  93.0036
 33.2956  8787.42  92.6314
 33.3376  8654.29  91.6733
 33.3796  8713.29  92.2
 33.4216  8722.14  91.8454
 33.4636  8745.22  92.1143
 33.5056  8649.07  91.8487
 33.5476  8660.5  91.9595
 33.5896  8778.77  92.3085
 33.6316  8713.31  92.2716
 33.6736  8555.23  91.6744
 33.7156  8642.39  92.1708
 33.7576  8659.78  91.9098
 33.7996  8749.46  92.1425
 33.8416  8526.92  91.1497
 33.8836  8571.92  91.167
 33.9256  8643.95  91.6079
 33.9676  8703.8  91.8232
 34.0096  8585.88  91.506
 34.0516  8532.27  90.8618
 34.0936  8557.05  91.264
 34.1356  8583.07  91.1453
 34.1776  8406.44  90.2002
 34.2196  8459.91  90.6624
 34.2616  8399.69  90.4743
 34.3036  8521.51  91.3851
 34.3456  8489.27  90.9647
 34.3876  8526.94  91.14
 34.4296  8497.84  90.6705
 34.4716  8541.29  91.05
 34.5136  8536.36  91.2094
 34.5556  8414.03  90.8119
 34.5976  8432.76  90.7265
 34.6396  8380.59  90.1651
 34.6816  8492.56  90.8778
 34.7236  8494.9  90.6624
 34.7656  8433.93  90.5722
 34.8076  8434.81  90.8782
 34.8496  8302.38  90.0053
 34.8916  8473.43  90.8039
 34.9336  8492.81  90.8781
 34.9756  8476.47  90.7173
 35.0176  8512.55  91.4384
 35.0596  8546.8  91.4452
 35.1016  8537.57  91.1433
 35.1436  8672.9  91.5509
 35.1856  8538.3  90.9556
 35.2276  8440.29  90.6097
 35.2696  8474.76  90.9831
 35.3116  8385.58  90.6066
 35.3536  8302.09  89.8666
 35.3956  8301.34  89.577
 35.4376  8311.22  90.1974
 35.4796  8358.85  90.4872
 35.5216  8267.89  89.9677
 35.5636  8115.65  89.8528
 35.6056  8225.56  89.4903
 35.6476  8275.78  89.6613
 35.6896  8339.87  90.1024
 35.7316  8226.15  89.4691
 35.7736  8237.47  89.716
 35.8156  8268.86  89.8808
 35.8576  8324.93  90.4424
 35.8996  8340.35  90.4896
 35.9416  8377.51  90.203
 35.9836  8338.42  90.3286
 36.0256  8491.85  91.1687
 36.0676  8438.33  90.6374
 36.1096  8287.68  89.9726
 36.1516  8392.69  90.421
 36.1936  8388.82  90.241
 36.2356  8264.02  90.2257
 36.2776  8255.43  89.6585
 36.3196  8217.12  89.1082
 36.3616  8229.05  89.3123
 36.4036  8244.04  89.4606
 36.4456  8305.37  90.0064
 36.4876  8097.11  88.8053
 36.5296  8309.38  90.0377
 36.5716  8213.08  90.2544
 36.6136  8131.24  88.5936
 36.6556  8114.2  88.6965
 36.6976  7895.02  87.9766
 36.7396  7956.54  88.0554
 36.7816  7894.97  88.0801
 36.8236  7976.7  88.4577
 36.8656  8042.99  88.8949
 36.9076  7951.92  88.2695
 36.9496  7833.36  87.5992
 36.9916  7788.74  86.988
 37.0336  8079.39  88.9101
 37.0756  8052.11  88.5537
 37.1176  7770.23  87.2496
 37.1596  7984.97  88.456
 37.2016  7759.2  87.4153
 37.2436  7852.87  87.2672
 37.2856  7868.19  87.6006
 37.3276  8076.62  88.115
 37.3696  7819.6  87.5661
 37.4116  7908.49  87.9738
 37.4536  7767.73  87.0571
 37.4956  7863.62  87.6391
 37.5376  7986.26  89.905
 37.5796  7929.97  89.5078
 37.6216  7772.63  86.9265
 37.6636  8128.63  88.8239
 37.7056  7974.07  88.128
 37.7476  8100.45  88.3553
 37.7896  7899.12  87.754
 37.8316  7886.23  87.8315
 37.8736  7876.42  87.3158
 37.9156  8024.03  88.1237
 37.9576  8096.56  88.4392
 37.9996  7996.94  87.6075
 38.0416  7811.72  87.373
 38.0836  8034.93  88.5174
 38.1256  7828.4  87.353
 38.1676  7836.49  87.5162
 38.2096  7979.86  87.926
 38.2516  7817.85  87.238
 38.2936  8008.47  88.0983
 38.3356  7807.79  86.9185
 38.3776  7985.06  88.0494
 38.4196  7825.02  87.1196
 38.4616  7910.12  87.8353
 38.5036  7968.96  88.0123
 38.5456  7718.43  87.4237
 38.5876  7816.59  87.9859
 38.6296  7960.31  87.7973
 38.6716  7888.82  87.1955
 38.7136  7848.32  86.919
 38.7556  7850.81  87.4339
 38.7976  7915.3  87.7098
 38.8396  7756.05  87.2885
 38.8816  7765.65  87.137
 38.9236  7834.27  87.3225
 38.9656  7875.93  87.4605
 39.0076  7827.25  86.595
 39.0496  7946.25  87.8121
 39.0916  7792.86  86.607
 39.1336  7861.43  87.3977
 39.1756  7777.67  86.9902
 39.2176  7678.47  86.9505
 39.2596  7837.27  87.7746
 39.3016  7778.16  87.0328
 39.3436  7852.3  87.8551
 39.3856  7881.7  87.4687
 39.4276  7778.26  87.2269
 39.4696  7839.83  87.3644
 39.5116  7836.47  87.852
 39.5536  7764.8  87.8561
 39.5956  7884.17  87.6393
 39.6376  7795.57  87.151
 39.6796  7797.87  86.9058
 39.7216  7797.57  87.0064
 39.7636  7932.23  88.3075
 39.8056  7876.61  87.7981
 39.8476  7746.33  87.3134
 39.8896  7809.49  87.3134
 39.9316  7814.23  87.5866
 39.9736  7827.92  87.2328
 40.0156  7699.49  86.3508
 40.0576  7779.29  87.1414
 40.0996  7793.67  86.4181
 40.1416  7768.7  87.066
 40.1836  7830.84  87.3061
 40.2256  7854.45  87.462
 40.2676  7815.34  87.3536
 40.3096  7776.82  87.0675
 40.3516  7929.18  88.0249
 40.3936  7863.2  87.2212
 40.4356  7872.22  87.4787
 40.4776  7887.94  87.9639
 40.5196  7887.8  88.09
 40.5616  7885.94  87.7289
 40.6036  7791.85  87.456
 40.6456  7875.19  87.51
 40.6876  7865.99  87.4708
 40.7296  7731.8  86.8487
 40.7716  7869.25  87.7471
 40.8136  7779.42  87.1823
 40.8556  7965.64  88.488
 40.8976  7967.42  88.2914
 40.9396  7850.48  87.9829
 40.9816  7860.81  87.3359
 41.0236  7797.42  86.7697
 41.0656  7930.47  88.0445
 41.1076  7885.72  87.5638
 41.1496  7863.42  87.351
 41.1916  7802.61  87.3134
 41.2336  7866.28  87.6861
 41.2756  7798.67  86.8999
 41.3176  7875.16  87.9464
 41.3596  7926.78  87.9642
 41.4016  7765.57  87.3277
 41.4436  7879.61  87.7535
 41.4856  7808.2  87.5126
 41.5276  7840.82  87.7164
 41.5696  7770.93  86.958
 41.6116  7902.32  88.0785
 41.6536  7837.02  87.5605
 41.6956  7888.77  87.9305
 41.7376  7749.5  87.1691
 41.7796  7742.46  87.0096
 41.8216  7822.63  87.6895
 41.8636  7760.47  87.2852
 41.9056  7724.48  86.8786
 41.9476  7800.82  87.5384
 41.9896  7907.99  87.8055
 42.0316  7812.78  87.3621
 42.0736  7838.09  87.6117
 42.1156  7796.22  87.2031
 42.1576  7772.06  87.1749
 42.1996  7864.44  87.8291
 42.2416  7796.88  87.0307
 42.2836  7766.2  86.9826
 42.3256  7763.38  87.0736
 42.3676  7889.13  87.5793
 42.4096  7856.7  87.3642
 42.4516  7857.96  87.4636
 42.4936  7751.34  86.923
 42.5356  7745.93  87.0368
 42.5776  7672.06  86.5527
 42.6196  7708.33  86.8219
 42.6616  7672.65  86.7878
 42.7036  7818.26  86.9892
 42.7456  7853.04  87.5782
 42.7876  7679.8  86.6616
 42.8296  7725.69  86.7612
 42.8716  7698.49  86.7689
 42.9136  7678.79  86.4478
 42.9556  7750.7  86.9826
 42.9976  7779.56  87.1046
 43.0396  7595.95  85.8091
 43.0816  7638.85  86.4356
 43.1236  7657.94  86.5874
 43.1656  7714.77  86.7363
 43.2076  7556.04  86.0118
 43.2496  7641.48  86.2573
 43.2916  7711.64  87.0045
 43.3336  7695.25  86.7455
 43.3756  7694.61  86.5087
 43.4176  7533.56  85.6778
 43.4596  7615.42  85.9934
 43.5016  7652.72  86.617
 43.5436  7659.41  86.5554
 43.5856  7610.11  86.3025
 43.6276  7596.32  86.0966
 43.6696  7577.48  86.2581
 43.7116  7636.91  86.1
 43.7536  7528.77  85.9844
 43.7956  7542.61  87.2538
 43.8376  7475.45  85.4018
 43.8796  7461.16  85.3994
 43.9216  7427.62  85.1269
 43.9636  7562.06  86.0035
 44.0056  7426.26  85.4535
 44.0476  7377.55  84.8093
 44.0896  7356.1  85.0234
 44.1316  7508.25  85.4257
 44.1736  7462.78  85.2942
 44.2156  7413.29  84.863
 44.2576  7382.28  85.0066
 44.2996  7453.46  85.385
 44.3416  7447.78  85.1163
 44.3836  7295.24  84.5625
 44.4256  7250.98  83.9566
 44.4676  7497.82  85.5283
 44.5096  7379.88  84.9977
 44.5516  7374.59  84.9323
 44.5936  7301.47  84.4637
 44.6356  7428.55  84.9346
 44.6776  7411.54  85.1523
 44.7196  7357.36  85.1457
 44.7616  7479.77  87.1771
 44.8036  7405.5  85.1879
 44.8456  7505.09  85.9652
 44.8876  7572.43  86.1963
 44.9296  7752.64  86.6571
 44.9716  7601.76  86.2381
 45.0136  7461.8  85.3758
 45.0556  7614.81  86.2322
 45.0976  7406.64  85.1836
 45.1396  7416.82  84.9978
 45.1816  7355.64  84.5955
 45.2236  7599.54  85.8993
 45.2656  7454.91  85.57
 45.3076  7513.19  85.688
 45.3496  7366.39  85.1483
 45.3916  7372.15  85.4552
 45.4336  7489.98  85.9726
 45.4756  7431.1  85.4916
 45.5176  7401.25  84.9451
 45.5596  7568.98  86.0221
 45.6016  7481.74  85.9836
 45.6436  7457.5  84.9748
 45.6856  7376.58  85.1763
 45.7276  7314.72  86.1183
 45.7696  7440.79  86.5331
 45.8116  7384.42  85.6315
 45.8536  7366.99  85.4276
 45.8956  7432.34  85.1673
 45.9376  7404.16  84.4698
 45.9796  7495.3  85.6701
 46.0216  7411.54  85.5365
 46.0636  7560.5  85.5169
 46.1056  7348.4  84.3136
 46.1476  7407.17  85.236
 46.1896  7316.1  84.8471
 46.2316  7467.53  85.5829
 46.2736  7325.46  85.1557
 46.3156  7400.46  85.1732
 46.3576  7402.05  85.3877
 46.3996  7364.07  85.3198
 46.4416  7396.57  85.0861
 46.4836  7256.37  84.6333
 46.5256  7475.17  85.839
 46.5676  7289.88  84.8833
 46.6096  7387.07  85.3753
 46.6516  7442.78  84.7399
 46.6936  7416.96  85.0913
 46.7356  7470.96  85.492
 46.7776  7255.36  85.0938
 46.8196  7333.74  85.1461
 46.8616  7187.72  84.2448
 46.9036  7272.76  84.3964
 46.9456  7323.63  84.3307
 46.9876  7352.53  84.5816
 47.0296  7350.78  85.266
 47.0716  7234.98  84.4139
 47.1136  7230.71  84.076
 47.1556  7345.62  84.597
 47.1976  7373.88  84.8433
 47.2396  7272.34  84.6569
 47.2816  7266.05  84.3165
 47.3236  7369.18  85.2822
 47.3656  7397.49  85.3831
 47.4076  7320.06  84.7343
 47.4496  7349.43  85.0011
 47.4916  7271.01  84.7408
 47.5336  7391.51  85.2447
 47.5756  7422.66  85.5491
 47.6176  7279.84  84.6159
 47.6596  7266.95  84.2536
 47.7016  7328.57  84.4314
 47.7436  7350.82  84.8881
 47.7856  7411.75  85.3761
 47.8276  7289.49  84.6183
 47.8696  7333.35  84.9574
 47.9116  7342.26  84.7221
 47.9536  7285.58  84.3307
 47.9956  7325.92  85.2838
 48.0376  7198.55  84.3095
 48.0796  7231.57  84.6317
 48.1216  7180.33  84.1525
 48.1636  7347.45  84.7015
 48.2056  7191.02  84.0548
 48.2476  7344.44  85.2506
 48.2896  7355.16  85.227
 48.3316  7282.72  84.7461
 48.3736  7266.9  84.6754
 48.4156  7266.07  84.522
 48.4576  7328.94  85.1902
 48.4996  7368.63  84.8664
 48.5416  7391.8  85.3344
 48.5836  7291.28  84.4221
 48.6256  7342.13  84.9296
 48.6676  7328.41  85.3719
 48.7096  7352.21  84.7604
 48.7516  7241.73  84.2637
 48.7936  7130.62  83.6836
 48.8356  7261.89  84.5059
 48.8776  7276.16  85.1571
 48.9196  7407.29  85.2967
 48.9616  7187.24  84.3885
 49.0036  7307.41  85.4578
 49.0456  7196.81  84.7699
 49.0876  7202.73  84.3467
 49.1296  7212.88  84.5649
 49.1716  7091.57  83.7271
 49.2136  7253.67  84.5975
 49.2556  7280.07  84.7838
 49.2976  7326.83  85.1379
 49.3396  7109.81  83.9221
 49.3816  7312.97  84.5291
 49.4236  7279.1  84.7649
 49.4656  7199.47  84.3173
 49.5076  7174.11  83.92
 49.5496  7178.41  84.0054
 49.5916  7288.98  84.5585
 49.6336  7283.95  84.7451
 49.6756  7244.11  84.7565
 49.7176  7239.26  84.6589
 49.7596  7092.59  83.567
 49.8016  7319.09  84.8083
 49.8436  7294.38  85.0008
 49.8856  7145.1  84.0918
 49.9276  7141.35  84.1717
 49.9696  7237.95  84.7243
 50.0116  7153.77  84.3626
 50.0536  7167.82  84.3808
 50.0956  7230.68  84.8317
 50.1376  7196.93  84.3299
 50.1796  7154.07  84.3526
 50.2216  7144.16  84.2878
 50.2636  7159.07  83.9907
 50.3056  7070.37  83.6447
 50.3476  7157.95  84.1774
 50.3896  7115.69  83.9058
 50.4316  7201.31  84.2397
 50.4736  7153.77  84.1824
 50.5156  7181.8  84.3288
 50.5576  7240.5  84.4272
 50.5996  7063.91  83.6834
 50.6416  7069.58  83.6327
 50.6836  7161.8  84.2473
 50.7256  7245.85  84.6611
 50.7676  7265.55  85.1129
 50.8096  7032.36  83.2611
 50.8516  7133.4  84.2853
 50.8936  7049.47  83.5624
 50.9356  7175.37  84.4135
 50.9776  7079.82  84.0121
 51.0196  6809.92  82.5156
 51.0616  7059.53  83.3239
 51.1036  7055.79  83.667
 51.1456  7010.53  83.3097
 51.1876  6969.81  82.3855
 51.2296  6925.62  82.7783
 51.2716  6849.77  82.0283
 51.3136  6880.72  82.6771
 51.3556  6906.92  82.4499
 51.3976  6861.59  82.3209
 51.4396  6878.54  82.747
 51.4816  6934.38  82.9354
 51.5236  6858.55  82.5666
 51.5656  6880.41  82.285
 51.6076  7039.08  83.3206
 51.6496  6832.52  82.2795
 51.6916  6895.69  83.0138
 51.7336  6874.01  82.9797
 51.7756  6960.7  83.1908
 51.8176  6825.27  82.4938
 51.8596  6921.07  83.0804
 51.9016  6894.58  82.5289
 51.9436  7039.79  84.9176
 51.9856  6938.79  84.7159
 52.0276  6954.68  83.2873
 52.0696  7041.85  83.8954
 52.1116  6897  83.1431
 52.1536  7144.49  84.502
 52.1956  6980.82  82.9806
 52.2376  6998.8  83.2681
 52.2796  6999.49  83.0888
 52.3216  6807.85  82.6268
 52.3636  6929.89  82.9154
 52.4056  6905.67  82.651
 52.4476  6842.36  82.6336
 52.4896  6735.76  82.0327
 52.5316  7057.39  84.0265
 52.5736  6812  82.2593
 52.6156  6997.08  83.7887
 52.6576  6880.21  82.5086
 52.6996  6774.29  82.8651
 52.7416  6782.57  82.7615
 52.7836  6949.62  83.6656
 52.8256  6889.94  82.5109
 52.8676  6745.75  82.2174
 52.9096  6896.79  83.2088
 52.9516  6846.39  83.2942
 52.9936  6790.46  83.3261
 53.0356  6868.91  82.7924
 53.0776  6858.57  83.0081
 53.1196  6901.99  83.3895
 53.1616  6891.59  83.3869
 53.2036  6913.51  83.4815
 53.2456  6875.85  83.3608
 53.2876  6871.01  83.0165
 53.3296  6838.65  83.1294
 53.3716  7023.4  84.0143
 53.4136  6865.83  83.2172
 53.4556  6811.98  82.9219
 53.4976  6836.54  82.9083
 53.5396  6736.11  82.6909
 53.5816  6899.94  83.3222
 53.6236  6739.04  82.7015
 53.6656  6823.08  82.8064
 53.7076  6835.6  82.8494
 53.7496  6824.91  82.8706
 53.7916  6904.23  83.5332
 53.8336  6920.08  83.5231
 53.8756  6750.89  83.0399
 53.9176  6855.35  83.0092
 53.9596  6592.19  82.1723
 54.0016  6499.68  80.9099
 54.0436  6465.56  80.9375
 54.0856  6633.97  81.3848
 54.1276  6633.07  81.5893
 54.1696  6560.02  81.3041
 54.2116  6687.81  81.8403
 54.2536  6549.54  80.7979
 54.2956  6619.11  81.2737
 54.3376  6513.22  81.1158
 54.3796  6495.33  80.8902
 54.4216  6583.51  81.497
 54.4636  6543.67  81.2161
 54.5056  6520.6  80.8871
 54.5476  6545.59  81.3702
 54.5896  6625.85  81.7093
 54.6316  6587.18  81.2945
 54.6736  6639.07  81.7096
 54.7156  6489.98  80.8234
 54.7576  6420.41  80.3644
 54.7996  6521.96  81.1449
 54.8416  6622.2  81.8382
 54.8836  6505.33  81.2037
 54.9256  6348.15  79.9865
 54.9676  6568.21  81.082
 55.0096  6521.58  80.9258
 55.0516  6274.9  79.6289
 55.0936  6483.78  80.6267
 55.1356  6342.43  79.7776
 55.1776  6507.38  81.0569
 55.2196  6486.48  80.7215
 55.2616  6607.33  81.6888
 55.3036  6299.86  79.9431
 55.3456  6289.48  79.9865
 55.3876  6412.23  80.5195
 55.4296  6300.08  79.7946
 55.4716  6389.41  80.3989
 55.5136  6346.56  79.8922
 55.5556  6535.75  81.1244
 55.5976  6400.92  80.3666
 55.6396  6551.63  81.2468
 55.6816  6279.9  79.4045
 55.7236  6301.73  79.6064
 55.7656  6438.61  80.187
 55.8076  6285.1  79.2339
 55.8496  6274.42  79.467
 55.8916  6296.33  79.8141
 55.9336  6505.52  80.9517
 55.9756  6306.07  79.5959
 56.0176  6405.57  80.495
 56.0596  6316.86  79.8084
 56.1016  6294.39  79.6729
 56.1436  6169.61  79.1218
 56.1856  6218.89  79.1902
 56.2276  6292.5  79.8303
 56.2696  6325.01  79.9054
 56.3116  6355.46  80.477
 56.3536  6330.66  79.9798
 56.3956  6277.02  79.6205
 56.4376  6208.63  79.2227
 56.4796  6212.47  79.0729
 56.5216  6241.12  79.6243
 56.5636  6167.43  78.725
 56.6056  6186.15  79.0655
 56.6476  6305.17  79.4426
 56.6896  6412.97  80.5961
 56.7316  6178.85  79.0267
 56.7736  6250.2  79.4843
 56.8156  6334.87  80.0465
 56.8576  6112.96  78.5489
 56.8996  6223.69  79.1783
 56.9416  6167.08  79.1392
 56.9836  6182.29  78.7
 57.0256  6108.38  78.5938
 57.0676  6314.6  80.0192
 57.1096  6296.48  79.7017
 57.1516  6273.38  79.6132
 57.1936  6228.67  79.0684
 57.2356  6079  78.4507
 57.2776  6181.92  79.0821
 57.3196  6217.65  79.6363
 57.3616  6104.9  78.423
 57.4036  6190.88  79.0132
 57.4456  6226.88  79.2446
 57.4876  6197.76  78.9309
 57.5296  6154.4  78.9705
 57.5716  6129.83  78.8093
 57.6136  6182.56  79.0553
 57.6556  6081.86  78.4676
 57.6976  6092.44  78.3703
 57.7396  6029.48  78.2971
 57.7816  5997.03  78.4603
 57.8236  6088.35  78.8494
 57.8656  6112.04  78.6653
 57.9076  6108.93  78.669
 57.9496  6002.05  78.3258
 57.9916  6126.71  78.6473
 58.0336  6083.96  78.659
 58.0756  6185.64  78.9531
 58.1176  6061.97  78.1485
 58.1596  6042.8  78.6043
 58.2016  5861.02  76.6442
 58.2436  5840.35  76.9102
 58.2856  5792.36  76.5187
 58.3276  5758.25  76.65
 58.3696  5899.48  77.3421
 58.4116  5813.07  76.6432
 58.4536  5924.06  77.2589
 58.4956  5691.3  75.899
 58.5376  5913.13  76.9335
 58.5796  5906.39  77.3174
 58.6216  5920.6  77.2208
 58.6636  5805.63  76.6841
 58.7056  5911.4  77.2363
 58.7476  5812.12  77.0209
 58.7896  5864.81  77.0147
 58.8316  5817.86  76.7043
 58.8736  5960.33  77.6502
 58.9156  5862.58  77.0538
 58.9576  5835.05  77.189
 58.9996  5842.81  76.5026
 59.0416  5943.95  77.5214
 59.0836  5886.45  77.059
 59.1256  5811.73  77.2598
 59.1676  5765.37  77.2442
 59.2096  5895.92  77.4401
 59.2516  5842.25  76.6749
 59.2936  5884  77.2722
 59.3356  5758.17  76.3221
 59.3776  5812.06  76.8441
 59.4196  5790.56  76.6388
 59.4616  5883.99  77.1168
 59.5036  5667.59  75.7186
 59.5456  5970.86  77.4143
 59.5876  5964.46  77.5626
 59.6296  5796.61  76.5313
 59.6716  5774.19  76.4399
 59.7136  5920.17  77.3885
 59.7556  5830.64  76.9351
 59.7976  5706.69  75.8623
 59.8396  5776.84  76.2238
 59.8816  5810.7  76.9766
 59.9236  5700.45  75.9019
 59.9656  5789.81  76.7498
 60.0076  5703.67  75.5521
 60.0496  5764.35  76.4444
 60.0916  5863.24  76.5248
 60.1336  5749.19  76.8571
 60.1756  5758.61  78.0764
 60.1996  0.0000000E+00  0.0000000E+00