File: docs/examples/opeando_xrd/IS17_D/Data/IS17_D/17_Db_f00099.xye
# /beamlines/bl04/projects/cycle2025-II/20250340211-lsimonelli/DATA/IS17_D/17_Db_f00099.xye : mythproc.py merge -s 0.006 -l 0.5 -f /beamlines/bl04/inhouse/ff/FlatField/ff_20Nov2024rod8mm60s_17keV.raw -b True -c true -o xye /beamlines/bl04/projects/cycle2025-II/20250340211-lsimonelli/DATA/IS17_D/17_Db_00099.dat
# IsMon = [6784459, 6790167, 6792703]  IsPos = [-1.4999, -2.4884, -3.4988]
# Wave = 0.4962  CalPath /beamlines/bl04/projects/cycle2025-II/20250340211-lsimonelli/DATA/Align/Si_Pos1_25keV_f00001.cal
# Date = 2025-09-24_21:17:08 Dt = 4.8000  Bin = 0.0060  <imon> = 6789110 +/- 3448 (Min/Max) 6784459 / 6792703
# icurr 252.7054  mocoIn 1.7251E-05  mocoOut 0.8088  i15 7.11057e+06  imon 6.78911e+06  i7 3.6667  iEMpd_timer 4.8000  iEMpd_1 3.3747E-08  iEMpd_2 7.8444E-08  iEMpd_3 1.7416E-08  iEMpd_4 4.9323E-08  iEMhp_timer 4.8000  iEMhp_1 4.9424E-06  iEMhp_2 -2.5058E-08  iEMhp_3 -2.4344E-08  iEMhp_4 -2.2109E-08
#      9776
 1.5856  44736.5  217.262
 1.6276  51485.1  229.074
 1.6696  57288.1  240.787
 1.7116  64359.1  255.714
 1.7536  73081  271.33
 1.7956  76943.7  279.104
 1.8376  74029.2  274.201
 1.8796  63402.3  251.89
 1.9216  52122.9  229.299
 1.9636  45275.6  212.83
 2.0056  41479.6  202.925
 2.0476  38383  197.343
 2.0896  37253.4  193.277
 2.1316  36606.9  190.672
 2.1736  34200.8  185.761
 2.2156  35161.9  186.842
 2.2576  33552.1  183.17
 2.2996  31974.2  179.466
 2.3416  33242.3  181.531
 2.3836  32435.6  179.424
 2.4256  31288.1  176.796
 2.4676  31141.8  176.132
 2.5096  30824  175.289
 2.5516  29223.6  174.558
 2.5936  29416.4  171.626
 2.6356  28747.8  170.378
 2.6776  28722.5  169.176
 2.7196  28349  168.571
 2.7616  28377.6  168.441
 2.8036  27867.5  167.089
 2.8456  27892.8  167.822
 2.8876  27078  165.202
 2.9296  26787.2  164.456
 2.9716  26602.1  163.366
 3.0136  26316.4  162.553
 3.0556  26263.1  162.779
 3.0976  26219.9  161.544
 3.1396  25924.3  161.366
 3.1816  25577.7  160.226
 3.2236  25488.8  159.93
 3.2656  25347.7  158.511
 3.3076  25021.6  158.993
 3.3496  25252.4  158.616
 3.3916  25723.8  159.918
 3.4336  25937.9  161.182
 3.4756  26428.2  162.643
 3.5176  27065.9  164.342
 3.5596  26693.5  165.695
 3.6016  26742.5  163.415
 3.6436  26039.7  162.373
 3.6856  25564.1  159.167
 3.7276  24653.4  157.398
 3.7696  24326.9  156.538
 3.8116  24121.7  155.78
 3.8536  24268.8  156.18
 3.8956  24123.6  155.528
 3.9376  24059.4  155.595
 3.9796  23767.2  154.128
 4.0216  23817.3  153.316
 4.0636  23974.8  155.308
 4.1056  23842.5  154.536
 4.1476  24188.6  155.978
 4.1896  24148.9  155.697
 4.2316  24298.9  156.003
 4.2736  24868.8  157.62
 4.3156  24772.4  157.541
 4.3576  25919  161.058
 4.3996  25972.5  161.504
 4.4416  26272.4  162.009
 4.4836  26924.6  164.17
 4.5256  27469.8  166.449
 4.5676  27224.8  165.956
 4.6096  27737.2  166.164
 4.6516  28388.7  167.784
 4.6936  28145  167.889
 4.7356  28357.9  168.352
 4.7776  28407.7  168.316
 4.8196  28066.2  167.988
 4.8616  27787.7  166.612
 4.9036  27470.4  165.405
 4.9456  27267.5  165.439
 4.9876  26594  163.29
 5.0296  26949.4  164.209
 5.0716  26654.2  164.06
 5.1136  26957.1  164.715
 5.1556  27081.8  164.536
 5.1976  27698.6  166.417
 5.2396  27647.4  165.934
 5.2816  27854  167.049
 5.3236  27662.9  166.154
 5.3656  27307.5  166.026
 5.4076  27125.5  165.616
 5.4496  27035.7  164.82
 5.4916  27328  165.468
 5.5336  27190.5  165.048
 5.5756  27142.2  164.944
 5.6176  27267.4  164.746
 5.6596  27539.1  166.572
 5.7016  27683.3  166.25
 5.7436  27690.2  166.55
 5.7856  27312.6  165.475
 5.8276  27754.3  166.511
 5.8696  28157.9  167.904
 5.9116  27944.8  167.871
 5.9536  28340.6  168.81
 5.9956  28489.9  168.627
 6.0376  28553.7  169.433
 6.0796  28693.8  169.685
 6.1216  28506.7  169.321
 6.1636  28777.7  169.173
 6.2056  28684.7  169.573
 6.2476  28861.7  169.983
 6.2896  29429.3  171.318
 6.3316  29257.5  171.001
 6.3736  29359.4  171.183
 6.4156  29530.8  171.579
 6.4576  29412.7  170.847
 6.4996  29593.3  171.838
 6.5416  29443.1  171.541
 6.5836  29455.5  171.806
 6.6256  29674.8  172.005
 6.6676  30195.2  173.082
 6.7096  30280.9  174.204
 6.7516  30491.3  174.448
 6.7936  30768.5  174.643
 6.8356  30726.8  174.609
 6.8776  30948.5  176.04
 6.9196  30968.8  176.512
 6.9616  31360.2  177.061
 7.0036  31793.1  177.928
 7.0456  31853.4  177.398
 7.0876  31661.4  178.552
 7.1296  31779.8  178.014
 7.1716  31714.4  177.379
 7.2136  31583.8  176.778
 7.2556  31843.3  177.666
 7.2976  31848.1  178.179
 7.3396  31630.7  177.784
 7.3816  31631.4  178.009
 7.4236  31869.5  177.973
 7.4656  32127.5  178.138
 7.5076  32359.9  178.946
 7.5496  32111.3  178.786
 7.5916  32010.9  178.559
 7.6336  32613.3  180.12
 7.6756  32561.3  179.824
 7.7176  33106.7  181.656
 7.7596  32951.2  182.446
 7.8016  33656.6  186.641
 7.8436  33342.2  182.387
 7.8856  33414.5  182.192
 7.9276  33822.3  183.695
 7.9696  34283.6  185.255
 8.0116  34995.5  185.723
 8.0536  35204.3  186.52
 8.0956  35145.5  187.547
 8.1376  35509  187.983
 8.1796  35824.4  189.35
 8.2216  36660.4  190.283
 8.2636  36508.6  190.146
 8.3056  36622  191.197
 8.3476  37349.8  192.422
 8.3896  36767.4  190.995
 8.4316  37227.7  192.356
 8.4736  37092.2  191.481
 8.5156  36781.1  190.949
 8.5576  36593  191.428
 8.5996  36405  189.817
 8.6416  36625.2  191.647
 8.6836  36013.7  189.866
 8.7256  36613.3  190.905
 8.7676  36456.9  193.411
 8.8096  36801.6  191.644
 8.8516  36685.3  190.914
 8.8936  36293.1  189.845
 8.9356  36477.8  190.674
 8.9776  36649.2  191.186
 9.0196  36537.5  190.583
 9.0616  36211.1  189.215
 9.1036  35934.7  189.658
 9.1456  35383.7  187.514
 9.1876  35616.9  188.093
 9.2296  35498.6  187.202
 9.2716  35399  187.004
 9.3136  35530.1  187.34
 9.3556  35771.6  187.951
 9.3976  34600.4  185.377
 9.4396  34500.7  185.001
 9.4816  34407.6  184.63
 9.5236  34349.3  184.348
 9.5656  33849.8  183.363
 9.6076  33378  182.583
 9.6496  33583.3  183.049
 9.6916  33090.2  181.632
 9.7336  33417.9  182.338
 9.7756  33052.6  182.577
 9.8176  32872.6  181.624
 9.8596  32985.5  180.38
 9.9016  32589.8  179.281
 9.9436  32200.3  178.122
 9.9856  31942.1  177.682
 10.0276  31729.3  178.163
 10.0696  31958  177.841
 10.1116  30846.6  174.977
 10.1536  31010.8  175.59
 10.1956  30478  173.698
 10.2376  30412.8  173.039
 10.2796  30264.1  172.709
 10.3216  29774.6  171.594
 10.3636  29515.4  170.872
 10.4056  29130.5  170.139
 10.4476  29280.2  170.197
 10.4896  29383.3  169.944
 10.5316  28742.7  168.808
 10.5736  28570.1  168.712
 10.6156  28696.8  168.853
 10.6576  28387.3  166.502
 10.6996  28153.9  166.517
 10.7416  27654.1  165.245
 10.7836  27417.7  165.174
 10.8256  26894.5  164.021
 10.8676  27047.7  164.028
 10.9096  26793.3  163.295
 10.9516  26626  161.73
 10.9936  26702.6  162.176
 11.0356  26424.7  161.932
 11.0776  26188.3  160.543
 11.1196  25933.2  160.518
 11.1616  25669.6  159.365
 11.2036  25786.8  159.582
 11.2456  25787.5  160.288
 11.2876  25880.6  160.326
 11.3296  25475.1  158.964
 11.3716  25717.7  159.407
 11.4136  25682.4  160.172
 11.4556  25709  159.913
 11.4976  26164.3  160.324
 11.5396  26292.1  160.884
 11.5816  26826.8  162.959
 11.6236  26508.7  162.221
 11.6656  26427  161.128
 11.7076  25620  159.47
 11.7496  25271  162.4
 11.7916  24935.3  156.588
 11.8336  24600.7  156.405
 11.8756  24548.9  155.803
 11.9176  24390.5  154.976
 11.9596  24600.8  155.832
 12.0016  24156.9  155.174
 12.0436  24384.9  155.361
 12.0856  23902.4  154.305
 12.1276  23699.8  153.602
 12.1696  23882.4  153.305
 12.2116  24001.4  153.677
 12.2536  23854.9  154.044
 12.2956  23505  152.24
 12.3376  23742.2  153.233
 12.3796  23554.3  153.094
 12.4216  23658.1  152.634
 12.4636  23498.7  153.048
 12.5056  23725.5  153.052
 12.5476  23805  152.82
 12.5896  23407.6  152.17
 12.6316  23640.6  153.096
 12.6736  23269  152.359
 12.7156  23634.9  153.413
 12.7576  23529.9  153.309
 12.7996  23621.5  152.253
 12.8416  23382.1  152.526
 12.8836  23647.3  153.209
 12.9256  24147.5  153.859
 12.9676  23956  153.642
 13.0096  24199.5  155.558
 13.0516  24080.9  154.204
 13.0936  24475.7  155.881
 13.1356  24615.3  155.266
 13.1776  24161.5  154.849
 13.2196  24265.8  154.827
 13.2616  24049.5  154.438
 13.3036  24387.2  155.487
 13.3456  24008.9  154.609
 13.3876  24418.5  155.231
 13.4296  24111.1  154.4
 13.4716  24541.3  155.397
 13.5136  24246.7  154.594
 13.5556  24211.3  155.097
 13.5976  24556.2  156.378
 13.6396  24304.4  154.924
 13.6816  24285.4  155.333
 13.7236  24950.8  157.034
 13.7656  26273.9  161.593
 13.8076  26926.4  162.272
 13.8496  26576.2  161.889
 13.8916  24502.5  156.545
 13.9336  23943.2  154.02
 13.9756  23971.5  153.502
 14.0176  23641.3  153.109
 14.0596  23507.3  152.609
 14.1016  23565.3  153.225
 14.1436  23666.2  152.689
 14.1856  23098.8  151.135
 14.2276  23161  151.835
 14.2696  22999.3  151.139
 14.3116  22458.7  149.254
 14.3536  22323.5  148.977
 14.3956  22248.4  148.45
 14.4376  22566.9  149.295
 14.4796  22423  148.819
 14.5216  22054.5  148.379
 14.5636  21979.2  147.691
 14.6056  22041.9  147.461
 14.6476  22020  146.627
 14.6896  21632.2  145.884
 14.7316  21347.5  145.953
 14.7736  21045.2  144.059
 14.8156  21070.7  144.162
 14.8576  20844.1  143.251
 14.8996  20453.7  143.085
 14.9416  20415.1  142.972
 14.9836  20240.7  142.333
 15.0256  19546.8  138.783
 15.0676  19576.1  139.197
 15.1096  19628.7  139.121
 15.1516  19170.2  138.041
 15.1936  19055.9  137.064
 15.2356  18774.1  136.319
 15.2776  18944.2  136.529
 15.3196  18624.9  136.359
 15.3616  18495.6  135.638
 15.4036  18410.6  135.195
 15.4456  18684.6  135.847
 15.4876  18319  134.198
 15.5296  18078.1  133.599
 15.5716  17916  132.603
 15.6136  17909.7  132.909
 15.6556  18014.1  132.537
 15.6976  17646.9  131.475
 15.7396  17650  131.858
 15.7816  17521.8  130.899
 15.8236  17226.8  130.472
 15.8656  17094.1  129.773
 15.9076  17155.1  129.82
 15.9496  17854.3  135.3
 15.9916  17514.3  134.405
 16.0336  17779.1  132.261
 16.0756  17313.9  130.855
 16.1176  17320.4  130.95
 16.1596  16773.6  130.031
 16.2016  16930.8  129.395
 16.2436  16934.6  129.79
 16.2856  16801.9  128.802
 16.3276  16631.3  128.598
 16.3696  16816.7  129.133
 16.4116  16714  129.165
 16.4536  16727.4  129.04
 16.4956  16619.5  128.366
 16.5376  16306.1  127.326
 16.5796  16397.5  127.051
 16.6216  16318.8  127.002
 16.6636  16191.5  126.692
 16.7056  16424.7  127.472
 16.7476  16302.1  126.517
 16.7896  16253  127.076
 16.8316  16415.6  127.693
 16.8736  16512.5  128.336
 16.9156  16214.7  127.484
 16.9576  16102.7  127.84
 16.9996  16146.8  128.467
 17.0416  16295.1  127.457
 17.0836  16376.4  127.536
 17.1256  16142.4  126.624
 17.1676  16224.8  126.935
 17.2096  15898.2  125.52
 17.2516  16169.3  126.386
 17.2936  16000.6  126.071
 17.3356  15754.6  125.091
 17.3776  15602.1  124.666
 17.4196  15586  124.294
 17.4616  15597.2  124.257
 17.5036  15163.7  122.87
 17.5456  15155.3  123.475
 17.5876  15383.7  123.445
 17.6296  15190.3  122.502
 17.6716  15238.9  123.276
 17.7136  15110.9  122.894
 17.7556  14940.3  122.485
 17.7976  14934.2  122.189
 17.8396  14786.5  121.093
 17.8816  14662.1  121.133
 17.9236  14599.7  120.675
 17.9656  14476.4  120.669
 18.0076  14578.9  120.681
 18.0496  14583.3  119.843
 18.0916  14526  120.155
 18.1336  14481.8  120.071
 18.1756  14589.3  120.066
 18.2176  14225.5  118.766
 18.2596  14270.6  118.687
 18.3016  14274.5  118.966
 18.3436  14413.6  119.544
 18.3856  14271.4  119.098
 18.4276  14180  118.394
 18.4696  14224.2  118.66
 18.5116  14118.1  118.484
 18.5536  14116.3  118.827
 18.5956  14109.8  118.37
 18.6376  13956  118.128
 18.6796  14082.2  117.986
 18.7216  14197.8  118.954
 18.7636  14146.7  118.75
 18.8056  14029.7  118.177
 18.8476  13795.9  117.802
 18.8896  13878  117.502
 18.9316  14074  118.294
 18.9736  13959.5  117.525
 19.0156  13876.5  117.59
 19.0576  14074.1  117.283
 19.0996  14077.1  118.006
 19.1416  13915.5  117.723
 19.1836  13896.5  117.244
 19.2256  13822.4  117.151
 19.2676  13794.6  117.111
 19.3096  13879.5  117.713
 19.3516  13642.2  116.667
 19.3936  13690  116.764
 19.4356  14033.1  118.112
 19.4776  13805.8  117.228
 19.5196  13891.2  117.449
 19.5616  13676.7  116.795
 19.6036  13751.7  116.608
 19.6456  13801.5  116.941
 19.6876  13690.6  116.105
 19.7296  13849.3  117.255
 19.7716  13573.8  116.236
 19.8136  13879.8  117.751
 19.8556  13975.8  117.633
 19.8976  14029.2  117.909
 19.9396  13888.1  116.91
 19.9816  14146.9  118.235
 20.0236  14400.9  119.498
 20.0656  14686.3  120.662
 20.1076  14831.3  121.768
 20.1496  14754.3  121.433
 20.1916  14572.1  120.203
 20.2336  14247.5  118.762
 20.2756  13910.7  117.786
 20.3176  13771.1  116.941
 20.3596  13581.5  116.117
 20.4016  13555.1  115.809
 20.4436  13369.5  115.562
 20.4856  13467.7  115.8
 20.5276  13296.4  115.512
 20.5696  13503.3  115.858
 20.6116  13235.6  114.973
 20.6536  13181  114.25
 20.6956  13207.1  114.494
 20.7376  13034.9  113.951
 20.7796  13065  113.789
 20.8216  13307  114.547
 20.8636  13186.6  114.409
 20.9056  13152.7  114.186
 20.9476  13075.8  113.708
 20.9896  13063.9  113.516
 21.0316  12964.5  112.98
 21.0736  12961.9  113.489
 21.1156  12845.7  113.132
 21.1576  13054.6  114.09
 21.1996  12865.3  113.25
 21.2416  12993  113.633
 21.2836  12886.1  113.127
 21.3256  12992.1  113.686
 21.3676  12939  112.978
 21.4096  12850.9  112.923
 21.4516  12661.3  111.943
 21.4936  12473.3  111.384
 21.5356  12924.7  113.327
 21.5776  12831.1  112.754
 21.6196  12622.6  111.87
 21.6616  12646.6  112.061
 21.7036  12785.9  112.448
 21.7456  12718.1  112.224
 21.7876  12716.9  111.982
 21.8296  12390.9  110.382
 21.8716  12733.3  112.133
 21.9136  12790.3  112.58
 21.9556  12544.9  111.167
 21.9976  12644.8  111.648
 22.0396  12522.9  111.356
 22.0816  12584.8  112.145
 22.1236  12643.6  111.881
 22.1656  12591.9  111.79
 22.2076  12349.4  110.155
 22.2496  12470.4  110.729
 22.2916  12423.3  110.402
 22.3336  12390.3  110.975
 22.3756  12254.5  110.083
 22.4176  12097.1  109.229
 22.4596  12084.7  109.753
 22.5016  12212.8  109.846
 22.5436  12423.4  110.663
 22.5856  12413.3  110.865
 22.6276  12518.3  111.466
 22.6696  12406.6  111.32
 22.7116  12354.2  110.604
 22.7536  12320.8  110.428
 22.7956  12232.5  109.38
 22.8376  12016.5  108.911
 22.8796  12196.9  109.531
 22.9216  12300.5  110.53
 22.9636  12263.6  109.529
 23.0056  12371.5  110.144
 23.0476  12161.5  109.768
 23.0896  12699.4  111.546
 23.1316  12307.2  110.242
 23.1736  12492.8  114.024
 23.2156  12635.1  112.043
 23.2576  12841.4  113.106
 23.2996  12682.8  112.161
 23.3416  12664.2  112.629
 23.3836  12640.8  111.742
 23.4256  12701.1  112.137
 23.4676  12535.2  111.09
 23.5096  12662.9  112.307
 23.5516  12589.9  111.288
 23.5936  12499.5  111.796
 23.6356  12729.2  112.479
 23.6776  12578.4  112.013
 23.7196  12425.8  110.919
 23.7616  12378.6  110.617
 23.8036  12638.4  111.84
 23.8456  12411.2  110.371
 23.8876  12424.1  110.803
 23.9296  12211.2  110.33
 23.9716  12192.6  109.453
 24.0136  12500.1  111.732
 24.0556  12230.1  110.238
 24.0976  12261.5  110.194
 24.1396  12055.1  111.856
 24.1816  12203.5  110.97
 24.2236  12042.5  109.878
 24.2656  12116.2  109.684
 24.3076  11942.8  109.163
 24.3496  12020  109.39
 24.3916  12160.2  110.081
 24.4336  12024.8  109.671
 24.4756  12150.4  110.124
 24.5176  11795.1  108.131
 24.5596  11799.6  108.277
 24.6016  11785.2  108.507
 24.6436  11804.7  108.108
 24.6856  11703.6  107.382
 24.7276  11586.4  107.159
 24.7696  11577.1  107.231
 24.8116  11490.3  106.999
 24.8536  11442.2  106.786
 24.8956  11494.3  106.762
 24.9376  11481.4  106.62
 24.9796  11179.5  105.572
 25.0216  11198.5  105.781
 25.0636  11403.7  106.4
 25.1056  11287.4  106.56
 25.1476  11144.1  107.487
 25.1896  11137.7  105.972
 25.2316  11109.2  105.112
 25.2736  11090.7  104.676
 25.3156  11082.3  104.717
 25.3576  11115.9  105.307
 25.3996  11076  105.106
 25.4416  11072.1  105.064
 25.4836  10766.7  104.111
 25.5256  10981.4  104.517
 25.5676  10903.6  103.869
 25.6096  10762.7  103.771
 25.6516  10970.4  104.271
 25.6936  11088.3  105.158
 25.7356  10846.6  104.123
 25.7776  10914.8  104.053
 25.8196  10869.1  104.074
 25.8616  10865.2  103.984
 25.9036  10896.8  103.6
 25.9456  10797.6  103.72
 25.9876  10717.2  103.395
 26.0296  10875.5  103.671
 26.0716  10956.5  104.495
 26.1136  10919.4  104.231
 26.1556  10853.2  103.304
 26.1976  10774.8  103.864
 26.2396  10738.8  102.846
 26.2816  10844.8  103.965
 26.3236  10837  104.074
 26.3656  10896.9  104.092
 26.4076  10649.6  103.107
 26.4496  11032  104.541
 26.4916  11126.6  104.873
 26.5336  11294.6  106.007
 26.5756  11490.7  106.803
 26.6176  10900.6  104.04
 26.6596  10763.1  103.691
 26.7016  10741.5  103.34
 26.7436  10719.8  103.389
 26.7856  10614.2  102.847
 26.8276  10679.1  103.133
 26.8696  10598.5  102.612
 26.9116  10530.9  102.221
 26.9536  10459.2  101.921
 26.9956  10334.7  101.342
 27.0376  10540.9  102.587
 27.0796  10442.4  101.821
 27.1216  10449.3  101.923
 27.1636  10235.1  101.03
 27.2056  10261.4  101.049
 27.2476  10369  101.572
 27.2896  10196.7  100.832
 27.3316  10297.2  101.05
 27.3736  10198.4  100.828
 27.4156  10259.6  100.982
 27.4576  10307.9  101.429
 27.4996  10243.5  100.728
 27.5416  10182.4  100.735
 27.5836  10207.3  100.692
 27.6256  10249.4  101.086
 27.6676  10142.5  100.539
 27.7096  10298  101.187
 27.7516  10116.6  100.437
 27.7936  10362.5  101.81
 27.8356  10294.8  101.087
 27.8776  10358.3  101.456
 27.9196  9999.53  99.5383
 27.9616  10160.1  100.538
 28.0036  10005.8  99.7257
 28.0456  9967.77  99.6741
 28.0876  10017.7  100.016
 28.1296  9920.27  99.3585
 28.1716  9980  99.6878
 28.2136  9940.55  99.452
 28.2556  9920.96  99.472
 28.2976  9881.2  99.2611
 28.3396  9851.74  98.8707
 28.3816  9868.85  98.9679
 28.4236  9688.9  98.207
 28.4656  9651.17  98.0617
 28.5076  9749.71  98.198
 28.5496  9869.21  99.0556
 28.5916  9838.25  98.7162
 28.6336  9742.77  98.5799
 28.6756  9826.48  98.2015
 28.7176  9784.44  98.542
 28.7596  9716.93  98.0957
 28.8016  9735.99  98.225
 28.8436  9649.51  98.0238
 28.8856  9748  98.3822
 28.9276  9729.71  98.5328
 28.9696  9727.44  98.1681
 29.0116  9602.42  97.7259
 29.0536  9457.63  97.1914
 29.0956  9645.27  97.8486
 29.1376  9693.15  98.0698
 29.1796  9608.85  97.6998
 29.2216  9552.17  97.2414
 29.2636  9718.89  98.1726
 29.3056  9729.32  97.9968
 29.3476  9611  97.9272
 29.3896  9489.44  97.4136
 29.4316  9518.09  96.8863
 29.4736  9363.4  96.1561
 29.5156  9447.15  96.5088
 29.5576  9385.23  96.9231
 29.5996  9509.71  96.8235
 29.6416  9386.61  96.3156
 29.6836  9436.41  96.4992
 29.7256  9368.33  96.7066
 29.7676  9265.74  95.8388
 29.8096  9438.4  96.6773
 29.8516  9214.59  95.8458
 29.8936  9246.39  96.1076
 29.9356  9380.29  96.5584
 29.9776  9233.5  95.9511
 30.0196  9270.28  95.5433
 30.0616  9230.35  95.6978
 30.1036  9366.22  96.2339
 30.1456  9162.14  95.3995
 30.1876  9158.62  95.3686
 30.2296  9214.63  95.6038
 30.2716  9272.3  95.5455
 30.3136  9337.98  96.7345
 30.3556  9409.56  97.1237
 30.3976  9360.52  98.3595
 30.4396  9677.82  97.3541
 30.4816  9451.73  95.8163
 30.5236  9491.62  96.0368
 30.5656  9339.27  95.8947
 30.6076  9474.91  96.0045
 30.6496  9445.12  96.255
 30.6916  9307.92  95.639
 30.7336  9435.4  96.4458
 30.7756  9239.74  95.527
 30.8176  9352.69  96.0154
 30.8596  9356.36  95.7881
 30.9016  9426.42  96.5169
 30.9436  9533.58  96.8102
 30.9856  9602.05  97.2843
 31.0276  9334.49  95.5443
 31.0696  9315.24  96.005
 31.1116  9387.1  96.3453
 31.1536  9128.88  94.8789
 31.1956  9146.27  95.0705
 31.2376  9040.27  94.5274
 31.2796  9391.06  95.8852
 31.3216  9172.57  94.6853
 31.3636  9271.47  95.8946
 31.4056  9197.41  96.8023
 31.4476  9285.85  95.2005
 31.4896  9218.51  95.3531
 31.5316  9334.3  95.3508
 31.5736  9387.72  95.4584
 31.6156  9214.83  94.5819
 31.6576  9390.39  95.5601
 31.6996  9373.34  95.1272
 31.7416  9223.76  95.4615
 31.7836  9328.28  95.0022
 31.8256  9254.14  94.8952
 31.8676  9176.23  94.4621
 31.9096  9089.67  94.3998
 31.9516  9127.57  94.7598
 31.9936  8864.97  93.1992
 32.0356  9270.74  95.3664
 32.0776  9179.44  94.7934
 32.1196  9281.99  95.4328
 32.1616  9369.35  95.3179
 32.2036  9251.06  95.2382
 32.2456  9137.84  95.0302
 32.2876  9156.26  94.6267
 32.3296  9067.67  94.1228
 32.3716  8927.43  93.4935
 32.4136  8952.54  93.8248
 32.4556  8984.42  93.3831
 32.4976  8948.69  93.1062
 32.5396  8942  93.1359
 32.5816  9037.57  93.766
 32.6236  8962.35  93.4325
 32.6656  8941.11  93.8683
 32.7076  8860.53  93.0991
 32.7496  8883.56  92.8933
 32.7916  9036.76  93.6531
 32.8336  8868.88  92.8716
 32.8756  8988.46  93.2088
 32.9176  8695.57  92.1636
 32.9596  8823.19  92.9068
 33.0016  8841.58  92.7884
 33.0436  8834.2  92.9094
 33.0856  8852.14  93.0986
 33.1276  8722.29  92.1497
 33.1696  8883.44  92.8253
 33.2116  8890.81  93.0913
 33.2536  8951.28  93.413
 33.2956  8795.09  92.6712
 33.3376  8816.51  92.5236
 33.3796  8789.41  92.603
 33.4216  8769.73  92.094
 33.4636  8899.4  92.9266
 33.5056  8704.18  92.1399
 33.5476  8731.28  92.2694
 33.5896  8831.12  92.5828
 33.6316  8669.75  92.0471
 33.6736  8692.66  92.4098
 33.7156  8606.73  91.9817
 33.7576  8741.45  92.3427
 33.7996  8820.3  92.5135
 33.8416  8623.59  91.6642
 33.8836  8608.12  91.3532
 33.9256  8752.63  92.1832
 33.9676  8781.51  92.2298
 34.0096  8682.41  92.0288
 34.0516  8587.36  91.1561
 34.0936  8579.32  91.3852
 34.1356  8702.49  91.7781
 34.1776  8486  90.621
 34.2196  8551.96  91.1583
 34.2616  8467.36  90.8453
 34.3036  8605.56  91.8338
 34.3456  8612.03  91.6097
 34.3876  8647.98  91.7809
 34.4296  8567.86  91.0503
 34.4716  8597.64  91.3464
 34.5136  8655.35  91.8443
 34.5556  8406.99  90.7739
 34.5976  8599.4  91.6237
 34.6396  8434.03  90.4549
 34.6816  8624.28  91.5664
 34.7236  8580.13  91.1072
 34.7656  8590.28  91.382
 34.8076  8457  90.9968
 34.8496  8453.25  90.8215
 34.8916  8543.98  91.1788
 34.9336  8442.07  90.6051
 34.9756  8453.76  90.5978
 35.0176  8528.4  91.5233
 35.0596  8648.58  91.9902
 35.1016  8570.05  91.3283
 35.1436  8819.07  92.3295
 35.1856  8456.9  90.5236
 35.2276  8405.93  90.4293
 35.2696  8539.31  91.3339
 35.3116  8405.09  90.7098
 35.3536  8390.9  90.3466
 35.3956  8407.76  90.1521
 35.4376  8477.8  91.0947
 35.4796  8476.63  91.1209
 35.5216  8362.48  90.4682
 35.5636  8195.84  90.2991
 35.6056  8321.57  90.0126
 35.6476  8427.5  90.4842
 35.6896  8344.28  90.1304
 35.7316  8343.86  90.108
 35.7736  8347.04  90.3136
 35.8156  8492.57  91.0889
 35.8576  8370.34  90.6833
 35.8996  8413.75  90.8887
 35.9416  8284.69  89.6808
 35.9836  8427.6  90.8125
 36.0256  8461.32  91.0145
 36.0676  8521.42  91.075
 36.1096  8409.68  90.6318
 36.1516  8565.47  91.349
 36.1936  8315.38  89.8444
 36.2356  8311.96  90.4898
 36.2776  8256.16  89.6633
 36.3196  8338.11  89.7773
 36.3616  8329.86  89.8648
 36.4036  8302.19  89.7809
 36.4456  8309.74  90.035
 36.4876  8152.68  89.1136
 36.5296  8203.61  89.432
 36.5716  8241.72  90.406
 36.6136  8237.67  89.1653
 36.6556  8142.29  88.8394
 36.6976  8129.36  89.2648
 36.7396  7910.74  87.7999
 36.7816  8160.35  89.5435
 36.8236  7935.77  88.2213
 36.8656  7976.57  88.5184
 36.9076  7868.23  87.8002
 36.9496  7888.83  87.9
 36.9916  7910.3  87.6592
 37.0336  8057.47  88.7786
 37.0756  8030.44  88.4281
 37.1176  7866.82  87.786
 37.1596  7891.79  87.9337
 37.2016  7907.55  88.2421
 37.2436  7949.73  87.801
 37.2856  7876.14  87.6435
 37.3276  7885.4  87.0646
 37.3696  7840.1  87.6797
 37.4116  8026.48  88.6215
 37.4536  7901.56  87.7964
 37.4956  7773.02  87.1213
 37.5376  8064.7  90.3381
 37.5796  8053.13  90.2061
 37.6216  7955.01  87.9389
 37.6636  8182.02  89.0778
 37.7056  8017.96  88.3632
 37.7476  8272.7  89.3046
 37.7896  7923  87.8844
 37.8316  7940.78  88.1522
 37.8736  8033.81  88.1754
 37.9156  8056.67  88.3089
 37.9576  8026.04  88.0523
 37.9996  7986.04  87.5454
 38.0416  7929.81  88.0328
 38.0836  8162.25  89.2197
 38.1256  7980.86  88.197
 38.1676  7793.38  87.2722
 38.2096  8022.09  88.176
 38.2516  7975.46  88.1144
 38.2936  8002.73  88.0719
 38.3356  7980.88  87.8717
 38.3776  7961.04  88.0166
 38.4196  7967.89  87.9105
 38.4616  7998.64  88.3183
 38.5036  7997.61  88.1687
 38.5456  7835.43  88.086
 38.5876  7885.82  88.3902
 38.6296  8008.05  88.0485
 38.6716  7940.2  87.4867
 38.7136  7905.55  87.2371
 38.7556  7928.16  87.8681
 38.7976  8069.88  88.5788
 38.8396  7862.53  87.8922
 38.8816  7916.49  87.9868
 38.9236  7884.12  87.5984
 38.9656  7909.67  87.6414
 39.0076  7864.75  86.8179
 39.0496  7990.53  88.0664
 39.0916  7897.07  87.1918
 39.1336  7905.21  87.6423
 39.1756  7805.03  87.1433
 39.2176  7877.35  88.0853
 39.2596  7899.98  88.1304
 39.3016  7920.53  87.8356
 39.3436  7932.87  88.3086
 39.3856  7894.18  87.5459
 39.4276  7998.2  88.6363
 39.4696  7814.17  87.2291
 39.5116  7873.38  88.0758
 39.5536  8008.55  89.236
 39.5956  7934.45  87.9216
 39.6376  7858.36  87.4949
 39.6796  7890.36  87.4265
 39.7216  7877.12  87.4454
 39.7636  7883.33  88.0464
 39.8056  7915.09  88.0103
 39.8476  7740.81  87.2885
 39.8896  7887.95  87.7553
 39.9316  7828.43  87.6581
 39.9736  7856.39  87.3957
 40.0156  7666.54  86.1668
 40.0576  7788.85  87.1943
 40.0996  7833.6  86.6354
 40.1416  7914.08  87.8777
 40.1836  7906.61  87.7261
 40.2256  7888.45  87.6646
 40.2676  7821.58  87.3832
 40.3096  7884.89  87.6801
 40.3516  7896.24  87.8432
 40.3936  7990.37  87.9217
 40.4356  7766.28  86.8844
 40.4776  7933.32  88.2215
 40.5196  7906.88  88.2002
 40.5616  8028.27  88.5218
 40.6036  7814.35  87.5755
 40.6456  7821.01  87.2197
 40.6876  8119  88.8693
 40.7296  7863.13  87.5798
 40.7716  7976.85  88.3459
 40.8136  7914.23  87.9345
 40.8556  7991.2  88.5075
 40.8976  7823.31  87.4845
 40.9396  7887.38  88.1961
 40.9816  7858.95  87.322
 41.0236  7910.45  87.3946
 41.0656  7995.94  88.4064
 41.1076  7901.22  87.6448
 41.1496  7955.54  87.8575
 41.1916  7807.97  87.3596
 41.2336  7897.09  87.8547
 41.2756  7869  87.3032
 41.3176  7844.82  87.7729
 41.3596  7913.26  87.8914
 41.4016  7838.06  87.7243
 41.4436  7993.2  88.379
 41.4856  7914.39  88.104
 41.5276  7863.73  87.8421
 41.5696  7842.22  87.3556
 41.6116  7929.4  88.2355
 41.6536  7921.08  88.0397
 41.6956  7969.7  88.3819
 41.7376  7754.36  87.1951
 41.7796  7766.59  87.1433
 41.8216  7841.83  87.7883
 41.8636  7784.46  87.416
 41.9056  7742.21  86.9787
 41.9476  7833.3  87.724
 41.9896  8018.14  88.4205
 42.0316  7984.71  88.3198
 42.0736  7983.43  88.4209
 42.1156  7856.92  87.5451
 42.1576  7881.54  87.7782
 42.1996  7936.78  88.222
 42.2416  7887.65  87.5404
 42.2836  7747.49  86.8724
 42.3256  7900.19  87.8302
 42.3676  7948.23  87.9194
 42.4096  7908.28  87.6577
 42.4516  8001.3  88.2541
 42.4936  7667.11  86.4479
 42.5356  7819.91  87.4514
 42.5776  7869.61  87.6696
 42.6196  7885.33  87.8081
 42.6616  7630.29  86.5492
 42.7036  7917.15  87.5433
 42.7456  7864.27  87.6063
 42.7876  7889.86  87.8376
 42.8296  7762.3  86.9656
 42.8716  7758.37  87.1056
 42.9136  7773.2  86.978
 42.9556  7849.55  87.5388
 42.9976  7928.55  87.9422
 43.0396  7771.94  86.8002
 43.0816  7655.65  86.5291
 43.1236  7804.21  87.4134
 43.1656  7784.6  87.1206
 43.2076  7689.26  86.7059
 43.2496  7653.87  86.3261
 43.2916  7683.24  86.8505
 43.3336  7851.47  87.631
 43.3756  7791.65  87.0589
 43.4176  7604.19  86.0761
 43.4596  7636.27  86.1166
 43.5016  7729.22  87.0484
 43.5436  7623.64  86.3524
 43.5856  7563.41  86.0351
 43.6276  7772.5  87.1001
 43.6696  7631.83  86.5678
 43.7116  7736.22  86.6547
 43.7536  7809.03  87.5678
 43.7956  7593.34  87.5537
 43.8376  7618.41  86.2124
 43.8796  7492.72  85.5762
 43.9216  7546.31  85.7851
 43.9636  7609.43  86.2636
 44.0056  7499.99  85.8704
 44.0476  7448.89  85.2107
 44.0896  7462.48  85.6328
 44.1316  7590.12  85.8858
 44.1736  7534.24  85.6822
 44.2156  7563.98  85.7154
 44.2576  7463.64  85.4693
 44.2996  7474.34  85.5074
 44.3416  7685.48  86.4563
 44.3836  7362.79  84.944
 44.4256  7309.63  84.2886
 44.4676  7449.41  85.2489
 44.5096  7431.02  85.2844
 44.5516  7454.52  85.3868
 44.5936  7358.97  84.7909
 44.6356  7469.97  85.1665
 44.6776  7446.66  85.3517
 44.7196  7446.95  85.6569
 44.7616  7567.4  87.6878
 44.8036  7532.36  85.9096
 44.8456  7585.87  86.4253
 44.8876  7561.48  86.1294
 44.9296  7665.29  86.1635
 44.9716  7606.94  86.2753
 45.0136  7506.73  85.6384
 45.0556  7666.41  86.5227
 45.0976  7611.18  86.3618
 45.1396  7570.26  85.8965
 45.1816  7443.96  85.0974
 45.2236  7474.45  85.185
 45.2656  7491.09  85.7718
 45.3076  7582.43  86.0743
 45.3496  7443.95  85.5905
 45.3916  7598.69  86.7571
 45.4336  7575.89  86.4696
 45.4756  7471.62  85.7212
 45.5176  7576.98  85.9498
 45.5596  7677.71  86.637
 45.6016  7449.49  85.7581
 45.6436  7432.73  84.8365
 45.6856  7527.86  86.0385
 45.7276  7388.41  86.5313
 45.7696  7492.8  86.8306
 45.8116  7541.55  86.5468
 45.8536  7446.4  85.8909
 45.8956  7585.14  86.0443
 45.9376  7563.45  85.3816
 45.9796  7489.21  85.6448
 46.0216  7473.92  85.9013
 46.0636  7708.35  86.3685
 46.1056  7583.88  85.6523
 46.1476  7516.27  85.8684
 46.1896  7500.68  85.9311
 46.2316  7500.93  85.7926
 46.2736  7361.9  85.3735
 46.3156  7403.65  85.2018
 46.3576  7460.04  85.7239
 46.3996  7423.33  85.6654
 46.4416  7516.5  85.7782
 46.4836  7330.33  85.0699
 46.5256  7457.9  85.746
 46.5676  7222.64  84.4971
 46.6096  7534.49  86.2359
 46.6516  7543.24  85.3057
 46.6936  7456.93  85.326
 46.7356  7556.28  85.9978
 46.7776  7501.31  86.5253
 46.8196  7386.33  85.454
 46.8616  7265.15  84.6947
 46.9036  7295.5  84.5289
 46.9456  7348.08  84.4719
 46.9876  7424.08  84.9855
 47.0296  7501.78  86.1264
 47.0716  7140.17  83.8595
 47.1136  7379.71  84.9356
 47.1556  7413.1  84.9893
 47.1976  7515.93  85.6608
 47.2396  7292.37  84.7702
 47.2816  7278.77  84.3925
 47.3236  7344.96  85.1453
 47.3656  7373.4  85.245
 47.4076  7334.48  84.8106
 47.4496  7407.4  85.3376
 47.4916  7306.29  84.9434
 47.5336  7422.29  85.4245
 47.5756  7426.33  85.5702
 47.6176  7346.08  85.0089
 47.6596  7303.36  84.4676
 47.7016  7583.78  85.8748
 47.7436  7460.43  85.5342
 47.7856  7397.91  85.1989
 47.8276  7393.53  85.2216
 47.8696  7320.83  84.8882
 47.9116  7350.73  84.7644
 47.9536  7361.09  84.7664
 47.9956  7303.27  85.1502
 48.0376  7280.71  84.7876
 48.0796  7324.83  85.1794
 48.1216  7374.91  85.2847
 48.1636  7487.06  85.5026
 48.2056  7415.39  85.3564
 48.2476  7410.04  85.6465
 48.2896  7431.58  85.673
 48.3316  7408.51  85.4679
 48.3736  7318.91  84.9843
 48.4156  7271.59  84.5549
 48.4576  7263.66  84.8105
 48.4996  7391.43  84.9954
 48.5416  7414.02  85.4643
 48.5836  7325.55  84.6215
 48.6256  7325.29  84.8379
 48.6676  7393.33  85.7493
 48.7096  7423.48  85.1707
 48.7516  7388.83  85.1282
 48.7936  7207.22  84.1325
 48.8356  7300.13  84.7284
 48.8776  7401.6  85.8941
 48.9196  7424.32  85.3917
 48.9616  7306.47  85.0944
 49.0036  7348.27  85.6954
 49.0456  7222.64  84.9266
 49.0876  7321.31  85.0338
 49.1296  7260.79  84.85
 49.1716  7175.55  84.2175
 49.2136  7295.06  84.8528
 49.2556  7460.76  85.8396
 49.2976  7322.59  85.1112
 49.3396  7373.75  85.462
 49.3816  7409.47  85.09
 49.4236  7269.55  84.7102
 49.4656  7177.7  84.1879
 49.5076  7324.34  84.7943
 49.5496  7299.05  84.7132
 49.5916  7327.97  84.7962
 49.6336  7225.54  84.4055
 49.6756  7429.79  85.8371
 49.7176  7312.29  85.0847
 49.7596  7249.82  84.4886
 49.8016  7311.11  84.7487
 49.8436  7175.99  84.2724
 49.8856  7214.87  84.5028
 49.9276  7141.87  84.1791
 49.9696  7254.94  84.8209
 50.0116  7293.24  85.1698
 50.0536  7299.62  85.1664
 50.0956  7216.2  84.7483
 50.1376  7187.66  84.2636
 50.1796  7153  84.3456
 50.2216  7218.84  84.7255
 50.2636  7217.45  84.3296
 50.3056  7115.07  83.9091
 50.3476  7194.02  84.398
 50.3896  7214.53  84.4891
 50.4316  7240.87  84.4744
 50.4736  7222.89  84.5859
 50.5156  7195.43  84.4146
 50.5576  7296.16  84.7589
 50.5996  7219.07  84.5988
 50.6416  7120.8  83.9356
 50.6836  7228.4  84.6474
 50.7256  7290.23  84.9257
 50.7676  7231.48  84.9067
 50.8096  7229.33  84.4263
 50.8516  7134.52  84.2928
 50.8936  7010.86  83.3344
 50.9356  7338.46  85.3692
 50.9776  7188.86  84.6514
 51.0196  6985.96  83.5649
 51.0616  7015.42  83.0639
 51.1036  7161.3  84.2856
 51.1456  7150.05  84.1322
 51.1876  7055.52  82.8937
 51.2296  7120.45  83.9262
 51.2716  6969.95  82.7396
 51.3136  7013.18  83.4629
 51.3556  6965.47  82.7949
 51.3976  6956.22  82.8889
 51.4396  6891.31  82.8179
 51.4816  6986  83.2337
 51.5236  7020.64  83.5352
 51.5656  6942.09  82.6543
 51.6076  7055.94  83.4162
 51.6496  6970.06  83.0974
 51.6916  6940.81  83.2926
 51.7336  6889.75  83.0707
 51.7756  6993.18  83.3755
 51.8176  6959.44  83.2961
 51.8596  6974.51  83.4008
 51.9016  7068.37  83.5586
 51.9436  6959.59  84.4264
 51.9856  6923.69  84.639
 52.0276  6990.52  83.518
 52.0696  7075.5  84.0961
 52.1116  6878.88  83.0205
 52.1536  7068.52  84.0591
 52.1956  6994.42  83.0602
 52.2376  7068.58  83.6742
 52.2796  7109.94  83.7409
 52.3216  6861.72  82.9545
 52.3636  6950.5  83.043
 52.4056  6940.01  82.8499
 52.4476  6850.81  82.682
 52.4896  6874.14  82.86
 52.5316  7053.26  83.9983
 52.5736  6873.62  82.6223
 52.6156  7073.79  84.2476
 52.6576  6909.11  82.6705
 52.6996  6841.56  83.2736
 52.7416  6824.59  83.0148
 52.7836  6847.33  83.05
 52.8256  6853.63  82.2909
 52.8676  6729.1  82.1218
 52.9096  6880.7  83.11
 52.9516  6922.68  83.7502
 52.9936  6924.39  84.1448
 53.0356  7003.84  83.6056
 53.0776  6846.28  82.9357
 53.1196  6890.09  83.3247
 53.1616  6884.18  83.3491
 53.2036  6963.11  83.7842
 53.2456  6952.36  83.8272
 53.2876  7023.41  83.9265
 53.3296  6887.44  83.4463
 53.3716  7015.59  83.9779
 53.4136  6928.35  83.6036
 53.4556  6841.49  83.1042
 53.4976  6821.8  82.8142
 53.5396  6877.32  83.559
 53.5816  6918.2  83.4407
 53.6236  6862.71  83.4555
 53.6656  6882.69  83.1868
 53.7076  6965.72  83.6465
 53.7496  6975.52  83.8446
 53.7916  6825.19  83.0566
 53.8336  6956.1  83.7445
 53.8756  6731.29  82.925
 53.9176  6791.06  82.6298
 53.9596  6678.11  82.7029
 54.0016  6652.5  81.8696
 54.0436  6518.2  81.2479
 54.0856  6709.75  81.839
 54.1276  6634.63  81.5892
 54.1696  6639.3  81.7974
 54.2116  6711.67  81.9697
 54.2536  6704.9  81.7468
 54.2956  6706.4  81.8207
 54.3376  6532.81  81.2295
 54.3796  6607.39  81.5855
 54.4216  6686.05  82.1457
 54.4636  6615.52  81.6708
 54.5056  6643.71  81.6433
 54.5476  6541.15  81.3471
 54.5896  6640.73  81.8113
 54.6316  6551.66  81.0948
 54.6736  6536.05  81.0847
 54.7156  6517.71  81.0008
 54.7576  6483.8  80.7591
 54.7996  6580.38  81.5219
 54.8416  6539.8  81.3202
 54.8836  6557.66  81.5277
 54.9256  6440.13  80.5596
 54.9676  6480.85  80.659
 55.0096  6481.85  80.7128
 55.0516  6364.51  80.2122
 55.0936  6456.11  80.4352
 55.1356  6455.96  80.5008
 55.1776  6632.49  81.8414
 55.2196  6536.23  81.0344
 55.2616  6658.26  82.0119
 55.3036  6472.93  81.0268
 55.3456  6383.33  80.608
 55.3876  6490.74  81.0119
 55.4296  6371.31  80.2532
 55.4716  6452.44  80.7884
 55.5136  6492.56  80.7909
 55.5556  6610.58  81.5936
 55.5976  6390.23  80.2857
 55.6396  6527.74  81.1073
 55.6816  6423.89  80.3017
 55.7236  6349.83  79.9054
 55.7656  6458.52  80.3187
 55.8076  6415.6  80.0451
 55.8496  6321.79  79.7818
 55.8916  6324.66  79.9998
 55.9336  6483.99  80.8366
 55.9756  6374.89  80.0152
 56.0176  6371.86  80.1585
 56.0596  6380.21  80.2022
 56.1016  6321.13  79.8453
 56.1436  6299.53  79.9645
 56.1856  6248.64  79.3816
 56.2276  6439.04  80.6529
 56.2696  6328.95  79.9325
 56.3116  6430.54  80.9554
 56.3536  6288.85  79.7135
 56.3956  6322.21  79.9111
 56.4376  6317.93  79.9283
 56.4796  6221.16  79.1187
 56.5216  6314.3  80.0918
 56.5636  6290.25  79.513
 56.6056  6416.25  80.557
 56.6476  6294.96  79.4025
 56.6896  6426.66  80.7012
 56.7316  6188.9  79.0869
 56.7736  6273.53  79.6457
 56.8156  6295.98  79.7837
 56.8576  6131.76  78.6818
 56.8996  6235.52  79.2771
 56.9416  6252.89  79.6801
 56.9836  6368.82  79.939
 57.0256  6198.35  79.1583
 57.0676  6356.49  80.2925
 57.1096  6286.48  79.6443
 57.1516  6255.59  79.4808
 57.1936  6284.26  79.4177
 57.2356  6150.68  78.9016
 57.2776  6226.9  79.3564
 57.3196  6326.95  80.336
 57.3616  6210.32  79.0871
 57.4036  6178.42  78.9634
 57.4456  6366.25  80.1343
 57.4876  6235  79.1586
 57.5296  6174.01  79.0828
 57.5716  6175.86  79.1155
 57.6136  6086.78  78.374
 57.6556  6195.22  79.1973
 57.6976  6282.04  79.5795
 57.7396  6165.54  79.1889
 57.7816  6025.49  78.6534
 57.8236  6204.24  79.5929
 57.8656  6225.41  79.3881
 57.9076  6210.36  79.3112
 57.9496  6151.65  79.3005
 57.9916  6227.36  79.2942
 58.0336  6118.83  78.888
 58.0756  6175.36  78.8934
 58.1176  6152.82  78.7419
 58.1596  6160.35  79.3744
 58.2016  5993.68  77.5013
 58.2436  6000.64  77.9535
 58.2856  5817.79  76.6801
 58.3276  5978.25  78.0811
 58.3696  5919.43  77.469
 58.4116  5966.86  77.6437
 58.4536  6034.75  77.9751
 58.4956  5877.9  77.1261
 58.5376  5884.8  76.7522
 58.5796  5877.98  77.1235
 58.6216  5881.65  76.9731
 58.6636  5858  77.0217
 58.7056  5979.2  77.6745
 58.7476  5900.88  77.6033
 58.7896  5926.96  77.4169
 58.8316  6044.39  78.1826
 58.8736  6025.66  78.066
 58.9156  5901.43  77.3043
 58.9576  5892.06  77.5591
 58.9996  5869.15  76.6714
 59.0416  5948.33  77.5427
 59.0836  5888.96  77.0696
 59.1256  5904.02  77.8675
 59.1676  5920.22  78.2855
 59.2096  5910.99  77.5283
 59.2516  5925.03  77.2055
 59.2936  6022.19  78.1635
 59.3356  5857.33  76.9658
 59.3776  5899.94  77.4122
 59.4196  5892.28  77.2913
 59.4616  5757.79  76.2748
 59.5036  5815.79  76.6927
 59.5456  6017.99  77.7085
 59.5876  5855.81  76.8424
 59.6296  5880.05  77.0695
 59.6716  5861.46  77.0047
 59.7136  5830.63  76.7903
 59.7556  5735.52  76.2944
 59.7976  5982.54  77.6635
 59.8396  5744.44  75.9992
 59.8816  5773.09  76.722
 59.9236  5869.92  77.0112
 59.9656  5881.51  77.3445
 60.0076  5930.73  77.0306
 60.0496  5818.53  76.7919
 60.0916  5967.66  77.1926
 60.1336  5746.63  76.8294
 60.1756  5723.98  77.8305
 60.1996  0.0000000E+00  0.0000000E+00