File: docs/examples/opeando_xrd/IS17_D/Data/IS17_D/17_Da_f00044.xye
# /beamlines/bl04/projects/cycle2025-II/20250340211-lsimonelli/DATA/IS17_D/17_Da_f00044.xye : mythproc.py merge -s 0.006 -l 0.5 -f /beamlines/bl04/inhouse/ff/FlatField/ff_20Nov2024rod8mm60s_17keV.raw -b True -c true -o xye /beamlines/bl04/projects/cycle2025-II/20250340211-lsimonelli/DATA/IS17_D/17_Da_00044.dat
# IsMon = [6768827, 6764811, 6769278]  IsPos = [-1.4999, -2.4885, -3.4988]
# Wave = 0.4962  CalPath /beamlines/bl04/projects/cycle2025-II/20250340211-lsimonelli/DATA/Align/Si_Pos1_25keV_f00001.cal
# Date = 2025-09-24_05:47:50 Dt = 4.8000  Bin = 0.0060  <imon> = 6767639 +/- 2008 (Min/Max) 6764811 / 6769278
# icurr 250.6759  mocoIn 1.7104E-05  mocoOut 0.8025  i15 7.08354e+06  imon 6.76764e+06  i7 6.3333  iEMpd_timer 4.8000  iEMpd_1 3.4519E-08  iEMpd_2 7.8147E-08  iEMpd_3 1.5251E-08  iEMpd_4 4.9678E-08  iEMhp_timer 4.8000  iEMhp_1 4.8976E-06  iEMhp_2 -2.4021E-08  iEMhp_3 -2.2759E-08  iEMhp_4 -2.0434E-08
#      9776
 1.5856  41006.5  207.918
 1.6276  48495.8  222.229
 1.6696  55363.4  236.606
 1.7116  63919.6  254.73
 1.7536  73456.1  271.908
 1.7956  78014.9  280.919
 1.8376  73774.4  273.611
 1.8796  62410.9  249.817
 1.9216  50623.1  225.878
 1.9636  42987.5  207.294
 2.0056  38858.9  196.325
 2.0476  36064.3  191.207
 2.0896  35175.9  187.73
 2.1316  33652.9  182.738
 2.1736  32357.7  180.609
 2.2156  32760.4  180.271
 2.2576  31620.1  177.742
 2.2996  30489.6  175.175
 2.3416  30849.9  174.801
 2.3836  30271.7  173.261
 2.4256  29552.6  171.749
 2.4676  29059  170.067
 2.5096  28881.4  169.602
 2.5516  28175.9  171.415
 2.5936  28359.3  168.51
 2.6356  27913.2  167.883
 2.6776  27693.2  166.082
 2.7196  27328.8  165.517
 2.7616  27067.2  164.496
 2.8036  26686.4  163.507
 2.8456  26913.6  164.836
 2.8876  26041.8  161.993
 2.9296  25623.5  160.84
 2.9716  25540.7  160.063
 3.0136  25217  159.11
 3.0556  25385.3  160.045
 3.0976  25033.1  157.84
 3.1396  24833.2  157.95
 3.1816  24786.7  157.737
 3.2236  24443.8  156.632
 3.2656  24254  155.062
 3.3076  24167.2  156.248
 3.3496  24559.5  156.682
 3.3916  24958.5  157.519
 3.4336  25234.2  158.974
 3.4756  25321.9  159.165
 3.5176  26407.6  162.339
 3.5596  26040.6  163.652
 3.6016  26481  162.618
 3.6436  25353.5  160.236
 3.6856  24971.8  157.297
 3.7276  24151.3  155.802
 3.7696  23843.6  154.994
 3.8116  23475  153.676
 3.8536  23413.1  153.4
 3.8956  23499.4  153.515
 3.9376  23272  153.025
 3.9796  23249.9  152.457
 4.0216  23227.9  151.421
 4.0636  23253.2  152.986
 4.1056  23318.9  152.845
 4.1476  23481.5  153.682
 4.1896  23479.3  153.535
 4.2316  23892.2  154.695
 4.2736  24302.5  155.812
 4.3156  24493.2  156.654
 4.3576  25267.5  159.041
 4.3996  25641.1  160.479
 4.4416  26107.6  161.505
 4.4836  26428.5  162.657
 4.5256  26868.4  164.609
 4.5676  26763.9  164.549
 4.6096  27291.2  164.804
 4.6516  27973.7  166.561
 4.6936  27713.1  166.597
 4.7356  28108.9  167.614
 4.7776  28083.7  167.374
 4.8196  27664.1  166.763
 4.8616  27122.6  164.738
 4.9036  26963.6  163.866
 4.9456  27012.9  164.675
 4.9876  26317  162.44
 5.0296  26625.5  163.204
 5.0716  26531.9  163.557
 5.1136  26594.4  163.601
 5.1556  26716.3  163.438
 5.1976  27141.9  164.723
 5.2396  27381  165.147
 5.2816  27197.2  165.045
 5.3236  27485.6  165.63
 5.3656  26888.6  164.746
 5.4076  26645.8  164.151
 5.4496  26829.9  164.206
 5.4916  26938.2  164.288
 5.5336  26856.1  164.049
 5.5756  26558.3  163.156
 5.6176  26756  163.196
 5.6596  26905.7  164.628
 5.7016  27179.8  164.734
 5.7436  27396.2  165.661
 5.7856  27189.4  165.102
 5.8276  27559.9  165.942
 5.8696  27579.1  166.163
 5.9116  27526.4  166.613
 5.9536  27738  166.996
 5.9956  28368.6  168.242
 6.0376  28246.2  168.526
 6.0796  28450.1  168.961
 6.1216  28433.6  169.121
 6.1636  28727.1  169.049
 6.2056  28619  169.399
 6.2476  28956.6  170.263
 6.2896  29169.9  170.571
 6.3316  29143  170.663
 6.3736  29385.7  171.269
 6.4156  29311.5  170.94
 6.4576  29462.6  170.992
 6.4996  29606.9  171.897
 6.5416  29706.7  172.321
 6.5836  29783.6  172.781
 6.6256  29610.5  171.834
 6.6676  30299.6  173.387
 6.7096  30071.8  173.583
 6.7516  30815  175.372
 6.7936  30738.3  174.572
 6.8356  31093.9  175.665
 6.8776  31154.2  176.647
 6.9196  31347.8  177.594
 6.9616  31800.9  178.283
 7.0036  32181.2  179.024
 7.0456  32193.6  178.349
 7.0876  32166.4  179.973
 7.1296  31995.4  178.631
 7.1716  31884  177.845
 7.2136  31740.2  177.233
 7.2556  32090.4  178.373
 7.2976  32120  178.956
 7.3396  31995  178.828
 7.3816  31906.4  178.79
 7.4236  32325.7  179.247
 7.4656  32340  178.768
 7.5076  32508.8  179.369
 7.5496  32426.5  179.678
 7.5916  32330.1  179.444
 7.6336  32769.6  180.554
 7.6756  33207.1  181.605
 7.7176  33323.3  182.24
 7.7596  33310.4  183.453
 7.8016  33717.2  186.742
 7.8436  33883.8  183.903
 7.8856  34553.9  185.322
 7.9276  35032.3  186.986
 7.9696  35151.5  187.63
 8.0116  36198.9  188.927
 8.0536  36215.4  189.227
 8.0956  36121.5  190.17
 8.1376  36949  191.798
 8.1796  36854.9  192.11
 8.2216  37584.9  192.722
 8.2636  37807.4  193.538
 8.3056  37688.6  194.004
 8.3476  38460.1  195.309
 8.3896  37962.9  194.123
 8.4316  38047.6  194.506
 8.4736  38280.1  194.563
 8.5156  37842.9  193.724
 8.5576  37615.6  194.129
 8.5996  37615.1  192.987
 8.6416  37617.9  194.273
 8.6836  37344.9  193.374
 8.7256  37844.5  194.125
 8.7676  37282.1  195.569
 8.8096  37190.4  192.609
 8.8516  36838  191.306
 8.8936  36651.9  190.728
 8.9356  36356.7  190.288
 8.9776  36925.7  191.866
 9.0196  36521.4  190.489
 9.0616  36568.8  190.09
 9.1036  35992.2  189.76
 9.1456  36329.6  190.005
 9.1876  36260.2  189.776
 9.2296  36249.6  189.148
 9.2716  35782.5  187.992
 9.3136  35499  187.221
 9.3556  35702.6  187.747
 9.3976  34395.9  184.799
 9.4396  34950.3  186.179
 9.4816  34409.8  184.593
 9.5236  34343.6  184.33
 9.5656  34274.7  184.471
 9.6076  34007.9  184.278
 9.6496  33790.7  183.614
 9.6916  33929.9  183.963
 9.7336  33870.7  183.58
 9.7756  34106.5  185.595
 9.8176  33087.9  182.218
 9.8596  33001.5  180.434
 9.9016  32578.5  179.264
 9.9436  32480  178.906
 9.9856  32164  178.251
 10.0276  31728.5  178.153
 10.0696  32070.2  178.148
 10.1116  30968.6  175.323
 10.1536  30997.8  175.571
 10.1956  30382.9  173.418
 10.2376  30058.2  171.99
 10.2796  30355.9  172.977
 10.3216  29964.7  172.131
 10.3636  29823.8  171.754
 10.4056  29317.2  170.691
 10.4476  29547.4  170.975
 10.4896  29040.6  168.964
 10.5316  28644.9  168.513
 10.5736  28624.8  168.856
 10.6156  28261.4  167.543
 10.6576  28175.9  165.878
 10.6996  28028.9  166.109
 10.7416  27613.7  165.108
 10.7836  27826.9  166.428
 10.8256  27241.5  165.086
 10.8676  27466.8  165.313
 10.9096  26956.6  163.792
 10.9516  26917.5  162.619
 10.9936  26794.3  162.437
 11.0356  26693.5  162.768
 11.0776  26453.2  161.352
 11.1196  26000.9  160.711
 11.1616  25831.8  159.884
 11.2036  26026.6  160.334
 11.2456  25798.6  160.331
 11.2876  25715.3  159.793
 11.3296  25391.8  158.694
 11.3716  25792.7  159.63
 11.4136  25636.4  160.037
 11.4556  25648.7  159.745
 11.4976  25785.9  159.158
 11.5396  25969.6  159.9
 11.5816  26071.5  160.658
 11.6236  27026.7  164.027
 11.6656  27391.9  164.034
 11.7076  26499.7  162.198
 11.7496  26009.5  164.672
 11.7916  25743  159.122
 11.8336  25253.7  158.523
 11.8756  24885.8  156.871
 11.9176  25021  156.962
 11.9596  24592.7  155.779
 12.0016  24506.6  156.308
 12.0436  24576.6  155.949
 12.0856  24370.8  155.821
 12.1276  24417.9  155.891
 12.1696  24424.9  155.048
 12.2116  24709.9  155.948
 12.2536  24314.2  155.524
 12.2956  24299.3  154.813
 12.3376  24163.4  154.578
 12.3796  24233.3  155.265
 12.4216  24183.9  154.329
 12.4636  23902.6  154.337
 12.5056  24128  154.333
 12.5476  24298.5  154.411
 12.5896  24184.7  154.684
 12.6316  23898.6  153.919
 12.6736  23827.5  154.178
 12.7156  23732.5  153.729
 12.7576  24025.8  154.926
 12.7996  24290.8  154.41
 12.8416  23899.1  154.212
 12.8836  24251.7  155.176
 12.9256  24780.9  155.866
 12.9676  24582.5  155.666
 13.0096  24111.5  155.253
 13.0516  24598.6  155.852
 13.0936  24554.7  156.112
 13.1356  24932.9  156.29
 13.1776  24675.5  156.474
 13.2196  25035.3  157.264
 13.2616  24885.2  157.11
 13.3036  25142.3  157.884
 13.3456  24928.4  157.363
 13.3876  24774.7  156.369
 13.4296  24895.3  156.904
 13.4716  24927.4  156.608
 13.5136  24832.5  156.465
 13.5556  24852.9  157.156
 13.5976  24786  157.078
 13.6396  25169.5  157.653
 13.6816  24652.3  156.516
 13.7236  25403.3  158.525
 13.7656  24507.9  156.234
 13.8076  24957.3  156.446
 13.8496  24484.3  155.551
 13.8916  24551.9  156.779
 13.9336  24464.1  155.728
 13.9756  24415.5  154.912
 14.0176  24208.2  154.947
 14.0596  24330.2  155.289
 14.1016  24110  154.987
 14.1436  23822.7  153.185
 14.1856  23741.3  153.225
 14.2276  23290.1  152.242
 14.2696  23549.4  152.931
 14.3116  23217.1  151.754
 14.3536  22943  151.03
 14.3956  22965  150.838
 14.4376  23157.1  151.234
 14.4796  22823  150.133
 14.5216  22586.8  150.158
 14.5636  22386.3  149.047
 14.6056  22441.7  148.807
 14.6476  22509.8  148.261
 14.6896  21993.8  147.094
 14.7316  21825  147.559
 14.7736  21720.9  146.362
 14.8156  21601.3  145.985
 14.8576  21485.1  145.443
 14.8996  20862.3  144.522
 14.9416  20543.1  143.409
 14.9836  20832.2  144.385
 15.0256  20489.8  142.122
 15.0676  20372.7  142.031
 15.1096  20522.7  142.288
 15.1516  20154.4  141.575
 15.1936  20027.3  140.544
 15.2356  19767.6  139.91
 15.2776  19712.7  139.3
 15.3196  19308.9  138.87
 15.3616  19302.1  138.592
 15.4036  19135.5  137.861
 15.4456  19552.6  139
 15.4876  19111.8  137.102
 15.5296  18921.5  136.712
 15.5716  18640.2  135.286
 15.6136  18469  134.996
 15.6556  18693.7  135.04
 15.6976  18399.1  134.048
 15.7396  18533.4  135.14
 15.7816  18133.4  133.19
 15.8236  17986  133.345
 15.8656  17907.2  132.852
 15.9076  17910.8  132.687
 15.9496  17789.3  135.026
 15.9916  17826.7  135.616
 16.0336  17392  130.831
 16.0756  17519.7  131.621
 16.1176  17588.5  131.952
 16.1596  16882.7  130.447
 16.2016  17326  130.89
 16.2436  16981.7  129.965
 16.2856  16950.9  129.391
 16.3276  16645  128.634
 16.3696  16807.8  129.083
 16.4116  16664.4  128.99
 16.4536  16880.5  129.612
 16.4956  16494.2  127.853
 16.5376  16598.9  128.447
 16.5796  16469.8  127.305
 16.6216  16493.1  127.697
 16.6636  16379.3  127.418
 16.7056  16532.3  127.873
 16.7476  16519.3  127.348
 16.7896  16249.5  127.056
 16.8316  16231.8  126.951
 16.8736  16432  127.981
 16.9156  16402.5  128.212
 16.9576  16081.2  127.762
 16.9996  16203.6  128.731
 17.0416  16235.2  127.223
 17.0836  16283.6  127.165
 17.1256  16021.8  126.154
 17.1676  16204  126.86
 17.2096  16147.3  126.512
 17.2516  16175.5  126.404
 17.2936  15950.5  125.848
 17.3356  15649  124.653
 17.3776  15683.5  124.986
 17.4196  15790.3  125.105
 17.4616  15503.7  123.881
 17.5036  15454.9  124.059
 17.5456  15253  123.881
 17.5876  15149.8  122.508
 17.6296  15232.5  122.663
 17.6716  15068.5  122.573
 17.7136  14793.4  121.581
 17.7556  14819.2  121.984
 17.7976  14817  121.59
 17.8396  14801.3  121.153
 17.8816  14637.5  121.018
 17.9236  14722.6  121.184
 17.9656  14714.2  121.843
 18.0076  14606.2  120.809
 18.0496  14586  119.871
 18.0916  14572.1  120.342
 18.1336  14601.8  120.565
 18.1756  14631.3  120.226
 18.2176  14398.8  119.486
 18.2596  14277.9  118.733
 18.3016  14528.7  120.016
 18.3436  14480.3  120.052
 18.3856  14141.5  118.533
 18.4276  14374.2  119.19
 18.4696  14188.2  118.512
 18.5116  14311  119.307
 18.5536  14374.3  119.929
 18.5956  14174.8  118.649
 18.6376  14183.5  119.095
 18.6796  14132.6  118.199
 18.7216  14273.6  119.353
 18.7636  13879.5  117.602
 18.8056  14030.1  118.188
 18.8476  14107.8  119.133
 18.8896  14004.5  118.036
 18.9316  14204.8  118.706
 18.9736  13904.4  117.303
 19.0156  13888.9  117.646
 19.0576  13956.6  116.796
 19.0996  14042.8  117.865
 19.1416  13764.4  117.077
 19.1836  13913.3  117.317
 19.2256  13821.3  117.129
 19.2676  13844.2  117.329
 19.3096  13908.3  117.847
 19.3516  13830.1  117.47
 19.3936  13747.3  117.026
 19.4356  13920.8  117.621
 19.4776  13997.7  118.049
 19.5196  13785.1  117.001
 19.5616  13772.4  117.205
 19.6036  13767.9  116.683
 19.6456  13787.5  116.883
 19.6876  13862.9  116.853
 19.7296  13837.2  117.194
 19.7716  13759.1  116.879
 19.8136  13957.4  118.072
 19.8556  14104.1  118.174
 19.8976  13887  117.326
 19.9396  13909.5  116.998
 19.9816  14083.1  117.971
 20.0236  14057.4  118.078
 20.0656  14397.3  119.493
 20.1076  14344.8  119.736
 20.1496  14551.9  120.608
 20.1916  14940.5  121.701
 20.2336  14959.5  121.713
 20.2756  14916.9  121.985
 20.3176  14497.2  120
 20.3596  14302.3  119.169
 20.4016  14157.2  118.359
 20.4436  14021.7  118.366
 20.4856  13671.7  116.661
 20.5276  13659  117.074
 20.5696  13634.6  116.415
 20.6116  13513.6  116.18
 20.6536  13453.6  115.484
 20.6956  13447.5  115.525
 20.7376  13408.1  115.594
 20.7796  13336.7  114.964
 20.8216  13624.9  115.909
 20.8636  13311.8  114.931
 20.9056  13251.4  114.625
 20.9476  13135.4  113.961
 20.9896  13393.7  114.947
 21.0316  13335.4  114.587
 21.0736  13313.1  115.019
 21.1156  13251.3  114.914
 21.1576  13266.5  115.025
 21.1996  13253.9  114.949
 21.2416  13140  114.284
 21.2836  13082.8  114.004
 21.3256  13084.9  114.082
 21.3676  13160.3  113.97
 21.4096  12984.8  113.517
 21.4516  13004.9  113.484
 21.4936  12762.6  112.678
 21.5356  13088.2  114.048
 21.5776  12888.4  113.007
 21.6196  12960.7  113.347
 21.6616  12889.9  113.131
 21.7036  12923.2  113.056
 21.7456  12939.5  113.206
 21.7876  12865.9  112.635
 21.8296  12860.8  112.469
 21.8716  12859.1  112.693
 21.9136  12964.9  113.356
 21.9556  12796.1  112.289
 21.9976  12662.1  111.712
 22.0396  12732.8  112.284
 22.0816  12793.4  113.088
 22.1236  12923.7  113.111
 22.1656  12732.8  112.46
 22.2076  12952.5  112.844
 22.2496  12761.4  112.041
 22.2916  12904.6  112.531
 22.3336  12726.3  112.471
 22.3756  12715.9  112.164
 22.4176  12721.5  112.043
 22.4596  12512.1  111.699
 22.5016  12690.6  111.976
 22.5436  12925  112.896
 22.5856  12750.7  112.386
 22.6276  12672.3  112.18
 22.6696  12769.3  112.949
 22.7116  12671.3  112.042
 22.7536  12629.1  111.824
 22.7956  12680.9  111.391
 22.8376  12598.5  111.537
 22.8796  12723  111.893
 22.9216  12896.9  113.2
 22.9636  12800.8  111.927
 23.0056  12480.3  110.652
 23.0476  12692.3  112.156
 23.0896  13155.1  113.554
 23.1316  12767.9  112.311
 23.1736  12661.1  114.802
 23.2156  12772.5  112.635
 23.2576  12698.7  112.436
 23.2996  12807.5  112.711
 23.3416  12806.7  113.226
 23.3836  12722.8  112.09
 23.4256  12856.6  112.79
 23.4676  12864  112.519
 23.5096  12747.1  112.686
 23.5516  12714.1  111.814
 23.5936  12662.8  112.5
 23.6356  12873.9  113.102
 23.6776  12710  112.591
 23.7196  12362  110.613
 23.7616  12841.1  112.655
 23.8036  12692.2  112.038
 23.8456  12695.1  111.618
 23.8876  12341.5  110.407
 23.9296  12299.3  110.707
 23.9716  12387  110.299
 24.0136  12441.5  111.439
 24.0556  12428.8  111.113
 24.0976  12306.7  110.37
 24.1396  12254.2  112.808
 24.1816  12320.7  111.861
 24.2236  12208.2  110.629
 24.2656  12106.1  109.639
 24.3076  11911.6  109.003
 24.3496  12104  109.777
 24.3916  12173.9  110.136
 24.4336  11983.5  109.481
 24.4756  11787.9  108.448
 24.5176  11806.8  108.19
 24.5596  11836.6  108.452
 24.6016  11573.8  107.525
 24.6436  11683.5  107.527
 24.6856  11625.5  107.024
 24.7276  11693.3  107.655
 24.7696  11418.5  106.488
 24.8116  11494.5  107.029
 24.8536  11658.2  107.776
 24.8956  11531.1  106.93
 24.9376  11473  106.598
 24.9796  11453.7  106.863
 25.0216  11225.6  105.895
 25.0636  11340.2  106.098
 25.1056  11425.7  106.935
 25.1476  11320.2  108.353
 25.1896  11488.8  107.642
 25.2316  11438.3  106.664
 25.2736  11240.5  105.398
 25.3156  11207.3  105.311
 25.3576  11290.8  106.132
 25.3996  11286.9  106.08
 25.4416  11253.4  105.915
 25.4836  10908.5  104.797
 25.5256  11166.6  105.398
 25.5676  11130.1  104.96
 25.6096  11096.1  105.37
 25.6516  11090.6  104.844
 25.6936  11006.2  104.752
 25.7356  11034.4  105.025
 25.7776  11129  105.073
 25.8196  10927.4  104.351
 25.8616  10944.6  104.355
 25.9036  11139.6  104.753
 25.9456  10883.1  104.137
 25.9876  10835.9  103.968
 26.0296  10999.1  104.35
 26.0716  10818.6  103.821
 26.1136  10998.8  104.628
 26.1556  11041.5  104.203
 26.1976  10869.4  104.316
 26.2396  10935.3  104.044
 26.2816  10828.3  103.879
 26.3236  10921.9  104.498
 26.3656  10828.1  103.762
 26.4076  11064.8  105.105
 26.4496  11364.2  106.006
 26.4916  10932  103.97
 26.5336  10938  104.325
 26.5756  11045.1  104.7
 26.6176  10900  104.059
 26.6596  10783.9  103.807
 26.7016  10864.6  103.956
 26.7436  10732.2  103.444
 26.7856  10710.5  103.323
 26.8276  10682.9  103.145
 26.8696  10664.7  102.934
 26.9116  10616.8  102.637
 26.9536  10579.6  102.508
 26.9956  10554.4  102.426
 27.0376  10466.8  102.198
 27.0796  10545.1  102.405
 27.1216  10514  102.244
 27.1636  10382.1  101.761
 27.2056  10443.5  101.952
 27.2476  10456.2  102.015
 27.2896  10465.3  102.173
 27.3316  10361  101.37
 27.3736  10431.2  101.984
 27.4156  10220.5  100.789
 27.4576  10314.1  101.483
 27.4996  10271.1  100.864
 27.5416  10372.8  101.682
 27.5836  10242.6  100.86
 27.6256  10581.1  102.674
 27.6676  10491.2  102.269
 27.7096  10286.9  101.131
 27.7516  10095.5  100.339
 27.7936  10169  100.863
 27.8356  10207.8  100.684
 27.8776  10220.9  100.784
 27.9196  10032.1  99.7062
 27.9616  10128.9  100.368
 28.0036  10139  100.406
 28.0456  10238.6  101.026
 28.0876  10130.1  100.578
 28.1296  10044.1  99.9926
 28.1716  10135.8  100.452
 28.2136  10140.8  100.449
 28.2556  10016.5  99.9354
 28.2976  10015.4  99.9259
 28.3396  10049.3  99.9016
 28.3816  10121.7  100.238
 28.4236  10086.5  100.22
 28.4656  9802.8  98.8306
 28.5076  9918.83  99.055
 28.5496  9918.97  99.3157
 28.5916  10079  99.9152
 28.6336  9902.74  99.3809
 28.6756  10030.5  99.2201
 28.7176  9881.59  99.0291
 28.7596  9890.17  98.971
 28.8016  9912.07  99.1195
 28.8436  9658.19  98.0776
 28.8856  9914.29  99.2162
 28.9276  9854.6  99.1619
 28.9696  9851.76  98.8092
 29.0116  9771.83  98.5912
 29.0536  9695.95  98.4103
 29.0956  9800.07  98.6538
 29.1376  9670.92  97.9582
 29.1796  9717.44  98.2445
 29.2216  9645.95  97.7244
 29.2636  9755.37  98.2664
 29.3056  9741.01  98.0678
 29.3476  9759.59  98.6878
 29.3896  9730.74  98.639
 29.4316  9911.92  98.8923
 29.4736  9858.6  98.682
 29.5156  9770.19  98.159
 29.5576  9789.67  99.0156
 29.5996  9774.87  98.1894
 29.6416  9585.67  97.3556
 29.6836  9668.71  97.6975
 29.7256  9601.5  97.9262
 29.7676  9633.88  97.7461
 29.8096  9713.76  98.0975
 29.8516  9507.89  97.3818
 29.8936  9623.55  98.0696
 29.9356  9722.74  98.3265
 29.9776  9575.98  97.7309
 30.0196  9646.12  97.4838
 30.0616  9550.64  97.3677
 30.1036  9722.22  98.0677
 30.1456  9631.53  97.8332
 30.1876  9484.78  97.0728
 30.2296  9462.78  96.8988
 30.2716  9580.22  97.1403
 30.3136  9653.34  98.3657
 30.3556  9645.4  98.3402
 30.3976  9515.24  99.1988
 30.4396  9613.09  97.0225
 30.4816  9673.34  96.9182
 30.5236  9413.93  95.6341
 30.5656  9573.35  97.0917
 30.6076  9512.88  96.2161
 30.6496  9480.48  96.4352
 30.6916  9478.6  96.5189
 30.7336  9438.06  96.4643
 30.7756  9557.5  97.1596
 30.8176  9472.95  96.6489
 30.8596  9398.15  96.0302
 30.9016  9433.58  96.5587
 30.9436  9532.15  96.8121
 30.9856  9503.7  96.7765
 31.0276  9623.44  96.9847
 31.0696  9335.94  96.1057
 31.1116  9437.52  96.6027
 31.1536  9404.62  96.3192
 31.1956  9403.42  96.3992
 31.2376  9229.81  95.5128
 31.2796  9293.23  95.3792
 31.3216  9222.84  94.9617
 31.3636  9381.68  96.4815
 31.4056  9340.53  97.5949
 31.4476  9291.25  95.2225
 31.4896  9382.73  96.1948
 31.5316  9357.67  95.5097
 31.5736  9315.53  95.0702
 31.6156  9379.33  95.4137
 31.6576  9427.89  95.75
 31.6996  9228.91  94.4135
 31.7416  9231.07  95.4891
 31.7836  9243.52  94.5701
 31.8256  9167.8  94.5272
 31.8676  9140.24  94.3081
 31.9096  9035.58  94.1201
 31.9516  9072.97  94.471
 31.9936  9063.3  94.2534
 32.0356  9112.66  94.563
 32.0776  9068  94.2236
 32.1196  9146.86  94.72
 32.1616  9136.21  94.1267
 32.2036  9060.86  94.241
 32.2456  9149.33  95.0878
 32.2876  9118.42  94.2606
 32.3296  8952.41  93.5248
 32.3716  9118.72  94.4904
 32.4136  9023.19  94.2066
 32.4556  9204.78  94.577
 32.4976  9167.54  94.2375
 32.5396  9039.66  93.6533
 32.5816  9020.47  93.6693
 32.6236  9155.19  94.4401
 32.6656  9052.08  94.4493
 32.7076  8965.58  93.6521
 32.7496  9025.33  93.6318
 32.7916  9086.61  93.9073
 32.8336  9180.84  94.4945
 32.8756  9104  93.8157
 32.9176  9012.28  93.8196
 32.9596  8897.52  93.2922
 33.0016  8980.77  93.5249
 33.0436  9062.8  94.1237
 33.0856  8870.09  93.1934
 33.1276  8801.73  92.5693
 33.1696  8981.71  93.3469
 33.2116  9024.68  93.8067
 33.2536  8939.25  93.3554
 33.2956  8973.02  93.6135
 33.3376  8871.47  92.8243
 33.3796  8936.85  93.3755
 33.4216  8971.37  93.1483
 33.4636  8976.76  93.3237
 33.5056  8854.5  92.9372
 33.5476  8780.52  92.528
 33.5896  9038.28  93.6283
 33.6316  8816.53  92.8072
 33.6736  8840.39  93.1821
 33.7156  8774.82  92.8743
 33.7576  8965.18  93.4995
 33.7996  9032.79  93.6268
 33.8416  8793.66  92.5517
 33.8836  8918  92.9874
 33.9256  8803.77  92.4489
 33.9676  8938.08  93.044
 34.0096  8648.32  91.8321
 34.0516  8709.41  91.8056
 34.0936  8644.19  91.724
 34.1356  8864.33  92.6228
 34.1776  8737.28  91.9709
 34.2196  8760.95  92.2734
 34.2616  8558.13  91.3392
 34.3036  8594.64  91.77
 34.3456  8594.26  91.5312
 34.3876  8609.97  91.5759
 34.4296  8701.94  91.7556
 34.4716  8691.57  91.8473
 34.5136  8762.87  92.4322
 34.5556  8634.16  92.0027
 34.5976  8724.2  92.2814
 34.6396  8608.06  91.3797
 34.6816  8667.76  91.8034
 34.7236  8678.33  91.6488
 34.7656  8602.31  91.4437
 34.8076  8512.81  91.2844
 34.8496  8612.35  91.6757
 34.8916  8611.18  91.5428
 34.9336  8748.8  92.2346
 34.9756  8814.54  92.473
 35.0176  8569.71  91.7406
 35.0596  8562.7  91.5224
 35.1016  8484.49  90.8739
 35.1436  8622.94  91.292
 35.1856  8596.31  91.2835
 35.2276  8686.21  91.9387
 35.2696  8590.22  91.6187
 35.3116  8624.85  91.8982
 35.3536  8586.15  91.3973
 35.3956  8569.87  91.0209
 35.4376  8600.77  91.7292
 35.4796  8626.11  91.9378
 35.5216  8470.28  91.0569
 35.5636  8362.65  91.224
 35.6056  8568.24  91.3508
 35.6476  8561.66  91.2106
 35.6896  8586.33  91.5112
 35.7316  8443.42  90.6389
 35.7736  8525.64  91.2791
 35.8156  8444.59  90.8415
 35.8576  8445.22  91.0977
 35.8996  8643.79  92.117
 35.9416  8712.62  91.9729
 35.9836  8388.25  90.6114
 36.0256  8587.04  91.6975
 36.0676  8531.6  90.9373
 36.1096  8336.01  90.2415
 36.1516  8417.96  90.5743
 36.1936  8430.18  90.4883
 36.2356  8346.23  90.6797
 36.2776  8339.34  90.1186
 36.3196  8429.3  90.2773
 36.3616  8366.51  90.0721
 36.4036  8336.29  89.9575
 36.4456  8402.01  90.5251
 36.4876  8276.4  89.789
 36.5296  8431.01  90.6571
 36.5716  8417.43  91.3772
 36.6136  8413.14  90.1203
 36.6556  8379.95  90.1478
 36.6976  8379.03  90.6471
 36.7396  8285.46  89.8738
 36.7816  8294.06  90.2918
 36.8236  8222.68  89.8269
 36.8656  8365.39  90.6749
 36.9076  8232.64  89.9588
 36.9496  8289.49  90.1245
 36.9916  8230.52  89.4361
 37.0336  8398.96  90.6604
 37.0756  8351.63  90.1993
 37.1176  8095.77  89.0747
 37.1596  8234.38  89.8404
 37.2016  8190  89.7802
 37.2436  8198.69  89.1899
 37.2856  8123.82  89.0375
 37.3276  8419.07  89.9818
 37.3696  8189.44  89.6379
 37.4116  8297.93  90.1229
 37.4536  8190.32  89.4096
 37.4956  8080.74  88.8456
 37.5376  8259.53  91.3999
 37.5796  8021.67  90.0191
 37.6216  8028.84  88.3325
 37.6636  8058.7  88.3895
 37.7056  8075.96  88.6765
 37.7476  8080.57  88.238
 37.7896  8036.17  88.4952
 37.8316  7948.33  88.1789
 37.8736  8161.99  88.8818
 37.9156  7986.69  87.9223
 37.9576  8133.22  88.5952
 37.9996  8048.86  87.867
 38.0416  8199.21  89.5105
 38.0836  8210.55  89.4752
 38.1256  8055.76  88.5894
 38.1676  7979.85  88.3033
 38.2096  7974.19  87.8965
 38.2516  8132.73  88.9678
 38.2936  8130.64  88.7562
 38.3356  8128.43  88.658
 38.3776  7900.37  87.6798
 38.4196  8033.67  88.2723
 38.4616  8057.46  88.6327
 38.5036  8098.97  88.7115
 38.5456  8023.81  89.1446
 38.5876  8072.47  89.4513
 38.6296  7869.14  87.2974
 38.6716  7835.57  86.908
 38.7136  7916.74  87.2989
 38.7556  7907.52  87.7429
 38.7976  7929.62  87.8112
 38.8396  7912.95  88.1715
 38.8816  7858.66  87.6548
 38.9236  7916.75  87.7844
 38.9656  7977.44  88.0334
 39.0076  7909.28  87.065
 39.0496  7956.13  87.8535
 39.0916  7999.32  87.7403
 39.1336  7843.61  87.3009
 39.1756  7821.14  87.2411
 39.2176  7838.81  87.8719
 39.2596  7980.38  88.5783
 39.3016  7837.4  87.3616
 39.3436  7827.88  87.7268
 39.3856  7818.64  87.1282
 39.4276  7977.6  88.5004
 39.4696  7875.13  87.5627
 39.5116  7754.4  87.3909
 39.5536  7993.18  89.1527
 39.5956  8056.77  88.6056
 39.6376  8000.11  88.2924
 39.6796  8053.32  88.33
 39.7216  7988.27  88.0656
 39.7636  8001.97  88.718
 39.8056  8051.59  88.7634
 39.8476  7946.13  88.4429
 39.8896  7855.44  87.5614
 39.9316  7885.06  87.9861
 39.9736  7930.4  87.8093
 40.0156  7940.84  87.6872
 40.0576  7957.18  88.1464
 40.0996  8045.34  87.8027
 40.1416  8035.79  88.5478
 40.1836  7999.27  88.2311
 40.2256  7981.47  88.1856
 40.2676  7875.51  87.6997
 40.3096  8065.45  88.6823
 40.3516  8051.94  88.7186
 40.3936  8111.36  88.5966
 40.4356  7935.77  87.8283
 40.4776  7993.36  88.557
 40.5196  8104.75  89.3001
 40.5616  8102.58  88.9252
 40.6036  7898.85  88.0566
 40.6456  8058.46  88.5445
 40.6876  8026.51  88.3567
 40.7296  7989.47  88.2905
 40.7716  7929.45  88.0856
 40.8136  7915.69  87.9588
 40.8556  7978.86  88.4344
 40.8976  8082.22  88.927
 40.9396  7936.2  88.4699
 40.9816  8065.4  88.4682
 41.0236  8144.34  88.6767
 41.0656  8192.85  89.491
 41.1076  8043.22  88.4384
 41.1496  7986.61  88.0373
 41.1916  7977.35  88.3146
 41.2336  7933.53  88.0514
 41.2756  8023.38  88.1571
 41.3176  7913.97  88.1625
 41.3596  8016.73  88.4616
 41.4016  7947.48  88.34
 41.4436  8124.27  89.1009
 41.4856  8071.2  88.9821
 41.5276  7936.14  88.2475
 41.5696  8035.81  88.4161
 41.6116  7867.4  87.8898
 41.6536  8006.46  88.5203
 41.6956  7881.69  87.8805
 41.7376  7915.66  88.1012
 41.7796  7883.29  87.8431
 41.8216  8001.48  88.6979
 41.8636  7974.23  88.4854
 41.9056  7904.31  87.8904
 41.9476  8026.96  88.797
 41.9896  7970.99  88.154
 42.0316  7850.39  87.564
 42.0736  7915.48  88.0389
 42.1156  7984.46  88.2615
 42.1576  7911.21  87.9563
 42.1996  8013.19  88.6636
 42.2416  7961.76  87.961
 42.2836  7913.02  87.8028
 42.3256  7842.84  87.5257
 42.3676  7965.43  88.0052
 42.4096  7916.66  87.7076
 42.4516  7885.36  87.6162
 42.4936  7795.12  87.1851
 42.5356  7941.68  88.1349
 42.5776  7862.46  87.6317
 42.6196  7983.74  88.3657
 42.6616  7789.94  87.4499
 42.7036  7958.79  87.7746
 42.7456  7961.12  88.1451
 42.7876  7913.62  87.9841
 42.8296  7820.41  87.2925
 42.8716  7854.93  87.6491
 42.9136  7798.61  87.1242
 42.9556  7947.01  88.0827
 42.9976  7866.31  87.5971
 43.0396  7868.82  87.3422
 43.0816  7742.33  87.0094
 43.1236  7858.81  87.7259
 43.1656  7879.69  87.6724
 43.2076  7775.01  87.1868
 43.2496  7776.62  87.0125
 43.2916  7789.51  87.4537
 43.3336  7815.81  87.4327
 43.3756  7707.55  86.5842
 43.4176  7632.3  86.2431
 43.4596  7768.46  86.8637
 43.5016  7745.84  87.1443
 43.5436  7692.72  86.7413
 43.5856  7744.97  87.0598
 43.6276  7767.99  87.0893
 43.6696  7733.4  87.0388
 43.7116  7834.72  87.216
 43.7536  7766.75  87.3294
 43.7956  7665.88  87.9439
 43.8376  7728.42  86.8526
 43.8796  7666.78  86.5788
 43.9216  7587.93  86.0566
 43.9636  7768.36  87.1771
 44.0056  7686.84  86.9468
 44.0476  7739.74  86.8769
 44.0896  7585.19  86.3528
 44.1316  7576.44  85.9765
 44.1736  7665.44  86.4544
 44.2156  7739.44  86.7241
 44.2576  7683.47  86.737
 44.2996  7675.4  86.6672
 44.3416  7577.82  85.8672
 44.3836  7570.44  86.1602
 44.4256  7460.79  85.1679
 44.4676  7509.2  85.6092
 44.5096  7614.55  86.3516
 44.5516  7631.5  86.41
 44.5936  7389.09  84.9792
 44.6356  7545.07  85.6121
 44.6776  7511.72  85.7449
 44.7196  7504.33  85.9976
 44.7616  7581.42  87.7691
 44.8036  7357.26  84.8995
 44.8456  7547.73  86.185
 44.8876  7442.33  85.4376
 44.9296  7580.7  85.6843
 44.9716  7452.07  85.3771
 45.0136  7407.81  85.0605
 45.0556  7587.57  86.0603
 45.0976  7390.54  85.0995
 45.1396  7432.91  85.1039
 45.1816  7381.68  84.7386
 45.2236  7519.4  85.4304
 45.2656  7487.14  85.7516
 45.3076  7421.91  85.1584
 45.3496  7394.07  85.3046
 45.3916  7447.25  85.8758
 45.4336  7406.81  85.4833
 45.4756  7346.89  85.0005
 45.5176  7450.82  85.2127
 45.5596  7310.88  84.5289
 45.6016  7313.87  84.9622
 45.6436  7421.03  84.7635
 45.6856  7395.12  85.2731
 45.7276  7222.06  85.5805
 45.7696  7357.21  86.0453
 45.8116  7361.53  85.523
 45.8536  7243.69  84.7214
 45.8956  7417.63  85.0857
 45.9376  7455.28  84.7634
 45.9796  7395.56  85.1142
 46.0216  7336.82  85.1053
 46.0636  7682.46  86.2237
 46.1056  7443.61  84.8564
 46.1476  7274.19  84.4729
 46.1896  7391.83  85.3015
 46.2316  7361.14  84.9975
 46.2736  7240.38  84.6609
 46.3156  7390.2  85.1185
 46.3576  7352.43  85.1017
 46.3996  7264.72  84.7462
 46.4416  7348.26  84.8132
 46.4836  7334.27  85.0859
 46.5256  7316.08  84.9241
 46.5676  7301.39  84.9499
 46.6096  7438.2  85.6842
 46.6516  7343.22  84.1688
 46.6936  7384.33  84.9029
 46.7356  7378.68  84.9703
 46.7776  7261.2  85.1301
 46.8196  7192.51  84.3242
 46.8616  7137.21  83.9448
 46.9036  7159.38  83.7408
 46.9456  7142.21  83.2796
 46.9876  7200.5  83.7067
 47.0296  7231.97  84.5707
 47.0716  7102.98  83.6377
 47.1136  7097.61  83.2879
 47.1556  7038.72  82.8089
 47.1976  7221.33  83.9598
 47.2396  7118  83.7506
 47.2816  7151.22  83.6557
 47.3236  7175.46  84.1582
 47.3656  7156.46  83.9848
 47.4076  7088.11  83.3794
 47.4496  7112.25  83.6161
 47.4916  7065.13  83.5235
 47.5336  7155.55  83.8757
 47.5756  7104.6  83.6956
 47.6176  7071.94  83.4007
 47.6596  7119.08  83.3997
 47.7016  7234.21  83.8776
 47.7436  7122.58  83.5657
 47.7856  7231.3  84.2296
 47.8276  7100.74  83.5116
 47.8696  7086.38  83.5103
 47.9116  7150.04  83.6053
 47.9536  7049.77  82.9564
 47.9956  7024  83.5079
 48.0376  7003.66  83.1662
 48.0796  7097.92  83.8458
 48.1216  7096.06  83.6643
 48.1636  7175.55  83.6982
 48.2056  7107.65  83.5668
 48.2476  7034.62  83.4398
 48.2896  7068.47  83.5513
 48.3316  7078.06  83.5478
 48.3736  7002.69  83.118
 48.4156  6989.59  82.9058
 48.4576  6956.03  82.9926
 48.4996  7159.81  83.6604
 48.5416  7106.1  83.6636
 48.5836  7018.81  82.835
 48.6256  7040.29  83.1584
 48.6676  6954.13  83.1563
 48.7096  6973.04  82.5427
 48.7516  7064.49  83.2373
 48.7936  6904.74  82.3531
 48.8356  7075.68  83.415
 48.8776  6934.27  83.0674
 48.9196  7044.95  83.1705
 48.9616  7061.41  83.6536
 49.0036  6915.73  83.1232
 49.0456  6977.67  83.4699
 49.0876  6864.47  82.4469
 49.1296  6773.01  81.9502
 49.1716  6799.43  81.9915
 49.2136  6877.06  82.3776
 49.2556  6954.91  82.8796
 49.2976  6860.31  82.374
 49.3396  6872.84  82.5114
 49.3816  7050.62  83.0025
 49.4236  6888.91  82.4678
 49.4656  6847.95  82.236
 49.5076  6941.41  82.5451
 49.5496  6915.8  82.4596
 49.5916  6902.42  82.2912
 49.6336  6871.53  82.3117
 49.6756  6936.43  82.9306
 49.7176  6821.15  82.1805
 49.7596  6867.7  82.2258
 49.8016  6902  82.3583
 49.8436  6875.2  82.4883
 49.8856  6880.32  82.5204
 49.9276  6746.47  81.8236
 49.9696  6798.85  82.118
 50.0116  6924.07  82.9932
 50.0536  6836.58  82.4153
 50.0956  6822.4  82.3972
 50.1376  6874.28  82.4119
 50.1796  6758.62  81.9916
 50.2216  6858.89  82.5929
 50.2636  6788.06  81.7849
 50.3056  6747.23  81.718
 50.3476  6734.18  81.6495
 50.3896  6759.06  81.7786
 50.4316  6860.85  82.2274
 50.4736  6678.48  81.339
 50.5156  6817.13  82.1681
 50.5576  6786.31  81.7543
 50.5996  6798.21  82.0984
 50.6416  6694.69  81.3941
 50.6836  6806.26  82.1393
 50.7256  6831.26  82.2012
 50.7676  6740.8  81.9417
 50.8096  6783.81  81.778
 50.8516  6740  81.9308
 50.8936  6645.17  81.136
 50.9356  6884.03  82.6886
 50.9776  6738.53  81.9493
 51.0196  6626.6  81.4104
 51.0616  6674.45  81.0386
 51.1036  6702.55  81.5571
 51.1456  6803.31  82.0868
 51.1876  6714.71  80.893
 51.2296  6628.24  80.9957
 51.2716  6607.5  80.5748
 51.3136  6665.91  81.3882
 51.3556  6711.53  81.2874
 51.3976  6591.07  80.7094
 51.4396  6432.13  80.0308
 51.4816  6653.15  81.2373
 51.5236  6631.5  81.1976
 51.5656  6635.68  80.831
 51.6076  6611.51  80.7665
 51.6496  6656.84  81.226
 51.6916  6568.55  81.0418
 51.7336  6668.3  81.741
 51.7756  6660.69  81.401
 51.8176  6617.53  81.2357
 51.8596  6505.22  80.5642
 51.9016  6822.07  82.1045
 51.9436  6612.49  82.2886
 51.9856  6492.06  81.9462
 52.0276  6582.65  81.0331
 52.0696  6508.76  80.6412
 52.1116  6543.42  80.9705
 52.1536  6574.64  81.0534
 52.1956  6680.38  81.165
 52.2376  6600.17  80.8521
 52.2796  6663.68  81.0444
 52.3216  6397.43  80.0926
 52.3636  6530.03  80.4999
 52.4056  6595.01  80.7572
 52.4476  6519.54  80.6565
 52.4896  6500.42  80.59
 52.5316  6488.29  80.5542
 52.5736  6515.12  80.45
 52.6156  6433.5  80.3105
 52.6576  6556.37  80.5228
 52.6996  6294  79.858
 52.7416  6446.55  80.6698
 52.7836  6580.27  81.3831
 52.8256  6625.27  80.8718
 52.8676  6413.93  80.1611
 52.9096  6503.06  80.7974
 52.9516  6467.03  80.9404
 52.9936  6416.26  81.017
 53.0356  6355.54  79.6519
 53.0776  6340.87  79.8352
 53.1196  6529.48  81.1236
 53.1616  6451.95  80.6845
 53.2036  6269.55  79.4909
 53.2456  6358.24  80.146
 53.2876  6319.4  79.6195
 53.3296  6405.14  80.478
 53.3716  6372.38  80.0217
 53.4136  6298.73  79.7091
 53.4556  6316.72  79.8516
 53.4976  6143.13  78.5979
 53.5396  6404.37  80.6481
 53.5816  6251.07  79.3071
 53.6236  6339.9  80.2148
 53.6656  6316.26  79.6979
 53.7076  6308.18  79.6053
 53.7496  6312.15  79.7446
 53.7916  6420.74  80.5562
 53.8336  6297.94  79.6783
 53.8756  6297.42  80.2216
 53.9176  6294.64  79.5663
 53.9596  6342.32  80.6163
 54.0016  6256.27  79.4135
 54.0436  6276.78  79.7494
 54.0856  6346.96  79.6299
 54.1276  6360.18  79.9068
 54.1696  6252.86  79.399
 54.2116  6220.94  78.9582
 54.2536  6303.67  79.3018
 54.2956  6352.57  79.6549
 54.3376  6204.87  79.1997
 54.3796  6323.92  79.8598
 54.4216  6394.88  80.3498
 54.4636  6311.04  79.7778
 54.5056  6351.21  79.8517
 54.5476  6273.79  79.6941
 54.5896  6296.34  79.6707
 54.6316  6338.84  79.7997
 54.6736  6289.75  79.5218
 54.7156  6283.18  79.5449
 54.7576  6253.66  79.3568
 54.7996  6302.75  79.8022
 54.8416  6236.83  79.4365
 54.8836  6219.5  79.4335
 54.9256  6256.91  79.4215
 54.9676  6299.42  79.5521
 55.0096  6142.36  78.6214
 55.0516  6314.21  79.8855
 55.0936  6146.71  78.5166
 55.1356  6238.74  79.1436
 55.1776  6275.09  79.6358
 55.2196  6263.35  79.3473
 55.2616  6227.36  79.3272
 55.3036  6188.78  79.2478
 55.3456  6149.75  79.1397
 55.3876  6260.86  79.5973
 55.4296  6297.45  79.8085
 55.4716  6218.3  79.3363
 55.5136  6228.38  79.1631
 55.5556  6246.63  79.3443
 55.5976  6312  79.8204
 55.6396  6201.84  79.0653
 55.6816  6320.46  79.6928
 55.7236  6295.57  79.5789
 55.7656  6314.79  79.4592
 55.8076  6256.09  79.075
 55.8496  6153.31  78.7376
 55.8916  6155.7  78.9194
 55.9336  6209.62  79.1131
 55.9756  6128.09  78.4874
 56.0176  6108.64  78.5153
 56.0596  6274.63  79.5572
 56.1016  6242.82  79.3995
 56.1436  6120.3  78.8461
 56.1856  6176.74  78.9526
 56.2276  6126.52  78.6794
 56.2696  6161.4  78.8716
 56.3116  6136.73  79.1195
 56.3536  6214.96  79.2836
 56.3956  6122.42  78.679
 56.4376  6136.69  78.8054
 56.4796  6228.3  79.1963
 56.5216  6109.25  78.8019
 56.5636  6203.79  79.0043
 56.6056  6137.65  78.8063
 56.6476  6234.85  79.0564
 56.6896  6202.93  79.299
 56.7316  6198.22  79.1795
 56.7736  6297.58  79.8097
 56.8156  6213.04  79.2681
 56.8576  6183.55  79.0296
 56.8996  6117  78.5381
 56.9416  6175.66  79.2182
 56.9836  6074.39  78.0749
 57.0256  6082.91  78.4463
 57.0676  6165.9  79.1077
 57.1096  6165.81  78.8989
 57.1516  6222.12  79.2845
 57.1936  6161.68  78.6836
 57.2356  6102.33  78.6233
 57.2776  6150.18  78.8806
 57.3196  6168.79  79.3738
 57.3616  6206.01  79.1051
 57.4036  6140.23  78.7448
 57.4456  6076.31  78.2974
 57.4876  6120.72  78.4354
 57.5296  6124  78.7068
 57.5716  6039.42  78.2427
 57.6136  6111.44  78.5367
 57.6556  6103.13  78.6081
 57.6976  6122.81  78.5687
 57.7396  5962.44  77.9013
 57.7816  6063.86  78.9204
 57.8236  6112.51  79.0311
 57.8656  6185.02  79.1521
 57.9076  6117.43  78.7517
 57.9496  6131.29  79.1853
 57.9916  6112.21  78.5782
 58.0336  6109.33  78.8292
 58.0756  6097.25  78.3738
 58.1176  6175.3  78.8888
 58.1596  6114.62  79.0692
 58.2016  6198.03  78.8219
 58.2436  6117.72  78.7309
 58.2856  6086.41  78.4411
 58.3276  6132.52  79.1191
 58.3696  6086.37  78.5772
 58.4116  6163.26  78.9309
 58.4536  6213.82  79.1419
 58.4956  6057.85  78.319
 58.5376  6248.92  79.1094
 58.5796  6079.94  78.4535
 58.6216  6060.52  78.1354
 58.6636  6168.27  79.0487
 58.7056  6124.87  78.6314
 58.7476  6159.93  79.305
 58.7896  6047.95  78.2248
 58.8316  6198.93  79.1894
 58.8736  6120.21  78.6928
 58.9156  6099.63  78.6127
 58.9576  6165.94  79.3488
 58.9996  6319.51  79.5635
 59.0416  6225.57  79.3373
 59.0836  6145.34  78.7533
 59.1256  6174.24  79.6455
 59.1676  6129.74  79.653
 59.2096  6100.37  78.7718
 59.2516  6213.78  79.0757
 59.2936  6129.31  78.8669
 59.3356  6017.09  78.0196
 59.3776  6163.32  79.1326
 59.4196  6163.1  79.063
 59.4616  6273.68  79.6299
 59.5036  6039.17  78.1625
 59.5456  6138.22  78.4921
 59.5876  6055.68  78.154
 59.6296  6169.59  78.9556
 59.6716  6130.82  78.7654
 59.7136  6305.56  79.8681
 59.7556  6179.24  79.202
 59.7976  6131.93  78.6384
 59.8396  6002.49  77.6986
 59.8816  6220.64  79.6518
 59.9236  6200.94  79.1642
 59.9656  6047.78  78.4408
 60.0076  6223.07  78.9176
 60.0496  6206.91  79.3254
 60.0916  6197.54  78.6766
 60.1336  6042.06  78.7908
 60.1756  6043.82  79.9869
 60.1996  0.0000000E+00  0.0000000E+00