File: docs/examples/opeando_xrd/IS17_D/Data/IS17_D/17_Da_f00080.xye
# /beamlines/bl04/projects/cycle2025-II/20250340211-lsimonelli/DATA/IS17_D/17_Da_f00080.xye : mythproc.py merge -s 0.006 -l 0.5 -f /beamlines/bl04/inhouse/ff/FlatField/ff_20Nov2024rod8mm60s_17keV.raw -b True -c true -o xye /beamlines/bl04/projects/cycle2025-II/20250340211-lsimonelli/DATA/IS17_D/17_Da_00080.dat
# IsMon = [6756404, 6760742, 6758087]  IsPos = [-1.4999, -2.4884, -3.4988]
# Wave = 0.4962  CalPath /beamlines/bl04/projects/cycle2025-II/20250340211-lsimonelli/DATA/Align/Si_Pos1_25keV_f00001.cal
# Date = 2025-09-24_15:51:14 Dt = 4.8000  Bin = 0.0060  <imon> = 6758411 +/- 1786 (Min/Max) 6756404 / 6760742
# icurr 249.9110  mocoIn 1.7042E-05  mocoOut 0.8000  i15 7.07524e+06  imon 6.75841e+06  i7 5.6667  iEMpd_timer 4.8000  iEMpd_1 3.2329E-08  iEMpd_2 7.8583E-08  iEMpd_3 1.7439E-08  iEMpd_4 4.7496E-08  iEMhp_timer 4.8000  iEMhp_1 4.8810E-06  iEMhp_2 -2.4953E-08  iEMhp_3 -2.4601E-08  iEMhp_4 -2.0843E-08
#      9776
 1.5856  39564  204.276
 1.6276  46605.6  217.906
 1.6696  53264.1  232.131
 1.7116  61657.3  250.24
 1.7536  70554.6  266.547
 1.7956  75457.7  276.341
 1.8376  71602.6  269.617
 1.8796  59993.2  244.98
 1.9216  48591.9  221.353
 1.9636  40520.8  201.307
 2.0056  36519.8  190.369
 2.0476  33824.1  185.217
 2.0896  32568.2  180.68
 2.1316  31880.8  177.904
 2.1736  29972.1  173.865
 2.2156  30806.9  174.855
 2.2576  29412.5  171.465
 2.2996  28173.8  168.431
 2.3416  28811.2  168.966
 2.3836  28053.1  166.831
 2.4256  27175.8  164.737
 2.4676  26959.6  163.847
 2.5096  27240.2  164.752
 2.5516  30731.8  178.973
 2.5936  103731  321.96
 2.6356  28240.6  168.852
 2.6776  25946.2  160.758
 2.7196  25291.5  159.217
 2.7616  25239  158.834
 2.8036  24674.5  157.216
 2.8456  24625.5  157.66
 2.8876  23979.4  155.452
 2.9296  23537.6  154.143
 2.9716  23718  154.235
 3.0136  23434  153.371
 3.0556  23504.9  153.993
 3.0976  23301.9  152.295
 3.1396  23005.1  152.011
 3.1816  22924.1  151.68
 3.2236  22871.3  151.507
 3.2656  22667.9  149.879
 3.3076  22588.9  151.049
 3.3496  23040.3  151.498
 3.3916  23117.6  151.587
 3.4336  23669.3  153.956
 3.4756  23973.9  154.874
 3.5176  24863.6  157.515
 3.5596  24843.8  159.856
 3.6016  24912.7  157.729
 3.6436  24151.5  156.378
 3.6856  23789.3  153.529
 3.7276  22767.1  151.258
 3.7696  22751.4  151.405
 3.8116  22040.4  148.904
 3.8536  22345.4  149.874
 3.8956  22303.9  149.559
 3.9376  22901.5  151.804
 3.9796  22136.8  148.764
 4.0216  22199.1  148.017
 4.0636  22070.9  149.047
 4.1056  22283.8  149.398
 4.1476  22298.1  149.771
 4.1896  22539.6  150.433
 4.2316  22822.3  151.207
 4.2736  23303.2  152.575
 4.3156  23380.8  153.062
 4.3576  24262.7  155.844
 4.3996  24333.1  156.32
 4.4416  25078.8  158.291
 4.4836  26177.2  161.86
 4.5256  26063.2  162.132
 4.5676  25978.8  162.117
 4.6096  26395.8  162.087
 4.6516  26809.7  163.061
 4.6936  26973.3  164.368
 4.7356  27746.8  166.533
 4.7776  27144  164.542
 4.8196  26928.7  164.542
 4.8616  26421.2  162.456
 4.9036  26105.7  161.247
 4.9456  26226.8  162.26
 4.9876  25808  160.861
 5.0296  25708.3  160.369
 5.0716  25494.1  160.471
 5.1136  25696.2  160.81
 5.1556  26025.9  161.308
 5.1976  31352.7  177.045
 5.2396  26726.3  163.158
 5.2816  26519.5  162.989
 5.3236  26570  162.849
 5.3656  26049.6  162.155
 5.4076  25904.8  161.854
 5.4496  26032.8  161.738
 5.4916  26043.2  161.534
 5.5336  26310.1  162.365
 5.5756  26007.1  161.464
 5.6176  26221.7  161.562
 5.6596  26443.5  163.215
 5.7016  26632.7  163.066
 5.7436  26721.5  163.61
 5.7856  26578  163.224
 5.8276  26764.9  163.522
 5.8696  27244  165.154
 5.9116  27013  165.048
 5.9536  27285.9  165.638
 5.9956  27539  165.77
 6.0376  27687.6  166.852
 6.0796  27792.1  166.998
 6.1216  27952  167.675
 6.1636  28103.6  167.203
 6.2056  28155  168.006
 6.2476  28089.3  167.696
 6.2896  28553.4  168.757
 6.3316  28287.5  168.149
 6.3736  28404.3  168.385
 6.4156  28319.1  168.032
 6.4576  28831.2  169.149
 6.4996  28895.1  169.81
 6.5416  28959.2  170.138
 6.5836  29388.3  171.623
 6.6256  29029.7  170.139
 6.6676  29623.5  171.443
 6.7096  29552.2  172.087
 6.7516  29839.8  172.576
 6.7936  30390.5  173.598
 6.8356  31178.7  175.905
 6.8776  30869  175.829
 6.9196  30490.1  175.147
 6.9616  30913.2  175.795
 7.0036  31328  176.634
 7.0456  31373.1  176.061
 7.0876  31030.1  176.768
 7.1296  31291.7  176.654
 7.1716  31135.1  175.76
 7.2136  30720.4  174.363
 7.2556  31164.6  175.781
 7.2976  31345.5  176.785
 7.3396  31075.6  176.225
 7.3816  31294  177.064
 7.4236  31248.8  176.232
 7.4656  31543.9  176.551
 7.5076  31578.7  176.784
 7.5496  31861.7  178.112
 7.5916  31725  177.754
 7.6336  32580.2  180.033
 7.6756  32291.3  179.085
 7.7176  32647.3  180.376
 7.7596  32796.1  182.031
 7.8016  36417.7  194.119
 7.8436  33295.2  182.276
 7.8856  33649  182.86
 7.9276  34305.5  185.03
 7.9696  34522  185.921
 8.0116  35720  187.65
 8.0536  35578.7  187.539
 8.0956  37926.1  194.821
 8.1376  35841.2  188.878
 8.1796  36359.7  190.773
 8.2216  37294.2  191.952
 8.2636  38236.5  194.612
 8.3056  37364.3  193.161
 8.3476  39330.8  197.486
 8.3896  38136.4  194.546
 8.4316  37712.2  193.624
 8.4736  37594.2  192.784
 8.5156  37417.2  192.608
 8.5576  37349  193.404
 8.5996  37180.2  191.836
 8.6416  37008.1  192.65
 8.6836  36993.5  192.457
 8.7256  37574.2  193.39
 8.7676  39414.9  201.11
 8.8096  39311  198.061
 8.8516  37028.4  191.836
 8.8936  37954.5  194.108
 8.9356  36603.2  190.972
 8.9776  36324.9  190.333
 9.0196  36331.7  190.029
 9.0616  36497  189.916
 9.1036  38258.1  195.683
 9.1456  36061.9  189.337
 9.1876  35938.1  188.967
 9.2296  35809.5  188.028
 9.2716  35195  186.475
 9.3136  35172.4  186.398
 9.3556  35522  187.31
 9.3976  33995.5  183.76
 9.4396  34635  185.377
 9.4816  33770.7  182.91
 9.5236  33890.8  183.146
 9.5656  33557.7  182.565
 9.6076  33420.1  182.71
 9.6496  33592.9  183.109
 9.6916  33666.1  183.278
 9.7336  33263.2  181.961
 9.7756  33695.4  184.384
 9.8176  32711.3  181.166
 9.8596  32518.7  179.094
 9.9016  32161.4  178.1
 9.9436  32234.6  178.214
 9.9856  32439.5  179.005
 10.0276  31472.8  177.421
 10.0696  31578.4  176.764
 10.1116  30998.7  175.393
 10.1536  30934  175.375
 10.1956  30144.3  172.73
 10.2376  30068.4  172.025
 10.2796  30007.3  171.965
 10.3216  29882.1  171.874
 10.3636  29650  171.236
 10.4056  31518  176.945
 10.4476  32033.7  178.012
 10.4896  35049.7  185.596
 10.5316  32046.1  178.215
 10.5736  29241  170.656
 10.6156  28850.6  169.285
 10.6576  33440  180.689
 10.6996  28993.7  168.926
 10.7416  28084.7  166.492
 10.7836  29421.7  171.114
 10.8256  27431.7  165.662
 10.8676  27937  166.705
 10.9096  27544.6  165.585
 10.9516  27163.6  163.364
 10.9936  27926.4  165.845
 11.0356  27444.4  165.042
 11.0776  28628  167.852
 11.1196  27963.5  166.654
 11.1616  26709  162.561
 11.2036  27518.1  164.865
 11.2456  28620.4  168.866
 11.2876  26356.8  161.782
 11.3296  26337.6  161.618
 11.3716  26775.5  162.657
 11.4136  26456.1  162.576
 11.4556  26822.4  163.363
 11.4976  27706.2  164.976
 11.5396  28019.8  166.068
 11.5816  26374.1  161.591
 11.6236  25864  160.233
 11.6656  25712  158.936
 11.7076  25291.3  158.454
 11.7496  25601.9  163.361
 11.7916  25692  158.966
 11.8336  24832.8  157.167
 11.8756  25313.7  158.21
 11.9176  24925.7  156.644
 11.9596  24390.2  155.152
 12.0016  24260.1  155.519
 12.0436  24231.9  154.86
 12.0856  24173.2  155.191
 12.1276  24098.6  154.862
 12.1696  24187.4  154.289
 12.2116  24446.6  155.107
 12.2536  26656.3  162.834
 12.2956  24456.1  155.3
 12.3376  24140.5  154.511
 12.3796  24160.1  155.019
 12.4216  24180.3  154.317
 12.4636  24723.8  156.959
 12.5056  23769.2  153.188
 12.5476  23863.2  153.02
 12.5896  24103.4  154.418
 12.6316  23662.3  153.162
 12.6736  23811.1  154.116
 12.7156  23795.7  153.939
 12.7576  23864.4  154.39
 12.7996  24062.2  153.683
 12.8416  23987.6  154.495
 12.8836  24816.2  156.966
 12.9256  24404.6  154.669
 12.9676  24513.5  155.44
 13.0096  23963  154.778
 13.0516  24241.3  154.715
 13.0936  24252.8  155.156
 13.1356  24407.4  154.635
 13.1776  24549.4  156.069
 13.2196  24574.5  155.811
 13.2616  24296.6  155.232
 13.3036  24247  155.049
 13.3456  24347  155.718
 13.3876  24591  155.796
 13.4296  24320  155.079
 13.4716  24528.6  155.35
 13.5136  24376.2  155.022
 13.5556  24578.7  156.268
 13.5976  24401.5  155.868
 13.6396  24830.4  156.587
 13.6816  24357.9  155.581
 13.7236  24942.1  157.078
 13.7656  24402.4  155.912
 13.8076  25637.6  158.556
 13.8496  24186.3  154.611
 13.8916  24181  155.587
 13.9336  24026.2  154.316
 13.9756  23956.6  153.453
 14.0176  23880.4  153.88
 14.0596  24828.3  156.874
 14.1016  23467.7  152.905
 14.1436  23277  151.43
 14.1856  23353.2  151.964
 14.2276  23161.5  151.831
 14.2696  23280.6  152.057
 14.3116  22855.5  150.556
 14.3536  22231.6  148.672
 14.3956  22461.9  149.164
 14.4376  22647.3  149.56
 14.4796  22453.3  148.912
 14.5216  22306.7  149.22
 14.5636  22392.3  149.058
 14.6056  22044.4  147.491
 14.6476  21959.2  146.438
 14.6896  21614.7  145.822
 14.7316  21008.9  144.764
 14.7736  21104.7  144.259
 14.8156  21046.6  144.099
 14.8576  20872.3  143.351
 14.8996  20914.3  144.706
 14.9416  20142.8  142.005
 14.9836  20536.3  143.34
 15.0256  20180.2  141.026
 15.0676  20111.9  141.104
 15.1096  19869.4  139.988
 15.1516  19777.9  140.217
 15.1936  19595.3  139.004
 15.2356  19587.1  139.254
 15.2776  19480.2  138.458
 15.3196  19197.1  138.451
 15.3616  19021.6  137.578
 15.4036  18972.9  137.258
 15.4456  19318.8  138.15
 15.4876  19011.2  136.723
 15.5296  18608.5  135.544
 15.5716  18357.9  134.242
 15.6136  18318.8  134.42
 15.6556  20019.8  139.734
 15.6976  18598.7  134.973
 15.7396  18462.7  134.881
 15.7816  18581.1  134.811
 15.8236  17859.6  132.868
 15.8656  17871.2  132.7
 15.9076  17694.1  131.868
 15.9496  18110.4  136.245
 15.9916  17539.4  134.53
 16.0336  17247.9  130.314
 16.0756  17452.9  131.394
 16.1176  17030.6  129.864
 16.1596  16810.6  130.188
 16.2016  16907.8  129.317
 16.2436  16867  129.553
 16.2856  16718.4  128.526
 16.3276  16428.6  127.817
 16.3696  16692.7  128.661
 16.4116  16383.8  127.924
 16.4536  16451.3  127.97
 16.4956  17334.2  131.095
 16.5376  16741  129.021
 16.5796  16481.7  127.374
 16.6216  16362.2  127.216
 16.6636  16446.4  127.7
 16.7056  16418.7  127.453
 16.7476  16383.5  126.849
 16.7896  16382.8  127.599
 16.8316  16335.3  127.379
 16.8736  16544.2  128.454
 16.9156  16596.1  128.99
 16.9576  16060.5  127.676
 16.9996  16295.6  129.1
 17.0416  16142.2  126.836
 17.0836  15939.3  125.809
 17.1256  15879.5  125.581
 17.1676  16272.9  127.116
 17.2096  16002.9  125.935
 17.2516  15698.8  124.517
 17.2936  15654.8  124.663
 17.3356  15269.2  123.132
 17.3776  15410.7  123.882
 17.4196  15415.7  123.592
 17.4616  15341.6  123.222
 17.5036  15907.1  125.833
 17.5456  14867.9  122.296
 17.5876  15109.6  122.337
 17.6296  15048.5  121.909
 17.6716  15148.5  122.887
 17.7136  15494.8  124.432
 17.7556  14832.1  122.021
 17.7976  14909  122.087
 17.8396  15064.6  122.217
 17.8816  14776.1  121.572
 17.9236  14603.2  120.682
 17.9656  15056.1  123.076
 18.0076  15408.2  124.09
 18.0496  15583.7  123.901
 18.0916  19454.1  138.988
 18.1336  16984.7  130.029
 18.1756  15708.2  124.564
 18.2176  16403  127.526
 18.2596  14910.4  121.319
 18.3016  15449.6  123.758
 18.3436  15609.6  124.399
 18.3856  14963.8  121.941
 18.4276  14888.4  121.302
 18.4696  14801.5  121.052
 18.5116  14987.5  122.097
 18.5536  14693.3  121.255
 18.5956  14911.6  121.695
 18.6376  14912.6  122.103
 18.6796  14558.1  119.971
 18.7216  14823.2  121.548
 18.7636  14322  119.467
 18.8056  14125.8  118.591
 18.8476  14186.2  119.468
 18.8896  14038.5  118.179
 18.9316  14380.3  119.603
 18.9736  14111.9  118.172
 19.0156  14486.1  120.138
 19.0576  14464  118.905
 19.0996  14194.4  118.498
 19.1416  14127.2  118.615
 19.1836  13971.4  117.559
 19.2256  13809.1  117.087
 19.2676  13863.2  117.41
 19.3096  14111  118.698
 19.3516  14044.4  118.377
 19.3936  14091.8  118.472
 19.4356  13881.9  117.466
 19.4776  13977.5  117.96
 19.5196  13905.6  117.503
 19.5616  13899  117.74
 19.6036  13971.8  117.544
 19.6456  14140.5  118.371
 19.6876  14370  118.967
 19.7296  13930  117.593
 19.7716  13889.6  117.569
 19.8136  13967.7  118.12
 19.8556  14469  119.691
 19.8976  14556.4  120.119
 19.9396  14428.5  119.161
 19.9816  14726.6  120.63
 20.0236  15274.2  123.08
 20.0656  14381  119.421
 20.1076  13906  117.895
 20.1496  13677.4  116.924
 20.1916  13903.3  117.406
 20.2336  13916.1  117.391
 20.2756  13483.7  115.978
 20.3176  13376.9  115.269
 20.3596  13595.6  116.182
 20.4016  13497.3  115.567
 20.4436  13611.6  116.607
 20.4856  13242.6  114.819
 20.5276  13251.2  115.309
 20.5696  13246.7  114.755
 20.6116  13348.4  115.469
 20.6536  13200.3  114.333
 20.6956  13178.3  114.357
 20.7376  13232.1  114.824
 20.7796  13119.2  114.027
 20.8216  13263.9  114.36
 20.8636  13356.4  115.123
 20.9056  14255.6  118.883
 20.9476  13241  114.421
 20.9896  14164  118.204
 21.0316  13313  114.492
 21.0736  13415.9  115.462
 21.1156  13670.1  116.71
 21.1576  13353.8  115.405
 21.1996  13155  114.52
 21.2416  12901.1  113.247
 21.2836  13183.4  114.44
 21.3256  12986.5  113.667
 21.3676  13057.7  113.523
 21.4096  13344.8  115.077
 21.4516  13099.1  113.894
 21.4936  12697.1  112.374
 21.5356  12986.6  113.6
 21.5776  13107.6  113.962
 21.6196  13097.2  113.94
 21.6616  13001.2  113.621
 21.7036  12915.9  113.033
 21.7456  12847.8  112.804
 21.7876  12627.8  111.586
 21.8296  12698.3  111.755
 21.8716  12710.3  112.032
 21.9136  12927.3  113.19
 21.9556  13063.6  113.454
 21.9976  12813.7  112.376
 22.0396  12728.2  112.252
 22.0816  12802.1  113.134
 22.1236  13089.3  113.839
 22.1656  12902.3  113.144
 22.2076  12659  111.544
 22.2496  12673.7  111.629
 22.2916  12816.3  112.144
 22.3336  12865.6  113.085
 22.3756  12719.1  112.165
 22.4176  12642.6  111.682
 22.4596  12466.4  111.489
 22.5016  12793.7  112.43
 22.5436  12685.5  111.837
 22.5856  12808.6  112.626
 22.6276  12744.5  112.478
 22.6696  12602.7  112.199
 22.7116  12707.5  112.178
 22.7536  12647.5  111.892
 22.7956  12728.4  111.572
 22.8376  12501.7  111.106
 22.8796  12641.3  111.519
 22.9216  12672.5  112.207
 22.9636  12512.5  110.649
 23.0056  12591.9  111.132
 23.0476  12713.1  112.231
 23.0896  13015.9  112.939
 23.1316  12975  113.203
 23.1736  12482.5  113.97
 23.2156  12692.9  112.309
 23.2576  12630.2  112.159
 23.2996  12519.2  111.453
 23.3416  12441.9  111.622
 23.3836  12445.5  110.881
 23.4256  12561.3  111.508
 23.4676  12780.3  112.17
 23.5096  12729.2  112.629
 23.5516  12388.7  110.399
 23.5936  12681.5  112.606
 23.6356  13053.7  113.907
 23.6776  12625.9  112.236
 23.7196  12341.3  110.547
 23.7616  12733.9  112.203
 23.8036  12479.6  111.119
 23.8456  12566.2  111.072
 23.8876  12254.3  110.038
 23.9296  12201.6  110.289
 23.9716  12411.4  110.424
 24.0136  12470.6  111.592
 24.0556  12133.5  109.807
 24.0976  12128.4  109.591
 24.1396  12052.3  111.865
 24.1816  12247.3  111.195
 24.2236  12053.3  109.917
 24.2656  12143.9  109.8
 24.3076  12100.7  109.857
 24.3496  12104.7  109.761
 24.3916  12157.9  110.056
 24.4336  12052.1  109.785
 24.4756  11849.7  108.722
 24.5176  11789.6  108.104
 24.5596  11730.8  107.961
 24.6016  11441.9  106.905
 24.6436  11834.7  108.213
 24.6856  11662.4  107.186
 24.7276  11746.6  107.885
 24.7696  11615.7  107.391
 24.8116  11679.3  107.872
 24.8536  11465.9  106.881
 24.8956  11346.2  106.06
 24.9376  11565.8  107.021
 24.9796  11309.2  106.178
 25.0216  11313.1  106.311
 25.0636  11558.7  107.104
 25.1056  11193.7  106.104
 25.1476  11421.7  108.86
 25.1896  11410.6  107.268
 25.2316  11443.7  106.695
 25.2736  11399.9  106.133
 25.3156  11175  105.165
 25.3576  11246.1  105.916
 25.3996  11189.3  105.634
 25.4416  11047.7  104.943
 25.4836  11106.3  105.748
 25.5256  11126.5  105.208
 25.5676  11225.6  105.399
 25.6096  11030  105.057
 25.6516  11134.2  105.045
 25.6936  10962.4  104.55
 25.7356  10981.1  104.768
 25.7776  10972  104.335
 25.8196  11023.4  104.812
 25.8616  10960.4  104.435
 25.9036  11206.7  105.066
 25.9456  10963.1  104.51
 25.9876  10784  103.721
 26.0296  11032.3  104.414
 26.0716  11025.5  104.808
 26.1136  11056.4  104.893
 26.1556  11205.8  104.979
 26.1976  10937.2  104.641
 26.2396  11020.7  104.183
 26.2816  10913.4  104.289
 26.3236  11045.7  105.079
 26.3656  10886.3  104.05
 26.4076  10993.2  104.77
 26.4496  11474.4  106.481
 26.4916  11014.1  104.361
 26.5336  10806.8  103.695
 26.5756  11060.8  104.781
 26.6176  10979.8  104.434
 26.6596  10752.3  103.651
 26.7016  10701.6  103.163
 26.7436  10604.6  102.832
 26.7856  10542  102.51
 26.8276  10632.3  102.906
 26.8696  10587.7  102.556
 26.9116  10748.9  103.28
 26.9536  10543.2  102.333
 26.9956  10554.9  102.421
 27.0376  10413.8  101.952
 27.0796  10685.6  102.998
 27.1216  10527.9  102.315
 27.1636  10385.6  101.787
 27.2056  10471.1  102.087
 27.2476  10517.1  102.313
 27.2896  10440.8  102.048
 27.3316  10347.5  101.305
 27.3736  10384.1  101.749
 27.4156  10275.4  101.066
 27.4576  10510  102.441
 27.4996  10346.8  101.234
 27.5416  10286.8  101.262
 27.5836  10449.7  101.876
 27.6256  10617.6  102.856
 27.6676  10405.7  101.847
 27.7096  10390.8  101.637
 27.7516  10637.8  102.988
 27.7936  10734.9  103.64
 27.8356  10528.3  102.251
 27.8776  10429.8  101.815
 27.9196  10305.1  101.051
 27.9616  10487.4  102.137
 28.0036  10216.6  100.771
 28.0456  10293.6  101.295
 28.0876  10147.9  100.668
 28.1296  10207.8  100.8
 28.1716  10209.3  100.825
 28.2136  10089  100.184
 28.2556  10042.9  100.075
 28.2976  10087.8  100.286
 28.3396  10146.8  100.344
 28.3816  10079.5  100.029
 28.4236  10242.1  100.982
 28.4656  9896.19  99.3032
 28.5076  9893.68  98.9286
 28.5496  9985.47  99.6461
 28.5916  10071.2  99.8839
 28.6336  9901.1  99.3778
 28.6756  10052  99.3285
 28.7176  9940.62  99.3242
 28.7596  9748.22  98.257
 28.8016  9926.86  99.184
 28.8436  9739.94  98.4885
 28.8856  9863.25  98.9604
 28.9276  9867.55  99.2316
 28.9696  9870.75  98.9012
 29.0116  9783.36  98.6478
 29.0536  9576.46  97.802
 29.0956  9743.04  98.367
 29.1376  9832.04  98.7761
 29.1796  9685.95  98.0828
 29.2216  9578.86  97.3846
 29.2636  9704.58  98.0939
 29.3056  9672.08  97.7233
 29.3476  9654.05  98.1499
 29.3896  9875.46  99.3518
 29.4316  9803.54  98.3393
 29.4736  9743.43  98.1046
 29.5156  9875.43  98.6844
 29.5576  9763.76  98.8637
 29.5996  9774.05  98.1739
 29.6416  9562.3  97.2187
 29.6836  9693.49  97.809
 29.7256  9643.31  98.1271
 29.7676  9691.94  98.0335
 29.8096  9632  97.6711
 29.8516  9392.75  96.7809
 29.8936  9625.66  98.0647
 29.9356  9634.82  97.8694
 29.9776  9479.84  97.2327
 30.0196  9675.24  97.6095
 30.0616  9742.82  98.3317
 30.1036  9630.48  97.5818
 30.1456  9544.98  97.3908
 30.1876  9496.97  97.1169
 30.2296  9600.91  97.6017
 30.2716  9637.09  97.417
 30.3136  9614.68  98.1644
 30.3556  9499.46  97.5935
 30.3976  9487.08  99.0417
 30.4396  9663.41  97.2917
 30.4816  9506.26  96.0977
 30.5236  9590.67  96.5375
 30.5656  9400.29  96.2233
 30.6076  9610.56  96.7272
 30.6496  9454.85  96.321
 30.6916  9419.22  96.226
 30.7336  9444.34  96.5142
 30.7756  9453.2  96.6517
 30.8176  9507.13  96.842
 30.8596  9596.64  97.0652
 30.9016  9314.72  95.9682
 30.9436  9443.65  96.3825
 30.9856  9466.88  96.6076
 31.0276  9330.95  95.5269
 31.0696  9398.82  96.4459
 31.1116  9450.4  96.6825
 31.1536  9421.56  96.423
 31.1956  9376.83  96.2801
 31.2376  9298.25  95.8857
 31.2796  9487.43  96.3883
 31.3216  9272.69  95.2371
 31.3636  9317.72  96.1488
 31.4056  9364.54  97.7216
 31.4476  9319.45  95.3591
 31.4896  9232.69  95.4166
 31.5316  9460.55  95.9715
 31.5736  9879.31  97.9036
 31.6156  9782.24  97.4348
 31.6576  9431.82  95.7706
 31.6996  9363.66  95.1001
 31.7416  9209.65  95.364
 31.7836  9320.66  94.9569
 31.8256  9220.46  94.7204
 31.8676  9396.32  95.6115
 31.9096  9150.19  94.7034
 31.9516  9050.73  94.3416
 31.9936  9157.03  94.7237
 32.0356  9337.09  95.7159
 32.0776  9216.3  94.9843
 32.1196  9236.51  95.1844
 32.1616  9093.01  93.8949
 32.2036  8983.75  93.841
 32.2456  9131.24  94.9869
 32.2876  9020.01  93.9018
 32.3296  9104.62  94.3097
 32.3716  9107.24  94.4297
 32.4136  9207.8  95.169
 32.4556  9138.51  94.1809
 32.4976  9168.16  94.2415
 32.5396  9067.21  93.7972
 32.5816  9008.32  93.612
 32.6236  9104.51  94.182
 32.6656  9082.77  94.5979
 32.7076  8991.93  93.7875
 32.7496  9029.94  93.6418
 32.7916  9039.75  93.6635
 32.8336  9050.57  93.8181
 32.8756  9039.66  93.4851
 32.9176  8950.64  93.5022
 32.9596  9075.03  94.2284
 33.0016  9091.02  94.1031
 33.0436  9035.82  93.9909
 33.0856  8955.56  93.6328
 33.1276  8900.71  93.0858
 33.1696  8901.88  92.9385
 33.2116  8976.05  93.546
 33.2536  8951.86  93.4247
 33.2956  8949.13  93.4932
 33.3376  8797.47  92.4407
 33.3796  9019.15  93.8027
 33.4216  8948.11  93.0338
 33.4636  8995.9  93.4263
 33.5056  8809.29  92.6923
 33.5476  8714.22  92.1856
 33.5896  8892.28  92.882
 33.6316  8801.72  92.7395
 33.6736  8672.93  92.2943
 33.7156  8747.1  92.7339
 33.7576  8890.39  93.1132
 33.7996  8920.69  93.0395
 33.8416  8659.27  91.8495
 33.8836  8820.98  92.4721
 33.9256  8741.44  92.1279
 33.9676  8968.05  93.2027
 34.0096  8649.12  91.8487
 34.0516  8662.95  91.5557
 34.0936  8640.93  91.7057
 34.1356  8792.28  92.2453
 34.1776  8692.78  91.7327
 34.2196  8580.7  91.3208
 34.2616  8643.17  91.7825
 34.3036  8574.68  91.6731
 34.3456  8653.81  91.847
 34.3876  8621.84  91.6435
 34.4296  8684.48  91.657
 34.4716  8768.99  92.2525
 34.5136  8587.09  91.5017
 34.5556  8595.04  91.7874
 34.5976  8721.96  92.2663
 34.6396  8604.45  91.3583
 34.6816  8600.73  91.4489
 34.7236  8643.36  91.4606
 34.7656  8584.76  91.3469
 34.8076  8560.22  91.5249
 34.8496  8567.24  91.425
 34.8916  8589.67  91.4264
 34.9336  8798.46  92.4947
 34.9756  8654  91.6478
 35.0176  8631.29  92.0633
 35.0596  8522.99  91.3154
 35.1016  8580.56  91.3861
 35.1436  8685.58  91.6171
 35.1856  8382.67  90.1416
 35.2276  8513.89  91.0139
 35.2696  8504.05  91.1583
 35.3116  8540.56  91.444
 35.3536  8456.76  90.7077
 35.3956  8420.31  90.223
 35.4376  8519.8  91.306
 35.4796  8455.07  91.0233
 35.5216  8479.9  91.1144
 35.5636  8238.24  90.5418
 35.6056  8488.03  90.9191
 35.6476  8366.62  90.1678
 35.6896  8597.21  91.4821
 35.7316  8420.24  90.5171
 35.7736  8462.16  90.9392
 35.8156  8374.14  90.4563
 35.8576  8486.34  91.3147
 35.8996  8559.91  91.6787
 35.9416  8742.52  92.11
 35.9836  8379.72  90.5636
 36.0256  8504.07  91.2521
 36.0676  8478.65  90.8712
 36.1096  8334.04  90.2333
 36.1516  8430.77  90.6457
 36.1936  8355.05  90.0867
 36.2356  8272.85  90.2792
 36.2776  8386.31  90.3797
 36.3196  8500.67  90.6583
 36.3616  8366.71  90.0671
 36.4036  8415.63  90.3934
 36.4456  8420.72  90.6267
 36.4876  8265.14  89.7293
 36.5296  8335.22  90.1458
 36.5716  8291.13  90.6913
 36.6136  8520.66  90.6807
 36.6556  8552.77  91.0709
 36.6976  8460.89  91.0787
 36.7396  8368.62  90.3065
 36.7816  8290.69  90.2645
 36.8236  8278.82  90.1184
 36.8656  8429.42  91.0137
 36.9076  8148.58  89.3569
 36.9496  8350.57  90.4533
 36.9916  8338.27  90.0104
 37.0336  8394.39  90.6335
 37.0756  8313.21  89.9811
 37.1176  8173.94  89.4937
 37.1596  8282.48  90.0913
 37.2016  8151.51  89.6024
 37.2436  8300.66  89.7329
 37.2856  8202.52  89.4553
 37.3276  8240.06  89.006
 37.3696  8212.9  89.7468
 37.4116  8306.83  90.1696
 37.4536  8151.51  89.1872
 37.4956  8131.56  89.1273
 37.5376  8161.95  90.8459
 37.5796  8143.98  90.7089
 37.6216  8094.51  88.7025
 37.6636  8063.1  88.4328
 37.7056  8088.88  88.7651
 37.7476  8142.43  88.5925
 37.7896  8154.1  89.1655
 37.8316  7972.4  88.3318
 37.8736  8120.3  88.6687
 37.9156  8104.66  88.5868
 37.9576  8054.16  88.1997
 37.9996  8007.19  87.6546
 38.0416  8011.89  88.4997
 38.0836  8239.27  89.648
 38.1256  8065.69  88.6143
 38.1676  7927.19  88.0288
 38.2096  8168.8  88.9816
 38.2516  8195.91  89.3285
 38.2936  8067.45  88.4225
 38.3356  8073.12  88.3697
 38.3776  8014.4  88.3287
 38.4196  8096.97  88.6361
 38.4616  7998.26  88.3299
 38.5036  8066  88.5472
 38.5456  8023.74  89.145
 38.5876  8070.98  89.4352
 38.6296  7893.6  87.4216
 38.6716  7983.66  87.7159
 38.7136  7825.53  86.7875
 38.7556  7856.23  87.4554
 38.7976  7970.77  88.0314
 38.8396  7951.09  88.3777
 38.8816  7808.92  87.3557
 38.9236  7854.4  87.4307
 38.9656  7908.31  87.6449
 39.0076  7899.23  87.0036
 39.0496  7981.22  87.9991
 39.0916  7970.1  87.5813
 39.1336  7859.14  87.3806
 39.1756  7862.67  87.4678
 39.2176  7823.5  87.7738
 39.2596  7927.52  88.2793
 39.3016  7933.74  87.882
 39.3436  7734.5  87.196
 39.3856  8008.53  88.1735
 39.4276  7990.13  88.5702
 39.4696  7907.75  87.7325
 39.5116  7942.05  88.4421
 39.5536  7958.39  88.9647
 39.5956  7909.03  87.7808
 39.6376  8029.16  88.4581
 39.6796  7836.87  87.1268
 39.7216  7944.72  87.8303
 39.7636  7967.23  88.5166
 39.8056  7910.51  87.9833
 39.8476  7887.1  88.1099
 39.8896  7888.69  87.7488
 39.9316  7847.57  87.7751
 39.9736  8006.97  88.2213
 40.0156  7992.14  87.9648
 40.0576  7975.06  88.2356
 40.0996  8087.63  88.0312
 40.1416  7982.85  88.2529
 40.1836  8033.03  88.4251
 40.2256  7858.53  87.5022
 40.2676  7910.97  87.903
 40.3096  8074.05  88.7202
 40.3516  7957.76  88.19
 40.3936  8151.35  88.8125
 40.4356  7910.91  87.688
 40.4776  8023.39  88.721
 40.5196  8013.56  88.7968
 40.5616  8013.63  88.4386
 40.6036  7977.64  88.4919
 40.6456  8048.68  88.4869
 40.6876  7977.26  88.0778
 40.7296  7968.31  88.1712
 40.7716  8132.15  89.2095
 40.8136  7972.59  88.2656
 40.8556  7993.45  88.5189
 40.8976  8109.76  89.0806
 40.9396  8007.64  88.8705
 40.9816  8037.55  88.3146
 41.0236  8029.6  88.0527
 41.0656  8037.64  88.6397
 41.1076  7971.8  88.0435
 41.1496  7993.31  88.0735
 41.1916  7996.45  88.4113
 41.2336  7959.13  88.1947
 41.2756  7965  87.8347
 41.3176  7966.76  88.4625
 41.3596  7949.37  88.0956
 41.4016  7991.43  88.5845
 41.4436  7951.63  88.1529
 41.4856  8054.26  88.8788
 41.5276  7869.33  87.8773
 41.5696  7960.99  88.0107
 41.6116  7882.5  87.9786
 41.6536  7923.56  88.0639
 41.6956  7913.46  88.0652
 41.7376  7972.64  88.419
 41.7796  7860.09  87.6732
 41.8216  7972.15  88.5347
 41.8636  7925.19  88.2091
 41.9056  7814.63  87.3897
 41.9476  7922.08  88.2175
 41.9896  7895.33  87.7337
 42.0316  8000.73  88.4002
 42.0736  7932.25  88.1389
 42.1156  7921.01  87.9097
 42.1576  7970.19  88.2826
 42.1996  7918.96  88.1353
 42.2416  7923.06  87.7404
 42.2836  7809.45  87.2214
 42.3256  7923.58  87.9729
 42.3676  7893.28  87.6144
 42.4096  7912.2  87.6807
 42.4516  7830.73  87.3164
 42.4936  7770.29  87.0429
 42.5356  7883.15  87.8052
 42.5776  7860.72  87.6252
 42.6196  7939.68  88.1115
 42.6616  7687.05  86.8723
 42.7036  7901.8  87.4593
 42.7456  7875.4  87.6709
 42.7876  7864.53  87.7091
 42.8296  7812.14  87.2537
 42.8716  7762.95  87.1348
 42.9136  7811.26  87.195
 42.9556  7874.66  87.6814
 42.9976  7808.71  87.2735
 43.0396  7866.86  87.3325
 43.0816  7871.74  87.7385
 43.1236  7777.49  87.2692
 43.1656  7755.28  86.9768
 43.2076  7789.19  87.2717
 43.2496  7773.17  86.9951
 43.2916  7775  87.3705
 43.3336  7710.12  86.8446
 43.3756  7686.55  86.4643
 43.4176  7621.85  86.1842
 43.4596  7690.85  86.4286
 43.5016  7764.51  87.2491
 43.5436  7645.9  86.4832
 43.5856  7674.28  86.666
 43.6276  7726.27  86.8514
 43.6696  7676.76  86.8337
 43.7116  7739.94  86.6871
 43.7536  7806.14  87.5485
 43.7956  7660.97  87.9138
 43.8376  7680.35  86.5673
 43.8796  7596.8  86.1759
 43.9216  7727.53  86.8314
 43.9636  7706.14  86.8218
 44.0056  7668.9  86.8428
 44.0476  7475.73  85.3802
 44.0896  7446.16  85.5472
 44.1316  7749.05  86.7883
 44.1736  7554.94  85.8161
 44.2156  7708.26  86.5347
 44.2576  7659.22  86.5896
 44.2996  7561.92  86.0023
 44.3416  7602.66  86.0031
 44.3836  7456.42  85.4906
 44.4256  7481.88  85.2897
 44.4676  7422.88  85.1045
 44.5096  7528.84  85.8498
 44.5516  7490.6  85.5942
 44.5936  7521.63  85.7311
 44.6356  7492.83  85.3053
 44.6776  7421.3  85.2101
 44.7196  7407.33  85.4408
 44.7616  7380.79  86.5915
 44.8036  7362.8  84.935
 44.8456  7390.21  85.2961
 44.8876  7456.42  85.529
 44.9296  7528.94  85.4057
 44.9716  7438.22  85.3191
 45.0136  7456.82  85.3523
 45.0556  7468.34  85.3995
 45.0976  7355.15  84.9109
 45.1396  7292.31  84.3152
 45.1816  7362.31  84.6491
 45.2236  7416.98  84.8537
 45.2656  7277.4  84.5551
 45.3076  7426.73  85.1943
 45.3496  7452.02  85.651
 45.3916  7342.24  85.2844
 45.4336  7367.94  85.2774
 45.4756  7310.53  84.7929
 45.5176  7304.72  84.3913
 45.5596  7509.53  85.6881
 45.6016  7293.55  84.86
 45.6436  7390.12  84.6001
 45.6856  7365.71  85.1076
 45.7276  7297.86  86.0207
 45.7696  7331.37  85.893
 45.8116  7428.38  85.8926
 45.8536  7171.65  84.2919
 45.8956  7338.82  84.6255
 45.9376  7372.38  84.2845
 45.9796  7319.57  84.6613
 46.0216  7430.13  85.6454
 46.0636  7525  85.3272
 46.1056  7261.47  83.8073
 46.1476  7329.08  84.7859
 46.1896  7384.45  85.256
 46.2316  7352.51  84.9411
 46.2736  7143.95  84.0793
 46.3156  7361.09  84.9445
 46.3576  7289.45  84.7327
 46.3996  7171.16  84.197
 46.4416  7337.31  84.7419
 46.4836  7178.84  84.1725
 46.5256  7322  84.9508
 46.5676  7197.8  84.3414
 46.6096  7305.13  84.9026
 46.6516  7312.01  83.9874
 46.6936  7361.09  84.7636
 46.7356  7200.5  83.9324
 46.7776  7201.17  84.7785
 46.8196  7256.55  84.6979
 46.8616  7042.92  83.3877
 46.9036  7089.47  83.3293
 46.9456  7131.23  83.2183
 46.9876  7184.19  83.6116
 47.0296  7175.91  84.2401
 47.0716  7157.68  83.9594
 47.1136  7063.85  83.0959
 47.1556  7129.07  83.339
 47.1976  7223.02  83.9736
 47.2396  7165.73  84.0344
 47.2816  7099.33  83.3427
 47.3236  7106.48  83.7521
 47.3656  7214.43  84.3141
 47.4076  7053.71  83.1835
 47.4496  7017.19  83.0561
 47.4916  7083.4  83.6333
 47.5336  7091.02  83.4966
 47.5756  7191.84  84.2095
 47.6176  7037.73  83.1896
 47.6596  7017.31  82.7874
 47.7016  7234.51  83.8886
 47.7436  7121.62  83.5619
 47.7856  7168.66  83.866
 47.8276  7026.67  83.0805
 47.8696  7079.02  83.4702
 47.9116  7079.8  83.1955
 47.9536  6980.93  82.5557
 47.9956  6984.39  83.2687
 48.0376  6975.19  82.9929
 48.0796  7034.93  83.4688
 48.1216  7072.46  83.5128
 48.1636  7247.69  84.1236
 48.2056  7098.18  83.5114
 48.2476  7115.12  83.9167
 48.2896  6966.63  82.9452
 48.3316  6952.77  82.8114
 48.3736  6944.49  82.778
 48.4156  6966.43  82.7659
 48.4576  7008.06  83.3041
 48.4996  7042.31  82.9645
 48.5416  7041.78  83.2872
 48.5836  6967.85  82.5271
 48.6256  7003.44  82.9384
 48.6676  6998.9  83.4292
 48.7096  7078.25  83.1637
 48.7516  7007.33  82.9027
 48.7936  6823.83  81.8648
 48.8356  6945.3  82.6429
 48.8776  6960.81  83.2999
 48.9196  7021.71  83.043
 48.9616  6879.89  82.5681
 49.0036  6998.72  83.6266
 49.0456  6849.5  82.71
 49.0876  7062.62  83.5326
 49.1296  6802.86  82.1298
 49.1716  6856.09  82.3251
 49.2136  7017.75  83.2251
 49.2556  6869.83  82.3653
 49.2976  6927.69  82.7857
 49.3396  6879.73  82.5497
 49.3816  7014.67  82.7952
 49.4236  6925.15  82.6817
 49.4656  6733.54  81.5451
 49.5076  6926.56  82.4595
 49.5496  6853.3  82.0827
 49.5916  6859.32  82.0362
 49.6336  6867.66  82.2705
 49.6756  6888.72  82.6465
 49.7176  6795.44  82.0247
 49.7596  6843.82  82.0879
 49.8016  6940.13  82.5856
 49.8436  6869.91  82.452
 49.8856  6801.89  82.0563
 49.9276  6790.47  82.0759
 49.9696  6810.67  82.191
 50.0116  6834.9  82.4543
 50.0536  6767.24  82.0089
 50.0956  6779.16  82.1438
 50.1376  6796.35  81.9581
 50.1796  6682.35  81.5213
 50.2216  6685.09  81.5379
 50.2636  6841.02  82.1067
 50.3056  6646.55  81.0983
 50.3476  6731.58  81.6387
 50.3896  6689.4  81.354
 50.4316  6815.01  81.9499
 50.4736  6700.68  81.4738
 50.5156  6684.34  81.3709
 50.5576  6811.84  81.9068
 50.5996  6724.9  81.6534
 50.6416  6711.41  81.5
 50.6836  6748.13  81.7813
 50.7256  6784.7  81.94
 50.7676  6839.57  82.5759
 50.8096  6790.37  81.8247
 50.8516  6656.26  81.4207
 50.8936  6635.08  81.0767
 50.9356  6702.12  81.5821
 50.9776  6680  81.5991
 51.0196  6578.25  81.1001
 51.0616  6649.42  80.8707
 51.1036  6631.45  81.1141
 51.1456  6663.31  81.2207
 51.1876  6722.03  80.9246
 51.2296  6680.76  81.3025
 51.2716  6546.41  80.1942
 51.3136  6575.05  80.8171
 51.3556  6631.06  80.7974
 51.3976  6608.76  80.8082
 51.4396  6438.08  80.0536
 51.4816  6548.27  80.587
 51.5236  6579.65  80.8603
 51.5656  6643.18  80.8612
 51.6076  6575.8  80.5329
 51.6496  6591.55  80.8214
 51.6916  6481.41  80.4875
 51.7336  6620.51  81.4425
 51.7756  6567.12  80.8177
 51.8176  6574.75  80.9654
 51.8596  6539.46  80.7656
 51.9016  6606.9  80.7933
 51.9436  6501.32  81.5788
 51.9856  6467.91  81.8039
 52.0276  6594.17  81.1215
 52.0696  6604.67  81.2512
 52.1116  6543.48  80.9836
 52.1536  6400.76  79.9884
 52.1956  6580.71  80.5725
 52.2376  6670.89  81.2938
 52.2796  6577.14  80.522
 52.3216  6284.94  79.3983
 52.3636  6362.24  79.4741
 52.4056  6507.81  80.2329
 52.4476  6428.08  80.1019
 52.4896  6356.32  79.7069
 52.5316  6505.37  80.6803
 52.5736  6410.79  79.821
 52.6156  6435.2  80.3466
 52.6576  6608.65  80.8679
 52.6996  6329.1  80.0891
 52.7416  6342.85  80.0343
 52.7836  6509.42  80.9517
 52.8256  6488.82  80.0621
 52.8676  6431.65  80.2714
 52.9096  6462.24  80.5587
 52.9516  6470.9  80.9628
 52.9936  6431.36  81.1091
 53.0356  6382.62  79.8155
 53.0776  6262.06  79.3142
 53.1196  6418.5  80.4251
 53.1616  6311.89  79.8009
 53.2036  6325.47  79.8342
 53.2456  6200.86  79.1528
 53.2876  6165.81  78.6397
 53.3296  6198.28  79.1644
 53.3716  6348.04  79.8682
 53.4136  6323.7  79.8586
 53.4556  6285.89  79.6517
 53.4976  6282.7  79.4807
 53.5396  6294.88  79.9411
 53.5816  6289.75  79.5529
 53.6236  6262.08  79.7129
 53.6656  6353.69  79.9261
 53.7076  6302.89  79.5681
 53.7496  6274.11  79.4993
 53.7916  6373.51  80.2573
 53.8336  6256.66  79.4192
 53.8756  6134.74  79.1782
 53.9176  6323.41  79.7353
 53.9596  6303.93  80.3805
 54.0016  6256.33  79.4087
 54.0436  6214.85  79.3592
 54.0856  6392.08  79.9001
 54.1276  6275.77  79.3703
 54.1696  6224.04  79.2186
 54.2116  6193.27  78.7848
 54.2536  6288.2  79.2023
 54.2956  6260.94  79.0746
 54.3376  6269.92  79.615
 54.3796  6241.87  79.3331
 54.4216  6294.35  79.718
 54.4636  6303.08  79.7314
 54.5056  6320.77  79.6682
 54.5476  6229.41  79.4163
 54.5896  6190.22  79.0018
 54.6316  6186.96  78.8398
 54.6736  6221.74  79.136
 54.7156  6217.64  79.1294
 54.7576  6212.73  79.0943
 54.7996  6380.49  80.2866
 54.8416  6195.28  79.1717
 54.8836  6109.23  78.7277
 54.9256  6180.51  78.9409
 54.9676  6257.33  79.2743
 55.0096  6228.47  79.1657
 55.0516  6183.39  79.1139
 55.0936  6176.08  78.7018
 55.1356  6248.42  79.1983
 55.1776  6195.55  79.1342
 55.2196  6252.9  79.2817
 55.2616  6151.14  78.8449
 55.3036  6188.35  79.2418
 55.3456  6169.02  79.2647
 55.3876  6202.88  79.2302
 55.4296  6118.47  78.6611
 55.4716  6192.68  79.174
 55.5136  6227.63  79.1471
 55.5556  6198.06  79.0359
 55.5976  6225.29  79.2647
 55.6396  6199.97  79.0577
 55.6816  6203.1  78.9516
 55.7236  6180.77  78.8566
 55.7656  6245.5  79.0224
 55.8076  6214.61  78.8074
 55.8496  6158.94  78.7722
 55.8916  6236.22  79.4582
 55.9336  6185.85  78.968
 55.9756  6111.45  78.3807
 56.0176  6206.1  79.1391
 56.0596  6194.87  79.0485
 56.1016  6260.67  79.4721
 56.1436  6227.24  79.5203
 56.1856  6155.06  78.8043
 56.2276  6125.09  78.6655
 56.2696  6151.55  78.8115
 56.3116  6092.34  78.838
 56.3536  6196  79.1605
 56.3956  6116.35  78.6425
 56.4376  6049.6  78.2392
 56.4796  6096.88  78.3481
 56.5216  6116.38  78.8457
 56.5636  6180.03  78.8484
 56.6056  6079.94  78.4347
 56.6476  6114.71  78.2961
 56.6896  6152.58  78.9817
 56.7316  6050.96  78.2378
 56.7736  6181.25  79.0647
 56.8156  6198.93  79.1786
 56.8576  6173.83  78.9644
 56.8996  6160.68  78.8096
 56.9416  6140.65  78.9876
 56.9836  6076.25  78.0948
 57.0256  6064.7  78.334
 57.0676  6085.12  78.5876
 57.1096  6169.42  78.9234
 57.1516  6134.65  78.7635
 57.1936  6151.52  78.6156
 57.2356  6096.11  78.5815
 57.2776  6157.24  78.93
 57.3196  6051.85  78.6206
 57.3616  6166.48  78.8501
 57.4036  6104.98  78.5193
 57.4456  6071.35  78.2714
 57.4876  6216.64  79.0552
 57.5296  6099.3  78.6462
 57.5716  6139.61  78.896
 57.6136  6156.04  78.8142
 57.6556  6212.5  79.3068
 57.6976  6170.68  78.875
 57.7396  6068.46  78.5924
 57.7816  5979.82  78.3665
 57.8236  5966.89  78.0737
 57.8656  6118.09  78.723
 57.9076  6057.64  78.3599
 57.9496  6101.25  78.9937
 57.9916  6037.77  78.0969
 58.0336  6020.94  78.2636
 58.0756  6030.03  77.9602
 58.1176  6117.59  78.5216
 58.1596  6117.59  79.0924
 58.2016  6239.93  79.089
 58.2436  6007.91  78.0127
 58.2856  6176.82  79.0208
 58.3276  6070.85  78.7112
 58.3696  6078.23  78.5044
 58.4116  6095.16  78.4818
 58.4536  6101.1  78.405
 58.4956  6033.03  78.1422
 58.5376  6106.96  78.1934
 58.5796  6103.56  78.5993
 58.6216  6061.08  78.1452
 58.6636  6126.11  78.7756
 58.7056  6163.13  78.8677
 58.7476  6137.9  79.1536
 58.7896  6195.91  79.1675
 58.8316  6118  78.659
 58.8736  6106.86  78.5939
 58.9156  6084.7  78.4964
 58.9576  6211.33  79.6419
 58.9996  6256.24  79.1572
 59.0416  6286.05  79.7135
 59.0836  6080.88  78.3326
 59.1256  5930.97  78.0519
 59.1676  6047.5  79.1084
 59.2096  6115.9  78.8834
 59.2516  6118.22  78.4767
 59.2936  5994.14  78.0037
 59.3356  6090.98  78.5085
 59.3776  6121.81  78.8771
 59.4196  6083.06  78.5625
 59.4616  6100.41  78.534
 59.5036  6085.93  78.4764
 59.5456  6331.25  79.7283
 59.5876  6296.33  79.7033
 59.6296  6099.15  78.5149
 59.6716  6024.91  78.0934
 59.7136  6128.51  78.7502
 59.7556  6174.14  79.1808
 59.7976  6087.11  78.3619
 59.8396  6208.01  79.0291
 59.8816  6124.93  79.0481
 59.9236  6239.34  79.4204
 59.9656  6134.97  79.0162
 60.0076  6184.91  78.6867
 60.0496  6036.86  78.2429
 60.0916  6398.55  79.9538
 60.1336  6173.23  79.653
 60.1756  6116.41  80.4775
 60.1996  0.0000000E+00  0.0000000E+00