File: docs/examples/opeando_xrd/IS17_D/Data/IS17_D/17_Db_f00091.xye
# /beamlines/bl04/projects/cycle2025-II/20250340211-lsimonelli/DATA/IS17_D/17_Db_f00091.xye : mythproc.py merge -s 0.006 -l 0.5 -f /beamlines/bl04/inhouse/ff/FlatField/ff_20Nov2024rod8mm60s_17keV.raw -b True -c true -o xye /beamlines/bl04/projects/cycle2025-II/20250340211-lsimonelli/DATA/IS17_D/17_Db_00091.dat
# IsMon = [6772570, 6772700, 6773762]  IsPos = [-1.4999, -2.4883, -3.4988]
# Wave = 0.4962  CalPath /beamlines/bl04/projects/cycle2025-II/20250340211-lsimonelli/DATA/Align/Si_Pos1_25keV_f00001.cal
# Date = 2025-09-24_19:04:26 Dt = 4.8000  Bin = 0.0060  <imon> = 6773011 +/- 534 (Min/Max) 6772570 / 6773762
# icurr 251.4949  mocoIn 1.7149E-05  mocoOut 0.8049  i15 7.09639e+06  imon 6.77301e+06  i7 7.6667  iEMpd_timer 4.8000  iEMpd_1 3.4876E-08  iEMpd_2 7.9010E-08  iEMpd_3 1.6825E-08  iEMpd_4 4.7888E-08  iEMhp_timer 4.8000  iEMhp_1 4.9124E-06  iEMhp_2 -2.4649E-08  iEMhp_3 -2.5214E-08  iEMhp_4 -2.0419E-08
#      9776
 1.5856  43840  215.007
 1.6276  50746.2  227.354
 1.6696  56662.2  239.394
 1.7116  63970.5  254.862
 1.7536  72693.9  270.526
 1.7956  75945.2  277.2
 1.8376  72777.3  271.788
 1.8796  62596.1  250.211
 1.9216  51979.5  228.912
 1.9636  44418.5  210.742
 2.0056  40695.9  200.936
 2.0476  37757.6  195.668
 2.0896  36632.5  191.601
 2.1316  35429.4  187.522
 2.1736  33860.2  184.777
 2.2156  34258.1  184.368
 2.2576  33287  182.388
 2.2996  31726.9  178.715
 2.3416  32085.8  178.29
 2.3836  31746  177.452
 2.4256  30367.1  174.12
 2.4676  30460.4  174.141
 2.5096  29808  172.322
 2.5516  28690.1  172.943
 2.5936  28610  169.231
 2.6356  28324  169.101
 2.6776  27897.2  166.712
 2.7196  27698  166.211
 2.7616  27491.6  165.773
 2.8036  27045.2  164.586
 2.8456  27128.9  165.491
 2.8876  26230.2  162.585
 2.9296  25862.1  161.575
 2.9716  25815.9  160.914
 3.0136  25373  159.583
 3.0556  25687.2  160.974
 3.0976  25494.1  159.265
 3.1396  25277.7  159.316
 3.1816  25191  158.695
 3.2236  24659.4  157.29
 3.2656  24435.7  155.628
 3.3076  24674.7  157.86
 3.3496  24585.6  156.499
 3.3916  25064.4  157.833
 3.4336  25264.1  159.047
 3.4756  25888.6  160.947
 3.5176  26315.2  162.037
 3.5596  26166.9  164.038
 3.6016  26381.3  162.308
 3.6436  25394.7  160.352
 3.6856  25250.7  158.187
 3.7276  24227.7  156.037
 3.7696  23998.2  155.48
 3.8116  23512.5  153.792
 3.8536  23761.5  154.535
 3.8956  23694.3  154.132
 3.9376  23455.4  153.63
 3.9796  23542.9  153.396
 4.0216  23467.7  152.19
 4.0636  23516.3  153.832
 4.1056  23338.8  152.896
 4.1476  23900.2  155.04
 4.1896  23747.4  154.392
 4.2316  24019.3  155.104
 4.2736  24408.6  156.157
 4.3156  24347.6  156.193
 4.3576  25323.3  159.186
 4.3996  25337.6  159.515
 4.4416  25989.5  161.131
 4.4836  26581.3  163.122
 4.5256  26883.5  164.653
 4.5676  26869.9  164.867
 4.6096  27537.3  165.55
 4.6516  27826.3  166.106
 4.6936  27937  167.277
 4.7356  28148.8  167.73
 4.7776  28087.3  167.377
 4.8196  28024  167.842
 4.8616  27353  165.309
 4.9036  27362.4  165.065
 4.9456  27011.1  164.66
 4.9876  26386.3  162.646
 5.0296  26778.8  163.685
 5.0716  26427.3  163.361
 5.1136  26475.4  163.233
 5.1556  27010.5  164.329
 5.1976  27525.3  165.879
 5.2396  27484.2  165.444
 5.2816  27630.5  166.361
 5.3236  27507  165.685
 5.3656  27151  165.548
 5.4076  26929.5  165.014
 5.4496  26933.9  164.522
 5.4916  27018.8  164.527
 5.5336  26936.4  164.287
 5.5756  27190.5  165.073
 5.6176  27151.6  164.394
 5.6596  27486.8  166.399
 5.7016  27534.6  165.801
 5.7436  27653.2  166.439
 5.7856  27287.5  165.401
 5.8276  27699.4  166.354
 5.8696  27844.6  166.963
 5.9116  28031.7  167.829
 5.9536  28038.5  167.894
 5.9956  28394.7  168.344
 6.0376  28236.2  168.491
 6.0796  28486.2  169.068
 6.1216  28666.3  169.847
 6.1636  28880.5  169.475
 6.2056  28707.2  169.651
 6.2476  29043.3  170.509
 6.2896  29161.8  170.536
 6.3316  29222.1  170.888
 6.3736  29180.2  170.657
 6.4156  29366.2  171.083
 6.4576  29309.1  170.541
 6.4996  29248.7  170.838
 6.5416  29346.5  171.252
 6.5836  29172  170.988
 6.6256  29511.2  171.534
 6.6676  29846.3  172.071
 6.7096  30152.2  173.812
 6.7516  30248.2  173.752
 6.7936  30313.9  173.339
 6.8356  30439.3  173.791
 6.8776  30480.9  174.71
 6.9196  30729.5  175.828
 6.9616  31122.8  176.395
 7.0036  31690.1  177.636
 7.0456  31674.6  176.899
 7.0876  31502.9  178.105
 7.1296  31520.1  177.284
 7.1716  31534  176.866
 7.2136  31268.3  175.896
 7.2556  31529.3  176.787
 7.2976  31470.6  177.119
 7.3396  31206.6  176.592
 7.3816  31106.7  176.519
 7.4236  31665.1  177.395
 7.4656  31767.5  177.14
 7.5076  31778.9  177.332
 7.5496  31705.8  177.658
 7.5916  31902.5  178.254
 7.6336  32265.1  179.151
 7.6756  32490.1  179.621
 7.7176  32983  181.306
 7.7596  32831.9  182.111
 7.8016  33372.2  185.843
 7.8436  32753  180.795
 7.8856  32977  181.023
 7.9276  33711.4  183.424
 7.9696  33528.4  183.233
 8.0116  34852.8  185.37
 8.0536  34927.4  185.817
 8.0956  35022.9  187.243
 8.1376  35431.5  187.806
 8.1796  35808  189.336
 8.2216  36196.1  189.112
 8.2636  36414.2  189.957
 8.3056  36217  190.169
 8.3476  36974.7  191.483
 8.3896  36447.8  190.199
 8.4316  36748.1  191.144
 8.4736  36647.8  190.359
 8.5156  36509.1  190.271
 8.5576  35961.2  190.405
 8.5996  36119.9  189.102
 8.6416  36126.4  190.365
 8.6836  35991.9  189.841
 8.7256  36296.2  190.099
 8.7676  35994  192.186
 8.8096  36513.9  190.884
 8.8516  36434.3  190.254
 8.8936  36109.5  189.354
 8.9356  36258.9  190.072
 8.9776  36215.9  190.044
 9.0196  36462.3  190.359
 9.0616  36264.1  189.342
 9.1036  35483.2  188.45
 9.1456  35343.4  187.408
 9.1876  35785  188.506
 9.2296  35400.3  186.95
 9.2716  35280.7  186.671
 9.3136  35322.2  186.782
 9.3556  35581.5  187.438
 9.3976  34629.9  185.43
 9.4396  34654.3  185.402
 9.4816  34180.6  183.993
 9.5236  33997  183.385
 9.5656  33849.3  183.349
 9.6076  32901.3  181.278
 9.6496  33182.2  181.929
 9.6916  33017  181.449
 9.7336  33421.3  182.335
 9.7756  33213.6  183.031
 9.8176  32844.4  181.524
 9.8596  32866.8  180.042
 9.9016  32503.3  179.018
 9.9436  32124.5  177.903
 9.9856  31835.9  177.366
 10.0276  31127  176.413
 10.0696  31819.3  177.438
 10.1116  31061  175.566
 10.1536  31015.3  175.591
 10.1956  30467.8  173.655
 10.2376  30469.3  173.164
 10.2796  30164.5  172.404
 10.3216  29840.6  171.766
 10.3636  29729.5  171.471
 10.4056  29140.9  170.165
 10.4476  29741.5  171.518
 10.4896  29390  170.093
 10.5316  29202.4  170.136
 10.5736  29054.9  170.119
 10.6156  29086.5  169.968
 10.6576  29262.4  169.029
 10.6996  28459.3  167.4
 10.7416  27990.9  166.232
 10.7836  27594.4  165.699
 10.8256  27379.2  165.484
 10.8676  27167.4  164.393
 10.9096  27135.4  164.325
 10.9516  26776  162.185
 10.9936  27025.1  163.15
 11.0356  26659.3  162.633
 11.0776  26572.3  161.713
 11.1196  25993.3  160.704
 11.1616  25774.4  159.696
 11.2036  26052  160.405
 11.2456  25816.3  160.384
 11.2876  26259.3  161.468
 11.3296  25631.8  159.445
 11.3716  26170.3  160.8
 11.4136  26083  161.423
 11.4556  26051.9  160.982
 11.4976  26506.2  161.37
 11.5396  26765.3  162.332
 11.5816  26740.8  162.694
 11.6236  26077.9  160.904
 11.6656  26142.6  160.247
 11.7076  25160.3  158.035
 11.7496  24849.3  161.035
 11.7916  25063.5  156.988
 11.8336  24460  155.965
 11.8756  24353.9  155.187
 11.9176  24421.2  155.077
 11.9596  24383.5  155.127
 12.0016  24092.4  154.69
 12.0436  24261.6  154.949
 12.0856  24057.7  154.801
 12.1276  23856  154.102
 12.1696  23840.9  153.172
 12.2116  23903.9  153.379
 12.2536  23683.5  153.481
 12.2956  23524.7  152.305
 12.3376  23927.5  153.817
 12.3796  23895.6  154.198
 12.4216  23650.3  152.601
 12.4636  23369.9  152.625
 12.5056  23619.5  152.708
 12.5476  23686.9  152.444
 12.5896  23502.8  152.488
 12.6316  23662.8  153.156
 12.6736  23282.5  152.577
 12.7156  23513.2  153.001
 12.7576  23410.3  152.912
 12.7996  23666.6  152.395
 12.8416  23472.2  152.817
 12.8836  23663.3  153.181
 12.9256  24235.5  154.139
 12.9676  23906.1  153.495
 13.0096  24206  155.561
 13.0516  24079.6  154.186
 13.0936  24443.8  155.767
 13.1356  24595.6  155.212
 13.1776  24026.4  154.415
 13.2196  24273.6  154.846
 13.2616  23970.3  154.194
 13.3036  24128.4  154.666
 13.3456  23829.6  154.046
 13.3876  24304.2  154.85
 13.4296  23982  153.986
 13.4716  24072.3  153.907
 13.5136  24122.2  154.2
 13.5556  24392.5  155.688
 13.5976  24291.2  155.533
 13.6396  24233.5  154.704
 13.6816  24085.1  154.698
 13.7236  24785.3  156.526
 13.7656  26184.6  161.317
 13.8076  26849.1  162.03
 13.8496  26238.9  160.801
 13.8916  24519.8  156.605
 13.9336  23713.6  153.297
 13.9756  23897.8  153.266
 14.0176  23488.8  152.625
 14.0596  23822.9  153.631
 14.1016  23396.3  152.676
 14.1436  23510.8  152.175
 14.1856  22966.4  150.697
 14.2276  22915.2  151.008
 14.2696  22913.5  150.858
 14.3116  22295.5  148.718
 14.3536  22227.3  148.652
 14.3956  22077.3  147.881
 14.4376  22350.4  148.578
 14.4796  22195.7  148.055
 14.5216  21965.8  148.077
 14.5636  21801.1  147.096
 14.6056  22075.4  147.571
 14.6476  21927.8  146.323
 14.6896  21524.1  145.515
 14.7316  21118.7  145.17
 14.7736  20881.5  143.499
 14.8156  20914.9  143.631
 14.8576  20817.5  143.16
 14.8996  20402.7  142.913
 14.9416  20119.3  141.926
 14.9836  19902.8  141.147
 15.0256  19521.2  138.714
 15.0676  19501.6  139.081
 15.1096  19370  138.226
 15.1516  19025.1  137.537
 15.1936  19050.4  137.065
 15.2356  18894  136.657
 15.2776  18717.7  135.731
 15.3196  18301.7  135.192
 15.3616  18331.8  135.061
 15.4036  18227.1  134.54
 15.4456  18631.1  135.675
 15.4876  18110  133.451
 15.5296  18148  133.875
 15.5716  17900.1  132.566
 15.6136  17897.7  132.882
 15.6556  17859.4  131.987
 15.6976  17743.9  131.854
 15.7396  17474.7  131.226
 15.7816  17531.2  130.957
 15.8236  17213.6  130.442
 15.8656  17278.7  130.493
 15.9076  17032  129.384
 15.9496  17743.7  134.865
 15.9916  17636  134.848
 16.0336  17419.4  130.912
 16.0756  17343.4  130.94
 16.1176  17323.9  130.961
 16.1596  16739.1  129.888
 16.2016  16803.7  128.909
 16.2436  17050.5  130.226
 16.2856  16684  128.351
 16.3276  16591.2  128.434
 16.3696  16663.2  128.536
 16.4116  16428.4  128.06
 16.4536  16659.8  128.765
 16.4956  16639.8  128.431
 16.5376  16440.3  127.844
 16.5796  16512.2  127.486
 16.6216  16181.9  126.473
 16.6636  16058.6  126.175
 16.7056  16448.7  127.558
 16.7476  16386  126.846
 16.7896  16166  126.726
 16.8316  16251.9  127.047
 16.8736  16411.4  127.921
 16.9156  16423.4  128.294
 16.9576  16054.6  127.633
 16.9996  16039.5  128.047
 17.0416  16222.5  127.167
 17.0836  16171.5  126.725
 17.1256  15933.6  125.798
 17.1676  16063.8  126.27
 17.2096  15916.3  125.579
 17.2516  15934  125.445
 17.2936  15734.6  125.005
 17.3356  15550.2  124.255
 17.3776  15535.1  124.382
 17.4196  15377.8  123.457
 17.4616  15591.2  124.215
 17.5036  15204.4  123.035
 17.5456  15023.3  122.922
 17.5876  15240.1  122.848
 17.6296  15030.5  121.843
 17.6716  15118  122.767
 17.7136  15020.5  122.499
 17.7556  14948.8  122.5
 17.7976  14949.3  122.241
 17.8396  14758.2  120.96
 17.8816  14750.2  121.491
 17.9236  14749.9  121.285
 17.9656  14616.9  121.259
 18.0076  14605.9  120.8
 18.0496  14661.2  120.17
 18.0916  14687.5  120.824
 18.1336  14760.3  121.221
 18.1756  14767.4  120.799
 18.2176  14435.2  119.638
 18.2596  14641.5  120.22
 18.3016  14802.5  121.14
 18.3436  14743.7  120.912
 18.3856  14654.8  120.673
 18.4276  14442.1  119.48
 18.4696  14567.7  120.081
 18.5116  14461.9  119.905
 18.5536  14441.4  120.199
 18.5956  14265.3  119.024
 18.6376  14223.5  119.258
 18.6796  14150.9  118.266
 18.7216  14388.4  119.748
 18.7636  14139.6  118.71
 18.8056  14036.8  118.202
 18.8476  13949.5  118.466
 18.8896  13942.8  117.767
 18.9316  14046.8  118.192
 18.9736  14007.5  117.724
 19.0156  13932.4  117.829
 19.0576  14110.1  117.426
 19.0996  14028.7  117.937
 19.1416  13991.1  118.033
 19.1836  13918.8  117.334
 19.2256  13798.2  117.042
 19.2676  13813.6  117.197
 19.3096  13733.3  117.093
 19.3516  13850.1  117.547
 19.3936  13657.5  116.624
 19.4356  13983  117.897
 19.4776  13828  117.329
 19.5196  13750.3  116.85
 19.5616  13773.4  117.208
 19.6036  13681  116.316
 19.6456  13750.2  116.725
 19.6876  13782.7  116.501
 19.7296  13993.6  117.851
 19.7716  13748.4  116.988
 19.8136  14065.6  118.519
 19.8556  14101.3  118.159
 19.8976  13996.4  117.771
 19.9396  14074.7  117.693
 19.9816  14111.6  118.166
 20.0236  14440.6  119.652
 20.0656  14416.9  119.558
 20.1076  14390.8  119.934
 20.1496  14068.9  118.574
 20.1916  14100.6  118.229
 20.2336  13927.9  117.427
 20.2756  13493.2  116.009
 20.3176  13357.3  115.171
 20.3596  13271.6  114.787
 20.4016  13367.6  115.001
 20.4436  13289.7  115.224
 20.4856  13304.4  115.086
 20.5276  13201.1  115.093
 20.5696  13350.6  115.192
 20.6116  13132.4  114.527
 20.6536  13099.6  113.902
 20.6956  13013.6  113.654
 20.7376  12926.5  113.473
 20.7796  13041.6  113.681
 20.8216  13180.4  114.001
 20.8636  13031.6  113.725
 20.9056  12964.8  113.372
 20.9476  13020.4  113.458
 20.9896  13049.3  113.444
 21.0316  12975.1  113.034
 21.0736  12893.5  113.189
 21.1156  12841.7  113.116
 21.1576  12959.6  113.679
 21.1996  12843.3  113.157
 21.2416  12965  113.509
 21.2836  12915.4  113.273
 21.3256  12983.9  113.648
 21.3676  12878.1  112.717
 21.4096  12750.9  112.486
 21.4516  12630.9  111.827
 21.4936  12472.1  111.378
 21.5356  12710.1  112.387
 21.5776  12763.3  112.456
 21.6196  12609.5  111.812
 21.6616  12503.4  111.427
 21.7036  12681.5  111.981
 21.7456  12600.5  111.705
 21.7876  12699.1  111.904
 21.8296  12623.4  111.414
 21.8716  12577  111.439
 21.9136  12733  112.329
 21.9556  12482.5  110.901
 21.9976  12410.9  110.609
 22.0396  12486.7  111.195
 22.0816  12488.5  111.721
 22.1236  12609.3  111.731
 22.1656  12530.9  111.525
 22.2076  12321.1  110.053
 22.2496  12271.4  109.854
 22.2916  12139.9  109.153
 22.3336  12248.3  110.351
 22.3756  12304.7  110.326
 22.4176  12140.1  109.438
 22.4596  12002  109.397
 22.5016  12150.9  109.58
 22.5436  12225.8  109.796
 22.5856  12439.6  111
 22.6276  12364.8  110.834
 22.6696  12336.5  111.026
 22.7116  12306  110.402
 22.7536  12129  109.582
 22.7956  12340.9  109.876
 22.8376  12210.5  109.804
 22.8796  12256.1  109.814
 22.9216  12269.2  110.409
 22.9636  12054.8  108.61
 23.0056  12118.8  109.033
 23.0476  12075.5  109.397
 23.0896  12340.7  109.975
 23.1316  12440.7  110.855
 23.1736  12469.1  113.702
 23.2156  12644.7  112.081
 23.2576  12728.8  112.593
 23.2996  12350.6  110.688
 23.3416  12748.7  112.986
 23.3836  12349.4  110.43
 23.4256  12790.4  112.516
 23.4676  12465.8  110.772
 23.5096  12292.7  110.656
 23.5516  12430.8  110.576
 23.5936  12580.7  112.152
 23.6356  12695.9  112.328
 23.6776  12394.3  111.194
 23.7196  12325.3  110.463
 23.7616  12485.3  111.097
 23.8036  12624.5  111.768
 23.8456  12332.4  110.026
 23.8876  12356.7  110.488
 23.9296  12242.3  110.459
 23.9716  12174.2  109.363
 24.0136  12184.7  110.307
 24.0556  12046.9  109.392
 24.0976  12083.5  109.383
 24.1396  12033  111.732
 24.1816  12251.3  111.181
 24.2236  12109.4  110.164
 24.2656  12011.5  109.197
 24.3076  12104.3  109.887
 24.3496  12040.9  109.47
 24.3916  12015.3  109.411
 24.4336  11930.8  109.22
 24.4756  11945.9  109.184
 24.5176  11684.2  107.61
 24.5596  11809  108.303
 24.6016  11684.8  108.028
 24.6436  11817.3  108.148
 24.6856  11751.6  107.595
 24.7276  11617  107.297
 24.7696  11517  106.94
 24.8116  11437.1  106.739
 24.8536  11546.6  107.263
 24.8956  11540.8  106.965
 24.9376  11447.6  106.461
 24.9796  11235.8  105.831
 25.0216  11365.1  106.551
 25.0636  11398.2  106.363
 25.1056  11042  105.38
 25.1476  11075.1  107.162
 25.1896  11180.2  106.177
 25.2316  11043.1  104.807
 25.2736  11138.4  104.904
 25.3156  11041  104.519
 25.3576  11019.7  104.851
 25.3996  11082  105.134
 25.4416  10969  104.572
 25.4836  10901.3  104.761
 25.5256  10939.8  104.311
 25.5676  10971  104.199
 25.6096  10758.2  103.748
 25.6516  10892.9  103.901
 25.6936  10955.9  104.52
 25.7356  10849.7  104.141
 25.7776  10891.3  103.935
 25.8196  10777.5  103.641
 25.8616  10758  103.47
 25.9036  10984.7  104.015
 25.9456  10832.8  103.887
 25.9876  10638.9  103.015
 26.0296  10873.6  103.664
 26.0716  10842.6  103.94
 26.1136  10984.2  104.543
 26.1556  10919.5  103.622
 26.1976  10743.1  103.707
 26.2396  10735.8  102.831
 26.2816  10772  103.618
 26.3236  10775.6  103.78
 26.3656  10958.2  104.382
 26.4076  10699.1  103.315
 26.4496  10951.3  104.152
 26.4916  10987.5  104.204
 26.5336  11301.2  106.034
 26.5756  11648.4  107.53
 26.6176  11012.8  104.545
 26.6596  10691.7  103.341
 26.7016  10767.1  103.47
 26.7436  10752.6  103.536
 26.7856  10545.8  102.517
 26.8276  10536.6  102.441
 26.8696  10570.3  102.473
 26.9116  10498.5  102.069
 26.9536  10372.3  101.498
 26.9956  10253.1  100.947
 27.0376  10472.1  102.241
 27.0796  10432.2  101.775
 27.1216  10447  101.905
 27.1636  10285.5  101.283
 27.2056  10249.6  100.998
 27.2476  10247.9  100.967
 27.2896  10264.6  101.198
 27.3316  10277.8  100.961
 27.3736  10179.6  100.742
 27.4156  10305.7  101.202
 27.4576  10181.7  100.814
 27.4996  10341.5  101.204
 27.5416  10159.8  100.617
 27.5836  10121.4  100.266
 27.6256  10076.5  100.222
 27.6676  10164.2  100.638
 27.7096  10255.7  100.976
 27.7516  10045.9  100.09
 27.7936  10472.5  102.333
 27.8356  10363  101.418
 27.8776  10404.4  101.688
 27.9196  10075.2  99.9156
 27.9616  10189.8  100.682
 28.0036  9993.63  99.668
 28.0456  9970.91  99.6929
 28.0876  9908.91  99.465
 28.1296  9929.61  99.3452
 28.1716  10008.7  99.822
 28.2136  9950.2  99.4938
 28.2556  10004  99.8796
 28.2976  9805.1  98.8772
 28.3396  9909.63  99.1603
 28.3816  9954.55  99.3952
 28.4236  9832.49  98.937
 28.4656  9825.52  98.9433
 28.5076  9703.95  97.9763
 28.5496  9887.39  99.1402
 28.5916  9832.83  98.6906
 28.6336  9785.6  98.7927
 28.6756  9820.23  98.1721
 28.7176  9695.54  97.9849
 28.7596  9695  97.9803
 28.8016  9735.79  98.2216
 28.8436  9625.53  97.9078
 28.8856  9676.08  98.0563
 28.9276  9674.98  98.2552
 28.9696  9729.42  98.1871
 29.0116  9555.75  97.4883
 29.0536  9483.55  97.3269
 29.0956  9620.14  97.7211
 29.1376  9629.49  97.7476
 29.1796  9608.47  97.6917
 29.2216  9601.22  97.4924
 29.2636  9629.43  97.716
 29.3056  9610.3  97.3975
 29.3476  9565.07  97.6949
 29.3896  9533.47  97.6448
 29.4316  9399.35  96.2957
 29.4736  9349.44  96.1007
 29.5156  9336.11  95.9578
 29.5576  9384.55  96.932
 29.5996  9302.26  95.7748
 29.6416  9325.88  96.0171
 29.6836  9476.05  96.7178
 29.7256  9276.59  96.012
 29.7676  9303.75  96.0527
 29.8096  9251.66  95.73
 29.8516  9018.84  94.8412
 29.8936  9320.78  96.5085
 29.9356  9320.65  96.2657
 29.9776  9242.94  96.0107
 30.0196  9163.57  95.2673
 30.0616  9236.2  95.7461
 30.1036  9359.97  96.2098
 30.1456  9202.2  95.6245
 30.1876  9184.2  95.5136
 30.2296  9223.18  95.6628
 30.2716  9360.81  96.0136
 30.3136  9202.27  96.0423
 30.3556  9462.2  97.395
 30.3976  9234.8  97.693
 30.4396  9676.12  97.3364
 30.4816  9511.43  96.1065
 30.5236  9431.46  95.6808
 30.5656  9427.03  96.3318
 30.6076  9489.94  96.0745
 30.6496  9371.03  95.8751
 30.6916  9206.91  95.1121
 30.7336  9456.97  96.5464
 30.7756  9247.78  95.575
 30.8176  9297.49  95.735
 30.8596  9477.53  96.3875
 30.9016  9404.8  96.398
 30.9436  9330.42  95.7474
 30.9856  9439.35  96.4363
 31.0276  9130.73  94.4892
 31.0696  9169.44  95.2378
 31.1116  9267.27  95.7174
 31.1536  9181.42  95.1515
 31.1956  9263.88  95.6673
 31.2376  9030.67  94.4762
 31.2796  9379.38  95.8223
 31.3216  9241.95  95.0476
 31.3636  9287.5  95.9797
 31.4056  9323.67  97.4694
 31.4476  9269.62  95.1084
 31.4896  9373.22  96.1414
 31.5316  9233.26  94.8264
 31.5736  9384.75  95.4305
 31.6156  9166.33  94.3237
 31.6576  9414.34  95.6682
 31.6996  9332.07  94.9189
 31.7416  9209.74  95.3791
 31.7836  9289.8  94.7933
 31.8256  9282.38  95.0107
 31.8676  9389.36  95.5565
 31.9096  9123.76  94.5649
 31.9516  8955.94  93.8587
 31.9936  9075.54  94.3053
 32.0356  9255.55  95.2772
 32.0776  9220.32  94.9893
 32.1196  9102.7  94.496
 32.1616  9144.44  94.165
 32.2036  9211.01  95.0179
 32.2456  9022.49  94.4187
 32.2876  9194.58  94.8105
 32.3296  9079.97  94.1779
 32.3716  8843.7  93.0589
 32.4136  8964.15  93.8873
 32.4556  8988.51  93.4101
 32.4976  8846.9  92.5793
 32.5396  9017.13  93.5316
 32.5816  8929.98  93.1987
 32.6236  8997.2  93.6144
 32.6656  8964.8  93.99
 32.7076  8856.86  93.0806
 32.7496  8856.44  92.7433
 32.7916  8949.11  93.1971
 32.8336  8884.91  92.958
 32.8756  8957.39  93.0495
 32.9176  8831.63  92.8795
 32.9596  8743.53  92.4844
 33.0016  8833.89  92.749
 33.0436  8909.57  93.315
 33.0856  8749.74  92.5615
 33.1276  8693.51  91.9929
 33.1696  8820.68  92.4987
 33.2116  8825.02  92.755
 33.2536  8936.07  93.3269
 33.2956  8850  92.9626
 33.3376  8792.15  92.3971
 33.3796  8856.35  92.9563
 33.4216  8779.77  92.1421
 33.4636  8764.73  92.2106
 33.5056  8634.81  91.7756
 33.5476  8634.97  91.7538
 33.5896  8812.27  92.4873
 33.6316  8723.85  92.3236
 33.6736  8574.74  91.7753
 33.7156  8662.51  92.2756
 33.7576  8729.32  92.2773
 33.7996  8829.81  92.5647
 33.8416  8498.55  90.9984
 33.8836  8675.96  91.7225
 33.9256  8721.37  92.0143
 33.9676  8591.6  91.2262
 34.0096  8583.86  91.491
 34.0516  8564.85  91.0371
 34.0936  8457.66  90.7295
 34.1356  8703.45  91.7829
 34.1776  8500.25  90.6968
 34.2196  8488.4  90.8211
 34.2616  8479.03  90.9051
 34.3036  8573.25  91.6518
 34.3456  8501.14  91.0278
 34.3876  8681.98  91.9606
 34.4296  8555.08  90.9778
 34.4716  8571.49  91.2151
 34.5136  8489.08  90.9691
 34.5556  8368.04  90.5685
 34.5976  8590.19  91.5715
 34.6396  8447.37  90.6459
 34.6816  8614.44  91.5246
 34.7236  8477.98  90.5658
 34.7656  8543.86  91.131
 34.8076  8446.76  90.9417
 34.8496  8383.2  90.5141
 34.8916  8447.8  90.6581
 34.9336  8484.21  90.8386
 34.9756  8393.73  90.2738
 35.0176  8461.13  91.1593
 35.0596  8659.37  92.0397
 35.1016  8418.59  90.5112
 35.1436  8766.88  92.047
 35.1856  8482.35  90.6626
 35.2276  8430.61  90.5638
 35.2696  8376.24  90.4655
 35.3116  8362.86  90.4879
 35.3536  8387.21  90.3308
 35.3956  8341.81  89.7997
 35.4376  8520.2  91.3166
 35.4796  8378.65  90.6056
 35.5216  8387.59  90.6135
 35.5636  8137.18  89.9772
 35.6056  8167.63  89.182
 35.6476  8447.59  90.5975
 35.6896  8420.49  90.5469
 35.7316  8227.98  89.4742
 35.7736  8291.89  90.0075
 35.8156  8328.03  90.2071
 35.8576  8362.17  90.6176
 35.8996  8382.09  90.712
 35.9416  8261.39  89.5704
 35.9836  8284.19  90.032
 36.0256  8566.37  91.5776
 36.0676  8444.02  90.6638
 36.1096  8274.62  89.8929
 36.1516  8439.65  90.6817
 36.1936  8458.85  90.6137
 36.2356  8439.46  91.1772
 36.2776  8290.96  89.847
 36.3196  8266.91  89.389
 36.3616  8321.47  89.8113
 36.4036  8314.77  89.8491
 36.4456  8308.97  90.0247
 36.4876  8162.53  89.172
 36.5296  8155.48  89.1661
 36.5716  8177.2  90.0489
 36.6136  7988.54  87.8204
 36.6556  8045.67  88.3262
 36.6976  7931.86  88.1898
 36.7396  7974.82  88.3344
 36.7816  8027.41  88.8244
 36.8236  8058.82  88.9191
 36.8656  8031.06  88.8243
 36.9076  7938.53  88.2056
 36.9496  7795.07  87.3936
 36.9916  7880.6  87.5087
 37.0336  7969.97  88.3129
 37.0756  8076.07  88.6932
 37.1176  7790.68  87.374
 37.1596  7972.79  88.3972
 37.2016  7807.01  87.6939
 37.2436  7941.28  87.7724
 37.2856  7935.38  87.9864
 37.3276  8170.25  88.6368
 37.3696  8002.4  88.5944
 37.4116  7980.05  88.3785
 37.4536  7882.46  87.5605
 37.4956  7849.38  87.5673
 37.5376  8033.36  90.164
 37.5796  7922.96  89.4691
 37.6216  7930  87.7963
 37.6636  8067.46  88.4384
 37.7056  8001.04  88.267
 37.7476  8206.29  88.9297
 37.7896  7898.67  87.7516
 37.8316  7905.87  87.9394
 37.8736  8016.82  88.0895
 37.9156  8012.67  88.0603
 37.9576  8144.3  88.6941
 37.9996  7984.22  87.5314
 38.0416  7961.14  88.2031
 38.0836  8049.05  88.5947
 38.1256  8098.11  88.8377
 38.1676  7769.92  87.139
 38.2096  8037.63  88.2407
 38.2516  8027.04  88.3985
 38.2936  8023.16  88.1733
 38.3356  7915.93  87.5148
 38.3776  7842.68  87.3497
 38.4196  7856.46  87.2934
 38.4616  7920.36  87.8816
 38.5036  7988.9  88.117
 38.5456  7912.32  88.5215
 38.5876  7940.1  88.8585
 38.6296  7848.54  87.1672
 38.6716  7949.95  87.5246
 38.7136  7945.11  87.4434
 38.7556  7848.31  87.4183
 38.7976  7998.76  88.1753
 38.8396  7830.12  87.5093
 38.8816  7736.43  86.9699
 38.9236  7783.27  87.0355
 38.9656  7889.06  87.5372
 39.0076  8013.86  87.6249
 39.0496  7999.94  88.1038
 39.0916  7907.38  87.2393
 39.1336  7877.74  87.4831
 39.1756  7821.29  87.2155
 39.2176  7797.85  87.626
 39.2596  7808.28  87.6167
 39.3016  7833.4  87.2746
 39.3436  7770.04  87.3826
 39.3856  8052.51  88.4051
 39.4276  7906.35  88.1091
 39.4696  7913.67  87.7744
 39.5116  7967.69  88.5876
 39.5536  7943.27  88.8649
 39.5956  7910.99  87.796
 39.6376  7823.48  87.3103
 39.6796  7750.56  86.6513
 39.7216  7782.02  86.9226
 39.7636  7916.83  88.2351
 39.8056  7888.92  87.8698
 39.8476  7786.56  87.5417
 39.8896  7879.9  87.6977
 39.9316  7746.86  87.207
 39.9736  7932.39  87.8964
 40.0156  7757.22  86.6738
 40.0576  7795.38  87.23
 40.0996  7884.45  86.9165
 40.1416  7751.48  86.9776
 40.1836  7884.85  87.6042
 40.2256  7911.33  87.7808
 40.2676  7785.92  87.1939
 40.3096  7865.88  87.5753
 40.3516  7915.32  87.9557
 40.3936  7965.3  87.7874
 40.4356  7786.75  87.0036
 40.4776  7925.03  88.1677
 40.5196  7894.51  88.0492
 40.5616  8000.56  88.3619
 40.6036  7757.28  87.2569
 40.6456  7738.58  86.7656
 40.6876  7926.64  87.8087
 40.7296  7885.25  87.5964
 40.7716  7913.49  87.9809
 40.8136  7810.49  87.3568
 40.8556  7966.6  88.3554
 40.8976  7839.15  87.579
 40.9396  7922.4  88.3851
 40.9816  7831.53  87.1746
 41.0236  7853.37  87.0807
 41.0656  7885.43  87.7958
 41.1076  7849.44  87.3639
 41.1496  7825.46  87.1358
 41.1916  7821.96  87.4353
 41.2336  7886.47  87.7951
 41.2756  7770.13  86.7532
 41.3176  7824.92  87.6535
 41.3596  7829.3  87.4267
 41.4016  7670.93  86.7951
 41.4436  7891.6  87.8116
 41.4856  7795.21  87.4427
 41.5276  7823.66  87.615
 41.5696  7847.26  87.3805
 41.6116  7900.96  88.0626
 41.6536  7887.78  87.8534
 41.6956  7905.75  88.0132
 41.7376  7831.71  87.6307
 41.7796  7621.19  86.3273
 41.8216  7895.38  88.0948
 41.8636  7779.54  87.3952
 41.9056  7722.47  86.8653
 41.9476  7850.5  87.7181
 41.9896  7878.86  87.6432
 42.0316  7871.62  87.6915
 42.0736  7882  87.842
 42.1156  7814.82  87.3086
 42.1576  7821.55  87.434
 42.1996  7797.25  87.4441
 42.2416  7798.34  87.0441
 42.2836  7788.13  87.1085
 42.3256  7827.12  87.4231
 42.3676  7895.76  87.6166
 42.4096  7936.56  87.8104
 42.4516  7915.19  87.7686
 42.4936  7772.61  87.0539
 42.5356  7689.41  86.721
 42.5776  7832.98  87.462
 42.6196  7768.59  87.1624
 42.6616  7647.66  86.652
 42.7036  7875.42  87.314
 42.7456  7886.2  87.7227
 42.7876  7682.53  86.6711
 42.8296  7821.3  87.2947
 42.8716  7729  86.9449
 42.9136  7695.99  86.5405
 42.9556  7717.58  86.7943
 42.9976  7787.5  87.1565
 43.0396  7758.11  86.7236
 43.0816  7666.78  86.5917
 43.1236  7769.18  87.2091
 43.1656  7789.78  87.1621
 43.2076  7726.37  86.9172
 43.2496  7654.25  86.3287
 43.2916  7573.91  86.2293
 43.3336  7724.54  86.9152
 43.3756  7727.81  86.6956
 43.4176  7582.47  85.9477
 43.4596  7581.22  85.7997
 43.5016  7589.64  86.2505
 43.5436  7539.23  85.8723
 43.5856  7525.6  85.8246
 43.6276  7669.73  86.5327
 43.6696  7553.59  86.1315
 43.7116  7753.21  86.752
 43.7536  7726.14  87.1025
 43.7956  7607.97  87.6363
 43.8376  7494.77  85.5225
 43.8796  7383.48  84.9558
 43.9216  7447.54  85.2497
 43.9636  7608.43  86.2716
 44.0056  7390.36  85.2566
 44.0476  7411.46  85.0137
 44.0896  7404.16  85.3108
 44.1316  7559.9  85.7195
 44.1736  7394.62  84.9115
 44.2156  7494.15  85.3347
 44.2576  7442.72  85.3631
 44.2996  7492.77  85.6194
 44.3416  7505.98  85.4581
 44.3836  7413.48  85.2563
 44.4256  7461.16  85.1724
 44.4676  7316.81  84.4953
 44.5096  7386.36  85.0417
 44.5516  7291.76  84.4622
 44.5936  7248.83  84.1667
 44.6356  7408.78  84.8292
 44.6776  7340.12  84.6701
 44.7196  7357.1  85.1477
 44.7616  7512.52  87.3674
 44.8036  7588.23  86.2278
 44.8456  7636.78  86.7103
 44.8876  7540.67  86.0086
 44.9296  7734.59  86.5477
 44.9716  7622.34  86.3557
 45.0136  7511.92  85.657
 45.0556  7696.17  86.6808
 45.0976  7430.2  85.3244
 45.1396  7499.82  85.4884
 45.1816  7367.09  84.6668
 45.2236  7624.52  86.0347
 45.2656  7434.21  85.4481
 45.3076  7446.75  85.31
 45.3496  7466.34  85.7143
 45.3916  7526.71  86.3397
 45.4336  7522  86.1549
 45.4756  7493.09  85.8428
 45.5176  7535.45  85.7033
 45.5596  7672.94  86.5992
 45.6016  7420.67  85.5882
 45.6436  7560.43  85.5586
 45.6856  7370.33  85.123
 45.7276  7377.69  86.4962
 45.7696  7418.49  86.3987
 45.8116  7410.88  85.7998
 45.8536  7355.03  85.365
 45.8956  7468.06  85.3637
 45.9376  7485.65  84.9223
 45.9796  7457.13  85.4544
 46.0216  7415.9  85.5542
 46.0636  7487.27  85.1059
 46.1056  7481.98  85.0687
 46.1476  7445.14  85.4553
 46.1896  7469.08  85.7416
 46.2316  7387.21  85.1279
 46.2736  7333.48  85.1932
 46.3156  7380.78  85.05
 46.3576  7383.08  85.2707
 46.3996  7357.9  85.282
 46.4416  7354.56  84.8441
 46.4836  7371.35  85.2974
 46.5256  7416.45  85.4964
 46.5676  7458.85  85.8587
 46.6096  7400.34  85.4384
 46.6516  7498.08  85.053
 46.6936  7514.24  85.643
 46.7356  7573.03  86.075
 46.7776  7425.55  86.0868
 46.8196  7322.81  85.0868
 46.8616  7246.18  84.5852
 46.9036  7296.04  84.5306
 46.9456  7228.3  83.7767
 46.9876  7378.5  84.7356
 47.0296  7314.44  85.0534
 47.0716  7360.75  85.1439
 47.1136  7350.03  84.7555
 47.1556  7309.5  84.3838
 47.1976  7492.94  85.5181
 47.2396  7343.91  85.0683
 47.2816  7231.68  84.1216
 47.3236  7297.17  84.8704
 47.3656  7426.25  85.5423
 47.4076  7249.74  84.33
 47.4496  7244.08  84.3839
 47.4916  7263.16  84.6886
 47.5336  7318.78  84.819
 47.5756  7318.53  84.9362
 47.6176  7305.04  84.7658
 47.6596  7239.53  84.0949
 47.7016  7394.96  84.8028
 47.7436  7432.73  85.363
 47.7856  7415.4  85.2948
 47.8276  7284.23  84.5886
 47.8696  7227.01  84.3397
 47.9116  7394.32  85.022
 47.9536  7243.44  84.0909
 47.9956  7286.94  85.057
 48.0376  7220.79  84.4441
 48.0796  7312.12  85.0992
 48.1216  7231.35  84.4535
 48.1636  7427.89  85.1537
 48.2056  7313.74  84.7678
 48.2476  7424.21  85.7218
 48.2896  7395.19  85.4582
 48.3316  7329.18  85.011
 48.3736  7343.67  85.1273
 48.4156  7205.7  84.1752
 48.4576  7290.92  84.9687
 48.4996  7340.79  84.7081
 48.5416  7426.11  85.5287
 48.5836  7351.52  84.7688
 48.6256  7369.22  85.0826
 48.6676  7345.4  85.4567
 48.7096  7339.29  84.6921
 48.7516  7344.78  84.8659
 48.7936  7224.5  84.2376
 48.8356  7244.85  84.4051
 48.8776  7256.96  85.0463
 48.9196  7361.98  85.0296
 48.9616  7224.8  84.6158
 49.0036  7299.59  85.4029
 49.0456  7279.49  85.2619
 49.0876  7288.27  84.8448
 49.1296  7173.7  84.3427
 49.1716  7141.5  84.0263
 49.2136  7274.95  84.7239
 49.2556  7257.58  84.772
 49.2976  7299.4  84.9714
 49.3396  7233.66  84.6458
 49.3816  7328.75  84.6223
 49.4236  7273.09  84.7308
 49.4656  7135.31  83.9026
 49.5076  7230  84.2454
 49.5496  7219.52  84.2442
 49.5916  7307.95  84.6796
 49.6336  7262.87  84.6194
 49.6756  7340.28  85.3084
 49.7176  7246.51  84.7016
 49.7596  7241.53  84.4402
 49.8016  7265.04  84.4879
 49.8436  7132.01  84.0189
 49.8856  7161.37  84.1857
 49.9276  7110.59  83.9832
 49.9696  7301.65  85.0935
 50.0116  7226.97  84.7848
 50.0536  7195.9  84.5488
 50.0956  7116.33  84.1574
 50.1376  7213.31  84.4173
 50.1796  7087.23  83.958
 50.2216  7183.57  84.5261
 50.2636  7221.62  84.3594
 50.3056  7190  84.3479
 50.3476  7233.71  84.6286
 50.3896  7090.27  83.7565
 50.4316  7240.67  84.4705
 50.4736  7137.46  84.0867
 50.5156  7157.59  84.1934
 50.5576  7236.19  84.4178
 50.5996  7184.23  84.5123
 50.6416  7142.62  84.0731
 50.6836  7130.78  84.0632
 50.7256  7186.19  84.3113
 50.7676  7250.35  85.0113
 50.8096  7097.34  83.6449
 50.8516  7099.47  84.0739
 50.8936  7061.04  83.6319
 50.9356  7245.45  84.8255
 50.9776  7064.26  83.9203
 51.0196  7072.62  84.0942
 51.0616  7057.08  83.3195
 51.1036  7095.5  83.9105
 51.1456  7057.88  83.5997
 51.1876  7028.27  82.75
 51.2296  6979.11  83.2309
 51.2716  6956.5  82.6733
 51.3136  6870.48  82.6216
 51.3556  6946.78  82.6963
 51.3976  6957.21  82.9105
 51.4396  6862.12  82.6582
 51.4816  6799.63  82.1352
 51.5236  7005.5  83.4768
 51.5656  6973.23  82.8452
 51.6076  7060.07  83.4507
 51.6496  6927.44  82.8589
 51.6916  6851.02  82.7618
 51.7336  6903.21  83.1684
 51.7756  6884.76  82.7375
 51.8176  6834.55  82.5575
 51.8596  6918.58  83.0786
 51.9016  6971.81  82.9953
 51.9436  6934.48  84.2704
 51.9856  6987.76  85.0203
 52.0276  6971.73  83.3868
 52.0696  7034.82  83.8369
 52.1116  6836.03  82.7726
 52.1536  6975.67  83.491
 52.1956  6960.45  82.863
 52.2376  7085.76  83.7798
 52.2796  7069.17  83.4948
 52.3216  6872.42  83.0083
 52.3636  6943.39  82.9837
 52.4056  6918.21  82.7189
 52.4476  6820.38  82.4954
 52.4896  6720.43  81.9416
 52.5316  6974.75  83.5284
 52.5736  6818.26  82.3016
 52.6156  7044.97  84.0626
 52.6576  6862.62  82.3923
 52.6996  6762.18  82.7835
 52.7416  6731.49  82.4473
 52.7836  6858.14  83.1088
 52.8256  6983.68  83.065
 52.8676  6703.9  81.9566
 52.9096  6897.87  83.1992
 52.9516  6856.27  83.3519
 52.9936  6927.25  84.1623
 53.0356  6917.52  83.0739
 53.0776  6876.29  83.1134
 53.1196  6877.5  83.2345
 53.1616  6850.88  83.1369
 53.2036  6831.59  82.9824
 53.2456  6798.19  82.8854
 53.2876  6857.28  82.9273
 53.3296  6896.01  83.4968
 53.3716  7016  83.9632
 53.4136  6896.05  83.3975
 53.4556  6851.67  83.1557
 53.4976  6839.69  82.916
 53.5396  6813.59  83.1568
 53.5816  6872.63  83.1521
 53.6236  6743  82.6531
 53.6656  6827.6  82.8268
 53.7076  6866.2  83.0362
 53.7496  6864.97  83.16
 53.7916  6819.86  83.0128
 53.8336  6931.74  83.5804
 53.8756  6724.75  82.8803
 53.9176  6785.44  82.5926
 53.9596  6565.18  82.0101
 54.0016  6559.51  81.2777
 54.0436  6510.33  81.2081
 54.0856  6661.39  81.561
 54.1276  6600.24  81.386
 54.1696  6570.05  81.3623
 54.2116  6658.2  81.6556
 54.2536  6639.44  81.3412
 54.2956  6622.68  81.2349
 54.3376  6553.3  81.3585
 54.3796  6546.23  81.2124
 54.4216  6613.04  81.6947
 54.4636  6611.27  81.7046
 54.5056  6567.13  81.1707
 54.5476  6560.39  81.468
 54.5896  6536.51  81.1691
 54.6316  6547.64  81.0809
 54.6736  6574.59  81.3313
 54.7156  6418.42  80.3829
 54.7576  6463.51  80.6297
 54.7996  6579.93  81.5196
 54.8416  6565.83  81.4079
 54.8836  6598.28  81.7609
 54.9256  6485.49  80.8494
 54.9676  6378.28  80.04
 55.0096  6496.21  80.8027
 55.0516  6373.85  80.2794
 55.0936  6444.71  80.3864
 55.1356  6423.89  80.2892
 55.1776  6573.41  81.4708
 55.2196  6462.4  80.6199
 55.2616  6538.75  81.2504
 55.3036  6356.18  80.2886
 55.3456  6303.02  80.0981
 55.3876  6446.11  80.7226
 55.4296  6332.79  80.0288
 55.4716  6457.03  80.836
 55.5136  6416.9  80.3312
 55.5556  6536.18  81.1293
 55.5976  6398.28  80.3564
 55.6396  6497.77  80.8934
 55.6816  6382.73  80.0564
 55.7236  6272.51  79.427
 55.7656  6376.86  79.7958
 55.8076  6368.73  79.7684
 55.8496  6382.44  80.1344
 55.8916  6242.52  79.4873
 55.9336  6542.93  81.1961
 55.9756  6335.03  79.7874
 56.0176  6278.73  79.5489
 56.0596  6349.44  79.9896
 56.1016  6258.82  79.4492
 56.1436  6266.74  79.7582
 56.1856  6232.76  79.2887
 56.2276  6430.14  80.5882
 56.2696  6243.66  79.4031
 56.3116  6408.17  80.8217
 56.3536  6260.91  79.5261
 56.3956  6333.6  79.9831
 56.4376  6355.32  80.1503
 56.4796  6225.4  79.1564
 56.5216  6277.65  79.8653
 56.5636  6234.12  79.1589
 56.6056  6337.99  80.0621
 56.6476  6204.08  78.7911
 56.6896  6409.05  80.5814
 56.7316  6216.04  79.2702
 56.7736  6239.07  79.393
 56.8156  6236.73  79.4125
 56.8576  6154.45  78.826
 56.8996  6209.84  79.0705
 56.9416  6209.09  79.4033
 56.9836  6350.44  79.8142
 57.0256  6213.96  79.2692
 57.0676  6249.46  79.5987
 57.1096  6333.65  79.9358
 57.1516  6091.06  78.4423
 57.1936  6154.87  78.608
 57.2356  6081.9  78.4727
 57.2776  6212.38  79.2588
 57.3196  6177.85  79.1966
 57.3616  6177.59  78.8832
 57.4036  6216.87  79.1975
 57.4456  6281.06  79.5771
 57.4876  6222.88  79.0708
 57.5296  6139.06  78.8721
 57.5716  6097.27  78.6091
 57.6136  6041.67  78.0828
 57.6556  6183.87  79.1228
 57.6976  6122.42  78.4809
 57.7396  6049.24  78.4557
 57.7816  6097.3  79.1152
 57.8236  6052.33  78.6154
 57.8656  6192.5  79.1813
 57.9076  6101.49  78.6101
 57.9496  6108.92  79.0251
 57.9916  6133.19  78.6837
 58.0336  6115.31  78.8621
 58.0756  6146.42  78.7008
 58.1176  6060.32  78.137
 58.1596  6055.46  78.6955
 58.2016  5876.41  76.7525
 58.2436  5980.02  77.8288
 58.2856  5917.13  77.3437
 58.3276  5866.74  77.3761
 58.3696  5888.71  77.2796
 58.4116  5963.13  77.6339
 58.4536  5989.73  77.6933
 58.4956  5891.4  77.2307
 58.5376  5899.8  76.9879
 58.5796  5851.71  76.9646
 58.6216  5876.69  76.952
 58.6636  5872.46  77.1295
 58.7056  5935.16  77.3942
 58.7476  5887.67  77.5281
 58.7896  5840.62  76.867
 58.8316  5886.97  77.2727
 58.8736  5950.54  77.5925
 58.9156  5827.38  76.8303
 58.9576  5871.54  77.4346
 58.9996  5954.27  77.2371
 59.0416  5838.92  76.8401
 59.0836  6042.3  78.0839
 59.1256  5841.61  77.4667
 59.1676  5835.44  77.7279
 59.2096  5825.01  76.9785
 59.2516  5906.65  77.1018
 59.2936  5782.38  76.6074
 59.3356  5836.06  76.842
 59.3776  6057.87  78.4578
 59.4196  5744.85  76.3419
 59.4616  5818.55  76.6922
 59.5036  5806.39  76.6464
 59.5456  5892.03  76.907
 59.5876  5793.84  76.4507
 59.6296  5651.01  75.5694
 59.6716  5828.35  76.8029
 59.7136  5855.79  76.972
 59.7556  5739.89  76.3394
 59.7976  5780.85  76.3591
 59.8396  5847.23  76.6922
 59.8816  5817.47  77.0301
 59.9236  5820.94  76.7052
 59.9656  5746.47  76.4652
 60.0076  5883.27  76.7378
 60.0496  5852.4  77.0322
 60.0916  6001.19  77.4253
 60.1336  5806.43  77.2443
 60.1756  5859.53  78.7631
 60.1996  0.0000000E+00  0.0000000E+00