File: docs/examples/opeando_xrd/IS17_D/Data/IS17_D/17_Da_f00068.xye
# /beamlines/bl04/projects/cycle2025-II/20250340211-lsimonelli/DATA/IS17_D/17_Da_f00068.xye : mythproc.py merge -s 0.006 -l 0.5 -f /beamlines/bl04/inhouse/ff/FlatField/ff_20Nov2024rod8mm60s_17keV.raw -b True -c true -o xye /beamlines/bl04/projects/cycle2025-II/20250340211-lsimonelli/DATA/IS17_D/17_Da_00068.dat
# IsMon = [6763098, 6764389, 6763110]  IsPos = [-1.4999, -2.4884, -3.4988]
# Wave = 0.4962  CalPath /beamlines/bl04/projects/cycle2025-II/20250340211-lsimonelli/DATA/Align/Si_Pos1_25keV_f00001.cal
# Date = 2025-09-24_12:29:53 Dt = 4.8000  Bin = 0.0060  <imon> = 6763532 +/- 606 (Min/Max) 6763098 / 6764389
# icurr 250.1556  mocoIn 1.7062E-05  mocoOut 0.8010  i15 7.08197e+06  imon 6.76353e+06  i7 4.0000  iEMpd_timer 4.8000  iEMpd_1 3.2330E-08  iEMpd_2 7.9426E-08  iEMpd_3 1.6249E-08  iEMpd_4 4.6615E-08  iEMhp_timer 4.8000  iEMhp_1 4.8871E-06  iEMhp_2 -2.5460E-08  iEMhp_3 -2.5141E-08  iEMhp_4 -2.1457E-08
#      9776
 1.5856  39387.8  203.797
 1.6276  46612.5  217.897
 1.6696  53007.5  231.545
 1.7116  61683.3  250.264
 1.7536  70867  267.105
 1.7956  75771.4  276.883
 1.8376  71807.6  269.971
 1.8796  60415.3  245.804
 1.9216  48308.7  220.681
 1.9636  40886.5  202.19
 2.0056  36888.3  191.305
 2.0476  33988.8  185.646
 2.0896  32778.2  181.241
 2.1316  31552.9  176.966
 2.1736  30073.3  174.138
 2.2156  30540.7  174.077
 2.2576  29460.5  171.585
 2.2996  28218.9  168.546
 2.3416  28553.3  168.188
 2.3836  28047.6  166.795
 2.4256  27075.3  164.412
 2.4676  27118.1  164.309
 2.5096  27220.8  164.674
 2.5516  31388.1  180.924
 2.5936  97541.6  312.48
 2.6356  28205.6  168.747
 2.6776  25853.8  160.46
 2.7196  25322.5  159.311
 2.7616  25131.8  158.496
 2.8036  24669.2  157.196
 2.8456  24626.6  157.664
 2.8876  24245.3  156.317
 2.9296  23693.9  154.652
 2.9716  23684.4  154.125
 3.0136  23167  152.497
 3.0556  23237.6  153.114
 3.0976  23133  151.732
 3.1396  23151.4  152.498
 3.1816  22710.6  150.968
 3.2236  22673  150.847
 3.2656  22804.9  150.339
 3.3076  22593.3  151.063
 3.3496  22969.6  151.271
 3.3916  23423.5  152.588
 3.4336  23569.1  153.629
 3.4756  24005.3  154.972
 3.5176  24843.5  157.449
 3.5596  24775.5  159.64
 3.6016  24918  157.745
 3.6436  24198.5  156.534
 3.6856  23476.1  152.512
 3.7276  22670.4  150.941
 3.7696  22515.6  150.618
 3.8116  22325.8  149.868
 3.8536  22298.4  149.713
 3.8956  22313.2  149.589
 3.9376  22701.6  151.138
 3.9796  22114.7  148.688
 4.0216  22120.9  147.757
 4.0636  22217.3  149.539
 4.1056  22176.9  149.04
 4.1476  22287.2  149.73
 4.1896  22409.4  149.998
 4.2316  22875.2  151.382
 4.2736  23293.6  152.549
 4.3156  23464.3  153.336
 4.3576  24103.8  155.338
 4.3996  24508.6  156.887
 4.4416  25040  158.168
 4.4836  26097.7  161.625
 4.5256  25871.5  161.531
 4.5676  25937.8  161.99
 4.6096  26299.2  161.787
 4.6516  26945.1  163.473
 4.6936  27086  164.708
 4.7356  27579.2  166.028
 4.7776  27154.2  164.579
 4.8196  26738.4  163.95
 4.8616  26271.8  162.005
 4.9036  26103.7  161.232
 4.9456  26217.4  162.231
 4.9876  25572.3  160.126
 5.0296  25599.1  160.033
 5.0716  25428.3  160.263
 5.1136  25682.7  160.774
 5.1556  26168.4  161.751
 5.1976  31890.2  178.553
 5.2396  26792.3  163.361
 5.2816  26496.3  162.912
 5.3236  26440.3  162.451
 5.3656  26045.4  162.143
 5.4076  25781.7  161.47
 5.4496  25943.3  161.465
 5.4916  26048.6  161.551
 5.5336  26031.4  161.506
 5.5756  25753  160.665
 5.6176  25934.2  160.675
 5.6596  26257.5  162.637
 5.7016  26352.2  162.206
 5.7436  26582.3  163.176
 5.7856  26381.1  162.622
 5.8276  26885.9  163.895
 5.8696  26954.7  164.271
 5.9116  27058.6  165.19
 5.9536  27236.3  165.484
 5.9956  27439.5  165.475
 6.0376  27439.6  166.102
 6.0796  27545.6  166.252
 6.1216  27727.3  167.006
 6.1636  27977.4  166.831
 6.2056  28070  167.762
 6.2476  28019.5  167.489
 6.2896  28389.6  168.273
 6.3316  28319.2  168.234
 6.3736  28400  168.372
 6.4156  28534.5  168.664
 6.4576  28698.3  168.762
 6.4996  28937.3  169.94
 6.5416  28812.4  169.707
 6.5836  29294.2  171.351
 6.6256  29044.3  170.182
 6.6676  29430.6  170.884
 6.7096  29316.3  171.395
 6.7516  29979.3  172.981
 6.7936  30484.3  173.858
 6.8356  31134.6  175.78
 6.8776  30816.2  175.683
 6.9196  30384.9  174.844
 6.9616  30899.3  175.764
 7.0036  31268.9  176.465
 7.0456  31396.7  176.127
 7.0876  31130.4  177.053
 7.1296  31220.6  176.455
 7.1716  31226.2  176.012
 7.2136  30966.3  175.06
 7.2556  31232.1  175.971
 7.2976  31215.3  176.418
 7.3396  31283.1  176.818
 7.3816  31252.7  176.947
 7.4236  31445.4  176.785
 7.4656  31752.7  177.135
 7.5076  32008.9  177.984
 7.5496  31837.5  178.045
 7.5916  31827.6  178.047
 7.6336  32547.6  179.943
 7.6756  32427.9  179.465
 7.7176  32702  180.527
 7.7596  32779.6  181.99
 7.8016  36530.6  194.408
 7.8436  33828.4  183.743
 7.8856  33867.5  183.464
 7.9276  34762  186.265
 7.9696  34881.3  186.896
 8.0116  36008.6  188.418
 8.0536  36056.7  188.8
 8.0956  37570.4  193.918
 8.1376  36207.6  189.851
 8.1796  36559  191.309
 8.2216  37695.2  192.994
 8.2636  38517.7  195.339
 8.3056  37689.8  194.009
 8.3476  39241.4  197.272
 8.3896  38531.7  195.564
 8.4316  37871.4  194.043
 8.4736  37890.8  193.554
 8.5156  37546.5  192.954
 8.5576  37396.2  193.543
 8.5996  37579.6  192.883
 8.6416  37382.3  193.639
 8.6836  37216.4  193.046
 8.7256  37850.6  194.112
 8.7676  39309.2  200.809
 8.8096  39128.8  197.584
 8.8516  37575.8  193.238
 8.8936  38392.8  195.211
 8.9356  36816.8  191.503
 8.9776  37061.2  192.249
 9.0196  36535.4  190.544
 9.0616  36815.7  190.745
 9.1036  38132  195.357
 9.1456  36499.7  190.476
 9.1876  36273.2  189.83
 9.2296  36014.3  188.564
 9.2716  35480.9  187.215
 9.3136  35752.3  187.918
 9.3556  35961.3  188.447
 9.3976  34331.8  184.657
 9.4396  34567.2  185.176
 9.4816  34335.9  184.423
 9.5236  34429.6  184.587
 9.5656  34125.6  184.089
 9.6076  33852.8  183.887
 9.6496  33696.2  183.382
 9.6916  33565.5  182.991
 9.7336  33705.8  183.154
 9.7756  33797.7  184.663
 9.8176  33021.3  182.022
 9.8596  32949.1  180.274
 9.9016  32547.7  179.166
 9.9436  32499.1  178.944
 9.9856  32242.3  178.469
 10.0276  31603  177.782
 10.0696  32077.5  178.154
 10.1116  31041.1  175.515
 10.1536  30744.6  174.839
 10.1956  30441.3  173.579
 10.2376  29986.1  171.779
 10.2796  30380.2  173.034
 10.3216  29980  172.157
 10.3636  30224.1  172.878
 10.4056  31742.5  177.584
 10.4476  31986.9  177.88
 10.4896  34897.2  185.206
 10.5316  32508  179.504
 10.5736  29605.5  171.713
 10.6156  29036.5  169.822
 10.6576  32855.1  179.11
 10.6996  29275.7  169.753
 10.7416  28394.2  167.413
 10.7836  29383.9  171.009
 10.8256  27715.6  166.518
 10.8676  27921.9  166.665
 10.9096  27792.5  166.326
 10.9516  27367.2  163.973
 10.9936  27968.4  165.965
 11.0356  27727.2  165.891
 11.0776  28386.3  167.148
 11.1196  28208.4  167.39
 11.1616  26942.7  163.276
 11.2036  27845  165.836
 11.2456  28634.9  168.912
 11.2876  26518  162.271
 11.3296  26401.1  161.811
 11.3716  27195.9  163.921
 11.4136  26635.4  163.126
 11.4556  27158  164.382
 11.4976  28379.8  166.972
 11.5396  27914.5  165.762
 11.5816  26395.7  161.66
 11.6236  25793.2  160.012
 11.6656  25796.1  159.188
 11.7076  25361.6  158.674
 11.7496  25453.9  162.894
 11.7916  25769.2  159.205
 11.8336  25032.1  157.798
 11.8756  25067.1  157.44
 11.9176  24981.8  156.821
 11.9596  24663.4  156.007
 12.0016  24585.7  156.558
 12.0436  24362.8  155.271
 12.0856  24250.2  155.439
 12.1276  24354.5  155.685
 12.1696  24324.9  154.729
 12.2116  24800.9  156.235
 12.2536  26024.3  160.9
 12.2956  24699.3  156.079
 12.3376  24287.5  154.978
 12.3796  24303.9  155.489
 12.4216  24410.3  155.047
 12.4636  25050.7  157.995
 12.5056  24033.3  154.027
 12.5476  24085.5  153.731
 12.5896  24046.6  154.24
 12.6316  23726.1  153.358
 12.6736  23857.1  154.271
 12.7156  23877.5  154.196
 12.7576  23893.8  154.492
 12.7996  24199.9  154.122
 12.8416  24366.8  155.711
 12.8836  24948.2  157.386
 12.9256  24578.1  155.221
 12.9676  24742.9  156.169
 13.0096  24274.7  155.779
 13.0516  24502.9  155.552
 13.0936  24442.4  155.752
 13.1356  24915.2  156.235
 13.1776  24489.9  155.882
 13.2196  24298.2  154.934
 13.2616  24463.8  155.768
 13.3036  24456.2  155.714
 13.3456  24420.8  155.958
 13.3876  24561.7  155.698
 13.4296  24522  155.721
 13.4716  24722.4  155.97
 13.5136  24642.6  155.871
 13.5556  24628.1  156.428
 13.5976  24394.6  155.833
 13.6396  24838.9  156.614
 13.6816  24514.8  156.084
 13.7236  25219.2  157.956
 13.7656  24452.7  156.067
 13.8076  25176.5  157.13
 13.8496  24355.6  155.147
 13.8916  24399.3  156.287
 13.9336  24150.3  154.719
 13.9756  24218.5  154.29
 14.0176  24022.1  154.34
 14.0596  24699  156.47
 14.1016  23583.9  153.281
 14.1436  23453.4  151.998
 14.1856  23181.3  151.408
 14.2276  23195.3  151.928
 14.2696  23773.8  153.66
 14.3116  23063.2  151.242
 14.3536  22372.4  149.143
 14.3956  22402.5  148.973
 14.4376  22592.7  149.382
 14.4796  22634.1  149.509
 14.5216  22255  149.053
 14.5636  22591.6  149.74
 14.6056  22329.8  148.435
 14.6476  22010.7  146.604
 14.6896  21613.2  145.811
 14.7316  21295.9  145.76
 14.7736  21313  144.965
 14.8156  21045.8  144.096
 14.8576  21094.2  144.112
 14.8996  20789.2  144.272
 14.9416  20237.4  142.348
 14.9836  20580.8  143.504
 15.0256  20377.1  141.72
 15.0676  20269.4  141.663
 15.1096  20024.5  140.542
 15.1516  19687.8  139.909
 15.1936  19641.3  139.175
 15.2356  19555.4  139.148
 15.2776  19398  138.172
 15.3196  19182.4  138.405
 15.3616  19008.3  137.535
 15.4036  18891.7  136.968
 15.4456  19178.4  137.654
 15.4876  18950.3  136.513
 15.5296  18710  135.925
 15.5716  18270.4  133.928
 15.6136  18398.3  134.718
 15.6556  19900.6  139.326
 15.6976  18700.7  135.348
 15.7396  18561.9  135.247
 15.7816  18301.4  133.791
 15.8236  17951.8  133.22
 15.8656  17913  132.863
 15.9076  17773.7  132.171
 15.9496  18233.6  136.705
 15.9916  17505.9  134.391
 16.0336  17337.4  130.642
 16.0756  17348.4  130.993
 16.1176  17280.7  130.808
 16.1596  16932.3  130.656
 16.2016  17142.9  130.212
 16.2436  16840.3  129.441
 16.2856  16761.8  128.684
 16.3276  16349.2  127.502
 16.3696  16798.2  129.06
 16.4116  16399.2  127.975
 16.4536  16704.5  128.95
 16.4956  17014.8  129.867
 16.5376  16702.3  128.862
 16.5796  16628.7  127.926
 16.6216  16394.2  127.334
 16.6636  16443.4  127.679
 16.7056  16524.2  127.86
 16.7476  16438.6  127.058
 16.7896  16535.1  128.185
 16.8316  16446.5  127.801
 16.8736  16634.9  128.795
 16.9156  16547.3  128.792
 16.9576  16131.4  127.957
 16.9996  16238.9  128.873
 17.0416  16240.3  127.224
 17.0836  15910.5  125.693
 17.1256  15905.3  125.684
 17.1676  16316.4  127.289
 17.2096  16224.1  126.803
 17.2516  15710.7  124.563
 17.2936  15509.1  124.086
 17.3356  15341.1  123.418
 17.3776  15339.7  123.597
 17.4196  15406.4  123.556
 17.4616  15323  123.146
 17.5036  15747  125.207
 17.5456  15107.9  123.278
 17.5876  15112.9  122.35
 17.6296  15212.4  122.572
 17.6716  15231.4  123.218
 17.7136  15530.7  124.57
 17.7556  15126  123.225
 17.7976  15107.9  122.899
 17.8396  15043.2  122.128
 17.8816  14751.8  121.483
 17.9236  14663.2  120.929
 17.9656  15051.9  123.066
 18.0076  15340.5  123.811
 18.0496  15890.5  125.115
 18.0916  18599.3  135.961
 18.1336  17035.6  130.222
 18.1756  15783.2  124.856
 18.2176  15571.5  124.262
 18.2596  15018  121.76
 18.3016  15480.2  123.884
 18.3436  15691.6  124.723
 18.3856  14887.6  121.628
 18.4276  14612.3  120.172
 18.4696  14842.6  121.219
 18.5116  14981.4  122.07
 18.5536  14843.6  121.877
 18.5956  14600.3  120.416
 18.6376  14735.7  121.382
 18.6796  14604.8  120.162
 18.7216  14619  120.705
 18.7636  14312.9  119.433
 18.8056  14305.4  119.341
 18.8476  14126.8  119.218
 18.8896  14074  118.333
 18.9316  14353.9  119.492
 18.9736  14127.9  118.24
 19.0156  14417.3  119.855
 19.0576  14443.9  118.82
 19.0996  14294.1  118.915
 19.1416  14139.8  118.662
 19.1836  14085.3  118.039
 19.2256  13814.4  117.113
 19.2676  13884.3  117.496
 19.3096  13964.5  118.082
 19.3516  13882.2  117.691
 19.3936  14135.8  118.658
 19.4356  13996.8  117.943
 19.4776  13897.7  117.625
 19.5196  13842.8  117.241
 19.5616  14040  118.332
 19.6036  14038.6  117.828
 19.6456  14143.3  118.387
 19.6876  14498.5  119.499
 19.7296  14043.2  118.061
 19.7716  14083.3  118.396
 19.8136  14390.5  119.894
 19.8556  14665.7  120.502
 19.8976  14837.9  121.273
 19.9396  14766.4  120.552
 19.9816  14829.7  121.055
 20.0236  14861.7  121.406
 20.0656  14288.4  119.039
 20.1076  13801.1  117.448
 20.1496  13798.2  117.444
 20.1916  13883.4  117.323
 20.2336  13799.4  116.9
 20.2756  13510.8  116.095
 20.3176  13347.5  115.143
 20.3596  13542.6  115.958
 20.4016  13488.7  115.529
 20.4436  13472.1  116.01
 20.4856  13350.2  115.276
 20.5276  13486.5  116.328
 20.5696  13395.9  115.397
 20.6116  13379.2  115.601
 20.6536  13307.3  114.795
 20.6956  13277.4  114.789
 20.7376  13356  115.365
 20.7796  13237  114.531
 20.8216  13337.5  114.674
 20.8636  13338.2  115.051
 20.9056  14121.7  118.329
 20.9476  13294.8  114.652
 20.9896  13959.2  117.348
 21.0316  13403.1  114.879
 21.0736  13524.5  115.925
 21.1156  13595.6  116.392
 21.1576  13379.7  115.516
 21.1996  13105.5  114.303
 21.2416  13026.3  113.789
 21.2836  13337.1  115.101
 21.3256  13049.2  113.936
 21.3676  13336.3  114.726
 21.4096  13267.6  114.745
 21.4516  13053.6  113.693
 21.4936  12733.2  112.539
 21.5356  12941  113.397
 21.5776  13231.2  114.501
 21.6196  13127.9  114.088
 21.6616  13089  114.002
 21.7036  12792.8  112.489
 21.7456  12835  112.749
 21.7876  12708.8  111.946
 21.8296  12651.8  111.551
 21.8716  12741.9  112.177
 21.9136  12912.2  113.126
 21.9556  12840.5  112.482
 21.9976  12860.7  112.587
 22.0396  12672.8  112.011
 22.0816  12830.4  113.253
 22.1236  13208.4  114.356
 22.1656  12831.1  112.833
 22.2076  12947.7  112.811
 22.2496  12820.2  112.283
 22.2916  12957.4  112.758
 22.3336  12691.4  112.326
 22.3756  12679  111.994
 22.4176  12653  111.729
 22.4596  12472.5  111.523
 22.5016  12814.5  112.53
 22.5436  12772.3  112.227
 22.5856  12903  113.048
 22.6276  12621.2  111.941
 22.6696  12654.8  112.444
 22.7116  12502.1  111.276
 22.7536  12714.3  112.192
 22.7956  12771.1  111.774
 22.8376  12571.1  111.417
 22.8796  12686.7  111.724
 22.9216  12844.4  112.973
 22.9636  12789.9  111.875
 23.0056  12759.5  111.877
 23.0476  12877.5  112.965
 23.0896  12974.1  112.764
 23.1316  12806.9  112.473
 23.1736  12573  114.39
 23.2156  12712.9  112.395
 23.2576  12699  112.456
 23.2996  12701.2  112.258
 23.3416  12552.9  112.118
 23.3836  12617.3  111.639
 23.4256  12547.5  111.435
 23.4676  12579.9  111.28
 23.5096  12666.2  112.344
 23.5516  12546.7  111.091
 23.5936  12693.6  112.654
 23.6356  12834.1  112.936
 23.6776  12586.1  112.053
 23.7196  12517.4  111.322
 23.7616  12685.4  111.981
 23.8036  12458  111.014
 23.8456  12554.1  111.02
 23.8876  12358.5  110.496
 23.9296  12316  110.788
 23.9716  12427.5  110.495
 24.0136  12376.7  111.167
 24.0556  12182.6  110.022
 24.0976  12197.7  109.898
 24.1396  12114.8  112.163
 24.1816  12276.6  111.325
 24.2236  12063.4  109.962
 24.2656  12164.9  109.895
 24.3076  12057.8  109.669
 24.3496  12288  110.592
 24.3916  12215.9  110.316
 24.4336  12036.4  109.709
 24.4756  11811.7  108.555
 24.5176  11726.2  107.813
 24.5596  11781  108.185
 24.6016  11527.5  107.305
 24.6436  11809.5  108.1
 24.6856  11733.4  107.511
 24.7276  11865.5  108.429
 24.7696  11831.1  108.389
 24.8116  11729.4  108.102
 24.8536  11649.9  107.732
 24.8956  11551.6  107.017
 24.9376  11470.9  106.58
 24.9796  11386.8  106.542
 25.0216  11310  106.294
 25.0636  11670.7  107.623
 25.1056  11248.4  106.362
 25.1476  11365.2  108.571
 25.1896  11359.5  107.03
 25.2316  11410.6  106.532
 25.2736  11419.4  106.229
 25.3156  11208  105.32
 25.3576  11280.4  106.075
 25.3996  11278.6  106.052
 25.4416  11231.7  105.818
 25.4836  11094.5  105.692
 25.5256  11127.6  105.214
 25.5676  11305.5  105.777
 25.6096  11051.2  105.155
 25.6516  11248.6  105.586
 25.6936  11122.1  105.305
 25.7356  11074.2  105.216
 25.7776  11133  105.096
 25.8196  11060.5  104.984
 25.8616  11222.8  105.677
 25.9036  11216.1  105.111
 25.9456  11011.6  104.743
 25.9876  10969  104.604
 26.0296  11092.1  104.703
 26.0716  10905.1  104.239
 26.1136  11157.1  105.373
 26.1556  11265.8  105.256
 26.1976  10950.2  104.703
 26.2396  11050.9  104.329
 26.2816  10962.3  104.528
 26.3236  11071.8  105.206
 26.3656  10928  104.245
 26.4076  10960.9  104.615
 26.4496  11418.7  106.253
 26.4916  11172.1  105.111
 26.5336  10858.4  103.94
 26.5756  11008.9  104.537
 26.6176  11015.3  104.606
 26.6596  10801.9  103.893
 26.7016  10706  103.186
 26.7436  10748.9  103.529
 26.7856  10614  102.86
 26.8276  10588.4  102.691
 26.8696  10656.1  102.886
 26.9116  10485.6  101.997
 26.9536  10558.1  102.406
 26.9956  10577.6  102.533
 27.0376  10504.4  102.387
 27.0796  10594.3  102.557
 27.1216  10516.9  102.262
 27.1636  10384.9  101.781
 27.2056  10498.9  102.223
 27.2476  10596.3  102.694
 27.2896  10480.1  102.242
 27.3316  10414.2  101.635
 27.3736  10345.2  101.559
 27.4156  10375  101.545
 27.4576  10579.8  102.78
 27.4996  10357.7  101.288
 27.5416  10432.9  101.975
 27.5836  10417.8  101.722
 27.6256  10687.9  103.193
 27.6676  10597.3  102.781
 27.7096  10476.7  102.056
 27.7516  10697.2  103.282
 27.7936  10629.3  103.12
 27.8356  10588.2  102.542
 27.8776  10295.9  101.16
 27.9196  10271.3  100.883
 27.9616  10524.9  102.326
 28.0036  10335.4  101.37
 28.0456  10228.8  100.976
 28.0876  10227.3  101.061
 28.1296  10197.8  100.754
 28.1716  10201.8  100.783
 28.2136  10199  100.732
 28.2556  10045.5  100.083
 28.2976  10132.9  100.517
 28.3396  10205.9  100.638
 28.3816  10100.3  100.132
 28.4236  10268.4  101.118
 28.4656  9943.31  99.536
 28.5076  9951.42  99.2139
 28.5496  10130  100.367
 28.5916  9998.35  99.5198
 28.6336  9849.26  99.1133
 28.6756  9983.72  98.9901
 28.7176  9973.03  99.4855
 28.7596  9829.34  98.665
 28.8016  9898.89  99.0464
 28.8436  9817.75  98.8835
 28.8856  9955.03  99.4183
 28.9276  9895.22  99.3694
 28.9696  9768.73  98.3879
 29.0116  9783.5  98.6548
 29.0536  9622.65  98.0282
 29.0956  9740.98  98.3541
 29.1376  9812.82  98.6768
 29.1796  9653.52  97.9096
 29.2216  9612.75  97.5551
 29.2636  9709.4  98.1181
 29.3056  9670.62  97.7165
 29.3476  9696.83  98.3691
 29.3896  9915.85  99.5733
 29.4316  9742.45  98.0374
 29.4736  9802.15  98.4038
 29.5156  9918.83  98.9013
 29.5576  9682.73  98.4601
 29.5996  9747.8  98.0472
 29.6416  9605.08  97.4407
 29.6836  9629.63  97.4981
 29.7256  9795.93  98.9071
 29.7676  9685.03  98.0046
 29.8096  9640.79  97.7228
 29.8516  9529.42  97.4898
 29.8936  9607.93  97.9739
 29.9356  9646.24  97.9326
 29.9776  9827.82  99.0069
 30.0196  9695.54  97.7088
 30.0616  9661.86  97.9254
 30.1036  9548.35  97.1751
 30.1456  9516.33  97.2485
 30.1876  9640.31  97.8538
 30.2296  9493.83  97.058
 30.2716  9671.76  97.5974
 30.3136  9685.1  98.5294
 30.3556  9640.45  98.3111
 30.3976  9513.69  99.1922
 30.4396  9659.09  97.2634
 30.4816  9668.07  96.9082
 30.5236  9542.45  96.2967
 30.5656  9498.16  96.7229
 30.6076  9526.35  96.3014
 30.6496  9634.98  97.2314
 30.6916  9459.23  96.4338
 30.7336  9550.85  97.0517
 30.7756  9423.87  96.4964
 30.8176  9370.51  96.1388
 30.8596  9339.72  95.7454
 30.9016  9478.08  96.801
 30.9436  9435.04  96.3345
 30.9856  9351.27  96.0128
 31.0276  9490.37  96.3167
 31.0696  9419.45  96.5396
 31.1116  9408.84  96.4669
 31.1536  9445.5  96.5417
 31.1956  9286.77  95.8099
 31.2376  9254.36  95.6563
 31.2796  9306.92  95.4641
 31.3216  9450.63  96.1427
 31.3636  9352.41  96.3282
 31.4056  9298.79  97.3734
 31.4476  9243.82  94.9717
 31.4896  9395.45  96.2525
 31.5316  9357.1  95.4487
 31.5736  9739.26  97.1932
 31.6156  9614.9  96.6002
 31.6576  9508.32  96.158
 31.6996  9314.4  94.8394
 31.7416  9333.36  95.9994
 31.7836  9411.34  95.4156
 31.8256  9072.51  93.954
 31.8676  9434.27  95.8057
 31.9096  9240.45  95.1703
 31.9516  8960.6  93.8757
 31.9936  9210.46  94.9998
 32.0356  9131.07  94.6542
 32.0776  9298  95.4039
 32.1196  9159.05  94.7776
 32.1616  9266.27  94.7879
 32.2036  9121.68  94.5556
 32.2456  9130.22  94.9812
 32.2876  9144.45  94.5456
 32.3296  8982.78  93.6763
 32.3716  9038.73  94.0706
 32.4136  9201.97  95.1383
 32.4556  9348.64  95.2597
 32.4976  9205.36  94.435
 32.5396  9168.82  94.3211
 32.5816  9021.19  93.6799
 32.6236  9055.18  93.9212
 32.6656  9154.82  94.9841
 32.7076  8939.34  93.5127
 32.7496  8988.24  93.4353
 32.7916  9099.68  93.9769
 32.8336  9048.55  93.8073
 32.8756  9155.52  94.0778
 32.9176  8999.15  93.7509
 32.9596  8946.09  93.5515
 33.0016  8999.04  93.6259
 33.0436  9142.3  94.5404
 33.0856  9060.27  94.1855
 33.1276  8937.84  93.281
 33.1696  9072.25  93.8219
 33.2116  9056.19  93.9612
 33.2536  8933.65  93.327
 33.2956  9085.27  94.2002
 33.3376  8895.41  92.9535
 33.3796  8933.13  93.3573
 33.4216  9059.41  93.6137
 33.4636  8949.99  93.1888
 33.5056  8836.37  92.8338
 33.5476  8730.23  92.2654
 33.5896  8987.46  93.383
 33.6316  8793.3  92.6893
 33.6736  8728.67  92.5886
 33.7156  8767.58  92.8387
 33.7576  8786.47  92.5656
 33.7996  8973.19  93.3047
 33.8416  8700.55  92.0644
 33.8836  8864.4  92.7028
 33.9256  8834.63  92.6101
 33.9676  8840.24  92.5385
 34.0096  8632.43  91.7568
 34.0516  8657.34  91.5283
 34.0936  8724.55  92.15
 34.1356  8828.53  92.4388
 34.1776  8659.84  91.5643
 34.2196  8642.59  91.6485
 34.2616  8682.57  91.991
 34.3036  8630.55  91.9668
 34.3456  8715.25  92.1734
 34.3876  8688.17  91.9927
 34.4296  8607.16  91.2503
 34.4716  8677  91.7713
 34.5136  8738.2  92.3012
 34.5556  8598.55  91.8109
 34.5976  8561.95  91.418
 34.6396  8665.32  91.6839
 34.6816  8756.58  92.2749
 34.7236  8767.89  92.1194
 34.7656  8669.24  91.7964
 34.8076  8552.75  91.4961
 34.8496  8693.88  92.1051
 34.8916  8582.39  91.387
 34.9336  8713.94  92.0464
 34.9756  8623.16  91.4815
 35.0176  8716.16  92.5162
 35.0596  8515.11  91.2686
 35.1016  8630.19  91.6473
 35.1436  8667.01  91.5277
 35.1856  8393.88  90.2028
 35.2276  8654.62  91.7687
 35.2696  8555.58  91.4332
 35.3116  8609.86  91.8167
 35.3536  8459.01  90.7223
 35.3956  8468.72  90.4803
 35.4376  8495.47  91.1804
 35.4796  8637.17  91.9947
 35.5216  8469.02  91.0533
 35.5636  8310.53  90.9396
 35.6056  8619.29  91.6194
 35.6476  8548.24  91.1298
 35.6896  8535.47  91.1592
 35.7316  8431.9  90.5783
 35.7736  8385.21  90.5256
 35.8156  8375.98  90.4745
 35.8576  8417.42  90.9478
 35.8996  8500.04  91.3589
 35.9416  8819.41  92.4985
 35.9836  8361.57  90.4641
 36.0256  8544.89  91.4699
 36.0676  8582.03  91.4268
 36.1096  8388.67  90.5298
 36.1516  8446.42  90.7301
 36.1936  8437.58  90.5306
 36.2356  8326.14  90.563
 36.2776  8454.78  90.7466
 36.3196  8457.1  90.426
 36.3616  8463.8  90.5926
 36.4036  8316.78  89.8517
 36.4456  8409.87  90.5664
 36.4876  8366.96  90.2802
 36.5296  8444.57  90.7328
 36.5716  8476.32  91.6973
 36.6136  8625.36  91.249
 36.6556  8458.16  90.5677
 36.6976  8337.64  90.4183
 36.7396  8263.43  89.743
 36.7816  8329  90.4754
 36.8236  8332.9  90.4151
 36.8656  8243.25  90.0054
 36.9076  8298.85  90.1846
 36.9496  8208.22  89.6787
 36.9916  8173.82  89.1228
 37.0336  8451.73  90.9457
 37.0756  8433.95  90.6379
 37.1176  8187.14  89.5711
 37.1596  8264.44  89.9925
 37.2016  8350.4  90.6942
 37.2436  8383.75  90.185
 37.2856  8331.24  90.1585
 37.3276  8402.22  89.8835
 37.3696  8231.04  89.8492
 37.4116  8356.36  90.4408
 37.4536  8190.8  89.4071
 37.4956  8213.34  89.571
 37.5376  8232.55  91.2384
 37.5796  8114.77  90.5413
 37.6216  7987.38  88.115
 37.6636  8099.27  88.6265
 37.7056  8251.88  89.6518
 37.7476  8156.34  88.662
 37.7896  8137.72  89.0635
 37.8316  7984.26  88.3871
 37.8736  8180.84  88.9972
 37.9156  8049.21  88.2783
 37.9576  8027.32  88.0518
 37.9996  7983.97  87.5327
 38.0416  8083.95  88.8889
 38.0836  8203.4  89.4451
 38.1256  8078.06  88.7225
 38.1676  7983.53  88.3353
 38.2096  8062.91  88.3969
 38.2516  8148.56  89.0712
 38.2936  8194.21  89.1167
 38.3356  8099.44  88.5149
 38.3776  8000.27  88.2433
 38.4196  8175.56  89.0611
 38.4616  8136.02  89.081
 38.5036  8186.87  89.201
 38.5456  8005.94  89.0435
 38.5876  8014.97  89.1249
 38.6296  7937.61  87.6715
 38.6716  7856.23  87.0147
 38.7136  7924.05  87.3321
 38.7556  7888.62  87.6382
 38.7976  7864.56  87.4444
 38.8396  7726.53  87.1203
 38.8816  7770.83  87.1549
 38.9236  7754.29  86.8725
 38.9656  7879.9  87.4869
 39.0076  7968.61  87.3843
 39.0496  7950.06  87.8221
 39.0916  8068.03  88.0994
 39.1336  7843.74  87.2952
 39.1756  7738.77  86.7756
 39.2176  7870.11  88.0351
 39.2596  7917.65  88.2233
 39.3016  7915.32  87.787
 39.3436  7874.84  87.9817
 39.3856  7874.87  87.4302
 39.4276  7969.72  88.4566
 39.4696  7929.35  87.8562
 39.5116  7926.64  88.3565
 39.5536  8037.62  89.4029
 39.5956  8023.24  88.4181
 39.6376  7983.54  88.2032
 39.6796  8031.25  88.2021
 39.7216  7937.22  87.7841
 39.7636  7984.59  88.6245
 39.8056  8051.76  88.7676
 39.8476  7822.57  87.7505
 39.8896  7989.87  88.3108
 39.9316  7817.69  87.6079
 39.9736  8039.96  88.4074
 40.0156  7952.65  87.7535
 40.0576  8088.63  88.861
 40.0996  8051.93  87.832
 40.1416  8128.86  89.0617
 40.1836  7980.46  88.1285
 40.2256  7912.51  87.7977
 40.2676  7935.9  88.04
 40.3096  8136.49  89.0707
 40.3516  8236.04  89.7187
 40.3936  8106.44  88.5704
 40.4356  8045.08  88.4249
 40.4776  8021.04  88.7134
 40.5196  8197.12  89.8081
 40.5616  8007.29  88.4034
 40.6036  7991.52  88.5702
 40.6456  8133.53  88.9576
 40.6876  8134.15  88.9358
 40.7296  8104.55  88.9241
 40.7716  8047.72  88.743
 40.8136  7912.04  87.9342
 40.8556  8036.25  88.7556
 40.8976  8056.67  88.7873
 40.9396  8048.52  89.0953
 40.9816  8120.59  88.7697
 41.0236  8094.47  88.4074
 41.0656  8175.48  89.3948
 41.1076  8042.24  88.4332
 41.1496  8058.16  88.4291
 41.1916  7923.9  88.0139
 41.2336  7897.52  87.856
 41.2756  7973.74  87.8843
 41.3176  7947.4  88.3533
 41.3596  7930.27  87.9901
 41.4016  7986.35  88.5624
 41.4436  8036.62  88.6236
 41.4856  8075.15  89.0003
 41.5276  7977.23  88.4757
 41.5696  7921.82  87.795
 41.6116  7989.13  88.5692
 41.6536  8035.15  88.682
 41.6956  7960.65  88.3251
 41.7376  7977.01  88.4439
 41.7796  7994.83  88.4244
 41.8216  8053.78  88.9877
 41.8636  8030.1  88.794
 41.9056  7860.61  87.643
 41.9476  7910.53  88.155
 41.9896  8001.94  88.3235
 42.0316  8033.02  88.5762
 42.0736  7927.58  88.1078
 42.1156  7979.46  88.2336
 42.1576  7975.31  88.312
 42.1996  7976.6  88.4609
 42.2416  7978.38  88.0492
 42.2836  7953.53  88.0291
 42.3256  7801.57  87.2969
 42.3676  7900.12  87.6491
 42.4096  7912.99  87.6805
 42.4516  7887.76  87.6324
 42.4936  7977.82  88.1997
 42.5356  7921.47  88.0218
 42.5776  7842.03  87.5189
 42.6196  7986.19  88.3733
 42.6616  7832.84  87.693
 42.7036  7892.32  87.408
 42.7456  7871.05  87.6443
 42.7876  7773.51  87.1992
 42.8296  7917.71  87.8391
 42.8716  7811.12  87.4047
 42.9136  7741.4  86.8016
 42.9556  7879.68  87.7115
 42.9976  7829.99  87.3933
 43.0396  7894.46  87.4793
 43.0816  7800.64  87.3326
 43.1236  7739.68  87.0589
 43.1656  7812.56  87.2968
 43.2076  7737.91  86.9849
 43.2496  7889.53  87.6436
 43.2916  7783.51  87.4197
 43.3336  7857.22  87.6694
 43.3756  7856.41  87.4099
 43.4176  7588.47  85.9946
 43.4596  7735.14  86.6773
 43.5016  7689.71  86.8267
 43.5436  7710.82  86.846
 43.5856  7677.83  86.6882
 43.6276  7680.46  86.5906
 43.6696  7703.55  86.9861
 43.7116  7714.07  86.5408
 43.7536  7755.61  87.2626
 43.7956  7576.57  87.448
 43.8376  7586.63  86.0447
 43.8796  7680.17  86.6535
 43.9216  7777.59  87.1204
 43.9636  7609.73  86.2827
 44.0056  7645.71  86.7177
 44.0476  7641.66  86.3241
 44.0896  7647.94  86.7035
 44.1316  7734.37  86.7106
 44.1736  7574.33  85.9298
 44.2156  7663.4  86.2862
 44.2576  7681.47  86.7209
 44.2996  7688.03  86.719
 44.3416  7591.2  85.9439
 44.3836  7469.55  85.578
 44.4256  7497.72  85.384
 44.4676  7521.02  85.6704
 44.5096  7497.8  85.6827
 44.5516  7576.34  86.0924
 44.5936  7428.61  85.2
 44.6356  7509.63  85.4058
 44.6776  7493.64  85.6307
 44.7196  7573.74  86.3991
 44.7616  7581.03  87.7689
 44.8036  7457.6  85.4828
 44.8456  7599.54  86.4999
 44.8876  7475.76  85.6418
 44.9296  7598.32  85.7928
 44.9716  7384.3  84.9989
 45.0136  7465.16  85.3922
 45.0556  7553.81  85.8768
 45.0976  7340.17  84.8252
 45.1396  7396.86  84.9025
 45.1816  7422.23  84.9851
 45.2236  7478.73  85.2081
 45.2656  7453.64  85.5716
 45.3076  7410.66  85.1122
 45.3496  7383.39  85.2527
 45.3916  7459.8  85.9528
 45.4336  7429.97  85.6304
 45.4756  7417.99  85.418
 45.5176  7531.1  85.6822
 45.5596  7451.51  85.3487
 45.6016  7296.17  84.8695
 45.6436  7325.67  84.2305
 45.6856  7336.49  84.9399
 45.7276  7251.99  85.7514
 45.7696  7443.67  86.5457
 45.8116  7407.73  85.7706
 45.8536  7260.9  84.8174
 45.8956  7318.33  84.5077
 45.9376  7336.89  84.0828
 45.9796  7362.99  84.9124
 46.0216  7433.7  85.6653
 46.0636  7439.52  84.8429
 46.1056  7395.69  84.5773
 46.1476  7268.27  84.4333
 46.1896  7339.52  84.9947
 46.2316  7355.94  84.9615
 46.2736  7322.06  85.1296
 46.3156  7293.13  84.5474
 46.3576  7268.97  84.6132
 46.3996  7244.43  84.6243
 46.4416  7287.14  84.4571
 46.4836  7311.64  84.9534
 46.5256  7323.35  84.9589
 46.5676  7275  84.7912
 46.6096  7389.91  85.3959
 46.6516  7303.83  83.9438
 46.6936  7335.96  84.6141
 46.7356  7337.74  84.7361
 46.7776  7172.14  84.6027
 46.8196  7219.87  84.4874
 46.8616  7099.25  83.7191
 46.9036  7119.06  83.5003
 46.9456  7081.55  82.9319
 46.9876  7127.66  83.2812
 47.0296  7200.16  84.387
 47.0716  7181.84  84.1022
 47.1136  7181.4  83.7867
 47.1556  7114.72  83.2628
 47.1976  7281.21  84.3027
 47.2396  7141.81  83.8937
 47.2816  7109.2  83.402
 47.3236  7221.5  84.4231
 47.3656  7063.22  83.4269
 47.4076  7104.7  83.4784
 47.4496  7100.57  83.5468
 47.4916  7092.87  83.6893
 47.5336  7166.26  83.94
 47.5756  7188.27  84.1769
 47.6176  7065.86  83.3569
 47.6596  7000.51  82.6912
 47.7016  7149.85  83.3939
 47.7436  7107.79  83.4829
 47.7856  7236.29  84.2494
 47.8276  7074.23  83.3605
 47.8696  7145.82  83.8654
 47.9116  7103.73  83.329
 47.9536  7086.82  83.1754
 47.9956  7038.06  83.592
 48.0376  6976.82  83.0044
 48.0796  7174.11  84.2961
 48.1216  7163.89  84.048
 48.1636  7221.23  83.9685
 48.2056  7073.62  83.3669
 48.2476  7129.78  84.0041
 48.2896  7082.41  83.6355
 48.3316  7107.51  83.7279
 48.3736  7017.21  83.2159
 48.4156  6971.79  82.8019
 48.4576  6940.13  82.8986
 48.4996  7026.2  82.8717
 48.5416  7094.4  83.5978
 48.5836  6938.83  82.3505
 48.6256  6974.18  82.7659
 48.6676  7077.97  83.8885
 48.7096  6954.57  82.4352
 48.7516  6993.05  82.8143
 48.7936  6908.95  82.3774
 48.8356  7030.94  83.1501
 48.8776  6938.74  83.1704
 48.9196  7104.87  83.5294
 48.9616  6939.65  82.9294
 49.0036  6972.81  83.4737
 49.0456  6941.59  83.2616
 49.0876  6998.85  83.1549
 49.1296  6921  82.8455
 49.1716  6869.58  82.4098
 49.2136  6985.31  83.02
 49.2556  7000.74  83.1474
 49.2976  6925.72  82.7737
 49.3396  6878.43  82.538
 49.3816  7007.46  82.7527
 49.4236  6961.99  82.9024
 49.4656  6754.82  81.6787
 49.5076  6895.35  82.2716
 49.5496  6875.43  82.2146
 49.5916  6929.99  82.4555
 49.6336  6834.29  82.0823
 49.6756  6892.8  82.6735
 49.7176  6841.84  82.3061
 49.7596  6882.24  82.3215
 49.8016  6967.85  82.7563
 49.8436  6801.9  82.0471
 49.8856  6722.12  81.5682
 49.9276  6746.72  81.8177
 49.9696  6869.6  82.5456
 50.0116  6870.89  82.6887
 50.0536  6801.38  82.2128
 50.0956  6774.91  82.1205
 50.1376  6817.36  82.0809
 50.1796  6751.87  81.9517
 50.2216  6750.98  81.9431
 50.2636  6828.47  82.0323
 50.3056  6717.25  81.529
 50.3476  6765.92  81.8505
 50.3896  6708.76  81.4713
 50.4316  6845.66  82.1364
 50.4736  6607.8  80.9111
 50.5156  6821.58  82.2026
 50.5576  6908.84  82.4835
 50.5996  6705.45  81.5361
 50.6416  6669.8  81.2499
 50.6836  6756.99  81.8341
 50.7256  6840.6  82.2689
 50.7676  6774.14  82.172
 50.8096  6747.42  81.5614
 50.8516  6629.35  81.2556
 50.8936  6710.12  81.532
 50.9356  6790.5  82.1194
 50.9776  6763.85  82.1115
 51.0196  6513.02  80.702
 51.0616  6643.55  80.8411
 51.1036  6710.95  81.6015
 51.1456  6585.19  80.7495
 51.1876  6668.11  80.6076
 51.2296  6583.45  80.7166
 51.2716  6583.98  80.4326
 51.3136  6527.16  80.5213
 51.3556  6593.66  80.572
 51.3976  6645.35  81.036
 51.4396  6515.71  80.5348
 51.4816  6583.01  80.8098
 51.5236  6546.84  80.6638
 51.5656  6608.41  80.6572
 51.6076  6643.19  80.9512
 51.6496  6648.5  81.1767
 51.6916  6594.5  81.1955
 51.7336  6622.12  81.4592
 51.7756  6668.46  81.4412
 51.8176  6506.05  80.5486
 51.8596  6501.34  80.531
 51.9016  6650.31  81.0572
 51.9436  6541.96  81.8451
 51.9856  6476.14  81.8556
 52.0276  6631.54  81.3466
 52.0696  6504.83  80.6229
 52.1116  6491.46  80.6585
 52.1536  6456.64  80.3317
 52.1956  6621.39  80.8191
 52.2376  6657.08  81.2046
 52.2796  6558.88  80.4169
 52.3216  6334.16  79.7038
 52.3636  6429.39  79.8868
 52.4056  6580.43  80.6636
 52.4476  6430.27  80.1095
 52.4896  6329.41  79.5262
 52.5316  6372.33  79.8423
 52.5736  6506.63  80.4131
 52.6156  6527.84  80.9159
 52.6576  6528.98  80.3807
 52.6996  6260.94  79.6606
 52.7416  6524.94  81.1669
 52.7836  6487.43  80.8033
 52.8256  6546.77  80.4079
 52.8676  6327.07  79.6256
 52.9096  6442.61  80.4318
 52.9516  6392.02  80.4699
 52.9936  6431.11  81.1105
 53.0356  6335.58  79.5204
 53.0776  6429.59  80.3682
 53.1196  6283.25  79.5724
 53.1616  6316.89  79.8314
 53.2036  6371.56  80.131
 53.2456  6293.97  79.7387
 53.2876  6427.32  80.2902
 53.3296  6449.96  80.7562
 53.3716  6314.73  79.6508
 53.4136  6261.67  79.467
 53.4556  6269.58  79.5477
 53.4976  6253.19  79.2934
 53.5396  6371.57  80.4302
 53.5816  6411.16  80.3135
 53.6236  6151.2  79.0058
 53.6656  6326.51  79.7524
 53.7076  6437.66  80.4119
 53.7496  6326.66  79.8332
 53.7916  6397.57  80.4066
 53.8336  6336.04  79.9199
 53.8756  6172.21  79.4203
 53.9176  6275.23  79.4317
 53.9596  6380.08  80.8594
 54.0016  6208.51  79.1073
 54.0436  6273.09  79.7303
 54.0856  6423.19  80.1038
 54.1276  6326.64  79.6967
 54.1696  6219.7  79.1915
 54.2116  6355.18  79.8028
 54.2536  6253.68  78.987
 54.2956  6268.59  79.1218
 54.3376  6231.63  79.3706
 54.3796  6336.1  79.933
 54.4216  6380.33  80.2555
 54.4636  6351.21  80.0372
 54.5056  6295.2  79.5049
 54.5476  6284.94  79.7692
 54.5896  6307.01  79.7409
 54.6316  6382.7  80.0774
 54.6736  6309.02  79.6842
 54.7156  6263.83  79.4288
 54.7576  6133.04  78.5853
 54.7996  6296.36  79.7596
 54.8416  6247.83  79.5004
 54.8836  6145.77  78.9596
 54.9256  6234.16  79.2792
 54.9676  6297.5  79.5381
 55.0096  6212.31  79.0661
 55.0516  6232.23  79.4224
 55.0936  6235.95  79.0773
 55.1356  6121.35  78.3892
 55.1776  6176.91  79.0111
 55.2196  6258.19  79.3131
 55.2616  6255.62  79.5113
 55.3036  6104.22  78.7009
 55.3456  6205.29  79.5004
 55.3876  6185.67  79.1197
 55.4296  6275.68  79.6673
 55.4716  6262.32  79.6187
 55.5136  6304.59  79.642
 55.5556  6229.77  79.24
 55.5976  6201.42  79.1088
 55.6396  6174.01  78.8894
 55.6816  6249.59  79.2484
 55.7236  6285.04  79.5056
 55.7656  6222.91  78.8772
 55.8076  6237.03  78.95
 55.8496  6251.71  79.3634
 55.8916  6152.65  78.9335
 55.9336  6170.5  78.8643
 55.9756  6241  79.2081
 56.0176  6179.74  78.9675
 56.0596  6143.38  78.7225
 56.1016  6218.41  79.2133
 56.1436  6186.64  79.27
 56.1856  6211.48  79.1726
 56.2276  6132.11  78.7168
 56.2696  6202.65  79.1448
 56.3116  6178.52  79.3902
 56.3536  6190.63  79.1268
 56.3956  6206.63  79.2208
 56.4376  6224.96  79.3651
 56.4796  6207.88  79.0605
 56.5216  6151.29  79.0687
 56.5636  6230.33  79.1711
 56.6056  6128.01  78.7451
 56.6476  6136.15  78.4247
 56.6896  6125.06  78.8038
 56.7316  6130.54  78.7484
 56.7736  6210.76  79.256
 56.8156  6171.4  79.0111
 56.8576  6132.14  78.6966
 56.8996  6089.04  78.3563
 56.9416  6165.96  79.1514
 56.9836  6086.04  78.1472
 57.0256  6072.98  78.387
 57.0676  6084.81  78.5848
 57.1096  6187.82  79.0361
 57.1516  6215.6  79.2801
 57.1936  6218.05  79.0421
 57.2356  6245.41  79.5392
 57.2776  6233.6  79.42
 57.3196  6158.63  79.3102
 57.3616  6134.91  78.6489
 57.4036  6099.98  78.4852
 57.4456  6127.74  78.6303
 57.4876  6149.66  78.6314
 57.5296  6168.79  79.0945
 57.5716  6181.34  79.1566
 57.6136  6199.73  79.0921
 57.6556  6137.21  78.8407
 57.6976  6226.38  79.2311
 57.7396  6154.52  79.1489
 57.7816  6025.77  78.6708
 57.8236  6031.04  78.5021
 57.8656  6103.1  78.6259
 57.9076  6091.1  78.5762
 57.9496  6191.8  79.5752
 57.9916  6074.81  78.3346
 58.0336  6120.52  78.9018
 58.0756  6130.5  78.6053
 58.1176  6117.11  78.517
 58.1596  6008.55  78.3867
 58.2016  6300.93  79.4779
 58.2436  6136.27  78.8414
 58.2856  6079.36  78.4001
 58.3276  6083.17  78.7957
 58.3696  6090.62  78.5906
 58.4116  6161.09  78.9118
 58.4536  6167.6  78.836
 58.4956  6099.08  78.5799
 58.5376  6319.89  79.552
 58.5796  6094.72  78.5464
 58.6216  6151.17  78.7141
 58.6636  6131.81  78.815
 58.7056  6105.56  78.5019
 58.7476  6169.82  79.3637
 58.7896  6098.78  78.5492
 58.8316  6044.75  78.1927
 58.8736  6184.56  79.0978
 58.9156  6030.27  78.1515
 58.9576  6141.25  79.192
 58.9996  6217.18  78.9103
 59.0416  6301.86  79.8191
 59.0836  6209.07  79.1518
 59.1256  6135.09  79.3864
 59.1676  6025.35  78.9818
 59.2096  6114.02  78.8719
 59.2516  6341.86  79.8987
 59.2936  6186.35  79.2451
 59.3356  6097.99  78.5543
 59.3776  6248.84  79.6919
 59.4196  6213.22  79.3995
 59.4616  6112.37  78.6115
 59.5036  5977.19  77.77
 59.5456  6320.39  79.6605
 59.5876  6131.87  78.656
 59.6296  6038.88  78.1266
 59.6716  6166.28  79.0049
 59.7136  6134.53  78.7894
 59.7556  6142.71  78.9796
 59.7976  6141.73  78.7132
 59.8396  6179.28  78.8465
 59.8816  6154.99  79.2417
 59.9236  6151.38  78.8592
 59.9656  6058.4  78.5218
 60.0076  6100.08  78.1458
 60.0496  6224.25  79.4487
 60.0916  6272.51  79.163
 60.1336  5936.86  78.1138
 60.1756  6136.33  80.609
 60.1996  0.0000000E+00  0.0000000E+00