File: docs/examples/opeando_xrd/IS17_D/Data/IS17_D/17_Da_f00058.xye
# /beamlines/bl04/projects/cycle2025-II/20250340211-lsimonelli/DATA/IS17_D/17_Da_f00058.xye : mythproc.py merge -s 0.006 -l 0.5 -f /beamlines/bl04/inhouse/ff/FlatField/ff_20Nov2024rod8mm60s_17keV.raw -b True -c true -o xye /beamlines/bl04/projects/cycle2025-II/20250340211-lsimonelli/DATA/IS17_D/17_Da_00058.dat
# IsMon = [6779911, 6785650, 6785138]  IsPos = [-1.4999, -2.4884, -3.4988]
# Wave = 0.4962  CalPath /beamlines/bl04/projects/cycle2025-II/20250340211-lsimonelli/DATA/Align/Si_Pos1_25keV_f00001.cal
# Date = 2025-09-24_09:41:41 Dt = 4.8000  Bin = 0.0060  <imon> = 6783566 +/- 2593 (Min/Max) 6779911 / 6785650
# icurr 252.2077  mocoIn 1.7211E-05  mocoOut 0.8076  i15 7.10423e+06  imon 6.78357e+06  i7 6.0000  iEMpd_timer 4.8000  iEMpd_1 3.4295E-08  iEMpd_2 7.7337E-08  iEMpd_3 1.7239E-08  iEMpd_4 4.7764E-08  iEMhp_timer 4.8000  iEMhp_1 4.9275E-06  iEMhp_2 -2.5403E-08  iEMhp_3 -2.5648E-08  iEMhp_4 -2.2331E-08
#      9776
 1.5856  41116.5  208.271
 1.6276  48453.9  222.212
 1.6696  54718.4  235.308
 1.7116  63091.2  253.164
 1.7536  72784  270.758
 1.7956  77676.9  280.41
 1.8376  73594.5  273.374
 1.8796  62208.1  249.494
 1.9216  49725.2  223.946
 1.9636  42102.2  205.223
 2.0056  38213.9  194.758
 2.0476  35299.6  189.237
 2.0896  33871.1  184.281
 2.1316  32871.4  180.669
 2.1736  31122.6  177.191
 2.2156  32028.5  178.309
 2.2576  30594.6  174.898
 2.2996  29507.5  172.392
 2.3416  29540.5  171.111
 2.3836  29264.4  170.415
 2.4256  28270.8  168.043
 2.4676  27631.5  165.897
 2.5096  27542.1  165.682
 2.5516  27102  168.131
 2.5936  26933.5  164.218
 2.6356  26341.8  163.08
 2.6776  26188.5  161.509
 2.7196  26057.2  161.62
 2.7616  26019.5  161.281
 2.8036  25616.9  160.198
 2.8456  25606.7  160.782
 2.8876  25139.1  159.175
 2.9296  24441.5  157.086
 2.9716  24516.3  156.82
 3.0136  24064.8  155.435
 3.0556  24299.4  156.586
 3.0976  24314.1  155.584
 3.1396  23916.3  155.005
 3.1816  23914.2  154.932
 3.2236  23585.3  153.862
 3.2656  23732.6  153.369
 3.3076  23510.2  154.109
 3.3496  23863.2  154.188
 3.3916  24195.2  155.093
 3.4336  24640.3  157.092
 3.4756  24734.7  157.329
 3.5176  25758.1  160.329
 3.5596  25874.7  163.148
 3.6016  25911.9  160.861
 3.6436  25224  159.813
 3.6856  24874.4  156.994
 3.7276  23681  154.264
 3.7696  23485.4  153.82
 3.8116  23121.3  152.516
 3.8536  23127.4  152.472
 3.8956  23193.5  152.511
 3.9376  22930.7  151.897
 3.9796  23037.7  151.758
 4.0216  23087.7  150.95
 4.0636  23009.6  152.177
 4.1056  23053.4  151.957
 4.1476  23250.3  152.937
 4.1896  23365.8  153.167
 4.2316  23598.7  153.758
 4.2736  24082.2  155.106
 4.3156  24203.5  155.727
 4.3576  25161.4  158.705
 4.3996  25237.7  159.198
 4.4416  25745.3  160.38
 4.4836  26339.3  162.365
 4.5256  26609.8  163.83
 4.5676  26741.2  164.48
 4.6096  27114.5  164.283
 4.6516  27498  165.141
 4.6936  27782  166.801
 4.7356  27895.1  166.977
 4.7776  27829.4  166.604
 4.8196  27524.9  166.362
 4.8616  27185.9  164.794
 4.9036  26931.2  163.781
 4.9456  26708.4  163.741
 4.9876  25986.3  161.417
 5.0296  26447  162.655
 5.0716  26349.5  163.132
 5.1136  26509.6  163.334
 5.1556  26798.7  163.68
 5.1976  27188  164.876
 5.2396  27330.3  164.994
 5.2816  27297.8  165.369
 5.3236  27369.2  165.28
 5.3656  27064.3  165.276
 5.4076  26540.4  163.827
 5.4496  26900.7  164.41
 5.4916  26987.2  164.436
 5.5336  27061  164.661
 5.5756  26781.4  163.854
 5.6176  27089.4  164.217
 5.6596  27192.4  165.517
 5.7016  27248.1  164.94
 5.7436  27642.4  166.404
 5.7856  27445.7  165.873
 5.8276  27733.8  166.452
 5.8696  27942.3  167.257
 5.9116  27819.8  167.492
 5.9536  27942.8  167.626
 5.9956  28496.1  168.631
 6.0376  28509.9  169.31
 6.0796  28606.2  169.428
 6.1216  28836.4  170.305
 6.1636  28812.9  169.3
 6.2056  28836.1  170.028
 6.2476  29136.5  170.793
 6.2896  29415.4  171.288
 6.3316  29147.6  170.686
 6.3736  29363.4  171.203
 6.4156  29332.7  171.019
 6.4576  29586.2  171.351
 6.4996  29762.1  172.336
 6.5416  29999.6  173.168
 6.5836  29819.2  172.87
 6.6256  29953.8  172.826
 6.6676  30584.8  174.203
 6.7096  30350.1  174.4
 6.7516  30646.2  174.894
 6.7936  30930.7  175.124
 6.8356  31031.3  175.49
 6.8776  31325  177.116
 6.9196  31273.1  177.382
 6.9616  31944.8  178.707
 7.0036  32153.9  178.947
 7.0456  32118.6  178.139
 7.0876  32204.6  180.082
 7.1296  32162.8  179.095
 7.1716  32106.8  178.48
 7.2136  31847.5  177.534
 7.2556  32176.8  178.613
 7.2976  32169.7  179.094
 7.3396  32238.2  179.491
 7.3816  31915.5  178.815
 7.4236  32372.3  179.375
 7.4656  32425.3  178.999
 7.5076  32937.4  180.546
 7.5496  32724.8  180.502
 7.5916  32678.8  180.409
 7.6336  33226.2  181.811
 7.6756  33307.2  181.884
 7.7176  33586.4  182.953
 7.7596  33464.7  183.878
 7.8016  33956.7  187.437
 7.8436  34360.3  185.16
 7.8856  34790.7  185.924
 7.9276  35214.8  187.453
 7.9696  35337.3  188.089
 8.0116  36606.5  189.953
 8.0536  36519.9  189.989
 8.0956  36553.3  191.259
 8.1376  37285.6  192.634
 8.1796  37162.5  192.865
 8.2216  38357.5  194.656
 8.2636  38014  194.034
 8.3056  38156.6  195.182
 8.3476  38632.5  195.713
 8.3896  38626.7  195.78
 8.4316  38509.6  195.648
 8.4736  38761.1  195.745
 8.5156  38333.9  194.945
 8.5576  38356.3  195.99
 8.5996  38102.6  194.196
 8.6416  38095.7  195.456
 8.6836  37772  194.457
 8.7256  38387.9  195.464
 8.7676  37870.9  197.093
 8.8096  37751.1  194.086
 8.8516  37551  193.182
 8.8936  37194.2  192.151
 8.9356  37123.1  192.324
 8.9776  37692  193.888
 9.0196  36961.6  191.679
 9.0616  37136.4  191.585
 9.1036  36885.8  192.149
 9.1456  36888.9  191.487
 9.1876  36780.8  191.167
 9.2296  37106.7  191.4
 9.2716  36086.2  188.815
 9.3136  36384.2  189.585
 9.3556  36545.4  189.984
 9.3976  35099.1  186.727
 9.4396  35598.7  187.928
 9.4816  34897.6  185.943
 9.5236  35002.2  186.12
 9.5656  35010.9  186.466
 9.6076  34738.5  186.274
 9.6496  34532.9  185.653
 9.6916  34531.7  185.61
 9.7336  34535.4  185.407
 9.7756  34644.8  186.955
 9.8176  33711.5  183.928
 9.8596  33819.6  182.653
 9.9016  33355  181.387
 9.9436  33024.6  180.398
 9.9856  32730.7  179.817
 10.0276  32359.7  179.913
 10.0696  32736.3  179.984
 10.1116  31780.4  177.606
 10.1536  31356.1  176.581
 10.1956  31023  175.238
 10.2376  30706  173.855
 10.2796  31095.6  175.072
 10.3216  30661  174.111
 10.3636  30313.7  173.153
 10.4056  30175.3  173.151
 10.4476  29955  172.151
 10.4896  30214.3  172.345
 10.5316  29383.1  170.671
 10.5736  29378.2  171.067
 10.6156  28958.6  169.616
 10.6576  29339.5  169.263
 10.6996  28686.3  168.046
 10.7416  28550.1  167.883
 10.7836  28609.6  168.739
 10.8256  28303.2  168.273
 10.8676  28316.2  167.837
 10.9096  27993.3  166.926
 10.9516  27683.4  164.917
 10.9936  27687.5  165.136
 11.0356  27665.9  165.708
 11.0776  27465.6  164.41
 11.1196  27029.6  163.861
 11.1616  26747  162.681
 11.2036  26938.9  163.121
 11.2456  26787.8  163.364
 11.2876  26718.4  162.902
 11.3296  26435.9  161.918
 11.3716  26761.7  162.613
 11.4136  26871.7  163.845
 11.4556  27203.4  164.516
 11.4976  27772.5  165.179
 11.5396  28136.4  166.418
 11.5816  27539.6  165.122
 11.6236  26824.5  163.181
 11.6656  26758.3  162.141
 11.7076  26223.7  161.35
 11.7496  25729  163.775
 11.7916  25713.8  159.033
 11.8336  25451.6  159.109
 11.8756  25227.7  157.94
 11.9176  25387.5  158.085
 11.9596  24967.8  156.977
 12.0016  25091.6  158.162
 12.0436  25057.1  157.481
 12.0856  24876.9  157.434
 12.1276  24802.2  157.111
 12.1696  24800  156.232
 12.2116  25019.4  156.913
 12.2536  24651  156.597
 12.2956  24645  155.897
 12.3376  24413.8  155.39
 12.3796  24984.9  157.658
 12.4216  24663.5  155.851
 12.4636  24328.8  155.705
 12.5056  24447  155.355
 12.5476  24553.3  155.217
 12.5896  24564  155.881
 12.6316  24364.1  155.425
 12.6736  24282.8  155.631
 12.7156  24211.1  155.281
 12.7576  24298.3  155.792
 12.7996  24739.3  155.831
 12.8416  24252  155.345
 12.8836  24972.9  157.454
 12.9256  24908.9  156.267
 12.9676  25190.3  157.567
 13.0096  24781  157.409
 13.0516  24960.5  156.995
 13.0936  25063.1  157.732
 13.1356  25344.6  157.577
 13.1776  25131.4  157.913
 13.2196  25257.6  157.963
 13.2616  25073  157.684
 13.3036  25032.7  157.544
 13.3456  25155.2  158.278
 13.3876  24829.9  156.557
 13.4296  24863  156.798
 13.4716  25154  157.32
 13.5136  24978.6  156.932
 13.5556  24966.9  157.502
 13.5976  25214.8  158.444
 13.6396  25242.9  157.88
 13.6816  24862.5  157.188
 13.7236  25591.9  159.115
 13.7656  24799.5  157.179
 13.8076  25027  156.661
 13.8496  24621.6  156
 13.8916  24752  157.416
 13.9336  24800  156.775
 13.9756  24482.5  155.125
 14.0176  24499.6  155.863
 14.0596  24381.4  155.457
 14.1016  24179.5  155.206
 14.1436  24034  153.878
 14.1856  23798.3  153.406
 14.2276  23422.1  152.684
 14.2696  23812.7  153.787
 14.3116  23347.3  152.168
 14.3536  22865.7  150.773
 14.3956  23026.9  151.028
 14.4376  23187.3  151.328
 14.4796  23141.4  151.181
 14.5216  22739.1  150.66
 14.5636  22519.6  149.488
 14.6056  22758.2  149.856
 14.6476  22792.6  149.187
 14.6896  22199.5  147.781
 14.7316  21856.4  147.673
 14.7736  21952.6  147.129
 14.8156  21596.7  145.97
 14.8576  21541.5  145.635
 14.8996  21204.6  145.709
 14.9416  20818.3  144.367
 14.9836  20976  144.866
 15.0256  20668.1  142.714
 15.0676  20696.6  143.131
 15.1096  20577.9  142.454
 15.1516  20217.7  141.762
 15.1936  20139.6  140.913
 15.2356  19703.4  139.658
 15.2776  19800.9  139.585
 15.3196  19541.7  139.68
 15.3616  19460  139.139
 15.4036  19382.1  138.717
 15.4456  19657.3  139.347
 15.4876  19234.9  137.516
 15.5296  18995.6  136.945
 15.5716  18747.3  135.643
 15.6136  18628.2  135.541
 15.6556  18675.6  134.952
 15.6976  18583.7  134.913
 15.7396  18556  135.21
 15.7816  18423.9  134.225
 15.8236  18228.1  134.224
 15.8656  18078.9  133.464
 15.9076  17845.8  132.423
 15.9496  17865.4  135.323
 15.9916  18083.3  136.58
 16.0336  17616.6  131.702
 16.0756  17715  132.376
 16.1176  17474.4  131.546
 16.1596  17027.9  131.03
 16.2016  17322  130.886
 16.2436  17147.7  130.618
 16.2856  17117.4  130.046
 16.3276  16945.1  129.814
 16.3696  17142.5  130.381
 16.4116  17019  130.379
 16.4536  17111.9  130.515
 16.4956  16748  128.864
 16.5376  16738.5  129.006
 16.5796  16781  128.527
 16.6216  16861.6  129.141
 16.6636  16777.1  128.97
 16.7056  16790.5  128.892
 16.7476  16978  129.124
 16.7896  16562.6  128.296
 16.8316  16674.2  128.679
 16.8736  16644.6  128.85
 16.9156  16718.6  129.46
 16.9576  16647.6  129.992
 16.9996  16550.1  130.099
 17.0416  16753.5  129.225
 17.0836  16434.9  127.759
 17.1256  16367.2  127.504
 17.1676  16397.1  127.615
 17.2096  16114.6  126.384
 17.2516  16268.8  126.767
 17.2936  16167.8  126.701
 17.3356  15763.4  125.118
 17.3776  15752.2  125.26
 17.4196  15884.5  125.466
 17.4616  15755.8  124.883
 17.5036  15467.6  124.095
 17.5456  15266.6  123.933
 17.5876  15405.9  123.539
 17.6296  15374.3  123.226
 17.6716  15289.1  123.463
 17.7136  15069.1  122.721
 17.7556  15075  123.03
 17.7976  15117.6  122.946
 17.8396  15024.9  122.06
 17.8816  14900.8  122.094
 17.9236  14786.7  121.447
 17.9656  14991.1  122.815
 18.0076  14972.8  122.324
 18.0496  14975.3  121.459
 18.0916  14932.8  121.832
 18.1336  15004.6  122.221
 18.1756  15183.3  122.465
 18.2176  14844.2  121.324
 18.2596  14831.7  121.002
 18.3016  15026.8  122.06
 18.3436  15047.7  122.141
 18.3856  14694.5  120.846
 18.4276  14947.4  121.536
 18.4696  14794.3  121.018
 18.5116  14820.8  121.414
 18.5536  14881.9  122.025
 18.5956  14528.1  120.121
 18.6376  14669.7  121.11
 18.6796  14565.5  119.999
 18.7216  14710.7  121.086
 18.7636  14419.8  119.884
 18.8056  14355.4  119.55
 18.8476  14393.5  120.337
 18.8896  14236.8  119.017
 18.9316  14638.7  120.668
 18.9736  14369  119.245
 19.0156  14406.2  119.803
 19.0576  14271.2  118.114
 19.0996  14450.7  119.568
 19.1416  14153.8  118.73
 19.1836  14231.2  118.649
 19.2256  14182.4  118.662
 19.2676  14222.9  118.923
 19.3096  14372.4  119.786
 19.3516  14063  118.457
 19.3936  14065.9  118.363
 19.4356  14234.3  118.943
 19.4776  14277  119.22
 19.5196  14151.5  118.545
 19.5616  14089.7  118.538
 19.6036  14161.3  118.334
 19.6456  14222.9  118.717
 19.6876  14271.5  118.558
 19.7296  14255.3  118.961
 19.7716  14224.6  118.988
 19.8136  14361.4  119.78
 19.8556  14551.2  120.027
 19.8976  14559.1  120.13
 19.9396  14565.8  119.727
 19.9816  15050.3  121.944
 20.0236  15164.3  122.636
 20.0656  15129.6  122.484
 20.1076  14705.7  121.246
 20.1496  14557.2  120.627
 20.1916  14450  119.697
 20.2336  14338.2  119.161
 20.2756  14073.1  118.486
 20.3176  13720.3  116.737
 20.3596  14005  117.91
 20.4016  13767.6  116.722
 20.4436  13959.3  118.083
 20.4856  13684.1  116.721
 20.5276  13759.1  117.497
 20.5696  13752.3  116.922
 20.6116  13475.5  116.015
 20.6536  13662.7  116.322
 20.6956  13553.4  115.978
 20.7376  13573.2  116.29
 20.7796  13504.8  115.688
 20.8216  13581.9  115.721
 20.8636  13483.1  115.677
 20.9056  13343.2  115.023
 20.9476  13422.6  115.209
 20.9896  13603.2  115.839
 21.0316  13495.4  115.269
 21.0736  13404  115.407
 21.1156  13462.3  115.816
 21.1576  13421.8  115.698
 21.1996  13192.6  114.683
 21.2416  13218.1  114.631
 21.2836  13402.5  115.387
 21.3256  13161.8  114.436
 21.3676  13374.5  114.893
 21.4096  13196.7  114.438
 21.4516  13136.7  114.052
 21.4936  12774  112.714
 21.5356  13321.4  115.055
 21.5776  13206.3  114.395
 21.6196  13028.2  113.647
 21.6616  13051.4  113.839
 21.7036  13116.5  113.905
 21.7456  13029.1  113.599
 21.7876  13019.7  113.303
 21.8296  13064.8  113.357
 21.8716  13002.5  113.322
 21.9136  13208.7  114.419
 21.9556  13073.7  113.498
 21.9976  12907.6  112.793
 22.0396  12969.2  113.32
 22.0816  13016.7  114.071
 22.1236  13008.1  113.485
 22.1656  13005.2  113.591
 22.2076  13010.4  113.066
 22.2496  13079.3  113.398
 22.2916  13003.9  112.951
 22.3336  12893.9  113.206
 22.3756  12920.1  113.041
 22.4176  12791.7  112.333
 22.4596  12894.9  113.382
 22.5016  13000.5  113.326
 22.5436  12943.8  112.963
 22.5856  12871.8  112.898
 22.6276  12933.5  113.307
 22.6696  12777.1  112.968
 22.7116  12892.6  112.987
 22.7536  12764.6  112.402
 22.7956  12913.8  112.374
 22.8376  12757.3  112.225
 22.8796  12842.7  112.395
 22.9216  12964.5  113.483
 22.9636  12923.2  112.444
 23.0056  12995.2  112.886
 23.0476  13049  113.704
 23.0896  13262  113.993
 23.1316  13033.3  113.448
 23.1736  12844.1  115.608
 23.2156  13153.6  114.299
 23.2576  12846.6  113.121
 23.2996  12923.5  113.234
 23.3416  12767.9  113.079
 23.3836  12873.5  112.769
 23.4256  13009.5  113.488
 23.4676  12747.7  112.03
 23.5096  12819  113.024
 23.5516  12848.7  112.431
 23.5936  12730.4  112.818
 23.6356  12994.9  113.652
 23.6776  12869.9  113.312
 23.7196  12631.5  111.823
 23.7616  12933.9  113.073
 23.8036  12883.8  112.912
 23.8456  12859  112.346
 23.8876  12647.6  111.795
 23.9296  12594.6  112.052
 23.9716  12394  110.35
 24.0136  12569.3  112.03
 24.0556  12284.2  110.488
 24.0976  12348  110.582
 24.1396  12395.4  113.465
 24.1816  12439.8  112.069
 24.2236  12236.3  110.756
 24.2656  12265.6  110.358
 24.3076  12149.8  110.084
 24.3496  12217.7  110.277
 24.3916  12125.8  109.917
 24.4336  12128.1  110.14
 24.4756  12054.8  109.676
 24.5176  11949.6  108.842
 24.5596  11879.8  108.652
 24.6016  11819.1  108.661
 24.6436  11737.2  107.78
 24.6856  11903  108.293
 24.7276  11878.9  108.498
 24.7696  11794.4  108.231
 24.8116  11827.9  108.555
 24.8536  11655.8  107.772
 24.8956  11795.7  108.149
 24.9376  11597  107.171
 24.9796  11586.1  107.478
 25.0216  11378.2  106.627
 25.0636  11651.7  107.544
 25.1056  11315.2  106.685
 25.1476  11537.6  109.402
 25.1896  11496.6  107.671
 25.2316  11544.3  107.157
 25.2736  11521.2  106.699
 25.3156  11304  105.772
 25.3576  11407.5  106.669
 25.3996  11428.2  106.759
 25.4416  11462.9  106.897
 25.4836  11070.1  105.573
 25.5256  11309.5  106.068
 25.5676  11335.8  105.917
 25.6096  11100.2  105.391
 25.6516  11274.5  105.705
 25.6936  11201.6  105.686
 25.7356  11209  105.852
 25.7776  11288.5  105.831
 25.8196  11104.3  105.194
 25.8616  11218.6  105.653
 25.9036  11175.2  104.919
 25.9456  11163.3  105.463
 25.9876  11099.8  105.225
 26.0296  11323.7  105.787
 26.0716  11015.9  104.769
 26.1136  11132.9  105.261
 26.1556  11200.5  104.952
 26.1976  11084.5  105.343
 26.2396  11141.8  104.755
 26.2816  11135.5  105.344
 26.3236  11070.9  105.202
 26.3656  10953.5  104.373
 26.4076  11167.9  105.592
 26.4496  11573.4  106.983
 26.4916  11303.9  105.729
 26.5336  11102.2  105.104
 26.5756  11231.3  105.584
 26.6176  11023.2  104.638
 26.6596  10892.9  104.332
 26.7016  10870.7  103.976
 26.7436  10773.4  103.653
 26.7856  10693.8  103.245
 26.8276  10862  104.005
 26.8696  10808.7  103.626
 26.9116  10908.2  104.042
 26.9536  10665.8  102.92
 26.9956  10820  103.698
 27.0376  10647.4  103.088
 27.0796  10842.4  103.751
 27.1216  10612.5  102.73
 27.1636  10521.2  102.45
 27.2056  10655.2  102.981
 27.2476  10649.5  102.954
 27.2896  10646.9  103.048
 27.3316  10614.5  102.602
 27.3736  10594.8  102.774
 27.4156  10423.2  101.789
 27.4576  10506.9  102.423
 27.4996  10437.7  101.684
 27.5416  10517.4  102.387
 27.5836  10462.2  101.938
 27.6256  10720.4  103.337
 27.6676  10705.9  103.302
 27.7096  10459.9  101.981
 27.7516  10428.5  101.971
 27.7936  10406  102.044
 27.8356  10464.9  101.939
 27.8776  10436.1  101.853
 27.9196  10265  100.858
 27.9616  10339.7  101.415
 28.0036  10295.4  101.167
 28.0456  10349  101.564
 28.0876  10235.5  101.1
 28.1296  10228.2  100.9
 28.1716  10181  100.689
 28.2136  10261.5  101.044
 28.2556  10026.5  99.9986
 28.2976  10139.2  100.539
 28.3396  10181.2  100.503
 28.3816  10265.9  100.949
 28.4236  10233.3  100.94
 28.4656  10079.1  100.211
 28.5076  10209.6  100.492
 28.5496  10061.4  100.027
 28.5916  10138  100.214
 28.6336  10012.9  99.9347
 28.6756  10115.8  99.6432
 28.7176  10003.6  99.6346
 28.7596  9993.47  99.4866
 28.8016  10110.3  100.097
 28.8436  9984.44  99.7206
 28.8856  10084.6  100.067
 28.9276  10023.3  100.01
 28.9696  9920.88  99.147
 29.0116  9998.84  99.7294
 29.0536  9814.05  99.0042
 29.0956  9865.7  98.9797
 29.1376  9920.64  99.2159
 29.1796  9866.1  98.9945
 29.2216  9912.25  99.0628
 29.2636  9970.53  99.4294
 29.3056  9702.75  97.8768
 29.3476  9993.46  99.8643
 29.3896  9870.59  99.3405
 29.4316  10072  99.6699
 29.4736  9874.55  98.753
 29.5156  10040.3  99.4845
 29.5576  9914.06  99.6192
 29.5996  9961.91  99.1065
 29.6416  9796.68  98.4012
 29.6836  9875.46  98.7188
 29.7256  9970.25  99.7695
 29.7676  9789.94  98.5222
 29.8096  9800.18  98.515
 29.8516  9789.11  98.7955
 29.8936  9909.44  99.4974
 29.9356  9861.83  99.0097
 29.9776  9693.22  98.3136
 30.0196  9714.16  97.8017
 30.0616  9801.57  98.6213
 30.1036  9818.41  98.529
 30.1456  9693.77  98.1369
 30.1876  9637.47  97.829
 30.2296  9762.18  98.4081
 30.2716  9860.32  98.5307
 30.3136  9860.81  99.4077
 30.3556  9747.6  98.8576
 30.3976  9594.84  99.6169
 30.4396  9705.05  97.5068
 30.4816  9799.49  97.5618
 30.5236  9603.59  96.6133
 30.5656  9627.8  97.3842
 30.6076  9595.44  96.6454
 30.6496  9668.61  97.4017
 30.6916  9678.26  97.5417
 30.7336  9496  96.7771
 30.7756  9646.27  97.6337
 30.8176  9549.39  97.0559
 30.8596  9762.62  97.8856
 30.9016  9555.79  97.2013
 30.9436  9742.81  97.8894
 30.9856  9516.6  96.8681
 31.0276  9471.88  96.2449
 31.0696  9498.82  96.9558
 31.1116  9396.48  96.4098
 31.1536  9500.91  96.8221
 31.1956  9538.73  97.1072
 31.2376  9354.38  96.1697
 31.2796  9368.38  95.7825
 31.3216  9426.85  96.0225
 31.3636  9429.15  96.7257
 31.4056  9493.48  98.3819
 31.4476  9412.44  95.8436
 31.4896  9212.83  95.3223
 31.5316  9397.55  95.6607
 31.5736  9490.64  95.9583
 31.6156  9349.64  95.2614
 31.6576  9567.22  96.4658
 31.6996  9547.96  96.0392
 31.7416  9306.55  95.8773
 31.7836  9229.68  94.4986
 31.8256  9309.22  95.1807
 31.8676  9442.01  95.8411
 31.9096  9275.19  95.354
 31.9516  9086.63  94.5429
 31.9936  9262.44  95.2684
 32.0356  9276.52  95.4174
 32.0776  9288.6  95.3629
 32.1196  9270.3  95.3511
 32.1616  9312.93  95.0306
 32.2036  9221.77  95.0835
 32.2456  9305.66  95.8961
 32.2876  9289.84  95.3076
 32.3296  9111.62  94.3479
 32.3716  9157.17  94.6871
 32.4136  9185.69  95.0511
 32.4556  9311.86  95.068
 32.4976  9271.23  94.7671
 32.5396  9173.91  94.3436
 32.5816  9072.88  93.9481
 32.6236  9207.91  94.715
 32.6656  9274.52  95.5947
 32.7076  9110.3  94.4026
 32.7496  9150.39  94.2646
 32.7916  9203.21  94.5067
 32.8336  9145.78  94.3055
 32.8756  9259.82  94.6129
 32.9176  9033.14  93.9296
 32.9596  8977.03  93.7155
 33.0016  9166.24  94.4881
 33.0436  9160.68  94.6363
 33.0856  9117.38  94.4792
 33.1276  9010.32  93.6566
 33.1696  9302.44  95.0073
 33.2116  9191.24  94.6619
 33.2536  9147.51  94.4451
 33.2956  9041.7  93.9725
 33.3376  9012.52  93.5623
 33.3796  9162.53  94.5441
 33.4216  9127.97  93.9629
 33.4636  9021.03  93.553
 33.5056  8910.53  93.222
 33.5476  9013.78  93.7595
 33.5896  9122.23  94.0872
 33.6316  8916.26  93.3372
 33.6736  8919.67  93.6054
 33.7156  8901.89  93.5477
 33.7576  9082.29  94.1179
 33.7996  9023.38  93.5687
 33.8416  8817.22  92.6753
 33.8836  9015.63  93.4914
 33.9256  8976.67  93.36
 33.9676  8965.72  93.1819
 34.0096  8797.27  92.628
 34.0516  8764.91  92.0982
 34.0936  8931.75  93.2347
 34.1356  8878.74  92.6984
 34.1776  8813.95  92.3647
 34.2196  8757.1  92.2542
 34.2616  8809.44  92.6611
 34.3036  8804.51  92.8955
 34.3456  8701.79  92.0971
 34.3876  8790.88  92.5414
 34.4296  8823.1  92.391
 34.4716  8959.44  93.2524
 34.5136  8780.59  92.5252
 34.5556  8691.09  92.3015
 34.5976  8775.97  92.5557
 34.6396  8711.87  91.9308
 34.6816  8812.57  92.5737
 34.7236  8753.83  92.0467
 34.7656  8792.4  92.4477
 34.8076  8729.75  92.4492
 34.8496  8724.57  92.2648
 34.8916  8746.85  92.2631
 34.9336  8836.35  92.6913
 34.9756  8692.39  91.8587
 35.0176  8777.93  92.8463
 35.0596  8672.83  92.1159
 35.1016  8728.71  92.1721
 35.1436  8823.86  92.353
 35.1856  8711.98  91.8965
 35.2276  8708.74  92.0497
 35.2696  8568.8  91.5037
 35.3116  8690.09  92.2393
 35.3536  8559.76  91.2604
 35.3956  8547.05  90.8966
 35.4376  8578.75  91.6201
 35.4796  8626.5  91.9374
 35.5216  8563.19  91.5621
 35.5636  8487.86  91.9058
 35.6056  8636.64  91.7115
 35.6476  8603.09  91.4308
 35.6896  8704.76  92.062
 35.7316  8557.14  91.246
 35.7736  8527.77  91.2918
 35.8156  8428.71  90.7593
 35.8576  8533.06  91.545
 35.8996  8726.46  92.5687
 35.9416  8939.16  93.1104
 35.9836  8461.58  91.0048
 36.0256  8566.27  91.5877
 36.0676  8586.53  91.4469
 36.1096  8511.21  91.1864
 36.1516  8479.93  90.9054
 36.1936  8571.25  91.2427
 36.2356  8488.67  91.4463
 36.2776  8532.16  91.1565
 36.3196  8461.94  90.4502
 36.3616  8514.28  90.8612
 36.4036  8528.25  90.9819
 36.4456  8436.36  90.7116
 36.4876  8419.06  90.5522
 36.5296  8405.96  90.5301
 36.5716  8371.14  91.1267
 36.6136  8511.34  90.6352
 36.6556  8515.45  90.8622
 36.6976  8403.17  90.7607
 36.7396  8378.53  90.3581
 36.7816  8436.39  91.0488
 36.8236  8446.61  91.0223
 36.8656  8274.63  90.1711
 36.9076  8379.93  90.6126
 36.9496  8406.8  90.7492
 36.9916  8399.58  90.3329
 37.0336  8520.4  91.303
 37.0756  8421.39  90.5597
 37.1176  8233.17  89.8112
 37.1596  8349.25  90.4469
 37.2016  8392.42  90.9107
 37.2436  8411.9  90.325
 37.2856  8349.25  90.2468
 37.3276  8301.45  89.3322
 37.3696  8263.88  90.0218
 37.4116  8494.35  91.1727
 37.4536  8208.52  89.4882
 37.4956  8382.05  90.4787
 37.5376  8241.2  91.29
 37.5796  8240.7  91.2424
 37.6216  8053.97  88.4844
 37.6636  8158.98  88.9617
 37.7056  8095.73  88.8007
 37.7476  8266.95  89.2749
 37.7896  8271.02  89.7792
 37.8316  8061.56  88.8299
 37.8736  8304.84  89.6672
 37.9156  8193.21  89.0685
 37.9576  8234.81  89.172
 37.9996  8082.88  88.07
 38.0416  8136.79  89.1838
 38.0836  8328.54  90.1254
 38.1256  8133.78  89.0016
 38.1676  7980.08  88.3195
 38.2096  8197.93  89.1424
 38.2516  8258.62  89.6693
 38.2936  8124.51  88.7471
 38.3356  8184.78  88.9789
 38.3776  8144.55  89.0416
 38.4196  8199.44  89.1903
 38.4616  8175.37  89.2986
 38.5036  8198.8  89.2692
 38.5456  8154.75  89.87
 38.5876  8164.85  89.9549
 38.6296  8005.41  88.0498
 38.6716  8055.57  88.115
 38.7136  8040.47  87.9776
 38.7556  7962.21  88.0558
 38.7976  8074.07  88.6077
 38.8396  7855.06  87.8479
 38.8816  7925.68  88.0182
 38.9236  7901.77  87.701
 38.9656  8057.69  88.4749
 39.0076  8126.16  88.2494
 39.0496  8180.07  89.0974
 39.0916  8128.55  88.4516
 39.1336  8053.15  88.4587
 39.1756  8000.96  88.24
 39.2176  7915.34  88.2888
 39.2596  8000.04  88.6886
 39.3016  8029.58  88.4223
 39.3436  8032.65  88.8656
 39.3856  8107.61  88.7232
 39.4276  7978.33  88.5132
 39.4696  7925.84  87.8422
 39.5116  7904.05  88.2349
 39.5536  8115.31  89.836
 39.5956  8066.79  88.6527
 39.6376  8074.42  88.7024
 39.6796  8061.33  88.3635
 39.7216  8051.29  88.4131
 39.7636  8040.82  88.9328
 39.8056  8126.52  89.1839
 39.8476  7850.09  87.9058
 39.8896  8042.21  88.6015
 39.9316  8082.54  89.0822
 39.9736  8070.06  88.571
 40.0156  8019.77  88.1192
 40.0576  8033.41  88.5568
 40.0996  8177.34  88.5222
 40.1416  8075.41  88.764
 40.1836  8132.53  88.9742
 40.2256  8076.78  88.7074
 40.2676  7962.84  88.1906
 40.3096  8137.11  89.0732
 40.3516  8150.89  89.2519
 40.3936  8120  88.6445
 40.4356  8090.5  88.6742
 40.4776  8109.31  89.1939
 40.5196  8164.6  89.63
 40.5616  8145.8  89.1695
 40.6036  8044.5  88.8603
 40.6456  8168.68  89.1457
 40.6876  8087.84  88.6906
 40.7296  8139.46  89.1148
 40.7716  8112.37  89.1011
 40.8136  8011.61  88.4818
 40.8556  8130.5  89.2784
 40.8976  8077.84  88.9005
 40.9396  8073.32  89.2389
 40.9816  8121.48  88.7782
 41.0236  8018.46  87.9868
 41.0656  8172.68  89.3776
 41.1076  8192.15  89.2509
 41.1496  8129.85  88.8144
 41.1916  8025.32  88.5714
 41.2336  8022.7  88.5513
 41.2756  8094.32  88.5451
 41.3176  8053.55  88.9442
 41.3596  8078.68  88.8027
 41.4016  8109.86  89.2399
 41.4436  8069.56  88.7999
 41.4856  8157.72  89.4502
 41.5276  8013.11  88.673
 41.5696  7980.02  88.1202
 41.6116  8078.64  89.0702
 41.6536  8042.01  88.715
 41.6956  8102.32  89.1106
 41.7376  8110.57  89.1768
 41.7796  8041.08  88.6787
 41.8216  8082.8  89.1432
 41.8636  8102.72  89.1905
 41.9056  7958.93  88.1838
 41.9476  8059.54  88.9844
 41.9896  8039.4  88.5371
 42.0316  8122.07  89.0666
 42.0736  8023.66  88.6431
 42.1156  8074.87  88.7585
 42.1576  8012.71  88.5145
 42.1996  8096.64  89.1193
 42.2416  8112.8  88.7851
 42.2836  7964.68  88.0869
 42.3256  7971.29  88.2414
 42.3676  7998.23  88.1977
 42.4096  7940.96  87.8324
 42.4516  7986.96  88.1856
 42.4936  7923.69  87.9002
 42.5356  8058.59  88.7774
 42.5776  8060.36  88.7297
 42.6196  8007.47  88.4913
 42.6616  7852.09  87.7988
 42.7036  8032.56  88.1815
 42.7456  8008.29  88.4115
 42.7876  7985.08  88.3814
 42.8296  7960.14  88.0747
 42.8716  7840.78  87.571
 42.9136  7889.59  87.6327
 42.9556  7988.71  88.3134
 42.9976  8009.92  88.3898
 43.0396  7939.44  87.7302
 43.0816  7949.31  88.1644
 43.1236  7771.21  87.2362
 43.1656  7905.97  87.8162
 43.2076  7882.72  87.7947
 43.2496  7852.92  87.4395
 43.2916  7885.67  87.9887
 43.3336  7866.76  87.7218
 43.3756  7819.39  87.2093
 43.4176  7820.42  87.2987
 43.4596  7771.53  86.8806
 43.5016  7863.22  87.7983
 43.5436  7913.24  87.9734
 43.5856  7783.32  87.2783
 43.6276  7871.37  87.6578
 43.6696  7786.57  87.4495
 43.7116  7849.53  87.2979
 43.7536  7897.52  88.0629
 43.7956  7667.24  87.9586
 43.8376  7751.19  86.9508
 43.8796  7697.16  86.7386
 43.9216  7915.33  87.8728
 43.9636  7779.69  87.232
 44.0056  7668.12  86.83
 44.0476  7698.79  86.6375
 44.0896  7755.87  87.3033
 44.1316  7779.84  86.9548
 44.1736  7779.55  87.0797
 44.2156  7688.53  86.4211
 44.2576  7693.79  86.7766
 44.2996  7760.22  87.1243
 44.3416  7794.46  87.0732
 44.3836  7628.36  86.4734
 44.4256  7546.31  85.6473
 44.4676  7543.97  85.7917
 44.5096  7678.69  86.6994
 44.5516  7555.12  85.958
 44.5936  7525.96  85.7492
 44.6356  7760.1  86.8068
 44.6776  7560.35  86.0012
 44.7196  7639.51  86.7603
 44.7616  7601.5  87.8852
 44.8036  7531.72  85.9082
 44.8456  7544.28  86.1872
 44.8876  7567.62  86.1718
 44.9296  7608.23  85.8558
 44.9716  7555.13  85.9796
 45.0136  7680.92  86.6309
 45.0556  7546.37  85.8429
 45.0976  7519.96  85.8435
 45.1396  7400.03  84.9339
 45.1816  7514.79  85.5129
 45.2236  7596.21  85.8794
 45.2656  7450.66  85.5545
 45.3076  7599.72  86.1776
 45.3496  7514.13  85.9994
 45.3916  7515.01  86.2813
 45.4336  7559.7  86.3816
 45.4756  7498.55  85.8892
 45.5176  7533.87  85.7072
 45.5596  7524.84  85.7725
 45.6016  7446.46  85.7441
 45.6436  7410.82  84.72
 45.6856  7404.94  85.3444
 45.7276  7351.05  86.332
 45.7696  7410.32  86.3546
 45.8116  7421.48  85.857
 45.8536  7365.92  85.4323
 45.8956  7499.68  85.5531
 45.9376  7411.54  84.5131
 45.9796  7526.33  85.8545
 46.0216  7451.04  85.7712
 46.0636  7694.43  86.2901
 46.1056  7349.38  84.3185
 46.1476  7527.77  85.9335
 46.1896  7435.14  85.5534
 46.2316  7328.95  84.8124
 46.2736  7201.45  84.4329
 46.3156  7366.48  84.9803
 46.3576  7403.51  85.3992
 46.3996  7427.57  85.6963
 46.4416  7411.21  85.18
 46.4836  7410.73  85.5344
 46.5256  7471.32  85.8179
 46.5676  7392.13  85.4761
 46.6096  7418.36  85.5621
 46.6516  7572.09  85.4756
 46.6936  7475.65  85.4236
 46.7356  7391.7  85.0432
 46.7776  7215.43  84.8561
 46.8196  7382.77  85.4294
 46.8616  7151.42  84.0261
 46.9036  7249.86  84.2651
 46.9456  7271.7  84.0332
 46.9876  7306.82  84.3211
 47.0296  7249.38  84.6695
 47.0716  7183.02  84.1105
 47.1136  7201.13  83.9005
 47.1556  7302.47  84.353
 47.1976  7381.84  84.8941
 47.2396  7297.26  84.8008
 47.2816  7173.53  83.7793
 47.3236  7173.44  84.1493
 47.3656  7321.23  84.9322
 47.4076  7184.87  83.9493
 47.4496  7191.83  84.082
 47.4916  7159.99  84.0848
 47.5336  7248.46  84.4192
 47.5756  7332.98  85.0346
 47.6176  7108.05  83.6198
 47.6596  7094.68  83.2493
 47.7016  7392.06  84.7971
 47.7436  7326.09  84.7512
 47.7856  7283.09  84.5317
 47.8276  7237.52  84.3158
 47.8696  7157.08  83.9333
 47.9116  7163.8  83.6841
 47.9536  7246.85  84.1091
 47.9956  7162.19  84.3197
 48.0376  7072.47  83.5634
 48.0796  7174.98  84.2982
 48.1216  7230.78  84.4435
 48.1636  7313.74  84.509
 48.2056  7218.9  84.2185
 48.2476  7313.7  85.0864
 48.2896  7145.59  84.0083
 48.3316  7197.08  84.2459
 48.3736  7121.03  83.8239
 48.4156  7140.44  83.7923
 48.4576  7195.96  84.4142
 48.4996  7111.06  83.3691
 48.5416  7224.85  84.3692
 48.5836  7173.09  83.7322
 48.6256  7122.11  83.6494
 48.6676  7138.95  84.2582
 48.7096  7155.22  83.6192
 48.7516  7151.17  83.7462
 48.7936  6970.13  82.739
 48.8356  7169.9  83.9691
 48.8776  7024.31  83.6706
 48.9196  7170.42  83.9155
 48.9616  6995.87  83.2575
 49.0036  7126.53  84.3881
 49.0456  6958.18  83.3613
 49.0876  7078.97  83.612
 49.1296  6926.21  82.8694
 49.1716  6954.88  82.9116
 49.2136  7092.69  83.6532
 49.2556  7035.5  83.3555
 49.2976  7059.92  83.571
 49.3396  7038.89  83.5029
 49.3816  7106.44  83.336
 49.4236  6959.08  82.8746
 49.4656  6914.69  82.6343
 49.5076  7040.36  83.134
 49.5496  6949.19  82.6507
 49.5916  7007.13  82.9137
 49.6336  7028.26  83.2511
 49.6756  7072.71  83.7488
 49.7176  6890.09  82.593
 49.7596  6955.67  82.7603
 49.8016  7006.07  82.97
 49.8436  6959.17  82.9878
 49.8856  6889.39  82.583
 49.9276  6860.44  82.4994
 49.9696  6880.83  82.6082
 50.0116  7048.68  83.7375
 50.0536  6870.55  82.6299
 50.0956  6917.57  82.9823
 50.1376  6945.13  82.8487
 50.1796  6816.8  82.3391
 50.2216  6854.14  82.5672
 50.2636  6962.41  82.8295
 50.3056  6831.64  82.2181
 50.3476  6873.3  82.4973
 50.3896  6855.93  82.3589
 50.4316  6969.89  82.8789
 50.4736  6735.37  81.6887
 50.5156  6784.44  81.9647
 50.5576  6906.8  82.4693
 50.5996  6813.09  82.1883
 50.6416  6857.4  82.3855
 50.6836  6817.53  82.2044
 50.7256  6927.87  82.7888
 50.7676  6900.63  82.9522
 50.8096  6818.82  81.9956
 50.8516  6743.17  81.951
 50.8936  6792.79  82.0294
 50.9356  6860.32  82.5431
 50.9776  6876.68  82.7952
 51.0196  6665.16  81.6325
 51.0616  6753.4  81.4959
 51.1036  6707.36  81.5695
 51.1456  6746.11  81.7171
 51.1876  6726.18  80.9471
 51.2296  6870.23  82.4477
 51.2716  6837.15  81.9506
 51.3136  6675.73  81.4316
 51.3556  6682.84  81.102
 51.3976  6736.01  81.5774
 51.4396  6643.28  81.3189
 51.4816  6708.12  81.561
 51.5236  6793.5  82.1716
 51.5656  6672.91  81.0429
 51.6076  6677.33  81.1497
 51.6496  6742.35  81.7367
 51.6916  6701.31  81.8378
 51.7336  6674.2  81.7692
 51.7756  6634.09  81.2234
 51.8176  6714.17  81.8157
 51.8596  6686.77  81.6633
 51.9016  6780.55  81.8431
 51.9436  6598.02  82.1853
 51.9856  6558.9  82.3751
 52.0276  6649.22  81.4563
 52.0696  6587.91  81.1483
 52.1116  6698.48  81.9388
 52.1536  6616.4  81.3242
 52.1956  6728.82  81.4689
 52.2376  6733.88  81.6744
 52.2796  6678.91  81.1554
 52.3216  6495.64  80.7183
 52.3636  6578.95  80.8138
 52.4056  6618.45  80.9167
 52.4476  6598.53  81.1596
 52.4896  6487.28  80.5231
 52.5316  6590.33  81.2088
 52.5736  6536.72  80.5966
 52.6156  6515.09  80.8495
 52.6576  6667.56  81.2235
 52.6996  6388.19  80.4667
 52.7416  6624.07  81.7855
 52.7836  6549.61  81.2049
 52.8256  6576.55  80.6034
 52.8676  6455.12  80.4331
 52.9096  6658.19  81.7679
 52.9516  6547.83  81.4521
 52.9936  6473.12  81.3776
 53.0356  6477.39  80.4109
 53.0776  6418.96  80.3087
 53.1196  6410.74  80.3818
 53.1616  6414.97  80.4543
 53.2036  6322.79  79.834
 53.2456  6324.32  79.9392
 53.2876  6305.94  79.5346
 53.3296  6516.81  81.1804
 53.3716  6484.53  80.7298
 53.4136  6414.29  80.4354
 53.4556  6335.05  79.967
 53.4976  6415.55  80.3203
 53.5396  6405.94  80.6488
 53.5816  6463.83  80.6501
 53.6236  6249.14  79.6339
 53.6656  6389.74  80.1547
 53.7076  6396.18  80.1592
 53.7496  6381.64  80.1915
 53.7916  6461.4  80.8139
 53.8336  6371.99  80.1558
 53.8756  6175.59  79.4461
 53.9176  6408.6  80.2701
 53.9596  6418.02  81.0989
 54.0016  6395.74  80.2868
 54.0436  6471.62  80.9791
 54.0856  6530.97  80.773
 54.1276  6421.87  80.2985
 54.1696  6398.36  80.3198
 54.2116  6461.45  80.4756
 54.2536  6372.62  79.7348
 54.2956  6455.86  80.2945
 54.3376  6335.02  80.0246
 54.3796  6389.66  80.2659
 54.4216  6414.01  80.4678
 54.4636  6348.46  80.0204
 54.5056  6375.27  80.0105
 54.5476  6401.24  80.5013
 54.5896  6418.16  80.4445
 54.6316  6487.89  80.7334
 54.6736  6466.17  80.6756
 54.7156  6322.13  79.7891
 54.7576  6362.12  80.036
 54.7996  6408.58  80.4666
 54.8416  6322.14  79.9758
 54.8836  6354.38  80.2968
 54.9256  6265.64  79.477
 54.9676  6400.9  80.1885
 55.0096  6373.5  80.0884
 55.0516  6297.12  79.8367
 55.0936  6305.89  79.5217
 55.1356  6325.86  79.693
 55.1776  6330.71  79.9959
 55.2196  6336.55  79.8106
 55.2616  6251.48  79.4918
 55.3036  6337.85  80.1955
 55.3456  6365.65  80.5183
 55.3876  6362.22  80.2386
 55.4296  6309.99  79.8794
 55.4716  6359.47  80.2322
 55.5136  6306.07  79.6498
 55.5556  6326.35  79.8555
 55.5976  6223.4  79.2517
 55.6396  6248.3  79.3662
 55.6816  6339.05  79.8121
 55.7236  6338.48  79.8516
 55.7656  6356.86  79.7235
 55.8076  6376.61  79.8252
 55.8496  6212.97  79.1155
 55.8916  6197.51  79.2219
 55.9336  6239.64  79.3136
 55.9756  6299.33  79.5776
 56.0176  6248.41  79.4066
 56.0596  6337.73  79.9572
 56.1016  6339.23  79.9737
 56.1436  6232.86  79.5653
 56.1856  6304.79  79.7504
 56.2276  6256.41  79.5197
 56.2696  6312.85  79.8413
 56.3116  6139.2  79.1401
 56.3536  6255.2  79.5389
 56.3956  6292.37  79.7659
 56.4376  6253.83  79.5518
 56.4796  6260.34  79.3934
 56.5216  6320.44  80.1526
 56.5636  6369.51  80.0475
 56.6056  6265.02  79.6233
 56.6476  6360.39  79.8488
 56.6896  6272.17  79.7468
 56.7316  6197.88  79.1792
 56.7736  6251.43  79.5192
 56.8156  6309.26  79.8752
 56.8576  6227.4  79.3002
 56.8996  6326.01  79.8705
 56.9416  6218.42  79.4854
 56.9836  6130.62  78.4478
 57.0256  6136.41  78.7979
 57.0676  6231.75  79.529
 57.1096  6210.78  79.1854
 57.1516  6242.83  79.4511
 57.1936  6300.18  79.5616
 57.2356  6277.91  79.74
 57.2776  6275.34  79.6873
 57.3196  6238.06  79.8153
 57.3616  6199  79.0598
 57.4036  6278.03  79.624
 57.4456  6224.3  79.2542
 57.4876  6235.32  79.1779
 57.5296  6100.26  78.6504
 57.5716  6203.67  79.2989
 57.6136  6247.9  79.4026
 57.6556  6289.49  79.81
 57.6976  6202.2  79.077
 57.7396  6166.48  79.2236
 57.7816  6168.5  79.5961
 57.8236  6081.76  78.828
 57.8656  6268.04  79.6761
 57.9076  6209.96  79.3449
 57.9496  6160.58  79.3774
 57.9916  6155.89  78.8592
 58.0336  6151.44  79.1066
 58.0756  6189.41  78.9908
 58.1176  6216.15  79.1516
 58.1596  6279.65  80.127
 58.2016  6334.53  79.6797
 58.2436  6321.66  80.0157
 58.2856  6179.25  79.0297
 58.3276  6255.26  79.8927
 58.3696  6207.09  79.3304
 58.4116  6260.61  79.5337
 58.4536  6286  79.5795
 58.4956  6144.66  78.8646
 58.5376  6267.19  79.2114
 58.5796  6156.33  78.9349
 58.6216  6147.06  78.6842
 58.6636  6257.16  79.6093
 58.7056  6259.72  79.4753
 58.7476  6157.51  79.2728
 58.7896  6154.33  78.8964
 58.8316  6226.19  79.3487
 58.8736  6304.32  79.8564
 58.9156  6199.96  79.2346
 58.9576  6200.68  79.5636
 58.9996  6366.78  79.8417
 59.0416  6418.55  80.539
 59.0836  6324.92  79.8837
 59.1256  6142.38  79.425
 59.1676  6132.77  79.6703
 59.2096  6325.47  80.2123
 59.2516  6323.1  79.7687
 59.2936  6339.17  80.2061
 59.3356  6192.04  79.146
 59.3776  6225.36  79.5303
 59.4196  6267.51  79.7343
 59.4616  6153.1  78.8614
 59.5036  6217.12  79.3066
 59.5456  6453.96  80.486
 59.5876  6313.4  79.8001
 59.6296  6166.69  78.9374
 59.6716  6233.61  79.4234
 59.7136  6374.79  80.3057
 59.7556  6300.41  79.9752
 59.7976  6157.76  78.8043
 59.8396  6051.25  78.014
 59.8816  6221.16  79.6555
 59.9236  6266.28  79.5806
 59.9656  6243.81  79.7029
 60.0076  6264.08  79.1776
 60.0496  6235.46  79.5087
 60.0916  6355.73  79.6747
 60.1336  6174.43  79.6496
 60.1756  6339.42  81.92
 60.1996  0.0000000E+00  0.0000000E+00