File: docs/examples/opeando_xrd/IS17_D/Data/IS17_D/17_Db_f00110.xye
# /beamlines/bl04/projects/cycle2025-II/20250340211-lsimonelli/DATA/IS17_D/17_Db_f00110.xye : mythproc.py merge -s 0.006 -l 0.5 -f /beamlines/bl04/inhouse/ff/FlatField/ff_20Nov2024rod8mm60s_17keV.raw -b True -c true -o xye /beamlines/bl04/projects/cycle2025-II/20250340211-lsimonelli/DATA/IS17_D/17_Db_00110.dat
# IsMon = [6772856, 6777063, 6776827]  IsPos = [-1.4999, -2.4884, -3.4988]
# Wave = 0.4962  CalPath /beamlines/bl04/projects/cycle2025-II/20250340211-lsimonelli/DATA/Align/Si_Pos1_25keV_f00001.cal
# Date = 2025-09-25_00:22:24 Dt = 4.8000  Bin = 0.0060  <imon> = 6775582 +/- 1930 (Min/Max) 6772856 / 6777063
# icurr 252.0193  mocoIn 1.7196E-05  mocoOut 0.8066  i15 7.10306e+06  imon 6.77558e+06  i7 3.3333  iEMpd_timer 4.8000  iEMpd_1 3.4580E-08  iEMpd_2 7.9703E-08  iEMpd_3 1.6560E-08  iEMpd_4 4.8115E-08  iEMhp_timer 4.8000  iEMhp_1 4.9249E-06  iEMhp_2 -2.4734E-08  iEMhp_3 -2.3939E-08  iEMhp_4 -2.0430E-08
#      9776
 1.5856  45160.3  218.257
 1.6276  51928.2  230.025
 1.6696  57917.8  242.073
 1.7116  64701.5  256.357
 1.7536  73182.5  271.48
 1.7956  77388.7  279.87
 1.8376  73994.5  274.098
 1.8796  64091.9  253.224
 1.9216  53149.3  231.513
 1.9636  46381  215.383
 2.0056  42213.1  204.682
 2.0476  39273  199.59
 2.0896  38552.7  196.591
 2.1316  37436.2  192.792
 2.1736  35206.2  188.445
 2.2156  36248  189.679
 2.2576  35143.4  187.437
 2.2996  33800.8  184.495
 2.3416  34137.4  183.932
 2.3836  33737.7  182.964
 2.4256  32426.6  179.958
 2.4676  32419.3  179.683
 2.5096  32567.8  180.153
 2.5516  30714.2  178.951
 2.5936  30711.4  175.337
 2.6356  30001.2  174.04
 2.6776  30013.1  172.915
 2.7196  29834.9  172.926
 2.7616  29653.7  172.174
 2.8036  29225.5  171.097
 2.8456  28909.9  170.839
 2.8876  28411.8  169.201
 2.9296  28363.1  169.209
 2.9716  27968.5  167.492
 3.0136  27629.9  166.538
 3.0556  27768.6  167.363
 3.0976  27531.2  165.519
 3.1396  27097.7  164.974
 3.1816  26693.2  163.665
 3.2236  26372.8  162.676
 3.2656  26251  161.302
 3.3076  26067.6  162.264
 3.3496  26124.9  161.327
 3.3916  26548.1  162.453
 3.4336  26954.4  164.291
 3.4756  27072.1  164.596
 3.5176  27555.9  165.817
 3.5596  27533.5  168.272
 3.6016  27313.7  165.143
 3.6436  26725.9  164.494
 3.6856  26195.5  161.122
 3.7276  25348  159.601
 3.7696  25029.7  158.788
 3.8116  24645.9  157.461
 3.8536  24824.8  157.961
 3.8956  24597.9  157.048
 3.9376  24553.8  157.186
 3.9796  24502.3  156.498
 4.0216  24366  155.074
 4.0636  24471.5  156.907
 4.1056  24367.7  156.228
 4.1476  24707.5  157.639
 4.1896  24540.1  156.958
 4.2316  24971  158.153
 4.2736  25277.3  158.912
 4.3156  25482.6  159.788
 4.3576  26086.5  161.57
 4.3996  26415.9  162.864
 4.4416  26928.4  164.022
 4.4836  27232.7  165.105
 4.5256  27957.5  167.914
 4.5676  27718.1  167.453
 4.6096  28304.4  167.843
 4.6516  28413.9  167.86
 4.6936  28586.1  169.203
 4.7356  28947  170.096
 4.7776  28755.4  169.349
 4.8196  28631.6  169.659
 4.8616  27905.2  166.965
 4.9036  28032.8  167.083
 4.9456  28031.2  167.746
 4.9876  26958.8  164.401
 5.0296  27430.1  165.668
 5.0716  27130.5  165.523
 5.1136  27273.2  165.679
 5.1556  27611.4  166.141
 5.1976  28186.6  167.867
 5.2396  28054  167.147
 5.2816  28186.7  168.039
 5.3236  28129.4  167.55
 5.3656  27660.8  167.095
 5.4076  27272.5  166.054
 5.4496  27390.6  165.902
 5.4916  27570.1  166.192
 5.5336  27454.7  165.853
 5.5756  27538.6  166.133
 5.6176  27695.9  166.025
 5.6596  27812.1  167.393
 5.7016  27849.8  166.744
 5.7436  27976.7  167.41
 5.7856  27948  167.391
 5.8276  28033.8  167.349
 5.8696  28269.6  168.234
 5.9116  28063.5  168.23
 5.9536  28616.3  169.622
 5.9956  28686.4  169.202
 6.0376  28790.3  170.131
 6.0796  29206.1  171.188
 6.1216  28854.5  170.355
 6.1636  29158.2  170.288
 6.2056  29047.3  170.653
 6.2476  29444.4  171.685
 6.2896  29510.1  171.553
 6.3316  29634  172.1
 6.3736  29732.7  172.263
 6.4156  30024.7  173.004
 6.4576  29849.8  172.111
 6.4996  29850.5  172.59
 6.5416  30077  173.381
 6.5836  30076.6  173.609
 6.6256  30396.9  174.091
 6.6676  30750  174.658
 6.7096  30778.8  175.622
 6.7516  31024  175.967
 6.7936  31187.1  175.827
 6.8356  31399.8  176.513
 6.8776  31454.5  177.477
 6.9196  31553.4  178.162
 6.9616  31998  178.847
 7.0036  32522.8  179.97
 7.0456  32574.3  179.396
 7.0876  32480.8  180.847
 7.1296  32460.4  179.917
 7.1716  32571.9  179.757
 7.2136  32295.4  178.766
 7.2556  32543.2  179.61
 7.2976  32593.1  180.248
 7.3396  32309  179.68
 7.3816  32569  180.628
 7.4236  32614.3  180.032
 7.4656  32723.8  179.792
 7.5076  33095.5  180.955
 7.5496  32781.1  180.643
 7.5916  33179.7  181.786
 7.6336  33403  182.284
 7.6756  33528  182.474
 7.7176  33969.8  184
 7.7596  33763.2  184.679
 7.8016  34538.1  189.07
 7.8436  33912  183.949
 7.8856  34177.8  184.272
 7.9276  34600.2  185.809
 7.9696  35252  187.869
 8.0116  35854.4  188.001
 8.0536  35887.4  188.334
 8.0956  35843.5  189.406
 8.1376  36264.2  189.985
 8.1796  37015.3  192.482
 8.2216  37328.7  192.027
 8.2636  37539.7  192.826
 8.3056  37272.8  192.911
 8.3476  38118.9  194.406
 8.3896  37977.1  194.127
 8.4316  38148.8  194.733
 8.4736  37987.6  193.79
 8.5156  37600  193.076
 8.5576  37543.9  193.911
 8.5996  37469.4  192.586
 8.6416  37469.5  193.851
 8.6836  37115  192.766
 8.7256  37604.5  193.475
 8.7676  37511  196.195
 8.8096  37995.8  194.733
 8.8516  38157.7  194.706
 8.8936  37332.4  192.545
 8.9356  37605.3  193.588
 8.9776  37263.4  192.78
 9.0196  37539.9  193.169
 9.0616  37303.5  192.05
 9.1036  36704.9  191.678
 9.1456  36442.1  190.31
 9.1876  36995.4  191.703
 9.2296  36435.5  189.67
 9.2716  36152  188.968
 9.3136  36518  189.933
 9.3556  36584.6  190.077
 9.3976  35718.5  188.348
 9.4396  35615  187.969
 9.4816  35376.6  187.195
 9.5236  35235.6  186.704
 9.5656  35021.6  186.51
 9.6076  33893  184.002
 9.6496  34547.9  185.635
 9.6916  34063.3  184.288
 9.7336  34724.6  185.869
 9.7756  33990.9  185.152
 9.8176  33909.5  184.447
 9.8596  33573.9  181.962
 9.9016  33346.4  181.338
 9.9436  33268  181.045
 9.9856  32640.4  179.596
 10.0276  32443.9  180.134
 10.0696  33040.1  180.809
 10.1116  31766.3  177.546
 10.1536  31906.9  178.103
 10.1956  31584.4  176.815
 10.2376  31105.8  174.973
 10.2796  30931  174.586
 10.3216  30596  173.93
 10.3636  30315.8  173.156
 10.4056  29600.9  171.498
 10.4476  29836.5  171.793
 10.4896  30285  172.52
 10.5316  29280.4  170.371
 10.5736  29103.8  170.266
 10.6156  29151.3  170.162
 10.6576  29169.5  168.764
 10.6996  28566  167.717
 10.7416  28140.8  166.677
 10.7836  27934.1  166.725
 10.8256  27562.2  166.045
 10.8676  27584  165.648
 10.9096  27474.7  165.354
 10.9516  27078.6  163.103
 10.9936  27105.8  163.396
 11.0356  26917.1  163.432
 11.0776  26893  162.687
 11.1196  26286  161.604
 11.1616  26074.3  160.624
 11.2036  26276.3  161.096
 11.2456  26005  160.963
 11.2876  26442  162.045
 11.3296  25892.1  160.258
 11.3716  26124.4  160.67
 11.4136  25899  160.849
 11.4556  25864  160.398
 11.4976  26196.8  160.426
 11.5396  26261.5  160.791
 11.5816  26770.3  162.789
 11.6236  27614  165.569
 11.6656  27916.8  165.603
 11.7076  26832.8  163.2
 11.7496  26069.6  164.939
 11.7916  25814.8  159.325
 11.8336  25338.8  158.737
 11.8756  25171.5  157.771
 11.9176  25353.2  158.001
 11.9596  25289.8  157.993
 12.0016  25035.1  157.957
 12.0436  25125.2  157.693
 12.0856  24828  157.268
 12.1276  24644.4  156.63
 12.1696  24646.3  155.735
 12.2116  24671  155.817
 12.2536  24324.4  155.54
 12.2956  24351.6  154.966
 12.3376  24427.3  155.431
 12.3796  24465.2  156.028
 12.4216  24325.8  154.771
 12.4636  24337.9  155.756
 12.5056  24313  154.937
 12.5476  24548.9  155.192
 12.5896  24084.1  154.356
 12.6316  24271.1  155.121
 12.6736  23883.1  154.358
 12.7156  24453.1  156.035
 12.7576  24136.4  155.266
 12.7996  24358.4  154.613
 12.8416  23900.5  154.205
 12.8836  24218.9  155.05
 12.9256  24885.8  156.2
 12.9676  24574.8  155.618
 13.0096  24890.7  157.756
 13.0516  24794.9  156.473
 13.0936  25133.8  157.956
 13.1356  25338  157.538
 13.1776  24862.9  157.076
 13.2196  25178.5  157.71
 13.2616  24877.5  157.078
 13.3036  25289.1  158.344
 13.3456  24777.5  157.074
 13.3876  25336.5  158.116
 13.4296  25014  157.271
 13.4716  25056.3  157.02
 13.5136  25006.8  156.997
 13.5556  24738.6  156.786
 13.5976  25129.7  158.194
 13.6396  25046.1  157.274
 13.6816  25058.8  157.795
 13.7236  25606.4  159.09
 13.7656  26823.9  163.274
 13.8076  27632.4  164.348
 13.8496  27181  163.705
 13.8916  25264  158.972
 13.9336  24701.2  156.45
 13.9756  24704.4  155.829
 14.0176  24325.5  155.312
 14.0596  24450.3  155.653
 14.1016  24277.1  155.524
 14.1436  24533.6  155.462
 14.1856  23812.4  153.45
 14.2276  23784  153.847
 14.2696  23781.2  153.681
 14.3116  23163.1  151.577
 14.3536  23047.3  151.367
 14.3956  22888.6  150.567
 14.4376  23085.2  150.997
 14.4796  23059.3  150.917
 14.5216  22607.3  150.226
 14.5636  22557.6  149.625
 14.6056  22750.2  149.817
 14.6476  22662.3  148.756
 14.6896  22309.2  148.146
 14.7316  22135.7  148.624
 14.7736  21782.8  146.557
 14.8156  21605.9  145.988
 14.8576  21419.9  145.209
 14.8996  21208.4  145.707
 14.9416  20804.6  144.334
 14.9836  20870.8  144.538
 15.0256  20200.5  141.095
 15.0676  20087  141.009
 15.1096  20145.2  140.949
 15.1516  19609.3  139.616
 15.1936  19907.5  140.103
 15.2356  19552.9  139.129
 15.2776  19433.3  138.29
 15.3196  18879.3  137.296
 15.3616  18838.5  136.905
 15.4036  18767.5  136.504
 15.4456  19223.4  137.803
 15.4876  18849.1  136.136
 15.5296  18641.4  135.671
 15.5716  18437.8  134.531
 15.6136  18460.1  134.942
 15.6556  18285  133.539
 15.6976  18209.3  133.557
 15.7396  18107.6  133.568
 15.7816  18072.1  132.948
 15.8236  17660.3  132.118
 15.8656  17928.6  132.911
 15.9076  17752.9  132.079
 15.9496  18230.7  136.7
 15.9916  18041.8  136.398
 16.0336  18142.4  133.628
 16.0756  18030.1  133.536
 16.1176  17647.2  132.184
 16.1596  17178.2  131.593
 16.2016  17381.7  131.115
 16.2436  17326.4  131.288
 16.2856  17032.2  129.68
 16.3276  16908.5  129.65
 16.3696  17208.1  130.624
 16.4116  17009.5  130.315
 16.4536  17198.2  130.84
 16.4956  17095  130.181
 16.5376  16721.6  128.941
 16.5796  16812.1  128.65
 16.6216  16810  128.905
 16.6636  16259.9  126.969
 16.7056  16662.7  128.397
 16.7476  16709.1  128.102
 16.7896  16610.8  128.471
 16.8316  16596  128.392
 16.8736  16739.3  129.208
 16.9156  16547.7  128.793
 16.9576  16370.4  128.891
 16.9996  16611.1  130.311
 17.0416  16702.5  129.033
 17.0836  16776.5  129.076
 17.1256  16495.2  127.997
 17.1676  16694.4  128.729
 17.2096  16644.4  128.429
 17.2516  16433.1  127.403
 17.2936  16367  127.496
 17.3356  16242.8  127.003
 17.3776  16071.5  126.519
 17.4196  15880.6  125.452
 17.4616  15839.5  125.201
 17.5036  15634.6  124.754
 17.5456  15618.2  125.34
 17.5876  15465.4  123.756
 17.6296  15419.5  123.409
 17.6716  15546.6  124.502
 17.7136  15306.4  123.676
 17.7556  15347.8  124.133
 17.7976  15122.6  122.954
 17.8396  15159  122.602
 17.8816  14986.3  122.458
 17.9236  14875.4  121.796
 17.9656  14754.2  121.818
 18.0076  14816  121.668
 18.0496  14676.1  120.225
 18.0916  14748.1  121.071
 18.1336  14800.7  121.386
 18.1756  14813.5  120.987
 18.2176  14596.1  120.307
 18.2596  14347.3  119
 18.3016  14771.9  121.018
 18.3436  14616  120.374
 18.3856  14533.4  120.183
 18.4276  14414.5  119.368
 18.4696  14410.9  119.435
 18.5116  14484.5  120.018
 18.5536  14437.6  120.177
 18.5956  14210.1  118.793
 18.6376  14113.3  118.791
 18.6796  14377.8  119.205
 18.7216  14365.1  119.65
 18.7636  14302.3  119.4
 18.8056  14225.3  118.998
 18.8476  13948.3  118.451
 18.8896  14158.3  118.681
 18.9316  14345.5  119.432
 18.9736  14177  118.441
 19.0156  14115.2  118.596
 19.0576  14061.3  117.226
 19.0996  14119  118.174
 19.1416  14089  118.451
 19.1836  14110  118.14
 19.2256  13953  117.701
 19.2676  14043.7  118.165
 19.3096  13995.3  118.208
 19.3516  13829.6  117.465
 19.3936  13931.9  117.792
 19.4356  14180.5  118.725
 19.4776  13997.8  118.043
 19.5196  13942.1  117.664
 19.5616  13908.3  117.776
 19.6036  13861.4  117.076
 19.6456  13956.5  117.597
 19.6876  13858.1  116.813
 19.7296  14034.8  118.031
 19.7716  13897.5  117.616
 19.8136  14289.8  119.465
 19.8556  14174.4  118.459
 19.8976  14011.8  117.832
 19.9396  14098.1  117.792
 19.9816  14213.6  118.519
 20.0236  14443  119.676
 20.0656  14475.3  119.801
 20.1076  14712.2  121.273
 20.1496  14884.3  121.972
 20.1916  15312.7  123.218
 20.2336  15118.1  122.336
 20.2756  14773.3  121.389
 20.3176  14594.2  120.392
 20.3596  14289  119.108
 20.4016  14113  118.17
 20.4436  13961.6  118.096
 20.4856  13925.6  117.744
 20.5276  13837.4  117.839
 20.5696  13938.3  117.699
 20.6116  13591.5  116.506
 20.6536  13621.3  116.139
 20.6956  13488.3  115.707
 20.7376  13502.5  115.983
 20.7796  13463.1  115.501
 20.8216  13542.9  115.554
 20.8636  13495.1  115.736
 20.9056  13390.5  115.214
 20.9476  13417.1  115.178
 20.9896  13482.6  115.324
 21.0316  13425.1  114.971
 21.0736  13253.5  114.755
 21.1156  13106.8  114.277
 21.1576  13304.7  115.173
 21.1996  13258.9  114.972
 21.2416  13210.5  114.583
 21.2836  13236.1  114.667
 21.3256  13286.9  114.966
 21.3676  13119.3  113.767
 21.4096  13024.1  113.679
 21.4516  12952.7  113.239
 21.4936  12857  113.085
 21.5356  13152.7  114.324
 21.5776  13216.4  114.433
 21.6196  13065.5  113.817
 21.6616  12898.3  113.171
 21.7036  13003  113.399
 21.7456  12957.2  113.275
 21.7876  12953.3  113.022
 21.8296  12792.1  112.157
 21.8716  12866.2  112.712
 21.9136  13073.9  113.827
 21.9556  12783.6  112.226
 21.9976  12843.5  112.521
 22.0396  12714.8  112.209
 22.0816  12748.4  112.886
 22.1236  12994.2  113.424
 22.1656  12780.8  112.629
 22.2076  12623.4  111.383
 22.2496  12717.7  111.824
 22.2916  12561.2  111.015
 22.3336  12556.9  111.722
 22.3756  12627.3  111.756
 22.4176  12327.2  110.271
 22.4596  12391.7  111.151
 22.5016  12593  111.55
 22.5436  12734.2  112.05
 22.5856  12933.8  113.169
 22.6276  12897.7  113.149
 22.6696  12693.4  112.611
 22.7116  12665.7  111.994
 22.7536  12601.4  111.686
 22.7956  12574.7  110.887
 22.8376  12417.8  110.725
 22.8796  12660.5  111.601
 22.9216  12576.9  111.78
 22.9636  12432.8  110.291
 23.0056  12570.4  111.035
 23.0476  12550.2  111.519
 23.0896  12701.1  111.562
 23.1316  12662.1  111.826
 23.1736  12660.7  114.784
 23.2156  12844  112.959
 23.2576  13053  114.03
 23.2996  12911.3  113.171
 23.3416  13091  114.506
 23.3836  13048.6  113.528
 23.4256  13288  114.696
 23.4676  12979.6  113.04
 23.5096  13015.3  113.876
 23.5516  12924.4  112.755
 23.5936  12911.2  113.624
 23.6356  13044.4  113.863
 23.6776  12748.7  112.775
 23.7196  12706.1  112.165
 23.7616  12782.8  112.414
 23.8036  12989.4  113.385
 23.8456  12788.2  112.041
 23.8876  12743.8  112.219
 23.9296  12557.1  111.882
 23.9716  12663.2  111.546
 24.0136  12764.8  112.91
 24.0556  12444.6  111.2
 24.0976  12453.4  111.054
 24.1396  12314.4  113.06
 24.1816  12486.1  112.251
 24.2236  12362.7  111.308
 24.2656  12299.5  110.496
 24.3076  12455.5  111.472
 24.3496  12207.4  110.229
 24.3916  12398.8  111.15
 24.4336  12273.5  110.786
 24.4756  12272.3  110.666
 24.5176  12116.3  109.578
 24.5596  12006.2  109.214
 24.6016  12052.5  109.72
 24.6436  12100.9  109.445
 24.6856  11878.4  108.167
 24.7276  11859  108.403
 24.7696  11754.6  108.043
 24.8116  11634.4  107.657
 24.8536  11951  109.126
 24.8956  11650.4  107.471
 24.9376  11650.9  107.399
 24.9796  11525.7  107.187
 25.0216  11531.8  107.337
 25.0636  11584.5  107.224
 25.1056  11439.6  107.26
 25.1476  11473.8  109.056
 25.1896  11417.8  107.29
 25.2316  11457.6  106.752
 25.2736  11317.5  105.738
 25.3156  11306.7  105.771
 25.3576  11267.9  106.024
 25.3996  11335.2  106.332
 25.4416  11269.3  105.996
 25.4836  11157.2  105.977
 25.5256  11305.6  106.05
 25.5676  11196.2  105.26
 25.6096  11042.9  105.108
 25.6516  11100.3  104.885
 25.6936  11200.6  105.683
 25.7356  11046.4  105.085
 25.7776  11130  105.076
 25.8196  10908.8  104.26
 25.8616  10929.1  104.293
 25.9036  11065.4  104.392
 25.9456  11022.3  104.786
 25.9876  11063.6  105.052
 26.0296  11101.7  104.741
 26.0716  11074.6  105.053
 26.1136  11053.3  104.881
 26.1556  10950  103.766
 26.1976  11044.6  105.151
 26.2396  10942.2  103.805
 26.2816  10949.4  104.462
 26.3236  10940.9  104.568
 26.3656  11108.4  105.097
 26.4076  10954.5  104.563
 26.4496  11181  105.246
 26.4916  11184.1  105.143
 26.5336  11396.4  106.482
 26.5756  11801.8  108.236
 26.6176  11064.6  104.818
 26.6596  10954.5  104.604
 26.7016  10901.8  104.109
 26.7436  10987.6  104.666
 26.7856  10755.1  103.53
 26.8276  10789.8  103.664
 26.8696  10912  104.114
 26.9116  10779.3  103.421
 26.9536  10639.4  102.795
 26.9956  10608.2  102.679
 27.0376  10706.2  103.379
 27.0796  10605  102.614
 27.1216  10708  103.169
 27.1636  10479.3  102.24
 27.2056  10471.6  102.081
 27.2476  10594.2  102.654
 27.2896  10502.1  102.332
 27.3316  10401.3  101.564
 27.3736  10379.2  101.724
 27.4156  10536  102.33
 27.4576  10316.2  101.468
 27.4996  10548.7  102.219
 27.5416  10435.3  101.967
 27.5836  10341.6  101.351
 27.6256  10268.3  101.176
 27.6676  10388  101.748
 27.7096  10361.9  101.502
 27.7516  10368.6  101.681
 27.7936  10690.5  103.393
 27.8356  10426.6  101.712
 27.8776  10567.8  102.472
 27.9196  10272  100.889
 27.9616  10326.5  101.359
 28.0036  10310.8  101.238
 28.0456  10183.4  100.752
 28.0876  10180.3  100.815
 28.1296  10146.9  100.49
 28.1716  10268.9  101.114
 28.2136  10210.5  100.791
 28.2556  10203.4  100.873
 28.2976  10067.7  100.193
 28.3396  10107.7  100.136
 28.3816  10146.2  100.339
 28.4236  9958.57  99.561
 28.4656  10074.5  100.19
 28.5076  10029.6  99.5942
 28.5496  10112.8  100.267
 28.5916  10118.2  100.108
 28.6336  10029.2  100.008
 28.6756  10135.7  99.7339
 28.7176  9996.72  99.6058
 28.7596  9899.28  99.007
 28.8016  10024.6  99.6693
 28.8436  9858.43  99.0795
 28.8856  9934.29  99.3074
 28.9276  9978.2  99.7847
 28.9696  9775.05  98.4166
 29.0116  9732.5  98.3942
 29.0536  9729.78  98.5852
 29.0956  9838.32  98.8226
 29.1376  9850.4  98.8581
 29.1796  9828.78  98.8043
 29.2216  9762.12  98.3049
 29.2636  9890.12  99.0281
 29.3056  9667.67  97.6833
 29.3476  9861.8  99.1972
 29.3896  9817.31  99.0882
 29.4316  9724.17  97.9356
 29.4736  9493.75  96.8339
 29.5156  9736.51  97.9854
 29.5576  9648.05  98.2764
 29.5996  9659.03  97.5877
 29.6416  9585.81  97.3372
 29.6836  9561.65  97.1452
 29.7256  9461.34  97.195
 29.7676  9536.29  97.2417
 29.8096  9399.45  96.479
 29.8516  9305.72  96.3295
 29.8936  9407.73  96.9495
 29.9356  9599.37  97.6853
 29.9776  9324.51  96.4293
 30.0196  9404.04  96.234
 30.0616  9421.99  96.696
 30.1036  9416.79  96.4923
 30.1456  9474  97.0204
 30.1876  9446.17  96.8573
 30.2296  9320.7  96.1619
 30.2716  9557.24  97.0096
 30.3136  9374.21  96.9289
 30.3556  9654.43  98.373
 30.3976  9481.13  99.0006
 30.4396  9859.25  98.2589
 30.4816  9661.22  96.8715
 30.5236  9687.55  96.9979
 30.5656  9652.15  97.4913
 30.6076  9648.03  96.8758
 30.6496  9667.53  97.3954
 30.6916  9425.17  96.2461
 30.7336  9567.6  97.1192
 30.7756  9423.26  96.4831
 30.8176  9638.48  97.4936
 30.8596  9588.58  96.9976
 30.9016  9563.21  97.2227
 30.9436  9676.6  97.5298
 30.9856  9750.8  98.0311
 31.0276  9549.32  96.638
 31.0696  9554.55  97.223
 31.1116  9547.09  97.1638
 31.1536  9492.02  96.7544
 31.1956  9409.72  96.4133
 31.2376  9266.45  95.7156
 31.2796  9478.46  96.3232
 31.3216  9572.44  96.7139
 31.3636  9545.61  97.3062
 31.4056  9419.95  97.9767
 31.4476  9509.59  96.3317
 31.4896  9370.2  96.1304
 31.5316  9302.75  95.1819
 31.5736  9606.05  96.5553
 31.6156  9480.52  95.9214
 31.6576  9565  96.4376
 31.6996  9579.38  96.172
 31.7416  9331.35  96.0078
 31.7836  9525.71  95.9871
 31.8256  9504.83  96.1581
 31.8676  9486.26  96.034
 31.9096  9349.33  95.7331
 31.9516  9152.96  94.8828
 31.9936  9214.26  95.0195
 32.0356  9410.09  96.0646
 32.0776  9413.36  95.9789
 32.1196  9443.45  96.2507
 32.1616  9456.83  95.7607
 32.2036  9406.01  96.027
 32.2456  9301.71  95.8701
 32.2876  9349.84  95.6089
 32.3296  9250.87  95.0605
 32.3716  9083.36  94.3085
 32.4136  9030.26  94.2266
 32.4556  9268.14  94.8404
 32.4976  9217.46  94.4922
 32.5396  9084.74  93.8736
 32.5816  9147.85  94.3352
 32.6236  9142.7  94.3723
 32.6656  9175.98  95.0864
 32.7076  9121.59  94.4624
 32.7496  9036.73  93.6856
 32.7916  9157.68  94.2751
 32.8336  9180.73  94.4795
 32.8756  9213.09  94.3755
 32.9176  9000.26  93.7601
 32.9596  9007.78  93.873
 33.0016  9007.36  93.6483
 33.0436  8923.52  93.3815
 33.0856  9004.73  93.8978
 33.1276  8910.57  93.1335
 33.1696  9038.17  93.6359
 33.2116  9000.07  93.6725
 33.2536  9160.15  94.4789
 33.2956  9150.45  94.5228
 33.3376  8976.42  93.363
 33.3796  9097.76  94.2126
 33.4216  8927.06  92.9029
 33.4636  9037.04  93.6359
 33.5056  8814.42  92.7215
 33.5476  9019.83  93.7781
 33.5896  9070.76  93.8311
 33.6316  9029.61  93.9344
 33.6736  8960.53  93.8194
 33.7156  8905.82  93.5645
 33.7576  9050.09  93.9554
 33.7996  9051.33  93.7196
 33.8416  8796.05  92.5764
 33.8836  8863.14  92.7007
 33.9256  8916.67  93.0476
 33.9676  8984.36  93.2868
 34.0096  8861.74  92.9689
 34.0516  8780.75  92.1742
 34.0936  8807.4  92.5897
 34.1356  8961.03  93.125
 34.1776  8703.61  91.7709
 34.2196  8769.86  92.3154
 34.2616  8742.19  92.3075
 34.3036  8837.89  93.0614
 34.3456  8820.09  92.7151
 34.3876  8899.29  93.106
 34.4296  8752.34  92.0218
 34.4716  8815.15  92.5005
 34.5136  8751.51  92.3616
 34.5556  8637.13  92.0089
 34.5976  8717.8  92.2525
 34.6396  8737.71  92.0616
 34.6816  8850.39  92.7673
 34.7236  8721.45  91.8562
 34.7656  8705.69  91.9895
 34.8076  8546.62  91.4786
 34.8496  8635.83  91.7997
 34.8916  8676.15  91.8811
 34.9336  8702.97  91.9991
 34.9756  8657.66  91.677
 35.0176  8697.12  92.4224
 35.0596  8791.31  92.7484
 35.1016  8677.01  91.889
 35.1436  8850.78  92.4922
 35.1856  8860.38  92.6408
 35.2276  8721.07  92.1064
 35.2696  8804.7  92.7492
 35.3116  8662.57  92.0909
 35.3536  8638.71  91.6694
 35.3956  8669.01  91.5461
 35.4376  8706.69  92.3131
 35.4796  8688.01  92.2586
 35.5216  8609.77  91.8064
 35.5636  8393.85  91.3863
 35.6056  8588.02  91.4448
 35.6476  8673.78  91.7955
 35.6896  8639.76  91.7138
 35.7316  8531.15  91.1124
 35.7736  8662.66  91.9991
 35.8156  8677.83  92.0871
 35.8576  8579.55  91.8119
 35.8996  8532.06  91.5257
 35.9416  8452.33  90.6036
 35.9836  8558.7  91.5069
 36.0256  8685.56  92.2122
 36.0676  8734.12  92.2032
 36.1096  8602.45  91.6645
 36.1516  8751.34  92.3479
 36.1936  8590.79  91.3236
 36.2356  8617.89  92.1373
 36.2776  8414.05  90.5184
 36.3196  8573.39  91.0262
 36.3616  8491.57  90.7299
 36.4036  8535.84  91.0372
 36.4456  8583.79  91.5073
 36.4876  8384.55  90.3721
 36.5296  8398.19  90.4854
 36.5716  8399.97  91.2761
 36.6136  8356.88  89.8147
 36.6556  8273.89  89.5685
 36.6976  8262.74  90.0039
 36.7396  8217.66  89.4889
 36.7816  8237.31  89.9702
 36.8236  8183.33  89.5994
 36.8656  8155.69  89.5168
 36.9076  8214.44  89.7149
 36.9496  8106.95  89.1194
 36.9916  8190.13  89.2038
 37.0336  8168.7  89.401
 37.0756  8270.17  89.7446
 37.1176  8021.96  88.6536
 37.1596  8177.44  89.5149
 37.2016  8121.76  89.4321
 37.2436  8168.11  89.0015
 37.2856  8167.75  89.2515
 37.3276  8187.12  88.7205
 37.3696  8047.83  88.841
 37.4116  8192.47  89.5423
 37.4536  8246.1  89.7002
 37.4956  8046.14  88.6519
 37.5376  8330.44  91.8231
 37.5796  8191.44  90.976
 37.6216  8166.63  89.1021
 37.6636  8270.83  89.5626
 37.7056  8296.51  89.8857
 37.7476  8311.65  89.5092
 37.7896  8094.94  88.8408
 37.8316  8123.88  89.1592
 37.8736  8144.5  88.796
 37.9156  8113.81  88.6168
 37.9576  8322.69  89.6642
 37.9996  7998.18  87.6146
 38.0416  8207.14  89.5684
 38.0836  8201.5  89.4331
 38.1256  8179.32  89.2895
 38.1676  8071.92  88.8193
 38.2096  8184.59  89.0525
 38.2516  8144.75  89.0513
 38.2936  8225.22  89.2913
 38.3356  8105.36  88.5622
 38.3776  8067.42  88.6074
 38.4196  8142.92  88.8602
 38.4616  8140.55  89.1082
 38.5036  8186.15  89.1981
 38.5456  8022.19  89.1256
 38.5876  8019.31  89.1389
 38.6296  8173.94  88.9489
 38.6716  8063.23  88.1519
 38.7136  8013.51  87.8206
 38.7556  8004.04  88.2789
 38.7976  8167.49  89.0971
 38.8396  7967.36  88.46
 38.8816  7978.34  88.3217
 38.9236  7982.67  88.1472
 38.9656  8075.92  88.5619
 39.0076  8115.36  88.1856
 39.0496  8135.41  88.8528
 39.0916  8111.15  88.3584
 39.1336  8127.24  88.8598
 39.1756  8168.57  89.1334
 39.2176  7988.94  88.6926
 39.2596  8010.87  88.7465
 39.3016  8119.73  88.9234
 39.3436  8165.49  89.5955
 39.3856  8281.6  89.6572
 39.4276  8207.62  89.7784
 39.4696  8131.35  88.9703
 39.5116  8103.71  89.3443
 39.5536  8098.81  89.7268
 39.5956  8095.01  88.8061
 39.6376  8114.17  88.917
 39.6796  8001.43  88.0403
 39.7216  8021.8  88.2454
 39.7636  8169.38  89.6324
 39.8056  8082.47  88.9414
 39.8476  8048.49  89.0056
 39.8896  8126.66  89.0649
 39.9316  8047.41  88.8726
 39.9736  8105.71  88.7658
 40.0156  7986.93  87.9472
 40.0576  8019.09  88.4695
 40.0996  8079.01  87.9817
 40.1416  8042.84  88.5856
 40.1836  8107.21  88.8353
 40.2256  8029.3  88.4389
 40.2676  8099.04  88.9263
 40.3096  8030.2  88.4782
 40.3516  8074.91  88.8364
 40.3936  8167.59  88.8912
 40.4356  7934.77  87.8223
 40.4776  8111.46  89.2017
 40.5196  8176.71  89.6876
 40.5616  8140.71  89.1301
 40.6036  7944.9  88.3093
 40.6456  8062.46  88.5608
 40.6876  8042.38  88.4442
 40.7296  8007.46  88.3845
 40.7716  8123.68  89.1352
 40.8136  8039.18  88.6289
 40.8556  8106.33  89.1303
 40.8976  8066.49  88.831
 40.9396  8096.04  89.3462
 40.9816  8181.52  89.0999
 41.0236  8054.97  88.1906
 41.0656  8151.78  89.2633
 41.1076  8091.42  88.6964
 41.1496  8135.75  88.849
 41.1916  8095.08  88.9411
 41.2336  8152.24  89.2611
 41.2756  8203.38  89.1381
 41.3176  8133.44  89.3742
 41.3596  8159.1  89.2486
 41.4016  8054.22  88.9351
 41.4436  8172.73  89.369
 41.4856  8063.65  88.9339
 41.5276  8124.98  89.2879
 41.5696  8044.35  88.4768
 41.6116  8067.65  88.9908
 41.6536  8049.02  88.7528
 41.6956  8069.27  88.9293
 41.7376  8086.61  89.0461
 41.7796  7917.91  87.99
 41.8216  8076.01  89.0992
 41.8636  8015.47  88.7111
 41.9056  7932.17  88.0404
 41.9476  8054.68  88.9531
 41.9896  8141.88  89.0912
 42.0316  8191.24  89.4538
 42.0736  8166.66  89.424
 42.1156  8009.7  88.3898
 42.1576  8015.82  88.5287
 42.1996  8121.73  89.2399
 42.2416  8043.86  88.4028
 42.2836  7915.37  87.8092
 42.3256  7906.46  87.8728
 42.3676  8107.07  88.7806
 42.4096  7995.11  88.1266
 42.4516  8101.43  88.7915
 42.4936  8006.67  88.3479
 42.5356  7869.61  87.7316
 42.5776  8028.92  88.5551
 42.6196  8056.91  88.7587
 42.6616  7820.82  87.6237
 42.7036  7951.85  87.7334
 42.7456  8099.38  88.9078
 42.7876  7907.32  87.9309
 42.8296  8039.32  88.5072
 42.8716  7858.54  87.6625
 42.9136  7951.18  87.9662
 42.9556  7964.04  88.1739
 42.9976  7980.84  88.2294
 43.0396  7997.35  88.0522
 43.0816  7968.52  88.2808
 43.1236  7889.04  87.8833
 43.1656  7870.2  87.6033
 43.2076  7904.79  87.913
 43.2496  7939.48  87.923
 43.2916  7860.66  87.8458
 43.3336  7922.2  88.0221
 43.3756  7883.02  87.5562
 43.4176  7770.65  87.0127
 43.4596  7863.39  87.3848
 43.5016  7871.14  87.8398
 43.5436  7917.46  88.0012
 43.5856  7820.29  87.4856
 43.6276  7967.98  88.1855
 43.6696  7754.96  87.2647
 43.7116  7859.34  87.3421
 43.7536  7936.69  88.2844
 43.7956  7849.79  89.0156
 43.8376  7649.4  86.3919
 43.8796  7744.95  87.0109
 43.9216  7775.64  87.1001
 43.9636  7710.07  86.8402
 44.0056  7660.13  86.7888
 44.0476  7743.89  86.8924
 44.0896  7608.01  86.4694
 44.1316  7847.29  87.3351
 44.1736  7541.46  85.744
 44.2156  7710.89  86.5513
 44.2576  7721.95  86.9373
 44.2996  7683.38  86.6929
 44.3416  7710.3  86.606
 44.3836  7530.49  85.9196
 44.4256  7612.41  86.026
 44.4676  7570.87  85.947
 44.5096  7615.93  86.3475
 44.5516  7645.07  86.4754
 44.5936  7448.6  85.3116
 44.6356  7639.75  86.1352
 44.6776  7647.54  86.4941
 44.7196  7618.17  86.6412
 44.7616  7666.39  88.2562
 44.8036  7658.65  86.6326
 44.8456  7732.93  87.26
 44.8876  7720  87.0308
 44.9296  7849.76  87.1943
 44.9716  7763.46  87.1604
 45.0136  7860.31  87.6281
 45.0556  7901.52  87.8359
 45.0976  7704.17  86.8898
 45.1396  7722.81  86.7506
 45.1816  7606.17  86.03
 45.2236  7851.12  87.3093
 45.2656  7710.24  87.025
 45.3076  7615.08  86.2545
 45.3496  7686.56  86.9842
 45.3916  7674.63  87.1899
 45.4336  7770.18  87.5679
 45.4756  7686.27  86.942
 45.5176  7841.4  87.4355
 45.5596  7729.71  86.9269
 45.6016  7640.57  86.8521
 45.6436  7787.96  86.8386
 45.6856  7652.12  86.7511
 45.7276  7627.36  87.9315
 45.7696  7591.1  87.4022
 45.8116  7659.77  87.2186
 45.8536  7623.93  86.9064
 45.8956  7646.83  86.3868
 45.9376  7758.77  86.4706
 45.9796  7613.67  86.3495
 46.0216  7688.38  87.105
 46.0636  7719.17  86.4257
 46.1056  7627.75  85.8999
 46.1476  7724.27  87.0334
 46.1896  7756.98  87.3829
 46.2316  7710.42  86.9803
 46.2736  7604.78  86.7634
 46.3156  7651.35  86.6003
 46.3576  7633.31  86.7029
 46.3996  7670.27  87.0779
 46.4416  7575.06  86.106
 46.4836  7586.87  86.5438
 46.5256  7685.57  87.0364
 46.5676  7615.66  86.7591
 46.6096  7607.08  86.6381
 46.6516  7626.98  85.7817
 46.6936  7635.09  86.3299
 46.7356  7839.44  87.5859
 46.7776  7572.04  86.9306
 46.8196  7576.63  86.5432
 46.8616  7471.6  85.8917
 46.9036  7444.29  85.383
 46.9456  7570.83  85.7446
 46.9876  7515.78  85.5161
 47.0296  7527.68  86.2813
 47.0716  7495.63  85.9205
 47.1136  7487.73  85.5547
 47.1556  7497.07  85.4671
 47.1976  7616.09  86.2312
 47.2396  7551.15  86.2593
 47.2816  7439.52  85.3189
 47.3236  7545.58  86.3027
 47.3656  7533.55  86.1626
 47.4076  7557.4  86.0928
 47.4496  7493.38  85.8319
 47.4916  7490.35  86.0066
 47.5336  7549.76  86.1588
 47.5756  7602.66  86.5839
 47.6176  7447.35  85.5834
 47.6596  7471.03  85.4306
 47.7016  7770.72  86.9463
 47.7436  7562.63  86.0869
 47.7856  7567.88  86.1779
 47.8276  7412.89  85.3284
 47.8696  7541.49  86.1522
 47.9116  7562.76  85.9768
 47.9536  7528.54  85.7291
 47.9956  7443.83  85.9682
 48.0376  7555.83  86.3779
 48.0796  7697.44  87.312
 48.1216  7508.21  86.0526
 48.1636  7653.04  86.4409
 48.2056  7585.38  86.3285
 48.2476  7650.02  87.0128
 48.2896  7585.04  86.5495
 48.3316  7462.35  85.7837
 48.3736  7542.69  86.2746
 48.4156  7529.35  86.0441
 48.4576  7497.27  86.1618
 48.4996  7594.81  86.1609
 48.5416  7604.45  86.5543
 48.5836  7507.93  85.6706
 48.6256  7582.52  86.3046
 48.6676  7557.63  86.6919
 48.7096  7579.61  86.0617
 48.7516  7518.76  85.8734
 48.7936  7399.8  85.2515
 48.8356  7511.04  85.9377
 48.8776  7586.02  86.9588
 48.9196  7587.58  86.3239
 48.9616  7474.27  86.0579
 49.0036  7581.22  87.0427
 49.0456  7421.61  86.0959
 49.0876  7422.36  85.6224
 49.1296  7324.45  85.2167
 49.1716  7319.53  85.0633
 49.2136  7550.52  86.3194
 49.2556  7405.5  85.5266
 49.2976  7468.66  85.9561
 49.3396  7512.08  86.2616
 49.3816  7615.55  86.2706
 49.4236  7456.19  85.7831
 49.4656  7346.14  85.1724
 49.5076  7432.59  85.4172
 49.5496  7316.41  84.8087
 49.5916  7404.94  85.2325
 49.6336  7479.61  85.8751
 49.6756  7398.13  85.6435
 49.7176  7351.34  85.3115
 49.7596  7392.88  85.3161
 49.8016  7432.88  85.4692
 49.8436  7345.81  85.2655
 49.8856  7481.79  86.048
 49.9276  7285.14  85.0189
 49.9696  7398.4  85.6629
 50.0116  7356.94  85.5476
 50.0536  7457.3  86.0723
 50.0956  7346.14  85.5075
 50.1376  7441.31  85.7533
 50.1796  7333.25  85.4025
 50.2216  7364  85.5649
 50.2636  7301.31  84.8195
 50.3056  7333.32  85.1849
 50.3476  7317.78  85.11
 50.3896  7354.95  85.304
 50.4316  7420.55  85.5124
 50.4736  7354.92  85.3618
 50.5156  7300.64  85.0296
 50.5576  7447.38  85.6328
 50.5996  7330.49  85.2491
 50.6416  7331.7  85.1822
 50.6836  7333.68  85.2555
 50.7256  7351.54  85.2806
 50.7676  7519.06  86.5816
 50.8096  7252.34  84.5515
 50.8516  7310.59  85.3125
 50.8936  7266.2  84.8343
 50.9356  7401.7  85.7402
 50.9776  7374.81  85.7428
 51.0196  7216.31  84.9391
 51.0616  7205.4  84.1811
 51.1036  7298.06  85.0914
 51.1456  7281.71  84.9028
 51.1876  7296.34  84.3076
 51.2296  7182.5  84.2983
 51.2716  7101.97  83.5285
 51.3136  7197.06  84.5582
 51.3556  7156.14  83.9277
 51.3976  7136.23  83.9611
 51.4396  6878.34  82.7451
 51.4816  7157.43  84.2615
 51.5236  7110.95  84.0696
 51.5656  7051.19  83.3072
 51.6076  7266.64  84.656
 51.6496  7127.93  84.0437
 51.6916  7073.19  84.0833
 51.7336  7123.72  84.476
 51.7756  7102.11  84.0361
 51.8176  7131.84  84.3275
 51.8596  6923  83.0889
 51.9016  7240.88  84.5786
 51.9436  7204.44  85.9071
 51.9856  7147.13  85.9856
 52.0276  7156.6  84.502
 52.0696  7297.15  85.4005
 52.1116  7083.98  84.2553
 52.1536  7219.81  84.9518
 52.1956  7229.36  84.4515
 52.2376  7229.97  84.614
 52.2796  7120.15  83.8021
 52.3216  7053.47  84.1092
 52.3636  7182.43  84.4236
 52.4056  7190.18  84.3356
 52.4476  7129.66  84.3369
 52.4896  7001.97  83.64
 52.5316  7200.38  84.8758
 52.5736  7026.98  83.5529
 52.6156  7293.17  85.5399
 52.6576  7195.8  84.3747
 52.6996  6953.03  83.9519
 52.7416  6995.84  84.0538
 52.7836  7074.5  84.4177
 52.8256  7154.51  84.0799
 52.8676  6903.49  83.1743
 52.9096  7133.87  84.6165
 52.9516  7085.32  84.7322
 52.9936  7096.46  85.1852
 53.0356  7095.7  84.1519
 53.0776  7113.18  84.5368
 53.1196  7051.06  84.2986
 53.1616  7026.39  84.1906
 53.2036  6963.8  83.7812
 53.2456  7054.33  84.4335
 53.2876  7054.7  84.1219
 53.3296  7199.14  85.304
 53.3716  7288.04  85.5745
 53.4136  7140.8  84.8676
 53.4556  7054.47  84.3834
 53.4976  7199.55  85.0716
 53.5396  6985.52  84.1965
 53.5816  7125.17  84.6735
 53.6236  6972.86  84.1205
 53.6656  7028.88  84.0415
 53.7076  7032.59  84.0319
 53.7496  7172.86  84.999
 53.7916  6960.49  83.8699
 53.8336  7004.57  84.0274
 53.8756  6976.03  84.432
 53.9176  7016.78  83.9884
 53.9596  6812.25  83.5176
 54.0016  6901.53  83.383
 54.0436  6644.71  82.0418
 54.0856  6821.26  82.5401
 54.1276  6793.87  82.5709
 54.1696  6872.49  83.2231
 54.2116  6940.67  83.382
 54.2536  6764.86  82.1159
 54.2956  6807.29  82.4359
 54.3376  6653.6  81.9838
 54.3796  6713.48  82.2376
 54.4216  6790.61  82.7796
 54.4636  6691.98  82.1369
 54.5056  6843.52  82.8707
 54.5476  6700.32  82.3325
 54.5896  6766.95  82.5807
 54.6316  6809.38  82.6731
 54.6736  6715.16  82.1913
 54.7156  6763.07  82.5143
 54.7576  6597.88  81.4806
 54.7996  6784.66  82.7748
 54.8416  6818.73  83.0362
 54.8836  6742.76  82.6613
 54.9256  6686.74  82.0822
 54.9676  6629.14  81.599
 55.0096  6705.98  82.0994
 55.0516  6528.21  81.2381
 55.0936  6682.95  81.8632
 55.1356  6667.31  81.7964
 55.1776  6746.43  82.5189
 55.2196  6755.98  82.3823
 55.2616  6839.38  83.1116
 55.3036  6529.07  81.3618
 55.3456  6472.43  81.1675
 55.3876  6645.48  81.9508
 55.4296  6470.93  80.8763
 55.4716  6664.08  82.1018
 55.5136  6640.96  81.7099
 55.5556  6743.41  82.3983
 55.5976  6563.39  81.3638
 55.6396  6707.37  82.2146
 55.6816  6502.59  80.8048
 55.7236  6552.69  81.1795
 55.7656  6580.12  81.0718
 55.8076  6519.42  80.7012
 55.8496  6581.54  81.3777
 55.8916  6491.67  81.0465
 55.9336  6635.28  81.7633
 55.9756  6479.25  80.6841
 56.0176  6446.02  80.6129
 56.0596  6531.15  81.1415
 56.1016  6414.03  80.4375
 56.1436  6440.23  80.851
 56.1856  6494.71  80.9411
 56.2276  6673.12  82.0994
 56.2696  6512.83  81.0625
 56.3116  6643.58  82.2768
 56.3536  6493.36  80.994
 56.3956  6534.44  81.2474
 56.4376  6459.03  80.8123
 56.4796  6391.83  80.2088
 56.5216  6459.06  81.0038
 56.5636  6346.34  79.8621
 56.6056  6529.26  81.2464
 56.6476  6499.03  80.6629
 56.6896  6593.65  81.7317
 56.7316  6417.85  80.5363
 56.7736  6397.83  80.423
 56.8156  6419.7  80.5747
 56.8576  6302.35  79.7688
 56.8996  6439.65  80.5386
 56.9416  6382.01  80.499
 56.9836  6583.3  81.2759
 57.0256  6385.09  80.3558
 57.0676  6532.47  81.3766
 57.1096  6388.08  80.2654
 57.1516  6296.54  79.7664
 57.1936  6377.87  80.0198
 57.2356  6335.95  80.0863
 57.2776  6482.04  80.9722
 57.3196  6356.88  80.5197
 57.3616  6373.73  80.1181
 57.4036  6349.95  80.0413
 57.4456  6485.71  80.8765
 57.4876  6293.49  79.5117
 57.5296  6342.63  80.1801
 57.5716  6363.07  80.2992
 57.6136  6226.68  79.2688
 57.6556  6405.13  80.5109
 57.6976  6378.44  80.1843
 57.7396  6296.19  80.0104
 57.7816  6238.82  80.0387
 57.8236  6279.48  80.0802
 57.8656  6252.84  79.5672
 57.9076  6343.81  80.1663
 57.9496  6294.2  80.2123
 57.9916  6301.21  79.7641
 58.0336  6295.02  80.0168
 58.0756  6369.22  80.1163
 58.1176  6341.28  79.9289
 58.1596  6274.29  80.101
 58.2016  6132.55  78.4023
 58.2436  6131.74  78.8061
 58.2856  6077.13  78.3785
 58.3276  6054.98  78.5995
 58.3696  6108.43  78.7003
 58.4116  6136.73  78.7494
 58.4536  6144.24  78.6808
 58.4956  5990.59  77.8721
 58.5376  6181.74  78.672
 58.5796  6015.27  78.0262
 58.6216  6084.06  78.2913
 58.6636  6068.26  78.4002
 58.7056  6061.03  78.2069
 58.7476  5964.82  78.0245
 58.7896  6030  78.094
 58.8316  6137.28  78.7843
 58.8736  6106.46  78.5983
 58.9156  6101.88  78.6114
 58.9576  6131.39  79.1236
 58.9996  6105.38  78.2027
 59.0416  6139.35  78.7877
 59.0836  6113.69  78.5322
 59.1256  6057.65  78.8796
 59.1676  5999.57  78.8122
 59.2096  6142.98  79.0487
 59.2516  6105.87  78.3884
 59.2936  5885.39  77.2839
 59.3356  5893.93  77.2192
 59.3776  6213.86  79.4587
 59.4196  6041.21  78.2831
 59.4616  6010.98  77.9472
 59.5036  5962.49  77.6674
 59.5456  6206.3  78.9285
 59.5876  6040.18  78.0561
 59.6296  5968.15  77.6581
 59.6716  6143.03  78.8461
 59.7136  5999.63  77.9087
 59.7556  6024.03  78.2033
 59.7976  5814.12  76.5757
 59.8396  5977  77.5357
 59.8816  6022.98  78.3782
 59.9236  6073.71  78.3501
 59.9656  5977.87  77.9887
 60.0076  6033.66  77.7096
 60.0496  6078.1  78.4966
 60.0916  6189.9  78.6303
 60.1336  5914.97  77.96
 60.1756  6090.44  80.2971
 60.1996  0.0000000E+00  0.0000000E+00