File: docs/examples/opeando_xrd/IS17_D/Data/IS17_D/17_Da_f00036.xye
# /beamlines/bl04/projects/cycle2025-II/20250340211-lsimonelli/DATA/IS17_D/17_Da_f00036.xye : mythproc.py merge -s 0.006 -l 0.5 -f /beamlines/bl04/inhouse/ff/FlatField/ff_20Nov2024rod8mm60s_17keV.raw -b True -c true -o xye /beamlines/bl04/projects/cycle2025-II/20250340211-lsimonelli/DATA/IS17_D/17_Da_00036.dat
# IsMon = [6744571, 6746728, 6741809]  IsPos = [-1.5000, -2.4884, -3.4986]
# Wave = 0.4962  CalPath /beamlines/bl04/projects/cycle2025-II/20250340211-lsimonelli/DATA/Align/Si_Pos1_25keV_f00001.cal
# Date = 2025-09-24_03:35:38 Dt = 4.8000  Bin = 0.0060  <imon> = 6744369 +/- 2013 (Min/Max) 6741809 / 6746728
# icurr 248.7814  mocoIn 1.6979E-05  mocoOut 0.7970  i15 7.06127e+06  imon 6.74437e+06  i7 8.3333  iEMpd_timer 4.8000  iEMpd_1 3.5249E-08  iEMpd_2 7.6611E-08  iEMpd_3 1.6329E-08  iEMpd_4 4.8887E-08  iEMhp_timer 4.8000  iEMhp_1 4.8634E-06  iEMhp_2 -2.5359E-08  iEMhp_3 -2.3310E-08  iEMhp_4 -2.2544E-08
#      9776
 1.5856  40839  207.508
 1.6276  47472  219.887
 1.6696  54327.4  234.399
 1.7116  62932.2  252.773
 1.7536  71229.8  267.775
 1.7956  76320.7  277.872
 1.8376  73125  272.423
 1.8796  60869.4  246.719
 1.9216  49316  222.96
 1.9636  41257.4  203.609
 2.0056  37283  192.317
 2.0476  34333.7  186.577
 2.0896  33210.2  182.423
 2.1316  32363.1  179.215
 2.1736  30832.1  176.313
 2.2156  31289.7  176.191
 2.2576  29872.4  172.773
 2.2996  29013.9  170.895
 2.3416  29041.4  169.609
 2.3836  28455.3  167.995
 2.4256  27769.9  166.5
 2.4676  27259.2  164.728
 2.5096  26999.4  163.995
 2.5516  26552.9  166.395
 2.5936  26432.1  162.658
 2.6356  26027.2  162.085
 2.6776  25869.9  160.498
 2.7196  25495.3  159.843
 2.7616  25514  159.682
 2.8036  25054.5  158.409
 2.8456  25085  159.107
 2.8876  24445.2  156.946
 2.9296  23899.8  155.312
 2.9716  23965.9  155.024
 3.0136  23827.1  154.642
 3.0556  23817.5  154.999
 3.0976  23635.4  153.363
 3.1396  23581.9  153.9
 3.1816  23214.2  152.623
 3.2236  23040  152.05
 3.2656  23004.1  150.979
 3.3076  22806.4  151.762
 3.3496  23220.6  152.082
 3.3916  23528.1  152.917
 3.4336  24031.2  155.115
 3.4756  24271.9  155.811
 3.5176  25127.4  158.342
 3.5596  25016.6  160.971
 3.6016  25373.3  159.179
 3.6436  24219.3  156.598
 3.6856  23693.9  153.221
 3.7276  22990  151.999
 3.7696  22885  151.65
 3.8116  22467.2  150.339
 3.8536  22583.6  150.668
 3.8956  22537.8  150.341
 3.9376  22325.5  149.918
 3.9796  22213.5  149.021
 4.0216  22285.5  148.307
 4.0636  22247  149.639
 4.1056  22442.2  149.925
 4.1476  22570.1  150.673
 4.1896  22750  151.136
 4.2316  22796.9  151.125
 4.2736  23330.1  152.659
 4.3156  23562.8  153.662
 4.3576  24302.3  155.979
 4.3996  24493.2  156.639
 4.4416  25151.8  158.52
 4.4836  25391.6  159.419
 4.5256  25950.4  161.774
 4.5676  25822.1  161.628
 4.6096  26395.3  162.432
 4.6516  26865.6  163.226
 4.6936  27147.6  164.904
 4.7356  26975.6  164.202
 4.7776  27152.4  164.57
 4.8196  26705.1  163.851
 4.8616  26281.6  162.033
 4.9036  26028.9  160.998
 4.9456  25902.5  161.248
 4.9876  25528.3  159.987
 5.0296  25718.4  160.406
 5.0716  25509.3  160.522
 5.1136  25741.2  160.957
 5.1556  26207.6  161.876
 5.1976  26424.5  162.533
 5.2396  26400  162.16
 5.2816  26412.7  162.655
 5.3236  26357  162.194
 5.3656  26035.4  162.106
 5.4076  25883.1  161.784
 5.4496  25971.6  161.553
 5.4916  26021.7  161.469
 5.5336  26016.2  161.46
 5.5756  25852.3  160.973
 5.6176  25931.6  160.666
 5.6596  26351.5  162.773
 5.7016  26386.4  162.311
 5.7436  26471.9  162.846
 5.7856  26272.8  162.292
 5.8276  26834.6  163.74
 5.8696  26648.5  163.228
 5.9116  26498.9  163.455
 5.9536  26907.8  164.48
 5.9956  27350  165.202
 6.0376  27311.6  165.715
 6.0796  27536.9  166.228
 6.1216  27508.3  166.344
 6.1636  27880.7  166.538
 6.2056  27876.2  167.185
 6.2476  27936.1  167.056
 6.2896  28262.2  167.896
 6.3316  28153.7  167.742
 6.3736  28446.1  168.51
 6.4156  28160.3  167.613
 6.4576  28493  168.156
 6.4996  28531.3  168.745
 6.5416  28497.5  168.778
 6.5836  28861.3  170.081
 6.6256  28840.3  169.586
 6.6676  29197.6  170.207
 6.7096  29142.1  170.884
 6.7516  29583.3  171.835
 6.7936  29706.6  171.374
 6.8356  29851.9  172.121
 6.8776  30067.7  173.537
 6.9196  30015.6  173.781
 6.9616  30435  174.431
 7.0036  30848.3  175.277
 7.0456  31074.8  175.223
 7.0876  30918.3  176.367
 7.1296  30769.8  175.176
 7.1716  30612.7  174.277
 7.2136  30432.8  173.544
 7.2556  30756  174.623
 7.2976  30884.6  175.482
 7.3396  30530.5  174.669
 7.3816  30673.2  175.3
 7.4236  30984.8  175.487
 7.4656  31030.8  175.111
 7.5076  31221.3  175.781
 7.5496  31188.1  176.227
 7.5916  31217.6  176.334
 7.6336  31549.1  177.165
 7.6756  31526.1  176.954
 7.7176  32136.3  178.951
 7.7596  31917.5  179.578
 7.8016  31993  181.914
 7.8436  32687.9  180.623
 7.8856  32787.9  180.511
 7.9276  33575.5  183.074
 7.9696  33497.1  183.154
 8.0116  34761  185.506
 8.0536  34769.3  185.407
 8.0956  34523.1  185.883
 8.1376  35160.9  187.092
 8.1796  35122.7  187.509
 8.2216  36080.6  188.817
 8.2636  36042.2  188.96
 8.3056  36315  190.447
 8.3476  36794.8  191.021
 8.3896  36521.7  190.846
 8.4316  36568.5  190.681
 8.4736  36439.5  189.82
 8.5156  36109.3  189.229
 8.5576  35765.7  189.273
 8.5996  36112.6  189.086
 8.6416  36005.5  190.036
 8.6836  35677.1  189.023
 8.7256  36071.9  189.494
 8.7676  35626.4  191.192
 8.8096  35405.1  187.959
 8.8516  35204.6  187.094
 8.8936  35023.8  186.454
 8.9356  34740.6  186.034
 8.9776  35127.1  187.183
 9.0196  34658.5  185.593
 9.0616  34809.8  185.485
 9.1036  34030.5  184.553
 9.1456  34668.9  185.656
 9.1876  34421.5  184.934
 9.2296  34724.6  185.171
 9.2716  33787.9  182.709
 9.3136  34104.5  183.546
 9.3556  34028.8  183.326
 9.3976  32870.4  180.689
 9.4396  33243.8  181.61
 9.4816  32627.2  179.773
 9.5236  32460.1  179.24
 9.5656  32321.4  179.165
 9.6076  32436.4  180.015
 9.6496  32183.9  179.23
 9.6916  32309.9  179.558
 9.7336  32106.2  178.769
 9.7756  32101.3  179.832
 9.8176  31411.7  177.516
 9.8596  31434  176.064
 9.9016  31376.5  175.899
 9.9436  30744  173.865
 9.9856  30220.5  172.762
 10.0276  29902.1  172.924
 10.0696  30383  173.369
 10.1116  29435.8  170.893
 10.1536  29067.3  169.515
 10.1956  28862.1  168.998
 10.2376  28742.9  168.175
 10.2796  28698.4  168.161
 10.3216  28922.3  168.936
 10.3636  28154.2  166.849
 10.4056  27873.8  166.397
 10.4476  27951.6  166.27
 10.4896  27900  165.588
 10.5316  27429.4  164.557
 10.5736  27410.7  165.206
 10.6156  26850.5  163.295
 10.6576  26874.3  161.977
 10.6996  26782.2  162.342
 10.7416  26469.8  161.618
 10.7836  26631.5  162.801
 10.8256  26250  162.053
 10.8676  26319.2  161.809
 10.9096  25846.3  160.399
 10.9516  25720.5  158.96
 10.9936  25885.2  159.672
 11.0356  25480.8  159.029
 11.0776  25511.8  158.457
 11.1196  24916.8  157.327
 11.1616  24773.6  156.562
 11.2036  25128.5  157.542
 11.2456  24843.9  157.328
 11.2876  24860.7  157.117
 11.3296  24631  156.299
 11.3716  24812.4  156.615
 11.4136  24825  157.485
 11.4556  24903.2  157.417
 11.4976  25215.9  157.389
 11.5396  25640  158.866
 11.5816  25757  159.675
 11.6236  25807.7  160.051
 11.6656  25274.9  157.568
 11.7076  24757  156.769
 11.7496  24276  159.079
 11.7916  24270  154.505
 11.8336  23883.1  154.139
 11.8756  23748.5  153.243
 11.9176  23882.5  153.587
 11.9596  23440.7  152.096
 12.0016  23546.8  153.216
 12.0436  23489.6  152.469
 12.0856  23147.2  151.858
 12.1276  23099.2  151.61
 12.1696  23181.3  151.05
 12.2116  23484.5  152.029
 12.2536  23017.9  151.288
 12.2956  23189.6  151.233
 12.3376  22756  150.011
 12.3796  23107.2  151.608
 12.4216  22826.5  149.932
 12.4636  22895.1  151.047
 12.5056  23031.2  150.786
 12.5476  23003.8  150.24
 12.5896  23071.7  151.079
 12.6316  22794.5  150.324
 12.6736  22895  150.986
 12.7156  22761.3  150.553
 12.7576  22958.3  151.435
 12.7996  23099  150.575
 12.8416  22871.3  150.858
 12.8836  23206  151.759
 12.9256  23431.9  151.564
 12.9676  23417.8  151.93
 13.0096  23211.2  152.328
 13.0516  23461.5  152.209
 13.0936  23615.7  152.822
 13.1356  23902.2  153.027
 13.1776  23677.6  153.274
 13.2196  23639.9  152.823
 13.2616  23687.7  153.278
 13.3036  23513.1  152.846
 13.3456  23667.6  153.531
 13.3876  23607.5  152.643
 13.4296  23629.6  152.862
 13.4716  23704.9  152.724
 13.5136  23422.9  151.969
 13.5556  23649.9  153.289
 13.5976  23659.7  153.467
 13.6396  23867.6  153.526
 13.6816  23274.5  151.959
 13.7236  24042.7  154.221
 13.7656  23583.2  153.267
 13.8076  23584.4  152.081
 13.8496  23297.2  151.92
 13.8916  23361.7  152.929
 13.9336  23192.3  151.622
 13.9756  23209.6  151.044
 14.0176  23130.3  151.454
 14.0596  23249.6  151.804
 14.1016  22926  151.135
 14.1436  22531.1  148.979
 14.1856  22510.2  149.198
 14.2276  22077.7  148.231
 14.2696  22385.5  149.103
 14.3116  22122.1  148.136
 14.3536  21819.3  147.284
 14.3956  21760.9  146.819
 14.4376  21942.4  147.218
 14.4796  21726.8  146.481
 14.5216  21289.8  145.781
 14.5636  21179.7  144.972
 14.6056  21484.3  145.604
 14.6476  21419.2  144.624
 14.6896  21066.7  143.964
 14.7316  20791.7  144.029
 14.7736  20653.3  142.697
 14.8156  20402.6  141.874
 14.8576  20357.3  141.572
 14.8996  20028.9  141.608
 14.9416  19599.8  140.084
 14.9836  19739.3  140.551
 15.0256  19669.3  139.243
 15.0676  19574  139.215
 15.1096  19322  138.058
 15.1516  19156.9  138.007
 15.1936  19100.7  137.25
 15.2356  18791.2  136.406
 15.2776  18926.1  136.483
 15.3196  18458.3  135.765
 15.3616  18404.4  135.342
 15.4036  18190.8  134.403
 15.4456  18434.7  134.745
 15.4876  18123.2  133.503
 15.5296  17935.5  133.083
 15.5716  17903.1  132.578
 15.6136  17638.4  131.907
 15.6556  17811.7  131.814
 15.6976  17546.1  131.107
 15.7396  17627.4  131.803
 15.7816  17313.2  130.146
 15.8236  17248.5  130.593
 15.8656  17044.2  129.606
 15.9076  16865.7  128.757
 15.9496  16952.2  131.804
 15.9916  16819.9  131.736
 16.0336  16679.9  128.14
 16.0756  16813.2  128.964
 16.1176  16659.5  128.296
 16.1596  16196.1  127.791
 16.2016  16364.7  127.232
 16.2436  16179.4  126.884
 16.2856  16238.5  126.667
 16.3276  15811.4  125.39
 16.3696  16166.9  126.623
 16.4116  15775.9  125.523
 16.4536  16146.6  126.786
 16.4956  15810.6  125.197
 16.5376  15941.8  125.898
 16.5796  15828.3  124.829
 16.6216  15878.1  125.321
 16.6636  15731.1  124.899
 16.7056  15813.9  125.088
 16.7476  15819.8  124.799
 16.7896  15786.7  125.255
 16.8316  15673.5  124.763
 16.8736  15642.4  124.892
 16.9156  15700.5  125.458
 16.9576  15554.1  125.644
 16.9996  15603.5  126.325
 17.0416  15754.4  125.3
 17.0836  15462.2  123.898
 17.1256  15374.4  123.559
 17.1676  15489.4  124.012
 17.2096  15297.8  123.119
 17.2516  15201.1  122.812
 17.2936  15331.3  123.368
 17.3356  14846  121.401
 17.3776  14864.9  121.66
 17.4196  14825.5  121.196
 17.4616  14767.4  120.884
 17.5036  14733.7  121.096
 17.5456  14461.4  120.605
 17.5876  14533.3  119.971
 17.6296  14535.7  119.79
 17.6716  14278.1  119.295
 17.7136  14234.3  119.253
 17.7556  14156.8  119.204
 17.7976  14020.4  118.381
 17.8396  14052.6  118.03
 17.8816  13942.8  118.097
 17.9236  13786.3  117.249
 17.9656  14043.4  118.87
 18.0076  14083.5  118.633
 18.0496  13984.3  117.371
 18.0916  13935.2  117.695
 18.1336  14030.9  118.182
 18.1756  14048.4  117.799
 18.2176  13814.4  117.04
 18.2596  13781.3  116.637
 18.3016  13957  117.623
 18.3436  13929.8  117.518
 18.3856  13711.2  116.726
 18.4276  13818  116.855
 18.4696  13764.1  116.735
 18.5116  13757.2  116.977
 18.5536  13894.5  117.917
 18.5956  13579.4  116.132
 18.6376  13650.9  116.825
 18.6796  13499.3  115.521
 18.7216  13747.1  117.054
 18.7636  13443.5  115.747
 18.8056  13487.4  115.879
 18.8476  13398  115.808
 18.8896  13462.8  115.73
 18.9316  13575.4  116.211
 18.9736  13387.6  115.102
 19.0156  13503.9  115.977
 19.0576  13459.1  114.694
 19.0996  13525.8  115.676
 19.1416  13339.2  115.255
 19.1836  13408.3  115.166
 19.2256  13356.2  115.148
 19.2676  13332.1  115.14
 19.3096  13396.3  115.655
 19.3516  13284.1  114.952
 19.3936  13365.2  115.442
 19.4356  13362.5  115.24
 19.4776  13317.8  115.143
 19.5196  13315.8  114.987
 19.5616  13153.6  114.539
 19.6036  13421  115.06
 19.6456  13233  114.51
 19.6876  13422  114.982
 19.7296  13313  114.953
 19.7716  13235.5  114.773
 19.8136  13377.5  115.597
 19.8556  13504.3  115.634
 19.8976  13466.2  115.534
 19.9396  13531.6  115.398
 19.9816  13631.3  116.06
 20.0236  14040.1  118.005
 20.0656  14245  118.858
 20.1076  14157.1  118.953
 20.1496  14042.5  118.476
 20.1916  14060.2  118.024
 20.2336  13839.4  117.069
 20.2756  13459  115.872
 20.3176  13298.6  114.93
 20.3596  13334.1  115.064
 20.4016  13340.6  114.896
 20.4436  13131.3  114.537
 20.4856  12969.4  113.621
 20.5276  12882.3  113.694
 20.5696  12977.4  113.68
 20.6116  12862.5  113.345
 20.6536  12728  112.269
 20.6956  12709.6  112.315
 20.7376  12839.4  113.111
 20.7796  12672.7  112.065
 20.8216  12897.5  112.766
 20.8636  12614.7  111.878
 20.9056  12781.2  112.572
 20.9476  12581.6  111.534
 20.9896  12887.5  112.746
 21.0316  12747.2  112.035
 21.0736  12691.5  112.3
 21.1156  12605.6  112.078
 21.1576  12591  112.049
 21.1996  12586.2  112.019
 21.2416  12435.2  111.179
 21.2836  12379.7  110.89
 21.3256  12387.6  111.009
 21.3676  12523.6  111.178
 21.4096  12422.3  111.084
 21.4516  12403.3  110.827
 21.4936  12208  110.194
 21.5356  12443.3  111.198
 21.5776  12468.1  111.149
 21.6196  12307.2  110.456
 21.6616  12221.7  110.161
 21.7036  12337.4  110.472
 21.7456  12538.8  111.437
 21.7876  12335.4  110.277
 21.8296  12280.3  109.901
 21.8716  12154.3  109.557
 21.9136  12450.3  111.085
 21.9556  12199.4  109.638
 21.9976  12107.9  109.246
 22.0396  12161.3  109.735
 22.0816  12194.8  110.421
 22.1236  12382.2  110.711
 22.1656  12179.3  109.937
 22.2076  12283  109.886
 22.2496  12241  109.716
 22.2916  12277.7  109.766
 22.3336  12260.2  110.399
 22.3756  12141.7  109.599
 22.4176  12201.3  109.724
 22.4596  11961.7  109.224
 22.5016  12192.8  109.763
 22.5436  12326.9  110.259
 22.5856  12249.7  110.149
 22.6276  12179.3  109.96
 22.6696  12238.1  110.58
 22.7116  12167.8  109.777
 22.7536  12269.7  110.218
 22.7956  12188  109.19
 22.8376  11889.5  108.363
 22.8796  12418.9  110.543
 22.9216  12378.2  110.91
 22.9636  12119.6  108.907
 23.0056  12145.8  109.157
 23.0476  12163.4  109.797
 23.0896  12482.3  110.609
 23.1316  12292.2  110.187
 23.1736  12186  112.608
 23.2156  12370  110.774
 23.2576  12310.3  110.724
 23.2996  12170.9  109.9
 23.3416  12153.7  110.318
 23.3836  12255.4  110.013
 23.4256  12207.9  109.926
 23.4676  12042.9  108.893
 23.5096  12118.8  109.896
 23.5516  12144.3  109.308
 23.5936  12311.1  110.947
 23.6356  12339  110.741
 23.6776  11991.1  109.707
 23.7196  11843.1  108.496
 23.7616  12228.7  109.96
 23.8036  12210  109.908
 23.8456  12125.8  109.117
 23.8876  11872.9  108.307
 23.9296  11769.6  108.322
 23.9716  12049.7  108.808
 24.0136  11941.1  109.186
 24.0556  11750.9  108.063
 24.0976  11731.3  107.776
 24.1396  11772.4  110.588
 24.1816  11837.5  109.314
 24.2236  11678.2  108.184
 24.2656  11611.3  107.357
 24.3076  11541.9  107.282
 24.3496  11498.3  106.97
 24.3916  11610.2  107.531
 24.4336  11466.6  107.073
 24.4756  11393.6  106.606
 24.5176  11458  106.563
 24.5596  11293.8  106.117
 24.6016  11190.4  105.711
 24.6436  11373.3  106.072
 24.6856  11235.1  105.195
 24.7276  11201.6  105.345
 24.7696  11049.5  104.739
 24.8116  11081.6  105.068
 24.8536  10932.1  104.352
 24.8956  11005.7  104.445
 24.9376  10843.7  103.854
 24.9796  10921.1  104.333
 25.0216  10845.4  104.08
 25.0636  10887.5  103.938
 25.1056  10679.9  103.632
 25.1476  10856  106.126
 25.1896  10886.5  104.774
 25.2316  10822.3  103.641
 25.2736  10846.1  103.524
 25.3156  10797.3  103.375
 25.3576  10740.9  103.5
 25.3996  10745.3  103.517
 25.4416  10711.2  103.335
 25.4836  10622.6  103.419
 25.5256  10688.7  103.118
 25.5676  10721.9  103.008
 25.6096  10454.3  102.275
 25.6516  10716.3  103.053
 25.6936  10514.6  102.385
 25.7356  10588.9  102.881
 25.7776  10657.6  102.908
 25.8196  10489.1  102.242
 25.8616  10640.5  102.904
 25.9036  10656.2  102.451
 25.9456  10588.1  102.708
 25.9876  10473.9  102.08
 26.0296  10591.4  102.309
 26.0716  10463.8  102.101
 26.1136  10411.1  101.793
 26.1556  10546.5  101.754
 26.1976  10391.8  102
 26.2396  10470  101.555
 26.2816  10489.2  102.236
 26.3236  10470.5  102.226
 26.3656  10435.4  101.866
 26.4076  10476.5  102.275
 26.4496  10800.4  103.352
 26.4916  10622.8  102.495
 26.5336  10535.6  102.388
 26.5756  10829.2  103.651
 26.6176  10435.2  101.814
 26.6596  10309.7  101.496
 26.7016  10341.5  101.461
 26.7436  10243  101.058
 26.7856  10169  100.681
 26.8276  10304  101.297
 26.8696  10267.8  100.999
 26.9116  10186.4  100.541
 26.9536  10149.4  100.405
 26.9956  10137.5  100.378
 27.0376  10060.7  100.208
 27.0796  10286.3  101.049
 27.1216  10049.6  99.9613
 27.1636  10063.4  100.19
 27.2056  9962.64  99.5781
 27.2476  10018.2  99.8549
 27.2896  9984.46  99.7218
 27.3316  9975.76  99.4692
 27.3736  9935.65  99.5322
 27.4156  9823.57  98.8139
 27.4576  9966.14  99.7561
 27.4996  9869.92  98.8787
 27.5416  9983.46  99.7575
 27.5836  9938.91  99.3534
 27.6256  10107.8  100.359
 27.6676  10099.3  100.339
 27.7096  9791.95  98.6696
 27.7516  9815.64  98.9319
 27.7936  9769.08  98.8639
 27.8356  9872.03  99.0127
 27.8776  9813.6  98.7618
 27.9196  9649.28  97.7883
 27.9616  9823.37  98.8518
 28.0036  9711.11  98.2576
 28.0456  9725.1  98.4594
 28.0876  9661.61  98.2256
 28.1296  9658.3  98.0536
 28.1716  9664.52  98.0843
 28.2136  9714.68  98.3152
 28.2556  9568.24  97.677
 28.2976  9556.7  97.6164
 28.3396  9623.87  97.7205
 28.3816  9607.52  97.6554
 28.4236  9658.73  98.071
 28.4656  9458.71  97.0797
 28.5076  9501.86  96.9454
 28.5496  9621.33  97.8142
 28.5916  9637.37  97.7084
 28.6336  9539.73  97.5435
 28.6756  9578.65  96.956
 28.7176  9498.91  97.0943
 28.7596  9411.22  96.5435
 28.8016  9564.77  97.4425
 28.8436  9467.97  97.1058
 28.8856  9321.92  96.2103
 28.9276  9459.72  97.1531
 28.9696  9388.73  96.452
 29.0116  9313.99  96.2406
 29.0536  9251.17  96.125
 29.0956  9314.32  96.1775
 29.1376  9377.31  96.4641
 29.1796  9316.13  96.1875
 29.2216  9401.39  96.4785
 29.2636  9371.6  96.3918
 29.3056  9305.76  95.8518
 29.3476  9270.23  96.1819
 29.3896  9420.71  97.0581
 29.4316  9425.58  96.4328
 29.4736  9331.34  96.0182
 29.5156  9431.47  96.4446
 29.5576  9264.78  96.31
 29.5996  9288.43  95.7106
 29.6416  9121.97  94.9531
 29.6836  9384.68  96.2526
 29.7256  9210  95.9025
 29.7676  9207.58  95.5603
 29.8096  9307.78  96.0218
 29.8516  9082.79  95.1847
 29.8936  9263.51  96.2097
 29.9356  9345.88  96.3969
 29.9776  9144.03  95.5011
 30.0196  9208.5  95.2306
 30.0616  9167.1  95.3895
 30.1036  9194.66  95.3549
 30.1456  9081.51  95.0221
 30.1876  9115.2  95.1507
 30.2296  9169.23  95.3927
 30.2716  9341.17  95.9176
 30.3136  9229.68  95.9335
 30.3556  9111.25  95.5778
 30.3976  9121.84  97.1149
 30.4396  9211.78  94.9809
 30.4816  9147.63  94.2688
 30.5236  9132.71  94.2039
 30.5656  9172.18  95.0532
 30.6076  9070.78  94.3047
 30.6496  9103.35  94.5152
 30.6916  9077.98  94.479
 30.7336  8910.63  93.7471
 30.7756  9052.27  94.8003
 30.8176  9034.14  94.403
 30.8596  9080.16  94.4087
 30.9016  9050.31  94.1289
 30.9436  9078.89  94.4992
 30.9856  9102.49  94.728
 31.0276  9049.4  94.0723
 31.0696  8920.5  93.8243
 31.1116  8915.92  93.9081
 31.1536  8986.69  94.1762
 31.1956  9025.95  94.462
 31.2376  8841.58  93.5033
 31.2796  8925.35  93.4919
 31.3216  8928.36  93.4508
 31.3636  8989.52  94.4371
 31.4056  8999.32  95.7921
 31.4476  8956.52  93.4779
 31.4896  8890.91  93.6277
 31.5316  8978.27  93.4936
 31.5736  9004.93  93.4504
 31.6156  8868.8  92.7675
 31.6576  8947.85  93.2748
 31.6996  9063.38  93.5555
 31.7416  8719.05  92.6595
 31.7836  8826.55  92.3972
 31.8256  8861.22  92.8469
 31.8676  8901.51  93.0522
 31.9096  8785.25  92.6542
 31.9516  8582.62  91.8715
 31.9936  8637.73  91.9867
 32.0356  8814.91  92.993
 32.0776  8810.33  92.861
 32.1196  8883.61  93.2552
 32.1616  8864.16  92.6971
 32.2036  8613.6  91.8793
 32.2456  8641.95  92.3974
 32.2876  8846.63  92.992
 32.3296  8540.92  91.3363
 32.3716  8750.25  92.5562
 32.4136  8802.28  93.0532
 32.4556  8772.76  92.2775
 32.4976  8745.01  92.0894
 32.5396  8623.32  91.47
 32.5816  8670.79  91.743
 32.6236  8660.33  91.846
 32.6656  8846.49  93.3683
 32.7076  8703.26  92.2708
 32.7496  8587.6  91.3306
 32.7916  8719.25  91.9922
 32.8336  8699.53  91.9736
 32.8756  8759.12  92.1093
 32.9176  8436.9  90.7771
 32.9596  8541.63  91.4101
 33.0016  8737.2  92.2557
 33.0436  8707.59  92.2684
 33.0856  8639.78  91.9717
 33.1276  8527.59  91.1099
 33.1696  8594.01  91.3188
 33.2116  8718.98  92.1974
 33.2536  8578.18  91.4529
 33.2956  8552.3  91.3968
 33.3376  8517.15  91.0099
 33.3796  8547.8  91.3229
 33.4216  8622.51  91.3302
 33.4636  8527.24  90.9588
 33.5056  8483.73  90.8014
 33.5476  8477.35  90.9205
 33.5896  8573.1  91.2088
 33.6316  8408.59  90.6358
 33.6736  8396.94  90.8163
 33.7156  8455.15  91.1739
 33.7576  8660.65  91.903
 33.7996  8675.43  91.7534
 33.8416  8387.52  90.3977
 33.8836  8501.83  90.7824
 33.9256  8390.85  90.2557
 33.9676  8509.03  90.7876
 34.0096  8308.34  90.0199
 34.0516  8469.01  90.5291
 34.0936  8422.01  90.5411
 34.1356  8338.19  89.8309
 34.1776  8262.02  89.4338
 34.2196  8283.5  89.7247
 34.2616  8259.56  89.784
 34.3036  8250.35  89.915
 34.3456  8343.26  90.1849
 34.3876  8419.34  90.6443
 34.4296  8306.75  89.6431
 34.4716  8504.94  90.8498
 34.5136  8393.93  90.4628
 34.5556  8252.04  89.9369
 34.5976  8307.78  90.0834
 34.6396  8441.44  90.4862
 34.6816  8270.71  89.6795
 34.7236  8315.52  89.7137
 34.7656  8284.09  89.7276
 34.8076  8096.31  89.0207
 34.8496  8262.94  89.7977
 34.8916  8240.62  89.5539
 34.9336  8307.62  89.8778
 34.9756  8584.02  91.2913
 35.0176  8412.56  90.8893
 35.0596  8228.83  89.7153
 35.1016  8217.12  89.4312
 35.1436  8355.57  89.867
 35.1856  8238.71  89.3615
 35.2276  8204.62  89.3512
 35.2696  8245.59  89.7575
 35.3116  8239.04  89.8161
 35.3536  8060.87  88.5891
 35.3956  8249.02  89.2946
 35.4376  8150.34  89.2994
 35.4796  8248.04  89.903
 35.5216  8086.85  88.904
 35.5636  8003.52  89.2408
 35.6056  8162.15  89.1577
 35.6476  8231.17  89.424
 35.6896  8294.56  89.8649
 35.7316  8060.08  88.5531
 35.7736  8048.33  88.6886
 35.8156  8007.28  88.4615
 35.8576  8121.1  89.3317
 35.8996  8265.91  90.0933
 35.9416  8154.68  89.0028
 35.9836  8137.42  89.3438
 36.0256  8145.65  89.3091
 36.0676  8193.4  89.3325
 36.1096  8015.04  88.4905
 36.1516  8076.2  88.7164
 36.1936  8026.32  88.2981
 36.2356  7978.08  88.6531
 36.2776  8114.64  88.8923
 36.3196  8052.12  88.2261
 36.3616  8020.72  88.192
 36.4036  8021.72  88.2485
 36.4456  8061.07  88.6668
 36.4876  8042.05  88.5092
 36.5296  8016.83  88.4053
 36.5716  7989.96  89.0306
 36.6136  8108.98  88.4829
 36.6556  8129.73  88.8002
 36.6976  7942.36  88.2509
 36.7396  8027.16  88.547
 36.7816  8052.26  88.9646
 36.8236  8033.92  88.7754
 36.8656  7905.85  88.1428
 36.9076  7891.2  87.9391
 36.9496  7979.66  88.5758
 36.9916  8006.76  88.2071
 37.0336  8059.23  88.8144
 37.0756  8037.78  88.4856
 37.1176  7805.38  87.5567
 37.1596  7865.06  87.7996
 37.2016  7963.76  88.5722
 37.2436  8092.15  88.6044
 37.2856  7822.21  87.3607
 37.3276  8100.55  88.2569
 37.3696  7797.28  87.4503
 37.4116  7943.89  88.1859
 37.4536  7910.28  87.865
 37.4956  7806.86  87.332
 37.5376  7882  89.2931
 37.5796  7770.04  88.6005
 37.6216  7695.19  86.4757
 37.6636  7736.05  86.6157
 37.7056  7779.49  87.052
 37.7476  7788.15  86.6417
 37.7896  7817.95  87.299
 37.8316  7554.21  85.9789
 37.8736  7814.51  86.9894
 37.9156  7796.58  86.8868
 37.9576  7847.07  87.2052
 37.9996  7643.39  85.6414
 38.0416  7539.66  85.852
 38.0836  7874.81  87.6436
 38.1256  7731.81  86.8011
 38.1676  7525.02  85.7667
 38.2096  7590.85  85.7652
 38.2516  7894.89  87.5805
 38.2936  7790.64  86.8948
 38.3356  7847.15  87.129
 38.3776  7569.89  85.8439
 38.4196  7757.57  86.7611
 38.4616  7757.41  86.9892
 38.5036  7807.08  87.1116
 38.5456  7670.8  87.1633
 38.5876  7649.74  87.0672
 38.6296  7586.41  85.7012
 38.6716  7686.11  86.0548
 38.7136  7585.63  85.4397
 38.7556  7618.94  86.1213
 38.7976  7598.49  85.9459
 38.8396  7593.73  86.3593
 38.8816  7616.72  86.2619
 38.9236  7533.16  85.6179
 38.9656  7594.65  85.8819
 39.0076  7608.52  85.3784
 39.0496  7585.96  85.7735
 39.0916  7616.1  85.6044
 39.1336  7522.07  85.4785
 39.1756  7633.25  86.1753
 39.2176  7617.38  86.6044
 39.2596  7638.76  86.6486
 39.3016  7628.27  86.1708
 39.3436  7485.05  85.7712
 39.3856  7609.16  85.9397
 39.4276  7525.35  85.9511
 39.4696  7607.14  86.0456
 39.5116  7531.98  86.1135
 39.5536  7746.9  87.7707
 39.5956  7698.11  86.6037
 39.6376  7579.23  85.7815
 39.6796  7642.59  86.0412
 39.7216  7695.04  86.4358
 39.7636  7638.48  86.6837
 39.8056  7642.03  86.4785
 39.8476  7611.09  86.5521
 39.8896  7570.27  85.9534
 39.9316  7569.71  86.2083
 39.9736  7714.25  86.5937
 40.0156  7668.14  86.1694
 40.0576  7643.19  86.3775
 40.0996  7749.56  86.1753
 40.1416  7587.41  86.0419
 40.1836  7678.52  86.4538
 40.2256  7662.53  86.4055
 40.2676  7621.11  86.3436
 40.3096  7608.41  86.1234
 40.3516  7733.68  87.0415
 40.3936  7687.93  86.2538
 40.4356  7640.7  86.1692
 40.4776  7693.08  86.7118
 40.5196  7697.83  87.0295
 40.5616  7733.42  86.8708
 40.6036  7647.92  86.6408
 40.6456  7764  86.9149
 40.6876  7840.12  87.3244
 40.7296  7691.98  86.6314
 40.7716  7765.24  87.1705
 40.8136  7605.96  86.2109
 40.8556  7761.21  87.2216
 40.8976  7728.79  86.9616
 40.9396  7666.53  86.955
 40.9816  7659.06  86.2098
 41.0236  7746.77  86.4905
 41.0656  7798.36  87.3095
 41.1076  7858.05  87.4135
 41.1496  7790.24  86.9485
 41.1916  7607.28  86.2341
 41.2336  7691.93  86.7003
 41.2756  7556.81  85.5563
 41.3176  7574.65  86.253
 41.3596  7714.36  86.7845
 41.4016  7665.38  86.7633
 41.4436  7678.1  86.623
 41.4856  7743.44  87.152
 41.5276  7633.49  86.5491
 41.5696  7616.88  86.0904
 41.6116  7564.35  86.1824
 41.6536  7723.58  86.9454
 41.6956  7731.22  86.9687
 41.7376  7620.64  86.445
 41.7796  7584.86  86.1291
 41.8216  7763.62  87.3693
 41.8636  7711.59  87.0184
 41.9056  7626.76  86.3226
 41.9476  7694.73  86.9398
 41.9896  7708.44  86.6898
 42.0316  7630.86  86.328
 42.0736  7609.35  86.3532
 42.1156  7589.4  86.0509
 42.1576  7589.33  86.1491
 42.1996  7636.86  86.5557
 42.2416  7640.61  86.1666
 42.2836  7493.44  85.4433
 42.3256  7577.32  86.0298
 42.3676  7555.32  85.7114
 42.4096  7612.11  85.9939
 42.4516  7586.73  85.9389
 42.4936  7583.64  85.9938
 42.5356  7630.7  86.3938
 42.5776  7671.71  86.5649
 42.6196  7644.41  86.3836
 42.6616  7442.82  85.4832
 42.7036  7712.62  86.4076
 42.7456  7550.88  85.8451
 42.7876  7478.87  85.533
 42.8296  7604.4  86.1428
 42.8716  7352.21  84.7969
 42.9136  7525.39  85.5445
 42.9556  7458.4  85.3343
 42.9976  7620.01  86.2143
 43.0396  7516.43  85.363
 43.0816  7524.66  85.7783
 43.1236  7462.47  85.4844
 43.1656  7517.19  85.6302
 43.2076  7451.47  85.3606
 43.2496  7555.35  85.7628
 43.2916  7432.79  85.4256
 43.3336  7482.47  85.5517
 43.3756  7491.78  85.3557
 43.4176  7499.47  85.4894
 43.4596  7393.55  84.7424
 43.5016  7396.3  85.1543
 43.5436  7439.89  85.3054
 43.5856  7419.31  85.2182
 43.6276  7443.77  85.2523
 43.6696  7437.29  85.4719
 43.7116  7429.24  84.9287
 43.7536  7502.12  85.8212
 43.7956  7334.18  86.0328
 43.8376  7412.46  85.0473
 43.8796  7401.2  85.0664
 43.9216  7338.27  84.6264
 43.9636  7336.48  84.7259
 44.0056  7347.34  85.0048
 44.0476  7360.65  84.7302
 44.0896  7412.84  85.362
 44.1316  7418.43  84.9237
 44.1736  7358.14  84.7005
 44.2156  7411.5  84.846
 44.2576  7318.74  84.6505
 44.2996  7430.22  85.2528
 44.3416  7317.22  84.3797
 44.3836  7165.92  83.8163
 44.4256  7207.08  83.7178
 44.4676  7250.53  84.1181
 44.5096  7309.43  84.5956
 44.5516  7211.36  84.0002
 44.5936  7091.18  83.2464
 44.6356  7345.43  84.4684
 44.6776  7242.33  84.1785
 44.7196  7197.59  84.1886
 44.7616  7185.4  85.4452
 44.8036  7222.75  84.3352
 44.8456  7186.65  84.1242
 44.8876  7260.44  84.3993
 44.9296  7254.89  83.8302
 44.9716  7191.2  83.8707
 45.0136  7135.32  83.4973
 45.0556  7156.99  83.7057
 45.0976  7192.19  83.9577
 45.1396  7031.7  82.7944
 45.1816  7269.35  83.9432
 45.2236  7256.63  83.9372
 45.2656  7159.73  83.8736
 45.3076  7133.36  83.5065
 45.3496  7107.83  83.6482
 45.3916  7113.37  83.9442
 45.4336  7029.56  83.2949
 45.4756  7192.57  84.1175
 45.5176  7063.61  82.98
 45.5596  7240.09  84.1293
 45.6016  7103.11  83.7432
 45.6436  7147.06  83.2031
 45.6856  6997.66  82.9614
 45.7276  6994.72  84.7206
 45.7696  7007.68  83.9714
 45.8116  7088.71  83.9007
 45.8536  6980.75  83.159
 45.8956  7129.56  83.4053
 45.9376  7095.09  82.6795
 45.9796  7065.51  83.1733
 46.0216  7097.62  83.6932
 46.0636  7141.27  83.1087
 46.1056  6897.86  81.6744
 46.1476  7144.8  83.7063
 46.1896  7075.87  83.4492
 46.2316  7119.06  83.5734
 46.2736  6931.36  82.6672
 46.3156  6974.46  82.6765
 46.3576  7026.77  83.1844
 46.3996  7028.98  83.3436
 46.4416  7128.74  83.5028
 46.4836  6858.23  82.2702
 46.5256  6899.41  82.4516
 46.5676  6884.9  82.4809
 46.6096  6926.04  82.663
 46.6516  6952.62  81.8923
 46.6936  6982.67  82.5495
 46.7356  7145.98  83.6067
 46.7776  6895.79  82.9618
 46.8196  6837.01  82.3519
 46.8616  6853.89  82.2626
 46.9036  6868.73  82.0164
 46.9456  6886.11  81.7778
 46.9876  6877.21  81.805
 47.0296  6933.25  82.8145
 47.0716  6843.5  82.0961
 47.1136  6838.46  81.7545
 47.1556  6829.97  81.5795
 47.1976  6929.61  82.314
 47.2396  6880.11  82.3413
 47.2816  6792.96  81.5232
 47.3236  6829  82.1007
 47.3656  6872.17  82.2933
 47.4076  6797.66  81.5834
 47.4496  6857.17  82.1043
 47.4916  6831.07  82.1381
 47.5336  6890.02  82.2976
 47.5756  6894.83  82.4154
 47.6176  6878.52  82.259
 47.6596  6761.37  81.2677
 47.7016  6841.35  81.5755
 47.7436  6806.13  81.6903
 47.7856  6805.6  81.7129
 47.8276  6780.77  81.6124
 47.8696  6824.65  81.9642
 47.9116  6795.22  81.4954
 47.9536  6733.98  81.0848
 47.9956  6656.92  81.296
 48.0376  6678.18  81.2037
 48.0796  6859.4  82.4263
 48.1216  6827.33  82.0575
 48.1636  6903.7  82.1001
 48.2056  6792.25  81.6916
 48.2476  6868.24  82.4382
 48.2896  6833.03  82.1432
 48.3316  6747.92  81.5854
 48.3736  6736.61  81.5322
 48.4156  6723.11  81.3099
 48.4576  6658.92  81.2008
 48.4996  6710.96  80.9892
 48.5416  6809.62  81.8992
 48.5836  6716.29  81.0273
 48.6256  6700.34  81.1274
 48.6676  6740.64  81.872
 48.7096  6693.88  80.8806
 48.7516  6751.02  81.368
 48.7936  6624.06  80.6619
 48.8356  6585.5  80.474
 48.8776  6682.15  81.6112
 48.9196  6798.27  81.7046
 48.9616  6710.23  81.5445
 49.0036  6645.2  81.483
 49.0456  6629.62  81.3642
 49.0876  6665.68  81.1363
 49.1296  6529.14  80.4651
 49.1716  6535.04  80.3791
 49.2136  6683.39  81.1983
 49.2556  6742.31  81.5982
 49.2976  6650.77  81.1076
 49.3396  6612.6  80.9356
 49.3816  6731.09  81.0964
 49.4236  6607.79  80.7631
 49.4656  6564.21  80.5102
 49.5076  6633.26  80.6937
 49.5496  6534.28  80.0341
 49.5916  6640.16  80.7126
 49.6336  6653.32  80.9972
 49.6756  6663.34  81.2793
 49.7176  6568.13  80.6352
 49.7596  6605.2  80.812
 49.8016  6647.02  80.8177
 49.8436  6589.98  80.7594
 49.8856  6537.52  80.4349
 49.9276  6376.39  79.5361
 49.9696  6537.45  80.5226
 50.0116  6509.01  80.4672
 50.0536  6564.95  80.773
 50.0956  6588.63  80.9874
 50.1376  6552.54  80.4725
 50.1796  6428.11  79.9594
 50.2216  6439.05  80.0215
 50.2636  6560.76  80.4019
 50.3056  6462.8  79.9678
 50.3476  6516.06  80.3166
 50.3896  6401.41  79.5822
 50.4316  6572.81  80.4767
 50.4736  6441.06  79.8844
 50.5156  6499.43  80.2435
 50.5576  6528.42  80.1747
 50.5996  6477.64  80.1402
 50.6416  6452.67  79.9153
 50.6836  6497.99  80.2505
 50.7256  6446.74  79.8634
 50.7676  6524.34  80.637
 50.8096  6339.72  79.0545
 50.8516  6474.74  80.3035
 50.8936  6411.62  79.7068
 50.9356  6570.35  80.7835
 50.9776  6443.33  80.151
 51.0196  6292.61  79.3296
 51.0616  6239.76  78.3444
 51.1036  6578.99  80.8003
 51.1456  6495.61  80.1934
 51.1876  6423.74  79.1077
 51.2296  6350.23  79.2787
 51.2716  6258.23  78.4239
 51.3136  6359.6  79.492
 51.3556  6347.52  79.0581
 51.3976  6237.33  78.508
 51.4396  6152.11  78.2599
 51.4816  6291.92  79.0064
 51.5236  6261.13  78.8899
 51.5656  6259.36  78.5025
 51.6076  6378.88  79.3221
 51.6496  6297.14  79.0071
 51.6916  6194.82  78.6916
 51.7336  6353.91  79.798
 51.7756  6257.58  78.8936
 51.8176  6340.67  79.5128
 51.8596  6275.95  79.119
 51.9016  6507.72  80.1912
 51.9436  6308.15  80.3658
 51.9856  6193.45  80.0457
 52.0276  6225.81  78.8235
 52.0696  6324.36  79.5024
 52.1116  6274.97  79.3099
 52.1536  6248.4  78.9806
 52.1956  6342.53  79.1094
 52.2376  6274.58  78.8438
 52.2796  6348.78  79.1212
 52.3216  6169.42  78.668
 52.3636  6196.92  78.4345
 52.4056  6137.13  77.9162
 52.4476  6188.19  78.5933
 52.4896  6201.9  78.7299
 52.5316  6127.56  78.2962
 52.5736  6200.33  78.5008
 52.6156  6235.71  79.0872
 52.6576  6279.96  78.8311
 52.6996  6103.07  78.6519
 52.7416  6195.05  79.1032
 52.7836  6151.64  78.7035
 52.8256  6316.97  78.9918
 52.8676  6030.96  77.7492
 52.9096  6265.09  79.3159
 52.9516  6213.38  79.347
 52.9936  6207.07  79.6829
 53.0356  6053.66  77.7255
 53.0776  6118  78.388
 53.1196  6034.38  77.9753
 53.1616  6096.63  78.4226
 53.2036  5989.38  77.6864
 53.2456  6011.09  77.9235
 53.2876  5967.5  77.3588
 53.3296  6104.42  78.5575
 53.3716  6008.56  77.6908
 53.4136  5992.1  77.7286
 53.4556  6099.96  78.4547
 53.4976  6044.08  77.9499
 53.5396  6136.1  78.921
 53.5816  6065.52  78.1149
 53.6236  5882.24  77.2495
 53.6656  6019.97  77.794
 53.7076  6108.19  78.3208
 53.7496  6068.85  78.1861
 53.7916  6133.72  78.7276
 53.8336  6015.48  77.8642
 53.8756  5893.63  77.601
 53.9176  6084.99  78.2134
 53.9596  6029.2  78.6048
 54.0016  5938.81  77.3656
 54.0436  5991.4  77.9262
 54.0856  6146.38  78.3623
 54.1276  5997.24  77.602
 54.1696  6109.97  78.4875
 54.2116  6049.3  77.8622
 54.2536  6019.78  77.4942
 54.2956  6037.73  77.65
 54.3376  5981.33  77.7573
 54.3796  5973.27  77.6057
 54.4216  6129.75  78.6655
 54.4636  5972.51  77.6112
 54.5056  6104.48  78.2914
 54.5476  5922.15  77.4338
 54.5896  6016.82  77.8866
 54.6316  6101.11  78.2913
 54.6736  5958.55  77.4416
 54.7156  5943.5  77.3685
 54.7576  6006.29  77.7663
 54.7996  5986.53  77.7898
 54.8416  5977.35  77.7636
 54.8836  5874.97  77.2014
 54.9256  6005.44  77.8058
 54.9676  6063.96  78.0526
 55.0096  5982.33  77.5878
 55.0516  6064.17  78.3539
 55.0936  6051.43  77.8964
 55.1356  5925.35  77.128
 55.1776  5918.04  77.3393
 55.2196  6062.47  78.0648
 55.2616  5925.04  77.3823
 55.3036  5888.31  77.2914
 55.3456  5961.7  77.9227
 55.3876  6104.38  78.599
 55.4296  6006.1  77.9384
 55.4716  5935.62  77.5142
 55.5136  6014.53  77.7836
 55.5556  5947.09  77.4191
 55.5976  5899.04  77.1662
 55.6396  5955.06  77.4009
 55.6816  5910.4  77.0621
 55.7236  5934.87  77.3592
 55.7656  6039.89  77.711
 55.8076  6072.02  77.8978
 55.8496  5915.82  77.3115
 55.8916  5839.43  76.8989
 55.9336  5953.4  77.4644
 55.9756  5932.32  77.2253
 56.0176  5900.32  77.1632
 56.0596  5903.39  77.1695
 56.1016  5937.67  77.4018
 56.1436  5834.8  76.9784
 56.1856  5913.11  77.2488
 56.2276  5854.24  76.9125
 56.2696  5949.42  77.5098
 56.3116  5896.43  77.557
 56.3536  5808.55  76.642
 56.3956  5910.7  77.308
 56.4376  5854.91  76.9734
 56.4796  5931.45  77.2849
 56.5216  5881.44  77.3271
 56.5636  5923  77.1941
 56.6056  5882.64  77.155
 56.6476  5925.89  77.0766
 56.6896  5917.88  77.4608
 56.7316  5969.46  77.7002
 56.7736  5933.49  77.4694
 56.8156  5923.02  77.4032
 56.8576  5840.64  76.8052
 56.8996  5858.74  76.8517
 56.9416  5841.09  76.9289
 56.9836  5778.13  76.1548
 57.0256  5853.07  76.9553
 57.0676  5834.83  76.9518
 57.1096  5880.49  77.0499
 57.1516  5923.56  77.4016
 57.1936  5764.42  76.1034
 57.2356  5908.63  77.3646
 57.2776  5949.79  77.5868
 57.3196  5953.32  77.9724
 57.3616  5911.81  77.2068
 57.4036  5857.1  76.908
 57.4456  5826.33  76.672
 57.4876  5835.35  76.5971
 57.5296  5804.93  76.728
 57.5716  5928.92  77.5222
 57.6136  5841.3  76.7826
 57.6556  5917.72  77.4121
 57.6976  5933.92  77.3493
 57.7396  5761.3  76.5775
 57.7816  5732.74  76.7329
 57.8236  5714.79  76.4144
 57.8656  5924.9  77.4656
 57.9076  5871.71  77.1491
 57.9496  5762.48  76.768
 57.9916  5895.78  77.1269
 58.0336  5812.45  76.8917
 58.0756  5841.63  76.6978
 58.1176  5909.76  77.1749
 58.1596  5770.71  76.8109
 58.2016  5891.13  76.8676
 58.2436  5895.67  77.2862
 58.2856  5876.19  77.0851
 58.3276  5832.68  77.1567
 58.3696  5933.35  77.5679
 58.4116  5790.3  76.5026
 58.4536  5934.07  77.3287
 58.4956  5835.72  76.8672
 58.5376  5929.56  77.0594
 58.5796  5857.76  77.0128
 58.6216  5774.42  76.2794
 58.6636  5840.55  76.9281
 58.7056  6001.47  77.8295
 58.7476  5846.35  77.2572
 58.7896  5715.22  76.0406
 58.8316  5805.76  76.6309
 58.8736  5896.12  77.2401
 58.9156  5834.33  76.8716
 58.9576  5964.03  77.9315
 58.9996  5986.49  77.4366
 59.0416  6006.92  77.9452
 59.0836  5987.18  77.728
 59.1256  5935.15  77.7879
 59.1676  5881.97  78.0371
 59.2096  5961.59  77.8948
 59.2516  6033.78  77.9462
 59.2936  6073.99  78.5346
 59.3356  5849.8  76.9513
 59.3776  5927.95  77.631
 59.4196  5922.26  77.5308
 59.4616  5857.03  76.9643
 59.5036  5739.84  76.222
 59.5456  6103.18  78.2921
 59.5876  5954.34  77.5214
 59.6296  5830.96  76.782
 59.6716  5967.61  77.7341
 59.7136  5912.05  77.3598
 59.7556  5811.67  76.8341
 59.7976  5809.47  76.5666
 59.8396  5866.01  76.8341
 59.8816  6033.46  78.4661
 59.9236  5745.62  76.2261
 59.9656  5886.35  77.4115
 60.0076  5984.1  77.4116
 60.0496  5904.83  77.3919
 60.0916  5975.09  77.2757
 60.1336  5777.16  77.0682
 60.1756  5919.09  79.1818
 60.1996  0.0000000E+00  0.0000000E+00