File: docs/examples/opeando_xrd/IS17_D/Data/IS17_D/17_Db_f00032.xye
# /beamlines/bl04/projects/cycle2025-II/20250340211-lsimonelli/DATA/IS17_D/17_Db_f00032.xye : mythproc.py merge -s 0.006 -l 0.5 -f /beamlines/bl04/inhouse/ff/FlatField/ff_20Nov2024rod8mm60s_17keV.raw -b True -c true -o xye /beamlines/bl04/projects/cycle2025-II/20250340211-lsimonelli/DATA/IS17_D/17_Db_00032.dat
# IsMon = [6788482, 6786635, 6790753]  IsPos = [-1.5000, -2.4885, -3.4986]
# Wave = 0.4962  CalPath /beamlines/bl04/projects/cycle2025-II/20250340211-lsimonelli/DATA/Align/Si_Pos1_25keV_f00001.cal
# Date = 2025-09-24_02:37:44 Dt = 4.8000  Bin = 0.0060  <imon> = 6788623 +/- 1684 (Min/Max) 6786635 / 6790753
# icurr 253.1984  mocoIn 1.7270E-05  mocoOut 0.8106  i15 7.11106e+06  imon 6.78862e+06  i7 4.6667  iEMpd_timer 4.8000  iEMpd_1 3.6277E-08  iEMpd_2 7.6979E-08  iEMpd_3 1.6225E-08  iEMpd_4 4.8222E-08  iEMhp_timer 4.8000  iEMhp_1 4.9458E-06  iEMhp_2 -2.6216E-08  iEMhp_3 -2.3424E-08  iEMhp_4 -2.1164E-08
#      9776
 1.5856  44341.7  216.229
 1.6276  50906.9  227.708
 1.6696  56961.3  240.02
 1.7116  64209.9  255.333
 1.7536  73083.1  271.244
 1.7956  77032.3  279.171
 1.8376  73484.5  273.099
 1.8796  62870.6  250.755
 1.9216  51969.3  228.885
 1.9636  45010.4  212.673
 2.0056  40319.1  199.999
 2.0476  37643.5  195.368
 2.0896  36326.5  190.794
 2.1316  35202.2  186.916
 2.1736  33782.4  184.56
 2.2156  34195.1  184.194
 2.2576  32663.2  180.667
 2.2996  31579.4  178.296
 2.3416  32374.4  179.085
 2.3836  31786  177.559
 2.4256  30696.3  175.058
 2.4676  29780  172.181
 2.5096  29610.9  171.748
 2.5516  28517.6  172.432
 2.5936  28477.4  168.842
 2.6356  27819.9  167.588
 2.6776  27762.6  166.318
 2.7196  27471.6  165.938
 2.7616  27271.3  165.113
 2.8036  26823.4  163.918
 2.8456  26734.6  164.289
 2.8876  26177.7  162.399
 2.9296  26121.1  162.386
 2.9716  25762.5  160.754
 3.0136  25445.7  159.83
 3.0556  25188.8  159.41
 3.0976  25390.2  158.926
 3.1396  25047.1  158.61
 3.1816  24774.3  157.67
 3.2236  24743  157.567
 3.2656  24262.7  155.086
 3.3076  24495.4  157.292
 3.3496  24839.3  157.561
 3.3916  24830.5  157.104
 3.4336  25318.1  159.236
 3.4756  25759.7  160.547
 3.5176  26324.4  162.066
 3.5596  25761.6  163.328
 3.6016  26185.4  161.702
 3.6436  25390.5  160.348
 3.6856  25045  157.544
 3.7276  23973.1  155.217
 3.7696  23991.6  155.249
 3.8116  23474.4  153.673
 3.8536  23561.5  153.883
 3.8956  23236.1  152.638
 3.9376  22951.7  151.994
 3.9796  23487.9  153.215
 4.0216  23323.7  151.731
 4.0636  23321.7  153.179
 4.1056  23197.8  152.435
 4.1476  23639.1  154.187
 4.1896  23686.3  154.198
 4.2316  23886.8  154.671
 4.2736  24286.3  155.765
 4.3156  24415  156.405
 4.3576  25274.6  159.04
 4.3996  25303.5  159.211
 4.4416  26009.4  161.193
 4.4836  26394.8  162.554
 4.5256  26987  164.971
 4.5676  26874.5  164.884
 4.6096  27189.8  164.87
 4.6516  27710.8  165.767
 4.6936  27818  166.915
 4.7356  28091.2  167.558
 4.7776  27867.4  166.719
 4.8196  27727.5  166.944
 4.8616  27237.5  165.093
 4.9036  27014.8  164.01
 4.9456  26954.5  164.489
 4.9876  26175.9  161.992
 5.0296  26462.6  162.717
 5.0716  26424.1  163.214
 5.1136  26603.4  163.631
 5.1556  26576.1  163.002
 5.1976  27352.4  165.357
 5.2396  27179.2  164.525
 5.2816  27440.3  165.789
 5.3236  27259.1  164.934
 5.3656  26673.8  164.085
 5.4076  26602.8  164.015
 5.4496  26573.9  163.419
 5.4916  26952.5  164.329
 5.5336  26598.4  163.252
 5.5756  26653.9  163.438
 5.6176  26784.5  163.278
 5.6596  27159.3  165.241
 5.7016  27132  164.585
 5.7436  27260.6  165.253
 5.7856  26929.1  164.312
 5.8276  27143.6  164.679
 5.8696  27624.4  166.19
 5.9116  27212.5  165.618
 5.9536  27985.6  167.723
 5.9956  28071.5  167.382
 6.0376  27821  167.246
 6.0796  28100.9  167.915
 6.1216  28022.4  167.879
 6.1636  28240.3  167.59
 6.2056  28290.4  168.42
 6.2476  28691.6  169.291
 6.2896  28786.9  169.43
 6.3316  28674  169.271
 6.3736  28854  169.7
 6.4156  28714.9  169.242
 6.4576  28944.6  169.478
 6.4996  29003.7  170.125
 6.5416  29085.5  170.493
 6.5836  28970.4  170.394
 6.6256  29147.8  170.476
 6.6676  29620.1  171.418
 6.7096  29602.4  172.22
 6.7516  29934.7  172.845
 6.7936  30258.9  172.934
 6.8356  30178  173.046
 6.8776  30265.4  174.097
 6.9196  30378.8  174.821
 6.9616  30823.6  175.508
 7.0036  31484.3  177.07
 7.0456  31268.9  175.76
 7.0876  31594  178.266
 7.1296  31260.3  176.557
 7.1716  31319.8  176.253
 7.2136  30719  174.349
 7.2556  31000.2  175.301
 7.2976  31094.6  176.061
 7.3396  30795  175.433
 7.3816  30842.5  175.775
 7.4236  31294.8  176.355
 7.4656  31468  176.288
 7.5076  31778.8  177.327
 7.5496  31324.7  176.584
 7.5916  31495.1  177.117
 7.6336  31951.7  178.279
 7.6756  32097.1  178.54
 7.7176  32503.2  179.985
 7.7596  32154.5  180.224
 7.8016  33005  184.808
 7.8436  32396.9  179.815
 7.8856  32303.4  179.167
 7.9276  33132.5  181.834
 7.9696  33186.8  182.3
 8.0116  34204.8  183.994
 8.0536  34374.5  184.339
 8.0956  34515.2  185.891
 8.1376  34837.2  186.227
 8.1796  35110.4  187.492
 8.2216  35639.7  187.655
 8.2636  35595.9  187.786
 8.3056  35676.4  188.744
 8.3476  36146.3  189.332
 8.3896  35869.1  189.103
 8.4316  35993.5  189.172
 8.4736  36210.2  189.221
 8.5156  35891.8  188.658
 8.5576  35535.1  188.676
 8.5996  35474.4  187.407
 8.6416  35666.9  189.161
 8.6836  35132.8  187.557
 8.7256  35630.4  188.356
 8.7676  35696.4  191.39
 8.8096  35914.6  189.297
 8.8516  36261.8  189.831
 8.8936  35133.5  186.766
 8.9356  35716.1  188.633
 8.9776  35706.8  188.685
 9.0196  35874.1  188.81
 9.0616  35467.6  187.241
 9.1036  34805.1  186.624
 9.1456  34416.5  184.926
 9.1876  35106.1  186.705
 9.2296  34681.9  185.027
 9.2716  34404.8  184.332
 9.3136  34261.2  183.939
 9.3556  34512.7  184.591
 9.3976  33830.4  183.26
 9.4396  33706.9  182.836
 9.4816  33497.1  182.129
 9.5236  33482.5  181.982
 9.5656  32771.5  180.391
 9.6076  32154.3  179.199
 9.6496  32735.5  180.694
 9.6916  32214.7  179.202
 9.7336  32568  179.97
 9.7756  32369.5  180.642
 9.8176  32133.4  179.557
 9.8596  32045.7  177.779
 9.9016  31779.8  177.022
 9.9436  31120.7  174.931
 9.9856  31000.2  175.033
 10.0276  30738.1  175.346
 10.0696  30994.4  175.11
 10.1116  30197.3  173.109
 10.1536  30111.5  172.53
 10.1956  29604.9  171.186
 10.2376  29642.4  170.798
 10.2796  29191.2  169.609
 10.3216  29228.9  169.856
 10.3636  29055.5  169.527
 10.4056  28157.6  167.284
 10.4476  28604  168.213
 10.4896  28815.7  168.296
 10.5316  28505.7  167.752
 10.5736  27965.4  166.9
 10.6156  28099.6  167.05
 10.6576  27625.9  164.242
 10.6996  27581  164.805
 10.7416  27342.2  164.3
 10.7836  26843.2  163.429
 10.8256  26295.2  162.176
 10.8676  26464.2  162.255
 10.9096  26323.6  161.842
 10.9516  25805.1  159.215
 10.9936  26046.9  160.163
 11.0356  25729  159.782
 11.0776  25614.8  158.773
 11.1196  25200.8  158.232
 11.1616  25061.6  157.479
 11.2036  25016.8  157.181
 11.2456  24954.5  157.69
 11.2876  25240.6  158.317
 11.3296  24807.3  156.864
 11.3716  25150.2  157.668
 11.4136  25153.5  158.515
 11.4556  24972  157.596
 11.4976  25626.4  158.669
 11.5396  25760.4  159.258
 11.5816  26388.4  161.605
 11.6236  25829  160.338
 11.6656  25617.5  158.623
 11.7076  24961.4  157.409
 11.7496  24304.8  159.263
 11.7916  24349.7  154.732
 11.8336  23735.3  153.667
 11.8756  23883.4  153.675
 11.9176  23717.3  153.058
 11.9596  23869  153.479
 12.0016  23596.1  153.357
 12.0436  23634.2  152.941
 12.0856  23541.7  153.134
 12.1276  23398.6  152.619
 12.1696  23465.2  151.961
 12.2116  23354.4  151.6
 12.2536  23323  152.276
 12.2956  22967.3  150.502
 12.3376  23417.6  152.17
 12.3796  23047.9  151.438
 12.4216  23251.1  151.314
 12.4636  22906.7  151.109
 12.5056  22977.6  150.62
 12.5476  23232.7  150.969
 12.5896  23040.4  150.984
 12.6316  23147.4  151.474
 12.6736  22832.7  150.777
 12.7156  22885.3  150.94
 12.7576  23015.6  151.617
 12.7996  23064  150.444
 12.8416  23096.5  151.58
 12.8836  23226.4  151.837
 12.9256  23621.6  152.173
 12.9676  23303.4  151.542
 13.0096  23654.6  153.78
 13.0516  23615.1  152.695
 13.0936  23596.2  152.764
 13.1356  23959.2  153.183
 13.1776  23505  152.73
 13.2196  23725.1  153.087
 13.2616  23437.7  152.469
 13.3036  23986.1  154.375
 13.3456  23559.9  152.961
 13.3876  23961.8  153.762
 13.4296  23667.6  152.971
 13.4716  23700.3  152.71
 13.5136  23852  153.326
 13.5556  23568.4  153.04
 13.5976  23918.1  154.332
 13.6396  23687.6  152.95
 13.6816  23935.1  154.091
 13.7236  24249.1  154.798
 13.7656  25839.2  160.24
 13.8076  26636.2  161.341
 13.8496  25209.1  157.835
 13.8916  24264.2  155.749
 13.9336  23296  151.92
 13.9756  23365.3  151.547
 14.0176  23043.9  151.171
 14.0596  23114.2  151.331
 14.1016  23102.1  151.705
 14.1436  23078.2  150.773
 14.1856  22396.2  148.811
 14.2276  22505  149.648
 14.2696  22446  149.309
 14.3116  21987.4  147.682
 14.3536  21773.7  147.132
 14.3956  21599.4  146.271
 14.4376  21862.9  146.942
 14.4796  21877.1  146.994
 14.5216  21591.7  146.806
 14.5636  21280.7  145.321
 14.6056  21614.6  146.024
 14.6476  21432.9  144.664
 14.6896  21050.6  143.907
 14.7316  20684.9  143.665
 14.7736  20550.4  142.352
 14.8156  20614.2  142.596
 14.8576  20214.9  141.071
 14.8996  19981.8  141.427
 14.9416  19634.8  140.212
 14.9836  19711.3  140.462
 15.0256  18817.2  136.192
 15.0676  19128.1  137.613
 15.1096  18877.8  136.461
 15.1516  18709.1  136.396
 15.1936  18844.5  136.323
 15.2356  18413.1  135.025
 15.2776  18490.5  134.907
 15.3196  17959.6  133.924
 15.3616  17787.4  133.037
 15.4036  17902.7  133.337
 15.4456  18115.3  133.555
 15.4876  17590.8  131.526
 15.5296  17712.5  132.266
 15.5716  17508.4  131.107
 15.6136  17304.4  130.667
 15.6556  17172.1  129.424
 15.6976  17337  130.121
 15.7396  17050.3  129.62
 15.7816  17072.9  129.24
 15.8236  16930.8  129.366
 15.8656  16861.4  128.909
 15.9076  16672.7  128.011
 15.9496  17476.9  133.846
 15.9916  17064.9  132.662
 16.0336  17339.2  130.607
 16.0756  17091.5  129.974
 16.1176  16807  128.803
 16.1596  16303.1  128.178
 16.2016  16458.4  127.568
 16.2436  16458.9  127.946
 16.2856  16314.9  126.907
 16.3276  16111.9  126.547
 16.3696  16503.4  127.903
 16.4116  16355.5  127.77
 16.4536  16323.5  127.453
 16.4956  16409.8  127.53
 16.5376  16003.3  126.125
 16.5796  16009.3  125.524
 16.6216  16132.6  126.269
 16.6636  15908.7  125.577
 16.7056  16125.3  126.291
 16.7476  15894  125.048
 16.7896  15955.9  125.899
 16.8316  15834.4  125.396
 16.8736  16067.5  126.561
 16.9156  15974.5  126.523
 16.9576  15692.2  126.195
 16.9996  15629.4  126.388
 17.0416  15973.9  126.192
 17.0836  16018.9  126.133
 17.1256  15534.3  124.219
 17.1676  15731.6  124.977
 17.2096  15631  124.462
 17.2516  15719.2  124.902
 17.2936  15560.3  124.319
 17.3356  15282  123.187
 17.3776  15194.5  123.023
 17.4196  15174.8  122.65
 17.4616  15170.7  122.536
 17.5036  14804.6  121.409
 17.5456  14668  121.471
 17.5876  14734.8  120.809
 17.6296  14935.2  121.433
 17.6716  14581.8  120.577
 17.7136  14765.5  121.459
 17.7556  14507.3  120.69
 17.7976  14131.6  118.731
 17.8396  14364  119.341
 17.8816  14366.2  119.911
 17.9236  14284  119.355
 17.9656  14109.3  119.291
 18.0076  14213.5  119.152
 18.0496  14247.8  118.462
 18.0916  14217.9  118.869
 18.1336  14089.5  118.426
 18.1756  14293.4  118.841
 18.2176  14135.8  118.388
 18.2596  13985.6  117.497
 18.3016  14241.3  118.828
 18.3436  14339  119.467
 18.3856  14092.8  118.335
 18.4276  14130.9  118.188
 18.4696  13785.1  116.811
 18.5116  14019.8  118.07
 18.5536  13965  118.199
 18.5956  13737.1  116.804
 18.6376  13706.1  117.068
 18.6796  13866.7  117.082
 18.7216  13774.7  117.237
 18.7636  13854.2  117.501
 18.8056  13608.2  116.381
 18.8476  13581.4  116.591
 18.8896  13582.9  116.244
 18.9316  13580.6  116.057
 18.9736  13597.9  115.99
 19.0156  13396.3  115.521
 19.0576  13676  115.598
 19.0996  13681.9  116.326
 19.1416  13518.6  116.023
 19.1836  13415.9  115.193
 19.2256  13257.7  114.725
 19.2676  13553.5  116.089
 19.3096  13445.7  115.861
 19.3516  13421.2  115.534
 19.3936  13259.9  114.978
 19.4356  13532.3  115.974
 19.4776  13394.8  115.476
 19.5196  13367.6  115.21
 19.5616  13424.6  115.713
 19.6036  13342  114.729
 19.6456  13403.1  115.241
 19.6876  13486.8  115.24
 19.7296  13525.6  115.86
 19.7716  13402  115.361
 19.8136  13818.3  117.471
 19.8556  13714.4  116.521
 19.8976  13475.1  115.562
 19.9396  13717.4  116.184
 19.9816  13681.2  116.283
 20.0236  14095.3  118.222
 20.0656  14152  118.46
 20.1076  14268.9  119.426
 20.1496  14118.6  118.785
 20.1916  14011.4  117.806
 20.2336  13795.7  116.851
 20.2756  13493.8  116.001
 20.3176  13325.9  115.039
 20.3596  13120.5  114.138
 20.4016  13158.6  114.105
 20.4436  13063.9  114.25
 20.4856  13208.5  114.664
 20.5276  13019.9  114.305
 20.5696  12925.6  113.445
 20.6116  12902.6  113.517
 20.6536  12714.5  112.271
 20.6956  12806.4  112.746
 20.7376  12637  112.206
 20.7796  12672.2  112.062
 20.8216  12954.2  113.014
 20.8636  12800.9  112.716
 20.9056  12756.9  112.453
 20.9476  12820.6  112.585
 20.9896  12880.6  112.717
 21.0316  12672.9  111.705
 21.0736  12665.1  112.179
 21.1156  12538.5  111.775
 21.1576  12702.4  112.537
 21.1996  12610.3  112.124
 21.2416  12744.9  112.54
 21.2836  12581.4  111.794
 21.3256  12665.9  112.241
 21.3676  12575.4  111.378
 21.4096  12407.3  111.003
 21.4516  12354.2  110.596
 21.4936  12147.3  109.914
 21.5356  12455.7  111.256
 21.5776  12562.6  111.57
 21.6196  12264  110.27
 21.6616  12392.4  110.922
 21.7036  12369.6  110.591
 21.7456  12426.1  110.935
 21.7876  12279.9  110.032
 21.8296  12310.8  110.032
 21.8716  12376.6  110.552
 21.9136  12468.2  111.156
 21.9556  12309  110.117
 21.9976  12254.4  109.91
 22.0396  12251  110.14
 22.0816  12165.2  110.267
 22.1236  12382.2  110.713
 22.1656  12060.2  109.459
 22.2076  11981.9  108.527
 22.2496  11962  108.465
 22.2916  11939.7  108.253
 22.3336  11895.4  108.732
 22.3756  11968.6  108.813
 22.4176  11879.4  108.265
 22.4596  11788.4  108.416
 22.5016  11832.4  108.129
 22.5436  12036.6  108.94
 22.5856  12186.6  109.866
 22.6276  12369.2  110.82
 22.6696  12006.6  109.526
 22.7116  12066.1  109.328
 22.7536  11969.5  108.86
 22.7956  11966.3  108.202
 22.8376  11808.9  107.981
 22.8796  11907.8  108.242
 22.9216  11865.7  108.575
 22.9636  11908.3  107.953
 23.0056  11869.1  107.9
 23.0476  12117.7  109.591
 23.0896  12129.9  109.034
 23.1316  12101.7  109.336
 23.1736  12177.5  112.576
 23.2156  12667.8  112.111
 23.2576  12663.8  112.299
 23.2996  12218  110.081
 23.3416  12542  112.058
 23.3836  12285.6  110.125
 23.4256  12495.2  111.201
 23.4676  12340  110.198
 23.5096  12066.9  109.612
 23.5516  12227.6  109.662
 23.5936  12224.3  110.546
 23.6356  12430  111.135
 23.6776  12225.4  110.751
 23.7196  12289.4  110.511
 23.7616  12365  110.546
 23.8036  12568.2  111.512
 23.8456  12180.7  109.338
 23.8876  12118.5  109.416
 23.9296  12075.3  109.696
 23.9716  12049.3  108.792
 24.0136  12177.1  110.266
 24.0556  11844.9  108.47
 24.0976  11888  108.486
 24.1396  11742.3  110.43
 24.1816  11861.1  109.721
 24.2236  11917.9  109.296
 24.2656  11813.6  108.293
 24.3076  11774.1  108.384
 24.3496  11645.2  107.672
 24.3916  11714.3  108.033
 24.4336  11700.2  108.172
 24.4756  11669.4  107.918
 24.5176  11469.2  106.618
 24.5596  11615.6  107.62
 24.6016  11525.8  107.288
 24.6436  11627.6  107.277
 24.6856  11505.2  106.463
 24.7276  11319.9  105.925
 24.7696  11386.1  106.338
 24.8116  11129.7  105.309
 24.8536  11164.1  105.475
 24.8956  11097.1  104.893
 24.9376  11228.9  105.682
 24.9796  11092  105.159
 25.0216  11077.3  105.191
 25.0636  11059.6  104.776
 25.1056  10989.2  104.866
 25.1476  11012  106.847
 25.1896  10850.7  104.599
 25.2316  10894.5  103.986
 25.2736  10858.3  103.583
 25.3156  10904.6  103.868
 25.3576  10787.1  103.736
 25.3996  10801  103.791
 25.4416  10807.7  103.796
 25.4836  10677.6  103.682
 25.5256  10607.2  102.715
 25.5676  10734.8  103.069
 25.6096  10461  102.302
 25.6516  10730.2  103.129
 25.6936  10740.9  103.487
 25.7356  10587.5  102.877
 25.7776  10678.8  102.994
 25.8196  10548.9  102.531
 25.8616  10545.5  102.446
 25.9036  10680.2  102.561
 25.9456  10541.1  102.483
 25.9876  10705.4  103.189
 26.0296  10695  102.894
 26.0716  10665.7  103.089
 26.1136  10589.1  102.646
 26.1556  10642.9  102.219
 26.1976  10649.3  103.257
 26.2396  10476  101.828
 26.2816  10598.5  102.776
 26.3236  10382.1  101.785
 26.3656  10680.7  103.05
 26.4076  10540.7  102.575
 26.4496  10756.2  103.214
 26.4916  10882.6  103.719
 26.5336  11174.3  105.444
 26.5756  11118  105.051
 26.6176  10608.7  102.636
 26.6596  10533.6  102.581
 26.7016  10368.9  101.577
 26.7436  10504.5  102.326
 26.7856  10304.6  101.336
 26.8276  10348.2  101.521
 26.8696  10339.7  101.352
 26.9116  10250.8  100.849
 26.9536  10299.3  101.134
 26.9956  10147.4  100.424
 27.0376  10295.2  101.372
 27.0796  10138  100.363
 27.1216  10275.7  101.059
 27.1636  10066  100.191
 27.2056  10107.1  100.285
 27.2476  10112  100.305
 27.2896  10004.2  99.816
 27.3316  9878.66  98.9667
 27.3736  9937.82  99.537
 27.4156  10079.5  100.082
 27.4576  10046  100.143
 27.4996  10019.2  99.6177
 27.5416  9969.64  99.66
 27.5836  9943.36  99.3798
 27.6256  10003.8  99.853
 27.6676  9859.51  99.1155
 27.7096  10015.2  99.7798
 27.7516  9840.03  99.0561
 27.7936  10155.5  100.778
 27.8356  10091.9  100.084
 27.8776  10032  99.841
 27.9196  9804.13  98.5671
 27.9616  9798.19  98.7282
 28.0036  9827.52  98.8379
 28.0456  9775.16  98.7104
 28.0876  9752.83  98.6829
 28.1296  9713.91  98.3057
 28.1716  9913.98  99.3503
 28.2136  9768.71  98.5852
 28.2556  9814.73  98.9284
 28.2976  9711.92  98.4043
 28.3396  9574.95  97.51
 28.3816  9683.28  98.0342
 28.4236  9647.94  97.9997
 28.4656  9610.85  97.8558
 28.5076  9710.42  98.0012
 28.5496  9668.61  98.0396
 28.5916  9608.36  97.5576
 28.6336  9593.09  97.8157
 28.6756  9656.3  97.3449
 28.7176  9484.31  97.0116
 28.7596  9446.52  96.7179
 28.8016  9497.64  97.0996
 28.8436  9453.72  97.0288
 28.8856  9561.97  97.4319
 28.9276  9564.97  97.6931
 28.9696  9455.75  96.7968
 29.0116  9433.58  96.8431
 29.0536  9434.97  97.0775
 29.0956  9385.85  96.5299
 29.1376  9348.01  96.3077
 29.1796  9398.31  96.6185
 29.2216  9340.27  96.1618
 29.2636  9487.95  96.9111
 29.3056  9330.35  95.9687
 29.3476  9344.22  96.5498
 29.3896  9359.04  96.7458
 29.4316  9196  95.2465
 29.4736  9160.42  95.1163
 29.5156  9283.22  95.6859
 29.5576  9097.66  95.4453
 29.5996  9102.66  94.7487
 29.6416  9133.71  95.031
 29.6836  9208.5  95.337
 29.7256  9063.68  95.1384
 29.7676  9169.27  95.3556
 29.8096  9023.89  94.5451
 29.8516  8950.2  94.477
 29.8936  9115.23  95.4398
 29.9356  9107.18  95.158
 29.9776  9127.92  95.4102
 30.0196  9115.16  94.7551
 30.0616  9084.75  94.958
 30.1036  9193.96  95.3601
 30.1456  9029.31  94.7435
 30.1876  8913.96  94.1023
 30.2296  8989.21  94.4396
 30.2716  9088.85  94.6108
 30.3136  8960.35  94.5147
 30.3556  9145.4  95.7419
 30.3976  9135.28  97.1563
 30.4396  9478.07  96.3271
 30.4816  9277.83  94.9229
 30.5236  9365.34  95.3632
 30.5656  9182.95  95.0661
 30.6076  9166.21  94.7564
 30.6496  9074.79  94.3437
 30.6916  9065.38  94.3811
 30.7336  9099.15  94.6916
 30.7756  8991.1  94.4304
 30.8176  9198.22  95.2094
 30.8596  9082.56  94.3749
 30.9016  9258.93  95.1797
 30.9436  9181.98  95.0037
 30.9856  9351.82  95.9918
 31.0276  9100.61  94.3284
 31.0696  9094.29  94.7133
 31.1116  9004.81  94.3471
 31.1536  9015  94.2743
 31.1956  9078.24  94.7037
 31.2376  8890.04  93.7312
 31.2796  9007.82  93.9011
 31.3216  9022.32  93.8799
 31.3636  9090.9  94.956
 31.4056  9021.29  95.8733
 31.4476  8986.5  93.6466
 31.4896  9068.56  94.574
 31.5316  8906.11  93.1813
 31.5736  9136.97  94.1689
 31.6156  9012.05  93.5293
 31.6576  9167.64  94.4073
 31.6996  9191.9  94.1961
 31.7416  9056.97  94.4442
 31.7836  9198.04  94.3227
 31.8256  9022.15  93.7545
 31.8676  9125.18  94.2036
 31.9096  8925  93.3866
 31.9516  8921  93.6686
 31.9936  8844.76  93.101
 32.0356  9064.41  94.2861
 32.0776  8927.9  93.4908
 32.1196  9022.27  93.9905
 32.1616  8995.28  93.3984
 32.2036  9020.66  94.027
 32.2456  8813.63  93.3083
 32.2876  8742.46  92.2853
 32.3296  8908.8  93.2922
 32.3716  8658.09  92.0821
 32.4136  8698.48  92.4867
 32.4556  8968.2  93.3621
 32.4976  8772.25  92.227
 32.5396  8777.37  92.2646
 32.5816  8796.16  92.3966
 32.6236  8741.75  92.2723
 32.6656  8799.34  93.1203
 32.7076  8662.86  92.0569
 32.7496  8581.24  91.3028
 32.7916  8687.64  91.8258
 32.8336  8683.7  91.8992
 32.8756  8823.3  92.4367
 32.9176  8600.65  91.6551
 32.9596  8699.7  92.2506
 33.0016  8747.75  92.2853
 33.0436  8593.25  91.635
 33.0856  8736.31  92.4906
 33.1276  8531.77  91.143
 33.1696  8620.91  91.4416
 33.2116  8628.4  91.7113
 33.2536  8749.7  92.3483
 33.2956  8721.43  92.2782
 33.3376  8454.28  90.665
 33.3796  8670.65  91.9744
 33.4216  8547.04  90.9065
 33.4636  8606.63  91.3756
 33.5056  8529.43  91.054
 33.5476  8674.2  91.9587
 33.5896  8709.35  91.9212
 33.6316  8638.45  91.8709
 33.6736  8369.45  90.6749
 33.7156  8520.25  91.5179
 33.7576  8523.97  91.1858
 33.7996  8564.51  91.1684
 33.8416  8380.12  90.3615
 33.8836  8407.11  90.2896
 33.9256  8547.76  91.0941
 33.9676  8554.04  91.0242
 34.0096  8529.33  91.2057
 34.0516  8466.57  90.5104
 34.0936  8347.35  90.14
 34.1356  8503.7  90.7183
 34.1776  8309.58  89.6806
 34.2196  8422.18  90.4614
 34.2616  8307.46  90.0441
 34.3036  8462.14  91.0509
 34.3456  8430.03  90.6375
 34.3876  8440.08  90.7539
 34.4296  8373.76  90.0093
 34.4716  8483.27  90.7424
 34.5136  8382.98  90.3926
 34.5556  8270.13  90.0295
 34.5976  8536.89  91.317
 34.6396  8381.88  90.1718
 34.6816  8471.77  90.7441
 34.7236  8300.56  89.6114
 34.7656  8465.42  90.7121
 34.8076  8177.22  89.4798
 34.8496  8207.88  89.4959
 34.8916  8380.44  90.2866
 34.9336  8316.61  89.9368
 34.9756  8436.96  90.5222
 35.0176  8437.28  91.0301
 35.0596  8373.74  90.5122
 35.1016  8278.84  89.7421
 35.1436  8508.75  90.6864
 35.1856  8373.41  90.0854
 35.2276  8319.42  89.9657
 35.2696  8326.92  90.1831
 35.3116  8212.28  89.6675
 35.3536  8428.29  90.5723
 35.3956  8260.08  89.3562
 35.4376  8256.42  89.894
 35.4796  8258.11  89.9391
 35.5216  8240.77  89.7441
 35.5636  7943.13  88.8992
 35.6056  8172.77  89.2107
 35.6476  8237.96  89.4661
 35.6896  8248.09  89.6877
 35.7316  8130.78  88.9454
 35.7736  8179.4  89.3969
 35.8156  8240.15  89.7272
 35.8576  8212.78  89.8065
 35.8996  8243.45  89.9607
 35.9416  8116.99  88.787
 35.9836  8133.58  89.3263
 36.0256  8344.3  90.3649
 36.0676  8346.39  89.9123
 36.1096  8199.93  89.4697
 36.1516  8312.47  89.9833
 36.1936  8188.07  89.1627
 36.2356  8146.31  89.5836
 36.2776  8192.24  89.2904
 36.3196  8079.63  88.3745
 36.3616  8110.79  88.6726
 36.4036  8063.43  88.4759
 36.4456  8147.38  89.1438
 36.4876  7943.3  87.9652
 36.5296  8022.59  88.4305
 36.5716  8055.58  89.3915
 36.6136  7945.11  87.5832
 36.6556  7883.56  87.4328
 36.6976  7807.49  87.4976
 36.7396  7896.49  87.8197
 36.7816  7770.76  87.3937
 36.8236  7776.06  87.353
 36.8656  7837.75  87.7461
 36.9076  7648.02  86.6952
 36.9496  7660.81  86.7858
 36.9916  7780.34  86.9519
 37.0336  7885.28  87.8422
 37.0756  7739.32  86.8216
 37.1176  7751.38  87.2423
 37.1596  7802.06  87.4465
 37.2016  7782.34  87.508
 37.2436  7879.54  87.4286
 37.2856  7807.21  87.2744
 37.3276  7801.52  86.614
 37.3696  7807.56  87.5175
 37.4116  7779.63  87.2609
 37.4536  7645.33  86.3724
 37.4956  7684.48  86.6338
 37.5376  7873.39  89.2628
 37.5796  7894.43  89.3072
 37.6216  7986.39  88.0989
 37.6636  7923.03  87.6458
 37.7056  7864.94  87.5093
 37.7476  8036.04  87.9978
 37.7896  7740.99  86.8661
 37.8316  7763  87.144
 37.8736  7803.33  86.9037
 37.9156  7843.04  87.1205
 37.9576  7817.04  87.0276
 37.9996  7780.69  86.4034
 38.0416  7778.52  87.1772
 38.0836  7954.25  88.0663
 38.1256  7794.61  87.1531
 38.1676  7635.05  86.3706
 38.2096  7783.25  86.8266
 38.2516  7866.74  87.4168
 38.2936  7940.76  87.7173
 38.3356  7873.56  87.274
 38.3776  7784.41  87.0127
 38.4196  7800.5  86.975
 38.4616  7821.31  87.3329
 38.5036  7925.93  87.7557
 38.5456  7725.69  87.4639
 38.5876  7739.72  87.5765
 38.6296  7724.86  86.4872
 38.6716  7810.08  86.763
 38.7136  7723.17  86.2216
 38.7556  7739.43  86.8114
 38.7976  7837.1  87.2803
 38.8396  7746.47  87.234
 38.8816  7675.68  86.6331
 38.9236  7699.16  86.5607
 38.9656  7714.96  86.5585
 39.0076  7769.39  86.2791
 39.0496  7874.56  87.4074
 39.0916  7932.61  87.383
 39.1336  7730.34  86.6527
 39.1756  7755.72  86.8595
 39.2176  7669.89  86.9172
 39.2596  7737.39  87.2114
 39.3016  7610.45  86.0947
 39.3436  7607.07  86.4775
 39.3856  7773.23  86.8702
 39.4276  7821.8  87.639
 39.4696  7788.65  87.0793
 39.5116  7759.82  87.4199
 39.5536  7727.62  87.6473
 39.5956  7790.5  87.1281
 39.6376  7757.94  86.7848
 39.6796  7689.2  86.3012
 39.7216  7644.94  86.1525
 39.7636  7791.61  87.5282
 39.8056  7792.93  87.3278
 39.8476  7661.28  86.8395
 39.8896  7684.89  86.6092
 39.9316  7604.46  86.3922
 39.9736  7783.1  86.9888
 40.0156  7684.86  86.2693
 40.0576  7634.1  86.3307
 40.0996  7766.91  86.2744
 40.1416  7740.15  86.9076
 40.1836  7735.2  86.7698
 40.2256  7753.24  86.8952
 40.2676  7591.94  86.1652
 40.3096  7674.45  86.4999
 40.3516  7685.38  86.7421
 40.3936  7758.38  86.6329
 40.4356  7670.98  86.3532
 40.4776  7779.17  87.1865
 40.5196  7633.57  86.6538
 40.5616  7842.9  87.4811
 40.6036  7678.23  86.8124
 40.6456  7720.34  86.6571
 40.6876  7838.03  87.3181
 40.7296  7701.9  86.684
 40.7716  7840.29  87.585
 40.8136  7528.28  85.7669
 40.8556  7756.18  87.1906
 40.8976  7735.5  86.9944
 40.9396  7699.31  87.1237
 40.9816  7740.66  86.6596
 41.0236  7657.15  85.9824
 41.0656  7810.68  87.3776
 41.1076  7641.15  86.1989
 41.1496  7712.38  86.4986
 41.1916  7726.49  86.894
 41.2336  7758.14  87.077
 41.2756  7770.63  86.754
 41.3176  7769.68  87.34
 41.3596  7728.88  86.8622
 41.4016  7654.72  86.6975
 41.4436  7680.84  86.6372
 41.4856  7653.28  86.6419
 41.5276  7719.66  87.033
 41.5696  7726.46  86.6849
 41.6116  7680.01  86.8299
 41.6536  7732.56  86.9802
 41.6956  7798.35  87.338
 41.7376  7675.75  86.7458
 41.7796  7617.99  86.348
 41.8216  7737.43  87.2136
 41.8636  7695.79  86.9205
 41.9056  7641.97  86.4127
 41.9476  7708.07  87.0107
 41.9896  7745.33  86.8958
 42.0316  7768.39  87.1137
 42.0736  7794.13  87.3832
 42.1156  7640.25  86.3252
 42.1576  7679.99  86.6585
 42.1996  7741.05  87.1207
 42.2416  7766.9  86.8656
 42.2836  7595.71  86.0243
 42.3256  7655.4  86.458
 42.3676  7830.15  87.2424
 42.4096  7706.67  86.5306
 42.4516  7721.29  86.6758
 42.4936  7522.04  85.6246
 42.5356  7591.49  86.1609
 42.5776  7694.45  86.6906
 42.6196  7661.87  86.4779
 42.6616  7574.39  86.2336
 42.7036  7593.99  85.7321
 42.7456  7777.26  87.1077
 42.7876  7674.95  86.6239
 42.8296  7688.4  86.6094
 42.8716  7542.05  85.882
 42.9136  7472.12  85.2402
 42.9556  7715.12  86.7795
 42.9976  7695.28  86.6336
 43.0396  7609.82  85.8929
 43.0816  7614.19  86.2945
 43.1236  7592.19  86.2139
 43.1656  7611.66  86.1577
 43.2076  7572.23  86.0283
 43.2496  7577.09  85.8931
 43.2916  7509.1  85.8566
 43.3336  7512.96  85.7123
 43.3756  7621.97  86.1032
 43.4176  7453.67  85.2212
 43.4596  7496.84  85.3212
 43.5016  7473.89  85.5885
 43.5436  7562.72  86.0027
 43.5856  7499.4  85.672
 43.6276  7510.24  85.6257
 43.6696  7433.91  85.3316
 43.7116  7641.41  86.1278
 43.7536  7614.03  86.4635
 43.7956  7455.97  86.751
 43.8376  7392.6  84.9396
 43.8796  7371.72  84.8961
 43.9216  7358.09  84.7149
 43.9636  7356.6  84.8325
 44.0056  7411.65  85.3724
 44.0476  7259.96  84.1372
 44.0896  7411.05  85.3513
 44.1316  7312.4  84.4521
 44.1736  7315.73  84.4592
 44.2156  7399.44  84.7853
 44.2576  7291.25  84.4874
 44.2996  7451.91  85.3851
 44.3416  7381.81  84.7438
 44.3836  7261.7  84.3814
 44.4256  7136.48  83.2954
 44.4676  7309.19  84.4572
 44.5096  7389.11  85.0592
 44.5516  7222.97  84.0632
 44.5936  7205.13  83.9119
 44.6356  7259.8  83.9736
 44.6776  7333.41  84.7163
 44.7196  7148.23  83.8961
 44.7616  7353.98  86.4468
 44.8036  7420.67  85.4648
 44.8456  7490.27  85.8691
 44.8876  7467.98  85.5784
 44.9296  7536.01  85.4223
 44.9716  7489.51  85.5882
 45.0136  7472.24  85.4158
 45.0556  7360.22  84.871
 45.0976  7415.63  85.217
 45.1396  7388.17  84.8438
 45.1816  7556.76  85.5701
 45.2236  7484.45  85.2343
 45.2656  7382.27  85.1355
 45.3076  7309.88  84.5158
 45.3496  7289.11  84.6881
 45.3916  7336.89  85.2395
 45.4336  7336.76  85.0747
 45.4756  7393.08  85.2594
 45.5176  7438.65  85.1457
 45.5596  7438.34  85.2571
 45.6016  7212.93  84.3767
 45.6436  7342.87  84.3158
 45.6856  7435.86  85.4745
 45.7276  7191.53  85.912
 45.7696  7309.21  85.7664
 45.8116  7224.64  84.7079
 45.8536  7316.44  85.1384
 45.8956  7358.74  84.7444
 45.9376  7336.84  84.087
 45.9796  7393.23  85.1043
 46.0216  7406.51  85.4966
 46.0636  7516.83  85.281
 46.1056  7450.98  84.8866
 46.1476  7345.42  84.8858
 46.1896  7328.43  84.9251
 46.2316  7474.57  85.6329
 46.2736  7353.89  85.1527
 46.3156  7285.4  84.5081
 46.3576  7342.61  85.0416
 46.3996  7220.97  84.495
 46.4416  7429.18  85.2622
 46.4836  7206.37  84.3424
 46.5256  7333.2  85.0221
 46.5676  7384.13  85.4336
 46.6096  7382.93  85.3399
 46.6516  7358.69  84.2656
 46.6936  7303.18  84.4366
 46.7356  7476.1  85.5214
 46.7776  7199  84.7621
 46.8196  7274.36  84.9404
 46.8616  7139.48  83.9616
 46.9036  7131.87  83.5773
 46.9456  7271.02  84.0265
 46.9876  7237.78  83.9176
 47.0296  7218.45  84.4866
 47.0716  7156.51  83.9538
 47.1136  7239.7  84.1188
 47.1556  7276.29  84.1947
 47.1976  7393.78  85.0252
 47.2396  7179.13  84.114
 47.2816  7196.13  83.9152
 47.3236  7303.05  84.9017
 47.3656  7244.22  84.49
 47.4076  7305.19  84.5715
 47.4496  7225.53  84.2831
 47.4916  7176.2  84.1759
 47.5336  7220.4  84.2505
 47.5756  7281.65  84.6903
 47.6176  7134.07  83.7728
 47.6596  7137.57  83.5002
 47.7016  7324.26  84.4009
 47.7436  7287.47  84.5385
 47.7856  7266.6  84.4308
 47.8276  7123.27  83.6433
 47.8696  7320.52  84.8716
 47.9116  7332.33  84.6641
 47.9536  7140.4  83.4854
 47.9956  7164.47  84.339
 48.0376  7068.36  83.5505
 48.0796  7229.17  84.6125
 48.1216  7164.93  84.0661
 48.1636  7258.17  84.1765
 48.2056  7218.74  84.2179
 48.2476  7291.58  84.9511
 48.2896  7334.41  85.1057
 48.3316  7393.9  85.3854
 48.3736  7204.41  84.3174
 48.4156  7153.46  83.8692
 48.4576  7171.88  84.2695
 48.4996  7307.01  84.5124
 48.5416  7335.9  85.0045
 48.5836  7213.52  83.9637
 48.6256  7252.69  84.3984
 48.6676  7213.08  84.6876
 48.7096  7179.4  83.7499
 48.7516  7213.14  84.1096
 48.7936  7115.33  83.6004
 48.8356  7155.08  83.8807
 48.8776  7112.07  84.1231
 48.9196  7340.93  84.8997
 48.9616  7170.33  84.2884
 49.0036  7198.12  84.8035
 49.0456  7133.86  84.4034
 49.0876  7109.09  83.9057
 49.1296  7056.16  83.6433
 49.1716  7128.77  83.9424
 49.2136  7161.66  84.0616
 49.2556  7290.97  84.8548
 49.2976  7170.52  84.213
 49.3396  7046.37  83.548
 49.3816  7305.23  84.4727
 49.4236  7116.06  83.8092
 49.4656  7021.59  83.2742
 49.5076  7155.47  83.8094
 49.5496  7143.6  83.6799
 49.5916  7135.54  83.6624
 49.6336  7074.61  83.5133
 49.6756  7131.4  84.0857
 49.7176  7230.91  84.6079
 49.7596  7199.03  84.363
 49.8016  7097.85  83.5131
 49.8436  7095.61  83.7996
 49.8856  7013.19  83.3152
 49.9276  7105.18  83.965
 49.9696  7126.75  84.0722
 50.0116  7105.26  84.0755
 50.0536  7038.39  83.6309
 50.0956  7118.91  84.1713
 50.1376  7088.91  83.6749
 50.1796  6948.93  83.1331
 50.2216  7099.89  84.0235
 50.2636  7101.93  83.6537
 50.3056  7088.29  83.7519
 50.3476  7120.44  83.9603
 50.3896  6971.15  83.0498
 50.4316  7095.53  83.6153
 50.4736  7012.3  83.3422
 50.5156  7070.62  83.6748
 50.5576  7084.52  83.5214
 50.5996  6973.93  83.1517
 50.6416  6970.88  83.0626
 50.6836  7179.39  84.3481
 50.7256  7147.9  84.0934
 50.7676  7218.98  84.7894
 50.8096  7055.27  83.3946
 50.8516  7066.44  83.8895
 50.8936  7041.78  83.5204
 50.9356  7135.16  84.1733
 50.9776  6974.13  83.3819
 51.0196  6861.34  82.8358
 51.0616  6865.48  82.1869
 51.1036  6966.57  83.145
 51.1456  6950.13  82.9602
 51.1876  6935.02  82.206
 51.2296  6856.17  82.3643
 51.2716  6799.67  81.7362
 51.3136  6832.9  82.3957
 51.3556  6830.99  82.0021
 51.3976  6775.58  81.8244
 51.4396  6681.93  81.5619
 51.4816  6913.91  82.8208
 51.5236  6938.48  83.0555
 51.5656  6895.62  82.3929
 51.6076  6850.27  82.2098
 51.6496  6905.16  82.7209
 51.6916  6699.02  81.8413
 51.7336  6763.05  82.317
 51.7756  6736.52  81.8559
 51.8176  6741.62  81.9807
 51.8596  6827.65  82.5307
 51.9016  6740.75  81.6083
 51.9436  6941.68  84.3207
 51.9856  6895.27  84.4569
 52.0276  6957.34  83.3082
 52.0696  6919.66  83.1482
 52.1116  6818.33  82.6588
 52.1536  6879.03  82.8558
 52.1956  6982.87  82.9834
 52.2376  7098.15  83.8388
 52.2796  6968.33  82.8931
 52.3216  6879.95  83.0545
 52.3636  6830.4  82.3102
 52.4056  6827.14  82.1697
 52.4476  6829.67  82.5521
 52.4896  6796.42  82.3824
 52.5316  6937.26  83.3012
 52.5736  6831.01  82.3652
 52.6156  6948.52  83.482
 52.6576  6829.98  82.19
 52.6996  6648.14  82.0787
 52.7416  6701.99  82.2629
 52.7836  6836.79  82.9754
 52.8256  6920.89  82.6866
 52.8676  6688.1  81.8484
 52.9096  6856.64  82.9554
 52.9516  6831.81  83.2082
 52.9936  6737.86  83.0093
 53.0356  6774.1  82.2232
 53.0776  6935.14  83.5
 53.1196  6754.7  82.4961
 53.1616  6634.41  81.8154
 53.2036  6823.3  82.936
 53.2456  6734  82.4975
 53.2876  6825.46  82.7441
 53.3296  6797.52  82.8953
 53.3716  6947.08  83.5497
 53.4136  6773.48  82.6598
 53.4556  6712.68  82.3171
 53.4976  6663.41  81.8479
 53.5396  6732.29  82.6677
 53.5816  6727.49  82.2792
 53.6236  6779.6  82.9501
 53.6656  6810.6  82.7353
 53.7076  6907.19  83.2754
 53.7496  6822.47  82.8963
 53.7916  6758.44  82.6471
 53.8336  6800.01  82.7941
 53.8756  6601.26  82.1309
 53.9176  6743.45  82.3406
 53.9596  6558.32  81.9608
 54.0016  6504.27  80.9533
 54.0436  6409.64  80.5838
 54.0856  6554.21  80.8979
 54.1276  6513.39  80.8438
 54.1696  6445.64  80.5969
 54.2116  6601.29  81.3041
 54.2536  6489.13  80.4322
 54.2956  6537.39  80.7754
 54.3376  6401.63  80.4198
 54.3796  6528.55  81.1131
 54.4216  6504.64  81.0068
 54.4636  6415.06  80.426
 54.5056  6529.4  80.9322
 54.5476  6356.73  80.2085
 54.5896  6414.9  80.4013
 54.6316  6506.1  80.7922
 54.6736  6497.87  80.7978
 54.7156  6456.44  80.6198
 54.7576  6370.52  80.0509
 54.7996  6578.09  81.5082
 54.8416  6576.99  81.5558
 54.8836  6431.12  80.7236
 54.9256  6397.05  80.2718
 54.9676  6283.16  79.4311
 55.0096  6424.73  80.351
 55.0516  6322.18  79.8946
 55.0936  6372.74  79.9331
 55.1356  6280.42  79.3924
 55.1776  6476.22  80.8636
 55.2196  6390.51  80.1083
 55.2616  6490.97  80.9635
 55.3036  6310.99  79.9945
 55.3456  6274.6  79.9125
 55.3876  6396.3  80.4075
 55.4296  6254.7  79.5159
 55.4716  6315.6  79.9289
 55.5136  6382.35  80.1209
 55.5556  6518.87  81.0036
 55.5976  6341.82  79.9904
 55.6396  6321.98  79.7263
 55.6816  6206.47  78.935
 55.7236  6366.9  80.1231
 55.7656  6315.34  79.4202
 55.8076  6215.96  78.7968
 55.8496  6414.95  80.4745
 55.8916  6268.73  79.6074
 55.9336  6407.92  80.3426
 55.9756  6245.28  79.2107
 56.0176  6252.01  79.384
 56.0596  6249.8  79.378
 56.1016  6190.42  79.0483
 56.1436  6212.84  79.3981
 56.1856  6181.64  78.9637
 56.2276  6360.19  80.1434
 56.2696  6189.12  79.0432
 56.3116  6299.02  80.0882
 56.3536  6210.68  79.2281
 56.3956  6132  78.7053
 56.4376  6200.47  79.1786
 56.4796  6069.98  78.1543
 56.5216  6167.87  79.1655
 56.5636  6144.33  78.5813
 56.6056  6362.55  80.2132
 56.6476  6227.79  78.9376
 56.6896  6309.04  79.9369
 56.7316  6102.54  78.5271
 56.7736  6260.51  79.5471
 56.8156  6187.58  79.0945
 56.8576  6004.78  77.851
 56.8996  6143.53  78.6581
 56.9416  6017.4  78.0153
 56.9836  6223.69  79.012
 57.0256  6040.79  78.1462
 57.0676  6284.44  79.822
 57.1096  6214.8  79.1859
 57.1516  6039.04  78.0611
 57.1936  6119.35  78.3654
 57.2356  5966  77.7111
 57.2776  6091.08  78.4882
 57.3196  6202.11  79.5235
 57.3616  6101.7  78.3937
 57.4036  6113.37  78.5363
 57.4456  6223.98  79.2151
 57.4876  6129.71  78.4942
 57.5296  5997.29  77.8431
 57.5716  6101.27  78.6109
 57.6136  5995.45  77.7749
 57.6556  6037.98  78.1677
 57.6976  6127.49  78.5976
 57.7396  6080.16  78.6286
 57.7816  5913.18  77.9136
 57.8236  6018.89  78.3844
 57.8656  5979.5  77.8111
 57.9076  5970.96  77.7735
 57.9496  6007.43  78.3697
 57.9916  6044.18  78.07
 58.0336  6047.73  78.4198
 58.0756  6040.41  77.9695
 58.1176  6013.49  77.8289
 58.1596  5990.53  78.2712
 58.2016  5777.16  76.1173
 58.2436  5839.84  76.9179
 58.2856  5751.68  76.2538
 58.3276  5863.33  77.3596
 58.3696  5807.2  76.7486
 58.4116  5750.08  76.2355
 58.4536  5838.09  76.7066
 58.4956  5762.57  76.3831
 58.5376  5814.91  76.3084
 58.5796  5716.79  76.068
 58.6216  5695.91  75.7562
 58.6636  5842.09  76.9261
 58.7056  5730.95  76.0567
 58.7476  5775.74  76.7878
 58.7896  5658.77  75.6629
 58.8316  5797.5  76.584
 58.8736  5617.51  75.3932
 58.9156  5725.38  76.1539
 58.9576  5780.19  76.7239
 58.9996  5815.38  76.334
 59.0416  5818.12  76.7022
 59.0836  5808.44  76.5507
 59.1256  5746.19  76.5362
 59.1676  5770.92  77.2996
 59.2096  5783.54  76.6962
 59.2516  5749.52  76.0616
 59.2936  5748.71  76.3763
 59.3356  5688.66  75.8577
 59.3776  5727.1  76.2781
 59.4196  5753.72  76.3926
 59.4616  5663.11  75.6532
 59.5036  5682.22  75.8145
 59.5456  5720.56  75.772
 59.5876  5860.05  76.8784
 59.6296  5633.05  75.4416
 59.6716  5673.1  75.7654
 59.7136  5810.15  76.6636
 59.7556  5728.88  76.2584
 59.7976  5712.28  75.8972
 59.8396  5671.15  75.521
 59.8816  5721.38  76.3858
 59.9236  5807.9  76.6115
 59.9656  5689.76  76.0812
 60.0076  5748.26  75.8445
 60.0496  5692.4  75.9597
 60.0916  5779.83  75.9762
 60.1336  5627.25  76.0353
 60.1756  5687.45  77.5901
 60.1996  0.0000000E+00  0.0000000E+00