File: docs/examples/opeando_xrd/IS17_D/Data/IS17_D/17_Db_f00024.xye
# /beamlines/bl04/projects/cycle2025-II/20250340211-lsimonelli/DATA/IS17_D/17_Db_f00024.xye : mythproc.py merge -s 0.006 -l 0.5 -f /beamlines/bl04/inhouse/ff/FlatField/ff_20Nov2024rod8mm60s_17keV.raw -b True -c true -o xye /beamlines/bl04/projects/cycle2025-II/20250340211-lsimonelli/DATA/IS17_D/17_Db_00024.dat
# IsMon = [6775737, 6771630, 6770794]  IsPos = [-1.5000, -2.4885, -3.4986]
# Wave = 0.4962  CalPath /beamlines/bl04/projects/cycle2025-II/20250340211-lsimonelli/DATA/Align/Si_Pos1_25keV_f00001.cal
# Date = 2025-09-24_00:23:05 Dt = 4.8000  Bin = 0.0060  <imon> = 6772720 +/- 2160 (Min/Max) 6770794 / 6775737
# icurr 251.7914  mocoIn 1.7188E-05  mocoOut 0.8073  i15 7.09222e+06  imon 6.77272e+06  i7 3.6667  iEMpd_timer 4.8000  iEMpd_1 3.5511E-08  iEMpd_2 7.8778E-08  iEMpd_3 1.7464E-08  iEMpd_4 4.7818E-08  iEMhp_timer 4.8000  iEMhp_1 4.9219E-06  iEMhp_2 -2.4040E-08  iEMhp_3 -2.4362E-08  iEMhp_4 -2.1865E-08
#      9776
 1.5856  43825.2  214.916
 1.6276  50918.5  227.681
 1.6696  55956.3  237.837
 1.7116  63666.1  254.19
 1.7536  71971.7  269.111
 1.7956  75441.6  276.209
 1.8376  72465.4  271.136
 1.8796  61890.7  248.736
 1.9216  51478  227.747
 1.9636  44261.3  210.847
 2.0056  39754.2  198.547
 2.0476  37040.4  193.751
 2.0896  35546.5  188.691
 2.1316  34633.8  185.357
 2.1736  33075.6  182.577
 2.2156  33673.4  182.741
 2.2576  32410.5  179.924
 2.2996  31098  176.89
 2.3416  31541.5  176.726
 2.3836  30906.5  175.045
 2.4256  30234.5  173.695
 2.4676  29419.7  171.096
 2.5096  29208.8  170.538
 2.5516  29306  174.728
 2.5936  42145.9  205.397
 2.6356  28336.2  169.116
 2.6776  27260.4  164.778
 2.7196  26973.6  164.396
 2.7616  26740  163.478
 2.8036  26354.9  162.452
 2.8456  26086.1  162.258
 2.8876  25773.6  161.119
 2.9296  25291.1  159.762
 2.9716  25346.3  159.422
 3.0136  24949.2  158.241
 3.0556  25033.2  158.886
 3.0976  24907  157.409
 3.1396  24639.2  157.279
 3.1816  24314.2  156.181
 3.2236  24154.3  155.647
 3.2656  24028.9  154.32
 3.3076  23801.2  155.03
 3.3496  24264.2  155.698
 3.3916  24403.2  155.716
 3.4336  24829.5  157.661
 3.4756  25126  158.534
 3.5176  25968.3  160.929
 3.5596  25430.1  162.27
 3.6016  25702  160.205
 3.6436  24903.9  158.802
 3.6856  24567.9  156.035
 3.7276  23596.5  153.986
 3.7696  23511.1  153.683
 3.8116  23044.1  152.25
 3.8536  23219.4  152.759
 3.8956  23039.1  151.995
 3.9376  22864.3  151.718
 3.9796  22902.1  151.303
 4.0216  22764.3  149.894
 4.0636  22861.2  151.671
 4.1056  22875.4  151.376
 4.1476  23377.1  153.321
 4.1896  23377.9  153.186
 4.2316  23461  153.287
 4.2736  23903.9  154.531
 4.3156  23857.8  154.619
 4.3576  24817.5  157.593
 4.3996  24918.8  157.997
 4.4416  25477.6  159.542
 4.4836  26137.1  161.757
 4.5256  26747.3  164.225
 4.5676  26471.2  163.637
 4.6096  26878  163.92
 4.6516  27376.9  164.762
 4.6936  27458  165.844
 4.7356  27933.5  167.091
 4.7776  27517.2  165.674
 4.8196  27662.4  166.749
 4.8616  26879.5  164.004
 4.9036  26620.5  162.798
 4.9456  26757.8  163.886
 4.9876  25968  161.347
 5.0296  26254.6  162.08
 5.0716  26110.4  162.246
 5.1136  26097.1  162.065
 5.1556  26328.9  162.245
 5.1976  28208.5  167.916
 5.2396  26963.7  163.877
 5.2816  26927.5  164.222
 5.3236  27018.3  164.203
 5.3656  26472  163.466
 5.4076  26283.3  163.024
 5.4496  26299.5  162.577
 5.4916  26534.3  163.046
 5.5336  26353.7  162.507
 5.5756  26404  162.658
 5.6176  26295  161.777
 5.6596  26708.3  163.868
 5.7016  26801.4  163.579
 5.7436  27128.3  164.85
 5.7856  26833.9  164.022
 5.8276  26888.5  163.913
 5.8696  27325.5  165.277
 5.9116  26943.3  164.81
 5.9536  27652  166.719
 5.9956  27714.9  166.315
 6.0376  27635.6  166.693
 6.0796  28012.3  167.659
 6.1216  27693.9  166.911
 6.1636  28186.5  167.426
 6.2056  27748.1  166.802
 6.2476  28405.9  168.434
 6.2896  28596.1  168.878
 6.3316  28493.1  168.732
 6.3736  28516.5  168.715
 6.4156  28602.3  168.898
 6.4576  28696.5  168.744
 6.4996  28654.8  169.107
 6.5416  28994.5  170.228
 6.5836  28722.7  169.676
 6.6256  28945.9  169.88
 6.6676  29384.9  170.738
 6.7096  29346  171.467
 6.7516  29719  172.221
 6.7936  30171.3  172.675
 6.8356  30197.4  173.103
 6.8776  30120.4  173.692
 6.9196  30223.9  174.374
 6.9616  30710.4  175.185
 7.0036  31161.9  176.159
 7.0456  30971  174.922
 7.0876  31235  177.24
 7.1296  30888.2  175.502
 7.1716  30926.4  175.151
 7.2136  30489.4  173.695
 7.2556  30822.7  174.789
 7.2976  30689.5  174.897
 7.3396  30628.3  174.958
 7.3816  30718.4  175.42
 7.4236  30973.5  175.449
 7.4656  31091.9  175.248
 7.5076  31474.5  176.472
 7.5496  31003.3  175.682
 7.5916  31098.4  175.996
 7.6336  31719.6  177.63
 7.6756  31588.6  177.112
 7.7176  32153.5  179.006
 7.7596  32023.2  179.849
 7.8016  33610.1  186.493
 7.8436  32137  179.106
 7.8856  32598.4  179.997
 7.9276  32849.8  181.093
 7.9696  33105.1  182.094
 8.0116  34196.4  184.002
 8.0536  34159.1  183.785
 8.0956  34519.3  185.913
 8.1376  34289.2  184.778
 8.1796  34769.9  186.589
 8.2216  35545.4  187.43
 8.2636  35694.7  188.068
 8.3056  35508.9  188.333
 8.3476  36321.5  189.808
 8.3896  35749.9  188.821
 8.4316  35856.9  188.835
 8.4736  36096.8  188.947
 8.5156  35478.1  187.589
 8.5576  35530.6  188.674
 8.5996  35358.3  187.121
 8.6416  35277.2  188.134
 8.6836  34928.8  187.045
 8.7256  35597.8  188.285
 8.7676  35717.8  191.457
 8.8096  36406.3  190.592
 8.8516  36305.8  189.952
 8.8936  35382.1  187.431
 8.9356  35594.9  188.305
 8.9776  35565.8  188.322
 9.0196  35657.9  188.233
 9.0616  35331.3  186.886
 9.1036  35041.1  187.268
 9.1456  34377.5  184.843
 9.1876  34962.2  186.336
 9.2296  34486.6  184.532
 9.2716  34275.3  183.983
 9.3136  33971.5  183.17
 9.3556  34556.1  184.714
 9.3976  33713.2  182.936
 9.4396  33475.6  182.203
 9.4816  33313.4  181.618
 9.5236  33019  180.73
 9.5656  32662.9  180.097
 9.6076  32129.7  179.149
 9.6496  32659.7  180.497
 9.6916  32265  179.361
 9.7336  32470  179.723
 9.7756  32198.7  180.178
 9.8176  32029.5  179.229
 9.8596  31966.3  177.527
 9.9016  31329.6  175.749
 9.9436  31089.4  174.822
 9.9856  30971.1  174.923
 10.0276  30503.9  174.654
 10.0696  30731.4  174.347
 10.1116  30022.4  172.587
 10.1536  30040.6  172.303
 10.1956  29434.5  170.661
 10.2376  29582.9  170.6
 10.2796  29373.6  170.115
 10.3216  29050.9  169.322
 10.3636  29047.1  169.468
 10.4056  28835.9  169.268
 10.4476  29289.9  170.191
 10.4896  30004.6  171.693
 10.5316  29458.1  170.506
 10.5736  28413.5  168.205
 10.6156  28393.7  167.896
 10.6576  29122.2  168.607
 10.6996  27606.5  164.854
 10.7416  27300  164.152
 10.7836  27218.8  164.581
 10.8256  26613.2  163.145
 10.8676  26534.9  162.474
 10.9096  26449.7  162.229
 10.9516  26181.4  160.367
 10.9936  26359.9  161.123
 11.0356  26013.2  160.667
 11.0776  25979  159.898
 11.1196  25669.1  159.7
 11.1616  25082.4  157.543
 11.2036  25572.4  158.923
 11.2456  25463.2  159.285
 11.2876  25420.1  158.868
 11.3296  24980.4  157.409
 11.3716  25291.9  158.127
 11.4136  25169.4  158.561
 11.4556  25293.6  158.626
 11.4976  26073.8  160.049
 11.5396  26255.6  160.778
 11.5816  25894.7  160.077
 11.6236  25308.4  158.721
 11.6656  25225.7  157.403
 11.7076  24258.5  155.178
 11.7496  24422  159.64
 11.7916  24356.7  154.755
 11.8336  23520.6  152.983
 11.8756  23814.4  153.457
 11.9176  23644.1  152.834
 11.9596  23783.7  153.201
 12.0016  23600.9  153.371
 12.0436  23768.3  153.375
 12.0856  23287.3  152.306
 12.1276  23307.7  152.32
 12.1696  23255.7  151.284
 12.2116  23246  151.262
 12.2536  23702.6  153.512
 12.2956  23034.1  150.726
 12.3376  23307.8  151.803
 12.3796  23068.5  151.506
 12.4216  23044.5  150.637
 12.4636  23012.7  151.451
 12.5056  22906.7  150.387
 12.5476  23272.4  151.1
 12.5896  22779.7  150.129
 12.6316  22964.7  150.859
 12.6736  22747  150.506
 12.7156  23028.3  151.397
 12.7576  22850.1  151.071
 12.7996  22994.3  150.205
 12.8416  22983  151.21
 12.8836  23346  152.222
 12.9256  23555.6  151.963
 12.9676  23315.1  151.578
 13.0096  23593.1  153.572
 13.0516  23611.7  152.684
 13.0936  23508.8  152.481
 13.1356  23875.9  152.912
 13.1776  23560.2  152.905
 13.2196  23443.3  152.171
 13.2616  23166.8  151.588
 13.3036  23694.9  153.426
 13.3456  23273.8  152.038
 13.3876  23784.4  153.163
 13.4296  23582.6  152.692
 13.4716  23613.6  152.433
 13.5136  23472.9  152.103
 13.5556  23527.5  152.904
 13.5976  23687.6  153.587
 13.6396  23501.7  152.358
 13.6816  23904.6  153.983
 13.7236  24197.2  154.629
 13.7656  25676.6  159.716
 13.8076  26685.2  161.495
 13.8496  25157.7  157.606
 13.8916  23949  154.749
 13.9336  23117.9  151.363
 13.9756  23168.6  150.897
 14.0176  22739.4  150.177
 14.0596  23091  151.239
 14.1016  22874  150.956
 14.1436  22988.2  150.459
 14.1856  22408.6  148.85
 14.2276  22372.6  149.202
 14.2696  22291.7  148.795
 14.3116  21851.8  147.239
 14.3536  21602.2  146.55
 14.3956  21564.5  146.145
 14.4376  21825.6  146.823
 14.4796  21770.8  146.634
 14.5216  21228.6  145.565
 14.5636  21443.7  145.877
 14.6056  21445.8  145.45
 14.6476  21237.7  144.002
 14.6896  20911.7  143.426
 14.7316  20631.5  143.484
 14.7736  20595.8  142.508
 14.8156  20256.8  141.359
 14.8576  20297.6  141.365
 14.8996  19907.5  141.174
 14.9416  19639.3  140.225
 14.9836  19497  139.709
 15.0256  19025  136.958
 15.0676  19076.6  137.444
 15.1096  18819.1  136.262
 15.1516  18409  135.305
 15.1936  18692.4  135.789
 15.2356  18368.4  134.877
 15.2776  18241.1  134.007
 15.3196  17979.9  134.012
 15.3616  17831.5  133.225
 15.4036  17678.4  132.51
 15.4456  17969.1  133.042
 15.4876  17556.5  131.414
 15.5296  17663.3  132.091
 15.5716  17257.3  130.18
 15.6136  17286.1  130.607
 15.6556  17724.6  131.505
 15.6976  17016  128.925
 15.7396  17111  129.873
 15.7816  16962.9  128.833
 15.8236  16746.3  128.684
 15.8656  16749.4  128.495
 15.9076  16743.9  128.304
 15.9496  17408  133.571
 15.9916  17061.9  132.653
 16.0336  17206  130.094
 16.0756  16903.9  129.282
 16.1176  16560.3  127.875
 16.1596  16465.5  128.821
 16.2016  16427.6  127.464
 16.2436  16425.9  127.815
 16.2856  16235.3  126.61
 16.3276  16154.2  126.721
 16.3696  16281.1  127.048
 16.4116  16204.2  127.177
 16.4536  16213.1  127.03
 16.4956  16366.1  127.36
 16.5376  15997.8  126.104
 16.5796  15926.7  125.204
 16.6216  16033.5  125.845
 16.6636  15599.5  124.362
 16.7056  16043.8  125.973
 16.7476  15757  124.529
 16.7896  15835.6  125.418
 16.8316  15974.4  125.955
 16.8736  16130.3  126.807
 16.9156  15850.1  126.034
 16.9576  15567.1  125.682
 16.9996  15572.3  126.17
 17.0416  15803.1  125.505
 17.0836  15766.1  125.116
 17.1256  15417.2  123.734
 17.1676  15679.2  124.74
 17.2096  15516.4  123.983
 17.2516  15730.8  124.924
 17.2936  15562.5  124.311
 17.3356  15211.8  122.883
 17.3776  15262.3  123.278
 17.4196  15000.7  121.928
 17.4616  14949.8  121.624
 17.5036  14888  121.738
 17.5456  14754.7  121.808
 17.5876  14686.6  120.589
 17.6296  15013.7  121.736
 17.6716  14685.8  120.989
 17.7136  14808.9  121.619
 17.7556  14515.6  120.708
 17.7976  14364.1  119.693
 17.8396  14517.5  119.963
 17.8816  14226.4  119.31
 17.9236  14376.4  119.727
 17.9656  14260.6  119.918
 18.0076  14455.8  120.173
 18.0496  14354.5  118.906
 18.0916  15248.1  123.107
 18.1336  14641.9  120.727
 18.1756  14546.6  119.888
 18.2176  14607.7  120.348
 18.2596  14178.4  118.306
 18.3016  14405.6  119.512
 18.3436  14526.5  120.253
 18.3856  14367.1  119.474
 18.4276  14245.9  118.668
 18.4696  14086.8  118.094
 18.5116  14224  118.932
 18.5536  14078.8  118.688
 18.5956  13783.9  117
 18.6376  13937.8  118.056
 18.6796  13896.7  117.193
 18.7216  13947  117.971
 18.7636  13851.4  117.492
 18.8056  13675.2  116.655
 18.8476  13641.6  116.852
 18.8896  13458.4  115.711
 18.9316  13616.3  116.212
 18.9736  13476.6  115.471
 19.0156  13567.1  116.258
 19.0576  13718.7  115.773
 19.0996  13668.4  116.274
 19.1416  13532.8  116.068
 19.1836  13507.3  115.583
 19.2256  13385.6  115.282
 19.2676  13388.9  115.376
 19.3096  13377.6  115.58
 19.3516  13633.6  116.442
 19.3936  13407.4  115.626
 19.4356  13660.1  116.517
 19.4776  13514.3  115.983
 19.5196  13450.8  115.572
 19.5616  13399.2  115.6
 19.6036  13380.3  114.895
 19.6456  13538.3  115.816
 19.6876  13554  115.525
 19.7296  13583.3  116.102
 19.7716  13576.5  116.11
 19.8136  13791.3  117.357
 19.8556  13840  117.061
 19.8976  13758.5  116.774
 19.9396  13824.2  116.636
 19.9816  13876.6  117.112
 20.0236  14290.9  119.04
 20.0656  14022.6  117.918
 20.1076  13903.5  117.877
 20.1496  13525  116.256
 20.1916  13565.7  115.919
 20.2336  13466.4  115.456
 20.2756  13268  115.043
 20.3176  13035.4  113.769
 20.3596  12908.6  113.219
 20.4016  13113.9  113.907
 20.4436  13002.5  113.992
 20.4856  13047.1  113.96
 20.5276  12892.4  113.743
 20.5696  12879.4  113.243
 20.6116  12884.2  113.434
 20.6536  12727.8  112.326
 20.6956  12641.4  112.011
 20.7376  12639  112.218
 20.7796  12683.8  112.116
 20.8216  12974.6  113.105
 20.8636  12819.3  112.787
 20.9056  12792.5  112.611
 20.9476  12774.5  112.376
 20.9896  12975  113.131
 21.0316  12733.6  111.977
 21.0736  12666.3  112.19
 21.1156  12646.4  112.263
 21.1576  12697.8  112.526
 21.1996  12665.9  112.368
 21.2416  12599.6  111.891
 21.2836  12811.9  112.815
 21.3256  12684.6  112.324
 21.3676  12509.5  111.087
 21.4096  12389.1  110.931
 21.4516  12364.8  110.627
 21.4936  12195.1  110.134
 21.5356  12349.6  110.778
 21.5776  12431.9  110.983
 21.6196  12224.2  110.091
 21.6616  12250.2  110.291
 21.7036  12396.6  110.712
 21.7456  12473.8  111.146
 21.7876  12195.7  109.662
 21.8296  12219.3  109.62
 21.8716  12358.3  110.454
 21.9136  12445.8  111.06
 21.9556  12240  109.818
 21.9976  12096.5  109.199
 22.0396  12180.4  109.826
 22.0816  12142.9  110.172
 22.1236  12361.5  110.629
 22.1656  12093.6  109.616
 22.2076  11969.6  108.48
 22.2496  11887.2  108.133
 22.2916  11907.4  108.114
 22.3336  11894  108.735
 22.3756  12043.8  109.167
 22.4176  11884  108.296
 22.4596  11783.1  108.41
 22.5016  11950.1  108.689
 22.5436  11920.9  108.436
 22.5856  12187.8  109.881
 22.6276  12545.1  111.601
 22.6696  11964.4  109.352
 22.7116  12013.3  109.094
 22.7536  11825.8  108.217
 22.7956  11997.6  108.348
 22.8376  11929.8  108.55
 22.8796  11759.8  107.582
 22.9216  11846.8  108.511
 22.9636  11933.1  108.077
 23.0056  11810  107.646
 23.0476  12033.3  109.221
 23.0896  12290.6  109.767
 23.1316  12029.9  109.02
 23.1736  12194.3  112.647
 23.2156  12339  110.649
 23.2576  12483.1  111.488
 23.2996  12070  109.428
 23.3416  12439.9  111.596
 23.3836  12108.7  109.339
 23.4256  12495.7  111.195
 23.4676  12203  109.599
 23.5096  12297.6  110.665
 23.5516  12115  109.159
 23.5936  12063.7  109.821
 23.6356  12300.4  110.558
 23.6776  12312.9  111.151
 23.7196  12284.1  110.481
 23.7616  12258.2  110.086
 23.8036  12439  110.93
 23.8456  12085.7  108.921
 23.8876  12166.6  109.623
 23.9296  11996.7  109.341
 23.9716  11929  108.252
 24.0136  12038  109.637
 24.0556  11987.3  109.12
 24.0976  11750  107.86
 24.1396  11683  110.119
 24.1816  11883.3  109.828
 24.2236  11809.4  108.788
 24.2656  11766  108.058
 24.3076  11830.5  108.627
 24.3496  11675.3  107.796
 24.3916  11819.5  108.506
 24.4336  11849.5  108.842
 24.4756  11727.6  108.169
 24.5176  11510.2  106.799
 24.5596  11639.6  107.712
 24.6016  11500.8  107.164
 24.6436  11572.9  107.009
 24.6856  11442.5  106.151
 24.7276  11304.2  105.839
 24.7696  11430.2  106.522
 24.8116  11153.9  105.408
 24.8536  11160.5  105.443
 24.8956  11298.3  105.828
 24.9376  11204.8  105.557
 24.9796  11082.8  105.083
 25.0216  11073.9  105.163
 25.0636  11156.7  105.209
 25.1056  10900.4  104.433
 25.1476  10960.6  106.594
 25.1896  10999.8  105.311
 25.2316  11042.1  104.689
 25.2736  10936.2  103.945
 25.3156  10777.9  103.265
 25.3576  10795.4  103.778
 25.3996  10822.3  103.889
 25.4416  10775.5  103.643
 25.4836  10601.6  103.314
 25.5256  10719.9  103.262
 25.5676  10796.3  103.365
 25.6096  10587.8  102.925
 25.6516  10641.4  102.693
 25.6936  10771.2  103.627
 25.7356  10552.3  102.705
 25.7776  10698.4  103.096
 25.8196  10498.6  102.289
 25.8616  10579.6  102.615
 25.9036  10710.4  102.709
 25.9456  10491.5  102.236
 25.9876  10566.4  102.508
 26.0296  10612.2  102.494
 26.0716  10653.7  103.024
 26.1136  10556.5  102.494
 26.1556  10694.1  102.464
 26.1976  10444.2  102.256
 26.2396  10511.6  102.006
 26.2816  10590  102.738
 26.3236  10538.5  102.565
 26.3656  10718  103.223
 26.4076  10393.1  101.859
 26.4496  10656.8  102.722
 26.4916  10872.4  103.668
 26.5336  11080.3  104.994
 26.5756  11231.4  105.589
 26.6176  10654.2  102.864
 26.6596  10559.5  102.707
 26.7016  10360.8  101.553
 26.7436  10491.2  102.258
 26.7856  10222.1  100.933
 26.8276  10213  100.853
 26.8696  10338.2  101.345
 26.9116  10276.7  100.975
 26.9536  10130  100.303
 26.9956  10036.9  99.8778
 27.0376  10148.8  100.643
 27.0796  10110.5  100.24
 27.1216  10296.5  101.148
 27.1636  10013.1  99.928
 27.2056  10039.8  99.9472
 27.2476  10130.9  100.403
 27.2896  10107.9  100.332
 27.3316  9953.72  99.3444
 27.3736  9882.92  99.2705
 27.4156  9993.21  99.6412
 27.4576  10037.9  100.097
 27.4996  10111.9  100.061
 27.5416  9964.02  99.6467
 27.5836  9945.69  99.3865
 27.6256  9954.11  99.6108
 27.6676  9971.52  99.6912
 27.7096  10032.7  99.8723
 27.7516  9967.34  99.7054
 27.7936  10304  101.498
 27.8356  9985.36  99.5399
 27.8776  10214.1  100.727
 27.9196  9892.47  99.011
 27.9616  9902.5  99.2569
 28.0036  9848.33  98.9428
 28.0456  9782.8  98.754
 28.0876  9749.96  98.6571
 28.1296  9672.13  98.1161
 28.1716  9875.03  99.1486
 28.2136  9794.37  98.7119
 28.2556  9752.39  98.6122
 28.2976  9734.94  98.5234
 28.3396  9626.78  97.7809
 28.3816  9710.3  98.1639
 28.4236  9675.45  98.1466
 28.4656  9543.53  97.5128
 28.5076  9661.12  97.7509
 28.5496  9611.33  97.75
 28.5916  9684.2  97.9382
 28.6336  9557.4  97.6273
 28.6756  9542.89  96.7682
 28.7176  9551.15  97.3564
 28.7596  9466.07  96.8234
 28.8016  9471.8  96.97
 28.8436  9465.42  97.0922
 28.8856  9380.45  96.5073
 28.9276  9472.26  97.21
 28.9696  9455.59  96.7972
 29.0116  9360.24  96.4717
 29.0536  9342.46  96.5999
 29.0956  9406.96  96.6383
 29.1376  9405.13  96.5956
 29.1796  9367.23  96.4516
 29.2216  9435.43  96.6503
 29.2636  9550.28  97.222
 29.3056  9335.54  95.9986
 29.3476  9282.7  96.2329
 29.3896  9270.67  96.2916
 29.4316  9199.07  95.2748
 29.4736  9186.37  95.273
 29.5156  9283.92  95.7025
 29.5576  9147.53  95.713
 29.5996  9202.15  95.2754
 29.6416  9036.41  94.528
 29.6836  9140.05  94.9998
 29.7256  9092.77  95.3024
 29.7676  9098.22  95.0029
 29.8096  9202.83  95.49
 29.8516  8932.71  94.404
 29.8936  9090.85  95.3232
 29.9356  9134.75  95.3135
 29.9776  9057.23  95.0558
 30.0196  9029.87  94.3153
 30.0616  9136.28  95.2388
 30.1036  8982.77  94.2627
 30.1456  9013.75  94.6732
 30.1876  8864.33  93.8461
 30.2296  8878.29  93.8702
 30.2716  9030.1  94.3157
 30.3136  8943.99  94.4453
 30.3556  9286.49  96.4823
 30.3976  9081.41  96.8663
 30.4396  9429.94  96.0796
 30.4816  9293.82  95.0081
 30.5236  9294.53  94.9938
 30.5656  9232.74  95.3416
 30.6076  9084.99  94.345
 30.6496  9141.06  94.6888
 30.6916  8954.1  93.8079
 30.7336  9212.66  95.2915
 30.7756  8953.3  94.2533
 30.8176  9237.16  95.4287
 30.8596  9028.79  94.1062
 30.9016  9182.52  94.7764
 30.9436  9095.54  94.5514
 30.9856  9180.78  95.0953
 31.0276  9052.01  94.0788
 31.0696  9111.86  94.8001
 31.1116  9020.38  94.432
 31.1536  8960.38  93.9978
 31.1956  9032.99  94.4722
 31.2376  8836.05  93.459
 31.2796  8964.5  93.6826
 31.3216  9004.03  93.8038
 31.3636  9003.66  94.4947
 31.4056  8952.32  95.5208
 31.4476  9079.57  94.1171
 31.4896  9026.45  94.3332
 31.5316  9151.91  94.4425
 31.5736  9182.96  94.3936
 31.6156  9217.52  94.575
 31.6576  9112.94  94.1108
 31.6996  9171.52  94.0586
 31.7416  9156.5  94.9466
 31.7836  9134.69  93.9923
 31.8256  9004.11  93.6515
 31.8676  9162.25  94.3851
 31.9096  8954.86  93.5369
 31.9516  8882.87  93.4611
 31.9936  8834.04  93.0362
 32.0356  9028.48  94.1113
 32.0776  9029.91  94.006
 32.1196  9173.97  94.7627
 32.1616  9068.88  93.7598
 32.2036  8942.71  93.612
 32.2456  9115.19  94.8898
 32.2876  8819.49  92.6878
 32.3296  8731.18  92.3407
 32.3716  8683.32  92.2105
 32.4136  8695.09  92.4781
 32.4556  8788.56  92.4182
 32.4976  8723.35  91.9633
 32.5396  8663.95  91.682
 32.5816  8664.48  91.7095
 32.6236  8662.12  91.8549
 32.6656  8879.8  93.5446
 32.7076  8573.7  91.5777
 32.7496  8608.11  91.444
 32.7916  8750.99  92.1594
 32.8336  8684.42  91.9001
 32.8756  8818.61  92.4065
 32.9176  8595.26  91.6344
 32.9596  8587.5  91.6571
 33.0016  8661.62  91.831
 33.0436  8675.7  92.0719
 33.0856  8647.58  92.0174
 33.1276  8458.38  90.7546
 33.1696  8530.47  90.9679
 33.2116  8546.62  91.2771
 33.2536  8683.76  91.988
 33.2956  8547.19  91.3569
 33.3376  8512.85  90.9829
 33.3796  8612.26  91.6668
 33.4216  8547.01  90.9191
 33.4636  8599.86  91.3486
 33.5056  8391.76  90.3154
 33.5476  8525.83  91.1624
 33.5896  8558.12  91.1164
 33.6316  8573.56  91.5181
 33.6736  8382.35  90.7439
 33.7156  8358.88  90.6503
 33.7576  8483.34  90.9683
 33.7996  8438.29  90.4988
 33.8416  8412.46  90.5375
 33.8836  8395.23  90.2293
 33.9256  8586.09  91.2875
 33.9676  8483.35  90.6509
 34.0096  8379.65  90.3952
 34.0516  8441.64  90.3774
 34.0936  8205.75  89.3679
 34.1356  8517.64  90.792
 34.1776  8301.48  89.6394
 34.2196  8245.22  89.5091
 34.2616  8250.2  89.7375
 34.3036  8415.6  90.7997
 34.3456  8350.97  90.2108
 34.3876  8331.41  90.1678
 34.4296  8294.27  89.5707
 34.4716  8389.52  90.2313
 34.5136  8288.65  89.8844
 34.5556  8201.47  89.6625
 34.5976  8430.67  90.7408
 34.6396  8300.34  89.7291
 34.6816  8366.33  90.1891
 34.7236  8322.66  89.7329
 34.7656  8356.21  90.1239
 34.8076  8184.43  89.5179
 34.8496  8200.34  89.4579
 34.8916  8387.66  90.3396
 34.9336  8250.45  89.5817
 34.9756  8462.29  90.6576
 35.0176  8394.47  90.8003
 35.0596  8418.04  90.7493
 35.1016  8306.3  89.9027
 35.1436  8450.03  90.3736
 35.1856  8265.75  89.5031
 35.2276  8150.2  89.0519
 35.2696  8219.8  89.6085
 35.3116  8148.88  89.3225
 35.3536  8328.9  90.0338
 35.3956  8232.16  89.2089
 35.4376  8282.3  90.0295
 35.4796  8316.61  90.2497
 35.5216  8206.83  89.5433
 35.5636  8004.77  89.2306
 35.6056  8142.71  89.05
 35.6476  8265.91  89.6164
 35.6896  8244.06  89.6564
 35.7316  8177.07  89.2011
 35.7736  8093.39  88.9183
 35.8156  8159.47  89.2733
 35.8576  8162.96  89.5503
 35.8996  8278.16  90.1423
 35.9416  8106.22  88.7238
 35.9836  8058.05  88.9072
 36.0256  8330.21  90.2904
 36.0676  8137.96  88.7779
 36.1096  8236  89.6749
 36.1516  8300.52  89.93
 36.1936  8139.42  88.8826
 36.2356  8159.39  89.6529
 36.2776  8217.46  89.4259
 36.3196  8162.66  88.83
 36.3616  8105.5  88.6397
 36.4036  8087.45  88.6108
 36.4456  8103.1  88.8969
 36.4876  8061.54  88.6144
 36.5296  8048.07  88.5806
 36.5716  7992.05  89.0269
 36.6136  7991.33  87.8441
 36.6556  8006.9  88.125
 36.6976  7818.53  87.5695
 36.7396  7887.36  87.7797
 36.7816  7876.32  87.9963
 36.8236  7861.76  87.8335
 36.8656  7800.94  87.5486
 36.9076  7911.58  88.1926
 36.9496  7648.09  86.7228
 36.9916  7705.24  86.5361
 37.0336  7945.12  88.1889
 37.0756  7804.63  87.2019
 37.1176  7597.41  86.3837
 37.1596  7704.92  86.9103
 37.2016  7730.36  87.2233
 37.2436  7761.92  86.7862
 37.2856  7739.91  86.9123
 37.3276  7756.62  86.3749
 37.3696  7746.96  87.1822
 37.4116  7820.28  87.5024
 37.4536  7779.47  87.1398
 37.4956  7604.25  86.1999
 37.5376  7853.04  89.1527
 37.5796  7798.05  88.76
 37.6216  7876.72  87.4941
 37.6636  7990.88  88.0085
 37.7056  7879.78  87.584
 37.7476  7982.88  87.6989
 37.7896  7771.95  87.0465
 37.8316  7755  87.0875
 37.8736  7919.35  87.5592
 37.9156  7896.34  87.4258
 37.9576  7809.95  86.994
 37.9996  7739.76  86.1776
 38.0416  7799.72  87.2942
 38.0836  7965.49  88.1303
 38.1256  7730.93  86.7992
 38.1676  7653.94  86.4755
 38.2096  7850.68  87.2012
 38.2516  7818.56  87.1545
 38.2936  7913.14  87.5573
 38.3356  7797.48  86.8641
 38.3776  7716.04  86.6553
 38.4196  7722.56  86.5537
 38.4616  7787.05  87.1452
 38.5036  7883.76  87.5226
 38.5456  7737.07  87.521
 38.5876  7809.45  87.9522
 38.6296  7778.27  86.7522
 38.6716  7727.78  86.2799
 38.7136  7737.07  86.2849
 38.7556  7707.32  86.6132
 38.7976  7866.54  87.433
 38.8396  7694.65  86.9246
 38.8816  7725.35  86.8983
 38.9236  7796.32  87.096
 38.9656  7716.62  86.5645
 39.0076  7747.23  86.1377
 39.0496  7845.82  87.2365
 39.0916  7845.35  86.8879
 39.1336  7678.83  86.3523
 39.1756  7736.91  86.7403
 39.2176  7716.38  87.1694
 39.2596  7601.91  86.4287
 39.3016  7673.11  86.4296
 39.3436  7646.22  86.6798
 39.3856  7636.96  86.0912
 39.4276  7874.19  87.9182
 39.4696  7770.38  86.9641
 39.5116  7849.28  87.914
 39.5536  7825.31  88.207
 39.5956  7696.2  86.5957
 39.6376  7684.58  86.3599
 39.6796  7671.37  86.2065
 39.7216  7650.76  86.1892
 39.7636  7642.37  86.6615
 39.8056  7847.96  87.6405
 39.8476  7582.35  86.3895
 39.8896  7721.85  86.8094
 39.9316  7551.82  86.1035
 39.9736  7667.41  86.3317
 40.0156  7618.6  85.8943
 40.0576  7631.41  86.3157
 40.0996  7754.58  86.1981
 40.1416  7715.96  86.7712
 40.1836  7649.52  86.2811
 40.2256  7676.28  86.4661
 40.2676  7552.82  85.9417
 40.3096  7744.95  86.8814
 40.3516  7660.2  86.6005
 40.3936  7773.49  86.7259
 40.4356  7609.65  86.0081
 40.4776  7766.06  87.1114
 40.5196  7810.68  87.6557
 40.5616  7792.74  87.1949
 40.6036  7777.61  87.3697
 40.6456  7671.61  86.391
 40.6876  7881.33  87.5549
 40.7296  7708.6  86.725
 40.7716  7656.69  86.5321
 40.8136  7663.44  86.5265
 40.8556  7812.8  87.4913
 40.8976  7629.94  86.4026
 40.9396  7690.41  87.0734
 40.9816  7680.16  86.3279
 41.0236  7766.01  86.5949
 41.0656  7833.49  87.5022
 41.1076  7756.41  86.8511
 41.1496  7735.86  86.6325
 41.1916  7628.9  86.3474
 41.2336  7761.4  87.0861
 41.2756  7636.45  86
 41.3176  7736.88  87.1595
 41.3596  7726.72  86.8508
 41.4016  7612.65  86.4616
 41.4436  7781.17  87.1965
 41.4856  7676.91  86.7823
 41.5276  7722.95  87.0518
 41.5696  7742.36  86.783
 41.6116  7747.63  87.2018
 41.6536  7732  86.9797
 41.6956  7760.63  87.131
 41.7376  7610.23  86.3783
 41.7796  7570.63  86.0896
 41.8216  7717.01  87.0885
 41.8636  7594.17  86.3532
 41.9056  7715.92  86.831
 41.9476  7728.02  87.1348
 41.9896  7820.76  87.3155
 42.0316  7680.58  86.6176
 42.0736  7612.94  86.3656
 42.1156  7613.04  86.1731
 42.1576  7706.91  86.8173
 42.1996  7754.27  87.2048
 42.2416  7692.08  86.454
 42.2836  7692.6  86.5606
 42.3256  7508.83  85.6268
 42.3676  7742.67  86.7563
 42.4096  7613.04  86.0032
 42.4516  7727.8  86.7231
 42.4936  7513.66  85.5892
 42.5356  7608.28  86.2695
 42.5776  7756.58  87.0355
 42.6196  7567.99  85.9539
 42.6616  7471.14  85.6454
 42.7036  7628.58  85.9305
 42.7456  7737.92  86.8927
 42.7876  7615.06  86.2757
 42.8296  7696.8  86.6549
 42.8716  7463.62  85.431
 42.9136  7436.89  85.0439
 42.9556  7648.57  86.4104
 42.9976  7573.54  85.949
 43.0396  7496.42  85.2479
 43.0816  7546.92  85.9136
 43.1236  7476.26  85.5514
 43.1656  7539.93  85.7461
 43.2076  7640.12  86.4242
 43.2496  7600.78  86.0224
 43.2916  7524.61  85.9392
 43.3336  7587.83  86.1427
 43.3756  7593.8  85.9353
 43.4176  7385.26  84.832
 43.4596  7528.53  85.5116
 43.5016  7492.31  85.6968
 43.5436  7438.33  85.2935
 43.5856  7446.73  85.374
 43.6276  7426.03  85.1414
 43.6696  7501.07  85.7186
 43.7116  7517.36  85.4195
 43.7536  7576.83  86.2517
 43.7956  7364.36  86.2089
 43.8376  7421.06  85.1123
 43.8796  7471.75  85.4797
 43.9216  7468.11  85.3764
 43.9636  7403.15  85.1127
 44.0056  7276.64  84.6099
 44.0476  7393.55  84.9223
 44.0896  7270.97  84.5485
 44.1316  7266.32  84.193
 44.1736  7252.43  84.101
 44.2156  7369.28  84.6259
 44.2576  7205.93  84.0037
 44.2996  7267.26  84.3312
 44.3416  7330.81  84.4656
 44.3836  7122.08  83.5674
 44.4256  7159.8  83.4466
 44.4676  7233.82  84.0299
 44.5096  7175.72  83.8295
 44.5516  7341.66  84.7626
 44.5936  7222.55  84.0245
 44.6356  7244.27  83.894
 44.6776  7267.93  84.3417
 44.7196  7237.9  84.4334
 44.7616  7300.58  86.1279
 44.8036  7395.48  85.3243
 44.8456  7391.97  85.306
 44.8876  7475.65  85.6357
 44.9296  7410.44  84.7105
 44.9716  7462.72  85.4302
 45.0136  7427.47  85.1682
 45.0556  7393.53  85.0641
 45.0976  7320.78  84.6822
 45.1396  7251.41  84.0506
 45.1816  7443.51  84.9244
 45.2236  7413.6  84.8338
 45.2656  7261.11  84.4404
 45.3076  7415.21  85.0984
 45.3496  7280.57  84.6574
 45.3916  7342.28  85.2733
 45.4336  7303.91  84.8867
 45.4756  7279.55  84.5997
 45.5176  7436.74  85.1322
 45.5596  7408.52  85.0908
 45.6016  7327.51  85.0455
 45.6436  7330.57  84.2301
 45.6856  7259.22  84.4895
 45.7276  7290.93  86.4709
 45.7696  7241.12  85.3613
 45.8116  7293.49  85.1059
 45.8536  7296.04  84.9982
 45.8956  7312.06  84.4652
 45.9376  7292.59  83.8218
 45.9796  7339.94  84.7796
 46.0216  7376.29  85.3183
 46.0636  7379.63  84.471
 46.1056  7320.33  84.1391
 46.1476  7396.01  85.1569
 46.1896  7331.47  84.941
 46.2316  7286.23  84.5399
 46.2736  7275.38  84.6874
 46.3156  7207.92  84.0504
 46.3576  7297.81  84.7705
 46.3996  7263.37  84.7171
 46.4416  7284.67  84.414
 46.4836  7259.29  84.6413
 46.5256  7358.27  85.1365
 46.5676  7175.24  84.2029
 46.6096  7337.27  85.0687
 46.6516  7270.53  83.7317
 46.6936  7392.06  84.932
 46.7356  7361.06  84.8471
 46.7776  7232.75  84.9574
 46.8196  7164.32  84.3051
 46.8616  7114.63  83.8154
 46.9036  7104.19  83.4161
 46.9456  7206.27  83.6539
 46.9876  7258.41  84.0394
 47.0296  7141.63  84.0489
 47.0716  7122.83  83.7567
 47.1136  7138.72  83.5244
 47.1556  7152.08  83.4755
 47.1976  7182.86  83.8041
 47.2396  7160.63  84.0023
 47.2816  7115.59  83.4459
 47.3236  7171.45  84.1368
 47.3656  7259.43  84.5789
 47.4076  7268.42  84.3663
 47.4496  7061.53  83.3178
 47.4916  7184  84.2202
 47.5336  7252.44  84.4337
 47.5756  7224.71  84.36
 47.6176  7201.05  84.16
 47.6596  7148.44  83.5682
 47.7016  7376.84  84.6984
 47.7436  7237.45  84.241
 47.7856  7313.88  84.6996
 47.8276  7193.76  84.0654
 47.8696  7190.83  84.1287
 47.9116  7236.44  84.1058
 47.9536  7224.82  83.9844
 47.9956  7088.46  83.8905
 48.0376  7136.8  83.9522
 48.0796  7271.13  84.8652
 48.1216  7082.39  83.5797
 48.1636  7231.92  84.0191
 48.2056  7338.04  84.9077
 48.2476  7348.52  85.2766
 48.2896  7298.76  84.9017
 48.3316  7257.15  84.6001
 48.3736  7116.41  83.7977
 48.4156  7133.15  83.7571
 48.4576  7094.61  83.8112
 48.4996  7231.17  84.0683
 48.5416  7385  85.2853
 48.5836  7142.22  83.5554
 48.6256  7246.12  84.3564
 48.6676  7111.74  84.0903
 48.7096  7158.46  83.6399
 48.7516  7219.43  84.1461
 48.7936  7056.45  83.2562
 48.8356  7193.26  84.1063
 48.8776  7140.49  84.2895
 48.9196  7303.5  84.6805
 48.9616  7110.44  83.9473
 49.0036  7223.59  84.9513
 49.0456  7120.03  84.3252
 49.0876  7087.32  83.7635
 49.1296  6961.66  83.0873
 49.1716  7021.11  83.3206
 49.2136  7169.35  84.1076
 49.2556  7170.49  84.1554
 49.2976  7160.52  84.1557
 49.3396  7150.1  84.1583
 49.3816  7126.31  83.4365
 49.4236  7084.88  83.6226
 49.4656  7019.34  83.2542
 49.5076  7146.7  83.7567
 49.5496  7047.16  83.113
 49.5916  7135.4  83.6671
 49.6336  7140.03  83.8964
 49.6756  7070.46  83.7232
 49.7176  7134  84.041
 49.7596  7099.5  83.7808
 49.8016  7167.56  83.9203
 49.8436  7075.03  83.6819
 49.8856  7090.69  83.7696
 49.9276  6967.1  83.1423
 49.9696  7119.65  84.0267
 50.0116  7059.5  83.7983
 50.0536  7071.37  83.8206
 50.0956  7040.67  83.7154
 50.1376  6975.45  83.0224
 50.1796  6900.33  82.8457
 50.2216  7053.96  83.7549
 50.2636  7007.34  83.0916
 50.3056  6949.45  82.9274
 50.3476  7029.9  83.4187
 50.3896  7072.84  83.651
 50.4316  7072.11  83.4832
 50.4736  6922.01  82.8063
 50.5156  7011.73  83.3372
 50.5576  7060.3  83.3844
 50.5996  7043.52  83.5606
 50.6416  7024.03  83.376
 50.6836  7091.92  83.8327
 50.7256  7096.59  83.7683
 50.7676  7149.55  84.3709
 50.8096  6979.59  82.9492
 50.8516  6990.94  83.436
 50.8936  6919.67  82.797
 50.9356  7062.91  83.7506
 50.9776  6938.34  83.1713
 51.0196  6947.16  83.3608
 51.0616  6807.49  81.8429
 51.1036  6893.86  82.7197
 51.1456  6947  82.9476
 51.1876  6873.92  81.8486
 51.2296  6943.49  82.9014
 51.2716  6886.62  82.2686
 51.3136  6809.25  82.2644
 51.3556  6844.13  82.0908
 51.3976  6783.56  81.8839
 51.4396  6784.05  82.1964
 51.4816  6765.17  81.9373
 51.5236  6894.17  82.7984
 51.5656  6811.36  81.8965
 51.6076  6852.29  82.2232
 51.6496  6849.32  82.4016
 51.6916  6720.94  81.982
 51.7336  6703.97  81.9701
 51.7756  6878.82  82.7261
 51.8176  6771.5  82.1753
 51.8596  6785.75  82.2887
 51.9016  6754.48  81.7045
 51.9436  6831.38  83.6533
 51.9856  6870.44  84.3004
 52.0276  6927.14  83.1267
 52.0696  7026.79  83.7774
 52.1116  6797.61  82.5425
 52.1536  6850.15  82.6818
 52.1956  6898.82  82.4956
 52.2376  7042.6  83.5164
 52.2796  6791.55  81.8366
 52.3216  6789.97  82.5109
 52.3636  6886.77  82.6604
 52.4056  6775.65  81.8588
 52.4476  6724.27  81.9089
 52.4896  6758.71  82.159
 52.5316  6914.01  83.1492
 52.5736  6719.36  81.71
 52.6156  6891.52  83.134
 52.6576  6803.24  82.044
 52.6996  6492.26  81.1061
 52.7416  6651.37  81.9529
 52.7836  6750.85  82.4562
 52.8256  6826.82  82.1255
 52.8676  6656.46  81.6628
 52.9096  6871.79  83.0559
 52.9516  6751.86  82.7159
 52.9936  6757.18  83.1199
 53.0356  6727.72  81.9256
 53.0776  6811.48  82.7374
 53.1196  6896.63  83.3612
 53.1616  6777.79  82.6757
 53.2036  6740.54  82.4194
 53.2456  6686.92  82.1963
 53.2876  6786.68  82.4843
 53.3296  6721.34  82.4187
 53.3716  6847.48  82.9368
 53.4136  6733.99  82.4018
 53.4556  6687.71  82.1501
 53.4976  6684.28  81.9646
 53.5396  6786.97  82.9991
 53.5816  6727.11  82.2593
 53.6236  6713.48  82.5285
 53.6656  6820.33  82.7971
 53.7076  6765.23  82.4151
 53.7496  6744.42  82.4045
 53.7916  6702.09  82.2873
 53.8336  6806.91  82.8108
 53.8756  6569.64  81.8898
 53.9176  6747.69  82.344
 53.9596  6412.44  81.0475
 54.0016  6455.81  80.6535
 54.0436  6412.85  80.6066
 54.0856  6517.02  80.676
 54.1276  6514.21  80.8537
 54.1696  6384.52  80.2151
 54.2116  6583.3  81.1878
 54.2536  6455.98  80.2387
 54.2956  6502.16  80.5527
 54.3376  6340.32  80.0354
 54.3796  6430.36  80.497
 54.4216  6495.19  80.9571
 54.4636  6443.94  80.6012
 54.5056  6483.73  80.6536
 54.5476  6425.09  80.6236
 54.5896  6354.73  80.039
 54.6316  6484.81  80.6756
 54.6736  6362.72  79.9674
 54.7156  6487.23  80.8136
 54.7576  6355.57  79.9609
 54.7996  6460.59  80.7865
 54.8416  6465.25  80.8638
 54.8836  6437.48  80.7541
 54.9256  6360.92  80.0588
 54.9676  6261.82  79.3059
 55.0096  6319.4  79.7035
 55.0516  6249.46  79.4327
 55.0936  6470.39  80.5427
 55.1356  6292.52  79.4669
 55.1776  6411.57  80.4422
 55.2196  6366.06  79.965
 55.2616  6520.79  81.1436
 55.3036  6273.47  79.7457
 55.3456  6206.99  79.4906
 55.3876  6274.92  79.6446
 55.4296  6210.79  79.2239
 55.4716  6259.14  79.5727
 55.5136  6263.91  79.3788
 55.5556  6465.23  80.6634
 55.5976  6262.17  79.4863
 55.6396  6288.87  79.5131
 55.6816  6275.89  79.3799
 55.7236  6196.29  79.0419
 55.7656  6337.1  79.5631
 55.8076  6312.84  79.4035
 55.8496  6326.9  79.9146
 55.8916  6286.01  79.7052
 55.9336  6413.44  80.3788
 55.9756  6188.6  78.8531
 56.0176  6240.9  79.3081
 56.0596  6184.8  78.9646
 56.1016  6147.53  78.7839
 56.1436  6095.94  78.6534
 56.1856  6099.86  78.4463
 56.2276  6338.76  80.0047
 56.2696  6207.72  79.1613
 56.3116  6315.52  80.2096
 56.3536  6116.98  78.6288
 56.3956  6148.52  78.7896
 56.4376  6139.81  78.7947
 56.4796  6111.24  78.4378
 56.5216  6166.64  79.1596
 56.5636  6165.43  78.7241
 56.6056  6302.69  79.826
 56.6476  6164.69  78.5651
 56.6896  6310.61  79.9283
 56.7316  6117.98  78.6344
 56.7736  6275.28  79.6411
 56.8156  6113.87  78.6315
 56.8576  5958.3  77.5692
 56.8996  6196.88  78.9981
 56.9416  6118.96  78.692
 56.9836  6161.18  78.6121
 57.0256  6053.38  78.2349
 57.0676  6215.85  79.3744
 57.1096  6169.21  78.8866
 57.1516  6025.94  77.9806
 57.1936  6139.1  78.5055
 57.2356  5999.31  77.9276
 57.2776  6056.78  78.2789
 57.3196  6065.02  78.6571
 57.3616  6178  78.8803
 57.4036  6105.32  78.4602
 57.4456  6235.94  79.269
 57.4876  6067.88  78.0847
 57.5296  6018.45  77.9933
 57.5716  6072.57  78.4489
 57.6136  5990.1  77.7493
 57.6556  6105.53  78.6209
 57.6976  6092.95  78.3728
 57.7396  5972.73  77.93
 57.7816  5990.78  78.4301
 57.8236  5897.64  77.6039
 57.8656  6030.95  78.1447
 57.9076  6009.49  78.0254
 57.9496  5983.24  78.2085
 57.9916  5942.99  77.425
 58.0336  5965.47  77.8862
 58.0756  6004.67  77.7354
 58.1176  6024.01  77.8981
 58.1596  5909.87  77.7358
 58.2016  5837.06  76.5203
 58.2436  5741.66  76.2763
 58.2856  5764.49  76.3524
 58.3276  5709.78  76.3452
 58.3696  5801.12  76.7077
 58.4116  5817.3  76.6881
 58.4536  5876.96  76.967
 58.4956  5782.28  76.5214
 58.5376  5837.41  76.4662
 58.5796  5737.64  76.2231
 58.6216  5872.31  76.9323
 58.6636  5734.48  76.2315
 58.7056  5827.33  76.7018
 58.7476  5838.55  77.2096
 58.7896  5684.77  75.8456
 58.8316  5779.14  76.4672
 58.8736  5797.8  76.6026
 58.9156  5715.45  76.0935
 58.9576  5768.79  76.659
 58.9996  5877.56  76.7438
 59.0416  5803.49  76.6178
 59.0836  5686.68  75.7547
 59.1256  5745.79  76.5423
 59.1676  5655.77  76.5317
 59.2096  5786.02  76.7356
 59.2516  5903.02  77.0933
 59.2936  5671.34  75.8833
 59.3356  5668.34  75.7447
 59.3776  5696.08  76.094
 59.4196  5636.9  75.6355
 59.4616  5770.39  76.3893
 59.5036  5558.66  75.006
 59.5456  5832.59  76.5332
 59.5876  5748.54  76.1663
 59.6296  5626.52  75.4204
 59.6716  5582.61  75.1812
 59.7136  5752.34  76.3041
 59.7556  5808.16  76.8073
 59.7976  5605.63  75.2078
 59.8396  5513.46  74.4859
 59.8816  5822.87  77.0834
 59.9236  5694.61  75.8833
 59.9656  5612.06  75.5827
 60.0076  5876.61  76.7095
 60.0496  5739.12  76.2941
 60.0916  5767.26  75.9163
 60.1336  5458.34  74.9079
 60.1756  5584.1  76.9049
 60.1996  0.0000000E+00  0.0000000E+00