File: docs/examples/opeando_xrd/IS17_D/Data/IS17_D/17_Db_f00026.xye
# /beamlines/bl04/projects/cycle2025-II/20250340211-lsimonelli/DATA/IS17_D/17_Db_f00026.xye : mythproc.py merge -s 0.006 -l 0.5 -f /beamlines/bl04/inhouse/ff/FlatField/ff_20Nov2024rod8mm60s_17keV.raw -b True -c true -o xye /beamlines/bl04/projects/cycle2025-II/20250340211-lsimonelli/DATA/IS17_D/17_Db_00026.dat
# IsMon = [6733272, 6736785, 6735849]  IsPos = [-1.5000, -2.4885, -3.4988]
# Wave = 0.4962  CalPath /beamlines/bl04/projects/cycle2025-II/20250340211-lsimonelli/DATA/Align/Si_Pos1_25keV_f00001.cal
# Date = 2025-09-24_00:56:08 Dt = 4.8000  Bin = 0.0060  <imon> = 6735302 +/- 1485 (Min/Max) 6733272 / 6736785
# icurr 248.7273  mocoIn 1.6967E-05  mocoOut 0.7960  i15 7.05732e+06  imon 6.7353e+06  i7 3.6667  iEMpd_timer 4.8000  iEMpd_1 3.5627E-08  iEMpd_2 7.7925E-08  iEMpd_3 1.6882E-08  iEMpd_4 4.9339E-08  iEMhp_timer 4.8000  iEMhp_1 4.8611E-06  iEMhp_2 -2.3821E-08  iEMhp_3 -2.4445E-08  iEMhp_4 -2.2800E-08
#      9776
 1.5856  43506.9  214.214
 1.6276  50343.7  226.477
 1.6696  55703.4  237.388
 1.7116  63152.1  253.256
 1.7536  70692  266.807
 1.7956  75143.9  275.767
 1.8376  71343.7  269.129
 1.8796  61310.6  247.65
 1.9216  50866.5  226.475
 1.9636  43814.5  209.858
 2.0056  39651.8  198.365
 2.0476  36983.2  193.674
 2.0896  35291.5  188.083
 2.1316  34334.2  184.623
 2.1736  32699.5  181.604
 2.2156  33368.9  181.981
 2.2576  32040  178.96
 2.2996  31220.6  177.305
 2.3416  31163.3  175.725
 2.3836  31008.2  175.398
 2.4256  29597.7  171.921
 2.4676  29296  170.8
 2.5096  29191.4  170.551
 2.5516  27877.2  170.471
 2.5936  28201.6  168.022
 2.6356  27003  165.105
 2.6776  27083  164.259
 2.7196  26493.8  162.943
 2.7616  26597.4  163.053
 2.8036  26227.6  162.071
 2.8456  25941.4  161.822
 2.8876  25738.1  161.026
 2.9296  25110.3  159.202
 2.9716  24861.8  157.91
 3.0136  24628.1  157.227
 3.0556  24644.1  157.671
 3.0976  24894.6  157.39
 3.1396  24318.8  156.268
 3.1816  24100.4  155.505
 3.2236  23982.4  155.109
 3.2656  23609  152.963
 3.3076  23648.1  154.542
 3.3496  24039.4  154.991
 3.3916  24204.7  155.104
 3.4336  24679.3  157.195
 3.4756  25051.4  158.328
 3.5176  25570.9  159.73
 3.5596  25238.5  161.657
 3.6016  25677.3  160.118
 3.6436  24509.3  157.529
 3.6856  24298.2  155.178
 3.7276  23355.8  153.196
 3.7696  23338.5  153.135
 3.8116  22645.5  150.933
 3.8536  23026.7  152.135
 3.8956  22977.7  151.789
 3.9376  22625.5  150.886
 3.9796  22644.2  150.442
 4.0216  22671.3  149.582
 4.0636  22774.2  151.366
 4.1056  22584.4  150.396
 4.1476  23223.6  152.818
 4.1896  23084.2  152.224
 4.2316  23229.5  152.541
 4.2736  23633.9  153.658
 4.3156  23859.5  154.616
 4.3576  24581  156.838
 4.3996  24751.8  157.656
 4.4416  25288.5  158.948
 4.4836  25729.2  160.482
 4.5256  26373.8  163.089
 4.5676  26127.7  162.571
 4.6096  26642.3  163.201
 4.6516  27052.9  163.788
 4.6936  27137.6  164.866
 4.7356  27349.2  165.332
 4.7776  27405.7  165.328
 4.8196  27201.2  165.368
 4.8616  26514  162.885
 4.9036  26643  162.88
 4.9456  26123.6  161.934
 4.9876  25700.3  160.513
 5.0296  26120.6  161.662
 5.0716  25841.1  161.401
 5.1136  26006.8  161.785
 5.1556  26083.5  161.481
 5.1976  26857.8  163.866
 5.2396  26698.2  163.063
 5.2816  26789.2  163.814
 5.3236  26770.7  163.446
 5.3656  26307.4  162.956
 5.4076  25996.5  162.127
 5.4496  26028.3  161.725
 5.4916  26154.9  161.876
 5.5336  26134.8  161.819
 5.5756  26412.7  162.703
 5.6176  26102.2  161.181
 5.6596  26377.6  162.85
 5.7016  26592.6  162.939
 5.7436  26713.9  163.583
 5.7856  26602.5  163.312
 5.8276  26683.9  163.274
 5.8696  27186  164.869
 5.9116  26826.2  164.476
 5.9536  27368.9  165.876
 5.9956  27391.1  165.341
 6.0376  27465.2  166.173
 6.0796  27611.4  166.449
 6.1216  27535.3  166.412
 6.1636  27931.2  166.675
 6.2056  27723.8  166.723
 6.2476  28240.3  167.959
 6.2896  28382.9  168.25
 6.3316  28312.6  168.211
 6.3736  28262.1  167.947
 6.4156  28189.5  167.677
 6.4576  28399.7  167.877
 6.4996  28433.1  168.44
 6.5416  28602.3  169.069
 6.5836  28479.4  168.94
 6.6256  28706  169.185
 6.6676  29174.1  170.124
 6.7096  29173.4  170.971
 6.7516  29370.7  171.214
 6.7936  29580.9  171.236
 6.8356  29611.1  171.413
 6.8776  29768.1  172.654
 6.9196  29947.1  173.571
 6.9616  30274.3  173.943
 7.0036  30969.3  175.612
 7.0456  30804.1  174.454
 7.0876  30854.9  176.178
 7.1296  30644.6  174.803
 7.1716  30542  174.063
 7.2136  30202.4  172.87
 7.2556  30395.3  173.578
 7.2976  30522.1  174.43
 7.3396  30261.5  173.892
 7.3816  30398.2  174.501
 7.4236  30556.3  174.265
 7.4656  30849.3  174.56
 7.5076  30814.6  174.617
 7.5496  30792.2  175.074
 7.5916  30907.3  175.456
 7.6336  31199.7  176.171
 7.6756  31410  176.617
 7.7176  31879.8  178.248
 7.7596  31665.5  178.847
 7.8016  32329  182.924
 7.8436  32145.2  179.097
 7.8856  31872.6  177.962
 7.9276  32559.9  180.258
 7.9696  32907.9  181.515
 8.0116  33928.9  182.888
 8.0536  33731.7  182.603
 8.0956  33738.3  183.759
 8.1376  34068.8  184.149
 8.1796  34510.9  185.859
 8.2216  35170.7  186.394
 8.2636  35162.2  186.625
 8.3056  34989.4  186.915
 8.3476  35807.7  188.428
 8.3896  35093.3  186.62
 8.4316  35755.7  188.534
 8.4736  35830.4  188.21
 8.5156  35522.8  187.672
 8.5576  35009.5  187.249
 8.5996  34987.8  186.104
 8.6416  34877.4  187.029
 8.6836  34563.2  186.028
 8.7256  35044.1  186.779
 8.7676  34909.1  189.27
 8.8096  35507.1  188.247
 8.8516  35641.9  188.234
 8.8936  34702.8  185.642
 8.9356  35192.9  187.268
 8.9776  35097.7  187.098
 9.0196  34921  186.305
 9.0616  35042.6  186.14
 9.1036  34139.6  184.859
 9.1456  33878.2  183.488
 9.1876  34449.3  184.978
 9.2296  34139  183.596
 9.2716  33636.6  182.286
 9.3136  33836.7  182.819
 9.3556  33883.3  182.927
 9.3976  33051.1  181.169
 9.4396  33181.2  181.428
 9.4816  33131.2  181.162
 9.5236  32823.7  180.219
 9.5656  32464.5  179.573
 9.6076  31825.2  178.301
 9.6496  31961.5  178.568
 9.6916  31959.9  178.515
 9.7336  32029.6  178.517
 9.7756  31890.5  179.305
 9.8176  31643.9  178.171
 9.8596  31528.9  176.331
 9.9016  31061.6  175.002
 9.9436  30557.2  173.319
 9.9856  30677.4  174.109
 10.0276  30335.2  174.179
 10.0696  30390  173.394
 10.1116  29713.1  171.713
 10.1536  29792.3  171.617
 10.1956  29278.4  170.225
 10.2376  29109.8  169.258
 10.2796  28914.8  168.782
 10.3216  28722.9  168.368
 10.3636  28404  167.603
 10.4056  28338.1  167.793
 10.4476  28391.9  167.585
 10.4896  28859.1  168.403
 10.5316  28485.8  167.709
 10.5736  28003.3  167.008
 10.6156  27800.6  166.168
 10.6576  27853.4  164.903
 10.6996  27264  163.846
 10.7416  26716.6  162.4
 10.7836  26687.9  162.957
 10.8256  26060.4  161.442
 10.8676  26219.8  161.492
 10.9096  26046.1  160.998
 10.9516  25814.6  159.247
 10.9936  25906.7  159.74
 11.0356  25611.4  159.422
 11.0776  25297.5  157.789
 11.1196  24990.8  157.574
 11.1616  24660.8  156.204
 11.2036  24749.6  156.34
 11.2456  24792.4  157.161
 11.2876  25033.5  157.66
 11.3296  24571.1  156.116
 11.3716  24961.5  157.085
 11.4136  24843.8  157.542
 11.4556  24974  157.611
 11.4976  25638.9  158.704
 11.5396  25585.2  158.702
 11.5816  25654.3  159.345
 11.6236  24873.5  157.346
 11.6656  24885.7  156.354
 11.7076  24115.3  154.717
 11.7496  24164.6  158.808
 11.7916  24014.9  153.659
 11.8336  23366  152.464
 11.8756  23269.8  151.696
 11.9176  23410.1  151.828
 11.9596  23359  151.833
 12.0016  23242  152.182
 12.0436  23383.4  152.128
 12.0856  22982.6  151.307
 12.1276  22980.4  151.247
 12.1696  22961.5  150.324
 12.2116  22965  150.323
 12.2536  22906.3  150.925
 12.2956  22742  149.759
 12.3376  22998.3  150.811
 12.3796  22835.9  150.742
 12.4216  22911.7  150.202
 12.4636  22483.5  149.705
 12.5056  22783.2  149.983
 12.5476  23007.5  150.235
 12.5896  22526  149.284
 12.6316  22732  150.111
 12.6736  22550.4  149.985
 12.7156  22603.7  150.009
 12.7576  22727.5  150.661
 12.7996  22711.4  149.295
 12.8416  22546.2  149.759
 12.8836  22785.4  150.397
 12.9256  23297.5  151.128
 12.9676  23002.3  150.553
 13.0096  23318.9  152.692
 13.0516  23275.9  151.6
 13.0936  23156.6  151.329
 13.1356  23605  152.054
 13.1776  23085.9  151.363
 13.2196  23353.2  151.883
 13.2616  23025  151.114
 13.3036  23509.7  152.84
 13.3456  22919.8  150.882
 13.3876  23540.2  152.403
 13.4296  23105.3  151.15
 13.4716  23383.8  151.687
 13.5136  23312  151.568
 13.5556  23070.6  151.403
 13.5976  23349  152.486
 13.6396  23311.4  151.731
 13.6816  23485.8  152.643
 13.7236  23804.2  153.36
 13.7656  25399.9  158.893
 13.8076  26064.1  159.613
 13.8496  24714.9  156.272
 13.8916  23624.3  153.715
 13.9336  22887.5  150.591
 13.9756  22864.9  149.916
 14.0176  22597.9  149.696
 14.0596  22895.4  150.598
 14.1016  22600.2  150.054
 14.1436  22648.3  149.371
 14.1856  22092.8  147.806
 14.2276  22119.4  148.365
 14.2696  21861.5  147.347
 14.3116  21598.4  146.369
 14.3536  21499.1  146.197
 14.3956  21143.2  144.709
 14.4376  21632.4  146.172
 14.4796  21412.1  145.424
 14.5216  21206.6  145.491
 14.5636  20972.9  144.265
 14.6056  21069.3  144.181
 14.6476  21091.9  143.507
 14.6896  20602.2  142.362
 14.7316  20359.9  142.533
 14.7736  20180.4  141.06
 14.8156  19937.8  140.245
 14.8576  20094.4  140.649
 14.8996  19740.7  140.57
 14.9416  19281.9  138.946
 14.9836  19342.3  139.147
 15.0256  18755.2  135.957
 15.0676  18769.9  136.311
 15.1096  18714.5  135.854
 15.1516  18265.1  134.754
 15.1936  18151.5  133.785
 15.2356  18006  133.514
 15.2776  17989.1  133.055
 15.3196  17544.2  132.356
 15.3616  17523.4  132.045
 15.4036  17507.8  131.847
 15.4456  17866.8  132.855
 15.4876  17428.6  130.909
 15.5296  17327.8  130.801
 15.5716  17302.9  130.324
 15.6136  17072.9  129.771
 15.6556  17260.8  129.749
 15.6976  16860.5  128.311
 15.7396  16842.3  128.826
 15.7816  16849.7  128.378
 15.8236  16487.2  127.661
 15.8656  16745.7  128.456
 15.9076  16565.9  127.592
 15.9496  17153.8  132.609
 15.9916  16703.6  131.255
 16.0336  16947.9  129.14
 16.0756  16638.4  128.264
 16.1176  16498.5  127.642
 16.1596  16096.5  127.387
 16.2016  16132.4  126.319
 16.2436  16216.8  127.026
 16.2856  15985.4  125.637
 16.3276  15965.7  125.993
 16.3696  15975.5  125.849
 16.4116  15901.2  126.004
 16.4536  16110.5  126.637
 16.4956  15986.7  125.893
 16.5376  15789.3  125.297
 16.5796  15750.7  124.521
 16.6216  15816.3  125.035
 16.6636  15489.7  123.927
 16.7056  15656.8  124.457
 16.7476  15846.2  124.739
 16.7896  15607.5  124.53
 16.8316  15683.7  124.817
 16.8736  15761.7  125.366
 16.9156  15811.7  125.898
 16.9576  15433  125.146
 16.9996  15465.9  125.735
 17.0416  15633.9  124.832
 17.0836  15614.8  124.526
 17.1256  15438.9  123.831
 17.1676  15280.9  123.162
 17.2096  15270  123.011
 17.2516  15272.4  123.112
 17.2936  15093.5  122.432
 17.3356  14972.4  121.929
 17.3776  14880.4  121.737
 17.4196  14719.7  120.778
 17.4616  14867.7  121.295
 17.5036  14486.9  120.09
 17.5456  14587  121.118
 17.5876  14696.2  120.646
 17.6296  14742.5  120.651
 17.6716  14491  120.195
 17.7136  14338.9  119.698
 17.7556  14275.9  119.708
 17.7976  14169.9  118.863
 17.8396  14237.5  118.801
 17.8816  14171.6  119.081
 17.9236  14130.5  118.713
 17.9656  14147  119.444
 18.0076  14082.6  118.616
 18.0496  14127.9  117.961
 18.0916  14096.1  118.365
 18.1336  14049.8  118.26
 18.1756  14297.7  118.863
 18.2176  13989.1  117.777
 18.2596  14192.2  118.36
 18.3016  14205.3  118.676
 18.3436  14302.4  119.309
 18.3856  14079.3  118.281
 18.4276  14092.9  118.028
 18.4696  13897.8  117.292
 18.5116  13941.8  117.738
 18.5536  13888.6  117.874
 18.5956  13671.6  116.526
 18.6376  13593.9  116.577
 18.6796  13668.3  116.249
 18.7216  13575.3  116.386
 18.7636  13741.4  117.035
 18.8056  13495  115.9
 18.8476  13258.7  115.493
 18.8896  13373.3  115.34
 18.9316  13489.2  115.656
 18.9736  13449  115.361
 19.0156  13337  115.28
 19.0576  13481.3  114.781
 19.0996  13441  115.299
 19.1416  13380.6  115.432
 19.1836  13333  114.843
 19.2256  13320.8  115.003
 19.2676  13255.8  114.804
 19.3096  13212.4  114.854
 19.3516  13348.9  115.223
 19.3936  13071.6  114.093
 19.4356  13425.7  115.519
 19.4776  13251.8  114.858
 19.5196  13332.5  115.063
 19.5616  13128.9  114.428
 19.6036  13258.1  114.499
 19.6456  13291.5  114.761
 19.6876  13257.3  114.257
 19.7296  13475  115.649
 19.7716  13264.8  114.77
 19.8136  13633.4  116.689
 19.8556  13741.5  116.633
 19.8976  13517.2  115.744
 19.9396  13691.6  116.079
 19.9816  13720.8  116.448
 20.0236  13899.9  117.393
 20.0656  13921  117.486
 20.1076  13715.6  117.091
 20.1496  13482.4  116.078
 20.1916  13463.7  115.485
 20.2336  13251.3  114.516
 20.2756  12943.6  113.615
 20.3176  12929.8  113.318
 20.3596  12805.4  112.756
 20.4016  12892  112.945
 20.4436  12799.1  113.091
 20.4856  12895.8  113.305
 20.5276  12610  112.489
 20.5696  12719.6  112.54
 20.6116  12636.3  112.347
 20.6536  12524.8  111.416
 20.6956  12554.7  111.633
 20.7376  12437.2  111.301
 20.7796  12497.3  111.282
 20.8216  12587.3  111.406
 20.8636  12646.7  112.035
 20.9056  12553.6  111.551
 20.9476  12592.9  111.584
 20.9896  12683.5  111.846
 21.0316  12543.8  111.131
 21.0736  12433.9  111.147
 21.1156  12399.4  111.152
 21.1576  12589.6  112.045
 21.1996  12414.3  111.246
 21.2416  12563.1  111.74
 21.2836  12411.4  111.039
 21.3256  12461.8  111.336
 21.3676  12390.2  110.556
 21.4096  12162.2  109.9
 21.4516  12197.5  109.891
 21.4936  12012.8  109.311
 21.5356  12286.9  110.497
 21.5776  12253.9  110.18
 21.6196  12088  109.475
 21.6616  12172.3  109.936
 21.7036  12215.4  109.914
 21.7456  12239.4  110.092
 21.7876  12059.5  109.05
 21.8296  12032  108.777
 21.8716  12077.5  109.192
 21.9136  12182.1  109.876
 21.9556  12093.8  109.158
 21.9976  12016.9  108.837
 22.0396  11873.6  108.43
 22.0816  12019  109.592
 22.1236  12146.4  109.663
 22.1656  11998.6  109.177
 22.2076  11790.2  107.644
 22.2496  11838.9  107.895
 22.2916  11726.8  107.272
 22.3336  11746.5  108.041
 22.3756  11621.4  107.215
 22.4176  11686.3  107.365
 22.4596  11493.8  107.052
 22.5016  11611.4  107.117
 22.5436  11909.7  108.364
 22.5856  12029.9  109.149
 22.6276  12124.2  109.704
 22.6696  11978.6  109.387
 22.7116  11824.7  108.214
 22.7536  11950.3  108.764
 22.7956  11801.9  107.44
 22.8376  11695.7  107.463
 22.8796  11836.6  107.912
 22.9216  11772.8  108.15
 22.9636  11814.8  107.518
 23.0056  11900.3  108.039
 23.0476  11745.8  107.888
 23.0896  12035.4  108.602
 23.1316  11757.9  107.764
 23.1736  12029.8  111.881
 23.2156  12145.1  109.851
 23.2576  12318.3  110.77
 23.2996  12004.9  109.127
 23.3416  12260.8  110.811
 23.3836  12079.2  109.234
 23.4256  12166.7  109.75
 23.4676  12102.8  109.154
 23.5096  11969  109.2
 23.5516  11859.4  108.008
 23.5936  12180  110.359
 23.6356  12199.2  110.112
 23.6776  11946.2  109.17
 23.7196  12145.3  109.874
 23.7616  12040.9  109.107
 23.8036  12202.1  109.893
 23.8456  11888  108.027
 23.8876  12098  109.329
 23.9296  11837.1  108.623
 23.9716  11984.3  108.515
 24.0136  11832.5  108.708
 24.0556  11805  108.296
 24.0976  11730.6  107.78
 24.1396  11532.9  109.396
 24.1816  11682.8  108.885
 24.2236  11783.3  108.666
 24.2656  11518.6  106.929
 24.3076  11685.8  107.971
 24.3496  11584.6  107.375
 24.3916  11569.5  107.363
 24.4336  11706.8  108.191
 24.4756  11594.2  107.563
 24.5176  11395.4  106.275
 24.5596  11451  106.857
 24.6016  11155.9  105.547
 24.6436  11461.8  106.514
 24.6856  11288.4  105.446
 24.7276  11287.4  105.757
 24.7696  11133  105.146
 24.8116  11035.7  104.843
 24.8536  11008.9  104.734
 24.8956  11036.5  104.598
 24.9376  10941.7  104.325
 24.9796  10982.1  104.632
 25.0216  10989.2  104.781
 25.0636  10781.7  103.447
 25.1056  10792.7  103.914
 25.1476  10763.7  105.639
 25.1896  10755.2  104.135
 25.2316  10792.9  103.613
 25.2736  10842.6  103.506
 25.3156  10697.8  102.889
 25.3576  10706.6  103.35
 25.3996  10667.6  103.152
 25.4416  10656.1  103.07
 25.4836  10518.1  102.906
 25.5256  10589.2  102.623
 25.5676  10596.8  102.398
 25.6096  10360.8  101.815
 25.6516  10499.7  102.008
 25.6936  10566.3  102.645
 25.7356  10586.6  102.874
 25.7776  10531  102.279
 25.8196  10450.7  102.054
 25.8616  10355.8  101.523
 25.9036  10576.2  102.064
 25.9456  10420  101.885
 25.9876  10508.8  102.242
 26.0296  10480.3  101.858
 26.0716  10545.1  102.51
 26.1136  10390.4  101.671
 26.1556  10488.6  101.563
 26.1976  10304.4  101.568
 26.2396  10314.8  101.037
 26.2816  10413.1  101.874
 26.3236  10497.6  102.432
 26.3656  10460.6  101.989
 26.4076  10372.8  101.748
 26.4496  10589.1  102.418
 26.4916  10690.9  102.797
 26.5336  11010.1  104.665
 26.5756  11029.4  104.632
 26.6176  10421.7  101.727
 26.6596  10483.2  102.33
 26.7016  10232.2  100.862
 26.7436  10383.4  101.744
 26.7856  10137.4  100.519
 26.8276  10145.2  100.514
 26.8696  10169.2  100.506
 26.9116  10138.7  100.301
 26.9536  10132.3  100.315
 26.9956  9996.45  99.6733
 27.0376  10115.9  100.493
 27.0796  10173.8  100.584
 27.1216  10095.5  100.174
 27.1636  9931.75  99.5188
 27.2056  9994.62  99.7274
 27.2476  9953.31  99.4963
 27.2896  9926.64  99.4869
 27.3316  9875.3  98.9597
 27.3736  9785.35  98.7646
 27.4156  9954.98  99.459
 27.4576  9941.18  99.6085
 27.4996  10052.4  99.784
 27.5416  9790.93  98.765
 27.5836  9840.17  98.8652
 27.6256  9907.19  99.374
 27.6676  9731.97  98.4787
 27.7096  9774.9  98.5857
 27.7516  9723.82  98.4685
 27.7936  10082  100.406
 27.8356  9895.96  99.0988
 27.8776  10086.9  100.122
 27.9196  9731.24  98.1952
 27.9616  9754.9  98.5137
 28.0036  9719.45  98.2914
 28.0456  9645.29  98.0514
 28.0876  9737.7  98.6045
 28.1296  9609.78  97.7927
 28.1716  9739.85  98.4763
 28.2136  9707.11  98.2759
 28.2556  9686.37  98.2862
 28.2976  9495.84  97.3046
 28.3396  9493.38  97.0943
 28.3816  9626.66  97.7458
 28.4236  9419.3  96.8318
 28.4656  9439.51  96.9822
 28.5076  9610.17  97.4883
 28.5496  9527.95  97.3215
 28.5916  9598.7  97.5056
 28.6336  9546.77  97.5794
 28.6756  9503.2  96.5707
 28.7176  9421.51  96.691
 28.7596  9375.09  96.3563
 28.8016  9383.19  96.4279
 28.8436  9271.89  96.0866
 28.8856  9404.91  96.6333
 28.9276  9338.88  96.5322
 28.9696  9386.66  96.4405
 29.0116  9235.06  95.8383
 29.0536  9212.03  95.9259
 29.0956  9330.3  96.2409
 29.1376  9249.66  95.795
 29.1796  9299.89  96.1099
 29.2216  9323.95  96.0698
 29.2636  9286.25  95.8792
 29.3056  9233.08  95.4722
 29.3476  9266.85  96.1576
 29.3896  9240.22  96.1322
 29.4316  8984.86  94.1405
 29.4736  8991.99  94.2432
 29.5156  9074.82  94.6005
 29.5576  8978.11  94.8052
 29.5996  9020.79  94.3145
 29.6416  8934.02  93.971
 29.6836  9104.38  94.796
 29.7256  9045.91  95.0396
 29.7676  8857.26  93.7172
 29.8096  8961.78  94.2133
 29.8516  8898.78  94.2061
 29.8936  8935.43  94.4852
 29.9356  8818.92  93.6336
 29.9776  8668.48  92.9669
 30.0196  8826.15  93.2324
 30.0616  8889.09  93.9244
 30.1036  8989.2  94.2809
 30.1456  8865.26  93.8557
 30.1876  8801.88  93.4972
 30.2296  8734.81  93.0931
 30.2716  8843.6  93.319
 30.3136  8914.41  94.5236
 30.3556  9093.5  95.4726
 30.3976  9012.92  96.5093
 30.4396  9338.57  95.6369
 30.4816  9102  94.0187
 30.5236  9221.66  94.636
 30.5656  9101.48  94.6647
 30.6076  8901.7  93.3937
 30.6496  9034.75  94.1493
 30.6916  8881.96  93.4343
 30.7336  8996.96  94.1785
 30.7756  9119.55  94.9034
 30.8176  8986.96  94.1431
 30.8596  9071.45  94.3272
 30.9016  9015.34  93.9277
 30.9436  9058.99  94.38
 30.9856  9055.69  94.4653
 31.0276  8851.16  93.0367
 31.0696  8962.25  94.1695
 31.1116  8858.97  93.5931
 31.1536  8806.44  93.201
 31.1956  8916.32  93.8691
 31.2376  8721.28  92.8496
 31.2796  8943.15  93.5744
 31.3216  8992.68  93.7534
 31.3636  8934.33  94.1382
 31.4056  8908.14  95.2668
 31.4476  8815.95  92.7513
 31.4896  8895  93.6555
 31.5316  8986.93  93.596
 31.5736  9126.51  94.112
 31.6156  9015.81  93.5384
 31.6576  9141.64  94.2783
 31.6996  9107.14  93.769
 31.7416  8953.68  93.9078
 31.7836  8925.84  92.9165
 31.8256  8827.99  92.7438
 31.8676  8961.14  93.3406
 31.9096  8791.48  92.6665
 31.9516  8656.36  92.2751
 31.9936  8685.62  92.2497
 32.0356  8913.95  93.5063
 32.0776  8852.87  93.0916
 32.1196  9128.13  94.5424
 32.1616  8836.57  92.5592
 32.2036  8879.74  93.297
 32.2456  8712.72  92.7828
 32.2876  8739.99  92.2654
 32.3296  8632.97  91.8313
 32.3716  8531.7  91.3993
 32.4136  8548.8  91.6917
 32.4556  8651.52  91.6911
 32.4976  8669.29  91.6893
 32.5396  8545.47  91.0458
 32.5816  8625.18  91.6018
 32.6236  8679.75  91.9355
 32.6656  8656.87  92.3628
 32.7076  8465.95  90.9932
 32.7496  8471.9  90.7108
 32.7916  8677.14  91.7702
 32.8336  8554.53  91.2054
 32.8756  8666.97  91.5319
 32.9176  8437.64  90.7856
 32.9596  8458.8  90.9669
 33.0016  8556.69  91.2738
 33.0436  8525.22  91.2669
 33.0856  8475.69  91.1025
 33.1276  8346.56  90.144
 33.1696  8583.7  91.2474
 33.2116  8484.67  90.9515
 33.2536  8667.47  91.9025
 33.2956  8519.64  91.2088
 33.3376  8360.77  90.1865
 33.3796  8503.87  91.086
 33.4216  8491.53  90.6169
 33.4636  8502.72  90.8272
 33.5056  8430.26  90.6776
 33.5476  8454.25  90.7881
 33.5896  8469.46  90.6462
 33.6316  8441.32  90.8196
 33.6736  8329.29  90.4561
 33.7156  8299.26  90.3219
 33.7576  8372.24  90.3714
 33.7996  8372.01  90.1326
 33.8416  8170.54  89.226
 33.8836  8227.58  89.3161
 33.9256  8319.32  89.8723
 33.9676  8350.3  89.9396
 34.0096  8250.11  89.7059
 34.0516  8214.55  89.1508
 34.0936  8193.68  89.3065
 34.1356  8315.14  89.7083
 34.1776  8153.42  88.8269
 34.2196  8200.81  89.2726
 34.2616  8091.26  88.8035
 34.3036  8251.84  89.9166
 34.3456  8158.87  89.1693
 34.3876  8308.03  90.0453
 34.4296  8224.18  89.2005
 34.4716  8330.92  89.9238
 34.5136  8200.86  89.4078
 34.5556  8112.41  89.1621
 34.5976  8372.87  90.4319
 34.6396  8178.53  89.0692
 34.6816  8224.59  89.4285
 34.7236  8243.94  89.3178
 34.7656  8229.75  89.4371
 34.8076  8114.37  89.1346
 34.8496  8113.2  88.9783
 34.8916  8172.23  89.165
 34.9336  8202.16  89.3118
 34.9756  8305.05  89.8205
 35.0176  8249.74  90.0113
 35.0596  8308.98  90.1646
 35.1016  8037.78  88.4387
 35.1436  8343.83  89.801
 35.1856  8222.36  89.2577
 35.2276  8124.49  88.887
 35.2696  8139.79  89.1726
 35.3116  8108.06  89.0994
 35.3536  8200.8  89.3485
 35.3956  8027.84  88.0939
 35.4376  8130.34  89.2037
 35.4796  8119.41  89.1737
 35.5216  7929.94  88.1051
 35.5636  7840.52  88.3163
 35.6056  8016.98  88.3532
 35.6476  8143.73  88.9445
 35.6896  8223.95  89.5501
 35.7316  8049.49  88.5022
 35.7736  8061.67  88.7544
 35.8156  8066.56  88.7808
 35.8576  8135.39  89.3939
 35.8996  8169.92  89.5606
 35.9416  8027.05  88.288
 35.9836  7906.43  88.0649
 36.0256  8121.84  89.1634
 36.0676  8207.03  89.1481
 36.1096  8091.71  88.9027
 36.1516  8139.89  89.0603
 36.1936  8101.18  88.6661
 36.2356  8073.71  89.179
 36.2776  8026.05  88.3799
 36.3196  7989.04  87.8786
 36.3616  7980.75  87.9506
 36.4036  7997.54  88.1157
 36.4456  8038.89  88.5525
 36.4876  7882.53  87.619
 36.5296  7975  88.1785
 36.5716  7992.94  89.0289
 36.6136  7969.3  87.7108
 36.6556  7798.06  86.9544
 36.6976  7713.86  86.9615
 36.7396  7830.03  87.3555
 36.7816  7670.87  86.8249
 36.8236  7729.73  87.0824
 36.8656  7702.92  86.9946
 36.9076  7746.09  87.2479
 36.9496  7581.34  86.1848
 36.9916  7620.41  86.0446
 37.0336  7754.57  87.1066
 37.0756  7874.02  87.5721
 37.1176  7520.92  85.8436
 37.1596  7544.95  85.9873
 37.2016  7557.44  86.2224
 37.2436  7634.1  86.0449
 37.2856  7625.7  86.2462
 37.3276  7587.58  85.4085
 37.3696  7594.68  86.3024
 37.4116  7599.87  86.2456
 37.4536  7640.95  86.3467
 37.4956  7594.18  86.1276
 37.5376  7782.43  88.7539
 37.5796  7824.74  88.916
 37.6216  7711.86  86.5853
 37.6636  7822.82  87.0966
 37.7056  7625.93  86.183
 37.7476  7938.04  87.4731
 37.7896  7720.38  86.7602
 37.8316  7656.08  86.5369
 37.8736  7688.04  86.2642
 37.9156  7712.43  86.3894
 37.9576  7836.95  87.0089
 37.9996  7677.02  85.8347
 38.0416  7704.51  86.7787
 38.0836  7795  87.1837
 38.1256  7647.8  86.3383
 38.1676  7553.4  85.9019
 38.2096  7849.64  87.2102
 38.2516  7614.39  86.1033
 38.2936  7927.77  87.6562
 38.3356  7685.34  86.2387
 38.3776  7613.63  86.0681
 38.4196  7733.81  86.6114
 38.4616  7718.27  86.7698
 38.5036  7866.61  87.4453
 38.5456  7602.01  86.7661
 38.5876  7603.88  86.7954
 38.6296  7657.38  86.0919
 38.6716  7535.91  85.2168
 38.7136  7457.25  84.7202
 38.7556  7584.56  85.9287
 38.7976  7661.72  86.3002
 38.8396  7567.5  86.215
 38.8816  7519.67  85.7414
 38.9236  7669.9  86.3948
 38.9656  7623.97  86.0487
 39.0076  7711.77  85.9495
 39.0496  7784.89  86.9146
 39.0916  7683.49  85.9929
 39.1336  7622.96  86.0551
 39.1756  7652.15  86.2766
 39.2176  7513.76  86.0143
 39.2596  7573.34  86.2757
 39.3016  7561.26  85.8112
 39.3436  7448.46  85.5677
 39.3856  7685.77  86.3684
 39.4276  7850.08  87.7999
 39.4696  7747.78  86.841
 39.5116  7711.9  87.153
 39.5536  7720.11  87.6103
 39.5956  7592.19  86.0069
 39.6376  7540.62  85.7126
 39.6796  7549.32  85.514
 39.7216  7543.91  85.5827
 39.7636  7662.66  86.8048
 39.8056  7693.82  86.7753
 39.8476  7519.2  86.0262
 39.8896  7599.96  86.1276
 39.9316  7532.56  85.9782
 39.9736  7602.51  85.9684
 40.0156  7466.37  85.0316
 40.0576  7505.45  85.5954
 40.0996  7639.19  85.5577
 40.1416  7613.18  86.1918
 40.1836  7651.99  86.3002
 40.2256  7534.97  85.6618
 40.2676  7557.44  85.9667
 40.3096  7574.17  85.9182
 40.3516  7611.8  86.2571
 40.3936  7695.95  86.2919
 40.4356  7557.85  85.7104
 40.4776  7610.98  86.2473
 40.5196  7543.9  86.1453
 40.5616  7781.9  87.1466
 40.6036  7573.3  86.2179
 40.6456  7579.09  85.8537
 40.6876  7629.65  86.1427
 40.7296  7649.4  86.3865
 40.7716  7589.27  86.158
 40.8136  7510.71  85.6607
 40.8556  7668.47  86.6982
 40.8976  7559.31  86.0004
 40.9396  7551.33  86.2946
 40.9816  7629.48  86.0462
 41.0236  7635.12  85.8631
 41.0656  7627.42  86.3443
 41.1076  7617.12  86.061
 41.1496  7587.78  85.8067
 41.1916  7562.2  85.9593
 41.2336  7617.51  86.2848
 41.2756  7602.23  85.8128
 41.3176  7552.84  86.1166
 41.3596  7651.02  86.4196
 41.4016  7540.15  86.0412
 41.4436  7620.16  86.293
 41.4856  7611.86  86.4104
 41.5276  7576.65  86.2223
 41.5696  7605.02  86.0131
 41.6116  7634.38  86.5707
 41.6536  7554.82  85.9768
 41.6956  7695.25  86.7605
 41.7376  7544.31  86.0101
 41.7796  7454.1  85.419
 41.8216  7662.67  86.7915
 41.8636  7559.86  86.1516
 41.9056  7482.83  85.5084
 41.9476  7571.4  86.2492
 41.9896  7618.65  86.1809
 42.0316  7653.36  86.4674
 42.0736  7602.59  86.3079
 42.1156  7580  85.9818
 42.1576  7548.11  85.9114
 42.1996  7731.57  87.0717
 42.2416  7578.22  85.8043
 42.2836  7545.42  85.7303
 42.3256  7558.77  85.9131
 42.3676  7713.9  86.6055
 42.4096  7607.92  85.9736
 42.4516  7678.19  86.4428
 42.4936  7448.96  85.2186
 42.5356  7487.12  85.5696
 42.5776  7583.33  86.0606
 42.6196  7523.28  85.7739
 42.6616  7383.21  85.1345
 42.7036  7483.83  85.1109
 42.7456  7556.08  85.8719
 42.7876  7375.57  84.913
 42.8296  7548.95  85.7577
 42.8716  7375.78  84.9302
 42.9136  7428.1  84.9846
 42.9556  7471.13  85.398
 42.9976  7542.87  85.7709
 43.0396  7416.38  84.7915
 43.0816  7334.46  84.6918
 43.1236  7417.84  85.2222
 43.1656  7408.49  84.9929
 43.2076  7510.16  85.6833
 43.2496  7483.66  85.3599
 43.2916  7331.43  84.8342
 43.3336  7367.28  84.8853
 43.3756  7527.35  85.564
 43.4176  7369.22  84.7323
 43.4596  7443.56  85.0159
 43.5016  7446.43  85.4304
 43.5436  7405.96  85.1069
 43.5856  7371.8  84.9401
 43.6276  7321.19  84.54
 43.6696  7325.82  84.7054
 43.7116  7404.24  84.7816
 43.7536  7492.07  85.7699
 43.7956  7241.92  85.5075
 43.8376  7216.01  83.9095
 43.8796  7325.8  84.625
 43.9216  7186.1  83.7375
 43.9636  7305.62  84.5327
 44.0056  7357.46  85.0615
 44.0476  7233.63  83.9848
 44.0896  7068.95  83.3486
 44.1316  7238.24  84.013
 44.1736  7129.67  83.3719
 44.2156  7259.57  83.9794
 44.2576  7215.67  84.043
 44.2996  7204.94  83.9489
 44.3416  7163.86  83.4806
 44.3836  7107.19  83.4685
 44.4256  7206.26  83.7021
 44.4676  7171.02  83.649
 44.5096  7202.21  83.9707
 44.5516  7172.85  83.7648
 44.5936  7080.6  83.1798
 44.6356  7236.02  83.8296
 44.6776  7195.6  83.9037
 44.7196  7211.91  84.3029
 44.7616  7239.27  85.7658
 44.8036  7286.35  84.7037
 44.8456  7418.07  85.4654
 44.8876  7273.62  84.4738
 44.9296  7356.33  84.4017
 44.9716  7397.15  85.0635
 45.0136  7351.37  84.7368
 45.0556  7217.98  84.0573
 45.0976  7305.68  84.623
 45.1396  7279.36  84.2157
 45.1816  7246.31  83.9693
 45.2236  7317.11  84.2881
 45.2656  7146.22  83.7778
 45.3076  7140.04  83.5254
 45.3496  7209.77  84.2394
 45.3916  7210.56  84.5122
 45.4336  7316.32  84.9779
 45.4756  7296.37  84.7107
 45.5176  7329.43  84.5307
 45.5596  7295.84  84.4554
 45.6016  7101.88  83.7353
 45.6436  7227.21  83.6526
 45.6856  7206.68  84.1841
 45.7276  7088.05  84.7602
 45.7696  7196.65  85.1018
 45.8116  7249.66  84.8439
 45.8536  7098.05  83.8599
 45.8956  7203.19  83.839
 45.9376  7262.4  83.652
 45.9796  7338.18  84.7864
 46.0216  7160.51  84.0733
 46.0636  7399.74  84.6099
 46.1056  7381.69  84.4984
 46.1476  7321.77  84.7423
 46.1896  7194.15  84.1436
 46.2316  7186.39  83.9628
 46.2736  7276.89  84.7089
 46.3156  7133.1  83.6155
 46.3576  7250.12  84.4998
 46.3996  7169.78  84.177
 46.4416  7183.02  83.8293
 46.4836  7215.61  84.3937
 46.5256  7265.41  84.6231
 46.5676  7179.64  84.2365
 46.6096  7116.57  83.7824
 46.6516  7286.25  83.8377
 46.6936  7169.35  83.6515
 46.7356  7310.37  84.5574
 46.7776  7096.8  84.1512
 46.8196  7040.37  83.5663
 46.8616  7109.27  83.7838
 46.9036  6960.67  82.5657
 46.9456  7230.29  83.7909
 46.9876  7123.86  83.2478
 47.0296  7013.15  83.2829
 47.0716  7009.54  83.088
 47.1136  7122.84  83.4383
 47.1556  7170.75  83.5852
 47.1976  7131.61  83.5098
 47.2396  7074.79  83.499
 47.2816  7032.2  82.9503
 47.3236  7025.03  83.2717
 47.3656  7072.87  83.4774
 47.4076  7177.56  83.8317
 47.4496  7045.38  83.2234
 47.4916  7083.41  83.6384
 47.5336  7127.49  83.7177
 47.5756  7199.66  84.249
 47.6176  6967.79  82.7845
 47.6596  7066.95  83.086
 47.7016  7240.66  83.9237
 47.7436  7119.93  83.5555
 47.7856  7138.55  83.6809
 47.8276  7058.82  83.268
 47.8696  7138.67  83.8239
 47.9116  7196.66  83.8787
 47.9536  7088.65  83.1831
 47.9956  6936.98  82.9892
 48.0376  6946.51  82.817
 48.0796  7061.07  83.6284
 48.1216  7074.15  83.5281
 48.1636  7187.13  83.7648
 48.2056  7081.05  83.4063
 48.2476  7232.36  84.603
 48.2896  7200.72  84.3231
 48.3316  7152.33  83.9903
 48.3736  7065.02  83.4894
 48.4156  6985.62  82.8794
 48.4576  7141  84.0869
 48.4996  7156.79  83.6348
 48.5416  7190.08  84.1594
 48.5836  7090.08  83.2499
 48.6256  7187.75  84.0284
 48.6676  7068.62  83.8351
 48.7096  7036.62  82.9209
 48.7516  7149.89  83.7399
 48.7936  6937.35  82.5413
 48.8356  6937.22  82.5951
 48.8776  7031.83  83.6426
 48.9196  7213.09  84.1615
 48.9616  7030.64  83.4733
 49.0036  7040.25  83.8745
 49.0456  6997.79  83.5929
 49.0876  6994.28  83.2156
 49.1296  6949.99  83.0067
 49.1716  6881.89  82.4875
 49.2136  7045.93  83.3754
 49.2556  7046.32  83.4166
 49.2976  7086.66  83.7254
 49.3396  7026.04  83.4226
 49.3816  7196.81  83.8575
 49.4236  7128.87  83.8813
 49.4656  6883.42  82.4457
 49.5076  7098.65  83.4732
 49.5496  7060.46  83.3142
 49.5916  7067.89  83.2758
 49.6336  7035.65  83.2932
 49.6756  6989.32  83.2415
 49.7176  6951.9  82.9599
 49.7596  7018.45  83.1312
 49.8016  7070.76  83.3531
 49.8436  6936.59  82.8551
 49.8856  7042.69  83.4898
 49.9276  6880.48  82.6221
 49.9696  7042.25  83.565
 50.0116  6914.65  82.935
 50.0536  6979.35  83.272
 50.0956  6944.09  83.1356
 50.1376  7001.01  83.1751
 50.1796  6942.33  83.094
 50.2216  6869.73  82.6476
 50.2636  6968.96  82.8655
 50.3056  6919.93  82.7505
 50.3476  6984.25  83.1533
 50.3896  7043.62  83.4794
 50.4316  6915.96  82.5406
 50.4736  6782.15  81.9646
 50.5156  6914.27  82.7463
 50.5576  6921.33  82.5509
 50.5996  6907.88  82.7588
 50.6416  6863.65  82.4179
 50.6836  6965.88  83.087
 50.7256  6972.43  83.0508
 50.7676  7104.44  84.1167
 50.8096  6933.01  82.6505
 50.8516  6885.42  82.8062
 50.8936  6895.06  82.6464
 50.9356  6998.1  83.3648
 50.9776  6803.32  82.3553
 51.0196  6681.78  81.7343
 51.0616  6789.18  81.7169
 51.1036  6844.71  82.4092
 51.1456  6895.94  82.6252
 51.1876  6749.45  81.0846
 51.2296  6834.66  82.2392
 51.2716  6685.76  81.0456
 51.3136  6642.02  81.2342
 51.3556  6749.74  81.5144
 51.3976  6732.51  81.5594
 51.4396  6498.56  80.4336
 51.4816  6722.49  81.6605
 51.5236  6815.9  82.3111
 51.5656  6706.26  81.2451
 51.6076  6750.07  81.5944
 51.6496  6599.77  80.8733
 51.6916  6724.01  81.9843
 51.7336  6633.6  81.5229
 51.7756  6760.2  81.9903
 51.8176  6640.63  81.3726
 51.8596  6681.76  81.6393
 51.9016  6739.47  81.5991
 51.9436  6708.04  82.9002
 51.9856  6704.64  83.2726
 52.0276  6828.83  82.546
 52.0696  6868.88  82.857
 52.1116  6682.92  81.8431
 52.1536  6800.09  82.3884
 52.1956  6747.86  81.5884
 52.2376  6943.3  82.938
 52.2796  6845.5  82.1685
 52.3216  6670.02  81.7899
 52.3636  6809.56  82.1986
 52.4056  6805.72  82.0518
 52.4476  6680.18  81.6452
 52.4896  6638.58  81.4324
 52.5316  6874.3  82.9255
 52.5736  6627.36  81.1479
 52.6156  6815.93  82.6923
 52.6576  6711.44  81.4908
 52.6996  6617.56  81.8988
 52.7416  6631.43  81.8392
 52.7836  6818.25  82.8694
 52.8256  6782.85  81.8555
 52.8676  6680.43  81.8257
 52.9096  6651.25  81.7135
 52.9516  6725.74  82.5584
 52.9936  6659.96  82.521
 53.0356  6738.55  82.0122
 53.0776  6748.98  82.3686
 53.1196  6684.22  82.0657
 53.1616  6726.22  82.3702
 53.2036  6775.17  82.6373
 53.2456  6716.97  82.3874
 53.2876  6640.79  81.605
 53.3296  6649.67  81.9892
 53.3716  6739.64  82.2952
 53.4136  6594.44  81.5462
 53.4556  6661.59  81.9965
 53.4976  6599.61  81.4508
 53.5396  6665.01  82.2574
 53.5816  6687.87  82.0336
 53.6236  6539.89  81.4632
 53.6656  6738.1  82.2798
 53.7076  6805.71  82.6488
 53.7496  6575.1  81.3794
 53.7916  6614.35  81.7617
 53.8336  6726.97  82.3441
 53.8756  6439.28  81.1067
 53.9176  6559.55  81.1971
 53.9596  6401.13  80.9687
 54.0016  6438.03  80.5384
 54.0436  6318.83  80.0099
 54.0856  6541.61  80.8277
 54.1276  6400.57  80.147
 54.1696  6404.24  80.3199
 54.2116  6479.11  80.5557
 54.2536  6377.64  79.7393
 54.2956  6400.1  79.9226
 54.3376  6371.38  80.2328
 54.3796  6355.23  80.0118
 54.4216  6364.58  80.1266
 54.4636  6304.47  79.7157
 54.5056  6414.54  80.2321
 54.5476  6289.51  79.7818
 54.5896  6198.49  79.0409
 54.6316  6418.67  80.2755
 54.6736  6373.69  80.0289
 54.7156  6313.52  79.7284
 54.7576  6254.17  79.3176
 54.7996  6442.75  80.6846
 54.8416  6363.1  80.213
 54.8836  6327.76  80.0787
 54.9256  6195.82  79.0089
 54.9676  6210.77  78.9834
 55.0096  6343.14  79.8522
 55.0516  6151.49  78.8028
 55.0936  6296.14  79.4637
 55.1356  6162.85  78.6521
 55.1776  6336.66  79.9909
 55.2196  6330.13  79.7339
 55.2616  6345.49  80.0574
 55.3036  6190.37  79.231
 55.3456  6060.4  78.5388
 55.3876  6202.21  79.1693
 55.4296  6138.99  78.7834
 55.4716  6236.66  79.4297
 55.5136  6222.79  79.0902
 55.5556  6329.13  79.8376
 55.5976  6180.39  78.9696
 55.6396  6222.35  79.0781
 55.6816  6222.65  79.0442
 55.7236  6079.17  78.19
 55.7656  6194.37  78.651
 55.8076  6202.35  78.704
 55.8496  6232.64  79.3249
 55.8916  6154.07  78.8636
 55.9336  6319.2  79.7888
 55.9756  6092.19  78.2226
 56.0176  6100.81  78.4199
 56.0596  6152.81  78.7621
 56.1016  6028.74  78.0037
 56.1436  6078.86  78.5553
 56.1856  6056.07  78.1525
 56.2276  6259.89  79.5014
 56.2696  6114.18  78.5521
 56.3116  6218.01  79.5842
 56.3536  6079.51  78.379
 56.3956  6044.74  78.123
 56.4376  6058.14  78.2587
 56.4796  6010.47  77.7683
 56.5216  6021.52  78.2068
 56.5636  6029.56  77.8513
 56.6056  6120.15  78.673
 56.6476  5977.85  77.3505
 56.6896  6182.19  79.1287
 56.7316  6014.83  77.9575
 56.7736  6075.38  78.3427
 56.8156  6069.6  78.347
 56.8576  5854.11  76.8724
 56.8996  5999.78  77.7434
 56.9416  6031.37  78.2602
 56.9836  6104.41  78.2549
 57.0256  6035.65  78.1209
 57.0676  6165.13  79.0573
 57.1096  6042.9  78.0701
 57.1516  5912.33  77.2513
 57.1936  5993.12  77.5525
 57.2356  5917.42  77.3963
 57.2776  6040.26  78.1544
 57.3196  5949.3  77.8956
 57.3616  6010.64  77.8134
 57.4036  6045.75  78.1043
 57.4456  6086.27  78.3363
 57.4876  6070.52  78.1161
 57.5296  5943.31  77.5008
 57.5716  5953.88  77.6667
 57.6136  5867.95  76.9553
 57.6556  6063.63  78.3441
 57.6976  5931.05  77.3252
 57.7396  5884.51  77.3633
 57.7816  5851.86  77.5086
 57.8236  5830.93  77.1627
 57.8656  5954.86  77.6447
 57.9076  5873.02  77.1303
 57.9496  5836.06  77.2258
 57.9916  6019.15  77.9465
 58.0336  5895.75  77.4293
 58.0756  5974.56  77.5172
 58.1176  5962.31  77.4951
 58.1596  5879.08  77.5357
 58.2016  5752.93  75.9389
 58.2436  5795.25  76.6195
 58.2856  5651.97  75.588
 58.3276  5607.77  75.6497
 58.3696  5633.15  75.5802
 58.4116  5722.74  76.0438
 58.4536  5711.49  75.8605
 58.4956  5680.78  75.8338
 58.5376  5754.33  75.895
 58.5796  5555.07  74.9831
 58.6216  5632.85  75.3345
 58.6636  5658.32  75.6993
 58.7056  5714.14  75.9376
 58.7476  5577.61  75.4536
 58.7896  5568.51  75.052
 58.8316  5667.3  75.7077
 58.8736  5688.63  75.8627
 58.9156  5620.79  75.449
 58.9576  5713.73  76.3855
 58.9996  5749.04  75.8875
 59.0416  5662.47  75.6663
 59.0836  5759.51  76.2223
 59.1256  5650.65  76.1832
 59.1676  5682.75  76.701
 59.2096  5804.54  76.8443
 59.2516  5701.19  75.75
 59.2936  5615.09  75.4922
 59.3356  5594.13  75.2335
 59.3776  5647.75  75.7566
 59.4196  5584.59  75.2698
 59.4616  5575.41  75.0739
 59.5036  5463.62  74.3512
 59.5456  5724.88  75.8094
 59.5876  5688.96  75.7566
 59.6296  5522.56  74.7067
 59.6716  5582.54  75.167
 59.7136  5713.67  76.0333
 59.7556  5600.22  75.4061
 59.7976  5443  74.0953
 59.8396  5553.19  74.7402
 59.8816  5635.51  75.8192
 59.9236  5537.23  74.8137
 59.9656  5648.33  75.8127
 60.0076  5532.84  74.4184
 60.0496  5598.62  75.3441
 60.0916  5780.17  75.9873
 60.1336  5555.58  75.5584
 60.1756  5443.24  75.9148
 60.1996  0.0000000E+00  0.0000000E+00