File: docs/examples/opeando_xrd/IS17_D/Data/IS17_D/17_Da_f00048.xye
# /beamlines/bl04/projects/cycle2025-II/20250340211-lsimonelli/DATA/IS17_D/17_Da_f00048.xye : mythproc.py merge -s 0.006 -l 0.5 -f /beamlines/bl04/inhouse/ff/FlatField/ff_20Nov2024rod8mm60s_17keV.raw -b True -c true -o xye /beamlines/bl04/projects/cycle2025-II/20250340211-lsimonelli/DATA/IS17_D/17_Da_00048.dat
# IsMon = [6745291, 6745748, 6746774]  IsPos = [-1.4999, -2.4885, -3.4988]
# Wave = 0.4962  CalPath /beamlines/bl04/projects/cycle2025-II/20250340211-lsimonelli/DATA/Align/Si_Pos1_25keV_f00001.cal
# Date = 2025-09-24_06:56:18 Dt = 4.8000  Bin = 0.0060  <imon> = 6745938 +/- 620 (Min/Max) 6745291 / 6746774
# icurr 248.7630  mocoIn 1.6982E-05  mocoOut 0.7961  i15 7.06412e+06  imon 6.74594e+06  i7 5.0000  iEMpd_timer 4.8000  iEMpd_1 3.5630E-08  iEMpd_2 7.8681E-08  iEMpd_3 1.7045E-08  iEMpd_4 4.8270E-08  iEMhp_timer 4.8000  iEMhp_1 4.8621E-06  iEMhp_2 -2.4093E-08  iEMhp_3 -2.2356E-08  iEMhp_4 -2.0630E-08
#      9776
 1.5856  40951.3  207.806
 1.6276  48313.6  221.841
 1.6696  54870.2  235.581
 1.7116  63488.8  253.904
 1.7536  72608.7  270.372
 1.7956  77548.1  280.115
 1.8376  73539.2  273.211
 1.8796  62443.9  249.914
 1.9216  50939.4  226.614
 1.9636  42659.4  206.529
 2.0056  38663.8  195.858
 2.0476  35783.1  190.486
 2.0896  34697.4  186.474
 2.1316  33475.6  182.281
 2.1736  32144.3  180.037
 2.2156  32782.4  180.356
 2.2576  31477.3  177.362
 2.2996  30823.8  176.156
 2.3416  30778.4  174.623
 2.3836  29976.4  172.438
 2.4256  29605.7  171.926
 2.4676  28615.9  168.788
 2.5096  28641.3  168.919
 2.5516  27984.7  170.83
 2.5936  28033.9  167.535
 2.6356  27690.5  167.208
 2.6776  27432.5  165.298
 2.7196  27040.3  164.638
 2.7616  27145.1  164.728
 2.8036  26627  163.323
 2.8456  26618.1  163.922
 2.8876  26019.7  161.919
 2.9296  25681.5  161.017
 2.9716  25530.8  160.027
 3.0136  25118.9  158.799
 3.0556  25502.5  160.409
 3.0976  25168.9  158.269
 3.1396  25080.6  158.731
 3.1816  24620.2  157.197
 3.2236  24503.5  156.824
 3.2656  24600.7  156.154
 3.3076  24051.2  155.868
 3.3496  24455.4  156.346
 3.3916  24695.6  156.683
 3.4336  25117.6  158.602
 3.4756  25639.9  160.166
 3.5176  26103.8  161.403
 3.5596  25988.3  163.497
 3.6016  26422.7  162.439
 3.6436  25397.2  160.367
 3.6856  25025.1  157.475
 3.7276  23949.3  155.144
 3.7696  23871.9  155.088
 3.8116  23291.9  153.079
 3.8536  23540  153.819
 3.8956  23448.3  153.348
 3.9376  23468.8  153.671
 3.9796  23243.3  152.434
 4.0216  23426.4  152.063
 4.0636  23205.5  152.827
 4.1056  23331.6  152.88
 4.1476  23545.3  153.898
 4.1896  23612.4  153.97
 4.2316  23940.4  154.863
 4.2736  24467.7  156.345
 4.3156  24341.4  156.17
 4.3576  25125.3  158.595
 4.3996  25577.4  160.277
 4.4416  26038.2  161.29
 4.4836  26429.7  162.653
 4.5256  26681.5  164.039
 4.5676  26946.6  165.11
 4.6096  27304.4  164.852
 4.6516  27731.6  165.842
 4.6936  27666.1  166.461
 4.7356  27988.7  167.253
 4.7776  28031.9  167.216
 4.8196  27475.4  166.198
 4.8616  27064.5  164.563
 4.9036  26866.7  163.576
 4.9456  26866.1  164.225
 4.9876  26045.2  161.599
 5.0296  26444.4  162.655
 5.0716  26481.3  163.395
 5.1136  26403  163.014
 5.1556  26931.8  164.093
 5.1976  27337.8  165.322
 5.2396  27384.2  165.157
 5.2816  27311.7  165.399
 5.3236  27245.8  164.906
 5.3656  26932.8  164.879
 5.4076  26536.9  163.816
 5.4496  26661.6  163.682
 5.4916  26894.4  164.154
 5.5336  26969.2  164.39
 5.5756  26647.9  163.435
 5.6176  26990.3  163.914
 5.6596  27063.5  165.112
 5.7016  27140.6  164.615
 5.7436  27331.2  165.466
 5.7856  27223.1  165.201
 5.8276  27432.2  165.552
 5.8696  27743.7  166.658
 5.9116  27485.7  166.487
 5.9536  27839.9  167.307
 5.9956  28386.7  168.309
 6.0376  28132.5  168.185
 6.0796  28539.4  169.228
 6.1216  28547.4  169.457
 6.1636  28885.4  169.51
 6.2056  28740.1  169.755
 6.2476  28797.7  169.799
 6.2896  29361  171.13
 6.3316  29044.7  170.378
 6.3736  29230.8  170.818
 6.4156  29284.4  170.869
 6.4576  29414.7  170.855
 6.4996  29809.6  172.481
 6.5416  29727.1  172.38
 6.5836  29742.7  172.656
 6.6256  29835.2  172.486
 6.6676  30573.1  174.169
 6.7096  30270.2  174.163
 6.7516  30673.3  174.972
 6.7936  30800  174.753
 6.8356  31100  175.683
 6.8776  31382.3  177.286
 6.9196  31360.2  177.629
 6.9616  31720.6  178.056
 7.0036  32310.5  179.385
 7.0456  32336  178.743
 7.0876  31952.7  179.376
 7.1296  32366.6  179.662
 7.1716  32261.5  178.9
 7.2136  31820.2  177.457
 7.2556  32170.2  178.593
 7.2976  32172.8  179.101
 7.3396  31909  178.581
 7.3816  32084.8  179.286
 7.4236  32415.1  179.493
 7.4656  32744.4  179.887
 7.5076  32748.7  180.029
 7.5496  32702  180.442
 7.5916  32738.6  180.578
 7.6336  32991.1  181.167
 7.6756  33156.8  181.471
 7.7176  33584.2  182.95
 7.7596  33336.2  183.523
 7.8016  33825.9  187.066
 7.8436  34552.3  185.696
 7.8856  34420.2  184.952
 7.9276  35281.5  187.645
 7.9696  35272.8  187.94
 8.0116  36151.7  188.792
 8.0536  36593.4  190.2
 8.0956  36468.8  191.069
 8.1376  36718.6  191.186
 8.1796  37004.3  192.478
 8.2216  37914.1  193.548
 8.2636  37911.5  193.792
 8.3056  38022.2  194.855
 8.3476  38277.5  194.833
 8.3896  38261.3  194.87
 8.4316  38449  195.515
 8.4736  38433.9  194.93
 8.5156  38139.2  194.47
 8.5576  38052.1  195.236
 8.5996  38018.7  194.002
 8.6416  38035.1  195.326
 8.6836  37734.8  194.38
 8.7256  38170.1  194.929
 8.7676  37561.7  196.301
 8.8096  37384.1  193.133
 8.8516  37316.5  192.562
 8.8936  36906  191.385
 8.9356  36821.2  191.516
 8.9776  37114.7  192.374
 9.0196  37039.9  191.856
 9.0616  36952.3  191.084
 9.1036  36248.5  190.459
 9.1456  36449.8  190.337
 9.1876  36416.8  190.203
 9.2296  36626.7  190.15
 9.2716  36004.4  188.592
 9.3136  36210  189.107
 9.3556  36236.7  189.163
 9.3976  34938.4  186.274
 9.4396  35177.1  186.808
 9.4816  34739.3  185.501
 9.5236  34682.3  185.255
 9.5656  34577.2  185.293
 9.6076  34499.8  185.622
 9.6496  34313.5  185.046
 9.6916  34203  184.718
 9.7336  34592.7  185.546
 9.7756  34377.8  186.326
 9.8176  33653.2  183.764
 9.8596  33308.4  181.264
 9.9016  32837.5  179.971
 9.9436  32587.3  179.195
 9.9856  32406.1  178.92
 10.0276  31932  178.719
 10.0696  32182.4  178.453
 10.1116  31206.1  175.988
 10.1536  31189.1  176.106
 10.1956  30749.1  174.455
 10.2376  30245.5  172.525
 10.2796  30630.6  173.753
 10.3216  30290.9  173.06
 10.3636  29910.9  172.001
 10.4056  29839.7  172.197
 10.4476  29576.7  171.057
 10.4896  29734.3  170.965
 10.5316  28799.4  168.962
 10.5736  28799.7  169.365
 10.6156  28439.5  168.072
 10.6576  28775.3  167.63
 10.6996  28214.6  166.653
 10.7416  28160.7  166.73
 10.7836  28128  167.32
 10.8256  27609.4  166.197
 10.8676  27795  166.29
 10.9096  27448.8  165.29
 10.9516  27212.6  163.512
 10.9936  27257.8  163.846
 11.0356  26849.2  163.245
 11.0776  26884.7  162.663
 11.1196  26399.3  161.929
 11.1616  26158.5  160.888
 11.2036  26449.5  161.632
 11.2456  26210.7  161.602
 11.2876  26111.3  161.025
 11.3296  25704.3  159.655
 11.3716  26053.5  160.441
 11.4136  26114.2  161.519
 11.4556  26066.9  161.04
 11.4976  26338.6  160.858
 11.5396  26410.5  161.247
 11.5816  26880.1  163.135
 11.6236  27470.9  165.369
 11.6656  27355.9  163.933
 11.7076  26559.6  162.381
 11.7496  25897.5  164.334
 11.7916  25641.9  158.812
 11.8336  25296.4  158.655
 11.8756  25222.9  157.93
 11.9176  25422.3  158.203
 11.9596  24729.6  156.219
 12.0016  24936.1  157.671
 12.0436  24840.9  156.789
 12.0856  24766.6  157.085
 12.1276  24595.2  156.453
 12.1696  24436.2  155.085
 12.2116  24890  156.507
 12.2536  24607.7  156.46
 12.2956  24510.8  155.482
 12.3376  24320.2  155.087
 12.3796  24564.8  156.329
 12.4216  24379.7  154.953
 12.4636  24222.9  155.359
 12.5056  24209.5  154.595
 12.5476  24442.2  154.866
 12.5896  24538  155.804
 12.6316  24035.2  154.362
 12.6736  24239.1  155.499
 12.7156  24158.2  155.099
 12.7576  24283.8  155.752
 12.7996  24441.8  154.89
 12.8416  24050.7  154.7
 12.8836  24609.7  156.314
 12.9256  24609.5  155.325
 12.9676  24898.1  156.658
 13.0096  24521.4  156.566
 13.0516  24872.2  156.717
 13.0936  24795.2  156.878
 13.1356  25408  157.773
 13.1776  24966.5  157.39
 13.2196  25335.8  158.208
 13.2616  25232.1  158.196
 13.3036  25210.6  158.102
 13.3456  25066.3  157.8
 13.3876  25046.8  157.229
 13.4296  25125.7  157.629
 13.4716  25154.7  157.324
 13.5136  25135.8  157.426
 13.5556  25127.9  158.009
 13.5976  24965.6  157.649
 13.6396  25341.4  158.193
 13.6816  24758.1  156.857
 13.7236  25458.9  158.697
 13.7656  24870.3  157.394
 13.8076  24857.9  156.131
 13.8496  24557.6  155.789
 13.8916  24699.6  157.245
 13.9336  24622.1  156.228
 13.9756  24407.2  154.893
 14.0176  24541.6  156.006
 14.0596  24518.7  155.895
 14.1016  24135.2  155.061
 14.1436  23857.5  153.303
 14.1856  23686.1  153.048
 14.2276  23355.6  152.461
 14.2696  23778.7  153.671
 14.3116  23338.8  152.148
 14.3536  22982.6  151.159
 14.3956  22882  150.556
 14.4376  23189.9  151.344
 14.4796  23018.7  150.776
 14.5216  22680  150.465
 14.5636  22475.5  149.349
 14.6056  22712.4  149.703
 14.6476  22797.7  149.209
 14.6896  22267.6  148.009
 14.7316  21837.5  147.607
 14.7736  21955.7  147.139
 14.8156  21674.7  146.232
 14.8576  21585.7  145.783
 14.8996  21203.8  145.701
 14.9416  20869.8  144.551
 14.9836  21041.4  145.102
 15.0256  20446  141.959
 15.0676  20763.7  143.378
 15.1096  20556.6  142.395
 15.1516  20178.4  141.644
 15.1936  20381.4  141.772
 15.2356  19766.4  139.896
 15.2776  19741.1  139.39
 15.3196  19523.4  139.629
 15.3616  19441.2  139.087
 15.4036  19198.4  138.063
 15.4456  19657.1  139.361
 15.4876  19157.9  137.256
 15.5296  19036  137.106
 15.5716  18827.3  135.941
 15.6136  18761.1  136.042
 15.6556  18718.8  135.125
 15.6976  18830.4  135.606
 15.7396  18646.1  135.552
 15.7816  18243.5  133.592
 15.8236  18188  134.089
 15.8656  18147.5  133.731
 15.9076  17905.7  132.662
 15.9496  17799.9  135.062
 15.9916  17894.4  135.871
 16.0336  17546.3  131.424
 16.0756  17765.1  132.552
 16.1176  17560.5  131.859
 16.1596  16994.4  130.89
 16.2016  17409.3  131.212
 16.2436  17129.6  130.544
 16.2856  17051.5  129.783
 16.3276  16752.6  129.063
 16.3696  17085.9  130.156
 16.4116  16697.2  129.13
 16.4536  16771.3  129.2
 16.4956  16460.6  127.736
 16.5376  16632.3  128.589
 16.5796  16698.3  128.193
 16.6216  16672.9  128.403
 16.6636  16570.1  128.162
 16.7056  16659.2  128.368
 16.7476  16509.2  127.322
 16.7896  16413.3  127.707
 16.8316  16537.5  128.15
 16.8736  16460.7  128.115
 16.9156  16562  128.844
 16.9576  16391.6  128.985
 16.9996  16413.4  129.559
 17.0416  16581.2  128.565
 17.0836  16526.4  128.104
 17.1256  16374.4  127.529
 17.1676  16322.9  127.318
 17.2096  16324.7  127.202
 17.2516  16216.7  126.562
 17.2936  16079.7  126.358
 17.3356  15882.2  125.574
 17.3776  15556.2  124.475
 17.4196  15842.7  125.305
 17.4616  15682.1  124.582
 17.5036  15400.3  123.828
 17.5456  15421.4  124.559
 17.5876  15170.4  122.588
 17.6296  15279.1  122.845
 17.6716  15155  122.917
 17.7136  14998.6  122.424
 17.7556  14951.7  122.524
 17.7976  14806.6  121.537
 17.8396  14690.3  120.695
 17.8816  14805  121.71
 17.9236  14658  120.913
 17.9656  14859.9  122.445
 18.0076  14769.2  121.486
 18.0496  14680.6  120.258
 18.0916  14612.8  120.514
 18.1336  14477.1  120.054
 18.1756  14770.6  120.788
 18.2176  14474.4  119.799
 18.2596  14511.2  119.692
 18.3016  14665.3  120.581
 18.3436  14552.3  120.354
 18.3856  14226.4  118.893
 18.4276  14310.3  118.923
 18.4696  14348.3  119.178
 18.5116  14513.4  120.147
 18.5536  14521.3  120.539
 18.5956  14243.1  118.937
 18.6376  14226  119.269
 18.6796  14216  118.545
 18.7216  14257.1  119.284
 18.7636  14093.9  118.52
 18.8056  14207.4  118.931
 18.8476  14081.6  119.023
 18.8896  14195.8  118.846
 18.9316  14269  118.97
 18.9736  14119.5  118.207
 19.0156  14052.7  118.334
 19.0576  14151.5  117.613
 19.0996  14243.2  118.702
 19.1416  13963  117.921
 19.1836  14047.4  117.881
 19.2256  13863.4  117.318
 19.2676  14034.1  118.134
 19.3096  14156.7  118.892
 19.3516  13964.8  118.038
 19.3936  13882.9  117.594
 19.4356  13980.8  117.873
 19.4776  13920.8  117.719
 19.5196  13970.1  117.778
 19.5616  14046.9  118.365
 19.6036  13984.7  117.596
 19.6456  13871.6  117.24
 19.6876  13954.9  117.24
 19.7296  13807.2  117.066
 19.7716  13935.5  117.624
 19.8136  14106.4  118.706
 19.8556  14229.7  118.698
 19.8976  14093.7  118.193
 19.9396  14035.7  117.529
 19.9816  14224.7  118.56
 20.0236  14403.4  119.521
 20.0656  14562.2  120.173
 20.1076  14621.7  120.891
 20.1496  14914.8  122.102
 20.1916  14897.4  121.532
 20.2336  15149.4  122.483
 20.2756  14597.5  120.674
 20.3176  14426.2  119.705
 20.3596  14320.5  119.24
 20.4016  14096.9  118.108
 20.4436  14078.6  118.61
 20.4856  13803.9  117.223
 20.5276  13904.6  118.115
 20.5696  13862.4  117.387
 20.6116  13571.6  116.424
 20.6536  13611.6  116.159
 20.6956  13585.4  116.115
 20.7376  13523.3  116.086
 20.7796  13398.5  115.236
 20.8216  13575.5  115.694
 20.8636  13468.5  115.608
 20.9056  13411.3  115.313
 20.9476  13262.3  114.509
 20.9896  13623.5  115.924
 21.0316  13584  115.654
 21.0736  13342.1  115.143
 21.1156  13285.8  115.062
 21.1576  13322.3  115.264
 21.1996  13228.4  114.839
 21.2416  13177.2  114.448
 21.2836  13245.9  114.711
 21.3256  13014.5  113.789
 21.3676  13238.3  114.307
 21.4096  13110.9  114.064
 21.4516  12919.9  113.111
 21.4936  12949.3  113.495
 21.5356  13154.8  114.336
 21.5776  13208  114.401
 21.6196  13046.5  113.731
 21.6616  12992.3  113.584
 21.7036  13109.9  113.875
 21.7456  12936  113.192
 21.7876  12964.5  113.061
 21.8296  13020.6  113.159
 21.8716  12896.8  112.859
 21.9136  13150  114.164
 21.9556  12972.7  113.061
 21.9976  12813.5  112.378
 22.0396  12766.8  112.427
 22.0816  12851.5  113.35
 22.1236  12846.8  112.778
 22.1656  12899.1  113.191
 22.2076  12836.4  112.328
 22.2496  13023.7  113.171
 22.2916  12954.9  112.752
 22.3336  12813.1  112.846
 22.3756  12936.7  113.126
 22.4176  12984.8  113.189
 22.4596  12517.4  111.718
 22.5016  12857.6  112.71
 22.5436  13007.9  113.255
 22.5856  12824.8  112.702
 22.6276  12629.5  111.981
 22.6696  12677.8  112.548
 22.7116  12774.9  112.485
 22.7536  12792.4  112.536
 22.7956  12829.1  112.025
 22.8376  12625.6  111.656
 22.8796  12796  112.205
 22.9216  12913.1  113.27
 22.9636  12740.1  111.657
 23.0056  12648  111.388
 23.0476  12764.4  112.473
 23.0896  13000.8  112.879
 23.1316  12829.7  112.573
 23.1736  12655.8  114.766
 23.2156  12960  113.472
 23.2576  12856.4  113.148
 23.2996  12895  113.102
 23.3416  12745.8  112.974
 23.3836  12903.6  112.887
 23.4256  12998.5  113.422
 23.4676  12950.9  112.902
 23.5096  12858.2  113.188
 23.5516  12915.3  112.712
 23.5936  12812.7  113.176
 23.6356  13032.9  113.809
 23.6776  12765.9  112.848
 23.7196  12562  111.521
 23.7616  12826.8  112.605
 23.8036  12806.4  112.56
 23.8456  12671.6  111.53
 23.8876  12316.1  110.299
 23.9296  12568  111.924
 23.9716  12667.9  111.545
 24.0136  12597.1  112.148
 24.0556  12414.8  111.064
 24.0976  12333.9  110.509
 24.1396  12272.5  112.882
 24.1816  12482  112.586
 24.2236  12216.7  110.662
 24.2656  12187.3  110
 24.3076  12079.4  109.769
 24.3496  12139.3  109.928
 24.3916  11939  109.064
 24.4336  12053.9  109.799
 24.4756  12016.3  109.496
 24.5176  11876.9  108.505
 24.5596  11719  107.911
 24.6016  11749.5  108.332
 24.6436  11858.9  108.326
 24.6856  11684.4  107.29
 24.7276  11835.1  108.295
 24.7696  11709.7  107.838
 24.8116  11675.8  107.852
 24.8536  11595.4  107.487
 24.8956  11525.9  106.898
 24.9376  11405  106.279
 24.9796  11505.9  107.1
 25.0216  11217.1  105.858
 25.0636  11490.3  106.794
 25.1056  11330.5  106.478
 25.1476  11403.9  108.763
 25.1896  11464.6  107.525
 25.2316  11459.5  106.764
 25.2736  11442  106.338
 25.3156  11303.8  105.766
 25.3576  11369.8  106.49
 25.3996  11380.5  106.532
 25.4416  11254.6  105.923
 25.4836  11213.7  106.257
 25.5256  11082.2  104.999
 25.5676  11268.1  105.604
 25.6096  10936.6  104.603
 25.6516  11139.3  105.07
 25.6936  11036.7  104.904
 25.7356  11098.1  105.325
 25.7776  11099.7  104.938
 25.8196  10974  104.57
 25.8616  11081.3  105.011
 25.9036  11224.2  105.15
 25.9456  10947.2  104.439
 25.9876  10856  104.067
 26.0296  11205.6  105.326
 26.0716  10924.3  104.332
 26.1136  11067.2  104.951
 26.1556  11133  104.637
 26.1976  10960.7  104.752
 26.2396  10988.4  104.289
 26.2816  11012  104.762
 26.3236  10969.7  104.724
 26.3656  10878.8  104.009
 26.4076  11075.7  105.155
 26.4496  11465.7  106.464
 26.4916  11039.3  104.476
 26.5336  10966.6  104.459
 26.5756  11246.4  105.65
 26.6176  10877.6  103.946
 26.6596  10976.8  104.731
 26.7016  10866.2  103.96
 26.7436  10740.4  103.487
 26.7856  10698.6  103.27
 26.8276  10673.8  103.101
 26.8696  10871.8  103.93
 26.9116  10724.1  103.155
 26.9536  10766  103.406
 26.9956  10659.3  102.929
 27.0376  10665.3  103.17
 27.0796  10656.4  102.941
 27.1216  10497.1  102.162
 27.1636  10576.9  102.719
 27.2056  10598  102.704
 27.2476  10504.5  102.252
 27.2896  10461.8  102.154
 27.3316  10436.5  101.739
 27.3736  10383.5  101.75
 27.4156  10406  101.696
 27.4576  10418.4  101.995
 27.4996  10412.8  101.56
 27.5416  10425.2  101.94
 27.5836  10300.4  101.148
 27.6256  10686  103.179
 27.6676  10525.3  102.43
 27.7096  10332  101.354
 27.7516  10310.2  101.395
 27.7936  10230.4  101.166
 27.8356  10327  101.27
 27.8776  10213.7  100.752
 27.9196  10201.4  100.537
 27.9616  10269.7  101.069
 28.0036  10175.1  100.582
 28.0456  10220.6  100.935
 28.0876  10081.9  100.338
 28.1296  10139.4  100.461
 28.1716  10164.5  100.596
 28.2136  10275.4  101.112
 28.2556  10083.1  100.277
 28.2976  9991.54  99.7989
 28.3396  10101.4  100.157
 28.3816  10108.4  100.173
 28.4236  10062.1  100.096
 28.4656  9893.31  99.2881
 28.5076  10048.8  99.7029
 28.5496  10000.8  99.7238
 28.5916  10026  99.6589
 28.6336  9945.94  99.6015
 28.6756  9993.32  99.038
 28.7176  9970.86  99.4734
 28.7596  9941.05  99.2237
 28.8016  10013.7  99.623
 28.8436  9817.1  98.8803
 28.8856  9995.01  99.6182
 28.9276  9991.69  99.8501
 28.9696  9861.21  98.8522
 29.0116  9867.06  99.0671
 29.0536  9674.93  98.303
 29.0956  9778.56  98.5458
 29.1376  9768.21  98.4542
 29.1796  9804.05  98.6804
 29.2216  9850.76  98.755
 29.2636  9804.94  98.5188
 29.3056  9772.04  98.2272
 29.3476  9841.47  99.1004
 29.3896  9881.75  99.3971
 29.4316  9767.23  98.1596
 29.4736  9930.23  99.041
 29.5156  9832.76  98.4585
 29.5576  9786.06  98.9868
 29.5996  9775.56  98.1859
 29.6416  9611.03  97.4758
 29.6836  9860  98.6563
 29.7256  9678.67  98.3125
 29.7676  9744.31  98.2952
 29.8096  9740.94  98.2271
 29.8516  9535  97.5169
 29.8936  9674.63  98.3229
 29.9356  9795.22  98.6842
 29.9776  9420.72  96.9306
 30.0196  9658.34  97.5358
 30.0616  9636.51  97.7987
 30.1036  9582.03  97.3458
 30.1456  9508.43  97.2024
 30.1876  9637.71  97.8436
 30.2296  9570.44  97.4452
 30.2716  9695.12  97.7139
 30.3136  9586.69  98.0259
 30.3556  9607.3  98.1446
 30.3976  9469.27  98.963
 30.4396  9737.67  97.6596
 30.4816  9734.02  97.236
 30.5236  9507.97  96.1169
 30.5656  9508.07  96.7691
 30.6076  9556.88  96.444
 30.6496  9527.74  96.6851
 30.6916  9446.59  96.3622
 30.7336  9457.41  96.5725
 30.7756  9503.27  96.8924
 30.8176  9398.38  96.2781
 30.8596  9661.51  97.3782
 30.9016  9449.71  96.6524
 30.9436  9517.89  96.7507
 30.9856  9506.11  96.7945
 31.0276  9572  96.7371
 31.0696  9420.29  96.5481
 31.1116  9459.18  96.7208
 31.1536  9499.86  96.8136
 31.1956  9397.15  96.3763
 31.2376  9400.89  96.4074
 31.2796  9476.82  96.3262
 31.3216  9408.76  95.9197
 31.3636  9439.63  96.7785
 31.4056  9511.71  98.4943
 31.4476  9369.21  95.6174
 31.4896  9162.26  95.0584
 31.5316  9241.09  94.9105
 31.5736  9444.63  95.7306
 31.6156  9334.44  95.1849
 31.6576  9437.71  95.8099
 31.6996  9408.38  95.3332
 31.7416  9255.76  95.6143
 31.7836  9408.95  95.4096
 31.8256  9156.16  94.4657
 31.8676  9345.16  95.3521
 31.9096  9151.81  94.7178
 31.9516  9096.64  94.5943
 31.9936  9228.21  95.0983
 32.0356  9142.21  94.7213
 32.0776  9270.75  95.2687
 32.1196  9319.29  95.6017
 32.1616  9238.26  94.6489
 32.2036  8955.71  93.6927
 32.2456  9129.55  94.9822
 32.2876  9033.29  93.8109
 32.3296  9003.76  93.7901
 32.3716  9093.75  94.365
 32.4136  9118.3  94.7001
 32.4556  9202.7  94.5598
 32.4976  9226.58  94.5421
 32.5396  9315.62  95.0719
 32.5816  8991.67  93.5272
 32.6236  9139.11  94.3608
 32.6656  9162.42  95.0191
 32.7076  9078.49  94.2355
 32.7496  9070.14  93.864
 32.7916  9174.54  94.3602
 32.8336  9100.81  94.0772
 32.8756  9181.59  94.2132
 32.9176  8936.63  93.4291
 32.9596  8985.2  93.7585
 33.0016  9089.64  94.094
 33.0436  9167.15  94.6682
 33.0856  9002.86  93.8876
 33.1276  8953.53  93.357
 33.1696  9071.67  93.8163
 33.2116  9058.1  93.974
 33.2536  8971.76  93.5264
 33.2956  9024.37  93.8865
 33.3376  8967.9  93.3298
 33.3796  9019.63  93.8063
 33.4216  9115.62  93.899
 33.4636  8960.56  93.2451
 33.5056  8927.91  93.3074
 33.5476  8860.99  92.9567
 33.5896  9131.71  94.0995
 33.6316  8910.58  93.3043
 33.6736  8904.4  93.5174
 33.7156  8795.56  92.9866
 33.7576  9052.32  93.9529
 33.7996  9034.67  93.6352
 33.8416  8778.37  92.4775
 33.8836  8910.81  92.9452
 33.9256  8864.4  92.7684
 33.9676  8957.84  93.1534
 34.0096  8769.38  92.4826
 34.0516  8721.76  91.8712
 34.0936  8767.97  92.3667
 34.1356  8907.26  92.8502
 34.1776  8765.61  92.1213
 34.2196  8614.16  91.4987
 34.2616  8730.74  92.2454
 34.3036  8612.43  91.8731
 34.3456  8692.07  92.0479
 34.3876  8779.82  92.4717
 34.4296  8762.58  92.0738
 34.4716  8828.32  92.5658
 34.5136  8798.9  92.6189
 34.5556  8677.31  92.2329
 34.5976  8693.75  92.119
 34.6396  8655.32  91.6278
 34.6816  8658.85  91.7625
 34.7236  8743.07  91.9912
 34.7656  8618.83  91.5335
 34.8076  8685.18  92.1997
 34.8496  8663.59  91.9454
 34.8916  8647.6  91.7302
 34.9336  8705.31  92.0074
 34.9756  8701.04  91.891
 35.0176  8727.71  92.5777
 35.0596  8605.43  91.7469
 35.1016  8618.02  91.5843
 35.1436  8629.31  91.3282
 35.1856  8516.94  90.8609
 35.2276  8715.81  92.0888
 35.2696  8656.34  91.9625
 35.3116  8650.98  92.0353
 35.3536  8561.44  91.2669
 35.3956  8514.07  90.7266
 35.4376  8534.34  91.3813
 35.4796  8581.61  91.6994
 35.5216  8553.9  91.5093
 35.5636  8335.19  91.0754
 35.6056  8595.63  91.4951
 35.6476  8620.38  91.5177
 35.6896  8662.76  91.9192
 35.7316  8393.57  90.3702
 35.7736  8433.1  90.7831
 35.8156  8360.73  90.3841
 35.8576  8504.72  91.407
 35.8996  8574.45  91.7572
 35.9416  8813.23  92.4527
 35.9836  8517.25  91.2995
 36.0256  8414.91  90.7688
 36.0676  8555.7  91.0651
 36.1096  8423.14  90.7148
 36.1516  8426.09  90.6161
 36.1936  8393.05  90.2899
 36.2356  8472.94  91.3587
 36.2776  8457.25  90.7549
 36.3196  8472.97  90.5105
 36.3616  8416.89  90.335
 36.4036  8443.72  90.5446
 36.4456  8419.64  90.6193
 36.4876  8289.87  89.8621
 36.5296  8449.92  90.7684
 36.5716  8326.44  90.8838
 36.6136  8539.87  90.8001
 36.6556  8452.87  90.5378
 36.6976  8328.79  90.3698
 36.7396  8375.07  90.3527
 36.7816  8392.64  90.8224
 36.8236  8329.81  90.4042
 36.8656  8313.97  90.3918
 36.9076  8339.27  90.5328
 36.9496  8208.95  89.6811
 36.9916  8404.91  90.3737
 37.0336  8563.67  91.5437
 37.0756  8349.06  90.1784
 37.1176  8251.8  89.9234
 37.1596  8380.43  90.611
 37.2016  8174.42  89.6854
 37.2436  8364.27  90.0754
 37.2856  8165.89  89.2529
 37.3276  8485.51  90.3218
 37.3696  8231.67  89.8545
 37.4116  8304.38  90.1551
 37.4536  8258.16  89.7728
 37.4956  8165.15  89.311
 37.5376  8255.93  91.3881
 37.5796  8252.68  91.3126
 37.6216  8013.5  88.242
 37.6636  8046.71  88.3329
 37.7056  8163.15  89.1618
 37.7476  8039.09  88.0246
 37.7896  8226.76  89.5476
 37.8316  7938.62  88.1365
 37.8736  8220.79  89.2078
 37.9156  7961.73  87.794
 37.9576  8289.78  89.4708
 37.9996  7973.42  87.4609
 38.0416  8070.29  88.8132
 38.0836  8264.22  89.7715
 38.1256  8162.04  89.1796
 38.1676  7894.45  87.8383
 38.2096  8026.88  88.1894
 38.2516  8219.05  89.4512
 38.2936  8021.78  88.1705
 38.3356  8143.75  88.7547
 38.3776  8056.77  88.5536
 38.4196  8148.01  88.9071
 38.4616  8108.5  88.9243
 38.5036  8133.38  88.9074
 38.5456  8038.27  89.2259
 38.5876  7972.24  88.8881
 38.6296  8123.02  88.6927
 38.6716  7923.54  87.3862
 38.7136  7892.86  87.1632
 38.7556  7969.56  88.089
 38.7976  7990.95  88.1488
 38.8396  7858.65  87.8661
 38.8816  7927.6  88.0237
 38.9236  8006.13  88.2758
 38.9656  8026.48  88.2995
 39.0076  7938.55  87.2235
 39.0496  7927.42  87.6903
 39.0916  7939.89  87.4151
 39.1336  7964.42  87.9672
 39.1756  7889.07  87.6159
 39.2176  7912.26  88.2775
 39.2596  8103  89.255
 39.3016  7913.22  87.7656
 39.3436  7866.5  87.9398
 39.3856  7930.1  87.7424
 39.4276  7813.38  87.5904
 39.4696  7996.35  88.2305
 39.5116  7916.88  88.3027
 39.5536  8127.74  89.9044
 39.5956  8075.01  88.7015
 39.6376  8003.09  88.3104
 39.6796  7993.48  87.9976
 39.7216  8012.6  88.2028
 39.7636  7897.99  88.1398
 39.8056  8047.92  88.7499
 39.8476  7975.56  88.6017
 39.8896  7946.85  88.0757
 39.9316  7888.92  88.0065
 39.9736  7994.88  88.1614
 40.0156  8003.24  88.0271
 40.0576  8055.47  88.6827
 40.0996  8146.36  88.3506
 40.1416  8085.58  88.8163
 40.1836  8008.83  88.2882
 40.2256  8062.86  88.6274
 40.2676  7968.37  88.2187
 40.3096  8142.09  89.0945
 40.3516  8046.56  88.6853
 40.3936  8053.79  88.281
 40.4356  8091.7  88.6826
 40.4776  8053.31  88.8902
 40.5196  8081.22  89.1712
 40.5616  8148.32  89.1785
 40.6036  7945.06  88.3119
 40.6456  8015.43  88.3092
 40.6876  8148.94  89.0298
 40.7296  8023.65  88.4782
 40.7716  8065.17  88.8385
 40.8136  7924.71  88.0045
 40.8556  8040.88  88.781
 40.8976  8057.91  88.7948
 40.9396  7972.78  88.6741
 40.9816  8039.2  88.3262
 41.0236  8082.02  88.3381
 41.0656  8141.07  89.2072
 41.1076  8192.3  89.2552
 41.1496  8247.96  89.4634
 41.1916  8072.01  88.8336
 41.2336  8039.89  88.6463
 41.2756  8031.13  88.1985
 41.3176  8035.34  88.8391
 41.3596  8031.29  88.5434
 41.4016  8015.28  88.7161
 41.4436  8118.93  89.0737
 41.4856  8022.12  88.7052
 41.5276  8079.18  89.0398
 41.5696  8031  88.3901
 41.6116  7957.13  88.3908
 41.6536  7978.18  88.3669
 41.6956  8058.37  88.8628
 41.7376  8022.37  88.697
 41.7796  7955.31  88.2511
 41.8216  7989.24  88.6301
 41.8636  8027.54  88.7806
 41.9056  7964.06  88.2169
 41.9476  8005.02  88.6826
 41.9896  8037.98  88.5182
 42.0316  8049.94  88.6785
 42.0736  7941.24  88.1854
 42.1156  7902.4  87.8075
 42.1576  7990.1  88.3924
 42.1996  7975.2  88.4504
 42.2416  8035.99  88.369
 42.2836  7901.24  87.7358
 42.3256  7992.76  88.3605
 42.3676  8023.89  88.3311
 42.4096  7947.98  87.8758
 42.4516  7933.01  87.882
 42.4936  7879.64  87.6551
 42.5356  7870.48  87.7344
 42.5776  7981.82  88.2956
 42.6196  8087.75  88.9366
 42.6616  7777.05  87.3811
 42.7036  7962  87.7892
 42.7456  7887.97  87.7425
 42.7876  7953.87  88.197
 42.8296  7913.02  87.8115
 42.8716  7792.81  87.3033
 42.9136  7847.16  87.3945
 42.9556  7867.03  87.6393
 42.9976  7949.43  88.0609
 43.0396  7999.3  88.0637
 43.0816  7820.07  87.4467
 43.1236  7901.85  87.9662
 43.1656  7852.93  87.5184
 43.2076  7785.6  87.2403
 43.2496  7768.79  86.9624
 43.2916  7819.52  87.6206
 43.3336  7778.07  87.2268
 43.3756  7800.95  87.1102
 43.4176  7733.68  86.813
 43.4596  7702.46  86.4946
 43.5016  7747.15  87.149
 43.5436  7822.36  87.4733
 43.5856  7724.88  86.9504
 43.6276  7839.3  87.4811
 43.6696  7698.66  86.8383
 43.7116  7733.33  86.6502
 43.7536  7779.72  87.3977
 43.7956  7580.82  87.469
 43.8376  7666.78  86.497
 43.8796  7725.69  86.9093
 43.9216  7792.19  87.1996
 43.9636  7737.64  86.9996
 44.0056  7647.66  86.7282
 44.0476  7613.9  86.1661
 44.0896  7643.52  86.6773
 44.1316  7691.15  86.6089
 44.1736  7586.64  85.9944
 44.2156  7650.92  86.2107
 44.2576  7614.92  86.344
 44.2996  7605.58  86.259
 44.3416  7684.61  86.4643
 44.3836  7603.05  86.3349
 44.4256  7519.83  85.5012
 44.4676  7525.8  85.6977
 44.5096  7648.25  86.5371
 44.5516  7551.71  85.946
 44.5936  7465.23  85.4117
 44.6356  7619.93  86.0298
 44.6776  7638.79  86.4577
 44.7196  7593.79  86.5107
 44.7616  7655.75  88.1954
 44.8036  7454.13  85.4633
 44.8456  7475.28  85.7856
 44.8876  7584.93  86.262
 44.9296  7624.09  85.9342
 44.9716  7588.93  86.1619
 45.0136  7431.68  85.2081
 45.0556  7557.79  85.8991
 45.0976  7501.86  85.7429
 45.1396  7448.19  85.171
 45.1816  7524.57  85.5672
 45.2236  7634.55  86.0888
 45.2656  7367.99  85.0749
 45.3076  7537.04  85.8129
 45.3496  7498.02  85.9038
 45.3916  7431.87  85.7952
 45.4336  7414.49  85.5372
 45.4756  7436.73  85.5158
 45.5176  7497.86  85.4914
 45.5596  7510.33  85.679
 45.6016  7423.14  85.6029
 45.6436  7412.01  84.7182
 45.6856  7397.97  85.2921
 45.7276  7311.6  86.1032
 45.7696  7504.49  86.9013
 45.8116  7367.44  85.5446
 45.8536  7349.99  85.3408
 45.8956  7381.62  84.8771
 45.9376  7589.83  85.5241
 45.9796  7487.47  85.6416
 46.0216  7372.79  85.3164
 46.0636  7433.49  84.8024
 46.1056  7490.01  85.1195
 46.1476  7479.14  85.6528
 46.1896  7423.94  85.4834
 46.2316  7370.11  85.0421
 46.2736  7239.05  84.6415
 46.3156  7327.02  84.7513
 46.3576  7305.91  84.83
 46.3996  7366.85  85.3458
 46.4416  7464.81  85.4774
 46.4836  7274.34  84.7397
 46.5256  7459.57  85.7499
 46.5676  7281.19  84.8319
 46.6096  7260.18  84.6384
 46.6516  7358.65  84.2598
 46.6936  7459.9  85.3278
 46.7356  7400.1  85.0956
 46.7776  7287.54  85.2847
 46.8196  7183.8  84.2752
 46.8616  7165.16  84.1126
 46.9036  7191.4  83.9232
 46.9456  7305.45  84.2289
 46.9876  7282.46  84.1765
 47.0296  7232.97  84.5739
 47.0716  7070.81  83.4506
 47.1136  7241.67  84.1288
 47.1556  7228.27  83.9205
 47.1976  7394.29  84.9536
 47.2396  7254.54  84.552
 47.2816  7184.41  83.8469
 47.3236  7214.33  84.3871
 47.3656  7288.68  84.7525
 47.4076  7096.4  83.4267
 47.4496  7124.3  83.6906
 47.4916  7203.66  84.343
 47.5336  7203.3  84.1568
 47.5756  7235.86  84.4606
 47.6176  7110.54  83.6261
 47.6596  7134.09  83.4844
 47.7016  7238.92  83.9147
 47.7436  7207.51  84.0631
 47.7856  7241.5  84.2882
 47.8276  7134.3  83.7067
 47.8696  7110.33  83.6476
 47.9116  7135.29  83.5173
 47.9536  7110.52  83.3151
 47.9956  7121.28  84.083
 48.0376  7051.89  83.4485
 48.0796  7159.92  84.2107
 48.1216  7141.57  83.9216
 48.1636  7301.94  84.4364
 48.2056  7119.27  83.6356
 48.2476  7163.96  84.2068
 48.2896  7106.76  83.7829
 48.3316  7114.73  83.7632
 48.3736  6992.85  83.069
 48.4156  7013.88  83.0447
 48.4576  6926.98  82.8214
 48.4996  7141.74  83.5504
 48.5416  7077.35  83.4981
 48.5836  7184.28  83.8054
 48.6256  7059.98  83.2788
 48.6676  7072.5  83.8593
 48.7096  7057.6  83.0467
 48.7516  7101.27  83.4548
 48.7936  6934.28  82.5282
 48.8356  7069.13  83.3758
 48.8776  6999.29  83.4425
 48.9196  7174.39  83.9391
 48.9616  7006.41  83.3176
 49.0036  7021.5  83.7654
 49.0456  6892.73  82.9722
 49.0876  6945.19  82.9243
 49.1296  7062.38  83.6823
 49.1716  6839.5  82.2264
 49.2136  7042.42  83.3668
 49.2556  7088.49  83.6647
 49.2976  7091.79  83.7592
 49.3396  6954.72  82.9996
 49.3816  7034.61  82.9089
 49.4236  6978.9  82.9961
 49.4656  6907.13  82.5864
 49.5076  6946.67  82.5757
 49.5496  6898.14  82.3541
 49.5916  6995.2  82.8413
 49.6336  6940.12  82.7179
 49.6756  6978.92  83.1854
 49.7176  6966  83.0479
 49.7596  6853.5  82.1427
 49.8016  7008.4  82.9907
 49.8436  6828.87  82.2102
 49.8856  6867.02  82.4443
 49.9276  6780.13  82.0224
 49.9696  6852.4  82.4391
 50.0116  6889.67  82.8119
 50.0536  6898.03  82.7955
 50.0956  6883.21  82.769
 50.1376  6857.95  82.3203
 50.1796  6893.93  82.8074
 50.2216  6853.4  82.5607
 50.2636  6841.6  82.1099
 50.3056  6823.53  82.1725
 50.3476  6862.23  82.4298
 50.3896  6842.67  82.2795
 50.4316  6843.99  82.1258
 50.4736  6740.53  81.7165
 50.5156  6809.64  82.1216
 50.5576  6851.09  82.1395
 50.5996  6779.4  81.9867
 50.6416  6709.53  81.4913
 50.6836  6747.8  81.7745
 50.7256  6857.26  82.3645
 50.7676  6772.57  82.1317
 50.8096  6800.33  81.8788
 50.8516  6791.42  82.2334
 50.8936  6795.43  82.0464
 50.9356  6775.64  82.0309
 50.9776  6777.58  82.1936
 51.0196  6513.24  80.7055
 51.0616  6692.1  81.1376
 51.1036  6780.53  82.0184
 51.1456  6859.85  82.4137
 51.1876  6759.88  81.1595
 51.2296  6755.72  81.7622
 51.2716  6695.89  81.1112
 51.3136  6558.51  80.721
 51.3556  6690.27  81.1572
 51.3976  6588.94  80.6899
 51.4396  6601.77  81.0728
 51.4816  6687.39  81.4442
 51.5236  6637.39  81.2236
 51.5656  6601.77  80.6186
 51.6076  6705.35  81.3302
 51.6496  6630.45  81.0629
 51.6916  6617.17  81.3316
 51.7336  6671.83  81.7619
 51.7756  6665.33  81.4231
 51.8176  6639.77  81.3659
 51.8596  6620.78  81.2703
 51.9016  6691.93  81.3132
 51.9436  6615.36  82.2994
 51.9856  6513.75  82.0854
 52.0276  6596.45  81.1275
 52.0696  6610.73  81.2784
 52.1116  6576.94  81.1889
 52.1536  6540.52  80.8506
 52.1956  6638.81  80.9237
 52.2376  6806.88  82.1121
 52.2796  6599.51  80.671
 52.3216  6435.25  80.3295
 52.3636  6567.56  80.7388
 52.4056  6534.02  80.3846
 52.4476  6543.81  80.8157
 52.4896  6457.68  80.3325
 52.5316  6464.58  80.415
 52.5736  6511.7  80.4405
 52.6156  6509.28  80.7965
 52.6576  6510.92  80.2591
 52.6996  6338.59  80.1439
 52.7416  6463.15  80.7776
 52.7836  6579.76  81.3908
 52.8256  6625.64  80.8889
 52.8676  6338.09  79.686
 52.9096  6584.1  81.3068
 52.9516  6516.85  81.2514
 52.9936  6432.87  81.1224
 53.0356  6421.91  80.0612
 53.0776  6358.01  79.9443
 53.1196  6297.29  79.6656
 53.1616  6358.86  80.1014
 53.2036  6378.08  80.176
 53.2456  6419.56  80.5307
 53.2876  6472.04  80.5667
 53.3296  6328.15  79.9949
 53.3716  6400.8  80.2025
 53.4136  6357.53  80.0738
 53.4556  6311.86  79.8197
 53.4976  6269.59  79.4004
 53.5396  6350.65  80.3032
 53.5816  6405.46  80.2841
 53.6236  6400.13  80.5873
 53.6656  6395.04  80.189
 53.7076  6295.52  79.525
 53.7496  6354.78  80.0162
 53.7916  6419.04  80.5463
 53.8336  6275.94  79.5426
 53.8756  6151.65  79.2875
 53.9176  6301.75  79.6018
 53.9596  6347.68  80.6554
 54.0016  6283.97  79.5857
 54.0436  6404.34  80.5568
 54.0856  6465.44  80.369
 54.1276  6367.97  79.9572
 54.1696  6396.34  80.3094
 54.2116  6334.61  79.6773
 54.2536  6328.43  79.4574
 54.2956  6403.28  79.971
 54.3376  6356.58  80.1596
 54.3796  6363.39  80.106
 54.4216  6502.71  81.0214
 54.4636  6350.95  80.0319
 54.5056  6339.32  79.7792
 54.5476  6218.07  79.3391
 54.5896  6374.76  80.1675
 54.6316  6372.77  80.0132
 54.6736  6336.97  79.8147
 54.7156  6300.61  79.6586
 54.7576  6243.68  79.2915
 54.7996  6230.35  79.3422
 54.8416  6509.21  81.1532
 54.8836  6219.5  79.4348
 54.9256  6291.09  79.6396
 54.9676  6423.07  80.327
 55.0096  6259.75  79.3685
 55.0516  6316.83  79.8948
 55.0936  6274.94  79.3294
 55.1356  6265.6  79.3123
 55.1776  6292.87  79.751
 55.2196  6302.37  79.5948
 55.2616  6312.89  79.87
 55.3036  6308.51  80.0062
 55.3456  6315.59  80.1976
 55.3876  6327  80.0176
 55.4296  6318.39  79.936
 55.4716  6226.32  79.389
 55.5136  6292.52  79.5677
 55.5556  6309.44  79.7458
 55.5976  6223.13  79.2473
 55.6396  6272.9  79.5191
 55.6816  6296.27  79.5454
 55.7236  6294.83  79.5773
 55.7656  6304.4  79.3946
 55.8076  6375.66  79.8265
 55.8496  6242.5  79.3051
 55.8916  6272.65  79.6658
 55.9336  6195.64  79.0319
 55.9756  6242.31  79.2152
 56.0176  6333.93  79.948
 56.0596  6178.21  78.946
 56.1016  6243.94  79.401
 56.1436  6227.37  79.5272
 56.1856  6200.45  79.1008
 56.2276  6283.32  79.6878
 56.2696  6247.35  79.4278
 56.3116  6193.89  79.4873
 56.3536  6256.28  79.544
 56.3956  6203.81  79.2009
 56.4376  6189.83  79.1452
 56.4796  6270.23  79.4579
 56.5216  6197.46  79.3768
 56.5636  6293.96  79.5748
 56.6056  6201.22  79.2184
 56.6476  6177.02  78.6892
 56.6896  6220.04  79.4108
 56.7316  6273.93  79.6485
 56.7736  6370.72  80.2745
 56.8156  6194.57  79.1609
 56.8576  6176.79  78.9819
 56.8996  6251.63  79.397
 56.9416  6099.13  78.7283
 56.9836  6113.79  78.3362
 57.0256  6134.49  78.781
 57.0676  6222.84  79.4732
 57.1096  6212.19  79.196
 57.1516  6240.35  79.4004
 57.1936  6264.65  79.3336
 57.2356  6228.75  79.4323
 57.2776  6185.18  79.1091
 57.3196  6210.03  79.627
 57.3616  6208.18  79.1182
 57.4036  6205.13  79.1598
 57.4456  6178.07  78.955
 57.4876  6210.6  79.0174
 57.5296  6132.06  78.7577
 57.5716  6099.91  78.6419
 57.6136  6205.61  79.1382
 57.6556  6140.54  78.8552
 57.6976  6177.71  78.918
 57.7396  6185.31  79.3429
 57.7816  6024.83  78.6627
 57.8236  6144.66  79.2328
 57.8656  6180.14  79.1217
 57.9076  6179.86  79.1542
 57.9496  6142.84  79.2567
 57.9916  6214.44  79.2316
 58.0336  6119.38  78.8965
 58.0756  6147.08  78.6979
 58.1176  6139.39  78.6592
 58.1596  6006.57  78.362
 58.2016  6219.31  78.9584
 58.2436  6220.26  79.3813
 58.2856  6262.57  79.5698
 58.3276  6196.51  79.5247
 58.3696  6117.52  78.7655
 58.4116  6210.47  79.2264
 58.4536  6212.92  79.1246
 58.4956  6120.71  78.7186
 58.5376  6205.82  78.8315
 58.5796  6082.12  78.4626
 58.6216  6233.59  79.2494
 58.6636  6306.17  79.9242
 58.7056  6146.5  78.7649
 58.7476  6028.8  78.4508
 58.7896  6211.07  79.2678
 58.8316  6157.11  78.9194
 58.8736  6185.36  79.1069
 58.9156  6147.33  78.9084
 58.9576  6283.22  80.1048
 58.9996  6274.17  79.2577
 59.0416  6315.39  79.9025
 59.0836  6205.19  79.1334
 59.1256  6020.61  78.6425
 59.1676  6092.19  79.4189
 59.2096  6170.87  79.2303
 59.2516  6322.79  79.7711
 59.2936  6223.62  79.476
 59.3356  6130.45  78.7557
 59.3776  6115.84  78.8318
 59.4196  6189.71  79.2421
 59.4616  6132  78.7303
 59.5036  6111.14  78.6318
 59.5456  6431.75  80.3517
 59.5876  6239.75  79.3375
 59.6296  6088.21  78.4377
 59.6716  6088.08  78.495
 59.7136  6109.67  78.6223
 59.7556  6260.72  79.7272
 59.7976  6119.77  78.5651
 59.8396  6345.1  79.89
 59.8816  6232.07  79.7292
 59.9236  6195.74  79.1356
 59.9656  6218.44  79.5452
 60.0076  6271.75  79.2303
 60.0496  6224.97  79.4459
 60.0916  6301.36  79.3375
 60.1336  6222.76  79.9651
 60.1756  6126.69  80.5381
 60.1996  0.0000000E+00  0.0000000E+00