File: docs/examples/opeando_xrd/IS17_D/Data/IS17_D/17_Db_f00145.xye
# /beamlines/bl04/projects/cycle2025-II/20250340211-lsimonelli/DATA/IS17_D/17_Db_f00145.xye : mythproc.py merge -s 0.006 -l 0.5 -f /beamlines/bl04/inhouse/ff/FlatField/ff_20Nov2024rod8mm60s_17keV.raw -b True -c true -o xye /beamlines/bl04/projects/cycle2025-II/20250340211-lsimonelli/DATA/IS17_D/17_Db_00145.dat
# IsMon = [6760228, 6760122, 6760897]  IsPos = [-1.4999, -2.4884, -3.4989]
# Wave = 0.4962  CalPath /beamlines/bl04/projects/cycle2025-II/20250340211-lsimonelli/DATA/Align/Si_Pos1_25keV_f00001.cal
# Date = 2025-09-25_10:07:12 Dt = 4.8000  Bin = 0.0060  <imon> = 6760416 +/- 343 (Min/Max) 6760122 / 6760897
# icurr 250.8641  mocoIn 1.7115E-05  mocoOut 0.8031  i15 7.08477e+06  imon 6.76042e+06  i7 4.3333  iEMpd_timer 4.8000  iEMpd_1 3.4266E-08  iEMpd_2 7.8740E-08  iEMpd_3 1.8160E-08  iEMpd_4 4.8337E-08  iEMhp_timer 4.8000  iEMhp_1 4.9003E-06  iEMhp_2 -2.5798E-08  iEMhp_3 -2.3975E-08  iEMhp_4 -2.1746E-08
#      9776
 1.5856  45472.5  218.97
 1.6276  52042.3  230.235
 1.6696  56410  238.856
 1.7116  64343.3  255.599
 1.7536  72366.4  269.911
 1.7956  75718.6  276.782
 1.8376  73300.7  272.758
 1.8796  62669.2  250.337
 1.9216  52727.6  230.549
 1.9636  44636.8  211.255
 2.0056  40572.4  200.627
 2.0476  37985  196.253
 2.0896  37051.3  192.689
 2.1316  35367.7  187.355
 2.1736  33968.1  185.067
 2.2156  34744.7  185.669
 2.2576  33240.6  182.255
 2.2996  32029.7  179.563
 2.3416  32298.6  178.874
 2.3836  31445.4  176.606
 2.4256  30749.6  175.21
 2.4676  30012.3  172.852
 2.5096  29870.1  172.498
 2.5516  29303.5  174.747
 2.5936  30219.6  173.903
 2.6356  28306.4  169.037
 2.6776  27749.2  166.266
 2.7196  27353.7  165.56
 2.7616  27605.9  166.114
 2.8036  26998.2  164.438
 2.8456  27054.9  165.262
 2.8876  26127.8  162.262
 2.9296  26217  162.674
 2.9716  25843.3  160.998
 3.0136  25728.7  160.708
 3.0556  25740.1  161.139
 3.0976  25790.6  160.188
 3.1396  25437.5  159.834
 3.1816  24957.7  158.247
 3.2236  24738.4  157.551
 3.2656  24922.9  157.173
 3.3076  24543.7  157.445
 3.3496  24635.6  156.658
 3.3916  25145.8  158.085
 3.4336  25467.4  159.685
 3.4756  25854.9  160.84
 3.5176  26627.5  162.991
 3.5596  26380.1  164.694
 3.6016  26452.6  162.525
 3.6436  25768.8  161.53
 3.6856  25062.1  157.593
 3.7276  24346.2  156.417
 3.7696  24170.7  156.047
 3.8116  23840.2  154.865
 3.8536  23822.6  154.741
 3.8956  23851.7  154.654
 3.9376  23738.8  154.556
 3.9796  23742.9  154.051
 4.0216  23723.4  153.016
 4.0636  23637.9  154.216
 4.1056  23607  153.77
 4.1476  23839  154.833
 4.1896  23973.1  155.133
 4.2316  24098.1  155.354
 4.2736  24755.2  157.26
 4.3156  24608.1  157.024
 4.3576  25540.1  159.869
 4.3996  25812.7  161.004
 4.4416  26222.5  161.854
 4.4836  26691.3  163.456
 4.5256  27111.4  165.351
 4.5676  26903.9  164.972
 4.6096  27668.5  165.943
 4.6516  27954.8  166.493
 4.6936  27926  167.244
 4.7356  28299.7  168.175
 4.7776  27887.3  166.779
 4.8196  28107.6  168.088
 4.8616  27420.5  165.513
 4.9036  27255  164.74
 4.9456  27053.7  164.791
 4.9876  26470.8  162.905
 5.0296  26808.4  163.779
 5.0716  26427.1  163.361
 5.1136  26593.7  163.599
 5.1556  26978.5  164.234
 5.1976  27634.2  166.212
 5.2396  27577.1  165.731
 5.2816  27495.1  165.955
 5.3236  27460.9  165.548
 5.3656  27200.4  165.7
 5.4076  26953.5  165.089
 5.4496  26984.6  164.675
 5.4916  27303.1  165.39
 5.5336  27042.5  164.692
 5.5756  27116.8  164.851
 5.6176  27236.1  164.651
 5.6596  27549.5  166.59
 5.7016  27711.8  166.336
 5.7436  27724.5  166.266
 5.7856  27493.3  166.023
 5.8276  28012  167.293
 5.8696  28269.8  168.236
 5.9116  28124.7  168.408
 5.9536  28444.8  169.105
 5.9956  28600.6  168.946
 6.0376  28614  169.619
 6.0796  28963.6  170.475
 6.1216  28631.5  169.694
 6.1636  29184.9  170.366
 6.2056  28882.7  170.172
 6.2476  29144.9  170.812
 6.2896  29388.3  171.203
 6.3316  29516.9  171.747
 6.3736  29401.8  171.309
 6.4156  29595.3  171.75
 6.4576  29472.4  171.012
 6.4996  29462.5  171.471
 6.5416  29649  172.139
 6.5836  29669.5  172.29
 6.6256  29638.2  171.896
 6.6676  30131.3  172.892
 6.7096  30178.9  173.896
 6.7516  30533.1  174.57
 6.7936  30672  174.363
 6.8356  30882.5  175.056
 6.8776  30878.8  175.853
 6.9196  31193.7  177.15
 6.9616  31513.6  177.497
 7.0036  31977.5  178.453
 7.0456  31874.4  177.453
 7.0876  31777.9  178.879
 7.1296  31692.5  177.775
 7.1716  31867.5  177.795
 7.2136  31484.8  176.508
 7.2556  31849.2  177.679
 7.2976  31960.9  178.493
 7.3396  31639.9  177.817
 7.3816  31648.4  178.06
 7.4236  31990.1  178.306
 7.4656  32290.5  178.596
 7.5076  32482.6  179.276
 7.5496  32127.7  178.839
 7.5916  32411.2  179.668
 7.6336  32872.5  180.904
 7.6756  32910  180.777
 7.7176  33171  181.825
 7.7596  33331.3  183.493
 7.8016  33919.5  187.36
 7.8436  33196.4  182.164
 7.8856  33639.3  182.839
 7.9276  34201.9  184.758
 7.9696  34118.6  184.84
 8.0116  35651.4  187.486
 8.0536  35589.5  187.574
 8.0956  35430.3  188.33
 8.1376  36101.3  189.576
 8.1796  36144.6  190.225
 8.2216  36808.4  190.422
 8.2636  36981.4  191.405
 8.3056  36707.7  191.455
 8.3476  37638  193.194
 8.3896  37280  192.362
 8.4316  37360.1  192.73
 8.4736  37353.4  192.185
 8.5156  37322.1  192.38
 8.5576  36895.1  192.241
 8.5996  36893.7  191.119
 8.6416  36885.7  192.356
 8.6836  36659.8  191.598
 8.7256  37077.6  192.136
 8.7676  37115.5  195.165
 8.8096  37425.6  193.253
 8.8516  37097.6  191.972
 8.8936  36894.2  191.397
 8.9356  37257.8  192.672
 8.9776  37177.4  192.546
 9.0196  37049.2  191.887
 9.0616  36495.2  190.005
 9.1036  36290.9  190.585
 9.1456  36148.8  189.537
 9.1876  36710.7  190.958
 9.2296  36235.2  189.144
 9.2716  35738.7  187.881
 9.3136  35986.7  188.534
 9.3556  36307.9  189.347
 9.3976  35283.6  187.172
 9.4396  35220.5  186.913
 9.4816  35234.6  186.805
 9.5236  34970.5  185.996
 9.5656  34535.5  185.2
 9.6076  34050  184.418
 9.6496  33986.7  184.134
 9.6916  33790.1  183.546
 9.7336  33937.7  183.726
 9.7756  33829.9  184.72
 9.8176  33750.9  184.005
 9.8596  33594  182.018
 9.9016  33170.6  180.85
 9.9436  33090.2  180.55
 9.9856  32498.9  179.203
 10.0276  32232.5  179.549
 10.0696  32502  179.321
 10.1116  31481.5  176.754
 10.1536  31379.3  176.607
 10.1956  31042.8  175.279
 10.2376  30939.7  174.494
 10.2796  31084.8  175.011
 10.3216  30943.5  174.909
 10.3636  30318.5  173.159
 10.4056  29954.8  172.525
 10.4476  29980.8  172.211
 10.4896  30463  173.03
 10.5316  29511  171.035
 10.5736  29454.8  171.283
 10.6156  29842.7  172.161
 10.6576  29633.1  170.103
 10.6996  29129.7  169.357
 10.7416  28410.9  167.468
 10.7836  28152.4  167.38
 10.8256  28092  167.637
 10.8676  27933.2  166.693
 10.9096  27800.9  166.328
 10.9516  27563.8  164.544
 10.9936  27851.3  165.622
 11.0356  27646.6  165.64
 11.0776  27473  164.436
 11.1196  27124.5  164.164
 11.1616  26671  162.45
 11.2036  26760.7  162.574
 11.2456  26918.1  163.766
 11.2876  27175.1  164.268
 11.3296  26570.4  162.341
 11.3716  27087.2  163.595
 11.4136  26841.9  163.748
 11.4556  27020.7  163.948
 11.4976  27410.2  164.101
 11.5396  27459.2  164.421
 11.5816  26953.8  163.346
 11.6236  26432.8  161.995
 11.6656  26537.4  161.456
 11.7076  25574.7  159.332
 11.7496  25360.5  161.857
 11.7916  25387.8  157.99
 11.8336  25083.5  157.946
 11.8756  24954.5  157.086
 11.9176  24864  156.474
 11.9596  25033.7  157.175
 12.0016  24628.9  156.678
 12.0436  24915.1  157.026
 12.0856  24377.1  155.823
 12.1276  24177.9  155.029
 12.1696  24445  155.102
 12.2116  24499.9  155.278
 12.2536  24389.7  155.754
 12.2956  24076.4  153.97
 12.3376  24435.1  155.445
 12.3796  24225.1  155.258
 12.4216  24011.9  153.768
 12.4636  23837.8  154.148
 12.5056  24035.7  154.115
 12.5476  24410.8  154.752
 12.5896  23910  153.807
 12.6316  24105.4  154.579
 12.6736  23826.4  154.175
 12.7156  24004.8  154.588
 12.7576  24047.4  154.979
 12.7996  24185.7  154.059
 12.8416  23865.1  154.085
 12.8836  24149.8  154.834
 12.9256  24638.4  155.417
 12.9676  24452  155.236
 13.0096  24695  157.129
 13.0516  24579.2  155.779
 13.0936  24907.7  157.234
 13.1356  24958.9  156.354
 13.1776  24481.7  155.868
 13.2196  24668  156.091
 13.2616  24224  155.004
 13.3036  24636.1  156.279
 13.3456  24507.8  156.402
 13.3876  24914.7  156.793
 13.4296  24404.3  155.329
 13.4716  24659.3  155.771
 13.5136  24627.1  155.8
 13.5556  24585.1  156.012
 13.5976  24636.8  156.636
 13.6396  24671.2  156.099
 13.6816  24508.9  156.054
 13.7236  25166  157.705
 13.7656  26709.6  162.928
 13.8076  27450.8  163.814
 13.8496  26881.2  162.767
 13.8916  24946.3  157.954
 13.9336  24275.9  155.089
 13.9756  24354.9  154.724
 14.0176  24017.6  154.233
 14.0596  24090.3  154.478
 14.1016  23979.7  154.561
 14.1436  23844.3  153.251
 14.1856  23483.2  152.387
 14.2276  23171  151.81
 14.2696  23350.1  152.286
 14.3116  22854.1  150.571
 14.3536  22590.7  149.861
 14.3956  22499.1  149.282
 14.4376  22682.8  149.678
 14.4796  22630.6  149.504
 14.5216  22473.4  149.784
 14.5636  22371.7  149.004
 14.6056  22394  148.633
 14.6476  22282.4  147.508
 14.6896  21794.7  146.423
 14.7316  21502.6  146.483
 14.7736  21251.6  144.763
 14.8156  21200.7  144.609
 14.8576  21377.6  145.073
 14.8996  20858.7  144.496
 14.9416  20474.8  143.182
 14.9836  20379.8  142.83
 15.0256  19967.5  140.293
 15.0676  19918.1  140.341
 15.1096  19668.2  139.285
 15.1516  19499.3  139.243
 15.1936  19348  138.132
 15.2356  19061.7  137.382
 15.2776  19131.1  137.64
 15.3196  18720.2  136.728
 15.3616  18609.7  136.083
 15.4036  18372.7  135.079
 15.4456  18726.7  136.022
 15.4876  18314.1  134.203
 15.5296  18370.1  134.69
 15.5716  18097.1  133.293
 15.6136  18080.5  133.561
 15.6556  17961.6  132.731
 15.6976  17921.7  132.512
 15.7396  17768.3  132.326
 15.7816  17710  131.624
 15.8236  17380.8  131.021
 15.8656  17632.7  131.824
 15.9076  17412.9  130.82
 15.9496  18174.8  136.493
 15.9916  17799  135.475
 16.0336  17983.5  133.01
 16.0756  17737.4  132.425
 16.1176  17501  131.622
 16.1596  16908.7  130.554
 16.2016  17089.7  130.007
 16.2436  17075.9  130.336
 16.2856  17062.9  129.783
 16.3276  16779.7  129.151
 16.3696  17045.5  129.994
 16.4116  16732.4  129.234
 16.4536  17025.6  130.174
 16.4956  16867.6  129.301
 16.5376  16737.3  128.996
 16.5796  16838.2  128.739
 16.6216  16691.1  128.447
 16.6636  16387.3  127.462
 16.7056  16490.1  127.717
 16.7476  16900  128.816
 16.7896  16731.5  128.924
 16.8316  16558.7  128.241
 16.8736  16759.9  129.27
 16.9156  16603.1  129.003
 16.9576  16461.2  129.242
 16.9996  16480.3  129.792
 17.0416  16568.6  128.514
 17.0836  16611.3  128.439
 17.1256  16400.7  127.622
 17.1676  16384.5  127.525
 17.2096  16075.8  126.209
 17.2516  16091.9  126.068
 17.2936  16052.9  126.265
 17.3356  15783.7  125.183
 17.3776  15864.7  125.695
 17.4196  15745.5  124.92
 17.4616  15769.6  124.924
 17.5036  15420.7  123.896
 17.5456  15460.6  124.681
 17.5876  15551.5  124.107
 17.6296  15683.2  124.46
 17.6716  15406.3  123.936
 17.7136  15342.2  123.802
 17.7556  15336.5  124.077
 17.7976  15208  123.286
 17.8396  14976  121.854
 17.8816  15131.9  123.053
 17.9236  15135.7  122.848
 17.9656  15034.2  122.966
 18.0076  15151  123.031
 18.0496  15069.1  121.832
 18.0916  15057.2  122.247
 18.1336  15192.2  122.979
 18.1756  15246.5  122.743
 18.2176  14997.8  121.952
 18.2596  14673.9  120.356
 18.3016  14966.5  121.816
 18.3436  14836.4  121.281
 18.3856  14789.7  121.417
 18.4276  14898.5  121.356
 18.4696  14796.7  121.018
 18.5116  14826  121.43
 18.5536  14564.4  120.715
 18.5956  14561.7  120.247
 18.6376  14453.2  120.216
 18.6796  14504.1  119.732
 18.7216  14462.4  120.058
 18.7636  14527.3  120.331
 18.8056  14362.9  119.563
 18.8476  14034.2  118.82
 18.8896  14347.8  119.468
 18.9316  14374.4  119.561
 18.9736  14291.3  118.91
 19.0156  14270  119.249
 19.0576  14449.2  118.824
 19.0996  14354.5  119.144
 19.1416  14285.4  119.264
 19.1836  14166.9  118.375
 19.2256  14050.6  118.201
 19.2676  14236  118.975
 19.3096  14231.3  119.204
 19.3516  14109.9  118.649
 19.3936  14138.8  118.67
 19.4356  14358.1  119.457
 19.4776  14094.9  118.451
 19.5196  14214.9  118.806
 19.5616  14184.5  118.944
 19.6036  14113.1  118.137
 19.6456  14064.7  118.051
 19.6876  14105.4  117.853
 19.7296  14226.7  118.827
 19.7716  14045.9  118.245
 19.8136  14404.2  119.946
 19.8556  14365.8  119.26
 19.8976  14450.7  119.666
 19.9396  14573  119.761
 19.9816  14681.2  120.459
 20.0236  14761.3  120.98
 20.0656  14610.3  120.355
 20.1076  14567  120.665
 20.1496  14072.1  118.588
 20.1916  14143.6  118.41
 20.2336  13883  117.234
 20.2756  13685.8  116.818
 20.3176  13675.9  116.527
 20.3596  13465.4  115.628
 20.4016  13607.2  116.03
 20.4436  13599.9  116.468
 20.4856  13587.3  116.301
 20.5276  13440.5  116.135
 20.5696  13580.5  116.184
 20.6116  13266.1  115.1
 20.6536  13370.9  115.04
 20.6956  13362.4  115.169
 20.7376  13250.7  114.898
 20.7796  13258.2  114.618
 20.8216  13402.2  114.948
 20.8636  13474.4  115.64
 20.9056  13366.9  115.11
 20.9476  13215.9  114.309
 20.9896  13278.5  114.442
 21.0316  13247.4  114.213
 21.0736  13071.7  113.963
 21.1156  12991.1  113.776
 21.1576  13158.4  114.537
 21.1996  13104.6  114.299
 21.2416  13134.3  114.25
 21.2836  13034.3  113.787
 21.3256  13037.5  113.919
 21.3676  13077.4  113.576
 21.4096  13031.1  113.705
 21.4516  12858.8  112.829
 21.4936  12771.4  112.709
 21.5356  13011.4  113.705
 21.5776  12942.1  113.239
 21.6196  12875.1  112.984
 21.6616  12724.3  112.403
 21.7036  12890.9  112.899
 21.7456  12769.1  112.447
 21.7876  12713.3  111.968
 21.8296  12803.5  112.208
 21.8716  12824  112.527
 21.9136  12908.5  113.101
 21.9556  12721.9  111.958
 21.9976  12730.9  112.027
 22.0396  12749.5  112.36
 22.0816  12645.7  112.43
 22.1236  12833.2  112.716
 22.1656  12764.5  112.918
 22.2076  12498  110.833
 22.2496  12513.3  110.935
 22.2916  12394.7  110.292
 22.3336  12484.6  111.412
 22.3756  12390.4  110.714
 22.4176  12438.5  110.778
 22.4596  12116  109.917
 22.5016  12466.8  111.002
 22.5436  12609.5  111.625
 22.5856  12522.8  111.371
 22.6276  12661.6  112.118
 22.6696  12488.6  111.707
 22.7116  12361.4  110.649
 22.7536  12458  111.058
 22.7956  12517.9  110.663
 22.8376  12328.7  110.338
 22.8796  12344.7  110.21
 22.9216  12503  111.459
 22.9636  12385.5  110.094
 23.0056  12360.7  110.116
 23.0476  12417.8  110.938
 23.0896  12656.1  111.373
 23.1316  12577.8  111.466
 23.1736  12720.9  115.058
 23.2156  12806.1  112.803
 23.2576  12876.6  113.245
 23.2996  12540.1  111.532
 23.3416  12744.3  112.968
 23.3836  12741  112.176
 23.4256  12898.2  112.986
 23.4676  12670.7  111.674
 23.5096  12710.1  112.522
 23.5516  12490.6  110.839
 23.5936  12750.7  112.908
 23.6356  12799.9  112.786
 23.6776  12605.1  112.134
 23.7196  12555.5  111.487
 23.7616  12670.3  111.916
 23.8036  12701.6  112.11
 23.8456  12615  111.132
 23.8876  12571.4  111.439
 23.9296  12407.9  111.205
 23.9716  12483.2  110.743
 24.0136  12471.9  111.6
 24.0556  12360.9  110.81
 24.0976  12193.6  109.883
 24.1396  12154.2  112.322
 24.1816  12437.2  112.025
 24.2236  12375.1  111.374
 24.2656  12115.8  109.665
 24.3076  12145.6  110.07
 24.3496  12111.7  109.792
 24.3916  12272.2  110.567
 24.4336  12165.8  110.297
 24.4756  11989.6  109.378
 24.5176  12129  109.633
 24.5596  12070.7  109.492
 24.6016  11906  109.039
 24.6436  12001.7  108.987
 24.6856  12025.4  108.829
 24.7276  11760.3  107.953
 24.7696  11799.7  108.237
 24.8116  11585.6  107.437
 24.8536  11589.1  107.457
 24.8956  11683.7  107.626
 24.9376  11552.4  106.945
 24.9796  11453.9  106.855
 25.0216  11544.8  107.391
 25.0636  11469.6  106.691
 25.1056  11349.2  106.834
 25.1476  11431.3  108.844
 25.1896  11364.6  107.05
 25.2316  11265.1  105.848
 25.2736  11231.8  105.35
 25.3156  11342  105.931
 25.3576  11244.9  105.918
 25.3996  11235.2  105.857
 25.4416  11330.9  106.276
 25.4836  11023.2  105.347
 25.5256  11080.1  104.98
 25.5676  11154.8  105.062
 25.6096  11079.9  105.293
 25.6516  11179.6  105.264
 25.6936  11059.3  105.005
 25.7356  11031.5  105.01
 25.7776  11146.1  105.151
 25.8196  11014.1  104.765
 25.8616  10873.3  104.026
 25.9036  11190.4  104.972
 25.9456  11110.3  105.213
 25.9876  10950.5  104.511
 26.0296  11057.1  104.536
 26.0716  11106  105.191
 26.1136  10993.6  104.597
 26.1556  11073.1  104.352
 26.1976  10834.9  104.145
 26.2396  10969.6  103.95
 26.2816  11045.3  104.921
 26.3236  11072.3  105.205
 26.3656  10994  104.553
 26.4076  10924.1  104.423
 26.4496  11107.7  104.883
 26.4916  11200.2  105.209
 26.5336  11306.6  106.141
 26.5756  11631  107.451
 26.6176  11107.2  105.03
 26.6596  10882.1  104.245
 26.7016  10817.5  103.718
 26.7436  10921.9  104.342
 26.7856  10717.4  103.354
 26.8276  10606.3  102.783
 26.8696  10753.5  103.358
 26.9116  10658.2  102.843
 26.9536  10584.3  102.53
 26.9956  10472.4  102.023
 27.0376  10614.4  102.935
 27.0796  10544.1  102.32
 27.1216  10562.9  102.47
 27.1636  10350.5  101.595
 27.2056  10341.8  101.442
 27.2476  10469.5  102.069
 27.2896  10431.4  101.986
 27.3316  10343.4  101.269
 27.3736  10389.3  101.771
 27.4156  10635  102.797
 27.4576  10322.6  101.504
 27.4996  10419.8  101.584
 27.5416  10423.8  101.918
 27.5836  10375.3  101.516
 27.6256  10311.1  101.381
 27.6676  10330.2  101.469
 27.7096  10299.9  101.198
 27.7516  10268.1  101.099
 27.7936  10571.2  102.823
 27.8356  10457  101.877
 27.8776  10523.4  102.261
 27.9196  10283.7  100.943
 27.9616  10215  100.816
 28.0036  10176.7  100.574
 28.0456  10145.3  100.564
 28.0876  10061.8  100.236
 28.1296  10163.5  100.573
 28.1716  10228.8  100.917
 28.2136  10144.2  100.461
 28.2556  10199.1  100.84
 28.2976  10086.2  100.28
 28.3396  10036.1  99.7912
 28.3816  10096.1  100.099
 28.4236  9946.2  99.5085
 28.4656  9957.89  99.6029
 28.5076  9959.73  99.2395
 28.5496  9982.79  99.6218
 28.5916  9949.32  99.2704
 28.6336  9991.22  99.8185
 28.6756  9984.92  98.9921
 28.7176  9963.45  99.4377
 28.7596  9830.89  98.6686
 28.8016  9929.43  99.2014
 28.8436  9682.62  98.2009
 28.8856  9956.57  99.4232
 28.9276  9801.93  98.8995
 28.9696  9823.6  98.6611
 29.0116  9755.15  98.5048
 29.0536  9681.92  98.3382
 29.0956  9799.89  98.6318
 29.1376  9793.07  98.5777
 29.1796  9754.33  98.4306
 29.2216  9793.29  98.4647
 29.2636  9783.2  98.4876
 29.3056  9740.04  98.0548
 29.3476  9825.94  99.0157
 29.3896  9733.03  98.6629
 29.4316  9620.72  97.4183
 29.4736  9551.35  97.1342
 29.5156  9538.2  96.9865
 29.5576  9526.77  97.6677
 29.5996  9494.02  96.7636
 29.6416  9373.44  96.262
 29.6836  9552.55  97.1083
 29.7256  9346.64  96.6131
 29.7676  9470.77  96.915
 29.8096  9510.21  97.0606
 29.8516  9183  95.7005
 29.8936  9415.44  96.9985
 29.9356  9514.74  97.2642
 29.9776  9352.95  96.5737
 30.0196  9355.57  95.9877
 30.0616  9422.25  96.707
 30.1036  9458.05  96.7159
 30.1456  9299.81  96.1332
 30.1876  9397.13  96.6152
 30.2296  9359.51  96.3694
 30.2716  9469.27  96.5701
 30.3136  9313.18  96.6195
 30.3556  9633.14  98.2632
 30.3976  9496.48  99.0805
 30.4396  9797.14  97.932
 30.4816  9718.72  97.1512
 30.5236  9692.34  97.0194
 30.5656  9698.1  97.7084
 30.6076  9634.83  96.7981
 30.6496  9580.81  96.9476
 30.6916  9401.57  96.1177
 30.7336  9521.91  96.877
 30.7756  9582.78  97.2864
 30.8176  9596.77  97.2675
 30.8596  9488.18  96.4637
 30.9016  9452.35  96.6414
 30.9436  9466.92  96.4653
 30.9856  9601.92  97.2617
 31.0276  9300.15  95.3631
 31.0696  9420.29  96.5387
 31.1116  9401.16  96.4131
 31.1536  9379.82  96.1671
 31.1956  9351.81  96.1212
 31.2376  9207.1  95.401
 31.2796  9451.96  96.1799
 31.3216  9421.57  95.9648
 31.3636  9453.61  96.836
 31.4056  9357.61  97.6249
 31.4476  9382  95.6858
 31.4896  9430.43  96.4355
 31.5316  9429.56  95.831
 31.5736  9470.2  95.8667
 31.6156  9465.97  95.8495
 31.6576  9426.08  95.7317
 31.6996  9639.26  96.476
 31.7416  9325.64  95.9753
 31.7836  9619.95  96.4537
 31.8256  9404.74  95.6403
 31.8676  9481.02  96.0237
 31.9096  9317.7  95.5623
 31.9516  9134.26  94.7805
 31.9936  9162.8  94.7502
 32.0356  9396.3  96.0004
 32.0776  9309.03  95.4394
 32.1196  9315.4  95.5929
 32.1616  9437.75  95.6511
 32.2036  9280.27  95.3685
 32.2456  9293.39  95.815
 32.2876  9335.49  95.5297
 32.3296  9143.17  94.5063
 32.3716  9025.38  94.0092
 32.4136  8999.13  94.0746
 32.4556  9151.4  94.2509
 32.4976  9094.54  93.8654
 32.5396  9101.07  93.9667
 32.5816  9115.5  94.1631
 32.6236  9083.5  94.061
 32.6656  9163.12  95.0261
 32.7076  8980.25  93.7281
 32.7496  8983.44  93.4182
 32.7916  9093.6  93.9408
 32.8336  8913.47  93.1045
 32.8756  9133.37  93.9613
 32.9176  8909.24  93.2834
 32.9596  8962.06  93.6343
 33.0016  9001.78  93.6123
 33.0436  9104.35  94.0505
 33.0856  8885.22  93.2752
 33.1276  8921.79  93.1968
 33.1696  9090.04  93.8931
 33.2116  9034.61  93.852
 33.2536  9129.2  94.3256
 33.2956  9068.83  94.1015
 33.3376  8937.6  93.1658
 33.3796  8990.98  93.6573
 33.4216  8982.4  93.2007
 33.4636  9011.05  93.5058
 33.5056  8794.11  92.618
 33.5476  8925.31  93.2846
 33.5896  8896.02  92.9259
 33.6316  8912.23  93.3166
 33.6736  8795.59  92.9515
 33.7156  8736.4  92.4004
 33.7576  8940.15  93.3853
 33.7996  8921.67  93.0456
 33.8416  8579.48  91.4299
 33.8836  8863.31  92.8388
 33.9256  8876.69  92.8301
 33.9676  8909.2  92.8968
 34.0096  8765.73  92.4612
 34.0516  8659.71  91.5371
 34.0936  8734.85  92.1102
 34.1356  8872.09  92.6667
 34.1776  8638.18  91.4354
 34.2196  8729.95  92.0987
 34.2616  8652.22  91.8266
 34.3036  8752.47  92.6012
 34.3456  8685.36  92.0016
 34.3876  8736.81  92.2452
 34.4296  8709.94  91.8008
 34.4716  8752.81  92.1286
 34.5136  8683.65  91.9968
 34.5556  8587.54  91.753
 34.5976  8740.25  92.3696
 34.6396  8619.65  91.4391
 34.6816  8724.99  92.0976
 34.7236  8594.52  91.1875
 34.7656  8838.13  92.6844
 34.8076  8533.52  91.405
 34.8496  8521.99  91.1946
 34.8916  8710.39  92.0581
 34.9336  8617.48  91.5502
 34.9756  8615.95  91.4567
 35.0176  8565.71  91.7194
 35.0596  8731.17  92.4243
 35.1016  8560.18  91.2636
 35.1436  8811.38  92.2811
 35.1856  8522.14  90.8717
 35.2276  8559.67  91.2489
 35.2696  8576.16  91.5417
 35.3116  8571.74  91.6026
 35.3536  8529.1  91.0953
 35.3956  8478.92  90.5277
 35.4376  8557.77  91.5212
 35.4796  8597.54  91.7758
 35.5216  8511.22  91.2709
 35.5636  8373.57  91.2713
 35.6056  8467.98  90.8091
 35.6476  8521.24  90.9888
 35.6896  8527.08  91.1175
 35.7316  8435.62  90.6021
 35.7736  8444.89  90.8347
 35.8156  8519.36  91.2306
 35.8576  8479.5  91.2766
 35.8996  8579.16  91.7728
 35.9416  8545.2  91.0903
 35.9836  8516.8  91.2821
 36.0256  8644.54  91.9816
 36.0676  8762.42  92.3646
 36.1096  8500.7  91.1162
 36.1516  8569.9  91.374
 36.1936  8588.67  91.3168
 36.2356  8509.51  91.5516
 36.2776  8361.82  90.2313
 36.3196  8381.43  90.0151
 36.3616  8480.91  90.6069
 36.4036  8479.18  90.7339
 36.4456  8482.61  90.9603
 36.4876  8272.42  89.7618
 36.5296  8441.66  90.7192
 36.5716  8327.43  90.6522
 36.6136  8256.9  89.286
 36.6556  8341.55  89.9362
 36.6976  8168.13  89.4939
 36.7396  8180.33  89.2929
 36.7816  8164.84  89.5829
 36.8236  8113.47  89.2219
 36.8656  8233.83  89.9386
 36.9076  8033.17  88.7302
 36.9496  8007.19  88.5764
 36.9916  8095.69  88.6778
 37.0336  8185.45  89.4987
 37.0756  8135.49  89.0207
 37.1176  8087.27  89.0234
 37.1596  7962.21  88.3387
 37.2016  8077.12  89.194
 37.2436  8022.75  88.2196
 37.2856  8023.58  88.4748
 37.3276  8074.22  88.2792
 37.3696  7933.03  88.213
 37.4116  8035.74  88.6888
 37.4536  7997.63  88.3447
 37.4956  7868.37  87.8765
 37.5376  8128.2  90.6986
 37.5796  8183.52  90.9339
 37.6216  8182.58  89.1838
 37.6636  8192.14  89.1253
 37.7056  8256.28  89.6628
 37.7476  8337.76  89.6417
 37.7896  8072.02  88.7077
 37.8316  8067.52  88.8407
 37.8736  8104.64  88.5676
 37.9156  8183.89  88.9877
 37.9576  8029.25  88.0652
 37.9996  8001.72  87.6277
 38.0416  8033.46  88.6072
 38.0836  8153.06  89.1672
 38.1256  8211.97  89.4603
 38.1676  7934.28  88.0501
 38.2096  8243.45  89.3578
 38.2516  8028.14  88.4046
 38.2936  8215.18  89.2275
 38.3356  8043.05  88.2159
 38.3776  8059.57  88.5598
 38.4196  8017.21  88.1848
 38.4616  8063.87  88.6799
 38.5036  8280.45  89.7003
 38.5456  7887.74  88.3795
 38.5876  7960.89  88.8089
 38.6296  8006.69  88.0216
 38.6716  8105.17  88.3779
 38.7136  7962.97  87.5427
 38.7556  8003.93  88.2787
 38.7976  8086.9  88.6459
 38.8396  7925.26  88.2309
 38.8816  8058.96  88.7646
 38.9236  7975.54  88.1053
 38.9656  8036.27  88.3409
 39.0076  8065.91  87.9044
 39.0496  8073.13  88.5047
 39.0916  8160.48  88.624
 39.1336  8050.74  88.4363
 39.1756  8070.32  88.603
 39.2176  7893.9  88.1629
 39.2596  7897.23  88.1102
 39.3016  8122.68  88.9385
 39.3436  7868.96  87.9401
 39.3856  8079.84  88.5633
 39.4276  8181.62  89.6279
 39.4696  8041.96  88.4798
 39.5116  7999.03  88.7608
 39.5536  8009.58  89.2311
 39.5956  8009.74  88.343
 39.6376  8048.17  88.5521
 39.6796  7945.6  87.7256
 39.7216  7956.33  87.8939
 39.7636  8080.47  89.1382
 39.8056  8005.35  88.5108
 39.8476  7964.84  88.5434
 39.8896  7958.52  88.1354
 39.9316  7891.45  88.0064
 39.9736  7974.93  88.053
 40.0156  7920.17  87.5796
 40.0576  8009.47  88.4209
 40.0996  8093.15  88.0637
 40.1416  7977.72  88.2296
 40.1836  7988.86  88.1782
 40.2256  8040.3  88.4939
 40.2676  7989.67  88.3259
 40.3096  7956.32  88.0705
 40.3516  8061.73  88.7621
 40.3936  8075.32  88.3919
 40.4356  7943.16  87.8739
 40.4776  8113.16  89.2131
 40.5196  8048.97  88.9846
 40.5616  8161.15  89.2427
 40.6036  8054.6  88.9219
 40.6456  7973.24  88.0737
 40.6876  8051.02  88.4956
 40.7296  7873.55  87.6438
 40.7716  8122.95  89.1443
 40.8136  7898.47  87.853
 40.8556  8016.11  88.6348
 40.8976  8016.85  88.5611
 40.9396  8034.8  89.0072
 40.9816  8025.65  88.2476
 41.0236  8014.71  87.9721
 41.0656  8034.91  88.6189
 41.1076  8020.48  88.3081
 41.1496  8000.84  88.1065
 41.1916  7926.03  88.0115
 41.2336  7994.01  88.3824
 41.2756  8036.43  88.2228
 41.3176  8068.4  89.0075
 41.3596  7922.51  87.9377
 41.4016  7934.73  88.2713
 41.4436  7994.73  88.3856
 41.4856  7979.19  88.4719
 41.5276  7998.85  88.5928
 41.5696  7891.75  87.6332
 41.6116  8032.58  88.805
 41.6536  7898.82  87.9155
 41.6956  7977.67  88.4186
 41.7376  7931.12  88.1823
 41.7796  7926.27  88.0399
 41.8216  8046.1  88.9341
 41.8636  8029.48  88.7924
 41.9056  7756.77  87.0612
 41.9476  8011.01  88.7142
 41.9896  8034.16  88.4984
 42.0316  8017.09  88.4979
 42.0736  8099.2  89.049
 42.1156  8000.64  88.3392
 42.1576  7922.44  88.0168
 42.1996  8024  88.7019
 42.2416  8074.51  88.485
 42.2836  7967.14  88.0971
 42.3256  8007  88.4254
 42.3676  8002.54  88.2008
 42.4096  8046.15  88.4153
 42.4516  7990.14  88.2449
 42.4936  7819.86  87.316
 42.5356  7847.08  87.6052
 42.5776  8010.75  88.4539
 42.6196  7930.57  88.0673
 42.6616  7808.75  87.5538
 42.7036  7809.35  86.945
 42.7456  8000.45  88.3591
 42.7876  7868.62  87.7091
 42.8296  7905.95  87.7683
 42.8716  7860.64  87.679
 42.9136  7841.19  87.3552
 42.9556  7976.4  88.2429
 42.9976  7860.74  87.5654
 43.0396  7987.86  87.9953
 43.0816  7831.93  87.52
 43.1236  7832.79  87.5737
 43.1656  7937.94  87.9864
 43.2076  7810.3  87.3827
 43.2496  7886.32  87.6235
 43.2916  7828.96  87.6701
 43.3336  7878.38  87.7767
 43.3756  7935.46  87.8496
 43.4176  7757.52  86.9439
 43.4596  7859.91  87.3711
 43.5016  7751.84  87.1607
 43.5436  7833.01  87.529
 43.5856  7711.09  86.8719
 43.6276  7739.33  86.9229
 43.6696  7835.15  87.6645
 43.7116  7878.46  87.4569
 43.7536  7943.22  88.3138
 43.7956  7702.51  88.1773
 43.8376  7569.67  85.951
 43.8796  7641.81  86.4369
 43.9216  7584.69  86.0336
 43.9636  7713.31  86.8644
 44.0056  7608.73  86.5055
 44.0476  7604.68  86.2336
 44.0896  7622.2  86.5573
 44.1316  7694.9  86.4892
 44.1736  7617.32  86.1812
 44.2156  7665.6  86.3038
 44.2576  7590.55  86.2033
 44.2996  7605.8  86.2602
 44.3416  7593.24  85.9504
 44.3836  7506.42  85.785
 44.4256  7536.59  85.603
 44.4676  7561.31  85.8918
 44.5096  7643.9  86.5138
 44.5516  7564.74  86.023
 44.5936  7390.69  84.987
 44.6356  7606.77  85.9552
 44.6776  7531.56  85.8491
 44.7196  7533.84  86.1684
 44.7616  7602.23  87.8893
 44.8036  7632.63  86.4796
 44.8456  7725.11  87.2018
 44.8876  7747.79  87.2823
 44.9296  7782.62  86.8139
 44.9716  7754.73  87.082
 45.0136  7658.6  86.4937
 45.0556  7828.93  87.424
 45.0976  7756.63  87.18
 45.1396  7649.95  86.3236
 45.1816  7634.54  86.1849
 45.2236  7732.95  86.6427
 45.2656  7566.01  86.1939
 45.3076  7605.33  86.1927
 45.3496  7544.88  86.1692
 45.3916  7667.64  87.1453
 45.4336  7667.67  86.9856
 45.4756  7525.61  86.0268
 45.5176  7626.58  86.2157
 45.5596  7676.53  86.619
 45.6016  7580.75  86.5064
 45.6436  7609.66  85.8295
 45.6856  7610.31  86.5016
 45.7276  7549.05  87.4922
 45.7696  7562.46  87.2372
 45.8116  7564.45  86.6763
 45.8536  7563.63  86.5558
 45.8956  7673.03  86.5342
 45.9376  7709.61  86.1881
 45.9796  7545.65  85.9619
 46.0216  7596.67  86.5948
 46.0636  7656.85  86.0567
 46.1056  7523.83  85.3093
 46.1476  7582.96  86.2341
 46.1896  7565.36  86.2873
 46.2316  7639.09  86.5744
 46.2736  7554.15  86.4722
 46.3156  7581.38  86.2035
 46.3576  7557.95  86.2778
 46.3996  7500.34  86.1061
 46.4416  7509.57  85.729
 46.4836  7526.93  86.186
 46.5256  7522.1  86.1046
 46.5676  7459.86  85.8645
 46.6096  7545.84  86.2855
 46.6516  7520.79  85.1799
 46.6936  7572.81  85.9767
 46.7356  7699.67  86.7864
 46.7776  7461.04  86.3449
 46.8196  7562.88  86.463
 46.8616  7360.47  85.2486
 46.9036  7328.07  84.7176
 46.9456  7400.6  84.7756
 46.9876  7506.18  85.4552
 47.0296  7501.22  86.0423
 47.0716  7464.74  85.7428
 47.1136  7422.73  85.1772
 47.1556  7433.36  85.1078
 47.1976  7615.61  86.2193
 47.2396  7419.09  85.5049
 47.2816  7395.3  85.0678
 47.3236  7439.23  85.6915
 47.3656  7495.58  85.9412
 47.4076  7427.29  85.357
 47.4496  7472.3  85.7007
 47.4916  7500.88  86.0623
 47.5336  7432.16  85.4833
 47.5756  7511.05  86.0531
 47.6176  7380.67  85.203
 47.6596  7321.81  84.5764
 47.7016  7581.63  85.865
 47.7436  7442.09  85.4268
 47.7856  7585.65  86.267
 47.8276  7392.03  85.2145
 47.8696  7466.12  85.7214
 47.9116  7514  85.7079
 47.9536  7501.81  85.579
 47.9956  7296.4  85.1114
 48.0376  7381.4  85.3778
 48.0796  7565.17  86.5553
 48.1216  7404.11  85.4534
 48.1636  7502.22  85.579
 48.2056  7494.88  85.8069
 48.2476  7503.07  86.1565
 48.2896  7500.04  86.0674
 48.3316  7456.81  85.7614
 48.3736  7399.43  85.4455
 48.4156  7389.63  85.3528
 48.4576  7399.39  85.597
 48.4996  7477.18  85.4895
 48.5416  7550.17  86.2371
 48.5836  7409.01  85.1004
 48.6256  7459.73  85.6032
 48.6676  7495.63  86.3285
 48.7096  7464.15  85.4067
 48.7516  7418.46  85.2959
 48.7936  7403.35  85.3757
 48.8356  7429.38  85.4758
 48.8776  7420.34  86.0091
 48.9196  7536.92  86.0304
 48.9616  7387.68  85.5517
 49.0036  7448.2  86.2657
 49.0456  7273.16  85.2288
 49.0876  7407.14  85.5442
 49.1296  7258.59  84.8385
 49.1716  7189.5  84.5283
 49.2136  7330.09  85.0575
 49.2556  7443.21  85.7369
 49.2976  7486.39  86.0478
 49.3396  7387.52  85.5391
 49.3816  7356.07  84.9233
 49.4236  7393.74  85.43
 49.4656  7306.27  84.9419
 49.5076  7478.76  85.6785
 49.5496  7372.75  85.1405
 49.5916  7504.27  85.8121
 49.6336  7398.64  85.4135
 49.6756  7385.7  85.572
 49.7176  7371.03  85.4263
 49.7596  7317.69  84.8821
 49.8016  7450.27  85.5499
 49.8436  7298.46  84.9847
 49.8856  7328.17  85.1674
 49.9276  7288.72  85.0412
 49.9696  7335.8  85.2952
 50.0116  7325.7  85.3631
 50.0536  7333.41  85.3573
 50.0956  7297.55  85.2224
 50.1376  7331.77  85.1073
 50.1796  7308.15  85.2572
 50.2216  7298.98  85.1877
 50.2636  7311.25  84.8794
 50.3056  7200.7  84.4079
 50.3476  7310.05  85.0728
 50.3896  7331.08  85.1668
 50.4316  7304.45  84.8349
 50.4736  7255.3  84.7785
 50.5156  7204.08  84.4725
 50.5576  7367.58  85.1726
 50.5996  7215.57  84.5786
 50.6416  7305.62  85.03
 50.6836  7259.77  84.8209
 50.7256  7342.67  85.2342
 50.7676  7404.99  85.9188
 50.8096  7242.68  84.4893
 50.8516  7265.83  85.0544
 50.8936  7131.9  84.052
 50.9356  7274.34  84.9968
 50.9776  7306.74  85.3491
 51.0196  6999.79  83.6597
 51.0616  7166.1  83.9632
 51.1036  7127.29  84.0988
 51.1456  7242.53  84.6848
 51.1876  7091.47  83.1228
 51.2296  7151.63  84.1201
 51.2716  6977.18  82.7998
 51.3136  7042.96  83.6558
 51.3556  7039.75  83.2495
 51.3976  7066.34  83.563
 51.4396  6984.33  83.3912
 51.4816  6994.99  83.3077
 51.5236  7127.74  84.1748
 51.5656  6945.84  82.6929
 51.6076  7129.13  83.8628
 51.6496  7026.21  83.4484
 51.6916  7061.63  84.0233
 51.7336  6977.09  83.6065
 51.7756  7078.18  83.9095
 51.8176  6860.77  82.7167
 51.8596  6973.8  83.4039
 51.9016  7051.92  83.4737
 51.9436  7023.71  84.8168
 51.9856  7105.72  85.7246
 52.0276  7196.71  84.7244
 52.0696  7230.61  84.9976
 52.1116  7097.8  84.3429
 52.1536  7167.94  84.6332
 52.1956  7039.43  83.3244
 52.2376  7326.15  85.1816
 52.2796  7010.12  83.1441
 52.3216  6896.33  83.1525
 52.3636  7007.17  83.3825
 52.4056  6995.76  83.1768
 52.4476  7050.8  83.8783
 52.4896  7140.87  84.4457
 52.5316  7020.68  83.7887
 52.5736  6935.64  83.0121
 52.6156  7083.12  84.2879
 52.6576  6964.1  83.0076
 52.6996  6890.54  83.5664
 52.7416  7024.72  84.299
 52.7836  7057.44  84.31
 52.8256  7062.05  83.5296
 52.8676  6833.27  82.7402
 52.9096  7065.28  84.2068
 52.9516  6930.34  83.8008
 52.9936  6976.56  84.4591
 53.0356  7137.8  84.4037
 53.0776  6960.03  83.6181
 53.1196  7033.11  84.186
 53.1616  7027.9  84.1973
 53.2036  6920.38  83.5192
 53.2456  7096.99  84.6861
 53.2876  7153.8  84.7021
 53.3296  7019.81  84.2374
 53.3716  7150.9  84.7637
 53.4136  7089.16  84.5526
 53.4556  6971.39  83.879
 53.4976  6840.24  82.9248
 53.5396  6951.88  84.011
 53.5816  6953.04  83.6346
 53.6236  6843.81  83.3312
 53.6656  6917.77  83.3779
 53.7076  6946.63  83.522
 53.7496  7012.23  84.035
 53.7916  6931.47  83.6901
 53.8336  7014.41  84.079
 53.8756  6908.59  84.0055
 53.9176  6900.51  83.287
 53.9596  6746.25  83.1208
 54.0016  6769.66  82.5836
 54.0436  6632.44  81.9723
 54.0856  6797.68  82.3949
 54.1276  6808  82.6593
 54.1696  6710.93  82.2364
 54.2116  6841.21  82.7737
 54.2536  6651.53  81.4297
 54.2956  6743.6  82.0516
 54.3376  6608.41  81.6789
 54.3796  6598.55  81.5457
 54.4216  6612.72  81.5127
 54.4636  6593.91  81.5357
 54.5056  6760.87  82.3565
 54.5476  6601.28  81.7388
 54.5896  6664.29  81.9522
 54.6316  6708.65  82.0489
 54.6736  6621.17  81.6207
 54.7156  6639.56  81.7564
 54.7576  6544.89  81.1509
 54.7996  6770.08  82.6804
 54.8416  6659.86  82.0601
 54.8836  6599.08  81.7836
 54.9256  6623.85  81.6874
 54.9676  6493.67  80.7505
 55.0096  6616.16  81.5673
 55.0516  6536.38  81.2801
 55.0936  6616.85  81.4537
 55.1356  6471.24  80.5955
 55.1776  6684.11  82.1399
 55.2196  6594.71  81.3721
 55.2616  6649.16  81.9553
 55.3036  6419  80.6827
 55.3456  6390.36  80.6422
 55.3876  6553.33  81.4078
 55.4296  6412.04  80.512
 55.4716  6598.49  81.7039
 55.5136  6450.87  80.538
 55.5556  6673.06  81.9622
 55.5976  6545.16  81.2581
 55.6396  6618.96  81.654
 55.6816  6478.88  80.6704
 55.7236  6380.31  80.1009
 55.7656  6499.19  80.5593
 55.8076  6461  80.3424
 55.8496  6598.3  81.4907
 55.8916  6397.43  80.4649
 55.9336  6630.6  81.7397
 55.9756  6519.59  80.9326
 56.0176  6396.37  80.3003
 56.0596  6485.25  80.8434
 56.1016  6323.81  79.8503
 56.1436  6363.23  80.3728
 56.1856  6301.33  79.7277
 56.2276  6535.62  81.2394
 56.2696  6372.47  80.205
 56.3116  6592  81.9418
 56.3536  6402.69  80.4323
 56.3956  6353.79  80.1102
 56.4376  6443.64  80.7099
 56.4796  6338.44  79.8726
 56.5216  6425.49  80.789
 56.5636  6393.24  80.1637
 56.6056  6442.36  80.7075
 56.6476  6318.99  79.5357
 56.6896  6594.81  81.7333
 56.7316  6323.79  79.9504
 56.7736  6267.56  79.5691
 56.8156  6411.91  80.5329
 56.8576  6165.76  78.9017
 56.8996  6366.13  80.0872
 56.9416  6354.22  80.3205
 56.9836  6400.74  80.1218
 57.0256  6325.22  79.9768
 57.0676  6409.88  80.6277
 57.1096  6305.27  79.7589
 57.1516  6308.35  79.8227
 57.1936  6388.29  80.0927
 57.2356  6277.02  79.7117
 57.2776  6307.12  79.872
 57.3196  6341.28  80.4244
 57.3616  6269.74  79.478
 57.4036  6337.56  79.9465
 57.4456  6427.88  80.5083
 57.4876  6273.28  79.4097
 57.5296  6293.95  79.8601
 57.5716  6238  79.5089
 57.6136  6231.39  79.3072
 57.6556  6271.23  79.6646
 57.6976  6352.05  80.0187
 57.7396  6229.47  79.5894
 57.7816  6192.61  79.7322
 57.8236  6181.22  79.4963
 57.8656  6197.3  79.2233
 57.9076  6265.22  79.6648
 57.9496  6234.72  79.8316
 57.9916  6235.56  79.3465
 58.0336  6205.22  79.443
 58.0756  6286.2  79.5848
 58.1176  6299.43  79.658
 58.1596  6119.51  79.1077
 58.2016  5975.94  77.3977
 58.2436  6044.86  78.2493
 58.2856  5937.94  77.4816
 58.3276  6087.44  78.8215
 58.3696  5996.17  77.9794
 58.4116  5895.92  77.1947
 58.4536  6045.12  78.0533
 58.4956  5977.3  77.7931
 58.5376  6039.04  77.765
 58.5796  6041.22  78.2015
 58.6216  6029.13  77.9444
 58.6636  5988.85  77.8918
 58.7056  6051.05  78.1525
 58.7476  5971.89  78.0766
 58.7896  5990.45  77.8477
 58.8316  5944.83  77.5418
 58.8736  6067.6  78.3544
 58.9156  5955.59  77.6669
 58.9576  5991.57  78.221
 58.9996  6067.74  77.9688
 59.0416  6103.11  78.5609
 59.0836  6032.1  78.0008
 59.1256  5940.52  78.1204
 59.1676  5938.58  78.4166
 59.2096  5978.56  77.988
 59.2516  5975.43  77.5509
 59.2936  5983.58  77.9303
 59.3356  5998.36  77.9047
 59.3776  5985.3  77.988
 59.4196  5958.94  77.753
 59.4616  5894.94  77.1955
 59.5036  5849.09  76.9295
 59.5456  6155.21  78.6074
 59.5876  5919.94  77.2797
 59.6296  5816.46  76.6692
 59.6716  5913.54  77.3637
 59.7136  5902.47  77.2797
 59.7556  5892.75  77.3508
 59.7976  6036.82  78.0329
 59.8396  6031.34  77.8918
 59.8816  6015.03  78.3293
 59.9236  5939.87  77.4864
 59.9656  5710.25  76.2273
 60.0076  5916.47  76.9556
 60.0496  5883.75  76.7669
 60.0916  6086.5  77.9752
 60.1336  5953.58  78.2185
 60.1756  5817.26  78.4801
 60.1996  5883.95  81.1361