File: docs/examples/opeando_xrd/IS17_D/Data/IS17_D/17_Db_f00028.xye
# /beamlines/bl04/projects/cycle2025-II/20250340211-lsimonelli/DATA/IS17_D/17_Db_f00028.xye : mythproc.py merge -s 0.006 -l 0.5 -f /beamlines/bl04/inhouse/ff/FlatField/ff_20Nov2024rod8mm60s_17keV.raw -b True -c true -o xye /beamlines/bl04/projects/cycle2025-II/20250340211-lsimonelli/DATA/IS17_D/17_Db_00028.dat
# IsMon = [6754193, 6756711, 6753307]  IsPos = [-1.4999, -2.4886, -3.4988]
# Wave = 0.4962  CalPath /beamlines/bl04/projects/cycle2025-II/20250340211-lsimonelli/DATA/Align/Si_Pos1_25keV_f00001.cal
# Date = 2025-09-24_01:29:11 Dt = 4.8000  Bin = 0.0060  <imon> = 6754737 +/- 1442 (Min/Max) 6753307 / 6756711
# icurr 250.4615  mocoIn 1.7093E-05  mocoOut 0.8017  i15 7.07689e+06  imon 6.75474e+06  i7 5.0000  iEMpd_timer 4.8000  iEMpd_1 3.6570E-08  iEMpd_2 7.6198E-08  iEMpd_3 1.7129E-08  iEMpd_4 4.7882E-08  iEMhp_timer 4.8000  iEMhp_1 4.8940E-06  iEMhp_2 -2.5155E-08  iEMhp_3 -2.3736E-08  iEMhp_4 -2.2277E-08
#      9776
 1.5856  43264.9  213.594
 1.6276  50698.9  227.249
 1.6696  56227  238.475
 1.7116  63491.8  253.908
 1.7536  71347  268.01
 1.7956  75389.5  276.187
 1.8376  72190.1  270.691
 1.8796  61380.3  247.771
 1.9216  51126.1  227.027
 1.9636  43625.9  208.855
 2.0056  39769.1  198.636
 2.0476  37078.6  193.902
 2.0896  35417.5  188.398
 2.1316  35014.8  186.423
 2.1736  32907.6  182.16
 2.2156  33472.4  182.243
 2.2576  32343.8  179.787
 2.2996  30827.3  176.165
 2.3416  31425.5  176.446
 2.3836  30591  174.195
 2.4256  29926.8  172.855
 2.4676  29459.3  171.256
 2.5096  29104.7  170.278
 2.5516  27910  170.547
 2.5936  27893.2  167.089
 2.6356  27136.5  165.504
 2.6776  27192.5  164.579
 2.7196  26971.8  164.389
 2.7616  26756.1  163.53
 2.8036  26296.9  162.279
 2.8456  26425.9  163.318
 2.8876  26132.6  162.24
 2.9296  25479.5  160.357
 2.9716  25154.9  158.828
 3.0136  24919.3  158.151
 3.0556  24956.5  158.652
 3.0976  24863.8  157.283
 3.1396  24454.3  156.693
 3.1816  24384  156.413
 3.2236  23996.6  155.149
 3.2656  24007.5  154.238
 3.3076  24006.3  155.698
 3.3496  24228.5  155.595
 3.3916  24590.9  156.313
 3.4336  25023.3  158.281
 3.4756  25229.2  158.876
 3.5176  25963.7  160.93
 3.5596  25695  162.54
 3.6016  25879.1  160.755
 3.6436  24986.1  159.051
 3.6856  24626.1  156.219
 3.7276  23597.5  153.984
 3.7696  23408.8  153.569
 3.8116  23058.2  152.302
 3.8536  23092.9  152.354
 3.8956  22959.8  151.727
 3.9376  23005.9  152.15
 3.9796  22876.2  151.218
 4.0216  23013.5  150.702
 4.0636  23044.9  152.277
 4.1056  22895.7  151.433
 4.1476  23317.3  153.128
 4.1896  23297.1  152.915
 4.2316  23425.8  153.184
 4.2736  23910.2  154.555
 4.3156  23958.8  154.943
 4.3576  24833.6  157.633
 4.3996  24976.4  158.371
 4.4416  25449  159.446
 4.4836  25993.2  161.302
 4.5256  26651.1  163.941
 4.5676  26414.6  163.464
 4.6096  27151.6  164.387
 4.6516  27407  164.852
 4.6936  27310.7  165.398
 4.7356  27508.3  165.811
 4.7776  27397  165.306
 4.8196  27492.2  166.24
 4.8616  26978.5  164.306
 4.9036  26826.3  163.437
 4.9456  26583  163.343
 4.9876  25882.8  161.079
 5.0296  26080.3  161.537
 5.0716  26056.6  162.072
 5.1136  26135.5  162.185
 5.1556  26438.2  162.579
 5.1976  26980.1  164.227
 5.2396  26980.3  163.929
 5.2816  27040.1  164.578
 5.3236  27039.9  164.276
 5.3656  26614.7  163.904
 5.4076  26216.7  162.81
 5.4496  26330.8  162.668
 5.4916  26359.7  162.509
 5.5336  26242.6  162.246
 5.5756  26508.1  162.994
 5.6176  26445.9  162.247
 5.6596  26644.4  163.835
 5.7016  26809.2  163.604
 5.7436  27009.3  164.255
 5.7856  26878.9  164.157
 5.8276  26783.7  163.583
 5.8696  27076.6  164.648
 5.9116  27078.8  165.25
 5.9536  27659.5  166.756
 5.9956  27531.2  165.763
 6.0376  27705.3  166.895
 6.0796  27829.2  167.104
 6.1216  27675.7  166.842
 6.1636  28112.2  167.206
 6.2056  27801.1  166.955
 6.2476  28133.3  167.823
 6.2896  28380.3  168.24
 6.3316  28501.2  168.764
 6.3736  28377  168.295
 6.4156  28692.5  169.119
 6.4576  28741.4  168.881
 6.4996  28664.4  169.13
 6.5416  28675  169.281
 6.5836  28556.9  169.132
 6.6256  28825.7  169.533
 6.6676  29472.8  170.989
 6.7096  29337.6  171.452
 6.7516  29510.3  171.622
 6.7936  29532.1  171.221
 6.8356  29689.1  171.639
 6.8776  29902.2  173.05
 6.9196  29848.2  173.283
 6.9616  30571.4  174.787
 7.0036  30927.3  175.494
 7.0456  30933.7  174.821
 7.0876  30720  175.874
 7.1296  30787.3  175.207
 7.1716  30753.4  175.037
 7.2136  30441.5  173.549
 7.2556  30651.2  174.308
 7.2976  30581.6  174.6
 7.3396  30369.1  174.451
 7.3816  30406.1  174.525
 7.4236  30785.1  174.914
 7.4656  31173.8  175.468
 7.5076  31187.5  175.668
 7.5496  31020.1  175.731
 7.5916  31165.6  176.186
 7.6336  31499.5  177.013
 7.6756  31647.3  177.287
 7.7176  32019.6  178.633
 7.7596  31626.5  178.741
 7.8016  32297.3  182.825
 7.8436  32073.1  178.909
 7.8856  32306  179.169
 7.9276  32651  180.524
 7.9696  33056.5  181.938
 8.0116  33552.3  181.885
 8.0536  34377.7  184.354
 8.0956  34042.8  184.597
 8.1376  34218.5  184.563
 8.1796  34721.5  186.428
 8.2216  35252.7  186.632
 8.2636  35471.2  187.454
 8.3056  35350  187.893
 8.3476  35948.9  188.811
 8.3896  35373.5  187.37
 8.4316  35712.6  188.43
 8.4736  35831.1  188.225
 8.5156  35492.5  187.602
 8.5576  35204.8  187.772
 8.5996  34975.4  186.081
 8.6416  35197.9  187.893
 8.6836  34570.6  186.062
 8.7256  35288.2  187.247
 8.7676  35181.7  190.019
 8.8096  35666.9  188.674
 8.8516  35503.6  187.802
 8.8936  35005.3  186.451
 8.9356  35497.7  188.076
 8.9776  35236.4  187.462
 9.0196  35308.9  187.336
 9.0616  35267.9  186.74
 9.1036  34277.9  185.236
 9.1456  34163.8  184.276
 9.1876  34678.4  185.604
 9.2296  34071.8  183.432
 9.2716  34133  183.623
 9.3136  34007.7  183.29
 9.3556  34203.8  183.793
 9.3976  33302.2  181.859
 9.4396  33442.9  182.145
 9.4816  33405.8  181.902
 9.5236  32795.7  180.14
 9.5656  32698.2  180.222
 9.6076  31833.4  178.334
 9.6496  32371.1  179.716
 9.6916  31869.9  178.278
 9.7336  32184.3  178.944
 9.7756  31874.8  179.391
 9.8176  31743.7  178.435
 9.8596  31900.7  177.346
 9.9016  31302.8  175.667
 9.9436  30939.7  174.558
 9.9856  30709.9  174.188
 10.0276  30268.3  173.981
 10.0696  30599.4  173.98
 10.1116  29878.4  172.183
 10.1536  29720.2  171.868
 10.1956  29389.5  170.541
 10.2376  29490.8  170.351
 10.2796  29135.2  169.419
 10.3216  28841.2  168.849
 10.3636  28483  167.823
 10.4056  28130.1  167.164
 10.4476  28474.8  167.807
 10.4896  28643.4  167.758
 10.5316  28008  166.61
 10.5736  28221.9  167.652
 10.6156  28072  166.964
 10.6576  28146.8  165.768
 10.6996  27407.9  164.392
 10.7416  27136.1  163.648
 10.7836  26738.3  163.11
 10.8256  26576.6  163.04
 10.8676  26491.2  162.642
 10.9096  26188.8  161.433
 10.9516  25912.7  159.544
 10.9936  26050  160.184
 11.0356  25856.9  160.172
 11.0776  25546.5  158.558
 11.1196  25161.9  158.113
 11.1616  24879.8  156.891
 11.2036  25174.1  157.672
 11.2456  24827.9  157.731
 11.2876  25240.6  158.312
 11.3296  24782.4  156.784
 11.3716  25240.7  157.93
 11.4136  25052.1  158.2
 11.4556  25025.6  157.767
 11.4976  25695.8  158.883
 11.5396  25800.3  159.368
 11.5816  25830.7  159.906
 11.6236  25028.5  157.846
 11.6656  25121.8  157.081
 11.7076  24417.8  155.681
 11.7496  24007.6  158.284
 11.7916  24082.7  153.875
 11.8336  23561.8  153.104
 11.8756  23680.7  153.026
 11.9176  23647  152.587
 11.9596  23777  153.188
 12.0016  23488  152.998
 12.0436  23674.3  153.064
 12.0856  23062.5  151.572
 12.1276  23207.4  151.997
 12.1696  23263.8  151.307
 12.2116  23092.3  150.749
 12.2536  22972.6  151.161
 12.2956  22780.3  149.884
 12.3376  23145  151.28
 12.3796  22973.7  151.196
 12.4216  23101  150.827
 12.4636  22646.9  150.247
 12.5056  22744.5  149.735
 12.5476  22964  150.086
 12.5896  22753.1  150.036
 12.6316  22799.8  150.335
 12.6736  22720  150.549
 12.7156  22780.9  150.6
 12.7576  22681.4  150.511
 12.7996  23110.8  150.596
 12.8416  22568.8  149.843
 12.8836  23014.7  151.155
 12.9256  23269.3  151.031
 12.9676  23105  150.892
 13.0096  23307.1  152.651
 13.0516  23427.8  152.089
 13.0936  23722.3  153.451
 13.1356  23745.5  152.499
 13.1776  23272.4  151.792
 13.2196  23487.3  152.316
 13.2616  23119.3  151.431
 13.3036  23544.6  152.781
 13.3456  23161.8  151.683
 13.3876  23616.1  152.635
 13.4296  23189.6  151.415
 13.4716  23614.7  152.435
 13.5136  23439.9  151.997
 13.5556  23108.8  151.53
 13.5976  23524.8  153.057
 13.6396  23291.8  151.67
 13.6816  23552.4  152.977
 13.7236  24056.1  154.188
 13.7656  25555.8  159.352
 13.8076  26328.3  160.416
 13.8496  25633.3  158.933
 13.8916  23820.7  154.362
 13.9336  23006.6  150.99
 13.9756  23090.5  150.651
 14.0176  22751.9  150.259
 14.0596  23015.7  151.01
 14.1016  22707.1  150.403
 14.1436  22819.1  149.914
 14.1856  22103.4  147.837
 14.2276  22003.8  147.961
 14.2696  22157.5  148.349
 14.3116  21729.5  146.818
 14.3536  21547  146.361
 14.3956  21747.2  146.734
 14.4376  21730.3  146.496
 14.4796  21527.6  145.812
 14.5216  21120.9  145.203
 14.5636  21155.9  144.9
 14.6056  21423.1  145.251
 14.6476  21209.5  143.903
 14.6896  20827.9  143.141
 14.7316  20523.1  143.109
 14.7736  20483.6  142.164
 14.8156  20368.4  141.741
 14.8576  20188.6  140.975
 14.8996  19737.5  140.566
 14.9416  19503.3  139.737
 14.9836  19334.3  139.123
 15.0256  18925.6  136.581
 15.0676  18956.6  136.996
 15.1096  18850.2  136.357
 15.1516  18603.7  135.998
 15.1936  18423.1  134.789
 15.2356  18345.5  134.775
 15.2776  18053.1  133.299
 15.3196  17694.3  132.929
 15.3616  17775.6  133.004
 15.4036  17703.9  132.597
 15.4456  17891.4  132.955
 15.4876  17501.1  131.188
 15.5296  17496.7  131.442
 15.5716  17283.4  130.261
 15.6136  17272.5  130.529
 15.6556  17181.8  129.459
 15.6976  17183.4  129.541
 15.7396  17112  129.864
 15.7816  16757.8  128.038
 15.8236  16699.2  128.491
 15.8656  16799.7  128.668
 15.9076  16668.6  127.993
 15.9496  17273.7  133.062
 15.9916  16752.6  131.929
 16.0336  17066.9  129.579
 16.0756  16910.8  129.32
 16.1176  16675.9  128.494
 16.1596  16391.6  128.544
 16.2016  16238.5  126.74
 16.2436  16281.8  127.269
 16.2856  16223.4  126.59
 16.3276  15975.1  126.028
 16.3696  16179.3  126.66
 16.4116  16066.8  126.633
 16.4536  16022.9  126.288
 16.4956  16179.4  126.643
 16.5376  15828.9  125.455
 16.5796  15982.6  125.439
 16.6216  15982.8  125.703
 16.6636  15634.5  124.514
 16.7056  15893.4  125.394
 16.7476  15835.5  124.703
 16.7896  15672.9  124.799
 16.8316  15649.9  124.68
 16.8736  15839.1  125.675
 16.9156  15810.8  125.895
 16.9576  15618.6  125.894
 16.9996  15535.9  126.023
 17.0416  15653.6  125.097
 17.0836  15561.7  124.306
 17.1256  15559.5  124.303
 17.1676  15570  124.305
 17.2096  15429.3  123.638
 17.2516  15203.3  122.529
 17.2936  15346.3  123.446
 17.3356  15098.3  122.34
 17.3776  15037.5  122.365
 17.4196  14996.5  121.9
 17.4616  14936.7  121.574
 17.5036  14692  120.929
 17.5456  14673.5  121.473
 17.5876  14748.2  120.839
 17.6296  14506.3  119.684
 17.6716  14565.5  120.494
 17.7136  14494.9  120.338
 17.7556  14471.6  120.515
 17.7976  14241.5  119.164
 17.8396  14041.8  117.985
 17.8816  14216.5  119.259
 17.9236  14316.5  119.479
 17.9656  14267.4  119.955
 18.0076  14277  119.438
 18.0496  14071.5  117.704
 18.0916  14091  118.345
 18.1336  14239.3  119.061
 18.1756  14222.9  118.464
 18.2176  14082.4  118.171
 18.2596  14122.5  118.057
 18.3016  14111.9  118.284
 18.3436  14392  119.689
 18.3856  14176.7  118.686
 18.4276  14169.3  118.349
 18.4696  14038  117.884
 18.5116  13977.5  117.901
 18.5536  13847.2  117.676
 18.5956  13686.8  116.582
 18.6376  13763.8  117.302
 18.6796  13731  116.495
 18.7216  13916.3  117.842
 18.7636  13813.8  117.336
 18.8056  13688.8  116.721
 18.8476  13356.1  115.922
 18.8896  13535  116.035
 18.9316  13629.4  116.256
 18.9736  13571.5  115.882
 19.0156  13363.6  115.394
 19.0576  13700.1  115.703
 19.0996  13647.4  116.187
 19.1416  13426.7  115.631
 19.1836  13315  114.762
 19.2256  13308.5  114.95
 19.2676  13362.6  115.262
 19.3096  13235.4  114.954
 19.3516  13307.4  115.227
 19.3936  13269  114.95
 19.4356  13574.9  116.163
 19.4776  13300.2  115.066
 19.5196  13362.4  115.189
 19.5616  13346.7  115.377
 19.6036  13178.1  114.227
 19.6456  13466.1  115.511
 19.6876  13344.9  114.626
 19.7296  13580.8  116.098
 19.7716  13378.7  115.26
 19.8136  13665.9  116.827
 19.8556  13649.3  116.246
 19.8976  13672.2  116.389
 19.9396  13568.9  115.557
 19.9816  13767.6  116.649
 20.0236  14099.9  118.231
 20.0656  13915.2  117.456
 20.1076  14058.3  118.536
 20.1496  13491.6  116.117
 20.1916  13586.5  116.058
 20.2336  13475.2  115.493
 20.2756  13140.3  114.471
 20.3176  13022.6  113.721
 20.3596  12808.9  112.773
 20.4016  12960.2  113.236
 20.4436  12744.9  112.854
 20.4856  13030.3  113.894
 20.5276  12701  112.898
 20.5696  12978.2  113.581
 20.6116  12755.7  112.872
 20.6536  12631.9  111.891
 20.6956  12711.5  112.328
 20.7376  12563.2  111.875
 20.7796  12592.5  111.7
 20.8216  12775.4  112.229
 20.8636  12750.3  112.492
 20.9056  12583.9  111.692
 20.9476  12588.5  111.565
 20.9896  12679.5  111.833
 21.0316  12649.4  111.604
 21.0736  12500.8  111.451
 21.1156  12477.3  111.501
 21.1576  12499.7  111.642
 21.1996  12433.6  111.337
 21.2416  12650.6  112.114
 21.2836  12592.9  111.849
 21.3256  12499.8  111.505
 21.3676  12424.4  110.711
 21.4096  12286.9  110.413
 21.4516  12556.9  111.486
 21.4936  12219.3  110.041
 21.5356  12333.4  110.705
 21.5776  12426.6  110.957
 21.6196  12223.4  110.089
 21.6616  12272  110.383
 21.7036  12251.6  110.069
 21.7456  12320.3  110.459
 21.7876  12109.8  109.279
 21.8296  12199.7  109.53
 21.8716  12195.6  109.728
 21.9136  12403.6  110.863
 21.9556  12172.6  109.515
 21.9976  12088.2  109.161
 22.0396  12066.3  109.306
 22.0816  12121.4  110.069
 22.1236  12197.2  109.887
 22.1656  11945.2  108.934
 22.2076  11970.5  108.47
 22.2496  11920.3  108.268
 22.2916  11996  108.5
 22.3336  11884.4  108.68
 22.3756  11860.9  108.321
 22.4176  11728  107.571
 22.4596  11571.3  107.421
 22.5016  11621.8  107.171
 22.5436  12154.9  109.484
 22.5856  12214.8  109.992
 22.6276  12388.5  110.893
 22.6696  11889.5  108.996
 22.7116  11843.2  108.298
 22.7536  11932.9  108.69
 22.7956  11851  107.465
 22.8376  11769.4  107.808
 22.8796  11859.9  108.023
 22.9216  11799.3  108.282
 22.9636  11796.6  107.443
 23.0056  11758.6  107.392
 23.0476  11943.8  108.799
 23.0896  12204.3  109.366
 23.1316  11935.6  108.579
 23.1736  12029.8  111.883
 23.2156  12150.2  109.884
 23.2576  12470.1  111.447
 23.2996  12095.6  109.543
 23.3416  12273.4  110.868
 23.3836  12068.4  109.179
 23.4256  12385.7  110.726
 23.4676  12218.6  109.682
 23.5096  12073  109.67
 23.5516  11923.8  108.302
 23.5936  12142.7  110.191
 23.6356  12363.9  110.852
 23.6776  12187.8  110.262
 23.7196  11979.4  108.911
 23.7616  12043.8  109.124
 23.8036  12288.6  110.278
 23.8456  12000.6  108.547
 23.8876  12011.9  108.94
 23.9296  11848  108.675
 23.9716  11877  108.029
 24.0136  11943  109.216
 24.0556  11893.7  108.7
 24.0976  11727.2  107.769
 24.1396  11788.2  110.592
 24.1816  11845.6  109.645
 24.2236  11814.2  108.796
 24.2656  11706.9  107.797
 24.3076  11507.5  107.136
 24.3496  11605.8  107.447
 24.3916  11649.6  107.727
 24.4336  11600.9  107.701
 24.4756  11466.6  106.96
 24.5176  11460.2  106.553
 24.5596  11465.6  106.712
 24.6016  11274.6  106.107
 24.6436  11393.5  106.128
 24.6856  11316.6  105.572
 24.7276  11319.2  105.899
 24.7696  11368.7  106.24
 24.8116  11187.4  105.558
 24.8536  11142.2  105.356
 24.8956  11067.3  104.742
 24.9376  11055.2  104.617
 24.9796  10893.5  104.193
 25.0216  10862.6  104.164
 25.0636  10978.7  104.377
 25.1056  10711  103.512
 25.1476  10899.2  106.302
 25.1896  10774  104.223
 25.2316  10902.5  104.131
 25.2736  10738.6  103.002
 25.3156  10764.1  103.202
 25.3576  10566.5  102.671
 25.3996  10782.4  103.707
 25.4416  10649.8  103.039
 25.4836  10600.1  103.209
 25.5256  10571.9  102.549
 25.5676  10584.4  102.337
 25.6096  10510.2  102.543
 25.6516  10600.8  102.53
 25.6936  10586.3  102.741
 25.7356  10580.7  102.844
 25.7776  10637.5  102.727
 25.8196  10390.8  101.746
 25.8616  10439.5  101.87
 25.9036  10611.6  102.225
 25.9456  10498.4  102.269
 25.9876  10289.7  101.303
 26.0296  10618.9  102.533
 26.0716  10481.1  102.193
 26.1136  10573.4  102.579
 26.1556  10514  101.687
 26.1976  10395  102.016
 26.2396  10388  101.398
 26.2816  10464.2  102.123
 26.3236  10439.8  102.155
 26.3656  10506.8  102.204
 26.4076  10286.7  101.334
 26.4496  10656  102.739
 26.4916  10696.5  102.834
 26.5336  10950.5  104.382
 26.5756  11043.8  104.7
 26.6176  10547  102.333
 26.6596  10569.7  102.756
 26.7016  10243.5  100.919
 26.7436  10399.4  101.816
 26.7856  10109.8  100.373
 26.8276  10175.6  100.673
 26.8696  10257.3  100.949
 26.9116  10222.7  100.703
 26.9536  10073.5  100.025
 26.9956  10069.5  100.043
 27.0376  10148.1  100.648
 27.0796  10131.4  100.375
 27.1216  10194.1  100.662
 27.1636  9999.88  99.8653
 27.2056  10008.1  99.7965
 27.2476  9930.56  99.3832
 27.2896  9911.41  99.419
 27.3316  9947.06  99.3266
 27.3736  9899.35  99.339
 27.4156  9982.83  99.5963
 27.4576  9881.47  99.3022
 27.4996  9986.14  99.4555
 27.5416  9925.44  99.4483
 27.5836  9849.21  98.9111
 27.6256  9927.85  99.4791
 27.6676  9745.03  98.5461
 27.7096  9892.65  99.1749
 27.7516  9810.58  98.8663
 27.7936  10028.5  100.141
 27.8356  9971.61  99.4746
 27.8776  10004.8  99.6938
 27.9196  9876.14  98.9176
 27.9616  9772.98  98.4978
 28.0036  9819.94  98.8073
 28.0456  9716.15  98.4126
 28.0876  9723.24  98.5327
 28.1296  9681.56  98.1617
 28.1716  9779.51  98.6698
 28.2136  9733.19  98.4048
 28.2556  9698.54  98.3436
 28.2976  9552.34  97.5937
 28.3396  9564.67  97.4544
 28.3816  9610.03  97.6503
 28.4236  9558.86  97.551
 28.4656  9473.35  97.1539
 28.5076  9390.35  96.3759
 28.5496  9492.37  97.1478
 28.5916  9527.92  97.1419
 28.6336  9530.34  97.4911
 28.6756  9531.39  96.7087
 28.7176  9490.78  97.0485
 28.7596  9470.68  96.8404
 28.8016  9428.44  96.6597
 28.8436  9412.78  96.819
 28.8856  9494.51  97.0811
 28.9276  9442.16  97.0654
 28.9696  9369.5  96.3597
 29.0116  9320.89  96.2872
 29.0536  9250.58  96.1271
 29.0956  9352.09  96.3519
 29.1376  9357.42  96.3588
 29.1796  9315.25  96.1849
 29.2216  9363.76  96.2792
 29.2636  9366.3  96.2886
 29.3056  9229.03  95.4367
 29.3476  9194.15  95.7754
 29.3896  9235.23  96.1096
 29.4316  9048.62  94.4807
 29.4736  9076.33  94.691
 29.5156  9121.64  94.8451
 29.5576  9046.65  95.1662
 29.5996  9046.62  94.4548
 29.6416  8952.2  94.0691
 29.6836  9165.56  95.116
 29.7256  9000.55  94.8062
 29.7676  8938.46  94.1562
 29.8096  9014.89  94.4967
 29.8516  8786.64  93.6157
 29.8936  9007.83  94.8745
 29.9356  9051.43  94.8644
 29.9776  8892.9  94.1788
 30.0196  8926.93  93.7562
 30.0616  8969.14  94.3507
 30.1036  8933.31  93.99
 30.1456  8833.7  93.6975
 30.1876  8919.91  94.303
 30.2296  8696.22  92.8935
 30.2716  8921.91  93.7372
 30.3136  9080.01  95.4025
 30.3556  9222.78  96.1505
 30.3976  9081.65  96.8736
 30.4396  9354.85  95.7112
 30.4816  9305.46  95.0691
 30.5236  9164.93  94.3569
 30.5656  9099.94  94.6545
 30.6076  9142.31  94.3081
 30.6496  9198.18  94.9972
 30.6916  8922.4  93.646
 30.7336  8961.8  93.9868
 30.7756  9114.75  94.8724
 30.8176  9119.98  94.8332
 30.8596  9113.96  94.5597
 30.9016  9177.71  95.2338
 30.9436  9138.36  94.7775
 30.9856  9242.41  95.4391
 31.0276  9101.39  94.3469
 31.0696  9067.4  94.717
 31.1116  8928.96  93.9654
 31.1536  8923.57  93.8263
 31.1956  8935.52  93.9555
 31.2376  8843.01  93.4995
 31.2796  8974.57  93.7405
 31.3216  8974.68  93.6671
 31.3636  8943.63  94.1768
 31.4056  8925.79  95.3783
 31.4476  9040.65  93.9183
 31.4896  8939.68  93.8792
 31.5316  8948.93  93.3877
 31.5736  9065.99  93.7926
 31.6156  9029.72  93.609
 31.6576  9026.33  93.6432
 31.6996  9106.89  93.7599
 31.7416  8943.63  93.9837
 31.7836  9162.45  94.1306
 31.8256  8874.19  92.9749
 31.8676  9082.7  93.9738
 31.9096  8819.47  92.9619
 31.9516  8667.87  92.3229
 31.9936  8807.47  93.0238
 32.0356  8924.72  93.5525
 32.0776  8936.93  93.518
 32.1196  9083.79  94.3906
 32.1616  8964.66  93.2215
 32.2036  8882.26  93.2987
 32.2456  8904.68  93.7914
 32.2876  8785.81  92.4989
 32.3296  8675.54  92.0401
 32.3716  8570.34  91.6035
 32.4136  8646.14  92.2177
 32.4556  8633.57  91.5994
 32.4976  8719.19  91.9135
 32.5396  8736.81  92.0565
 32.5816  8640.02  91.6749
 32.6236  8628.08  91.6728
 32.6656  8706.25  92.6235
 32.7076  8523.14  91.3066
 32.7496  8568.04  91.2266
 32.7916  8534.81  91.0091
 32.8336  8521.87  91.1453
 32.8756  8661.23  91.5057
 32.9176  8489.23  91.066
 32.9596  8544.51  91.4264
 33.0016  8491.31  90.9112
 33.0436  8584.47  91.5938
 33.0856  8497.79  91.2179
 33.1276  8395.26  90.3981
 33.1696  8586.4  91.2491
 33.2116  8630.58  91.5387
 33.2536  8642.06  91.7732
 33.2956  8452.27  90.8511
 33.3376  8501.63  90.8541
 33.3796  8609.43  91.6487
 33.4216  8519.27  90.7966
 33.4636  8580.71  91.2426
 33.5056  8334.19  90.1588
 33.5476  8488.56  90.9707
 33.5896  8606.19  91.3718
 33.6316  8496.55  91.1084
 33.6736  8327  90.4421
 33.7156  8407.03  90.9107
 33.7576  8488.9  90.9962
 33.7996  8419.8  90.3925
 33.8416  8252.17  89.6701
 33.8836  8314.25  89.7867
 33.9256  8386.38  90.2286
 33.9676  8458.22  90.5149
 34.0096  8306.53  90.0029
 34.0516  8346.04  89.8626
 34.0936  8406.05  90.4566
 34.1356  8363.09  89.969
 34.1776  8233.87  89.2649
 34.2196  8277.08  89.6823
 34.2616  8276  89.8668
 34.3036  8316.23  90.2617
 34.3456  8247.23  89.6528
 34.3876  8370.23  90.2962
 34.4296  8294.41  89.5825
 34.4716  8328.06  90.0506
 34.5136  8270.12  89.7725
 34.5556  8091.58  89.0636
 34.5976  8258.85  89.7907
 34.6396  8319.74  89.8346
 34.6816  8409.11  90.4186
 34.7236  8177.15  88.9485
 34.7656  8233.19  89.4606
 34.8076  8140.5  89.2782
 34.8496  8198.29  89.4444
 34.8916  8202.02  89.3322
 34.9336  8188.62  89.2401
 34.9756  8238.77  89.4335
 35.0176  8243.03  89.978
 35.0596  8320.07  90.2195
 35.1016  8224.08  89.4616
 35.1436  8445.26  90.338
 35.1856  8203.04  89.1472
 35.2276  8214.71  89.3933
 35.2696  8220.65  89.6204
 35.3116  8163.95  89.4327
 35.3536  8098.25  88.7512
 35.3956  8113.55  88.5578
 35.4376  8187.87  89.5175
 35.4796  8214.76  89.7089
 35.5216  8097.25  89.0169
 35.5636  7936.12  88.8587
 35.6056  7941.14  87.9372
 35.6476  8082.54  88.6159
 35.6896  8168.3  89.2553
 35.7316  7990.5  88.177
 35.7736  7995.48  88.3758
 35.8156  8192.31  89.4711
 35.8576  8151.6  89.4933
 35.8996  8149.69  89.4921
 35.9416  8175.18  89.1105
 35.9836  8062.14  88.8148
 36.0256  8376.08  90.5515
 36.0676  8263.11  89.4657
 36.1096  8127.17  89.0891
 36.1516  8124.65  88.9787
 36.1936  8117.09  88.7821
 36.2356  8051.7  89.0578
 36.2776  7900.98  87.8931
 36.3196  8073.36  88.3359
 36.3616  8163.64  88.9577
 36.4036  8057.87  88.451
 36.4456  8220.66  89.5162
 36.4876  7882.62  87.6204
 36.5296  8010.6  88.3723
 36.5716  7965.86  88.8854
 36.6136  7813.87  86.8555
 36.6556  7919.67  87.6301
 36.6976  7764.89  87.2574
 36.7396  7842.18  87.4202
 36.7816  7689.18  86.9304
 36.8236  7845.8  87.7312
 36.8656  7618.36  86.5237
 36.9076  7706.43  87.0306
 36.9496  7768.62  87.2496
 36.9916  7684.74  86.4075
 37.0336  7973.15  88.331
 37.0756  7791.85  87.1191
 37.1176  7590.66  86.2462
 37.1596  7712.09  86.9389
 37.2016  7662.92  86.828
 37.2436  7726.24  86.5722
 37.2856  7777.39  87.1042
 37.3276  7777.76  86.4783
 37.3696  7681.53  86.7979
 37.4116  7644.09  86.5024
 37.4536  7671.57  86.524
 37.4956  7517.24  85.6985
 37.5376  7841.12  89.0791
 37.5796  7781.14  88.6665
 37.6216  7706.87  86.5576
 37.6636  7801.66  86.9794
 37.7056  7789.31  87.098
 37.7476  7967.74  87.6355
 37.7896  7681.37  86.5446
 37.8316  7766.82  87.1703
 37.8736  7731.11  86.5147
 37.9156  7853.48  87.1805
 37.9576  7827.69  86.9604
 37.9996  7671.77  85.8044
 38.0416  7768.63  87.1391
 38.0836  7893.1  87.7349
 38.1256  7792.75  87.1555
 38.1676  7518.24  85.7062
 38.2096  7845.78  87.1911
 38.2516  7691.08  86.5367
 38.2936  7811.09  87.0032
 38.3356  7724.13  86.4592
 38.3776  7770.82  86.9608
 38.4196  7694.47  86.3931
 38.4616  7683.59  86.5759
 38.5036  7820.89  87.193
 38.5456  7662.52  87.1054
 38.5876  7643.56  87.0162
 38.6296  7600.63  85.7637
 38.6716  7740.73  86.3604
 38.7136  7717  86.176
 38.7556  7683.66  86.4896
 38.7976  7713.57  86.5848
 38.8396  7719.47  87.0658
 38.8816  7602.52  86.2084
 38.9236  7643.61  86.2463
 38.9656  7866.36  87.396
 39.0076  7676.16  85.7464
 39.0496  7805.89  87.0246
 39.0916  7821.23  86.7561
 39.1336  7650.5  86.1967
 39.1756  7703.4  86.5607
 39.2176  7622.38  86.6288
 39.2596  7702.22  87.0107
 39.3016  7696.51  86.5692
 39.3436  7615.37  86.5116
 39.3856  7619.78  85.9934
 39.4276  7853.84  87.8126
 39.4696  7618.82  86.1
 39.5116  7707.6  87.115
 39.5536  7664.63  87.2797
 39.5956  7673.44  86.4601
 39.6376  7661.15  86.4034
 39.6796  7578.62  85.6757
 39.7216  7632.25  86.0857
 39.7636  7646.44  86.7105
 39.8056  7677.89  86.6888
 39.8476  7500.44  85.9155
 39.8896  7640.67  86.3604
 39.9316  7574.14  86.2277
 39.9736  7609.72  86.007
 40.0156  7530.66  85.3997
 40.0576  7582.93  86.0312
 40.0996  7780.18  86.3403
 40.1416  7605.08  86.1408
 40.1836  7733.53  86.7623
 40.2256  7669.42  86.4365
 40.2676  7584.67  86.052
 40.3096  7659.43  86.4188
 40.3516  7686.1  86.6691
 40.3936  7721.56  86.4357
 40.4356  7647.4  86.216
 40.4776  7696.36  86.8833
 40.5196  7765.14  87.4
 40.5616  7839.05  87.4524
 40.6036  7583.5  86.2751
 40.6456  7616.82  86.0787
 40.6876  7772.51  86.9453
 40.7296  7673.33  86.5229
 40.7716  7664.11  86.5824
 40.8136  7550.69  85.8867
 40.8556  7695.62  86.8457
 40.8976  7617.85  86.3227
 40.9396  7685.35  87.0524
 40.9816  7811.6  87.064
 41.0236  7590.02  85.6119
 41.0656  7744.93  87.0052
 41.1076  7691.07  86.4775
 41.1496  7680.79  86.3285
 41.1916  7601.09  86.1837
 41.2336  7692.98  86.7086
 41.2756  7617.12  85.8955
 41.3176  7718.43  87.0581
 41.3596  7690.36  86.6495
 41.4016  7527.22  85.9797
 41.4436  7639.16  86.4004
 41.4856  7657.69  86.667
 41.5276  7655.5  86.6668
 41.5696  7717.08  86.6393
 41.6116  7565.37  86.1824
 41.6536  7678.83  86.6762
 41.6956  7689.62  86.8059
 41.7376  7571.96  86.1571
 41.7796  7543.29  85.928
 41.8216  7640.28  86.6657
 41.8636  7587.65  86.3105
 41.9056  7573.26  86.026
 41.9476  7656.38  86.7288
 41.9896  7718.22  86.7422
 42.0316  7743.11  86.9715
 42.0736  7747.88  87.0983
 42.1156  7527.68  85.6961
 42.1576  7600.93  86.2127
 42.1996  7719.38  87.0003
 42.2416  7637.55  86.1381
 42.2836  7543.08  85.7222
 42.3256  7560.2  85.9246
 42.3676  7668.39  86.3433
 42.4096  7573.15  85.7775
 42.4516  7731.23  86.7432
 42.4936  7518  85.6137
 42.5356  7529.08  85.8148
 42.5776  7673.72  86.5731
 42.6196  7652.31  86.501
 42.6616  7399.69  85.2335
 42.7036  7512.14  85.2706
 42.7456  7605.62  86.1432
 42.7876  7543.8  85.8851
 42.8296  7575.44  85.9141
 42.8716  7391.13  85.0203
 42.9136  7542.33  85.6736
 42.9556  7634.12  86.3232
 42.9976  7564.07  85.9083
 43.0396  7577.97  85.7098
 43.0816  7433.38  85.2598
 43.1236  7473.52  85.5346
 43.1656  7511.25  85.5813
 43.2076  7503.29  85.6539
 43.2496  7508.01  85.4969
 43.2916  7417.76  85.3373
 43.3336  7498.13  85.6291
 43.3756  7608.47  86.0217
 43.4176  7386.2  84.831
 43.4596  7449.34  85.0491
 43.5016  7530.25  85.9176
 43.5436  7388.62  85.0026
 43.5856  7437.08  85.3195
 43.6276  7366.99  84.8033
 43.6696  7427.54  85.2945
 43.7116  7432.27  84.9394
 43.7536  7502.68  85.8273
 43.7956  7395.42  86.4128
 43.8376  7375.66  84.6583
 43.8796  7208.69  83.9514
 43.9216  7418.2  85.0838
 43.9636  7378.02  84.9621
 44.0056  7241.14  84.3898
 44.0476  7291.25  84.3238
 44.0896  7306.53  84.7462
 44.1316  7186.3  83.7191
 44.1736  7289.06  84.2989
 44.2156  7437.44  85.0033
 44.2576  7235.54  84.166
 44.2996  7221.14  84.2386
 44.3416  7264.85  84.0768
 44.3836  6979.44  82.7165
 44.4256  7198.86  83.6649
 44.4676  7298.3  84.3883
 44.5096  7182.08  83.8583
 44.5516  7271.26  84.3455
 44.5936  7109.73  83.353
 44.6356  7246.69  83.897
 44.6776  7231.4  84.1064
 44.7196  7191.77  84.1953
 44.7616  7263.59  85.9015
 44.8036  7225.71  84.1543
 44.8456  7457.44  85.692
 44.8876  7367.24  85.0181
 44.9296  7381.15  84.5582
 44.9716  7466.3  85.4743
 45.0136  7406.58  85.0623
 45.0556  7477.98  85.4513
 45.0976  7380.05  85.0384
 45.1396  7275.88  84.2085
 45.1816  7202.94  83.7176
 45.2236  7386.08  84.6856
 45.2656  7286.22  84.5873
 45.3076  7276.17  84.3228
 45.3496  7226.94  84.3461
 45.3916  7239.59  84.6836
 45.4336  7350.8  85.1698
 45.4756  7180.17  84.0401
 45.5176  7348.32  84.6345
 45.5596  7336.03  84.6868
 45.6016  7234.11  84.5127
 45.6436  7208.92  83.5505
 45.6856  7236.76  84.3515
 45.7276  7113.76  84.922
 45.7696  7161.02  84.8897
 45.8116  7310.32  85.2005
 45.8536  7121.73  83.9877
 45.8956  7245.5  84.0778
 45.9376  7282.1  83.7574
 45.9796  7337.05  84.7741
 46.0216  7331.45  85.0549
 46.0636  7387.06  84.5231
 46.1056  7373.58  84.4481
 46.1476  7258.34  84.3707
 46.1896  7269.88  84.5863
 46.2316  7326.64  84.7622
 46.2736  7096.8  83.6658
 46.3156  7218.58  84.112
 46.3576  7312.95  84.8616
 46.3996  7164.6  84.1469
 46.4416  7284.93  84.4341
 46.4836  7148.76  83.9945
 46.5256  7257.32  84.5647
 46.5676  7185.81  84.2636
 46.6096  7219.82  84.3976
 46.6516  7234.63  83.5395
 46.6936  7165.68  83.6277
 46.7356  7286.25  84.4159
 46.7776  7108.36  84.2245
 46.8196  7199.38  84.361
 46.8616  7022.71  83.2735
 46.9036  7063.47  83.1699
 46.9456  7155.56  83.3609
 46.9876  7196.29  83.6766
 47.0296  7213.42  84.4628
 47.0716  7032.38  83.2236
 47.1136  7152.09  83.6052
 47.1556  7194.17  83.7191
 47.1976  7223.59  83.9434
 47.2396  7104.53  83.6689
 47.2816  7113.38  83.4228
 47.3236  7141.81  83.9562
 47.3656  7204.35  84.3501
 47.4076  7091.49  83.4037
 47.4496  7110.42  83.6055
 47.4916  7130.64  83.9168
 47.5336  7101.99  83.5612
 47.5756  7241.32  84.4878
 47.6176  7107.34  83.6098
 47.6596  7054.62  83.0127
 47.7016  7288.99  84.1979
 47.7436  7147.79  83.6666
 47.7856  7222.26  84.1724
 47.8276  7018.94  83.032
 47.8696  7124.7  83.7363
 47.9116  7248.69  84.1798
 47.9536  7096.15  83.234
 47.9956  7118.18  84.064
 48.0376  7024.46  83.2838
 48.0796  7156.98  84.1905
 48.1216  7094.53  83.7644
 48.1636  7194.79  83.8137
 48.2056  7116.8  83.6191
 48.2476  7230.76  84.5912
 48.2896  7262.21  84.6765
 48.3316  7192.78  84.2281
 48.3736  7115.51  83.7918
 48.4156  7074.09  83.4039
 48.4576  7217.6  84.5385
 48.4996  7266.66  84.2589
 48.5416  7308.22  84.8423
 48.5836  7153.85  83.6238
 48.6256  7205.33  84.1269
 48.6676  7184.06  84.5211
 48.7096  7118.98  83.4141
 48.7516  7169.64  83.8554
 48.7936  6986.58  82.8389
 48.8356  7094.91  83.5295
 48.8776  7143.54  84.3031
 48.9196  7235.15  84.2895
 48.9616  7047.87  83.5772
 49.0036  7103.29  84.2446
 49.0456  7059.86  83.9723
 49.0876  7122.16  83.9755
 49.1296  7025.53  83.4651
 49.1716  6925.23  82.7322
 49.2136  7093.31  83.6735
 49.2556  7060.19  83.5032
 49.2976  7113.9  83.8853
 49.3396  6974.53  83.1109
 49.3816  7231.93  84.0602
 49.4236  7124.49  83.8653
 49.4656  7009.81  83.2039
 49.5076  7079.32  83.3631
 49.5496  7016.82  83.0551
 49.5916  7102.88  83.4746
 49.6336  7046.33  83.3526
 49.6756  7102.29  83.9169
 49.7176  7021.74  83.3738
 49.7596  7069.8  83.4372
 49.8016  7053.1  83.2523
 49.8436  7107.31  83.873
 49.8856  7005.24  83.27
 49.9276  7001.26  83.3418
 49.9696  7036.35  83.534
 50.0116  7052.19  83.7732
 50.0536  7006.18  83.4314
 50.0956  6993.75  83.4361
 50.1376  6991.86  83.1116
 50.1796  7032.57  83.6295
 50.2216  6998.2  83.4196
 50.2636  7014.1  83.1333
 50.3056  7018.03  83.3314
 50.3476  7006.32  83.2936
 50.3896  7036.39  83.4379
 50.4316  7051.49  83.3504
 50.4736  6950.76  82.9752
 50.5156  6970.16  83.0906
 50.5576  7059.7  83.3665
 50.5996  6942.29  82.9621
 50.6416  6920.27  82.7555
 50.6836  7004.97  83.32
 50.7256  7000.58  83.2106
 50.7676  7122.01  84.218
 50.8096  6950.67  82.767
 50.8516  6893.29  82.8541
 50.8936  6876.72  82.5354
 50.9356  7040.8  83.6086
 50.9776  6991.07  83.4845
 51.0196  6640.44  81.4872
 51.0616  6897.01  82.364
 51.1036  6807.12  82.1843
 51.1456  6961.17  83.0157
 51.1876  6842.34  81.6495
 51.2296  6868.85  82.4453
 51.2716  6731.15  81.3286
 51.3136  6820.71  82.3241
 51.3556  6834.31  82.0317
 51.3976  6848.15  82.2608
 51.4396  6649.18  81.3651
 51.4816  6612.8  80.9987
 51.5236  6904.18  82.8417
 51.5656  6755.2  81.5477
 51.6076  6854.31  82.2241
 51.6496  6799.03  82.09
 51.6916  6843.5  82.7859
 51.7336  6623.91  81.4706
 51.7756  6721.68  81.764
 51.8176  6821.09  82.4766
 51.8596  6851.13  82.6733
 51.9016  6796.77  81.9504
 51.9436  6798.54  83.4526
 51.9856  6794.67  83.8353
 52.0276  6886.68  82.8979
 52.0696  6903.15  83.0571
 52.1116  6693.91  81.9167
 52.1536  6912.99  83.1234
 52.1956  6778.73  81.7789
 52.2376  7068  83.6766
 52.2796  6802.43  81.9129
 52.3216  6613.21  81.4321
 52.3636  6778.46  82.0106
 52.4056  6860.01  82.3743
 52.4476  6878.02  82.8522
 52.4896  6768.39  82.2303
 52.5316  6876.64  82.9435
 52.5736  6661.59  81.3571
 52.6156  6830.74  82.7808
 52.6576  6906.27  82.6699
 52.6996  6531.44  81.3683
 52.7416  6596.37  81.6239
 52.7836  6826.23  82.9248
 52.8256  6685.32  81.2784
 52.8676  6644.04  81.6032
 52.9096  6740.9  82.2606
 52.9516  6685  82.3046
 52.9936  6693.91  82.7305
 53.0356  6791.91  82.329
 53.0776  6817.02  82.7795
 53.1196  6610.26  81.6027
 53.1616  6779.41  82.6945
 53.2036  6581.85  81.4452
 53.2456  6596.34  81.6389
 53.2876  6699.66  81.9676
 53.3296  6696.73  82.2756
 53.3716  6698.36  82.1047
 53.4136  6790.48  82.7527
 53.4556  6620.11  81.7299
 53.4976  6740.83  82.3126
 53.5396  6744.98  82.7283
 53.5816  6812.76  82.7871
 53.6236  6634.01  82.0452
 53.6656  6740.76  82.2993
 53.7076  6786.47  82.5463
 53.7496  6661.59  81.9191
 53.7916  6645.71  81.9471
 53.8336  6645.79  81.8516
 53.8756  6471.67  81.3018
 53.9176  6654.39  81.7773
 53.9596  6438.41  81.2114
 54.0016  6438.11  80.5295
 54.0436  6330.96  80.0846
 54.0856  6521.19  80.7129
 54.1276  6495.35  80.7483
 54.1696  6449.85  80.6138
 54.2116  6520.22  80.7993
 54.2536  6467.51  80.2601
 54.2956  6529.55  80.7141
 54.3376  6424.02  80.5717
 54.3796  6364.15  80.0606
 54.4216  6433.98  80.5553
 54.4636  6364.83  80.1016
 54.5056  6471.89  80.5834
 54.5476  6357.19  80.2048
 54.5896  6440.47  80.5685
 54.6316  6430.58  80.3456
 54.6736  6376.27  80.0485
 54.7156  6361.03  80.0111
 54.7576  6326.74  79.7874
 54.7996  6422.32  80.5319
 54.8416  6332.11  80.0204
 54.8836  6339.79  80.1545
 54.9256  6303.62  79.7051
 54.9676  6278.25  79.3992
 55.0096  6367.9  80.0077
 55.0516  6181.81  78.9999
 55.0936  6315.73  79.5806
 55.1356  6271.09  79.3307
 55.1776  6450.76  80.687
 55.2196  6426.29  80.3416
 55.2616  6407.34  80.4363
 55.3036  6228.24  79.4522
 55.3456  6193.59  79.3996
 55.3876  6289.67  79.7558
 55.4296  6167.01  78.9575
 55.4716  6269.46  79.6132
 55.5136  6309.77  79.635
 55.5556  6427.56  80.4439
 55.5976  6270.9  79.541
 55.6396  6351.6  79.994
 55.6816  6172.46  78.7218
 55.7236  6134.37  78.5415
 55.7656  6283.24  79.2227
 55.8076  6197.57  78.6812
 55.8496  6234.52  79.2329
 55.8916  6191.65  79.1105
 55.9336  6312.68  79.7432
 55.9756  6237.72  79.154
 56.0176  6307.56  79.7486
 56.0596  6093.95  78.3777
 56.1016  6149.57  78.7863
 56.1436  6174.76  79.166
 56.1856  6068.07  78.2341
 56.2276  6342.76  80.0046
 56.2696  6184.59  78.9951
 56.3116  6249.39  79.7943
 56.3536  6164.15  78.9243
 56.3956  6155.97  78.839
 56.4376  6079.49  78.4127
 56.4796  6011.74  77.7812
 56.5216  6077.61  78.5762
 56.5636  6073.65  78.1316
 56.6056  6230.8  79.3588
 56.6476  6134.55  78.381
 56.6896  6240.01  79.4919
 56.7316  6073.6  78.3492
 56.7736  6120.9  78.8537
 56.8156  6027.05  78.0684
 56.8576  5945.38  77.4863
 56.8996  6086.54  78.2796
 56.9416  6145.72  78.9996
 56.9836  6178.88  78.725
 57.0256  6022.92  78.0372
 57.0676  6162.14  79.0307
 57.1096  6079.65  78.311
 57.1516  5966.55  77.6073
 57.1936  6044.34  77.8828
 57.2356  5936.97  77.5163
 57.2776  5983.73  77.785
 57.3196  6110.33  78.9333
 57.3616  5982.13  77.6234
 57.4036  6020.1  77.9428
 57.4456  6201.54  79.0765
 57.4876  6016.84  77.7617
 57.5296  6008.3  77.9188
 57.5716  6008.69  78.0248
 57.6136  5922.09  77.3089
 57.6556  6039.69  78.1848
 57.6976  6000.06  77.7737
 57.7396  5972.49  77.934
 57.7816  5916.54  77.9151
 57.8236  5910.53  77.6838
 57.8656  6094.16  78.5559
 57.9076  5942.79  77.5874
 57.9496  5872.18  77.4817
 57.9916  6005.34  77.8698
 58.0336  5905.89  77.5025
 58.0756  6128.63  78.5681
 58.1176  6020.85  77.8859
 58.1596  5932.05  77.8874
 58.2016  5771.26  76.0669
 58.2436  5756.13  76.3532
 58.2856  5613.1  75.3362
 58.3276  5746.66  76.585
 58.3696  5694.83  75.9959
 58.4116  5721.32  76.0425
 58.4536  5838.38  76.6999
 58.4956  5670.43  75.768
 58.5376  5810.75  76.2806
 58.5796  5627.41  75.4769
 58.6216  5675.2  75.621
 58.6636  5626.94  75.5048
 58.7056  5748.06  76.1689
 58.7476  5650.2  75.9474
 58.7896  5719.41  76.0658
 58.8316  5802.01  76.6055
 58.8736  5740.42  76.2121
 58.9156  5730.06  76.1777
 58.9576  5753.68  76.6575
 58.9996  5857.61  76.6157
 59.0416  5798.44  76.5766
 59.0836  5647.7  75.4823
 59.1256  5737.88  76.7741
 59.1676  5640.03  76.4189
 59.2096  5732.51  76.3772
 59.2516  5686.96  75.6665
 59.2936  5707.39  76.1213
 59.3356  5709.44  76.0161
 59.3776  5730.11  76.3182
 59.4196  5559.52  75.1125
 59.4616  5668.07  75.7062
 59.5036  5684.24  75.8474
 59.5456  5854.08  76.6713
 59.5876  5739.2  76.1016
 59.6296  5720.13  76.0424
 59.6716  5551.57  74.9692
 59.7136  5756.86  76.3313
 59.7556  5632.4  75.6335
 59.7976  5629.02  75.3618
 59.8396  5721.85  75.8778
 59.8816  5769.89  76.728
 59.9236  5743.67  76.2067
 59.9656  5669.58  75.9655
 60.0076  5568.43  74.6683
 60.0496  5701  76.0406
 60.0916  5674.73  75.3021
 60.1336  5585.43  75.7722
 60.1756  5547.8  76.6517
 60.1996  0.0000000E+00  0.0000000E+00