File: docs/examples/opeando_xrd/IS17_D/Data/IS17_D/17_Da_f00010.xye
# /beamlines/bl04/projects/cycle2025-II/20250340211-lsimonelli/DATA/IS17_D/17_Da_f00010.xye : mythproc.py merge -s 0.006 -l 0.5 -f /beamlines/bl04/inhouse/ff/FlatField/ff_20Nov2024rod8mm60s_17keV.raw -b True -c true -o xye /beamlines/bl04/projects/cycle2025-II/20250340211-lsimonelli/DATA/IS17_D/17_Da_00010.dat
# IsMon = [6778385, 6779202, 6782365]  IsPos = [-1.5000, -2.4885, -3.4988]
# Wave = 0.4962  CalPath /beamlines/bl04/projects/cycle2025-II/20250340211-lsimonelli/DATA/Align/Si_Pos1_25keV_f00001.cal
# Date = 2025-09-23_20:20:06 Dt = 4.8000  Bin = 0.0060  <imon> = 6779984 +/- 1716 (Min/Max) 6778385 / 6782365
# icurr 252.5861  mocoIn 1.7231E-05  mocoOut 0.8087  i15 7.09056e+06  imon 6.77998e+06  i7 6.0000  iEMpd_timer 4.8000  iEMpd_1 3.2799E-08  iEMpd_2 7.7151E-08  iEMpd_3 1.7493E-08  iEMpd_4 4.8284E-08  iEMhp_timer 4.8000  iEMhp_1 4.9351E-06  iEMhp_2 -2.4220E-08  iEMhp_3 -2.3721E-08  iEMhp_4 -2.1182E-08
#      9776
 1.5856  38317  201.025
 1.6276  45052.1  214.237
 1.6696  52163.1  229.713
 1.7116  61377.6  249.665
 1.7536  69937.2  265.37
 1.7956  75354.6  276.145
 1.8376  71459.2  269.338
 1.8796  59473.9  243.916
 1.9216  47379.4  218.567
 1.9636  39912.6  200.29
 2.0056  35933.8  188.83
 2.0476  32886.8  182.627
 2.0896  31441.3  177.521
 2.1316  30500.1  174.004
 2.1736  29334.4  172
 2.2156  29603.3  171.4
 2.2576  28544.4  168.908
 2.2996  27540.1  166.52
 2.3416  27978.4  166.501
 2.3836  27326.3  164.65
 2.4256  26735.3  163.391
 2.4676  26636.4  162.857
 2.5096  27206.4  164.644
 2.5516  37827.8  198.531
 2.5936  168499  410.76
 2.6356  32207.6  180.341
 2.6776  25882.5  160.575
 2.7196  24708.9  157.385
 2.7616  24621.2  156.892
 2.8036  23717.6  154.15
 2.8456  23908.2  155.36
 2.8876  23255.7  153.086
 2.9296  22709.7  151.423
 2.9716  22889  151.531
 3.0136  22581.2  150.572
 3.0556  22459  150.546
 3.0976  22393.1  149.303
 3.1396  22061.6  148.873
 3.1816  22136.5  149.065
 3.2236  21800.8  147.93
 3.2656  21799.1  147.001
 3.3076  21665.2  147.943
 3.3496  21744  147.424
 3.3916  22503.3  149.577
 3.4336  22784.7  151.066
 3.4756  23215  152.412
 3.5176  23983.5  154.714
 3.5596  23883  157.279
 3.6016  24250.2  155.617
 3.6436  23211.2  153.312
 3.6856  22865.7  150.52
 3.7276  21820.6  148.086
 3.7696  21693.5  147.643
 3.8116  21317.4  146.443
 3.8536  21403.7  146.673
 3.8956  21454.6  146.683
 3.9376  22280.1  149.722
 3.9796  21135.8  145.36
 4.0216  21416.3  145.391
 4.0636  21308.5  146.446
 4.1056  21244.6  145.884
 4.1476  21514.5  147.11
 4.1896  21774.1  147.859
 4.2316  21965.1  148.334
 4.2736  22252  149.097
 4.3156  22593.6  150.455
 4.3576  23351.2  152.892
 4.3996  23640.5  154.086
 4.4416  24346.6  155.963
 4.4836  25732.9  160.496
 4.5256  25705.3  161.013
 4.5676  25382.9  160.248
 4.6096  25716.4  160.336
 4.6516  26389.3  161.773
 4.6936  26403.8  162.612
 4.7356  27500.6  165.792
 4.7776  26705.7  163.21
 4.8196  25910.9  161.393
 4.8616  25633  160.147
 4.9036  25494.1  159.345
 4.9456  25602.6  160.317
 4.9876  24890.3  157.972
 5.0296  24888.2  157.792
 5.0716  24818.1  158.182
 5.1136  24700  157.664
 5.1556  25670.5  160.202
 5.1976  36023.2  189.769
 5.2396  26045.4  161.069
 5.2816  25624.8  160.213
 5.3236  25639.8  159.973
 5.3656  25010.9  158.889
 5.4076  24888.1  158.646
 5.4496  25033.8  158.605
 5.4916  24990.9  158.239
 5.5336  25075.6  158.51
 5.5756  24770.8  157.577
 5.6176  25075.7  157.991
 5.6596  25351.2  159.663
 5.7016  25329.8  159.028
 5.7436  25715.5  160.499
 5.7856  25404.2  159.584
 5.8276  25766  160.442
 5.8696  25947.3  161.072
 5.9116  25576.8  160.602
 5.9536  25920.9  161.44
 5.9956  26322.7  162.068
 6.0376  26426.7  163.007
 6.0796  26348.7  162.603
 6.1216  26580.6  163.513
 6.1636  26888.3  163.546
 6.2056  26918.2  164.281
 6.2476  26842.7  163.761
 6.2896  27380.7  165.259
 6.3316  27097.2  164.569
 6.3736  27364.3  165.274
 6.4156  27379.1  165.272
 6.4576  27891  166.371
 6.4996  27753.9  166.426
 6.5416  27878.6  166.935
 6.5836  28442.3  168.837
 6.6256  27982.5  167.041
 6.6676  28529.4  168.247
 6.7096  28231.2  168.194
 6.7516  28666.4  169.151
 6.7936  30120.3  172.81
 6.8356  30837.2  174.94
 6.8776  30097.5  173.619
 6.9196  29577.8  172.509
 6.9616  29941.8  172.994
 7.0036  30212.3  173.462
 7.0456  30428.8  173.391
 7.0876  30096.4  174.012
 7.1296  30311.1  173.865
 7.1716  30074.9  172.73
 7.2136  30062.9  172.488
 7.2556  30131.4  172.842
 7.2976  30202.2  173.531
 7.3396  30137.6  173.554
 7.3816  30323.5  174.295
 7.4236  30481.2  174.057
 7.4656  30847.9  174.596
 7.5076  31092.8  175.418
 7.5496  30678.9  174.767
 7.5916  30942.2  175.551
 7.6336  31764.4  177.767
 7.6756  31312  176.351
 7.7176  31663.7  177.643
 7.7596  31752.2  179.114
 7.8016  38653.9  199.981
 7.8436  32941.4  181.308
 7.8856  33037.8  181.191
 7.9276  33622.4  183.171
 7.9696  33350.8  182.742
 8.0116  34747.4  185.081
 8.0536  35181.7  186.488
 8.0956  37787.5  194.481
 8.1376  35641.1  188.354
 8.1796  35534.2  188.61
 8.2216  36707.6  190.439
 8.2636  37694.7  193.232
 8.3056  36836.7  191.78
 8.3476  38706.4  195.913
 8.3896  37720.9  193.481
 8.4316  36963.7  191.696
 8.4736  37188.2  191.741
 8.5156  36686  190.723
 8.5576  36565.8  191.379
 8.5996  36352.2  189.699
 8.6416  36346.5  190.937
 8.6836  36344.9  190.753
 8.7256  37153.3  192.316
 8.7676  39640.4  201.653
 8.8096  39375.2  198.211
 8.8516  36358.9  190.129
 8.8936  38261.6  194.87
 8.9356  35850.2  188.981
 8.9776  35912.9  189.244
 9.0196  35299.3  187.3
 9.0616  36046.2  188.742
 9.1036  37745.5  194.353
 9.1456  35663.3  188.262
 9.1876  34937.6  186.296
 9.2296  34833  185.419
 9.2716  33889.9  182.961
 9.3136  34018.7  183.294
 9.3556  34364.8  184.214
 9.3976  32925.4  180.828
 9.4396  33379.7  181.962
 9.4816  32746.4  180.097
 9.5236  32748.8  180.013
 9.5656  32682.5  180.147
 9.6076  32424.2  179.944
 9.6496  32198.1  179.248
 9.6916  32208.6  179.244
 9.7336  32442.3  179.682
 9.7756  32214.5  180.239
 9.8176  31746.8  178.492
 9.8596  31658.4  176.722
 9.9016  31136.9  175.258
 9.9436  31247  175.318
 9.9856  31684.6  176.923
 10.0276  30383  174.339
 10.0696  30480.8  173.682
 10.1116  29886  172.236
 10.1536  29370.8  170.425
 10.1956  28752.7  168.71
 10.2376  28701.1  168.08
 10.2796  28963.6  168.966
 10.3216  29003.8  169.207
 10.3636  28742.1  168.614
 10.4056  33194.4  181.615
 10.4476  33370.9  181.708
 10.4896  38051.3  193.415
 10.5316  34104  183.513
 10.5736  29026.6  170.045
 10.6156  28287.7  167.635
 10.6576  34650.3  183.957
 10.6996  28434.1  167.313
 10.7416  27540.4  164.893
 10.7836  28628  168.801
 10.8256  26669.3  163.342
 10.8676  26516.9  162.424
 10.9096  26573.7  162.633
 10.9516  26175.4  160.358
 10.9936  27312.6  164.003
 11.0356  26854.3  163.26
 11.0776  28879.7  168.578
 11.1196  28348.1  167.805
 11.1616  26271.9  161.236
 11.2036  27744.5  165.535
 11.2456  29348  171.007
 11.2876  25737.8  159.876
 11.3296  25571  159.254
 11.3716  26181.4  160.857
 11.4136  25350.5  159.144
 11.4556  25869.8  160.428
 11.4976  27575.6  164.59
 11.5396  27739.3  165.251
 11.5816  25540  159.007
 11.6236  24983.1  157.694
 11.6656  24858.9  156.276
 11.7076  24268.4  155.22
 11.7496  24746.4  160.609
 11.7916  25119.6  157.185
 11.8336  24171.1  155.079
 11.8756  24652.1  156.126
 11.9176  23942.9  153.53
 11.9596  23540.6  152.423
 12.0016  23603.4  153.399
 12.0436  23674.3  153.061
 12.0856  23093.6  151.682
 12.1276  23287.8  152.246
 12.1696  23319.5  151.493
 12.2116  23966.5  153.577
 12.2536  26251.9  161.57
 12.2956  24241  154.62
 12.3376  23578.5  152.704
 12.3796  23518.8  152.957
 12.4216  23814.5  153.142
 12.4636  24591.2  156.543
 12.5056  23179  151.257
 12.5476  23307.8  151.229
 12.5896  23103.2  151.181
 12.6316  22927.1  150.759
 12.6736  22861.5  151.019
 12.7156  23099  151.669
 12.7576  23039.1  151.704
 12.7996  23424.2  151.631
 12.8416  23560.1  153.115
 12.8836  24463.8  155.846
 12.9256  23922.6  153.143
 12.9676  23740.3  152.97
 13.0096  23337  152.743
 13.0516  23583.6  152.603
 13.0936  23453.8  152.294
 13.1356  23866.2  152.911
 13.1776  23794.5  153.658
 13.2196  23498  152.361
 13.2616  23423.4  152.415
 13.3036  23383.7  152.433
 13.3456  23420.1  152.527
 13.3876  23857.5  153.456
 13.4296  23671.9  153.001
 13.4716  23717.6  152.762
 13.5136  23667.6  152.756
 13.5556  23837.8  153.904
 13.5976  23476.9  152.878
 13.6396  24041.3  154.079
 13.6816  23376.6  152.298
 13.7236  24438.7  155.48
 13.7656  24065.7  154.831
 13.8076  24829.8  156.046
 13.8496  23990  154.16
 13.8916  23648.9  153.869
 13.9336  23357  152.155
 13.9756  23203.3  151.02
 14.0176  23354.7  152.174
 14.0596  24590  156.121
 14.1016  22981.6  151.319
 14.1436  22456  148.73
 14.1856  22504.5  149.178
 14.2276  22691.1  150.278
 14.2696  23004.9  151.152
 14.3116  22130.6  148.153
 14.3536  21804.9  147.235
 14.3956  21700  146.619
 14.4376  21729.8  146.502
 14.4796  21591.2  146.023
 14.5216  21352.9  145.997
 14.5636  21756.4  146.939
 14.6056  21319.9  145.038
 14.6476  21013.8  143.252
 14.6896  20784.3  142.991
 14.7316  20301.3  142.31
 14.7736  20387.2  141.787
 14.8156  20282.9  141.461
 14.8576  20345.6  141.532
 14.8996  20121.9  141.935
 14.9416  19498.7  139.714
 14.9836  19756.8  140.599
 15.0256  19642.3  139.137
 15.0676  19386  138.536
 15.1096  19241.1  137.759
 15.1516  18871  136.975
 15.1936  18805.6  136.176
 15.2356  19156.5  137.717
 15.2776  18998.5  136.739
 15.3196  18528.5  136.02
 15.3616  18371.8  135.198
 15.4036  18109  134.099
 15.4456  18893.4  136.618
 15.4876  18332.4  134.263
 15.5296  18102.4  133.703
 15.5716  17838.5  132.332
 15.6136  17960.9  133.106
 15.6556  20012.9  139.712
 15.6976  18396.6  134.025
 15.7396  17931.1  132.918
 15.7816  17790.7  131.916
 15.8236  17249.5  130.576
 15.8656  17260.2  130.409
 15.9076  17410.3  130.81
 15.9496  17603.4  134.322
 15.9916  16792.2  131.62
 16.0336  16686  128.162
 16.0756  16667.8  128.39
 16.1176  16582.2  127.971
 16.1596  16253.4  128
 16.2016  16387.4  127.294
 16.2436  16388.9  127.684
 16.2856  16326.3  126.992
 16.3276  15667  124.804
 16.3696  15904.1  125.569
 16.4116  15604.7  124.838
 16.4536  16047.5  126.38
 16.4956  16766.9  128.918
 16.5376  16326.7  127.395
 16.5796  15965.8  125.353
 16.6216  15705.5  124.62
 16.6636  16003  125.945
 16.7056  15662.5  124.474
 16.7476  15774.2  124.455
 16.7896  15728.7  125.007
 16.8316  15871.9  125.542
 16.8736  16049.4  126.505
 16.9156  15992.8  126.609
 16.9576  15598.1  125.83
 16.9996  15792.4  127.093
 17.0416  15658.7  124.941
 17.0836  15284.7  123.21
 17.1256  15268.9  123.154
 17.1676  15823.4  125.366
 17.2096  15730.3  124.872
 17.2516  15474.1  123.93
 17.2936  15019  122.12
 17.3356  14651.5  120.624
 17.3776  14619  120.669
 17.4196  14959.8  121.77
 17.4616  14997.5  121.845
 17.5036  15517.9  124.306
 17.5456  14508.2  120.822
 17.5876  14555.6  120.084
 17.6296  14529.6  119.786
 17.6716  14684.5  121.005
 17.7136  15339.6  123.815
 17.7556  14723.1  121.586
 17.7976  14830.3  121.641
 17.8396  14632.2  120.461
 17.8816  14236.2  119.352
 17.9236  13994.9  118.154
 17.9656  14497.5  120.938
 18.0076  14983  122.359
 18.0496  16207.5  126.358
 18.0916  21541.9  146.316
 18.1336  18683.7  136.381
 18.1756  15999.2  125.701
 18.2176  16709.5  128.713
 18.2596  14603.3  120.072
 18.3016  15203  122.771
 18.3436  15800.1  125.407
 18.3856  14588.2  120.404
 18.4276  14292.5  118.855
 18.4696  14569.9  120.088
 18.5116  14506.5  120.123
 18.5536  14215.3  119.261
 18.5956  14336.5  119.325
 18.6376  14435.7  120.145
 18.6796  13940.5  117.404
 18.7216  14316.6  119.532
 18.7636  13797.9  117.265
 18.8056  13711.8  116.84
 18.8476  13522.7  116.638
 18.8896  13499  115.89
 18.9316  13943.2  117.601
 18.9736  13604  116.029
 19.0156  14248.5  119.156
 19.0576  14125.6  117.506
 19.0996  13899  117.262
 19.1416  13736.6  116.965
 19.1836  13552.9  115.786
 19.2256  13212.6  114.525
 19.2676  13567.1  116.143
 19.3096  13548.9  116.306
 19.3516  13343.1  115.214
 19.3936  13595.4  116.372
 19.4356  13313  115.027
 19.4776  13517.2  116.004
 19.5196  13398.8  115.34
 19.5616  13501.6  116.045
 19.6036  13513.7  115.59
 19.6456  13653.5  116.319
 19.6876  14146.9  118.041
 19.7296  13413.8  115.393
 19.7716  13345.3  115.113
 19.8136  13696.4  116.965
 19.8556  14004.5  117.749
 19.8976  14188.7  118.592
 19.9396  13992.8  117.351
 19.9816  14483.2  119.628
 20.0236  14639.9  120.498
 20.0656  13834.5  117.125
 20.1076  13311.5  115.347
 20.1496  13481  116.086
 20.1916  13455.1  115.455
 20.2336  13196.6  114.317
 20.2756  13045.3  114.077
 20.3176  13112.2  114.114
 20.3596  13167.5  114.338
 20.4016  13241.6  114.469
 20.4436  13085.7  114.346
 20.4856  12840.5  113.057
 20.5276  12930.3  113.895
 20.5696  12739  112.632
 20.6116  13121.5  114.483
 20.6536  12899.3  113.077
 20.6956  12787.7  112.644
 20.7376  12824.2  113.042
 20.7796  12604.1  111.768
 20.8216  13051.9  113.439
 20.8636  13097.3  114.01
 20.9056  14593.4  120.29
 20.9476  13021.1  113.467
 20.9896  14123.1  118.036
 21.0316  13171.7  113.883
 21.0736  13291.8  114.925
 21.1156  13607.9  116.447
 21.1576  12916.3  113.496
 21.1996  12588.7  112.028
 21.2416  12595.2  111.893
 21.2836  12883.3  113.125
 21.3256  12626.6  112.078
 21.3676  12816.2  112.467
 21.4096  13005.8  113.662
 21.4516  12469.6  111.124
 21.4936  12442.9  111.254
 21.5356  12705.1  112.362
 21.5776  12831  112.756
 21.6196  12701.8  112.219
 21.6616  12723.3  112.401
 21.7036  12486.4  111.132
 21.7456  12483.4  111.194
 21.7876  12245.5  109.891
 21.8296  12398  110.425
 21.8716  12229.3  109.9
 21.9136  12576.9  111.648
 21.9556  12732.4  112.01
 21.9976  12420.9  110.647
 22.0396  12509.3  111.289
 22.0816  12371.8  111.207
 22.1236  12799.5  112.573
 22.1656  12438.8  111.148
 22.2076  12503.4  110.857
 22.2496  12301.1  109.985
 22.2916  12426.6  110.429
 22.3336  12488.9  111.405
 22.3756  12325.1  110.416
 22.4176  12314.9  110.225
 22.4596  12049.5  109.605
 22.5016  12492.3  111.09
 22.5436  12389.2  110.518
 22.5856  12459.8  111.084
 22.6276  12220.5  110.151
 22.6696  12218.2  110.484
 22.7116  12272.7  110.252
 22.7536  12149.7  109.671
 22.7956  12262.2  109.52
 22.8376  12173  109.629
 22.8796  12147.9  109.324
 22.9216  12363.7  110.825
 22.9636  12174.8  109.146
 23.0056  12284  109.768
 23.0476  12358.9  110.668
 23.0896  12529.1  110.808
 23.1316  12697  111.982
 23.1736  12164.3  112.519
 23.2156  12276.7  110.423
 23.2576  12228.8  110.352
 23.2996  12123.8  109.662
 23.3416  12197.2  110.511
 23.3836  12023.4  108.973
 23.4256  12388.5  110.735
 23.4676  12282  109.951
 23.5096  12323.9  110.809
 23.5516  12199.2  109.539
 23.5936  12474  111.668
 23.6356  12477.5  111.342
 23.6776  12069.6  109.72
 23.7196  12002.5  109.217
 23.7616  12178.2  109.712
 23.8036  12161  109.685
 23.8456  12130.2  109.116
 23.8876  11864.9  108.265
 23.9296  11899.3  108.903
 23.9716  11865.8  107.959
 24.0136  12021.8  109.551
 24.0556  11878.1  108.632
 24.0976  11807.3  108.12
 24.1396  11798.8  110.687
 24.1816  11885.6  109.87
 24.2236  11954.9  109.479
 24.2656  11833.4  108.4
 24.3076  11797.6  108.481
 24.3496  12088.7  109.703
 24.3916  12056.1  109.605
 24.4336  11711.8  108.236
 24.4756  11809.5  108.559
 24.5176  11561.9  107.066
 24.5596  11412.6  106.691
 24.6016  11375.1  106.601
 24.6436  11548  106.904
 24.6856  11465.4  106.286
 24.7276  11651.7  107.461
 24.7696  11447.1  106.625
 24.8116  11496.7  107.037
 24.8536  11370.8  106.447
 24.8956  11393.6  106.293
 24.9376  11376.5  106.389
 24.9796  11339.7  106.33
 25.0216  11196.1  105.768
 25.0636  11361.4  106.193
 25.1056  11119.2  105.485
 25.1476  11059.1  107.127
 25.1896  11193.9  106.249
 25.2316  11214.9  105.61
 25.2736  10979.6  104.165
 25.3156  10944.2  104.07
 25.3576  10820  103.892
 25.3996  10900.4  104.261
 25.4416  11017.7  104.802
 25.4836  10825.4  104.402
 25.5256  10987.7  104.55
 25.5676  11167  105.129
 25.6096  10829.5  104.095
 25.6516  10849.2  103.696
 25.6936  10749.4  103.527
 25.7356  10742.4  103.622
 25.7776  10989.2  104.487
 25.8196  10897.6  104.216
 25.8616  10815.2  103.742
 25.9036  11142.2  104.763
 25.9456  10791.1  103.694
 25.9876  10611.9  102.756
 26.0296  10785.2  103.327
 26.0716  10699.6  103.249
 26.1136  11026.9  104.755
 26.1556  11005.7  104.033
 26.1976  10639.5  103.207
 26.2396  10829.1  103.531
 26.2816  10622.4  102.888
 26.3236  10859  104.192
 26.3656  10680.4  103.059
 26.4076  10681.7  103.259
 26.4496  11000.4  104.346
 26.4916  10797.2  103.328
 26.5336  10723.2  103.295
 26.5756  10913.6  104.056
 26.6176  10883.5  103.976
 26.6596  10601.2  102.924
 26.7016  10294.1  101.188
 26.7436  10343.8  101.562
 26.7856  10245.7  101.06
 26.8276  10308.1  101.325
 26.8696  10317.9  101.247
 26.9116  10339.4  101.294
 26.9536  10188.1  100.595
 26.9956  10354.2  101.443
 27.0376  10200.3  100.902
 27.0796  10222  100.82
 27.1216  10272.8  101.07
 27.1636  10218.2  100.961
 27.2056  10247.7  100.991
 27.2476  10224.3  100.876
 27.2896  10205.1  100.891
 27.3316  10156.7  100.365
 27.3736  10064  100.173
 27.4156  10051.4  99.9515
 27.4576  10180  100.821
 27.4996  10205.3  100.545
 27.5416  10108.7  100.382
 27.5836  10203.5  100.665
 27.6256  10244.2  101.042
 27.6676  10318.5  101.42
 27.7096  10162  100.509
 27.7516  10920.5  104.356
 27.7936  10645.1  103.206
 27.8356  10459.1  101.91
 27.8776  10326.4  101.306
 27.9196  10158.7  100.334
 27.9616  10463.4  102.012
 28.0036  10162.3  100.514
 28.0456  9990.24  99.7905
 28.0876  9998.93  99.9264
 28.1296  9945.5  99.4964
 28.1716  9889.72  99.233
 28.2136  9960.42  99.5494
 28.2556  9764.86  98.6801
 28.2976  9801.41  98.8549
 28.3396  9967.92  99.4886
 28.3816  9948.66  99.3767
 28.4236  10212.6  100.839
 28.4656  9701.16  98.3184
 28.5076  9646.69  97.686
 28.5496  9708.02  98.2539
 28.5916  9795.15  98.5042
 28.6336  9693.02  98.3253
 28.6756  9850.52  98.3276
 28.7176  9726.52  98.2448
 28.7596  9517.37  97.0869
 28.8016  9610.71  97.5943
 28.8436  9612.04  97.8416
 28.8856  9605.55  97.6622
 28.9276  9824.8  99.016
 28.9696  9556.28  97.3132
 29.0116  9588.74  97.6554
 29.0536  9366.04  96.7156
 29.0956  9551.51  97.3946
 29.1376  9649.49  97.852
 29.1796  9473.43  97.0024
 29.2216  9414.49  96.5442
 29.2636  9416.14  96.5491
 29.3056  9448.91  96.5879
 29.3476  9506.25  97.3991
 29.3896  9547.53  97.7008
 29.4316  9686.87  97.7535
 29.4736  9519.43  96.9641
 29.5156  9476.77  96.663
 29.5576  9586.92  97.9739
 29.5996  9427.08  96.4165
 29.6416  9398.48  96.3826
 29.6836  9635.41  97.5179
 29.7256  9344.15  96.5951
 29.7676  9469.83  96.9009
 29.8096  9518.35  97.0962
 29.8516  9318.53  96.3839
 29.8936  9544.66  97.6559
 29.9356  9415.33  96.7499
 29.9776  9386.94  96.756
 30.0196  9455.52  96.4973
 30.0616  9640.34  97.8133
 30.1036  9364.49  96.2347
 30.1456  9258.11  95.9078
 30.1876  9234.73  95.7755
 30.2296  9211.14  95.5925
 30.2716  9384.73  96.1335
 30.3136  9394.45  97.037
 30.3556  9325.25  96.6946
 30.3976  9271.5  97.9091
 30.4396  9431.85  96.1098
 30.4816  9289.58  94.9866
 30.5236  9324.68  95.1881
 30.5656  9295.09  95.6774
 30.6076  9252.08  95.2359
 30.6496  9304.13  95.5417
 30.6916  9089.05  94.5186
 30.7336  9204.67  95.2711
 30.7756  9068.81  94.6557
 30.8176  9487.26  96.7294
 30.8596  9183.62  94.9377
 30.9016  9095.02  94.3597
 30.9436  9232.48  95.288
 30.9856  9126.21  94.8427
 31.0276  9114.13  94.3873
 31.0696  9156.93  95.1815
 31.1116  9096.66  94.8495
 31.1536  9260.94  95.5832
 31.1956  9122.15  94.9534
 31.2376  8970.08  94.1666
 31.2796  8983.29  93.7815
 31.3216  9144.73  94.567
 31.3636  9108.73  95.0692
 31.4056  9082.28  96.2325
 31.4476  8993.79  93.6861
 31.4896  9153.42  95.0155
 31.5316  9337.29  95.4113
 31.5736  9926.52  98.1225
 31.6156  9659.44  96.833
 31.6576  9353.68  95.3869
 31.6996  9298.79  94.7813
 31.7416  9227.32  95.3389
 31.7836  9017.55  93.4095
 31.8256  9045.08  93.8945
 31.8676  9082.99  94.0138
 31.9096  9004.97  93.8243
 31.9516  8803.18  93.0547
 31.9936  9002.65  93.9337
 32.0356  8837.27  93.1341
 32.0776  9002.1  93.8833
 32.1196  9007.05  93.9094
 32.1616  9022.75  93.5445
 32.2036  8822.45  92.9974
 32.2456  8792.53  93.2176
 32.2876  8853.01  92.874
 32.3296  8845.58  92.9679
 32.3716  8784.11  92.7443
 32.4136  8888.66  93.5012
 32.4556  8948.16  93.252
 32.4976  9047.65  93.6627
 32.5396  8865.13  92.745
 32.5816  8741.6  92.2107
 32.6236  8868.21  92.9483
 32.6656  8958.11  93.9554
 32.7076  8822.17  92.9001
 32.7496  8828.74  92.6057
 32.7916  8848.55  92.6631
 32.8336  8812.6  92.5768
 32.8756  8822.66  92.347
 32.9176  8830.82  92.8718
 32.9596  8897.57  93.2942
 33.0016  8762.94  92.3892
 33.0436  8782.41  92.6558
 33.0856  8691.57  92.2423
 33.1276  8648.15  91.7547
 33.1696  8771.21  92.2496
 33.2116  8886.84  93.0863
 33.2536  8789.74  92.5753
 33.2956  8729.4  92.3361
 33.3376  8567.72  91.2949
 33.3796  8721.98  92.242
 33.4216  8777.65  92.1429
 33.4636  8703.11  91.8938
 33.5056  8583.1  91.4952
 33.5476  8500.1  91.044
 33.5896  8823.09  92.4949
 33.6316  8526.16  91.2614
 33.6736  8455.78  91.1255
 33.7156  8591.71  91.9071
 33.7576  8595  91.5637
 33.7996  8734.82  92.0643
 33.8416  8449.23  90.7297
 33.8836  8659.8  91.6303
 33.9256  8562.78  91.1756
 33.9676  8700.38  91.8006
 34.0096  8522.42  91.1715
 34.0516  8356.59  89.924
 34.0936  8456.95  90.7279
 34.1356  8620.32  91.3363
 34.1776  8443.59  90.4112
 34.2196  8371.95  90.2026
 34.2616  8355.06  90.2457
 34.3036  8413.76  90.808
 34.3456  8437.91  90.6938
 34.3876  8533.79  91.2614
 34.4296  8494.79  90.6556
 34.4716  8586.52  91.2828
 34.5136  8474.63  90.897
 34.5556  8411.52  90.8036
 34.5976  8510.13  91.1788
 34.6396  8431.75  90.4377
 34.6816  8503.65  90.9347
 34.7236  8472.85  90.558
 34.7656  8475.62  90.7628
 34.8076  8214.33  89.669
 34.8496  8353.65  90.2832
 34.8916  8370.62  90.2508
 34.9336  8595.34  91.412
 34.9756  8750.11  92.1684
 35.0176  8565.36  91.7033
 35.0596  8214.96  89.6407
 35.1016  8364.9  90.2258
 35.1436  8423.78  90.2283
 35.1856  8328.09  89.8446
 35.2276  8475.82  90.8159
 35.2696  8304.86  90.0832
 35.3116  8394.09  90.653
 35.3536  8269.75  89.7281
 35.3956  8296.37  89.5538
 35.4376  8298.62  90.1191
 35.4796  8361.41  90.5143
 35.5216  8311.97  90.2026
 35.5636  8155.02  90.085
 35.6056  8364.99  90.2581
 35.6476  8319.12  89.908
 35.6896  8384.37  90.4143
 35.7316  8128.6  88.9288
 35.7736  8249.79  89.79
 35.8156  8167.36  89.3419
 35.8576  8271.26  90.1557
 35.8996  8316.23  90.365
 35.9416  8198.79  89.2307
 35.9836  8255.86  89.9881
 36.0256  8197.69  89.5953
 36.0676  8340.71  89.9138
 36.1096  8157.38  89.2735
 36.1516  8138.1  89.0567
 36.1936  8258.11  89.5563
 36.2356  8159.63  89.652
 36.2776  8196.05  89.3316
 36.3196  8315.97  89.665
 36.3616  8097.48  88.61
 36.4036  8137.3  88.8781
 36.4456  8142.53  89.123
 36.4876  8023.81  88.4079
 36.5296  8136.37  89.0581
 36.5716  8159.77  89.9662
 36.6136  8657.5  91.4182
 36.6556  8510.08  90.8369
 36.6976  8257.74  89.9803
 36.7396  8152.79  89.1378
 36.7816  8239.48  89.985
 36.8236  8226.69  89.8388
 36.8656  8095.66  89.1884
 36.9076  8168.97  89.5997
 36.9496  8135.27  89.2732
 36.9916  8087.28  88.6461
 37.0336  8256.95  89.8797
 37.0756  8185.07  89.2867
 37.1176  8034.41  88.7279
 37.1596  8027.47  88.6872
 37.2016  8109.83  89.329
 37.2436  8130.93  88.8117
 37.2856  7990.86  88.2936
 37.3276  8131.15  88.4183
 37.3696  8022.55  88.7064
 37.4116  8164.77  89.3829
 37.4536  7922.01  87.9214
 37.4956  8021.38  88.5144
 37.5376  7932.37  89.5363
 37.5796  7940.77  89.5597
 37.6216  7874.84  87.4854
 37.6636  7800.46  86.9735
 37.7056  7902.84  87.7245
 37.7476  7806.75  86.739
 37.7896  7880.69  87.6392
 37.8316  7778.77  87.2462
 37.8736  7864.19  87.2491
 37.9156  7953.57  87.7469
 37.9576  8050.2  88.1679
 37.9996  7842.46  86.7421
 38.0416  7729  86.9092
 38.0836  8134.99  89.0597
 38.1256  7839.41  87.388
 38.1676  7718.23  86.8511
 38.2096  7895.16  87.4701
 38.2516  8021.14  88.3632
 38.2936  7913.35  87.5738
 38.3356  8002.71  87.9793
 38.3776  7871.52  87.5276
 38.4196  8023.21  88.2181
 38.4616  7738.8  86.8735
 38.5036  7892.55  87.576
 38.5456  7799.58  87.888
 38.5876  7916.02  88.5763
 38.6296  7774.96  86.7778
 38.6716  7781.2  86.6076
 38.7136  7759.75  86.4301
 38.7556  7726.93  86.7418
 38.7976  7831.82  87.2705
 38.8396  7632.14  86.5936
 38.8816  7731.86  86.9371
 38.9236  7713.19  86.6509
 38.9656  7772.89  86.8997
 39.0076  7899.85  87.0145
 39.0496  7783.51  86.9079
 39.0916  7844.46  86.885
 39.1336  7744.88  86.7527
 39.1756  7771.2  86.9664
 39.2176  7760.3  87.4301
 39.2596  7818.78  87.6769
 39.3016  7775.17  87.0158
 39.3436  7519.14  85.9824
 39.3856  7772.23  86.8714
 39.4276  7782.68  87.4196
 39.4696  7766.58  86.9564
 39.5116  7581.82  86.4167
 39.5536  7885.43  88.552
 39.5956  7869.41  87.5693
 39.6376  7847.02  87.4453
 39.6796  7773.75  86.7797
 39.7216  7771.89  86.8547
 39.7636  7778.62  87.4692
 39.8056  7718.19  86.9095
 39.8476  7612.43  86.5638
 39.8896  7661.81  86.4759
 39.9316  7756.68  87.2629
 39.9736  7831.66  87.2583
 40.0156  7792.64  86.8668
 40.0576  7829.99  87.433
 40.0996  7848.54  86.7161
 40.1416  7854.82  87.5467
 40.1836  7895.45  87.6636
 40.2256  7834.45  87.3687
 40.2676  7717.94  86.8825
 40.3096  7831.08  87.374
 40.3516  7807.32  87.3579
 40.3936  7825.78  87.0224
 40.4356  7791.86  87.0282
 40.4776  7883.61  87.7829
 40.5196  7887.95  88.0944
 40.5616  7868.1  87.6289
 40.6036  7737.4  87.1539
 40.6456  7872.98  87.5146
 40.6876  7943.86  87.901
 40.7296  7909.16  87.8433
 40.7716  7809.11  87.4207
 40.8136  7715.66  86.8331
 40.8556  7802.13  87.4526
 40.8976  7836.89  87.5689
 40.9396  7735.45  87.3451
 40.9816  7942.59  87.7948
 41.0236  7876.08  87.2039
 41.0656  7880.11  87.7663
 41.1076  7893.4  87.6117
 41.1496  7936.41  87.7599
 41.1916  7842.9  87.5639
 41.2336  7807.72  87.3575
 41.2756  7890.05  87.4177
 41.3176  7745.73  87.227
 41.3596  7770.7  87.0964
 41.4016  7719.57  87.0611
 41.4436  7886.98  87.7914
 41.4856  7878.15  87.9068
 41.5276  7838.67  87.7026
 41.5696  7840.5  87.3334
 41.6116  7693.52  86.9171
 41.6536  7810.11  87.4289
 41.6956  7801.34  87.3615
 41.7376  7873.69  87.8661
 41.7796  7746.29  87.0785
 41.8216  7792.76  87.5338
 41.8636  7792.84  87.4666
 41.9056  7721.06  86.8587
 41.9476  7821.7  87.653
 41.9896  7844.98  87.4602
 42.0316  7804.38  87.3064
 42.0736  7841.71  87.6581
 42.1156  7740.58  86.9035
 42.1576  7744.52  87.019
 42.1996  7743.17  87.1594
 42.2416  7779.73  86.9414
 42.2836  7707.8  86.6565
 42.3256  7724.48  86.8642
 42.3676  7776.97  86.9508
 42.4096  7800.71  87.0608
 42.4516  7712.13  86.6538
 42.4936  7700.48  86.654
 42.5356  7751.8  87.0693
 42.5776  7748.34  86.9903
 42.6196  7643.54  86.4572
 42.6616  7546.59  86.0725
 42.7036  7722.24  86.4615
 42.7456  7722.41  86.8142
 42.7876  7658.38  86.5542
 42.8296  7710.26  86.6775
 42.8716  7667.82  86.599
 42.9136  7655.53  86.2782
 42.9556  7742.14  86.94
 42.9976  7825.45  87.3693
 43.0396  7687.08  86.3286
 43.0816  7570.9  86.0373
 43.1236  7617.13  86.3667
 43.1656  7676.38  86.534
 43.2076  7602.44  86.2178
 43.2496  7620.52  86.1359
 43.2916  7602.52  86.3959
 43.3336  7653.29  86.5238
 43.3756  7624.67  86.121
 43.4176  7519.4  85.6029
 43.4596  7508.69  85.3988
 43.5016  7559.17  86.0879
 43.5436  7504.12  85.6658
 43.5856  7564.72  86.0407
 43.6276  7567.45  85.9568
 43.6696  7554.75  86.0248
 43.7116  7573.81  85.7515
 43.7536  7596.33  86.3671
 43.7956  7419.69  86.5288
 43.8376  7545.48  85.8105
 43.8796  7476.72  85.4923
 43.9216  7582.52  86.016
 43.9636  7562.92  86.01
 44.0056  7518.37  85.9843
 44.0476  7458.52  85.2761
 44.0896  7465.1  85.6577
 44.1316  7512.5  85.5985
 44.1736  7417.1  85.017
 44.2156  7509.48  85.409
 44.2576  7430.09  85.2865
 44.2996  7437.88  85.3091
 44.3416  7506.19  85.4529
 44.3836  7257.87  84.3523
 44.4256  7275.51  84.0998
 44.4676  7432.89  85.1636
 44.5096  7389.81  85.0575
 44.5516  7276.85  84.3686
 44.5936  7275.46  84.3159
 44.6356  7360.56  84.5477
 44.6776  7278.74  84.3943
 44.7196  7373.36  85.2404
 44.7616  7397.39  86.7
 44.8036  7309.7  84.8286
 44.8456  7402.95  85.3649
 44.8876  7424.6  85.3387
 44.9296  7428.57  84.8267
 44.9716  7305.54  84.5436
 45.0136  7297.34  84.4317
 45.0556  7255.65  84.2685
 45.0976  7332.02  84.7683
 45.1396  7236.49  83.9797
 45.1816  7189.26  83.6379
 45.2236  7394.89  84.7266
 45.2656  7268.84  84.4952
 45.3076  7062.05  83.0805
 45.3496  7211.24  84.2388
 45.3916  7183.89  84.3482
 45.4336  7267.49  84.6849
 45.4756  7106.62  83.6007
 45.5176  7198.36  83.7673
 45.5596  7388.04  84.9833
 45.6016  7183.95  84.209
 45.6436  7282.02  83.9745
 45.6856  7216.2  84.2346
 45.7276  7100.95  84.8496
 45.7696  7226.22  85.2741
 45.8116  7309.5  85.2155
 45.8536  7228.17  84.6345
 45.8956  7254.81  84.1473
 45.9376  7185.82  83.2207
 45.9796  7210.2  84.044
 46.0216  7222.09  84.4478
 46.0636  7190.47  83.4184
 46.1056  7211.64  83.5273
 46.1476  7118.23  83.5654
 46.1896  7156.13  83.9354
 46.2316  7054.64  83.2132
 46.2736  7138.29  83.9109
 46.3156  7162.57  83.7996
 46.3576  7189.06  84.1528
 46.3996  7157.87  84.1285
 46.4416  7161.62  83.7178
 46.4836  7111.34  83.7912
 46.5256  7242.72  84.4984
 46.5676  7031.71  83.3709
 46.6096  7111.69  83.7769
 46.6516  7155.7  83.0955
 46.6936  7186.31  83.758
 46.7356  7215.09  84.0311
 46.7776  7113.69  84.2547
 46.8196  7088.57  83.8586
 46.8616  6927  82.6977
 46.9036  6960.2  82.5695
 46.9456  7024.41  82.5924
 46.9876  7101.06  83.1126
 47.0296  7032.95  83.3978
 47.0716  6937.37  82.6592
 47.1136  6975.33  82.5694
 47.1556  7022.97  82.7218
 47.1976  6996.77  82.7251
 47.2396  7059.6  83.409
 47.2816  6858.41  81.9227
 47.3236  6992.02  83.0784
 47.3656  7027.65  83.2124
 47.4076  7047.92  83.0773
 47.4496  6901.91  82.375
 47.4916  6966.7  82.9439
 47.5336  6972.28  82.795
 47.5756  7048.29  83.3558
 47.6176  6884.63  82.2874
 47.6596  6893.97  82.0668
 47.7016  6996.22  82.4961
 47.7436  6962.71  82.6205
 47.7856  7072.3  83.2888
 47.8276  6914.68  82.4209
 47.8696  6897.4  82.3933
 47.9116  6999.37  82.7216
 47.9536  6969.03  82.4805
 47.9956  6820.33  82.289
 48.0376  6853.27  82.2654
 48.0796  6983.69  83.1734
 48.1216  6944.4  82.7618
 48.1636  7011.07  82.7391
 48.2056  6949.53  82.631
 48.2476  6994.14  83.2057
 48.2896  6956.17  82.8831
 48.3316  6857.5  82.2339
 48.3736  6803.89  81.9326
 48.4156  6844.94  82.0406
 48.4576  6927.19  82.8226
 48.4996  6988.81  82.6555
 48.5416  6969.17  82.8581
 48.5836  6908.83  82.1775
 48.6256  6865.79  82.1271
 48.6676  6863.34  82.6148
 48.7096  6880.97  82.0017
 48.7516  6835.76  81.8783
 48.7936  6730.65  81.3051
 48.8356  6740.63  81.4135
 48.8776  6949.87  83.1547
 48.9196  6906.91  82.356
 48.9616  6874.42  82.5385
 49.0036  6840.54  82.6638
 49.0456  6679.2  81.6749
 49.0876  6785.28  81.9718
 49.1296  6801.53  82.1256
 49.1716  6729.93  81.563
 49.2136  6727.28  81.4838
 49.2556  6754.04  81.6706
 49.2976  6863.91  82.4009
 49.3396  6698.28  81.4477
 49.3816  6841.69  81.7571
 49.4236  6770  81.753
 49.4656  6670.82  81.1669
 49.5076  6681.49  80.9856
 49.5496  6656.64  80.8902
 49.5916  6729.28  81.2494
 49.6336  6774.57  81.7282
 49.6756  6810.19  82.1691
 49.7176  6729.08  81.6221
 49.7596  6751.8  81.5295
 49.8016  6765.92  81.5376
 49.8436  6706.33  81.4681
 49.8856  6723.69  81.5843
 49.9276  6676.37  81.389
 49.9696  6709.46  81.5726
 50.0116  6646.75  81.317
 50.0536  6666.1  81.3873
 50.0956  6645.94  81.3379
 50.1376  6687.32  81.2916
 50.1796  6665.84  81.4264
 50.2216  6585.1  80.9271
 50.2636  6697.81  81.2407
 50.3056  6557.77  80.5596
 50.3476  6648.14  81.1319
 50.3896  6674.78  81.2613
 50.4316  6625.24  80.8005
 50.4736  6557  80.6
 50.5156  6660.91  81.2171
 50.5576  6670.79  81.0414
 50.5996  6558.97  80.642
 50.6416  6569.34  80.6332
 50.6836  6591.37  80.8309
 50.7256  6679.63  81.2977
 50.7676  6634.91  81.2928
 50.8096  6556.87  80.3979
 50.8516  6602.91  81.0918
 50.8936  6582.62  80.7446
 50.9356  6499.41  80.3457
 50.9776  6608.94  81.1617
 51.0196  6520.44  80.7455
 51.0616  6402.09  79.3587
 51.1036  6544.51  80.5812
 51.1456  6579.9  80.7121
 51.1876  6615.84  80.2868
 51.2296  6514.71  80.2912
 51.2716  6371.84  79.1174
 51.3136  6430.12  79.9269
 51.3556  6427.21  79.5345
 51.3976  6522.62  80.2806
 51.4396  6283.03  79.0855
 51.4816  6429.23  79.8566
 51.5236  6426.25  79.9306
 51.5656  6481.98  79.8811
 51.6076  6419.59  79.5785
 51.6496  6518.25  80.3692
 51.6916  6429.25  80.1719
 51.7336  6416.01  80.1708
 51.7756  6369.98  79.5873
 51.8176  6415.09  79.9761
 51.8596  6344.69  79.5548
 51.9016  6573.78  80.5876
 51.9436  6383.2  80.8339
 51.9856  6277.4  80.5906
 52.0276  6510.48  80.5962
 52.0696  6372.8  79.801
 52.1116  6389.28  80.0162
 52.1536  6414.22  80.018
 52.1956  6439.46  79.6901
 52.2376  6490.89  80.1857
 52.2796  6413.66  79.5153
 52.3216  6260.05  79.2318
 52.3636  6425.94  79.8603
 52.4056  6321.98  79.066
 52.4476  6371.13  79.7387
 52.4896  6187.84  78.6332
 52.5316  6267.77  79.1878
 52.5736  6354.79  79.4608
 52.6156  6374.22  79.9633
 52.6576  6403.73  79.5879
 52.6996  6181.12  79.1435
 52.7416  6402.36  80.3915
 52.7836  6394.18  80.2336
 52.8256  6402.59  79.5316
 52.8676  6142.25  78.4525
 52.9096  6207.39  78.9448
 52.9516  6320.82  80.0268
 52.9936  6255.39  79.9976
 53.0356  6148.25  78.3445
 53.0776  6222.17  79.0912
 53.1196  6156.4  78.7724
 53.1616  6116.87  78.5663
 53.2036  6163.95  78.8169
 53.2456  6144.92  78.8069
 53.2876  6255.9  79.2207
 53.3296  6267.65  79.616
 53.3716  6243.06  79.2089
 53.4136  6196.91  79.0643
 53.4556  6151.07  78.7986
 53.4976  6123.4  78.474
 53.5396  6155.62  79.0646
 53.5816  6146.97  78.6453
 53.6236  6060.32  78.4277
 53.6656  6133.39  78.5375
 53.7076  6214.01  79.0131
 53.7496  6222.69  79.1833
 53.7916  6280.9  79.6809
 53.8336  6056.88  78.1444
 53.8756  6086.93  78.8776
 53.9176  6108.13  78.3714
 53.9596  6235.92  79.9393
 54.0016  6074.94  78.2522
 54.0436  6118.52  78.7373
 54.0856  6088.87  77.993
 54.1276  6103.11  78.2774
 54.1696  6092.42  78.3801
 54.2116  6124.78  78.3432
 54.2536  6209.14  78.7016
 54.2956  6156.81  78.4145
 54.3376  6102.82  78.5472
 54.3796  6169.5  78.8753
 54.4216  6265.23  79.5216
 54.4636  6095.74  78.4104
 54.5056  6144.23  78.5439
 54.5476  6077.68  78.437
 54.5896  6190.65  78.9985
 54.6316  6089.56  78.2171
 54.6736  6143.47  78.58
 54.7156  6153.98  78.7236
 54.7576  6024.86  77.8934
 54.7996  6068.69  78.3246
 54.8416  6083.4  78.4492
 54.8836  6001.03  78.03
 54.9256  6146.18  78.721
 54.9676  6106.73  78.3234
 55.0096  6072.7  78.1769
 55.0516  6137.59  78.7563
 55.0936  6096.01  78.1858
 55.1356  6056.32  77.9767
 55.1776  6078.43  78.382
 55.2196  6044.38  77.9491
 55.2616  6131.85  78.7077
 55.3036  6042.1  78.3025
 55.3456  6138.09  79.0634
 55.3876  5990.03  77.8591
 55.4296  6075.06  78.3781
 55.4716  6011.36  78.0069
 55.5136  6080.33  78.2152
 55.5556  5998.73  77.7583
 55.5976  6054.93  78.1753
 55.6396  6093.09  78.2851
 55.6816  6032.36  77.8554
 55.7236  6087.3  78.2465
 55.7656  6018.2  77.5702
 55.8076  6169.59  78.5231
 55.8496  6000.27  77.8625
 55.8916  6101.06  78.5649
 55.9336  6034.34  77.9939
 55.9756  6031.79  77.8633
 56.0176  5979.97  77.6763
 56.0596  6018.44  77.9166
 56.1016  6111.69  78.5566
 56.1436  6003.74  78.0941
 56.1856  6076.98  78.3078
 56.2276  6044.85  78.159
 56.2696  6076.79  78.3356
 56.3116  5967.37  78.0242
 56.3536  5960.63  77.6435
 56.3956  6002.43  77.9043
 56.4376  5972.07  77.7408
 56.4796  6126.99  78.5441
 56.5216  6100.91  78.7544
 56.5636  6042.36  77.9665
 56.6056  6011.05  77.9939
 56.6476  6057.25  77.9184
 56.6896  6038.13  78.2435
 56.7316  6093.27  78.5149
 56.7736  6069.32  78.3517
 56.8156  6009.89  77.9622
 56.8576  5974  77.6759
 56.8996  6077.26  78.2857
 56.9416  6038.28  78.3349
 56.9836  5961.91  77.3564
 57.0256  5956.09  77.6281
 57.0676  5985.73  77.9455
 57.1096  6055.04  78.1806
 57.1516  6069.75  78.3018
 57.1936  6097.14  78.2692
 57.2356  6077.75  78.4586
 57.2776  6010.88  77.9892
 57.3196  6019.08  78.4055
 57.3616  6043.37  78.061
 57.4036  6021.11  77.9779
 57.4456  5903.64  77.1813
 57.4876  6045.03  77.9582
 57.5296  5919.18  77.3803
 57.5716  5914.83  77.4384
 57.6136  5987.54  77.735
 57.6556  6022.73  78.0864
 57.6976  6036.12  77.9999
 57.7396  5839.6  77.0966
 57.7816  5913.07  77.931
 57.8236  5978.91  78.1556
 57.8656  5979.61  77.8266
 57.9076  5896.95  77.3188
 57.9496  5918.14  77.7968
 57.9916  5906.64  77.245
 58.0336  6008.91  78.1805
 58.0756  6043.21  78.0031
 58.1176  5982.31  77.646
 58.1596  6027.53  78.4904
 58.2016  6066.05  77.9752
 58.2436  6010.13  78.026
 58.2856  6023.21  78.0276
 58.3276  5916.74  77.7015
 58.3696  5985.4  77.9113
 58.4116  5935.51  77.4498
 58.4536  6018.47  77.8786
 58.4956  5981.49  77.8149
 58.5376  5992.55  77.4618
 58.5796  5969.31  77.7268
 58.6216  5993.91  77.7103
 58.6636  6057.75  78.3324
 58.7056  6005.36  77.8529
 58.7476  5829.54  77.1406
 58.7896  5994.51  77.8715
 58.8316  5928.82  77.4397
 58.8736  6010.16  77.9777
 58.9156  5982.19  77.8363
 58.9576  6106.99  78.965
 58.9996  6022.05  77.6662
 59.0416  6098.29  78.5211
 59.0836  5947.57  77.4693
 59.1256  5857.65  77.5698
 59.1676  5989.21  78.7364
 59.2096  5934.64  77.6902
 59.2516  6010.5  77.7673
 59.2936  6027.21  78.203
 59.3356  5893.93  77.2128
 59.3776  6114.45  78.8139
 59.4196  5979.2  77.8727
 59.4616  5890.33  77.1545
 59.5036  5906.63  77.2958
 59.5456  6119.63  78.3689
 59.5876  6160.05  78.8203
 59.6296  5939.45  77.4647
 59.6716  5968.18  77.7094
 59.7136  5951.2  77.5872
 59.7556  5966.9  77.8251
 59.7976  6177.84  78.928
 59.8396  6010.78  77.748
 59.8816  5987.52  78.1375
 59.9236  5919.42  77.3421
 59.9656  5969.46  77.9274
 60.0076  6004.69  77.5163
 60.0496  6050.84  78.3177
 60.0916  6189.86  78.6235
 60.1336  5949  78.1774
 60.1756  5741.99  77.9598
 60.1996  0.0000000E+00  0.0000000E+00