File: docs/examples/opeando_xrd/IS17_D/Data/IS17_D/17_Db_f00117.xye
# /beamlines/bl04/projects/cycle2025-II/20250340211-lsimonelli/DATA/IS17_D/17_Db_f00117.xye : mythproc.py merge -s 0.006 -l 0.5 -f /beamlines/bl04/inhouse/ff/FlatField/ff_20Nov2024rod8mm60s_17keV.raw -b True -c true -o xye /beamlines/bl04/projects/cycle2025-II/20250340211-lsimonelli/DATA/IS17_D/17_Db_00117.dat
# IsMon = [6789898, 6786133, 6782450]  IsPos = [-1.4999, -2.4884, -3.4988]
# Wave = 0.4962  CalPath /beamlines/bl04/projects/cycle2025-II/20250340211-lsimonelli/DATA/Align/Si_Pos1_25keV_f00001.cal
# Date = 2025-09-25_02:18:32 Dt = 4.8000  Bin = 0.0060  <imon> = 6786160 +/- 3041 (Min/Max) 6782450 / 6789898
# icurr 252.9444  mocoIn 1.7256E-05  mocoOut 0.8090  i15 7.10952e+06  imon 6.78616e+06  i7 6.0000  iEMpd_timer 4.8000  iEMpd_1 3.5193E-08  iEMpd_2 8.0225E-08  iEMpd_3 1.7429E-08  iEMpd_4 4.8132E-08  iEMhp_timer 4.8000  iEMhp_1 4.9418E-06  iEMhp_2 -2.3896E-08  iEMhp_3 -2.5970E-08  iEMhp_4 -2.1344E-08
#      9776
 1.5856  45156.1  218.143
 1.6276  51503.9  228.974
 1.6696  57366.6  240.803
 1.7116  64568  255.97
 1.7536  72920.2  270.864
 1.7956  76762.4  278.602
 1.8376  73400.1  272.864
 1.8796  63476.7  251.886
 1.9216  52635.6  230.281
 1.9636  45397  212.986
 2.0056  41295.4  202.348
 2.0476  38590.9  197.755
 2.0896  37183.4  192.977
 2.1316  36352.2  189.89
 2.1736  34750.4  187.132
 2.2156  35324  187.156
 2.2576  33956.3  184.155
 2.2996  32662.5  181.275
 2.3416  33180.2  181.248
 2.3836  32727.1  180.117
 2.4256  31624.8  177.635
 2.4676  30992.9  175.602
 2.5096  30798  175.106
 2.5516  29696.5  175.906
 2.5936  29700.3  172.398
 2.6356  29253.9  171.821
 2.6776  28941.5  169.775
 2.7196  28648.7  169.413
 2.7616  28611.1  169.087
 2.8036  28122.8  167.806
 2.8456  28104.4  168.412
 2.8876  27504.2  166.473
 2.9296  27306.5  165.993
 2.9716  27151.6  164.998
 3.0136  26573.7  163.301
 3.0556  26708.1  164.11
 3.0976  26908.9  163.591
 3.1396  26394.5  162.78
 3.1816  26075.8  161.731
 3.2236  25735.6  160.645
 3.2656  25634.7  159.383
 3.3076  25630.7  160.868
 3.3496  25512.4  159.405
 3.3916  25970  160.631
 3.4336  26577.8  163.114
 3.4756  26705  163.43
 3.5176  27222.3  164.774
 3.5596  27132  167.019
 3.6016  27135.5  164.613
 3.6436  26321.8  163.252
 3.6856  25861.9  160.091
 3.7276  24781.2  157.812
 3.7696  24547.8  157.271
 3.8116  24390.7  156.643
 3.8536  24484.6  156.872
 3.8956  24310.8  156.131
 3.9376  24264.4  156.257
 3.9796  24119.8  155.266
 4.0216  24132.8  154.331
 4.0636  24160.4  155.921
 4.1056  24015.2  155.093
 4.1476  24500.1  156.949
 4.1896  24477.7  156.747
 4.2316  24639.5  157.098
 4.2736  25098.3  158.346
 4.3156  25165.7  158.806
 4.3576  25975.5  161.231
 4.3996  26035.5  161.698
 4.4416  26649.3  163.168
 4.4836  27042.4  164.529
 4.5256  27757.7  167.296
 4.5676  27524.7  166.868
 4.6096  28360.3  167.99
 4.6516  28443.5  167.943
 4.6936  28547.1  169.104
 4.7356  28728.4  169.451
 4.7776  28726.8  169.283
 4.8196  28357.7  168.821
 4.8616  27842.4  166.78
 4.9036  27780.3  166.307
 4.9456  27423  165.918
 4.9876  26786.7  163.875
 5.0296  27237.4  165.084
 5.0716  26855.8  164.699
 5.1136  27122.3  165.216
 5.1556  27352.4  165.38
 5.1976  28042.5  167.42
 5.2396  27875.1  166.62
 5.2816  28173.7  167.981
 5.3236  27873.3  166.786
 5.3656  27552.4  166.767
 5.4076  27183.9  165.795
 5.4496  27152.5  165.196
 5.4916  27580.1  166.231
 5.5336  27299.7  165.4
 5.5756  27339.6  165.513
 5.6176  27337.1  164.955
 5.6596  27872  167.549
 5.7016  27738.3  166.411
 5.7436  27800.9  166.88
 5.7856  27745.5  166.784
 5.8276  28015.9  167.311
 5.8696  28338.7  168.44
 5.9116  28192.6  168.614
 5.9536  28474.1  169.176
 5.9956  28748  169.385
 6.0376  28834.7  170.27
 6.0796  28923.3  170.357
 6.1216  28812  170.247
 6.1636  29287  170.67
 6.2056  29142.2  170.946
 6.2476  29375.8  171.488
 6.2896  29529.8  171.616
 6.3316  29646.8  172.111
 6.3736  29434  171.394
 6.4156  29933.7  172.717
 6.4576  29985.1  172.502
 6.4996  29870.2  172.656
 6.5416  30240.6  173.849
 6.5836  29946.8  173.255
 6.6256  30175.9  173.456
 6.6676  30854.7  174.955
 6.7096  30742.7  175.493
 6.7516  31013.1  175.935
 6.7936  31182.6  175.809
 6.8356  31145.5  175.8
 6.8776  31392.1  177.319
 6.9196  31581.1  178.242
 6.9616  31938.2  178.688
 7.0036  32557.9  180.062
 7.0456  32358.8  178.795
 7.0876  32136.9  179.888
 7.1296  32238.4  179.292
 7.1716  32392.2  179.25
 7.2136  32134  178.315
 7.2556  32419.6  179.268
 7.2976  32382.1  179.661
 7.3396  32300.9  179.655
 7.3816  32172.6  179.523
 7.4236  32642.9  180.117
 7.4656  32793.5  179.987
 7.5076  33038.5  180.807
 7.5496  32623.3  180.225
 7.5916  32853.7  180.896
 7.6336  33332.7  182.092
 7.6756  33514.1  182.433
 7.7176  33859.6  183.69
 7.7596  33724.2  184.573
 7.8016  34382.7  188.623
 7.8436  33965.6  184.143
 7.8856  34313.6  184.693
 7.9276  34675  186.067
 7.9696  34964.2  187.137
 8.0116  35902.1  188.171
 8.0536  35935.5  188.509
 8.0956  35890.3  189.566
 8.1376  36699.3  191.167
 8.1796  36569.6  191.357
 8.2216  37699.2  193.026
 8.2636  37754.3  193.423
 8.3056  37339  193.136
 8.3476  38120.4  194.454
 8.3896  37753.4  193.599
 8.4316  37966.6  194.313
 8.4736  38006.4  193.886
 8.5156  37639.2  193.223
 8.5576  37565.4  193.997
 8.5996  37656.7  193.113
 8.6416  37515.7  194.01
 8.6836  36977.1  192.462
 8.7256  37817.2  194.062
 8.7676  37429.1  195.999
 8.8096  37756.2  194.105
 8.8516  37884.1  193.996
 8.8936  37348.3  192.576
 8.9356  37833.1  194.133
 8.9776  37667.1  193.815
 9.0196  37582  193.238
 9.0616  37280.6  191.98
 9.1036  37007.9  192.461
 9.1456  36759.2  191.155
 9.1876  36841.5  191.294
 9.2296  36532.5  189.94
 9.2716  36226.7  189.168
 9.3136  36539  189.976
 9.3556  36777.3  190.572
 9.3976  35762.2  188.422
 9.4396  35509.6  187.676
 9.4816  35669  187.94
 9.5236  35180.9  186.552
 9.5656  34997  186.432
 9.6076  34420.4  185.44
 9.6496  34592.3  185.763
 9.6916  34238.2  184.789
 9.7336  34857.6  186.217
 9.7756  34345.8  186.133
 9.8176  33958.4  184.541
 9.8596  34051.7  183.223
 9.9016  33509.7  181.746
 9.9436  33345.2  181.218
 9.9856  32917.8  180.326
 10.0276  32827  181.173
 10.0696  32783.1  180.065
 10.1116  31753.8  177.487
 10.1536  32180  178.821
 10.1956  31519.6  176.599
 10.2376  31310.3  175.5
 10.2796  31271.2  175.51
 10.3216  30799  174.477
 10.3636  30647  174.07
 10.4056  29863.8  172.24
 10.4476  30030.3  172.319
 10.4896  30311.7  172.563
 10.5316  29326  170.467
 10.5736  29476.5  171.318
 10.6156  29310.8  170.584
 10.6576  29178.9  168.765
 10.6996  28729.6  168.162
 10.7416  28674.3  168.218
 10.7836  28026.2  167.002
 10.8256  27824.4  166.826
 10.8676  27977.9  166.823
 10.9096  27545.5  165.566
 10.9516  27389.5  164.034
 10.9936  27483  164.523
 11.0356  27184.7  164.236
 11.0776  27119.5  163.374
 11.1196  26713  162.915
 11.1616  26420.5  161.689
 11.2036  26725.8  162.464
 11.2456  26634.5  162.902
 11.2876  26666.4  162.7
 11.3296  26116.8  160.953
 11.3716  26814  162.765
 11.4136  26575.3  162.941
 11.4556  26637.4  162.791
 11.4976  27201.4  163.472
 11.5396  27396.5  164.231
 11.5816  27950.7  166.337
 11.6236  27227.2  164.407
 11.6656  27309.2  163.77
 11.7076  26264  161.463
 11.7496  25910.9  164.438
 11.7916  25841.8  159.402
 11.8336  25323.9  158.714
 11.8756  25314.8  158.218
 11.9176  25291.1  157.812
 11.9596  25388.7  158.277
 12.0016  24807.1  157.24
 12.0436  25234.1  158.02
 12.0856  24648.2  156.698
 12.1276  24787.5  157.086
 12.1696  24649.2  155.757
 12.2116  24458.2  155.155
 12.2536  24210  155.178
 12.2956  24314.7  154.864
 12.3376  24646.3  156.104
 12.3796  24657.6  156.639
 12.4216  24717.2  156.003
 12.4636  23947.7  154.504
 12.5056  24328.5  154.982
 12.5476  24597.9  155.35
 12.5896  24161.2  154.618
 12.6316  24271.7  155.095
 12.6736  24168.1  155.278
 12.7156  24315.1  155.577
 12.7576  24314  155.843
 12.7996  24598  155.365
 12.8416  24063.7  154.729
 12.8836  24415.6  155.695
 12.9256  24882.2  156.185
 12.9676  24679  155.957
 13.0096  24911  157.804
 13.0516  24793.8  156.463
 13.0936  25253.9  158.313
 13.1356  25449.2  157.881
 13.1776  24930.1  157.291
 13.2196  25056.5  157.327
 13.2616  24879.1  157.096
 13.3036  25222.1  158.126
 13.3456  24914.6  157.526
 13.3876  25181.1  157.616
 13.4296  24771.1  156.499
 13.4716  25099.6  157.157
 13.5136  25116.9  157.331
 13.5556  24854.3  157.15
 13.5976  25006.1  157.804
 13.6396  24914.5  156.874
 13.6816  25044.6  157.751
 13.7236  25410.7  158.488
 13.7656  26910.6  163.549
 13.8076  27685.2  164.5
 13.8496  27347.6  164.182
 13.8916  25177.5  158.683
 13.9336  24536.6  155.93
 13.9756  24689.4  155.785
 14.0176  24234.3  155.038
 14.0596  24490.5  155.773
 14.1016  24143.3  155.092
 14.1436  24319  154.761
 14.1856  23650.5  152.928
 14.2276  23711.8  153.603
 14.2696  23826  153.833
 14.3116  23079.9  151.322
 14.3536  22934.5  150.998
 14.3956  22931.1  150.702
 14.4376  23097.5  151.041
 14.4796  22975.9  150.642
 14.5216  22567.7  150.097
 14.5636  22488.1  149.388
 14.6056  22607.9  149.341
 14.6476  22718.2  148.937
 14.6896  22172.1  147.692
 14.7316  21628.3  146.908
 14.7736  21764.9  146.5
 14.8156  21604.2  145.971
 14.8576  21362.6  145.022
 14.8996  21073.4  145.24
 14.9416  20871.2  144.565
 14.9836  20648.3  143.777
 15.0256  19936.3  140.204
 15.0676  20150.8  141.268
 15.1096  20085.9  140.776
 15.1516  19789.2  140.289
 15.1936  19690.4  139.37
 15.2356  19377.5  138.535
 15.2776  19418.1  138.268
 15.3196  18858.2  137.252
 15.3616  18858.6  137.017
 15.4036  18758.3  136.506
 15.4456  19146.8  137.556
 15.4876  18739.9  135.773
 15.5296  18652.6  135.736
 15.5716  18524.2  134.874
 15.6136  18302.4  134.391
 15.6556  18140.9  133.044
 15.6976  18132.1  133.298
 15.7396  18202.5  133.959
 15.7816  18031  132.833
 15.8236  17679.9  132.229
 15.8656  17755.3  132.3
 15.9076  17417.6  130.854
 15.9496  18251.1  136.762
 15.9916  18112.4  136.654
 16.0336  18181.7  133.727
 16.0756  17776.8  132.565
 16.1176  17729.5  132.475
 16.1596  17364.8  132.301
 16.2016  17224.8  130.53
 16.2436  17403.3  131.566
 16.2856  17166.5  130.176
 16.3276  17028.6  130.115
 16.3696  17123.8  130.293
 16.4116  16969.1  130.139
 16.4536  17203.4  130.855
 16.4956  17015.7  129.855
 16.5376  16890.1  129.579
 16.5796  16778.8  128.512
 16.6216  17043.7  129.786
 16.6636  16661  128.528
 16.7056  16725.3  128.629
 16.7476  16632  127.795
 16.7896  16831.7  129.311
 16.8316  16743.2  128.955
 16.8736  16938.8  129.953
 16.9156  16604.1  128.996
 16.9576  16554.6  129.603
 16.9996  16702.8  130.665
 17.0416  16862.7  129.637
 17.0836  16914.2  129.583
 17.1256  16749.6  128.959
 17.1676  16591.4  128.325
 17.2096  16543.1  128.017
 17.2516  16391  127.215
 17.2936  16244  126.994
 17.3356  16143.9  126.581
 17.3776  15961.7  126.058
 17.4196  15920.6  125.601
 17.4616  15904  125.437
 17.5036  15520.2  124.286
 17.5456  15710.9  125.684
 17.5876  15709.3  124.713
 17.6296  15566.1  123.974
 17.6716  15517  124.362
 17.7136  15559.7  124.651
 17.7556  15466.6  124.59
 17.7976  15222.7  123.332
 17.8396  15122.3  122.423
 17.8816  15009.1  122.541
 17.9236  15107.8  122.714
 17.9656  14856.5  122.236
 18.0076  15063  122.677
 18.0496  14964.3  121.402
 18.0916  14890.4  121.654
 18.1336  14779.4  121.291
 18.1756  14953.2  121.554
 18.2176  14522.9  120.006
 18.2596  14538.2  119.792
 18.3016  14755.8  120.956
 18.3436  14714.9  120.787
 18.3856  14700.2  120.847
 18.4276  14540.7  119.886
 18.4696  14684.2  120.566
 18.5116  14648.1  120.687
 18.5536  14527.1  120.559
 18.5956  14403.1  119.601
 18.6376  14382.3  119.915
 18.6796  14376.1  119.191
 18.7216  14331.4  119.515
 18.7636  14432.6  119.929
 18.8056  14365.1  119.583
 18.8476  14151.9  119.326
 18.8896  14340.7  119.447
 18.9316  14304.3  119.275
 18.9736  14250.3  118.744
 19.0156  14137.9  118.694
 19.0576  14440.7  118.779
 19.0996  14484.8  119.697
 19.1416  14142  118.658
 19.1836  14270.8  118.808
 19.2256  14214.1  118.793
 19.2676  14145.3  118.59
 19.3096  14137  118.814
 19.3516  14082  118.532
 19.3936  14031.9  118.218
 19.4356  14360  119.461
 19.4776  14044  118.24
 19.5196  14159.3  118.578
 19.5616  14128.6  118.71
 19.6036  14055.8  117.907
 19.6456  13996.5  117.759
 19.6876  13975.5  117.321
 19.7296  14217.6  118.785
 19.7716  13970.6  117.928
 19.8136  14434.9  120.053
 19.8556  14360  119.236
 19.8976  14458.5  119.707
 19.9396  14543.1  119.633
 19.9816  14621.5  120.22
 20.0236  14920.8  121.625
 20.0656  15121.2  122.455
 20.1076  15251.7  123.461
 20.1496  15072.9  122.737
 20.1916  14920.8  121.611
 20.2336  14603.5  120.238
 20.2756  14301.8  119.428
 20.3176  14134.5  118.481
 20.3596  13773.3  116.951
 20.4016  13937.5  117.431
 20.4436  13873.6  117.735
 20.4856  13798.4  117.193
 20.5276  13729.8  117.376
 20.5696  13867.4  117.388
 20.6116  13599.7  116.54
 20.6536  13627.5  116.172
 20.6956  13441.3  115.506
 20.7376  13343.7  115.312
 20.7796  13314.7  114.861
 20.8216  13605.6  115.824
 20.8636  13367.5  115.174
 20.9056  13500.6  115.691
 20.9476  13543.7  115.711
 20.9896  13450.9  115.185
 21.0316  13442.1  115.053
 21.0736  13248.9  114.743
 21.1156  13261.2  114.962
 21.1576  13342.7  115.33
 21.1996  13201.5  114.719
 21.2416  13253.5  114.757
 21.2836  13117.9  114.154
 21.3256  13281.7  114.933
 21.3676  13238.8  114.273
 21.4096  13141.2  114.19
 21.4516  12962.8  113.285
 21.4936  12831.5  112.978
 21.5356  13069.8  113.967
 21.5776  13200.9  114.366
 21.6196  13076.1  113.863
 21.6616  12951.1  113.403
 21.7036  13109.2  113.851
 21.7456  13042.4  113.65
 21.7876  12945.9  112.984
 21.8296  12882.6  112.548
 21.8716  13009.7  113.334
 21.9136  13061.8  113.778
 21.9556  12899.8  112.74
 21.9976  12760.7  112.155
 22.0396  12920.5  113.112
 22.0816  12893.5  113.535
 22.1236  12890  112.961
 22.1656  12805.1  112.746
 22.2076  12618.5  111.382
 22.2496  12697.4  111.757
 22.2916  12752  111.887
 22.3336  12461.7  111.319
 22.3756  12556.4  111.469
 22.4176  12487.9  111.019
 22.4596  12384.4  111.148
 22.5016  12549.2  111.384
 22.5436  12717.2  112.007
 22.5856  12806  112.64
 22.6276  12982.2  113.539
 22.6696  12713.3  112.725
 22.7116  12591.9  111.688
 22.7536  12594  111.679
 22.7956  12505.8  110.622
 22.8376  12322.4  110.331
 22.8796  12586.6  111.3
 22.9216  12668.9  112.215
 22.9636  12398.8  110.168
 23.0056  12376  110.199
 23.0476  12662.6  112.044
 23.0896  12781.1  111.939
 23.1316  12726.2  112.136
 23.1736  12820.8  115.501
 23.2156  12987.3  113.609
 23.2576  13276.3  114.978
 23.2996  12884.6  113.069
 23.3416  13088.5  114.471
 23.3836  12893.8  112.85
 23.4256  12932.5  113.126
 23.4676  12834.8  112.402
 23.5096  12822.9  113.012
 23.5516  12946.2  112.839
 23.5936  13027.5  114.127
 23.6356  12996.4  113.646
 23.6776  12727.3  112.695
 23.7196  12569.2  111.549
 23.7616  12703.9  112.073
 23.8036  12998.3  113.4
 23.8456  12684.6  111.594
 23.8876  12706.5  112.026
 23.9296  12615  112.128
 23.9716  12643.2  111.452
 24.0136  12639.8  112.349
 24.0556  12491.4  111.398
 24.0976  12405.1  110.828
 24.1396  12308.7  113.031
 24.1816  12526.4  112.42
 24.2236  12467.7  111.766
 24.2656  12359  110.74
 24.3076  12096.5  109.833
 24.3496  12195  110.16
 24.3916  12345.2  110.889
 24.4336  12342.6  111.073
 24.4756  12302.4  110.783
 24.5176  12061.6  109.302
 24.5596  12023.2  109.265
 24.6016  11998.4  109.459
 24.6436  12145.7  109.617
 24.6856  11991.5  108.664
 24.7276  11917.6  108.664
 24.7696  11916.7  108.761
 24.8116  11866.8  108.715
 24.8536  11658.4  107.761
 24.8956  11804.4  108.166
 24.9376  11682.3  107.532
 24.9796  11651.2  107.75
 25.0216  11478.4  107.061
 25.0636  11633.2  107.437
 25.1056  11527.9  107.656
 25.1476  11433  108.872
 25.1896  11489.8  107.631
 25.2316  11378.4  106.396
 25.2736  11473  106.468
 25.3156  11435  106.37
 25.3576  11368.8  106.498
 25.3996  11361.7  106.451
 25.4416  11320.4  106.229
 25.4836  11121  105.804
 25.5256  11201.6  105.554
 25.5676  11294  105.717
 25.6096  11101.8  105.397
 25.6516  11287  105.765
 25.6936  11224  105.78
 25.7356  11274.7  106.164
 25.7776  11150.4  105.172
 25.8196  11031.3  104.85
 25.8616  11013.3  104.704
 25.9036  11083.9  104.471
 25.9456  11016.8  104.764
 25.9876  10957.4  104.536
 26.0296  11293.9  105.645
 26.0716  11113.3  105.22
 26.1136  11048.5  104.854
 26.1556  11165.7  104.795
 26.1976  11064.2  105.248
 26.2396  11010.4  104.146
 26.2816  10945.4  104.437
 26.3236  11120.2  105.425
 26.3656  11188  105.461
 26.4076  10997.3  104.779
 26.4496  11236.4  105.486
 26.4916  11175.9  105.101
 26.5336  11543.8  107.166
 26.5756  11768.9  108.085
 26.6176  11179.6  105.377
 26.6596  10976.8  104.714
 26.7016  10907.6  104.146
 26.7436  11009.7  104.757
 26.7856  10811.4  103.794
 26.8276  10815.3  103.79
 26.8696  10791.4  103.539
 26.9116  10745.3  103.258
 26.9536  10682.4  103.005
 26.9956  10687.8  103.072
 27.0376  10691.6  103.301
 27.0796  10637.6  102.767
 27.1216  10610.3  102.689
 27.1636  10537.7  102.518
 27.2056  10544  102.433
 27.2476  10664  103
 27.2896  10470.3  102.184
 27.3316  10600.1  102.53
 27.3736  10490  102.271
 27.4156  10529.1  102.275
 27.4576  10514.5  102.447
 27.4996  10439.9  101.678
 27.5416  10481.1  102.193
 27.5836  10404.9  101.662
 27.6256  10442  102.023
 27.6676  10357.9  101.611
 27.7096  10396.6  101.672
 27.7516  10333  101.515
 27.7936  10716.7  103.51
 27.8356  10558.9  102.359
 27.8776  10674.2  102.984
 27.9196  10270.6  100.884
 27.9616  10389.5  101.666
 28.0036  10190.1  100.64
 28.0456  10174.8  100.717
 28.0876  10218.7  101.009
 28.1296  10214.1  100.821
 28.1716  10269.3  101.11
 28.2136  10304.2  101.25
 28.2556  10259  101.137
 28.2976  10116.5  100.433
 28.3396  10026.5  99.7563
 28.3816  10104.6  100.146
 28.4236  10119.1  100.371
 28.4656  10059  100.11
 28.5076  10108  99.9829
 28.5496  10107  100.242
 28.5916  10135.7  100.196
 28.6336  10050.6  100.112
 28.6756  10014  99.1155
 28.7176  10033.4  99.7851
 28.7596  9949.39  99.259
 28.8016  10143.3  100.264
 28.8436  10015.8  99.8697
 28.8856  9962.2  99.4531
 28.9276  9860.07  99.1865
 28.9696  9847.52  98.7817
 29.0116  9798.98  98.7253
 29.0536  9790.1  98.8883
 29.0956  9970.06  99.4829
 29.1376  9710.08  98.1593
 29.1796  9961.74  99.466
 29.2216  9735.38  98.174
 29.2636  9903.15  99.0834
 29.3056  9959.25  99.1569
 29.3476  9832.63  99.0414
 29.3896  9829.65  99.1562
 29.4316  9855.48  98.619
 29.4736  9540.32  97.0978
 29.5156  9692.11  97.7802
 29.5576  9661.43  98.3636
 29.5996  9702.13  97.8329
 29.6416  9628.63  97.5743
 29.6836  9636.07  97.5459
 29.7256  9617.71  98.0183
 29.7676  9660.17  97.8968
 29.8096  9520.02  97.1237
 29.8516  9452.05  97.1137
 29.8936  9408.16  96.9751
 29.9356  9606.72  97.745
 29.9776  9538.05  97.5461
 30.0196  9516.27  96.8233
 30.0616  9419.42  96.7064
 30.1036  9597.77  97.4371
 30.1456  9473.62  97.0462
 30.1876  9505.46  97.1805
 30.2296  9301.5  96.0888
 30.2716  9576.45  97.1304
 30.3136  9489.46  97.546
 30.3556  9668.09  98.4406
 30.3976  9513.89  99.1612
 30.4396  9997.07  98.9335
 30.4816  9737.16  97.2471
 30.5236  9756.96  97.3341
 30.5656  9627.34  97.3628
 30.6076  9721.27  97.2307
 30.6496  9695.19  97.5201
 30.6916  9517.8  96.7268
 30.7336  9511.6  96.8404
 30.7756  9737.65  98.0648
 30.8176  9812.85  98.3576
 30.8596  9658.06  97.3337
 30.9016  9560.96  97.1985
 30.9436  9654.28  97.4129
 30.9856  9690.42  97.7122
 31.0276  9559.78  96.6845
 31.0696  9362.5  96.2369
 31.1116  9566.98  97.2618
 31.1536  9534.77  96.9641
 31.1956  9542.77  97.1106
 31.2376  9365.71  96.2267
 31.2796  9583.97  96.8659
 31.3216  9460.38  96.1639
 31.3636  9432.72  96.7274
 31.4056  9410.43  97.931
 31.4476  9564.9  96.592
 31.4896  9572.62  97.1375
 31.5316  9494.05  96.1454
 31.5736  9571.98  96.3662
 31.6156  9541.61  96.2147
 31.6576  9548.46  96.331
 31.6996  9607.49  96.2926
 31.7416  9421.56  96.4509
 31.7836  9554.1  96.1128
 31.8256  9448.34  95.8515
 31.8676  9370.37  95.4509
 31.9096  9425.48  96.0998
 31.9516  9354.7  95.9073
 31.9936  9195.72  94.9167
 32.0356  9388.63  95.9426
 32.0776  9409.66  95.953
 32.1196  9544.88  96.7488
 32.1616  9507.91  96.0046
 32.2036  9412.25  96.0298
 32.2456  9393.89  96.329
 32.2876  9294.21  95.3092
 32.3296  9141.62  94.4732
 32.3716  9060.2  94.1914
 32.4136  9141.89  94.8223
 32.4556  9177.52  94.382
 32.4976  9155.96  94.1885
 32.5396  9150.93  94.2217
 32.5816  9232.77  94.7577
 32.6236  9169.31  94.509
 32.6656  9340.28  95.9365
 32.7076  9053.58  94.1069
 32.7496  9042.54  93.7229
 32.7916  9142.16  94.1982
 32.8336  9072.58  93.9304
 32.8756  9222.78  94.4176
 32.9176  9086.64  94.2156
 32.9596  9046.63  94.0759
 33.0016  9218.21  94.7298
 33.0436  9123.91  94.4351
 33.0856  8985.91  93.8032
 33.1276  8953.61  93.3631
 33.1696  9048.27  93.6948
 33.2116  9047.47  93.9186
 33.2536  9178.15  94.573
 33.2956  9143.1  94.4945
 33.3376  9084.18  93.919
 33.3796  9136.55  94.4146
 33.4216  8972.06  93.1541
 33.4636  8985.31  93.3757
 33.5056  9021.04  93.8045
 33.5476  9025.29  93.7931
 33.5896  9106.01  94.0159
 33.6316  9035.2  93.9507
 33.6736  8835.4  93.1634
 33.7156  8862.36  93.3352
 33.7576  9009.79  93.7406
 33.7996  9012.31  93.5244
 33.8416  8890.41  93.0737
 33.8836  8934.99  93.0862
 33.9256  9039.18  93.6727
 33.9676  8977.95  93.2574
 34.0096  8837.72  92.8311
 34.0516  8821.63  92.3813
 34.0936  8840.29  92.7611
 34.1356  8919.5  92.9093
 34.1776  8691.36  91.7228
 34.2196  8750.23  92.2117
 34.2616  8665.52  91.9035
 34.3036  8824.61  92.9803
 34.3456  8776.87  92.4866
 34.3876  8921.14  93.2102
 34.4296  8788.23  92.2011
 34.4716  8811.25  92.4772
 34.5136  8793.01  92.5708
 34.5556  8691.47  92.3086
 34.5976  8753.53  92.4421
 34.6396  8663.49  91.6733
 34.6816  8809.47  92.5432
 34.7236  8755.59  92.0441
 34.7656  8662.27  91.7647
 34.8076  8572.98  91.6175
 34.8496  8607.67  91.6549
 34.8916  8722.28  92.1211
 34.9336  8740.57  92.2049
 34.9756  8680.61  91.8023
 35.0176  8716.12  92.5233
 35.0596  8773.13  92.6258
 35.1016  8750.86  92.2773
 35.1436  8951.11  93.0155
 35.1856  8668.43  91.6603
 35.2276  8658.26  91.7851
 35.2696  8743.89  92.4119
 35.3116  8584.31  91.6805
 35.3536  8549.98  91.1953
 35.3956  8559.42  90.9628
 35.4376  8696.36  92.2558
 35.4796  8620.82  91.8966
 35.5216  8570.48  91.5901
 35.5636  8348.21  91.1353
 35.6056  8493.88  90.9503
 35.6476  8657.21  91.7119
 35.6896  8565.9  91.3163
 35.7316  8455.77  90.708
 35.7736  8551.86  91.414
 35.8156  8584.18  91.5764
 35.8576  8579.92  91.817
 35.8996  8661.8  92.2195
 35.9416  8527.87  90.9916
 35.9836  8571.66  91.5826
 36.0256  8841.02  93.0117
 36.0676  8575.61  91.3702
 36.1096  8669.15  92.0166
 36.1516  8781.11  92.5001
 36.1936  8532.62  91.026
 36.2356  8539.59  91.719
 36.2776  8455.09  90.7466
 36.3196  8600.24  91.1759
 36.3616  8548.54  91.0319
 36.4036  8427.24  90.4555
 36.4456  8537.36  91.2433
 36.4876  8318.83  90.0176
 36.5296  8321.35  90.075
 36.5716  8280.4  90.6205
 36.6136  8351.35  89.8078
 36.6556  8386.18  90.1993
 36.6976  8210.6  89.7409
 36.7396  8274.54  89.8158
 36.7816  8285  90.2528
 36.8236  8145.66  89.4049
 36.8656  8141.5  89.4548
 36.9076  8164.95  89.4626
 36.9496  8121.91  89.2265
 36.9916  8053.98  88.4716
 37.0336  8228.53  89.7525
 37.0756  8208.01  89.4291
 37.1176  8004.89  88.582
 37.1596  8102.81  89.1272
 37.2016  8099.07  89.3297
 37.2436  8201.51  89.2086
 37.2856  8085.07  88.8211
 37.3276  8118.04  88.367
 37.3696  8213.16  89.7661
 37.4116  8191.68  89.5631
 37.4536  8010.85  88.4256
 37.4956  8065.54  88.7824
 37.5376  8276.56  91.5123
 37.5796  8268.67  91.4043
 37.6216  8066.61  88.5466
 37.6636  8359.37  90.0174
 37.7056  8454.72  90.7306
 37.7476  8380.25  89.8591
 37.7896  8111.15  88.9358
 37.8316  8102.47  89.0254
 37.8736  8194.99  89.0743
 37.9156  8214.3  89.1548
 37.9576  8266.99  89.3605
 37.9996  8129.1  88.3196
 38.0416  8128.45  89.1264
 38.0836  8381.78  90.4111
 38.1256  8237.61  89.6018
 38.1676  7982.92  88.3199
 38.2096  8289.83  89.612
 38.2516  8249.87  89.6286
 38.2936  8256.05  89.4374
 38.3356  8158.06  88.8561
 38.3776  8114.74  88.8594
 38.4196  8072.19  88.4916
 38.4616  8255.39  89.734
 38.5036  8211.19  89.3321
 38.5456  8004.57  89.0293
 38.5876  8164.95  89.9306
 38.6296  8100.16  88.5288
 38.6716  8120.77  88.4505
 38.7136  8044.84  87.981
 38.7556  8065.71  88.6072
 38.7976  8126.76  88.8593
 38.8396  8111.49  89.2463
 38.8816  8016.17  88.5135
 38.9236  7993.82  88.1906
 38.9656  8122.74  88.802
 39.0076  8148.41  88.332
 39.0496  8180.03  89.0699
 39.0916  8211.72  88.8874
 39.1336  8141.96  88.9227
 39.1756  8080.58  88.6533
 39.2176  8100.61  89.3049
 39.2596  7986.71  88.5953
 39.3016  8066.18  88.6154
 39.3436  8071.06  89.0574
 39.3856  8158.01  88.973
 39.4276  8174.23  89.5714
 39.4696  8166.77  89.1524
 39.5116  8129.63  89.4577
 39.5536  8093.4  89.6919
 39.5956  8112.89  88.905
 39.6376  8058.63  88.6204
 39.6796  8062.7  88.38
 39.7216  8107.34  88.7288
 39.7636  7990.99  88.6464
 39.8056  8080.46  88.9259
 39.8476  7991.28  88.6887
 39.8896  8028.39  88.516
 39.9316  7971.9  88.4588
 39.9736  8158.64  89.0595
 40.0156  8101.71  88.5788
 40.0576  7951.48  88.1017
 40.0996  8108.45  88.1465
 40.1416  8113.48  88.9769
 40.1836  8201.54  89.3473
 40.2256  7983.27  88.1806
 40.2676  8078.93  88.8192
 40.3096  8142.66  89.1
 40.3516  8070.59  88.8071
 40.3936  8077.05  88.3963
 40.4356  8001.25  88.1917
 40.4776  8156.56  89.4416
 40.5196  8130.78  89.4435
 40.5616  8198.03  89.4398
 40.6036  7942.03  88.2919
 40.6456  8157.98  89.0974
 40.6876  8130.88  88.9306
 40.7296  8115.66  88.9901
 40.7716  8099.14  89.0115
 40.8136  8003.99  88.436
 40.8556  8181.1  89.5389
 40.8976  8120.41  89.1322
 40.9396  8069.31  89.1897
 40.9816  8139.41  88.8744
 41.0236  8032.3  88.0758
 41.0656  8161.13  89.3054
 41.1076  8116.34  88.8421
 41.1496  8171.66  89.0408
 41.1916  7983.33  88.3304
 41.2336  8120.09  89.0744
 41.2756  8091.87  88.5253
 41.3176  8065.96  88.9921
 41.3596  8108.51  88.9677
 41.4016  7990.31  88.583
 41.4436  8124.96  89.1083
 41.4856  8064.12  88.947
 41.5276  8067.27  88.9736
 41.5696  8043.74  88.4708
 41.6116  8164.6  89.5212
 41.6536  8022.92  88.6086
 41.6956  8062.56  88.8801
 41.7376  7973.14  88.4165
 41.7796  8061.38  88.7961
 41.8216  8223.05  89.9026
 41.8636  7977.46  88.506
 41.9056  8012.99  88.4892
 41.9476  8067.78  89.0269
 41.9896  8218.37  89.5054
 42.0316  8091.42  88.9065
 42.0736  8162.08  89.3836
 42.1156  8087.79  88.8163
 42.1576  8016.05  88.5426
 42.1996  8256.48  89.9851
 42.2416  8102.37  88.7231
 42.2836  7940.33  87.9528
 42.3256  8114.69  89.025
 42.3676  8137.94  88.9413
 42.4096  8048.68  88.4304
 42.4516  8125.38  88.9184
 42.4936  8019.26  88.4163
 42.5356  7899.29  87.9055
 42.5776  7943.35  88.0836
 42.6196  8003.29  88.4678
 42.6616  7919.77  88.1788
 42.7036  7987.27  87.9304
 42.7456  8112.1  88.9681
 42.7876  7932.05  88.0592
 42.8296  8034.81  88.4782
 42.8716  7878.46  87.7742
 42.9136  7958.53  88.0043
 42.9556  8006.94  88.4116
 42.9976  8024.96  88.4684
 43.0396  7965.44  87.8716
 43.0816  7950.51  88.1789
 43.1236  7965.74  88.3143
 43.1656  8021.39  88.4467
 43.2076  7974.72  88.2981
 43.2496  7898.73  87.6974
 43.2916  7895.15  88.0361
 43.3336  7945.65  88.1537
 43.3756  7902.55  87.6596
 43.4176  7893.64  87.7033
 43.4596  7924.93  87.7332
 43.5016  7979.66  88.4343
 43.5436  7892.36  87.8616
 43.5856  7793.18  87.3427
 43.6276  7836.17  87.4547
 43.6696  7837.12  87.7346
 43.7116  8080.04  88.561
 43.7536  7939.78  88.2878
 43.7956  7876.71  89.1706
 43.8376  7657.45  86.4555
 43.8796  7683.07  86.6796
 43.9216  7669.98  86.5282
 43.9636  7809.41  87.4259
 44.0056  7718.92  87.1455
 44.0476  7686.61  86.5928
 44.0896  7520.19  85.9872
 44.1316  7777.47  86.9664
 44.1736  7545.92  85.7778
 44.2156  7718.29  86.6086
 44.2576  7747  87.1006
 44.2996  7635.76  86.4389
 44.3416  7703.99  86.5915
 44.3836  7568.73  86.1569
 44.4256  7715.16  86.6263
 44.4676  7584.63  86.0457
 44.5096  7652.6  86.5725
 44.5516  7555.7  85.9928
 44.5936  7655.92  86.5102
 44.6356  7711.81  86.5612
 44.6776  7688.23  86.7464
 44.7196  7613.21  86.6399
 44.7616  7809.86  89.0804
 44.8036  7673.2  86.7162
 44.8456  7803.64  87.6528
 44.8876  7846.93  87.7364
 44.9296  7873.96  87.3243
 44.9716  7787.64  87.2646
 45.0136  7733.38  86.9135
 45.0556  7892.18  87.7711
 45.0976  7689.23  86.8028
 45.1396  7802.23  87.1911
 45.1816  7705.24  86.5999
 45.2236  7624.72  86.0365
 45.2656  7626.21  86.5539
 45.3076  7742.87  86.9698
 45.3496  7666.13  86.8746
 45.3916  7705.8  87.3619
 45.4336  7782.09  87.6245
 45.4756  7717.78  87.1263
 45.5176  7702.21  86.6349
 45.5596  7783.98  87.2215
 45.6016  7695.36  87.1532
 45.6436  7670.59  86.1836
 45.6856  7715.73  87.1082
 45.7276  7471  87.0349
 45.7696  7643.96  87.7053
 45.8116  7678.55  87.3179
 45.8536  7599.17  86.7518
 45.8956  7805.28  87.2629
 45.9376  7711.76  86.194
 45.9796  7765.91  87.1935
 46.0216  7735.23  87.3656
 46.0636  7639.98  85.9468
 46.1056  7699.8  86.2883
 46.1476  7719.7  87.005
 46.1896  7755.97  87.3562
 46.2316  7686.04  86.8281
 46.2736  7618.64  86.8235
 46.3156  7669.18  86.6896
 46.3576  7696.11  87.0458
 46.3996  7616.73  86.7635
 46.4416  7752.64  87.0995
 46.4836  7476.38  85.8848
 46.5256  7573.61  86.3799
 46.5676  7600.24  86.6524
 46.6096  7633.15  86.7755
 46.6516  7634.08  85.8033
 46.6936  7699.67  86.6769
 46.7356  7725.74  86.9185
 46.7776  7646.04  87.3512
 46.8196  7565.57  86.4726
 46.8616  7446.49  85.7541
 46.9036  7505.54  85.7415
 46.9456  7518.43  85.4554
 46.9876  7636.83  86.1993
 47.0296  7419.44  85.6678
 47.0716  7539.21  86.168
 47.1136  7572.93  86.0167
 47.1556  7707.83  86.6584
 47.1976  7588.64  86.0596
 47.2396  7495.5  85.9417
 47.2816  7458.05  85.4264
 47.3236  7538.16  86.2546
 47.3656  7542.4  86.2145
 47.4076  7544.06  86.0308
 47.4496  7408.54  85.3467
 47.4916  7432.13  85.6711
 47.5336  7610.49  86.5069
 47.5756  7697.73  87.1185
 47.6176  7513.37  85.9699
 47.6596  7481.53  85.4921
 47.7016  7604.19  85.9944
 47.7436  7607.48  86.3693
 47.7856  7550.18  86.0571
 47.8276  7556.54  86.1502
 47.8696  7570.34  86.3138
 47.9116  7654.11  86.5041
 47.9536  7533.11  85.7628
 47.9956  7507.11  86.3313
 48.0376  7460.24  85.829
 48.0796  7672.52  87.1742
 48.1216  7502.35  86.0222
 48.1636  7591.61  86.0844
 48.2056  7608.03  86.459
 48.2476  7621.14  86.8408
 48.2896  7617.81  86.7361
 48.3316  7555.96  86.3306
 48.3736  7500.47  86.0351
 48.4156  7472.51  85.7276
 48.4576  7577.41  86.6208
 48.4996  7589.05  86.1243
 48.5416  7633.08  86.7075
 48.5836  7528.26  85.7782
 48.6256  7505.22  85.8539
 48.6676  7592.39  86.8973
 48.7096  7510.82  85.6706
 48.7516  7440.89  85.4252
 48.7936  7384.19  85.1677
 48.8356  7444.74  85.5641
 48.8776  7466.18  86.2736
 48.9196  7676.2  86.8171
 48.9616  7506.45  86.2441
 49.0036  7479.25  86.4396
 49.0456  7389.73  85.9081
 49.0876  7528  86.2296
 49.1296  7460.73  86.0092
 49.1716  7395.43  85.514
 49.2136  7628.52  86.7538
 49.2556  7551.18  86.3625
 49.2976  7447.36  85.8251
 49.3396  7436.47  85.8249
 49.3816  7523.83  85.7398
 49.4236  7501.11  86.0474
 49.4656  7400.05  85.4894
 49.5076  7436.95  85.437
 49.5496  7398.32  85.2866
 49.5916  7577.67  86.2239
 49.6336  7474.07  85.844
 49.6756  7552.56  86.5276
 49.7176  7395.55  85.571
 49.7596  7522.97  86.0616
 49.8016  7515.71  85.9397
 49.8436  7421.09  85.706
 49.8856  7378.38  85.459
 49.9276  7400.85  85.6931
 49.9696  7427.88  85.8208
 50.0116  7410.47  85.8703
 50.0536  7449.91  86.0423
 50.0956  7525.41  86.5445
 50.1376  7454.49  85.825
 50.1796  7318.65  85.3209
 50.2216  7382.44  85.6735
 50.2636  7324.82  84.9551
 50.3056  7286.26  84.9105
 50.3476  7433.39  85.7837
 50.3896  7422.26  85.6952
 50.4316  7363.5  85.1814
 50.4736  7324.91  85.1819
 50.5156  7368.76  85.4404
 50.5576  7391.78  85.315
 50.5996  7310.46  85.1307
 50.6416  7332.73  85.1835
 50.6836  7406.77  85.6763
 50.7256  7543.52  86.3791
 50.7676  7407.83  85.9247
 50.8096  7452.8  85.709
 50.8516  7378.58  85.7163
 50.8936  7310.41  85.107
 50.9356  7415.64  85.8197
 50.9776  7383.19  85.8007
 51.0196  7129.33  84.441
 51.0616  7283.18  84.6537
 51.1036  7189.39  84.4767
 51.1456  7381.33  85.4993
 51.1876  7174.6  83.6203
 51.2296  7246.55  84.6921
 51.2716  7136.07  83.753
 51.3136  7096.77  83.9871
 51.3556  7107.76  83.6636
 51.3976  7129.22  83.9446
 51.4396  6924.31  83.0444
 51.4816  7082.11  83.8354
 51.5236  7223.95  84.7554
 51.5656  7138.34  83.84
 51.6076  7269.51  84.6914
 51.6496  7135.33  84.1118
 51.6916  7095.9  84.2355
 51.7336  7192.03  84.9063
 51.7756  7165.79  84.4299
 51.8176  7174.17  84.5981
 51.8596  7129.91  84.3491
 51.9016  7258.53  84.7021
 51.9436  7206.7  85.9113
 51.9856  7213.51  86.3697
 52.0276  7271.91  85.1738
 52.0696  7357.21  85.7304
 52.1116  7117.31  84.4667
 52.1536  7289.27  85.3432
 52.1956  7212.53  84.3589
 52.2376  7333.34  85.227
 52.2796  7241.87  84.5101
 52.3216  7084.31  84.291
 52.3636  7214.39  84.5963
 52.4056  7104.17  83.823
 52.4476  7069.46  83.9886
 52.4896  7011.23  83.7002
 52.5316  7135.42  84.4693
 52.5736  7005.14  83.4329
 52.6156  7216.16  85.069
 52.6576  7096.21  83.8026
 52.6996  7002.29  84.2431
 52.7416  6975.39  83.9377
 52.7836  7088.14  84.4942
 52.8256  7191.94  84.2941
 52.8676  6937.48  83.3742
 52.9096  7178.9  84.874
 52.9516  7075.37  84.673
 52.9936  7095.18  85.1741
 53.0356  7260.53  85.1111
 53.0776  7096.11  84.4205
 53.1196  7150.32  84.8692
 53.1616  7215.77  85.3101
 53.2036  6967.94  83.7928
 53.2456  7055.81  84.4276
 53.2876  7073.62  84.2165
 53.3296  7068.71  84.5231
 53.3716  7227.38  85.1976
 53.4136  7162.79  84.979
 53.4556  7082.67  84.531
 53.4976  6968.47  83.6753
 53.5396  6975.77  84.1362
 53.5816  6961.05  83.6775
 53.6236  7036.28  84.4891
 53.6656  6999.14  83.8522
 53.7076  7075.03  84.2593
 53.7496  7137.22  84.7749
 53.7916  6997.16  84.0699
 53.8336  7071.77  84.4076
 53.8756  6864.88  83.7229
 53.9176  7035.3  84.0817
 53.9596  6837.77  83.6974
 54.0016  6783.41  82.6455
 54.0436  6760.15  82.7478
 54.0856  6900.87  83.0182
 54.1276  6826.6  82.7776
 54.1696  6797.79  82.7658
 54.2116  6930.13  83.3006
 54.2536  6849.34  82.6404
 54.2956  6858.74  82.7384
 54.3376  6689.44  82.2051
 54.3796  6766.49  82.5769
 54.4216  6871.97  83.2772
 54.4636  6666.54  81.9799
 54.5056  6787.44  82.5116
 54.5476  6746.85  82.6217
 54.5896  6784.24  82.6776
 54.6316  6875.2  83.0875
 54.6736  6781.74  82.5927
 54.7156  6763.91  82.5194
 54.7576  6635  81.7024
 54.7996  6799.86  82.8531
 54.8416  6762.58  82.6993
 54.8836  6815.84  83.1145
 54.9256  6716.84  82.2741
 54.9676  6736.36  82.2477
 55.0096  6708.86  82.1275
 55.0516  6563.03  81.4557
 55.0936  6618.67  81.4542
 55.1356  6667.61  81.808
 55.1776  6787.33  82.77
 55.2196  6619.21  81.5494
 55.2616  6750.16  82.548
 55.3036  6579.31  81.6911
 55.3456  6585.62  81.8875
 55.3876  6628.83  81.8557
 55.4296  6526.87  81.2302
 55.4716  6563.15  81.4744
 55.5136  6637.82  81.7019
 55.5556  6750.49  82.443
 55.5976  6541  81.2421
 55.6396  6723.65  82.3012
 55.6816  6551.08  81.0842
 55.7236  6516.76  80.9523
 55.7656  6653.53  81.524
 55.8076  6507.35  80.6329
 55.8496  6513.99  80.9859
 55.8916  6556.76  81.4504
 55.9336  6685.92  82.0798
 55.9756  6490.24  80.7548
 56.0176  6531.95  81.1514
 56.0596  6506.55  80.9879
 56.1016  6472.59  80.7972
 56.1436  6526.5  81.3957
 56.1856  6449.17  80.6578
 56.2276  6623.9  81.7844
 56.2696  6535.31  81.2223
 56.3116  6555.51  81.7071
 56.3536  6486.01  80.9648
 56.3956  6519.24  81.1516
 56.4376  6548.93  81.3717
 56.4796  6466.23  80.6775
 56.5216  6514.59  81.3542
 56.5636  6471.79  80.6666
 56.6056  6564.58  81.4688
 56.6476  6485.57  80.5805
 56.6896  6612.04  81.841
 56.7316  6389.56  80.3836
 56.7736  6547.42  81.3422
 56.8156  6408.96  80.5067
 56.8576  6326.33  79.9306
 56.8996  6418.42  80.4119
 56.9416  6421.05  80.7434
 56.9836  6514.37  80.8457
 57.0256  6460.78  80.8174
 57.0676  6487.13  81.1045
 57.1096  6512.37  81.0625
 57.1516  6360.35  80.1701
 57.1936  6423  80.299
 57.2356  6341.75  80.1243
 57.2776  6386.08  80.3715
 57.3196  6450.4  81.1164
 57.3616  6387.87  80.2156
 57.4036  6455.19  80.7094
 57.4456  6475.29  80.7978
 57.4876  6446.12  80.4914
 57.5296  6359.64  80.2762
 57.5716  6292.52  79.8433
 57.6136  6245.53  79.3907
 57.6556  6370.63  80.313
 57.6976  6343.93  79.9704
 57.7396  6287.9  79.9623
 57.7816  6174.69  79.6189
 57.8236  6216.7  79.6697
 57.8656  6335.76  80.0873
 57.9076  6348.29  80.187
 57.9496  6275.77  80.0972
 57.9916  6377.06  80.2393
 58.0336  6263.52  79.808
 58.0756  6404.37  80.3325
 58.1176  6362.85  80.0614
 58.1596  6251.11  79.9506
 58.2016  6108.3  78.2678
 58.2436  6113.98  78.7099
 58.2856  6121.09  78.684
 58.3276  6061.99  78.6694
 58.3696  6137.35  78.8993
 58.4116  6129.03  78.7113
 58.4536  6044.89  78.0587
 58.4956  6023.1  78.1015
 58.5376  6283.02  79.3324
 58.5796  6085.53  78.5
 58.6216  6132.21  78.6184
 58.6636  6145.26  78.9167
 58.7056  6051.71  78.168
 58.7476  6026.39  78.4455
 58.7896  6031.15  78.1239
 58.8316  6090.29  78.4966
 58.8736  6099.86  78.5746
 58.9156  6139.94  78.8606
 58.9576  6123.14  79.0936
 58.9996  6194.28  78.7862
 59.0416  6127.35  78.7306
 59.0836  6094.65  78.4368
 59.1256  6054.68  78.8788
 59.1676  6077.18  79.337
 59.2096  6127.81  78.9799
 59.2516  6069.58  78.1836
 59.2936  6103.59  78.7323
 59.3356  6117.76  78.7005
 59.3776  6116.99  78.8657
 59.4196  6002.58  78.0613
 59.4616  6043.08  78.1836
 59.5036  5887.71  77.2066
 59.5456  6177.95  78.7768
 59.5876  6076.33  78.318
 59.6296  5931.92  77.4504
 59.6716  5950.81  77.6311
 59.7136  6004.01  77.9657
 59.7556  6039.27  78.3308
 59.7976  6071.3  78.2796
 59.8396  6107.68  78.4074
 59.8816  6128.56  79.0904
 59.9236  6124.67  78.7069
 59.9656  6018.15  78.2789
 60.0076  6076.05  78.0106
 60.0496  6017.96  78.1398
 60.0916  6194.42  78.6878
 60.1336  5824.86  77.3922
 60.1756  6063.71  80.15
 60.1996  0.0000000E+00  0.0000000E+00