File: docs/examples/opeando_xrd/IS17_D/Data/IS17_D/17_Db_f00053.xye
# /beamlines/bl04/projects/cycle2025-II/20250340211-lsimonelli/DATA/IS17_D/17_Db_f00053.xye : mythproc.py merge -s 0.006 -l 0.5 -f /beamlines/bl04/inhouse/ff/FlatField/ff_20Nov2024rod8mm60s_17keV.raw -b True -c true -o xye /beamlines/bl04/projects/cycle2025-II/20250340211-lsimonelli/DATA/IS17_D/17_Db_00053.dat
# IsMon = [6766543, 6770001, 6768147]  IsPos = [-1.4999, -2.4885, -3.4988]
# Wave = 0.4962  CalPath /beamlines/bl04/projects/cycle2025-II/20250340211-lsimonelli/DATA/Align/Si_Pos1_25keV_f00001.cal
# Date = 2025-09-24_08:27:11 Dt = 4.8000  Bin = 0.0060  <imon> = 6768230 +/- 1413 (Min/Max) 6766543 / 6770001
# icurr 250.8289  mocoIn 1.7115E-05  mocoOut 0.8026  i15 7.08806e+06  imon 6.76823e+06  i7 5.0000  iEMpd_timer 4.8000  iEMpd_1 3.5247E-08  iEMpd_2 7.8703E-08  iEMpd_3 1.6800E-08  iEMpd_4 4.7826E-08  iEMhp_timer 4.8000  iEMhp_1 4.9005E-06  iEMhp_2 -2.5165E-08  iEMhp_3 -2.4969E-08  iEMhp_4 -2.1673E-08
#      9776
 1.5856  45082.2  218.052
 1.6276  50979.5  227.897
 1.6696  57367  240.9
 1.7116  63993.1  254.93
 1.7536  72198.6  269.628
 1.7956  76379.9  278.019
 1.8376  73596.8  273.339
 1.8796  63101.2  251.233
 1.9216  52315.6  229.672
 1.9636  45049.6  212.254
 2.0056  41330.5  202.515
 2.0476  38443.3  197.455
 2.0896  37084.4  192.797
 2.1316  36154.6  189.449
 2.1736  34250.4  185.855
 2.2156  34931.8  186.189
 2.2576  33787.5  183.77
 2.2996  32355.8  180.494
 2.3416  32863.2  180.452
 2.3836  32139.1  178.563
 2.4256  30881.7  175.606
 2.4676  31072.9  175.899
 2.5096  30261.3  173.643
 2.5516  29225.7  174.544
 2.5936  29003.8  170.395
 2.6356  28367.9  169.217
 2.6776  28613.1  168.829
 2.7196  28107.6  167.827
 2.7616  28102.2  167.601
 2.8036  27671.6  166.476
 2.8456  27532.6  166.713
 2.8876  27162.3  165.416
 2.9296  26639.3  163.981
 2.9716  26307.8  162.435
 3.0136  26150.2  162.012
 3.0556  26217.2  162.624
 3.0976  26234.4  161.567
 3.1396  25741.7  160.764
 3.1816  25385.2  159.604
 3.2236  25303.3  159.328
 3.2656  25198.9  158.026
 3.3076  24992.3  158.874
 3.3496  25285.9  158.965
 3.3916  25766.9  160.029
 3.4336  25806.9  160.75
 3.4756  26464.6  162.727
 3.5176  27154.6  164.599
 3.5596  26706.3  165.721
 3.6016  26903.1  163.902
 3.6436  25806  161.644
 3.6856  25477.4  158.895
 3.7276  24477.6  156.828
 3.7696  24312.8  156.505
 3.8116  23923.5  155.135
 3.8536  24183.5  155.912
 3.8956  24121.6  155.523
 3.9376  23854.4  154.931
 3.9796  23759.8  154.108
 4.0216  23804.3  153.276
 4.0636  23864.9  154.95
 4.1056  23818  154.452
 4.1476  24228.4  156.1
 4.1896  24146.8  155.691
 4.2316  24296.1  156.003
 4.2736  24655  156.941
 4.3156  24847.5  157.789
 4.3576  25692.9  160.355
 4.3996  25842.3  161.084
 4.4416  26430.3  162.497
 4.4836  26776.6  163.716
 4.5256  27272.6  165.847
 4.5676  27397.7  166.477
 4.6096  27803.6  166.349
 4.6516  28146.3  167.066
 4.6936  28198.8  168.061
 4.7356  28431.6  168.569
 4.7776  28411.2  168.335
 4.8196  27943.5  167.604
 4.8616  27512.3  165.922
 4.9036  27331.4  164.974
 4.9456  26961.4  164.506
 4.9876  26606.7  163.327
 5.0296  26638.6  163.258
 5.0716  26761.1  164.241
 5.1136  26649.6  163.773
 5.1556  27020.9  164.361
 5.1976  27491.3  165.783
 5.2396  27714.5  166.129
 5.2816  27701  166.571
 5.3236  27636.6  166.077
 5.3656  27122.4  165.461
 5.4076  26948.9  165.071
 5.4496  26862.3  164.296
 5.4916  27029.2  164.563
 5.5336  26987.1  164.439
 5.5756  27071.5  164.718
 5.6176  27079.1  164.177
 5.6596  27318.4  165.888
 5.7016  27337.9  165.202
 5.7436  27558  166.151
 5.7856  27322.2  165.506
 5.8276  27512.5  165.793
 5.8696  27666.8  166.431
 5.9116  27689.7  167.103
 5.9536  28178  168.309
 5.9956  28244.8  167.895
 6.0376  28354.3  168.843
 6.0796  28649.9  169.551
 6.1216  28493.3  169.286
 6.1636  28673.6  168.878
 6.2056  28572.3  169.252
 6.2476  29199.6  170.975
 6.2896  29141.9  170.475
 6.3316  29259.3  170.998
 6.3736  29128.6  170.508
 6.4156  29510.5  171.509
 6.4576  29394.7  170.788
 6.4996  29608.6  171.886
 6.5416  29669.3  172.197
 6.5836  29559.9  172.119
 6.6256  29963.7  172.846
 6.6676  30406.5  173.681
 6.7096  30272.6  174.171
 6.7516  30465.8  174.378
 6.7936  30778.3  174.675
 6.8356  30758.6  174.71
 6.8776  30907.3  175.929
 6.9196  31187.5  177.128
 6.9616  31713.5  178.029
 7.0036  32184.6  179.028
 7.0456  32123.8  178.15
 7.0876  31737.6  178.763
 7.1296  32057.3  178.788
 7.1716  31969.7  178.087
 7.2136  31542.9  176.675
 7.2556  31994.6  178.09
 7.2976  31886.2  178.277
 7.3396  31914.2  178.576
 7.3816  31799.1  178.482
 7.4236  32062.1  178.509
 7.4656  32169.2  178.26
 7.5076  32681  179.827
 7.5496  32170.3  178.954
 7.5916  32492.4  179.893
 7.6336  32977.3  181.12
 7.6756  32857.9  180.642
 7.7176  33523  182.782
 7.7596  33117.6  182.905
 7.8016  33889.4  187.281
 7.8436  33385.8  182.523
 7.8856  33677.8  182.927
 7.9276  34334.2  185.109
 7.9696  34311.3  185.348
 8.0116  35255.9  186.432
 8.0536  35508.3  187.35
 8.0956  35683.5  188.982
 8.1376  36082.6  189.516
 8.1796  36117.6  190.136
 8.2216  37128.1  191.525
 8.2636  36814.9  190.963
 8.3056  36959.8  192.111
 8.3476  37608.9  193.108
 8.3896  37184.6  192.1
 8.4316  37668.5  193.511
 8.4736  37639.9  192.91
 8.5156  37249.5  192.182
 8.5576  37004.6  192.512
 8.5996  36862.2  191.024
 8.6416  36942.6  192.488
 8.6836  36363  190.813
 8.7256  37346.3  192.814
 8.7676  37011.3  194.89
 8.8096  37263.1  192.847
 8.8516  37054.1  191.855
 8.8936  36824.7  191.234
 8.9356  37102.5  192.288
 8.9776  36807.6  191.603
 9.0196  37078.8  191.979
 9.0616  36714.4  190.53
 9.1036  36087.9  190.064
 9.1456  36236.7  189.78
 9.1876  36403.1  190.163
 9.2296  35958.3  188.434
 9.2716  35806.9  188.077
 9.3136  35861.8  188.216
 9.3556  36221.2  189.133
 9.3976  35014.1  186.475
 9.4396  35183.7  186.833
 9.4816  35288.7  186.969
 9.5236  34642.8  185.145
 9.5656  34594.3  185.373
 9.6076  33645  183.33
 9.6496  33945.9  184.039
 9.6916  33786.6  183.555
 9.7336  33976.3  183.843
 9.7756  33553.4  184.052
 9.8176  33676.8  183.805
 9.8596  33555.9  181.906
 9.9016  33012.9  180.422
 9.9436  32926.6  180.098
 9.9856  32423.8  178.991
 10.0276  31902.6  178.618
 10.0696  32284.8  178.724
 10.1116  31425.3  176.596
 10.1536  31406.2  176.68
 10.1956  31061.1  175.332
 10.2376  30909.1  174.412
 10.2796  30812.3  174.236
 10.3216  30321.6  173.138
 10.3636  30138  172.645
 10.4056  29667  171.683
 10.4476  29696.2  171.393
 10.4896  29794.6  171.117
 10.5316  28970.7  169.451
 10.5736  28894.6  169.645
 10.6156  28831.7  169.224
 10.6576  28819.4  167.741
 10.6996  28387.3  167.183
 10.7416  28133.3  166.65
 10.7836  27556  165.586
 10.8256  27425.4  165.631
 10.8676  27243.2  164.621
 10.9096  27239.8  164.649
 10.9516  27050.5  163.018
 10.9936  26961.2  162.959
 11.0356  26712.7  162.808
 11.0776  26775.7  162.334
 11.1196  26103.3  161.044
 11.1616  25923.4  160.15
 11.2036  26166  160.758
 11.2456  26017.7  161
 11.2876  26095.6  160.978
 11.3296  25761.9  159.855
 11.3716  26115.2  160.638
 11.4136  26056.8  161.34
 11.4556  26055.3  160.999
 11.4976  26634.7  161.763
 11.5396  27069.1  163.247
 11.5816  27510.7  165.029
 11.6236  27189.1  164.522
 11.6656  26683.2  161.901
 11.7076  25664.7  159.614
 11.7496  25504.9  163.139
 11.7916  25338.1  157.842
 11.8336  24687.5  156.72
 11.8756  24803.2  156.608
 11.9176  24762.1  156.15
 11.9596  24847.6  156.595
 12.0016  24524.8  156.343
 12.0436  24784.2  156.617
 12.0856  24311.3  155.616
 12.1276  24244.7  155.355
 12.1696  24280.9  154.585
 12.2116  24279.5  154.579
 12.2536  23909.1  154.211
 12.2956  24034.6  153.953
 12.3376  24238.6  154.824
 12.3796  24065.9  154.748
 12.4216  24121  154.116
 12.4636  23615.9  153.43
 12.5056  24057.3  154.119
 12.5476  23984.8  153.405
 12.5896  23871.2  153.679
 12.6316  24052.3  154.413
 12.6736  23690.2  153.734
 12.7156  23869.1  154.166
 12.7576  23823  154.261
 12.7996  24008.2  153.495
 12.8416  23840.7  154.014
 12.8836  24058.4  154.547
 12.9256  24713.9  155.654
 12.9676  24306.3  154.76
 13.0096  24495.2  156.498
 13.0516  24471.4  155.435
 13.0936  24721.4  156.651
 13.1356  24994  156.457
 13.1776  24488.9  155.894
 13.2196  24750.8  156.359
 13.2616  24507.9  155.906
 13.3036  24780.1  156.735
 13.3456  24341.2  155.485
 13.3876  25056.8  157.23
 13.4296  24365.6  155.219
 13.4716  24737  156.015
 13.5136  24754.1  156.189
 13.5556  24486.2  155.982
 13.5976  24680.7  156.775
 13.6396  24589.2  155.833
 13.6816  24534.4  156.141
 13.7236  25012.8  157.24
 13.7656  26598.8  162.599
 13.8076  27276  163.317
 13.8496  26660.7  162.128
 13.8916  24746.1  157.324
 13.9336  24258.8  155.035
 13.9756  24237.2  154.347
 14.0176  23853.9  153.797
 14.0596  23862.9  153.769
 14.1016  24034.7  154.744
 14.1436  23845.6  153.264
 14.1856  23505.1  152.456
 14.2276  23185.4  151.9
 14.2696  23283.1  152.072
 14.3116  22662.5  149.932
 14.3536  22737.8  150.35
 14.3956  22419.1  149.018
 14.4376  22853.5  150.242
 14.4796  22575.1  149.321
 14.5216  22277.2  149.126
 14.5636  22149.9  148.266
 14.6056  22232.2  148.103
 14.6476  22173.4  147.146
 14.6896  21751.7  146.278
 14.7316  21440  146.271
 14.7736  21380.8  145.198
 14.8156  21229  144.712
 14.8576  21131.5  144.24
 14.8996  20699.9  143.949
 14.9416  20161.8  142.084
 14.9836  20369.4  142.792
 15.0256  19892.8  140.021
 15.0676  19706.2  139.675
 15.1096  19843.7  139.9
 15.1516  19352.6  138.708
 15.1936  19303.6  137.966
 15.2356  19260.1  138.088
 15.2776  18940.3  136.53
 15.3196  18653.4  136.478
 15.3616  18537  135.814
 15.4036  18602.7  135.917
 15.4456  18606.9  135.582
 15.4876  18359.1  134.36
 15.5296  18227.8  134.16
 15.5716  18059.4  133.149
 15.6136  17991.4  133.217
 15.6556  18188.3  133.191
 15.6976  18073.5  132.847
 15.7396  17718.1  132.135
 15.7816  17645.5  131.376
 15.8236  17387.5  131.104
 15.8656  17422.5  131.027
 15.9076  17247.3  130.188
 15.9496  18088.2  136.171
 15.9916  17506.8  134.361
 16.0336  17737.9  132.117
 16.0756  17648.8  132.113
 16.1176  17471.7  131.519
 16.1596  17029.1  131.024
 16.2016  16994.7  129.652
 16.2436  16934.1  129.804
 16.2856  17053  129.764
 16.3276  16731.9  128.984
 16.3696  17046  130.008
 16.4116  16732.6  129.234
 16.4536  16775.6  129.23
 16.4956  16783.3  128.984
 16.5376  16783.6  129.184
 16.5796  16441.3  127.226
 16.6216  16659.8  128.337
 16.6636  16260.9  126.978
 16.7056  16401.7  127.382
 16.7476  16647.3  127.866
 16.7896  16472.7  127.934
 16.8316  16660.2  128.643
 16.8736  16618.2  128.74
 16.9156  16476.1  128.516
 16.9576  16315.7  128.67
 16.9996  16294.1  129.059
 17.0416  16484.9  128.183
 17.0836  16404.7  127.631
 17.1256  16329.3  127.348
 17.1676  16402.5  127.579
 17.2096  16198.2  126.689
 17.2516  16090.9  126.063
 17.2936  16090.3  126.41
 17.3356  15740.8  125.015
 17.3776  15946.5  126.021
 17.4196  15780.2  125.051
 17.4616  15575  124.149
 17.5036  15376.3  123.718
 17.5456  15340.3  124.214
 17.5876  15240.6  122.852
 17.6296  15403.1  123.338
 17.6716  15149.1  122.895
 17.7136  15101.6  122.835
 17.7556  15074.5  123.02
 17.7976  14810.2  121.532
 17.8396  14677.5  120.635
 17.8816  14741.6  121.448
 17.9236  14691.4  121.042
 17.9656  14587.1  121.292
 18.0076  14718.7  121.27
 18.0496  14651.7  120.13
 18.0916  14583.4  120.396
 18.1336  14402.1  119.739
 18.1756  14624.8  120.214
 18.2176  14215.6  118.729
 18.2596  14342.6  118.983
 18.3016  14514.7  119.955
 18.3436  14432.7  119.861
 18.3856  14287.1  119.156
 18.4276  14309.2  118.925
 18.4696  14163.5  118.413
 18.5116  14309.4  119.292
 18.5536  14259.7  119.446
 18.5956  13965.1  117.771
 18.6376  14026.1  118.416
 18.6796  14215  118.53
 18.7216  14229.3  119.159
 18.7636  14108.8  118.587
 18.8056  13848.9  117.407
 18.8476  13814.5  117.883
 18.8896  14104.4  118.451
 18.9316  14020.8  117.922
 18.9736  13942.3  117.452
 19.0156  14024.2  118.213
 19.0576  14177.8  117.708
 19.0996  14176.4  118.419
 19.1416  14091.1  118.449
 19.1836  13953.4  117.477
 19.2256  13729.2  116.752
 19.2676  13754.9  116.948
 19.3096  13867.2  117.666
 19.3516  13889.7  117.724
 19.3936  13793.4  117.196
 19.4356  14044  118.155
 19.4776  13808  117.245
 19.5196  13828.4  117.186
 19.5616  13858  117.567
 19.6036  13790.2  116.783
 19.6456  14013.5  117.839
 19.6876  13880.7  116.913
 19.7296  13959.4  117.712
 19.7716  13774.7  116.956
 19.8136  14104.7  118.694
 19.8556  14109.7  118.189
 19.8976  14203.8  118.648
 19.9396  14244.5  118.402
 19.9816  14316.4  118.951
 20.0236  14604.7  120.336
 20.0656  14844.6  121.325
 20.1076  14994.4  122.425
 20.1496  14900.9  122.041
 20.1916  14744.9  120.901
 20.2336  14329  119.104
 20.2756  13969.8  118.036
 20.3176  13837.1  117.231
 20.3596  13659.6  116.455
 20.4016  13835.8  116.998
 20.4436  13621.2  116.666
 20.4856  13529.7  116.061
 20.5276  13440.5  116.136
 20.5696  13696.9  116.685
 20.6116  13347  115.463
 20.6536  13351.1  115.04
 20.6956  13243.9  114.653
 20.7376  13189.6  114.63
 20.7796  13257.3  114.615
 20.8216  13269.7  114.387
 20.8636  13374.8  115.216
 20.9056  13158.3  114.221
 20.9476  13173  114.124
 20.9896  13365.1  114.818
 21.0316  13113  113.622
 21.0736  13019  113.729
 21.1156  12992  113.78
 21.1576  13035  114.005
 21.1996  12966.6  113.693
 21.2416  13121  114.2
 21.2836  13139.1  114.251
 21.3256  13024.9  113.828
 21.3676  12991.4  113.211
 21.4096  12807.6  112.728
 21.4516  12813.8  112.63
 21.4936  12654.2  112.184
 21.5356  12947.7  113.427
 21.5776  12958.1  113.31
 21.6196  12717.1  112.289
 21.6616  12751.6  112.525
 21.7036  12785.1  112.441
 21.7456  12884.5  112.953
 21.7876  12737.4  112.072
 21.8296  12746.1  111.958
 21.8716  12787  112.366
 21.9136  12853.2  112.855
 21.9556  12760.8  112.133
 21.9976  12599.9  111.447
 22.0396  12650.2  111.923
 22.0816  12721.4  112.765
 22.1236  12670.5  112.004
 22.1656  12560.3  111.703
 22.2076  12470.1  110.702
 22.2496  12380.5  110.335
 22.2916  12392.8  110.277
 22.3336  12413.6  111.069
 22.3756  12436.1  110.912
 22.4176  12281.7  110.074
 22.4596  12141.7  110.03
 22.5016  12249.1  110.024
 22.5436  12468.3  110.881
 22.5856  12564.9  111.552
 22.6276  12692.4  112.243
 22.6696  12419.7  111.393
 22.7116  12443  111
 22.7536  12345  110.548
 22.7956  12427.6  110.254
 22.8376  12248.4  109.973
 22.8796  12324  110.113
 22.9216  12448.7  111.215
 22.9636  12216.1  109.331
 23.0056  12248.9  109.606
 23.0476  12409.8  110.895
 23.0896  12635.7  111.278
 23.1316  12512.1  111.167
 23.1736  12625.1  114.621
 23.2156  12736.1  112.504
 23.2576  12937.8  113.523
 23.2996  12747.1  112.454
 23.3416  12811.2  113.273
 23.3836  12715.6  112.077
 23.4256  12962.8  113.284
 23.4676  12664.6  111.657
 23.5096  12655.5  112.285
 23.5516  12613.1  111.384
 23.5936  12610.4  112.294
 23.6356  12782.1  112.715
 23.6776  12469.3  111.537
 23.7196  12383.2  110.732
 23.7616  12581.5  111.527
 23.8036  12795.5  112.531
 23.8456  12487.8  110.727
 23.8876  12579.2  111.488
 23.9296  12291.9  110.692
 23.9716  12500.2  110.827
 24.0136  12338.1  111.006
 24.0556  12221.9  110.202
 24.0976  12185.3  109.851
 24.1396  12118.2  112.15
 24.1816  12170.2  111.143
 24.2236  12280.8  110.93
 24.2656  12043.5  109.342
 24.3076  11961.2  109.233
 24.3496  12162.5  110.015
 24.3916  12119.7  109.885
 24.4336  12161.8  110.276
 24.4756  12203.4  110.351
 24.5176  11961.1  108.88
 24.5596  11809.3  108.318
 24.6016  11790.1  108.516
 24.6436  11898.3  108.52
 24.6856  11742.9  107.551
 24.7276  11661.7  107.497
 24.7696  11571.3  107.189
 24.8116  11651.6  107.734
 24.8536  11653.7  107.753
 24.8956  11537.9  106.951
 24.9376  11627.1  107.282
 24.9796  11437.3  106.773
 25.0216  11329.5  106.382
 25.0636  11469.6  106.692
 25.1056  11350.4  106.562
 25.1476  11294.7  108.216
 25.1896  11290.3  106.696
 25.2316  11222.8  105.655
 25.2736  11231.3  105.346
 25.3156  11262.7  105.566
 25.3576  11150.6  105.471
 25.3996  11140.1  105.41
 25.4416  11121.4  105.29
 25.4836  10973.5  105.107
 25.5256  11131.8  105.224
 25.5676  11136.5  104.973
 25.6096  10886.4  104.367
 25.6516  11077.7  104.776
 25.6936  11029  104.869
 25.7356  10979.8  104.768
 25.7776  11080.4  104.838
 25.8196  10845.7  103.966
 25.8616  10781  103.587
 25.9036  11009.5  104.13
 25.9456  10847.7  103.953
 25.9876  10828.3  103.927
 26.0296  10998.9  104.343
 26.0716  11021.6  104.797
 26.1136  10904.6  104.169
 26.1556  10991.3  103.969
 26.1976  10880.2  104.368
 26.2396  10806.9  103.413
 26.2816  10878.1  104.122
 26.3236  10797.5  103.886
 26.3656  11002.6  104.593
 26.4076  10882.7  104.226
 26.4496  11050  104.62
 26.4916  11159.3  105.009
 26.5336  11508  107.006
 26.5756  11604.7  107.33
 26.6176  10998.5  104.506
 26.6596  10931.9  104.503
 26.7016  10715.9  103.224
 26.7436  10897.7  104.219
 26.7856  10506.9  102.329
 26.8276  10759.9  103.518
 26.8696  10736.6  103.279
 26.9116  10596.9  102.545
 26.9536  10497.9  102.112
 26.9956  10343.4  101.389
 27.0376  10521.5  102.489
 27.0796  10404.1  101.711
 27.1216  10451.5  101.928
 27.1636  10333  101.525
 27.2056  10301.3  101.25
 27.2476  10425  101.849
 27.2896  10330.8  101.501
 27.3316  10376.1  101.431
 27.3736  10292.7  101.299
 27.4156  10332.2  101.332
 27.4576  10286.1  101.33
 27.4996  10431.7  101.649
 27.5416  10370.8  101.653
 27.5836  10212.7  100.719
 27.6256  10312.3  101.385
 27.6676  10230.2  100.969
 27.7096  10258.2  100.994
 27.7516  10277.3  101.235
 27.7936  10490.5  102.42
 27.8356  10355.2  101.373
 27.8776  10458.8  101.947
 27.9196  10147.7  100.27
 27.9616  10305.5  101.255
 28.0036  10203.6  100.707
 28.0456  10030.2  99.9889
 28.0876  10048.9  100.169
 28.1296  9948.03  99.5027
 28.1716  10141.6  100.477
 28.2136  10102.4  100.255
 28.2556  10136.4  100.54
 28.2976  9907.52  99.393
 28.3396  9843.05  98.8687
 28.3816  9970.31  99.4712
 28.4236  9848.32  99.0203
 28.4656  9860.21  99.115
 28.5076  9903.01  98.9639
 28.5496  9876.04  99.0929
 28.5916  9980.31  99.4235
 28.6336  9918.1  99.4649
 28.6756  9876.95  98.4558
 28.7176  9834.75  98.7946
 28.7596  9817.44  98.5982
 28.8016  9837.28  98.7377
 28.8436  9874.02  99.1566
 28.8856  9825.46  98.7644
 28.9276  9958.86  99.6861
 28.9696  9741.53  98.2509
 29.0116  9682.88  98.1349
 29.0536  9722.41  98.5456
 29.0956  9730.72  98.2869
 29.1376  9738.23  98.2978
 29.1796  9822.76  98.7748
 29.2216  9676.04  97.8736
 29.2636  9855.14  98.7728
 29.3056  9637.82  97.5384
 29.3476  9737.41  98.5723
 29.3896  9722.63  98.6094
 29.4316  9682.8  97.7317
 29.4736  9518.51  96.9645
 29.5156  9466.69  96.6171
 29.5576  9386.63  96.937
 29.5996  9567.48  97.1303
 29.6416  9370.88  96.2406
 29.6836  9448.77  96.5716
 29.7256  9307.91  96.4063
 29.7676  9519.99  97.1614
 29.8096  9396.41  96.4722
 29.8516  9247.06  96.0338
 29.8936  9382.64  96.8239
 29.9356  9557.36  97.4737
 29.9776  9131.74  95.4313
 30.0196  9282.57  95.6113
 30.0616  9310.41  96.1248
 30.1036  9471.3  96.7739
 30.1456  9244.64  95.8441
 30.1876  9292.41  96.0671
 30.2296  9135.12  95.205
 30.2716  9355.2  95.9827
 30.3136  9347.01  96.7918
 30.3556  9509.4  97.6325
 30.3976  9385.59  98.4852
 30.4396  9688.43  97.4064
 30.4816  9524.92  96.1873
 30.5236  9580.48  96.4631
 30.5656  9636.78  97.4118
 30.6076  9564.32  96.4507
 30.6496  9449.87  96.2874
 30.6916  9403.25  96.1345
 30.7336  9484.42  96.7048
 30.7756  9452.04  96.6163
 30.8176  9520.39  96.8891
 30.8596  9393.99  96.0074
 30.9016  9477.2  96.7922
 30.9436  9431.27  96.297
 30.9856  9595.44  97.2348
 31.0276  9432.81  96.0468
 31.0696  9396.46  96.4207
 31.1116  9371.76  96.2701
 31.1536  9309.45  95.8052
 31.1956  9382.93  96.2781
 31.2376  9156.74  95.1431
 31.2796  9238.68  95.1058
 31.3216  9292.25  95.2994
 31.3636  9385.18  96.4811
 31.4056  9278.63  97.2448
 31.4476  9365.88  95.5989
 31.4896  9323.12  95.8837
 31.5316  9429.47  95.8681
 31.5736  9420.88  95.615
 31.6156  9370.53  95.3645
 31.6576  9531.42  96.2541
 31.6996  9505.32  95.7895
 31.7416  9172.72  95.182
 31.7836  9240.01  94.5309
 31.8256  9328.8  95.3375
 31.8676  9386.31  95.5282
 31.9096  9177.95  94.8387
 31.9516  9160.54  94.923
 31.9936  9164  94.7505
 32.0356  9151.44  94.7426
 32.0776  9255  95.1751
 32.1196  9343.94  95.7381
 32.1616  9365.25  95.2808
 32.2036  9209.23  95.0126
 32.2456  9217.73  95.4253
 32.2876  9080.32  94.037
 32.3296  9057.72  94.0645
 32.3716  8977.89  93.7608
 32.4136  8979.31  93.9704
 32.4556  9152.58  94.3088
 32.4976  9029.55  93.5273
 32.5396  8994.49  93.4005
 32.5816  8969.9  93.4123
 32.6236  9176.21  94.5296
 32.6656  9140.55  94.9092
 32.7076  8987.74  93.7654
 32.7496  8901.08  92.9751
 32.7916  9069.34  93.8216
 32.8336  8908.19  93.075
 32.8756  9104.88  93.8046
 32.9176  8792.94  92.6817
 32.9596  8954.85  93.5919
 33.0016  8935  93.2599
 33.0436  8925.35  93.3962
 33.0856  8754.41  92.5843
 33.1276  8763.73  92.3648
 33.1696  8943.37  93.1403
 33.2116  8858.95  92.9347
 33.2536  9076.21  94.0529
 33.2956  8912.64  93.2931
 33.3376  8863.11  92.7791
 33.3796  8934.91  93.3676
 33.4216  8883.92  92.6787
 33.4636  8943.44  93.14
 33.5056  8743.99  92.3493
 33.5476  8757.36  92.3991
 33.5896  8899.69  92.9168
 33.6316  8821.63  92.8414
 33.6736  8673.08  92.3063
 33.7156  8710.04  92.5363
 33.7576  8832.73  92.8214
 33.7996  8799.79  92.4115
 33.8416  8588.69  91.4801
 33.8836  8683.66  91.7614
 33.9256  8950.78  93.2213
 33.9676  8827.76  92.472
 34.0096  8768.91  92.4832
 34.0516  8819.83  92.3864
 34.0936  8692.79  91.9869
 34.1356  8781.8  92.1949
 34.1776  8564.43  91.0489
 34.2196  8472.75  90.7334
 34.2616  8552.35  91.2959
 34.3036  8696.23  92.3082
 34.3456  8574.86  91.4172
 34.3876  8738.17  92.2611
 34.4296  8662.99  91.5436
 34.4716  8678.15  91.7806
 34.5136  8665.83  91.9082
 34.5556  8542.58  91.5083
 34.5976  8642.4  91.8485
 34.6396  8665.02  91.6814
 34.6816  8710.89  92.0294
 34.7236  8721.51  91.8704
 34.7656  8601.82  91.4338
 34.8076  8542.82  91.4568
 34.8496  8541.65  91.2944
 34.8916  8631.38  91.6387
 34.9336  8580.27  91.3494
 34.9756  8512.04  90.9046
 35.0176  8726.1  92.5779
 35.0596  8636.9  91.9199
 35.1016  8671.96  91.8625
 35.1436  8902.97  92.7596
 35.1856  8623.42  91.4084
 35.2276  8558.98  91.2511
 35.2696  8551.55  91.4037
 35.3116  8499.75  91.2237
 35.3536  8464.98  90.7487
 35.3956  8521.7  90.7658
 35.4376  8587.35  91.6729
 35.4796  8549.68  91.5189
 35.5216  8463.24  91.0228
 35.5636  8258.06  90.644
 35.6056  8347.4  90.1578
 35.6476  8401.54  90.3525
 35.6896  8583.19  91.4878
 35.7316  8351.03  90.1436
 35.7736  8345.18  90.3053
 35.8156  8465.31  90.9405
 35.8576  8409.32  90.8959
 35.8996  8541.04  91.5715
 35.9416  8460.69  90.6443
 35.9836  8382.46  90.5713
 36.0256  8592.63  91.7104
 36.0676  8604.4  91.2955
 36.1096  8368.35  90.3911
 36.1516  8556.08  91.2925
 36.1936  8510.16  90.9027
 36.2356  8356.11  90.7242
 36.2776  8312.8  89.9676
 36.3196  8365.4  89.9268
 36.3616  8389.37  90.1764
 36.4036  8405.81  90.3421
 36.4456  8445.68  90.7573
 36.4876  8215.25  89.4507
 36.5296  8382.67  90.4051
 36.5716  8324.99  90.8669
 36.6136  8284.69  89.4274
 36.6556  8228.72  89.3292
 36.6976  8161.94  89.4567
 36.7396  8080.04  88.7372
 36.7816  8057.01  88.9844
 36.8236  8226.42  89.8359
 36.8656  7994.57  88.619
 36.9076  8049.71  88.9345
 36.9496  8120.42  89.1967
 36.9916  7976.6  88.037
 37.0336  8016.42  88.5675
 37.0756  8286.03  89.8356
 37.1176  8017.96  88.6338
 37.1596  7846.66  87.6924
 37.2016  8026.8  88.8649
 37.2436  8017.41  88.1894
 37.2856  8047.05  88.5983
 37.3276  8008.09  87.7483
 37.3696  7957.44  88.339
 37.4116  8035.09  88.6833
 37.4536  7846.56  87.4986
 37.4956  7850.41  87.571
 37.5376  8258.89  91.4256
 37.5796  8112.83  90.5371
 37.6216  8096.02  88.7184
 37.6636  8146.11  88.8818
 37.7056  8254.12  89.6552
 37.7476  8323.37  89.5682
 37.7896  8111.44  88.9334
 37.8316  8004.2  88.4922
 37.8736  8077.9  88.4302
 37.9156  8156.48  88.8485
 37.9576  8130.79  88.6255
 37.9996  7992.52  87.5824
 38.0416  8038.83  88.6443
 38.0836  8191.11  89.384
 38.1256  8103.34  88.8739
 38.1676  7907.31  87.9095
 38.2096  8114.44  88.6713
 38.2516  8021.95  88.3773
 38.2936  8173.1  89.002
 38.3356  8119.6  88.6433
 38.3776  8085.51  88.7082
 38.4196  8058.46  88.415
 38.4616  8143.36  89.1209
 38.5036  8133.55  88.9155
 38.5456  7966.85  88.8182
 38.5876  8004.4  89.0488
 38.6296  8055.75  88.3073
 38.6716  8070.11  88.1847
 38.7136  7923.99  87.3321
 38.7556  7995.69  88.2264
 38.7976  7980.84  88.074
 38.8396  8018.76  88.7519
 38.8816  8002.56  88.4498
 38.9236  8077.8  88.6631
 38.9656  8082.4  88.5882
 39.0076  8013.02  87.6077
 39.0496  8066.38  88.4705
 39.0916  8030.92  87.916
 39.1336  7984.56  88.0645
 39.1756  7854.67  87.4201
 39.2176  7836.84  87.836
 39.2596  7935.36  88.3227
 39.3016  7910.93  87.7688
 39.3436  7748.28  87.2698
 39.3856  8032.01  88.2906
 39.4276  8137.68  89.3907
 39.4696  8033.96  88.4331
 39.5116  7982.29  88.6705
 39.5536  8135.87  89.9359
 39.5956  8019.39  88.3925
 39.6376  7938.14  87.9473
 39.6796  8015.07  88.109
 39.7216  7934.98  87.7751
 39.7636  7937.61  88.3355
 39.8056  7990.05  88.428
 39.8476  7817.83  87.7185
 39.8896  7937.2  88.0155
 39.9316  7843.99  87.7421
 39.9736  7996.63  88.1684
 40.0156  7864.72  87.2691
 40.0576  7897.9  87.7993
 40.0996  8012.8  87.6255
 40.1416  7830.2  87.4084
 40.1836  8010.97  88.2976
 40.2256  7985.82  88.1908
 40.2676  7856.09  87.5836
 40.3096  8062.5  88.6631
 40.3516  7993.41  88.3863
 40.3936  8022.56  88.0948
 40.4356  7898.38  87.6226
 40.4776  8081.13  89.0348
 40.5196  8033.11  88.8993
 40.5616  8050.26  88.6297
 40.6036  7918.65  88.1655
 40.6456  7936.81  87.8618
 40.6876  8036.57  88.4135
 40.7296  7987.61  88.2726
 40.7716  8025.5  88.6103
 40.8136  7854  87.6032
 40.8556  7980.5  88.4332
 40.8976  8038.88  88.6885
 40.9396  7988.38  88.7484
 40.9816  8048.74  88.3669
 41.0236  7997.78  87.8782
 41.0656  8056.97  88.745
 41.1076  7993.73  88.1628
 41.1496  7931.24  87.73
 41.1916  7872.07  87.7112
 41.2336  8049.34  88.6966
 41.2756  7885.63  87.3956
 41.3176  7999.98  88.6371
 41.3596  8094.03  88.8884
 41.4016  7954.52  88.3833
 41.4436  8028.19  88.5762
 41.4856  7924.57  88.1649
 41.5276  7838.92  87.7007
 41.5696  8052.36  88.501
 41.6116  7963.63  88.4236
 41.6536  7856.87  87.6812
 41.6956  7990.69  88.4928
 41.7376  7967.66  88.3709
 41.7796  7793.77  87.3448
 41.8216  7940.54  88.3537
 41.8636  7888.25  88.001
 41.9056  7847.58  87.5682
 41.9476  7959.21  88.4222
 41.9896  8032.71  88.5017
 42.0316  8094.9  88.9258
 42.0736  8092.1  89.0174
 42.1156  8004.22  88.3527
 42.1576  7881.34  87.7865
 42.1996  8112.25  89.1877
 42.2416  7951.29  87.8871
 42.2836  7919.29  87.8277
 42.3256  7818.64  87.371
 42.3676  8072.85  88.5916
 42.4096  7919.93  87.711
 42.4516  7970.32  88.0771
 42.4936  7827.94  87.3639
 42.5356  7846.25  87.5926
 42.5776  7875.04  87.7039
 42.6196  7916.59  87.9803
 42.6616  7825.04  87.6441
 42.7036  7864.16  87.2465
 42.7456  7876.45  87.6727
 42.7876  7801.03  87.3438
 42.8296  7936.67  87.9397
 42.8716  7771.89  87.1824
 42.9136  7806.04  87.1607
 42.9556  7838.36  87.4779
 42.9976  7956.05  88.0816
 43.0396  7772.18  86.8022
 43.0816  7752.23  87.0737
 43.1236  7732.35  87.0121
 43.1656  7745.11  86.9022
 43.2076  7812.07  87.3928
 43.2496  7854.21  87.4499
 43.2916  7720.86  87.0638
 43.3336  7784.84  87.2521
 43.3756  7874.95  87.5153
 43.4176  7724.44  86.7488
 43.4596  7777.05  86.9055
 43.5016  7701.46  86.8825
 43.5436  7699.15  86.7771
 43.5856  7694.56  86.7815
 43.6276  7702.37  86.7115
 43.6696  7723.81  86.9775
 43.7116  7798.8  87.0124
 43.7536  7873.06  87.9236
 43.7956  7731.99  88.3479
 43.8376  7726.69  86.8306
 43.8796  7760.54  87.1011
 43.9216  7654.64  86.4242
 43.9636  7607.02  86.2627
 44.0056  7620.68  86.5643
 44.0476  7598.04  86.0726
 44.0896  7538.94  86.0791
 44.1316  7530.56  85.6977
 44.1736  7612.72  86.1517
 44.2156  7705.23  86.5227
 44.2576  7526.12  85.8283
 44.2996  7689.43  86.7288
 44.3416  7677.21  86.4254
 44.3836  7399  85.1674
 44.4256  7581.91  85.859
 44.4676  7426.81  85.1288
 44.5096  7545.92  85.9498
 44.5516  7537.84  85.8717
 44.5936  7469.58  85.4352
 44.6356  7458.63  85.1113
 44.6776  7443.74  85.3395
 44.7196  7588.04  86.4777
 44.7616  7563.63  87.6621
 44.8036  7523.89  85.8664
 44.8456  7651.59  86.7991
 44.8876  7640.01  86.5766
 44.9296  7853.57  87.2107
 44.9716  7607.97  86.2746
 45.0136  7753.43  87.0342
 45.0556  7759.31  87.0457
 45.0976  7515.93  85.8246
 45.1396  7590.69  86.0038
 45.1816  7635.63  86.1988
 45.2236  7744.79  86.7167
 45.2656  7510.97  85.8931
 45.3076  7636.22  86.3851
 45.3496  7528.87  86.0888
 45.3916  7545.58  86.4555
 45.4336  7665.08  86.9768
 45.4756  7656.9  86.7783
 45.5176  7603.75  86.0968
 45.5596  7667.48  86.5749
 45.6016  7582.8  86.5248
 45.6436  7678.44  86.2331
 45.6856  7625.78  86.6
 45.7276  7501.11  87.201
 45.7696  7548.97  87.1583
 45.8116  7507.1  86.3367
 45.8536  7531.71  86.3765
 45.8956  7547.86  85.8131
 45.9376  7502.33  85.018
 45.9796  7697.3  86.8365
 46.0216  7528.18  86.2
 46.0636  7707.73  86.3417
 46.1056  7641.93  85.9748
 46.1476  7596.77  86.3157
 46.1896  7640.78  86.7135
 46.2316  7686.47  86.8474
 46.2736  7484.36  86.07
 46.3156  7483.18  85.6412
 46.3576  7567.58  86.3288
 46.3996  7652.3  86.9727
 46.4416  7589.16  86.184
 46.4836  7470.49  85.8592
 46.5256  7503.49  85.9965
 46.5676  7508.13  86.1401
 46.6096  7592.23  86.5481
 46.6516  7491.71  85.0085
 46.6936  7450.87  85.2797
 46.7356  7582.44  86.127
 46.7776  7444.83  86.1982
 46.8196  7497.12  86.0842
 46.8616  7387.28  85.4048
 46.9036  7346.29  84.8235
 46.9456  7433.42  84.9618
 46.9876  7452.05  85.1499
 47.0296  7435.49  85.7565
 47.0716  7490.41  85.8913
 47.1136  7516.61  85.7154
 47.1556  7333.65  84.5283
 47.1976  7518.75  85.6783
 47.2396  7508.44  86.0159
 47.2816  7329.28  84.6835
 47.3236  7503.4  86.0535
 47.3656  7452.79  85.6982
 47.4076  7387.03  85.1227
 47.4496  7458.49  85.6334
 47.4916  7445.25  85.7509
 47.5336  7558.39  86.2027
 47.5756  7461.18  85.7641
 47.6176  7359.98  85.0898
 47.6596  7479.3  85.4795
 47.7016  7586.55  85.9033
 47.7436  7489.32  85.6915
 47.7856  7580.4  86.2399
 47.8276  7314.82  84.7592
 47.8696  7433.53  85.5372
 47.9116  7546.48  85.8855
 47.9536  7440.78  85.2283
 47.9956  7413.07  85.789
 48.0376  7312.37  84.9723
 48.0796  7409.02  85.6688
 48.1216  7400.13  85.4304
 48.1636  7571.59  85.9795
 48.2056  7596.7  86.3944
 48.2476  7480.05  86.0423
 48.2896  7451.26  85.7861
 48.3316  7461.9  85.7764
 48.3736  7458.21  85.7861
 48.4156  7404.99  85.3315
 48.4576  7414.67  85.6857
 48.4996  7499.07  85.6108
 48.5416  7511.15  86.0181
 48.5836  7422.24  85.1723
 48.6256  7478.9  85.7139
 48.6676  7393.82  85.7482
 48.7096  7482.48  85.5139
 48.7516  7435.19  85.3913
 48.7936  7284.3  84.5842
 48.8356  7269.07  84.5479
 48.8776  7367.16  85.6108
 48.9196  7596.9  86.3715
 48.9616  7333.62  85.2421
 49.0036  7401.78  85.9978
 49.0456  7349.46  85.6772
 49.0876  7285.5  84.9361
 49.1296  7237.61  84.7109
 49.1716  7281.4  84.8416
 49.2136  7360.62  85.2241
 49.2556  7323.08  85.0425
 49.2976  7356.54  85.3082
 49.3396  7284.88  84.9447
 49.3816  7472.65  85.452
 49.4236  7351.2  85.1891
 49.4656  7249.9  84.6058
 49.5076  7388.43  85.1603
 49.5496  7312.52  84.7872
 49.5916  7331.89  84.8113
 49.6336  7347.09  85.11
 49.6756  7329.95  85.2583
 49.7176  7355.59  85.3363
 49.7596  7367.4  85.1736
 49.8016  7353.14  84.9992
 49.8436  7269.47  84.8169
 49.8856  7364.98  85.3757
 49.9276  7222.91  84.6522
 49.9696  7302.71  85.1036
 50.0116  7338.59  85.4266
 50.0536  7367.64  85.5643
 50.0956  7354.69  85.5492
 50.1376  7244.59  84.6053
 50.1796  7214.52  84.7093
 50.2216  7241  84.8518
 50.2636  7353.73  85.1266
 50.3056  7238.39  84.6275
 50.3476  7258.44  84.7622
 50.3896  7124.99  83.9628
 50.4316  7336.79  85.026
 50.4736  7207.15  84.4933
 50.5156  7276.46  84.8945
 50.5576  7402.99  85.3798
 50.5996  7275.63  84.9311
 50.6416  7197.98  84.4006
 50.6836  7223.08  84.6121
 50.7256  7265.64  84.7734
 50.7676  7406.97  85.893
 50.8096  7210.9  84.3177
 50.8516  7251.23  84.9761
 50.8936  7176.6  84.3162
 50.9356  7249.12  84.8455
 50.9776  7220.76  84.8469
 51.0196  7109.43  84.3088
 51.0616  7178.44  84.0272
 51.1036  7097.06  83.915
 51.1456  7160.55  84.1962
 51.1876  7207.08  83.7938
 51.2296  7096.22  83.7902
 51.2716  7033.65  83.1286
 51.3136  6984.13  83.3008
 51.3556  6977.83  82.8813
 51.3976  7069.58  83.5777
 51.4396  6948.72  83.1732
 51.4816  7135.69  84.1352
 51.5236  7050.57  83.7108
 51.5656  6907.48  82.4597
 51.6076  7099.87  83.6824
 51.6496  6948.28  82.9822
 51.6916  6965.13  83.4417
 51.7336  7093.36  84.3048
 51.7756  7053.87  83.7545
 51.8176  7008.76  83.6006
 51.8596  7051.97  83.8728
 51.9016  7121.04  83.8792
 51.9436  6999.49  84.6744
 51.9856  7122.49  85.829
 52.0276  7115.63  84.2629
 52.0696  7205.15  84.8591
 52.1116  7027.78  83.9224
 52.1536  7209.82  84.8896
 52.1956  7055.51  83.4321
 52.2376  7191.35  84.3951
 52.2796  7170.52  84.0988
 52.3216  7034.21  83.9958
 52.3636  7070.79  83.7695
 52.4056  6967.54  83.0218
 52.4476  6970.09  83.405
 52.4896  7029.18  83.808
 52.5316  7020.97  83.8114
 52.5736  6947.06  83.0756
 52.6156  7180.69  84.8756
 52.6576  7056.23  83.5551
 52.6996  6792  82.9734
 52.7416  6905.99  83.5153
 52.7836  6923.04  83.5103
 52.8256  7039.95  83.4056
 52.8676  6831.19  82.7444
 52.9096  6986.82  83.7564
 52.9516  6944.05  83.8877
 52.9936  6959.17  84.3571
 53.0356  7009.9  83.6308
 53.0776  7065  84.2774
 53.1196  6967.98  83.796
 53.1616  6995.02  83.9997
 53.2036  7014.58  84.0835
 53.2456  7012.92  84.1819
 53.2876  7035.51  83.9897
 53.3296  7090.77  84.6598
 53.3716  7064.1  84.2494
 53.4136  7025.6  84.1768
 53.4556  6890.92  83.3895
 53.4976  6936.77  83.4989
 53.5396  6830.2  83.2613
 53.5816  6970.67  83.7398
 53.6236  6901.22  83.6851
 53.6656  6889.83  83.2168
 53.7076  7024.63  83.9751
 53.7496  6988.51  83.8996
 53.7916  6942.65  83.7631
 53.8336  6942.44  83.6514
 53.8756  6838.26  83.5796
 53.9176  6988.25  83.8043
 53.9596  6703.08  82.8492
 54.0016  6619.77  81.6584
 54.0436  6620.96  81.8912
 54.0856  6774.7  82.2563
 54.1276  6808.86  82.6664
 54.1696  6778.77  82.6474
 54.2116  6785.54  82.4491
 54.2536  6673.1  81.5617
 54.2956  6710.28  81.8491
 54.3376  6642.54  81.9229
 54.3796  6688.6  82.075
 54.4216  6620.66  81.7265
 54.4636  6653.83  81.9048
 54.5056  6785.61  82.5163
 54.5476  6649.29  82.0142
 54.5896  6705.49  82.2136
 54.6316  6694.63  81.9817
 54.6736  6692.08  82.0045
 54.7156  6682.09  82.0224
 54.7576  6520.51  80.9858
 54.7996  6647.15  81.9368
 54.8416  6631.68  81.8943
 54.8836  6657.71  82.1528
 54.9256  6615.01  81.6372
 54.9676  6494.89  80.7664
 55.0096  6675.36  81.9184
 55.0516  6412.81  80.4619
 55.0936  6574.85  81.1877
 55.1356  6528.24  80.939
 55.1776  6696.34  82.225
 55.2196  6638.43  81.6372
 55.2616  6667.7  82.0707
 55.3036  6509.75  81.262
 55.3456  6365.98  80.4829
 55.3876  6563.2  81.4349
 55.4296  6403.49  80.4566
 55.4716  6494.88  81.0457
 55.5136  6510.92  80.9199
 55.5556  6726.49  82.2994
 55.5976  6391.08  80.3092
 55.6396  6557.34  81.2734
 55.6816  6495.44  80.7693
 55.7236  6404.77  80.2634
 55.7656  6502.84  80.605
 55.8076  6472.45  80.4089
 55.8496  6445.79  80.5549
 55.8916  6531.81  81.2599
 55.9336  6548.83  81.2397
 55.9756  6495.2  80.7754
 56.0176  6413.99  80.421
 56.0596  6444.44  80.6113
 56.1016  6393.35  80.3369
 56.1436  6461.58  80.9869
 56.1856  6384.65  80.2482
 56.2276  6561.12  81.4032
 56.2696  6446.16  80.6681
 56.3116  6599.52  81.9943
 56.3536  6391.45  80.3517
 56.3956  6395.88  80.378
 56.4376  6402.26  80.4676
 56.4796  6314.39  79.7209
 56.5216  6329.18  80.1895
 56.5636  6372.98  80.0374
 56.6056  6511.03  81.1437
 56.6476  6385.98  79.959
 56.6896  6525.73  81.2966
 56.7316  6348.15  80.1028
 56.7736  6332.9  80.0117
 56.8156  6292.72  79.7666
 56.8576  6212.51  79.2021
 56.8996  6369.29  80.1023
 56.9416  6313.74  80.0589
 56.9836  6414.69  80.2245
 57.0256  6326.42  79.9852
 57.0676  6367.98  80.3625
 57.1096  6423.39  80.4823
 57.1516  6241.81  79.3673
 57.1936  6328.84  79.7184
 57.2356  6216.19  79.3211
 57.2776  6274.5  79.6589
 57.3196  6171.27  79.3294
 57.3616  6313.46  79.7514
 57.4036  6298.52  79.697
 57.4456  6402.28  80.3442
 57.4876  6338.98  79.8163
 57.5296  6269.23  79.6045
 57.5716  6325.06  80.0646
 57.6136  6244.92  79.3891
 57.6556  6275.09  79.7005
 57.6976  6257.6  79.4297
 57.7396  6083.18  78.6559
 57.7816  6089.5  79.0741
 57.8236  6303.5  80.2398
 57.8656  6295.78  79.8438
 57.9076  6244.07  79.5437
 57.9496  6243.85  79.8976
 57.9916  6275.96  79.6022
 58.0336  6285.32  79.9325
 58.0756  6311.58  79.7454
 58.1176  6349.34  79.9772
 58.1596  6198.54  79.6153
 58.2016  6066.46  77.983
 58.2436  6065.69  78.3866
 58.2856  5927.4  77.4117
 58.3276  5970.73  78.0533
 58.3696  5991.83  77.9498
 58.4116  5941.83  77.4918
 58.4536  6151.23  78.7282
 58.4956  6025.99  78.1046
 58.5376  6060.18  77.8939
 58.5796  5891.16  77.2235
 58.6216  6053.36  78.0955
 58.6636  6014.97  78.0577
 58.7056  5999.03  77.8078
 58.7476  5936.65  77.8459
 58.7896  5975.61  77.7436
 58.8316  5990.2  77.8364
 58.8736  5945.17  77.5555
 58.9156  5948.53  77.6164
 58.9576  6019.08  78.3913
 58.9996  6095.95  78.1443
 59.0416  6007.47  77.9416
 59.0836  5949.72  77.4741
 59.1256  5966.13  78.2842
 59.1676  5915.23  78.2508
 59.2096  6045.9  78.4293
 59.2516  6062.36  78.1163
 59.2936  6054.03  78.391
 59.3356  5867.42  77.0529
 59.3776  6161.94  79.1338
 59.4196  5930.3  77.5686
 59.4616  5833.12  76.7929
 59.5036  5839.68  76.871
 59.5456  6126.83  78.4293
 59.5876  6053.26  78.1483
 59.6296  5993.06  77.8277
 59.6716  5866.62  77.0594
 59.7136  5958.31  77.6476
 59.7556  5797.71  76.7277
 59.7976  5839.06  76.7473
 59.8396  5785.33  76.2899
 59.8816  5882.47  77.4657
 59.9236  6008.63  77.9368
 59.9656  5867.91  77.2742
 60.0076  5994.88  77.4671
 60.0496  5971.64  77.8177
 60.0916  5902.83  76.7929
 60.1336  5913.21  77.9561
 60.1756  5842.3  78.6521
 60.1996  0.0000000E+00  0.0000000E+00