File: docs/examples/opeando_xrd/IS17_D/Data/IS17_D/17_Da_f00053.xye
# /beamlines/bl04/projects/cycle2025-II/20250340211-lsimonelli/DATA/IS17_D/17_Da_f00053.xye : mythproc.py merge -s 0.006 -l 0.5 -f /beamlines/bl04/inhouse/ff/FlatField/ff_20Nov2024rod8mm60s_17keV.raw -b True -c true -o xye /beamlines/bl04/projects/cycle2025-II/20250340211-lsimonelli/DATA/IS17_D/17_Da_00053.dat
# IsMon = [6792076, 6794451, 6795466]  IsPos = [-1.5000, -2.4885, -3.4988]
# Wave = 0.4962  CalPath /beamlines/bl04/projects/cycle2025-II/20250340211-lsimonelli/DATA/Align/Si_Pos1_25keV_f00001.cal
# Date = 2025-09-24_08:18:56 Dt = 4.8000  Bin = 0.0060  <imon> = 6793998 +/- 1421 (Min/Max) 6792076 / 6795466
# icurr 252.7974  mocoIn 1.7247E-05  mocoOut 0.8095  i15 7.11101e+06  imon 6.794e+06  i7 6.6667  iEMpd_timer 4.8000  iEMpd_1 3.4699E-08  iEMpd_2 7.8632E-08  iEMpd_3 1.7105E-08  iEMpd_4 4.9506E-08  iEMhp_timer 4.8000  iEMhp_1 4.9390E-06  iEMhp_2 -2.5850E-08  iEMhp_3 -2.4912E-08  iEMhp_4 -2.1910E-08
#      9776
 1.5856  41289.1  208.681
 1.6276  48496.5  222.281
 1.6696  55378.9  236.693
 1.7116  63751.9  254.454
 1.7536  73289.1  271.661
 1.7956  77484.9  280.027
 1.8376  74038.9  274.163
 1.8796  62519.3  250.084
 1.9216  50338.7  225.295
 1.9636  42538.5  206.778
 2.0056  38358.4  195.101
 2.0476  35576.7  189.954
 2.0896  34511.3  185.991
 2.1316  33586.7  182.6
 2.1736  31697.9  178.799
 2.2156  32578.9  179.812
 2.2576  31418.7  177.215
 2.2996  29745.4  173.063
 2.3416  30316.3  173.323
 2.3836  29786.4  171.906
 2.4256  28723.5  169.361
 2.4676  28614.2  168.799
 2.5096  28620.5  168.873
 2.5516  27685  169.937
 2.5936  27706.3  166.555
 2.6356  27167.7  165.626
 2.6776  27190.3  164.578
 2.7196  26735.7  163.708
 2.7616  26607.3  163.09
 2.8036  26355.1  162.493
 2.8456  26306.4  162.965
 2.8876  25908.8  161.578
 2.9296  25303.3  159.831
 2.9716  25219.2  159.05
 3.0136  25001.7  158.431
 3.0556  24981.6  158.77
 3.0976  24775.2  157.035
 3.1396  24778.4  157.779
 3.1816  24313.1  156.218
 3.2236  24267.3  156.066
 3.2656  24244.2  155.02
 3.3076  23982.2  155.648
 3.3496  24290.2  155.819
 3.3916  24413.3  155.786
 3.4336  25100.8  158.553
 3.4756  25327.2  159.197
 3.5176  26044.9  161.223
 3.5596  25953.2  163.951
 3.6016  26147.3  161.59
 3.6436  25400.8  160.375
 3.6856  25085.1  157.659
 3.7276  24132.5  155.73
 3.7696  23907.2  154.997
 3.8116  23448.5  153.589
 3.8536  23469.8  153.594
 3.8956  23509.5  153.545
 3.9376  23366.9  153.337
 3.9796  23252.6  152.465
 4.0216  23442.3  152.11
 4.0636  23400.5  153.469
 4.1056  23553.5  153.601
 4.1476  23419.7  153.492
 4.1896  23686.3  154.212
 4.2316  23947  154.885
 4.2736  24240  155.611
 4.3156  24661.8  157.193
 4.3576  25400.1  159.456
 4.3996  25644.2  160.477
 4.4416  26090.9  161.453
 4.4836  26414.6  162.601
 4.5256  26978.1  164.954
 4.5676  26995.3  165.259
 4.6096  27429.8  165.593
 4.6516  27893.6  166.324
 4.6936  28096.4  167.742
 4.7356  28074.6  167.514
 4.7776  28166.4  167.612
 4.8196  27701.4  166.882
 4.8616  27393.6  165.557
 4.9036  27186.4  164.549
 4.9456  27006.1  164.655
 4.9876  26336.7  162.5
 5.0296  26818.4  163.794
 5.0716  26629.4  163.849
 5.1136  26767  164.128
 5.1556  27245.7  165.047
 5.1976  27426.2  165.593
 5.2396  27535.6  165.615
 5.2816  27624.8  166.352
 5.3236  27665.5  166.17
 5.3656  27159  165.574
 5.4076  26769.4  164.532
 5.4496  27004.4  164.726
 5.4916  26961.5  164.357
 5.5336  27258.3  165.264
 5.5756  27065.9  164.717
 5.6176  27095.3  164.232
 5.6596  27531.9  166.38
 5.7016  27473.5  165.621
 5.7436  27547.3  166.118
 5.7856  27441.2  165.858
 5.8276  27974.7  167.178
 5.8696  28041  167.442
 5.9116  27939.3  167.857
 5.9536  28185.4  168.347
 5.9956  28490.8  168.617
 6.0376  28629.5  169.665
 6.0796  28805.8  170.017
 6.1216  28979.6  170.732
 6.1636  29148.7  170.281
 6.2056  29055.4  170.68
 6.2476  29223.1  170.868
 6.2896  29626.6  171.901
 6.3316  29386.9  171.384
 6.3736  29504.2  171.613
 6.4156  29482.4  171.504
 6.4576  29773.2  171.892
 6.4996  30127.4  173.395
 6.5416  29917.5  172.93
 6.5836  30069.2  173.597
 6.6256  30114.4  173.29
 6.6676  30780.2  174.758
 6.7096  30591.1  175.087
 6.7516  30868.8  175.522
 6.7936  31156  175.759
 6.8356  31179.3  175.905
 6.8776  31598.5  177.895
 6.9196  31798.7  178.866
 6.9616  32103.8  179.13
 7.0036  32515.2  179.95
 7.0456  32759.5  179.906
 7.0876  32554.9  180.982
 7.1296  32231.6  179.289
 7.1716  32369.4  179.202
 7.2136  32068.1  178.142
 7.2556  32386.7  179.192
 7.2976  32490  179.981
 7.3396  32247.4  179.52
 7.3816  32238.5  179.718
 7.4236  32870.6  180.751
 7.4656  32937.4  180.411
 7.5076  33201.5  181.269
 7.5496  33033.5  181.352
 7.5916  32980.4  181.24
 7.6336  33426.3  182.359
 7.6756  33487.6  182.375
 7.7176  33770.3  183.44
 7.7596  33753.7  184.672
 7.8016  34199  188.095
 7.8436  34664.2  185.989
 7.8856  35068.1  186.678
 7.9276  35552.6  188.358
 7.9696  35528.7  188.61
 8.0116  36671  190.135
 8.0536  36796.9  190.717
 8.0956  36825.8  191.993
 8.1376  37287.8  192.652
 8.1796  37509.4  193.774
 8.2216  38519.4  195.08
 8.2636  38350.5  194.902
 8.3056  38364.6  195.721
 8.3476  38909.1  196.421
 8.3896  38724.4  196.039
 8.4316  38937.5  196.745
 8.4736  39080.2  196.56
 8.5156  38807.1  196.157
 8.5576  38552.2  196.499
 8.5996  38389.6  194.938
 8.6416  38402.8  196.26
 8.6836  38213.8  195.598
 8.7256  38725.8  196.34
 8.7676  38098.5  197.697
 8.8096  37762.3  194.106
 8.8516  37649.8  193.484
 8.8936  37504.4  192.955
 8.9356  37352.6  192.898
 8.9776  37403.2  193.125
 9.0196  37193.2  192.265
 9.0616  37478.3  192.455
 9.1036  36935.9  192.263
 9.1456  37155.1  192.169
 9.1876  37019.6  191.774
 9.2296  37159.8  191.524
 9.2716  36636.1  190.242
 9.3136  36332.1  189.433
 9.3556  36732.1  190.461
 9.3976  35282.7  187.202
 9.4396  35557.1  187.813
 9.4816  35308.3  187.018
 9.5236  35496.9  187.42
 9.5656  35149.5  186.826
 9.6076  34951.2  186.837
 9.6496  34684.7  186.049
 9.6916  34818.5  186.374
 9.7336  34689.6  185.809
 9.7756  34586.4  186.755
 9.8176  34011.9  184.745
 9.8596  33870  182.79
 9.9016  33394.5  181.494
 9.9436  33270.6  180.897
 9.9856  32777.1  179.954
 10.0276  32543  180.425
 10.0696  32746.4  180.013
 10.1116  32034.5  178.312
 10.1536  31635.8  176.873
 10.1956  31145.6  175.586
 10.2376  30826.1  174.189
 10.2796  30922.7  174.584
 10.3216  30826.2  174.432
 10.3636  30488.5  173.658
 10.4056  30338.4  173.628
 10.4476  30176.4  172.786
 10.4896  30045.1  171.859
 10.5316  29395.9  170.38
 10.5736  29143.6  170.382
 10.6156  28896.4  169.425
 10.6576  29046  168.419
 10.6996  28418.5  167.257
 10.7416  28506.4  167.754
 10.7836  28587.1  168.677
 10.8256  28106  167.685
 10.8676  28104.2  167.211
 10.9096  27804.6  166.358
 10.9516  27628.5  164.758
 10.9936  27784.9  165.423
 11.0356  27361.8  164.795
 11.0776  27289.7  163.884
 11.1196  26849.1  163.317
 11.1616  26627.7  162.322
 11.2036  26817.5  162.753
 11.2456  26723.7  163.172
 11.2876  26676.8  162.768
 11.3296  26305.9  161.518
 11.3716  26829.8  162.848
 11.4136  26618.9  163.078
 11.4556  26955.3  163.764
 11.4976  27058.1  163.037
 11.5396  27737.5  165.246
 11.5816  27906.5  166.212
 11.6236  27619.1  165.816
 11.6656  27204.4  163.484
 11.7076  26429.5  161.981
 11.7496  26059.4  164.829
 11.7916  25984.4  159.867
 11.8336  25603.9  159.609
 11.8756  25531  158.893
 11.9176  25574.6  158.683
 11.9596  25212.4  157.741
 12.0016  25092.4  158.164
 12.0436  25327  158.32
 12.0856  24900.8  157.51
 12.1276  24808.7  157.133
 12.1696  25028.8  156.954
 12.2116  25174.2  157.402
 12.2536  24545  156.229
 12.2956  24989.8  156.99
 12.3376  24782.4  156.556
 12.3796  24892.2  157.367
 12.4216  24568.7  155.551
 12.4636  24234.1  155.403
 12.5056  24715.7  156.2
 12.5476  24844.9  156.134
 12.5896  24664.1  156.204
 12.6316  24381.2  155.465
 12.6736  24321  155.764
 12.7156  24445.6  156.026
 12.7576  24674.5  157.001
 12.7996  24554.5  155.247
 12.8416  24414.8  155.865
 12.8836  24836.4  157.029
 12.9256  25373.4  157.709
 12.9676  25235.7  157.712
 13.0096  24940.8  157.91
 13.0516  25080.4  157.374
 13.0936  25122.1  157.621
 13.1356  25482.4  158.004
 13.1776  25194.7  158.109
 13.2196  25448.2  158.556
 13.2616  25188.3  158.056
 13.3036  25178.4  158.172
 13.3456  25174.2  158.135
 13.3876  25208.1  157.739
 13.4296  25417.2  158.54
 13.4716  25428.9  158.181
 13.5136  25338.6  158.058
 13.5556  25127.5  158.011
 13.5976  25401.2  159.009
 13.6396  25516.7  158.735
 13.6816  24951.5  157.346
 13.7236  25695.9  159.429
 13.7656  25025  157.888
 13.8076  25260.1  157.391
 13.8496  24836.3  156.853
 13.8916  24965.5  158.09
 13.9336  24767.4  156.682
 13.9756  24713.3  155.863
 14.0176  24501.3  155.869
 14.0596  24648.7  156.305
 14.1016  24469.5  156.132
 14.1436  24190.4  154.375
 14.1856  23812.9  153.455
 14.2276  23718.8  153.642
 14.2696  23940.8  154.195
 14.3116  23600.8  152.994
 14.3536  23279.6  152.134
 14.3956  23308  151.954
 14.4376  23315.4  151.75
 14.4796  23197.5  151.356
 14.5216  22905.7  151.214
 14.5636  22685.5  150.041
 14.6056  22946.7  150.476
 14.6476  22804.8  149.228
 14.6896  22398.4  148.437
 14.7316  21953.5  147.997
 14.7736  22010.5  147.328
 14.8156  21816.2  146.712
 14.8576  21538.7  145.626
 14.8996  21336.5  146.158
 14.9416  21047  145.154
 14.9836  21041  145.095
 15.0256  20874  143.428
 15.0676  20894.4  143.821
 15.1096  20885.2  143.522
 15.1516  20384.6  142.36
 15.1936  20223.4  141.214
 15.2356  20020  140.784
 15.2776  19873.4  139.85
 15.3196  19788.4  140.568
 15.3616  19697.7  139.994
 15.4036  19435.7  138.919
 15.4456  19793.8  139.839
 15.4876  19319.1  137.826
 15.5296  19198.3  137.684
 15.5716  18961  136.422
 15.6136  18864.2  136.412
 15.6556  18858.7  135.622
 15.6976  18807.2  135.507
 15.7396  18606.7  135.401
 15.7816  18566.6  134.754
 15.8236  18504  135.241
 15.8656  18358.8  134.5
 15.9076  17814  132.314
 15.9496  17963.4  135.688
 15.9916  18068.9  136.527
 16.0336  17528.2  131.359
 16.0756  17803.3  132.699
 16.1176  17858.8  132.813
 16.1596  17222.9  131.771
 16.2016  17510.6  131.594
 16.2436  17246.7  130.984
 16.2856  17171.4  130.246
 16.3276  16958.5  129.857
 16.3696  17174  130.494
 16.4116  16895.9  129.902
 16.4536  17226.7  130.937
 16.4956  16931.6  129.557
 16.5376  17044.5  130.175
 16.5796  16832.1  128.708
 16.6216  16916.1  129.342
 16.6636  16842.6  129.217
 16.7056  16805.6  128.94
 16.7476  16840.8  128.601
 16.7896  16704.6  128.837
 16.8316  16873.2  129.452
 16.8736  16738.4  129.198
 16.9156  16727.2  129.485
 16.9576  16554.6  129.628
 16.9996  16781.6  131.009
 17.0416  16886.2  129.742
 17.0836  16833.8  129.296
 17.1256  16313.7  127.295
 17.1676  16336.3  127.368
 17.2096  16387.3  127.448
 17.2516  16148.9  126.599
 17.2936  16329.8  127.339
 17.3356  15878.6  125.577
 17.3776  15907.4  125.867
 17.4196  16010.7  125.963
 17.4616  15774.1  124.955
 17.5036  15592  124.594
 17.5456  15346.4  124.259
 17.5876  15440.2  123.676
 17.6296  15586.7  124.065
 17.6716  15316.2  123.567
 17.7136  15266.9  123.519
 17.7556  15402.6  124.361
 17.7976  15135.4  122.878
 17.8396  14977.8  121.873
 17.8816  15003.2  122.524
 17.9236  14868.4  121.781
 17.9656  14831.8  122.327
 18.0076  15045  122.614
 18.0496  14873.8  121.047
 18.0916  14889.1  121.648
 18.1336  14883.3  121.726
 18.1756  15036.3  121.865
 18.2176  14764.8  120.995
 18.2596  14725.3  120.569
 18.3016  14884.6  121.475
 18.3436  14968.1  122.056
 18.3856  14627.2  120.563
 18.4276  14623.4  120.224
 18.4696  14626.9  120.328
 18.5116  14667.9  120.787
 18.5536  14756.8  121.508
 18.5956  14380.6  119.509
 18.6376  14472.2  120.297
 18.6796  14420.3  119.408
 18.7216  14457.1  120.118
 18.7636  14473  120.098
 18.8056  14416.1  119.804
 18.8476  14381.1  120.281
 18.8896  14450  119.902
 18.9316  14577.9  120.25
 18.9736  14317.6  119.033
 19.0156  14267.3  119.228
 19.0576  14277.2  118.134
 19.0996  14477  119.677
 19.1416  14131.3  118.632
 19.1836  14312.2  118.983
 19.2256  14186.2  118.668
 19.2676  14353.1  119.468
 19.3096  14258.9  119.316
 19.3516  14195.9  118.838
 19.3936  14203.1  118.942
 19.4356  14179.2  118.716
 19.4776  14163  118.743
 19.5196  14180  118.663
 19.5616  14074  118.48
 19.6036  14267.8  118.776
 19.6456  14217.9  118.695
 19.6876  14285  118.618
 19.7296  14158.7  118.553
 19.7716  14292.9  119.132
 19.8136  14366.2  119.795
 19.8556  14407.5  119.438
 19.8976  14422.7  119.567
 19.9396  14575.2  119.764
 19.9816  14813.8  120.988
 20.0236  15035.8  122.118
 20.0656  15334.8  123.317
 20.1076  15142.5  123.026
 20.1496  15156.9  123.09
 20.1916  15134.8  122.452
 20.2336  14672.4  120.546
 20.2756  14187.1  118.966
 20.3176  14292.8  119.151
 20.3596  14197.6  118.726
 20.4016  14056.8  117.937
 20.4436  13968.2  118.137
 20.4856  13823.6  117.317
 20.5276  13859.8  117.925
 20.5696  13778.6  117.133
 20.6116  13653.7  116.783
 20.6536  13732.7  116.672
 20.6956  13663  116.448
 20.7376  13680.9  116.757
 20.7796  13611.6  116.147
 20.8216  13740.1  116.4
 20.8636  13557.6  115.991
 20.9056  13627  116.241
 20.9476  13419.5  115.193
 20.9896  13610.3  115.869
 21.0316  13596.8  115.706
 21.0736  13439.8  115.561
 21.1156  13500.8  115.981
 21.1576  13513.3  116.089
 21.1996  13400.2  115.584
 21.2416  13335  115.13
 21.2836  13401.5  115.383
 21.3256  13147.9  114.373
 21.3676  13454.3  115.234
 21.4096  13398.2  115.362
 21.4516  13186.2  114.272
 21.4936  13009.1  113.755
 21.5356  13264.2  114.811
 21.5776  13257.6  114.612
 21.6196  13161  114.215
 21.6616  13018.7  113.701
 21.7036  13137.2  113.993
 21.7456  13330.7  114.903
 21.7876  13005.7  113.243
 21.8296  13065.6  113.358
 21.8716  13044.9  113.505
 21.9136  13346.5  115.012
 21.9556  13088.1  113.564
 21.9976  12964.1  113.038
 22.0396  12987.5  113.4
 22.0816  13008  114.033
 22.1236  13072.9  113.765
 22.1656  13016.3  113.693
 22.2076  12993  113.003
 22.2496  13079.8  113.411
 22.2916  13071.7  113.252
 22.3336  13160.6  114.36
 22.3756  12977.5  113.299
 22.4176  13033.1  113.396
 22.4596  12683.2  112.45
 22.5016  13034.1  113.485
 22.5436  12991.7  113.175
 22.5856  12957.2  113.275
 22.6276  12788.2  112.677
 22.6696  12845.4  113.274
 22.7116  12871.8  112.906
 22.7536  13018.8  113.524
 22.7956  13036  112.92
 22.8376  12906.3  112.884
 22.8796  12820.5  112.306
 22.9216  13120.6  114.169
 22.9636  12914.1  112.412
 23.0056  12843.7  112.24
 23.0476  12796.9  112.606
 23.0896  13156.6  113.547
 23.1316  13185  114.113
 23.1736  12978.6  116.216
 23.2156  13184.1  114.45
 23.2576  13100.3  114.221
 23.2996  13060.8  113.83
 23.3416  12903.3  113.672
 23.3836  12951  113.103
 23.4256  13057.1  113.685
 23.4676  13065.6  113.412
 23.5096  12957.6  113.624
 23.5516  12809.8  112.252
 23.5936  12864.2  113.407
 23.6356  13121.4  114.193
 23.6776  13015.2  113.941
 23.7196  12712.2  112.407
 23.7616  12999  113.36
 23.8036  12973.9  113.303
 23.8456  12916.8  112.601
 23.8876  12512.8  111.191
 23.9296  12411.5  111.228
 23.9716  12726.9  111.816
 24.0136  12778  112.95
 24.0556  12525.6  111.561
 24.0976  12451  111.028
 24.1396  12383.5  113.409
 24.1816  12522.3  112.772
 24.2236  12413.5  111.555
 24.2656  12312.2  110.567
 24.3076  12215.6  110.379
 24.3496  12309.3  110.695
 24.3916  12228.9  110.384
 24.4336  12345  111.12
 24.4756  12006.2  109.454
 24.5176  12184.5  109.906
 24.5596  11863.8  108.773
 24.6016  11983.5  109.412
 24.6436  12048.1  109.188
 24.6856  11893.6  108.25
 24.7276  11803.3  108.157
 24.7696  11865.1  108.554
 24.8116  11948.2  109.114
 24.8536  11886.8  108.823
 24.8956  11800.1  108.163
 24.9376  11633.5  107.585
 24.9796  11668.6  107.859
 25.0216  11467.6  107.041
 25.0636  11629.9  107.443
 25.1056  11506.7  107.296
 25.1476  11602.2  109.732
 25.1896  11604.3  108.178
 25.2316  11572.1  107.285
 25.2736  11475.7  106.496
 25.3156  11477  106.577
 25.3576  11485.7  107.041
 25.3996  11341.1  106.343
 25.4416  11429.8  106.744
 25.4836  11231.5  106.339
 25.5256  11418.3  106.578
 25.5676  11383.4  106.139
 25.6096  11208  105.899
 25.6516  11358.6  106.096
 25.6936  11285.6  106.08
 25.7356  11317.5  106.358
 25.7776  11509.5  106.931
 25.8196  11086.6  105.113
 25.8616  11280.9  105.949
 25.9036  11242.6  105.234
 25.9456  11204.9  105.659
 25.9876  11097  105.075
 26.0296  11364  106.064
 26.0716  11041.3  104.887
 26.1136  11268.6  105.898
 26.1556  11247.9  105.17
 26.1976  11053.5  105.196
 26.2396  11155.4  105.072
 26.2816  11112.5  105.234
 26.3236  11123.6  105.451
 26.3656  11023  104.699
 26.4076  11301.4  106.227
 26.4496  11679.8  107.465
 26.4916  11360.9  105.986
 26.5336  11143.7  105.301
 26.5756  11308.5  105.949
 26.6176  11034.3  104.689
 26.6596  10952.3  104.616
 26.7016  10966.1  104.435
 26.7436  10766.7  103.613
 26.7856  10796  103.733
 26.8276  10966.4  104.509
 26.8696  10941.2  104.262
 26.9116  10858.3  103.805
 26.9536  10789.1  103.522
 26.9956  10850.6  103.845
 27.0376  10801.3  103.834
 27.0796  10696.8  103.14
 27.1216  10579.5  102.567
 27.1636  10590.9  102.786
 27.2056  10627.9  102.849
 27.2476  10721.8  103.302
 27.2896  10645.5  103.043
 27.3316  10507.7  102.087
 27.3736  10685.5  103.217
 27.4156  10503.9  102.184
 27.4576  10576  102.76
 27.4996  10564.1  102.299
 27.5416  10496.5  102.287
 27.5836  10597.6  102.591
 27.6256  10775  103.613
 27.6676  10687.2  103.213
 27.7096  10493.4  102.14
 27.7516  10452.6  102.091
 27.7936  10368.2  101.856
 27.8356  10486.3  102.044
 27.8776  10435.7  101.848
 27.9196  10321.2  101.135
 27.9616  10448.1  101.945
 28.0036  10295.8  101.175
 28.0456  10427.8  101.953
 28.0876  10289.5  101.367
 28.1296  10279.4  101.157
 28.1716  10241.2  100.98
 28.2136  10330.3  101.381
 28.2556  10063.2  100.179
 28.2976  10162.5  100.662
 28.3396  10170.5  100.492
 28.3816  10197.9  100.614
 28.4236  10158.6  100.571
 28.4656  10010.8  99.8722
 28.5076  10111.4  100.01
 28.5496  10085.5  100.145
 28.5916  10287.4  100.949
 28.6336  10014.1  99.9422
 28.6756  10214.4  100.128
 28.7176  10078.1  100.01
 28.7596  9996.12  99.4949
 28.8016  9984.94  99.4778
 28.8436  9932.14  99.4593
 28.8856  10035.1  99.8187
 28.9276  10043.6  100.11
 28.9696  10076.2  99.9298
 29.0116  9970.11  99.5866
 29.0536  9848.17  99.1678
 29.0956  9997.66  99.6442
 29.1376  9903.23  99.1333
 29.1796  9919.83  99.2639
 29.2216  9960.35  99.306
 29.2636  9874.88  98.8689
 29.3056  9884.43  98.7889
 29.3476  9849.01  99.1407
 29.3896  10087.1  100.417
 29.4316  10191  100.262
 29.4736  10082.1  99.7881
 29.5156  10009.4  99.3514
 29.5576  9761.77  98.8579
 29.5996  9842.04  98.5152
 29.6416  9737.01  98.109
 29.6836  9894.97  98.8222
 29.7256  9945.07  99.6517
 29.7676  9822.86  98.693
 29.8096  9870.4  98.8694
 29.8516  9687.9  98.2932
 29.8936  9860.66  99.2585
 29.9356  9786.73  98.6383
 29.9776  9681.41  98.2612
 30.0196  9730.05  97.8872
 30.0616  9825.49  98.7483
 30.1036  9740  98.1404
 30.1456  9761  98.4811
 30.1876  9800.79  98.663
 30.2296  9751.85  98.3608
 30.2716  9840.56  98.4398
 30.3136  9882.49  99.5242
 30.3556  9756.3  98.9023
 30.3976  9568.64  99.46
 30.4396  9805.96  98.0014
 30.4816  9791.34  97.523
 30.5236  9617.2  96.674
 30.5656  9633.63  97.4087
 30.6076  9616.18  97.0956
 30.6496  9744.85  97.7831
 30.6916  9614.3  97.2155
 30.7336  9646.63  97.536
 30.7756  9681.35  97.8049
 30.8176  9575.13  97.1814
 30.8596  9706.46  97.6061
 30.9016  9707.98  97.4902
 30.9436  9730.67  97.8305
 30.9856  9752.11  98.0504
 31.0276  9485.8  96.3066
 31.0696  9462.08  96.7572
 31.1116  9500.5  96.9361
 31.1536  9634.3  97.4947
 31.1956  9579.13  97.3053
 31.2376  9333.2  96.0576
 31.2796  9429.96  96.0891
 31.3216  9445.91  96.1174
 31.3636  9473.85  96.9548
 31.4056  9584.83  98.855
 31.4476  9506.78  96.3181
 31.4896  9421.96  96.3974
 31.5316  9327.8  95.3544
 31.5736  9453.19  95.766
 31.6156  9386.58  95.4513
 31.6576  9584.77  96.5553
 31.6996  9449.95  95.5367
 31.7416  9351.96  95.9783
 31.7836  9394.79  95.3401
 31.8256  9449.37  95.9692
 31.8676  9543.23  96.3575
 31.9096  9327.26  95.4815
 31.9516  9182.85  95.0431
 31.9936  9297.55  95.4563
 32.0356  9444.05  96.2758
 32.0776  9254.82  95.189
 32.1196  9293.34  95.3916
 32.1616  9383.04  95.3886
 32.2036  9211.77  95.0303
 32.2456  9064.16  94.6437
 32.2876  9260.39  94.983
 32.3296  9207.26  94.8464
 32.3716  9123.87  94.5177
 32.4136  9313.78  95.7079
 32.4556  9369.03  95.4216
 32.4976  9252.62  94.7146
 32.5396  9253.85  94.7562
 32.5816  9120.37  94.1921
 32.6236  9277.15  95.0722
 32.6656  9403.32  96.2618
 32.7076  9149.51  94.606
 32.7496  9145.63  94.2515
 32.7916  9228.68  94.6331
 32.8336  9298.81  95.0963
 32.8756  9289.81  94.7652
 32.9176  9089.71  94.223
 32.9596  9065.6  94.1766
 33.0016  9235.9  94.8517
 33.0436  9263.53  95.1628
 33.0856  9104.59  94.4155
 33.1276  8945.62  93.323
 33.1696  9157.28  94.2613
 33.2116  9181.26  94.6145
 33.2536  9098.33  94.1868
 33.2956  9076.71  94.1555
 33.3376  9013.92  93.647
 33.3796  9091.14  94.1778
 33.4216  9198.08  94.3204
 33.4636  9033.52  93.6189
 33.5056  8945.61  93.4095
 33.5476  9042.83  93.9057
 33.5896  9129.39  94.0897
 33.6316  9002.96  93.7945
 33.6736  8961.02  93.8109
 33.7156  8972.25  93.9135
 33.7576  8993.42  93.6516
 33.7996  9138.23  94.1658
 33.8416  8980.47  93.5329
 33.8836  9003.92  93.4322
 33.9256  8942.16  93.1795
 33.9676  9000.62  93.3737
 34.0096  8806.23  92.6765
 34.0516  8915.2  92.8782
 34.0936  8873.67  92.9362
 34.1356  9097.47  93.8355
 34.1776  8922.94  92.9403
 34.2196  8817.54  92.5692
 34.2616  8843.06  92.8401
 34.3036  8730.33  92.499
 34.3456  8794.67  92.5912
 34.3876  9060.16  94.0295
 34.4296  8865.89  92.6155
 34.4716  8951.9  93.2141
 34.5136  8868.25  92.9775
 34.5556  8837.13  93.0749
 34.5976  8782.85  92.6278
 34.6396  8798.01  92.3826
 34.6816  8752.41  92.2531
 34.7236  8796.68  92.2724
 34.7656  8803.45  92.5085
 34.8076  8647.89  91.9979
 34.8496  8730.3  92.2966
 34.8916  8877.27  92.942
 34.9336  8890.45  92.9756
 34.9756  8853.2  92.7362
 35.0176  8894.89  93.4629
 35.0596  8696.47  92.2411
 35.1016  8760.22  92.3362
 35.1436  8974.06  93.1348
 35.1856  8737.21  92.027
 35.2276  8772.1  92.385
 35.2696  8684.48  92.1174
 35.3116  8754.75  92.5837
 35.3536  8621.59  91.6234
 35.3956  8641.77  91.3957
 35.4376  8711.91  92.3296
 35.4796  8678.2  92.2156
 35.5216  8654.04  92.0439
 35.5636  8512.42  92.0378
 35.6056  8622.83  91.6385
 35.6476  8641.8  91.6367
 35.6896  8708.98  92.1555
 35.7316  8576.28  91.3514
 35.7736  8598.2  91.6665
 35.8156  8515.26  91.2196
 35.8576  8591.72  91.8756
 35.8996  8766.68  92.7723
 35.9416  9090.38  93.8786
 35.9836  8589.57  91.7941
 36.0256  8657.16  92.0706
 36.0676  8648  91.555
 36.1096  8505.06  91.1561
 36.1516  8548.92  91.2762
 36.1936  8407.7  90.3704
 36.2356  8593.85  92.0076
 36.2776  8616.92  91.5977
 36.3196  8590.14  91.1298
 36.3616  8557.16  91.0862
 36.4036  8519.89  90.9501
 36.4456  8520.15  91.1626
 36.4876  8377.54  90.3362
 36.5296  8539.79  91.2457
 36.5716  8470.56  91.6667
 36.6136  8706.31  91.6765
 36.6556  8616.91  91.4062
 36.6976  8585.23  91.7432
 36.7396  8478.72  90.9048
 36.7816  8542.92  91.6277
 36.8236  8446.47  91.0349
 36.8656  8349.04  90.5769
 36.9076  8484.63  91.3138
 36.9496  8457.2  91.0204
 36.9916  8527.21  91.0247
 37.0336  8535.56  91.3865
 37.0756  8487.93  90.9204
 37.1176  8352.57  90.4658
 37.1596  8333.32  90.3586
 37.2016  8336.02  90.561
 37.2436  8299.52  89.7258
 37.2856  8411.86  90.5918
 37.3276  8336.5  89.5287
 37.3696  8317.84  90.3233
 37.4116  8415.68  90.7543
 37.4536  8368.08  90.3645
 37.4956  8296.96  90.0224
 37.5376  8349.82  91.9024
 37.5796  8362.77  91.908
 37.6216  8160.13  89.0579
 37.6636  8148.9  88.8972
 37.7056  8209.87  89.4205
 37.7476  8364.89  89.7888
 37.7896  8284.07  89.8554
 37.8316  8119.09  89.1365
 37.8736  8440.57  90.391
 37.9156  8297.46  89.6278
 37.9576  8337.65  89.7359
 37.9996  8102.51  88.1789
 38.0416  8135.38  89.1694
 38.0836  8302.54  89.982
 38.1256  8214.69  89.4598
 38.1676  8104.91  89.0004
 38.2096  8326.49  89.8295
 38.2516  8389.19  90.3631
 38.2936  8239.95  89.3634
 38.3356  8367.44  89.9534
 38.3776  8132.94  88.9732
 38.4196  8238.99  89.3983
 38.4616  8158.16  89.202
 38.5036  8300.03  89.8102
 38.5456  8066.39  89.3735
 38.5876  8114.02  89.6742
 38.6296  8090.47  88.5179
 38.6716  8122.2  88.4796
 38.7136  8051.65  88.0376
 38.7556  8177.72  89.2331
 38.7976  8066.56  88.5671
 38.8396  8045.31  88.9056
 38.8816  8099.42  88.9837
 38.9236  8108.49  88.8387
 38.9656  8097.86  88.6941
 39.0076  8028.28  87.7139
 39.0496  8100.23  88.6541
 39.0916  8218.85  88.9333
 39.1336  8022.1  88.288
 39.1756  8083.12  88.6916
 39.2176  8118.29  89.4202
 39.2596  7954.75  88.4351
 39.3016  8073.25  88.6615
 39.3436  8043.24  88.9253
 39.3856  8035.25  88.3254
 39.4276  8131.81  89.3562
 39.4696  8018.81  88.3569
 39.5116  8016.94  88.8669
 39.5536  8135.9  89.9408
 39.5956  8227.19  89.5326
 39.6376  8142.33  89.0745
 39.6796  7995.59  88.0067
 39.7216  8184.94  89.1444
 39.7636  8160.9  89.5905
 39.8056  8125.71  89.1752
 39.8476  8056.63  89.0512
 39.8896  8091.38  88.8758
 39.9316  8105.46  89.2021
 39.9736  8194.39  89.2553
 40.0156  8085.87  88.4838
 40.0576  8144.08  89.1623
 40.0996  8160.97  88.4249
 40.1416  8146.6  89.1538
 40.1836  8177.52  89.2113
 40.2256  8212.91  89.4552
 40.2676  8134.36  89.1958
 40.3096  8115.04  88.9466
 40.3516  8185.39  89.4497
 40.3936  8220.94  89.1931
 40.4356  8059.32  88.5009
 40.4776  8196.53  89.5114
 40.5196  8211.58  89.8866
 40.5616  8167.3  89.2828
 40.6036  8059.64  88.9502
 40.6456  8178.81  89.202
 40.6876  8173.77  89.1643
 40.7296  8201.82  89.4573
 40.7716  8279.93  90.0133
 40.8136  8077.92  88.8519
 40.8556  8260.26  89.9861
 40.8976  8225.59  89.715
 40.9396  8120.41  89.4952
 40.9816  8135.51  88.8433
 41.0236  8166.15  88.7944
 41.0656  8267.45  89.8972
 41.1076  8121.56  88.8664
 41.1496  8199.17  89.2018
 41.1916  8172.93  89.3863
 41.2336  8026.54  88.5706
 41.2756  8138.8  88.7879
 41.3176  8121.98  89.3208
 41.3596  8186.39  89.3982
 41.4016  8153.48  89.477
 41.4436  8185.86  89.4414
 41.4856  8254.9  89.9818
 41.5276  8098.17  89.1448
 41.5696  8037.59  88.4148
 41.6116  8043.45  88.8687
 41.6536  8105.51  89.0695
 41.6956  8183.13  89.4755
 41.7376  8209.1  89.7117
 41.7796  8062.92  88.846
 41.8216  8123.61  89.3709
 41.8636  8103.26  89.1947
 41.9056  8035.79  88.6044
 41.9476  8117.52  89.3003
 41.9896  8142.53  89.0964
 42.0316  8138.9  89.1639
 42.0736  8133.94  89.2796
 42.1156  8043  88.5841
 42.1576  8006.82  88.4768
 42.1996  8025.81  88.7327
 42.2416  8062.71  88.5092
 42.2836  8061.11  88.6207
 42.3256  7972.46  88.2472
 42.3676  8070.58  88.5922
 42.4096  8054.75  88.47
 42.4516  8008.19  88.2997
 42.4936  7925.03  87.9086
 42.5356  7968.96  88.2824
 42.5776  8139.93  89.1627
 42.6196  8059.95  88.783
 42.6616  7899.86  88.0692
 42.7036  8025.63  88.1384
 42.7456  7912.1  87.8772
 42.7876  7919.61  88.0186
 42.8296  7998.13  88.2826
 42.8716  7897.12  87.8835
 42.9136  7975.1  88.0624
 42.9556  8008  88.4166
 42.9976  7972.52  88.1876
 43.0396  7922.97  87.638
 43.0816  7943.96  88.1381
 43.1236  7858.95  87.7249
 43.1656  8095.31  88.8542
 43.2076  7918.82  87.9968
 43.2496  7912.12  87.7654
 43.2916  7850.73  87.7925
 43.3336  7898.59  87.8975
 43.3756  7948.14  87.9243
 43.4176  7912.93  87.8131
 43.4596  7815.6  87.1274
 43.5016  7874.92  87.8652
 43.5436  7930.75  88.0759
 43.5856  7885.83  87.8521
 43.6276  7747.81  86.9757
 43.6696  7865.96  87.7789
 43.7116  7966.56  87.9469
 43.7536  7894.31  88.0386
 43.7956  7774.13  88.5742
 43.8376  7902.83  87.8126
 43.8796  7789.9  87.2657
 43.9216  7736.64  86.8842
 43.9636  7885.67  87.8226
 44.0056  7832.72  87.7674
 44.0476  7707  86.6857
 44.0896  7755.07  87.301
 44.1316  7733.35  86.8479
 44.1736  7730.29  86.8098
 44.2156  7814.81  87.1331
 44.2576  7780.27  87.2716
 44.2996  7719.39  86.9009
 44.3416  7851.02  87.3891
 44.3836  7582.44  86.2191
 44.4256  7634.94  86.1548
 44.4676  7674.74  86.5376
 44.5096  7599.47  86.2552
 44.5516  7725.78  86.9359
 44.5936  7550.09  85.8891
 44.6356  7546.07  85.6079
 44.6776  7708.97  86.8483
 44.7196  7681.11  87
 44.7616  7613.89  87.9606
 44.8036  7652.45  86.799
 44.8456  7572.56  86.346
 44.8876  7571.72  86.1897
 44.9296  7734.3  86.5587
 44.9716  7590.21  86.1809
 45.0136  7601.53  86.1713
 45.0556  7567.35  86.0603
 45.0976  7617.41  86.3945
 45.1396  7617.96  86.1487
 45.1816  7565.55  85.8035
 45.2236  7680.06  86.3409
 45.2656  7567.68  86.2032
 45.3076  7667.66  86.5689
 45.3496  7430.15  85.5161
 45.3916  7429.95  85.7858
 45.4336  7623.46  86.7397
 45.4756  7560.65  86.2369
 45.5176  7633.3  86.2623
 45.5596  7688.33  86.683
 45.6016  7558.15  86.3792
 45.6436  7538.37  85.4395
 45.6856  7422.79  85.4393
 45.7276  7450.06  86.9095
 45.7696  7566.25  87.2599
 45.8116  7519.48  86.4166
 45.8536  7473.81  86.0557
 45.8956  7566.27  85.9322
 45.9376  7693.94  86.111
 45.9796  7528.71  85.882
 46.0216  7621.84  86.7501
 46.0636  7637.41  85.974
 46.1056  7567.64  85.5569
 46.1476  7480.28  85.6616
 46.1896  7518.93  86.0349
 46.2316  7428.98  85.3853
 46.2736  7275.1  84.7059
 46.3156  7478.11  85.6216
 46.3576  7413.67  85.4537
 46.3996  7471.51  85.9479
 46.4416  7493.41  85.6236
 46.4836  7339.62  85.1199
 46.5256  7498.96  85.9772
 46.5676  7437.28  85.7382
 46.6096  7385.84  85.374
 46.6516  7410.71  84.5607
 46.6936  7439.7  85.2199
 46.7356  7509.69  85.7263
 46.7776  7359.5  85.7029
 46.8196  7338.97  85.3166
 46.8616  7166.88  84.1159
 46.9036  7212.84  84.0485
 46.9456  7320.1  84.3112
 46.9876  7328.98  84.4514
 47.0296  7232.79  84.5754
 47.0716  7272.22  84.6263
 47.1136  7322.52  84.5974
 47.1556  7218.9  83.8666
 47.1976  7335.33  84.6896
 47.2396  7243.66  84.4787
 47.2816  7178.16  83.805
 47.3236  7236.62  84.5166
 47.3656  7342.53  85.0673
 47.4076  7286.44  84.4686
 47.4496  7290.77  84.6632
 47.4916  7165.6  84.1249
 47.5336  7314.82  84.8073
 47.5756  7293.56  84.8015
 47.6176  7253.05  84.4548
 47.6596  7185.18  83.7788
 47.7016  7430.91  85.0132
 47.7436  7331.17  84.7778
 47.7856  7341.67  84.8703
 47.8276  7163.51  83.8818
 47.8696  7277.77  84.6422
 47.9116  7268.11  84.2927
 47.9536  7296.54  84.3933
 47.9956  7161.86  84.3226
 48.0376  7133.07  83.9252
 48.0796  7290.8  84.9818
 48.1216  7366.02  85.2299
 48.1636  7383.26  84.9052
 48.2056  7206.56  84.1469
 48.2476  7208.51  84.4648
 48.2896  7206.83  84.3621
 48.3316  7163.1  84.0487
 48.3736  7091.38  83.651
 48.4156  7085.98  83.4758
 48.4576  7113.73  83.9264
 48.4996  7160.76  83.6651
 48.5416  7283.43  84.7074
 48.5836  7131.39  83.4924
 48.6256  7157.73  83.8554
 48.6676  7119.56  84.1415
 48.7096  7161.61  83.6529
 48.7516  7147.56  83.7259
 48.7936  7039.15  83.1474
 48.8356  7172.25  83.9835
 48.8776  7125.81  84.2046
 48.9196  7247.84  84.3701
 48.9616  7112.86  83.9552
 49.0036  7127.96  84.3961
 49.0456  7147.66  84.484
 49.0876  7035.4  83.4611
 49.1296  6995.82  83.2845
 49.1716  6905.64  82.6187
 49.2136  7139.73  83.9337
 49.2556  7089.91  83.6803
 49.2976  7072.14  83.6419
 49.3396  6975.38  83.12
 49.3816  7086.99  83.2151
 49.4236  7048.98  83.3993
 49.4656  6964.15  82.924
 49.5076  7024.37  83.0367
 49.5496  6990.95  82.9036
 49.5916  7087.29  83.385
 49.6336  7070.33  83.4939
 49.6756  7059.2  83.6586
 49.7176  7020.56  83.3741
 49.7596  6999.63  83.0147
 49.8016  7092.65  83.4877
 49.8436  6930.59  82.8178
 49.8856  6933.05  82.8429
 49.9276  6968.43  83.1501
 49.9696  7018.91  83.436
 50.0116  6949.47  83.1575
 50.0536  6948.01  83.083
 50.0956  6904.95  82.9071
 50.1376  6950.13  82.871
 50.1796  6876.11  82.7002
 50.2216  6909.41  82.8961
 50.2636  6932.11  82.6509
 50.3056  6880.33  82.5091
 50.3476  6963.85  83.0294
 50.3896  6911.75  82.6963
 50.4316  6986.26  82.9748
 50.4736  6798.83  82.0728
 50.5156  6914.37  82.7542
 50.5576  6833.86  82.0315
 50.5996  6942.77  82.9678
 50.6416  6931.04  82.829
 50.6836  6953.04  83.0186
 50.7256  7021.27  83.3542
 50.7676  6950.17  83.2047
 50.8096  6914.34  82.5586
 50.8516  6875.18  82.7459
 50.8936  6839.94  82.3157
 50.9356  6846.04  82.4589
 50.9776  6815.15  82.4216
 51.0196  6735.17  82.0642
 51.0616  6775.5  81.6375
 51.1036  6825.46  82.2922
 51.1456  6840.22  82.291
 51.1876  6865.69  81.7861
 51.2296  6767.97  81.8387
 51.2716  6731.72  81.324
 51.3136  6723.62  81.7207
 51.3556  6804.74  81.8453
 51.3976  6751.37  81.6755
 51.4396  6591.36  81.0059
 51.4816  6722.71  81.6604
 51.5236  6740.46  81.8496
 51.5656  6736.25  81.4308
 51.6076  6828.58  82.0712
 51.6496  6748.07  81.7744
 51.6916  6708.08  81.8908
 51.7336  6650.06  81.6231
 51.7756  6732.06  81.8255
 51.8176  6756.48  82.0797
 51.8596  6571.47  80.9626
 51.9016  6972.24  82.9969
 51.9436  6678.81  82.6874
 51.9856  6610.5  82.6938
 52.0276  6690.96  81.7083
 52.0696  6708.56  81.882
 52.1116  6836.16  82.7691
 52.1536  6644.91  81.4457
 52.1956  6798.85  81.8942
 52.2376  6741.43  81.721
 52.2796  6676.26  81.1326
 52.3216  6633.73  81.5687
 52.3636  6790.1  82.0972
 52.4056  6669.64  81.2193
 52.4476  6636.82  81.3886
 52.4896  6537.17  80.8257
 52.5316  6554.05  80.9775
 52.5736  6674.02  81.437
 52.6156  6579.81  81.2419
 52.6576  6625.7  80.9609
 52.6996  6430.57  80.7198
 52.7416  6618.45  81.7494
 52.7836  6570  81.3285
 52.8256  6696.08  81.3145
 52.8676  6438.44  80.3191
 52.9096  6607.07  81.4488
 52.9516  6565.22  81.5623
 52.9936  6575.6  82.017
 53.0356  6564.58  80.9508
 53.0776  6506  80.8741
 53.1196  6521.44  81.0732
 53.1616  6481.31  80.8694
 53.2036  6279.28  79.5573
 53.2456  6414.94  80.5162
 53.2876  6486.18  80.6622
 53.3296  6453.9  80.787
 53.3716  6458.95  80.5688
 53.4136  6557.11  81.3233
 53.4556  6413.7  80.4586
 53.4976  6487.3  80.7697
 53.5396  6431.48  80.8127
 53.5816  6386.19  80.1623
 53.6236  6391.52  80.5406
 53.6656  6370.53  80.0365
 53.7076  6468.11  80.6058
 53.7496  6444.22  80.5802
 53.7916  6456.77  80.7869
 53.8336  6388.26  80.2541
 53.8756  6373.94  80.7115
 53.9176  6392.54  80.1766
 53.9596  6488.7  81.5476
 54.0016  6444.94  80.6001
 54.0436  6460.11  80.9101
 54.0856  6566.01  80.9928
 54.1276  6432.8  80.3692
 54.1696  6384.74  80.2367
 54.2116  6415.23  80.1833
 54.2536  6464.16  80.305
 54.2956  6490.39  80.5123
 54.3376  6316.17  79.9076
 54.3796  6402.18  80.3485
 54.4216  6503.27  81.0214
 54.4636  6406.42  80.3784
 54.5056  6448.99  80.4679
 54.5476  6404.73  80.5252
 54.5896  6448.48  80.6237
 54.6316  6434.31  80.399
 54.6736  6397.95  80.1956
 54.7156  6446.65  80.5724
 54.7576  6415.96  80.3764
 54.7996  6332.13  80.0042
 54.8416  6394.03  80.4263
 54.8836  6318.98  80.0707
 54.9256  6436.89  80.5598
 54.9676  6365.1  79.9651
 55.0096  6353.61  79.9631
 55.0516  6474.35  80.8826
 55.0936  6457.76  80.4743
 55.1356  6292.15  79.4784
 55.1776  6374.52  80.2698
 55.2196  6362.59  79.9749
 55.2616  6365.38  80.205
 55.3036  6360.35  80.3382
 55.3456  6307.6  80.1479
 55.3876  6295.75  79.8212
 55.4296  6408.56  80.5067
 55.4716  6372.18  80.3111
 55.5136  6377.86  80.1024
 55.5556  6286.3  79.5986
 55.5976  6362.91  80.138
 55.6396  6354.47  79.9541
 55.6816  6319.18  79.6903
 55.7236  6387.93  80.156
 55.7656  6413.89  80.0804
 55.8076  6400.03  79.9774
 55.8496  6252.08  79.4782
 55.8916  6332.46  80.0474
 55.9336  6311.46  79.7627
 55.9756  6190.78  78.8877
 56.0176  6282.84  79.6242
 56.0596  6293.03  79.6761
 56.1016  6333.16  79.9634
 56.1436  6231.15  79.5547
 56.1856  6376.94  80.2172
 56.2276  6266.32  79.5717
 56.2696  6275.3  79.5974
 56.3116  6211.51  79.6019
 56.3536  6341.48  80.087
 56.3956  6277.47  79.6696
 56.4376  6307.19  79.8905
 56.4796  6376.7  80.1285
 56.5216  6367.64  80.4407
 56.5636  6402.66  80.2563
 56.6056  6193.76  79.1656
 56.6476  6319  79.5934
 56.6896  6296.23  79.8965
 56.7316  6265.74  79.6198
 56.7736  6324.39  79.9805
 56.8156  6325.82  79.9895
 56.8576  6255.51  79.4809
 56.8996  6261.55  79.4598
 56.9416  6302.27  80.0299
 56.9836  6200.97  78.8907
 57.0256  6214.71  79.2942
 57.0676  6171.76  79.1496
 57.1096  6323.73  79.9037
 57.1516  6323.77  79.9272
 57.1936  6309.97  79.6237
 57.2356  6284.78  79.7882
 57.2776  6326.5  80.0083
 57.3196  6279.41  80.0804
 57.3616  6297.84  79.6876
 57.4036  6227.18  79.2959
 57.4456  6227.16  79.2651
 57.4876  6221.83  79.0912
 57.5296  6223.5  79.3407
 57.5716  6158.83  79.0121
 57.6136  6309.06  79.7858
 57.6556  6222.61  79.3868
 57.6976  6334.93  79.9222
 57.7396  6176.21  79.2835
 57.7816  6215.38  79.8956
 57.8236  6221.25  79.7217
 57.8656  6190.78  79.1904
 57.9076  6246.85  79.5782
 57.9496  6191.91  79.5757
 57.9916  6228.32  79.3217
 58.0336  6194.21  79.3808
 58.0756  6297.02  79.6179
 58.1176  6280.9  79.5609
 58.1596  6190.42  79.5501
 58.2016  6351.73  79.7893
 58.2436  6282.61  79.7722
 58.2856  6329.36  79.9846
 58.3276  6260.18  79.9262
 58.3696  6172.95  79.1193
 58.4116  6356.4  80.1425
 58.4536  6272.4  79.4999
 58.4956  6164.51  78.9946
 58.5376  6265.2  79.2036
 58.5796  6138.35  78.8197
 58.6216  6352.57  79.9986
 58.6636  6279.38  79.7546
 58.7056  6301.4  79.7477
 58.7476  6254.23  79.901
 58.7896  6223.43  79.3419
 58.8316  6183.43  79.0834
 58.8736  6234.12  79.4112
 58.9156  6229.73  79.4336
 58.9576  6284.12  80.0965
 58.9996  6408.02  80.1
 59.0416  6452.19  80.7634
 59.0836  6251.91  79.4274
 59.1256  6220.04  79.928
 59.1676  6228.74  80.2815
 59.2096  6280.36  79.9265
 59.2516  6343.07  79.8952
 59.2936  6361.92  80.3505
 59.3356  6264.26  79.6069
 59.3776  6308.1  80.0577
 59.4196  6311.97  80.0171
 59.4616  6198.68  79.1536
 59.5036  6178.58  79.0589
 59.5456  6514.81  80.8652
 59.5876  6363.04  80.1138
 59.6296  6296.38  79.7637
 59.6716  6375.94  80.3257
 59.7136  6373.9  80.3008
 59.7556  6248.32  79.6446
 59.7976  6178.67  78.9386
 59.8396  6342.53  79.8702
 59.8816  6246.78  79.82
 59.9236  6240.66  79.4183
 59.9656  6201.69  79.4336
 60.0076  6342.08  79.6697
 60.0496  6329.59  80.1069
 60.0916  6424.88  80.1076
 60.1336  6201.76  79.8263
 60.1756  6176.17  80.859
 60.1996  0.0000000E+00  0.0000000E+00