File: docs/examples/opeando_xrd/IS17_D/Data/IS17_D/17_Db_f00031.xye
# /beamlines/bl04/projects/cycle2025-II/20250340211-lsimonelli/DATA/IS17_D/17_Db_f00031.xye : mythproc.py merge -s 0.006 -l 0.5 -f /beamlines/bl04/inhouse/ff/FlatField/ff_20Nov2024rod8mm60s_17keV.raw -b True -c true -o xye /beamlines/bl04/projects/cycle2025-II/20250340211-lsimonelli/DATA/IS17_D/17_Db_00031.dat
# IsMon = [6779106, 6783459, 6783048]  IsPos = [-1.5000, -2.4885, -3.4986]
# Wave = 0.4962  CalPath /beamlines/bl04/projects/cycle2025-II/20250340211-lsimonelli/DATA/Align/Si_Pos1_25keV_f00001.cal
# Date = 2025-09-24_02:21:11 Dt = 4.8000  Bin = 0.0060  <imon> = 6781871 +/- 1962 (Min/Max) 6779106 / 6783459
# icurr 252.3205  mocoIn 1.7208E-05  mocoOut 0.8072  i15 7.10013e+06  imon 6.78187e+06  i7 6.6667  iEMpd_timer 4.8000  iEMpd_1 3.5984E-08  iEMpd_2 7.7921E-08  iEMpd_3 1.6839E-08  iEMpd_4 4.8568E-08  iEMhp_timer 4.8000  iEMhp_1 4.9294E-06  iEMhp_2 -2.5609E-08  iEMhp_3 -2.3698E-08  iEMhp_4 -2.2820E-08
#      9776
 1.5856  44112.1  215.71
 1.6276  50873.6  227.678
 1.6696  56587.7  239.277
 1.7116  64215.1  255.392
 1.7536  72206.1  269.663
 1.7956  76297.2  277.89
 1.8376  72924.4  272.109
 1.8796  62701.8  250.472
 1.9216  52144.2  229.314
 1.9636  44440.4  211.363
 2.0056  40130  199.568
 2.0476  37719.2  195.602
 2.0896  36042.1  190.083
 2.1316  35371  187.4
 2.1736  33234.8  183.094
 2.2156  34051.1  183.841
 2.2576  32732.8  180.895
 2.2996  31947.5  179.366
 2.3416  32048.4  178.214
 2.3836  31435.2  176.611
 2.4256  30146  173.515
 2.4676  29349.3  170.964
 2.5096  29770  172.242
 2.5516  28289  171.688
 2.5936  28321  168.375
 2.6356  27570.6  166.831
 2.6776  27463.6  165.408
 2.7196  27282.6  165.349
 2.7616  27169.2  164.797
 2.8036  26804.9  163.858
 2.8456  26815.6  164.53
 2.8876  26349.9  162.926
 2.9296  25641.9  160.878
 2.9716  25667.2  160.455
 3.0136  25381.7  159.625
 3.0556  25304.7  159.762
 3.0976  25401.1  158.991
 3.1396  25101.7  158.776
 3.1816  24695.2  157.414
 3.2236  24496.3  156.765
 3.2656  24489.5  155.793
 3.3076  24098.3  156.017
 3.3496  24629.8  156.888
 3.3916  25070.5  157.864
 3.4336  25087.6  158.502
 3.4756  25848.2  160.833
 3.5176  26020.6  161.127
 3.5596  25746.2  163.279
 3.6016  26197.8  161.74
 3.6436  25105.9  159.435
 3.6856  24949.2  157.24
 3.7276  23807.6  154.667
 3.7696  23835.4  154.746
 3.8116  23436.6  153.547
 3.8536  23387.6  153.319
 3.8956  23399.1  153.176
 3.9376  22987.9  152.119
 3.9796  23115.3  151.999
 4.0216  23294.7  151.619
 4.0636  23309.3  153.136
 4.1056  23303.9  152.778
 4.1476  23457.5  153.591
 4.1896  23482.8  153.526
 4.2316  23775.3  154.321
 4.2736  24272.2  155.719
 4.3156  24274.4  155.952
 4.3576  25269.6  159.019
 4.3996  25194.4  158.857
 4.4416  25835.4  160.655
 4.4836  26157.2  161.81
 4.5256  26885.9  164.673
 4.5676  26674.5  164.266
 4.6096  27114.2  164.64
 4.6516  27647.9  165.58
 4.6936  27780.6  166.803
 4.7356  27999  167.28
 4.7776  27683.8  166.163
 4.8196  27628.7  166.664
 4.8616  26962.1  164.256
 4.9036  26973.6  163.892
 4.9456  26817.2  164.064
 4.9876  26054.3  161.614
 5.0296  26492.7  162.807
 5.0716  26353  162.984
 5.1136  26327.5  162.778
 5.1556  26677.8  163.311
 5.1976  27095.6  164.583
 5.2396  27084  164.234
 5.2816  27180.4  165.011
 5.3236  27108  164.474
 5.3656  26685.1  164.122
 5.4076  26567.4  163.897
 5.4496  26513.3  163.223
 5.4916  26629.3  163.339
 5.5336  26640.1  163.373
 5.5756  26671.5  163.5
 5.6176  26632.8  162.822
 5.6596  27050.3  164.917
 5.7016  26993.8  164.163
 5.7436  27114.5  164.808
 5.7856  26971.4  164.441
 5.8276  27222.7  164.911
 5.8696  27665.2  166.32
 5.9116  27299.8  165.888
 5.9536  27712.8  166.916
 5.9956  27848.6  166.712
 6.0376  27819.8  167.244
 6.0796  28160.7  168.097
 6.1216  27838.6  167.322
 6.1636  28288.4  167.739
 6.2056  28051.3  167.703
 6.2476  28460.9  168.619
 6.2896  28774.3  169.402
 6.3316  28674.4  169.284
 6.3736  28668.3  169.15
 6.4156  28614.4  168.947
 6.4576  28893.4  169.328
 6.4996  28932.5  169.912
 6.5416  28919.2  170.008
 6.5836  29108.7  170.795
 6.6256  29078.3  170.275
 6.6676  29500.5  171.065
 6.7096  29647.2  172.366
 6.7516  29901  172.746
 6.7936  30228.7  172.859
 6.8356  29978.4  172.468
 6.8776  30136.2  173.716
 6.9196  30386.8  174.84
 6.9616  31097  176.283
 7.0036  31176.5  176.205
 7.0456  31072.7  175.213
 7.0876  31704.8  178.592
 7.1296  31019.9  175.873
 7.1716  31221  175.99
 7.2136  30785.3  174.533
 7.2556  30894  174.997
 7.2976  31120.7  176.134
 7.3396  30935.3  175.809
 7.3816  30864.9  175.837
 7.4236  31074.8  175.739
 7.4656  31045.6  175.11
 7.5076  31516.2  176.594
 7.5496  31276.1  176.455
 7.5916  31405.2  176.861
 7.6336  31802.8  177.859
 7.6756  31676.4  177.359
 7.7176  32394.5  179.683
 7.7596  32226.4  180.418
 7.8016  32765.8  184.163
 7.8436  32181.1  179.194
 7.8856  32557.2  179.854
 7.9276  33076.9  181.678
 7.9696  33186.2  182.275
 8.0116  34077.4  183.64
 8.0536  34417.6  184.441
 8.0956  34274.3  185.212
 8.1376  34625.4  185.642
 8.1796  34778.9  186.578
 8.2216  35397.7  186.998
 8.2636  35512.1  187.546
 8.3056  35415.7  188.044
 8.3476  36255.2  189.596
 8.3896  35737.9  188.754
 8.4316  35755.7  188.528
 8.4736  36481.9  189.911
 8.5156  35762.5  188.299
 8.5576  35667  188.998
 8.5996  35350.3  187.06
 8.6416  35454.3  188.566
 8.6836  35111.7  187.492
 8.7256  35463.2  187.888
 8.7676  35607.2  191.157
 8.8096  35897.5  189.279
 8.8516  35948.2  189.051
 8.8936  35091.4  186.679
 8.9356  35687.9  188.589
 8.9776  35847.6  189.075
 9.0196  35477.3  187.789
 9.0616  35366.1  186.997
 9.1036  34861  186.801
 9.1456  34483.6  185.123
 9.1876  34824  185.988
 9.2296  34424.1  184.362
 9.2716  34344.9  184.191
 9.3136  34164.2  183.697
 9.3556  34489  184.551
 9.3976  33503.6  182.408
 9.4396  33522.6  182.357
 9.4816  33226.3  181.417
 9.5236  33107.8  180.987
 9.5656  32882.3  180.722
 9.6076  32025.2  178.858
 9.6496  32264.2  179.412
 9.6916  31945.7  178.47
 9.7336  32329.3  179.347
 9.7756  32299.8  180.458
 9.8176  31752.3  178.467
 9.8596  32203.9  178.216
 9.9016  31763.3  176.972
 9.9436  30908.8  174.32
 9.9856  30871.6  174.663
 10.0276  30724.2  175.291
 10.0696  31032.6  175.226
 10.1116  30063.8  172.73
 10.1536  30236.2  172.889
 10.1956  29470.5  170.784
 10.2376  29611.2  170.717
 10.2796  29288.1  169.88
 10.3216  28927.6  168.963
 10.3636  28907.2  169.081
 10.4056  28373.9  167.904
 10.4476  28419.3  167.668
 10.4896  28829.2  168.315
 10.5316  28520.2  167.811
 10.5736  28238.6  167.714
 10.6156  28208.4  167.388
 10.6576  27916.7  165.094
 10.6996  27615.9  164.904
 10.7416  27105.1  163.584
 10.7836  26609.8  162.717
 10.8256  26493.1  162.785
 10.8676  26420.9  162.11
 10.9096  26331.8  161.878
 10.9516  25994.8  159.807
 10.9936  25934.6  159.827
 11.0356  25660.1  159.567
 11.0776  25557.8  158.598
 11.1196  25139.2  158.043
 11.1616  24896.2  156.945
 11.2036  25145.4  157.584
 11.2456  25062.3  158.017
 11.2876  25276.6  158.437
 11.3296  24835.1  156.952
 11.3716  25038.9  157.327
 11.4136  24887.2  157.68
 11.4556  25159.6  158.195
 11.4976  25558.4  158.462
 11.5396  25838.9  159.491
 11.5816  26208.5  161.064
 11.6236  25719.4  160.008
 11.6656  25549.2  158.418
 11.7076  24426  155.715
 11.7496  24390  159.541
 11.7916  24091.9  153.913
 11.8336  23750.3  153.713
 11.8756  23695.9  153.071
 11.9176  23621.7  152.748
 11.9596  23866.9  153.475
 12.0016  23453.9  152.893
 12.0436  23566.2  152.719
 12.0856  23228.4  152.108
 12.1276  23320.7  152.365
 12.1696  23306.4  151.446
 12.2116  23261.7  151.303
 12.2536  23131.7  151.661
 12.2956  22856.6  150.131
 12.3376  23261.4  151.661
 12.3796  23225.2  152.023
 12.4216  23100.6  150.821
 12.4636  22765.6  150.643
 12.5056  22906.3  150.386
 12.5476  23072.5  150.444
 12.5896  22914.6  150.559
 12.6316  23017.7  151.06
 12.6736  22703.8  150.353
 12.7156  23002.8  151.329
 12.7576  23091.9  151.867
 12.7996  23187.1  150.837
 12.8416  22930.8  151.041
 12.8836  23045.4  151.234
 12.9256  23543.9  151.924
 12.9676  23338.4  151.652
 13.0096  23641.3  153.75
 13.0516  23512.2  152.359
 13.0936  23555.3  152.628
 13.1356  23916.6  153.053
 13.1776  23488.2  152.674
 13.2196  23652.2  152.853
 13.2616  23440.6  152.473
 13.3036  23856.4  153.963
 13.3456  23355.4  152.303
 13.3876  23875.5  153.492
 13.4296  23470.3  152.333
 13.4716  23848.2  153.189
 13.5136  23606.6  152.539
 13.5556  23474.2  152.723
 13.5976  23724.2  153.707
 13.6396  23538.8  152.466
 13.6816  23833.9  153.774
 13.7236  23960.4  153.87
 13.7656  25711.5  159.845
 13.8076  26546.3  161.089
 13.8496  25095.3  157.443
 13.8916  23984.7  154.857
 13.9336  23166.3  151.503
 13.9756  23325.4  151.413
 14.0176  22969.6  150.917
 14.0596  23133.7  151.384
 14.1016  23008.1  151.395
 14.1436  23144.5  150.99
 14.1856  22279.1  148.425
 14.2276  22348.1  149.13
 14.2696  22415.1  149.209
 14.3116  21914.4  147.436
 14.3536  21677.3  146.801
 14.3956  21559.2  146.12
 14.4376  21872.8  146.976
 14.4796  21665.4  146.283
 14.5216  21415.9  146.212
 14.5636  21244.7  145.199
 14.6056  21581.9  145.909
 14.6476  21221.1  143.951
 14.6896  20992.6  143.706
 14.7316  20592.2  143.35
 14.7736  20641.7  142.669
 14.8156  20229.1  141.254
 14.8576  20249.1  141.192
 14.8996  19999.3  141.491
 14.9416  19526.2  139.826
 14.9836  19707.3  140.452
 15.0256  19156  137.395
 15.0676  18935.3  136.909
 15.1096  18990.6  136.853
 15.1516  18746.6  136.515
 15.1936  18512.5  135.101
 15.2356  18434.4  135.09
 15.2776  18276.3  134.109
 15.3196  17890.7  133.651
 15.3616  17806  133.1
 15.4036  18039.8  133.833
 15.4456  18143.2  133.654
 15.4876  17643.5  131.71
 15.5296  17709.6  132.237
 15.5716  17470.9  130.956
 15.6136  17349.6  130.818
 15.6556  17317.8  129.96
 15.6976  17258  129.811
 15.7396  17069.3  129.686
 15.7816  16924.7  128.666
 15.8236  16734.9  128.605
 15.8656  17045.6  129.598
 15.9076  16695.5  128.079
 15.9496  17343.1  133.338
 15.9916  17036.8  132.543
 16.0336  17233.8  130.233
 16.0756  17010.8  129.696
 16.1176  16718.5  128.485
 16.1596  16305.8  128.199
 16.2016  16306  126.988
 16.2436  16450.9  127.935
 16.2856  16475.2  127.559
 16.3276  15919.4  125.813
 16.3696  16252.7  126.943
 16.4116  16259.5  127.416
 16.4536  16157  126.817
 16.4956  16251.1  126.932
 16.5376  16083  126.455
 16.5796  15906.6  125.133
 16.6216  16058.4  125.998
 16.6636  15704  124.777
 16.7056  15939.5  125.58
 16.7476  15814.7  124.751
 16.7896  15995  126.063
 16.8316  15909.4  125.711
 16.8736  15992.1  126.29
 16.9156  15808.1  125.879
 16.9576  15703.4  126.236
 16.9996  15833.9  127.209
 17.0416  15976.8  126.191
 17.0836  15886.2  125.601
 17.1256  15684  124.809
 17.1676  15663.3  124.678
 17.2096  15476.7  123.851
 17.2516  15574.6  124.331
 17.2936  15371.6  123.56
 17.3356  15221.2  122.94
 17.3776  15079.1  122.551
 17.4196  15018.3  121.999
 17.4616  15215.1  122.706
 17.5036  14792  121.346
 17.5456  14651.8  121.399
 17.5876  14847.3  121.268
 17.6296  15029.2  121.827
 17.6716  14727.5  121.178
 17.7136  14514.9  120.432
 17.7556  14496.8  120.644
 17.7976  14394.6  119.817
 17.8396  14513.3  119.952
 17.8816  14198.4  119.195
 17.9236  14324.4  119.511
 17.9656  14235.2  119.809
 18.0076  14259.6  119.354
 18.0496  14092.1  117.812
 18.0916  14159.4  118.631
 18.1336  14186.6  118.834
 18.1756  14232.6  118.591
 18.2176  14106.2  118.271
 18.2596  14006.5  117.586
 18.3016  14261.5  118.909
 18.3436  14269.5  119.172
 18.3856  14216.1  118.862
 18.4276  14085.8  117.998
 18.4696  13895.5  117.281
 18.5116  14009.1  118.031
 18.5536  13929.4  118.051
 18.5956  13738.4  116.807
 18.6376  13672  116.916
 18.6796  13774  116.703
 18.7216  13837.7  117.508
 18.7636  13671.7  116.739
 18.8056  13538.7  116.086
 18.8476  13547.2  116.444
 18.8896  13698.5  116.736
 18.9316  13619.6  116.22
 18.9736  13533.8  115.718
 19.0156  13492.2  115.93
 19.0576  13560.6  115.115
 19.0996  13726.3  116.521
 19.1416  13483.7  115.88
 19.1836  13448.9  115.336
 19.2256  13379.4  115.254
 19.2676  13567.5  116.149
 19.3096  13334.5  115.383
 19.3516  13478.7  115.783
 19.3936  13269.7  115.023
 19.4356  13647.8  116.477
 19.4776  13372.5  115.379
 19.5196  13498.3  115.774
 19.5616  13246.2  114.941
 19.6036  13349.6  114.762
 19.6456  13387.1  115.169
 19.6876  13400.6  114.868
 19.7296  13559.6  116.015
 19.7716  13425.1  115.459
 19.8136  13656.9  116.794
 19.8556  13709.3  116.505
 19.8976  13578.2  115.996
 19.9396  13697.2  116.105
 19.9816  13762.9  116.624
 20.0236  13934  117.534
 20.0656  14083.3  118.165
 20.1076  14221  119.229
 20.1496  14118.8  118.791
 20.1916  13933.6  117.478
 20.2336  13663  116.296
 20.2756  13364.4  115.458
 20.3176  13227.6  114.608
 20.3596  13102.2  114.049
 20.4016  13060.8  113.677
 20.4436  13049  114.19
 20.4856  13061.7  114.037
 20.5276  12914.9  113.845
 20.5696  12851  113.123
 20.6116  12810.2  113.113
 20.6536  12713  112.252
 20.6956  12724.4  112.384
 20.7376  12679.5  112.393
 20.7796  12813.4  112.672
 20.8216  12812.5  112.396
 20.8636  12763.6  112.554
 20.9056  12632.7  111.9
 20.9476  12724.2  112.169
 20.9896  12709.2  111.962
 21.0316  12707.5  111.853
 21.0736  12590  111.85
 21.1156  12477.4  111.501
 21.1576  12741.7  112.718
 21.1996  12642  112.266
 21.2416  12642.7  112.095
 21.2836  12643  112.065
 21.3256  12628.3  112.081
 21.3676  12607.5  111.532
 21.4096  12351.5  110.746
 21.4516  12449.7  111.021
 21.4936  12180.2  110.06
 21.5356  12490.3  111.413
 21.5776  12550.2  111.509
 21.6196  12420.5  110.974
 21.6616  12303.1  110.528
 21.7036  12282.8  110.209
 21.7456  12344.4  110.565
 21.7876  12315.5  110.204
 21.8296  12277.5  109.882
 21.8716  12386.3  110.583
 21.9136  12309.9  110.448
 21.9556  12274.4  109.965
 21.9976  12179.9  109.576
 22.0396  12253.9  110.157
 22.0816  12244.9  110.626
 22.1236  12279.1  110.252
 22.1656  12126.7  109.754
 22.2076  11900.4  108.143
 22.2496  11947  108.384
 22.2916  12054.6  108.747
 22.3336  11781.2  108.197
 22.3756  11910.2  108.537
 22.4176  11893.3  108.318
 22.4596  11640.3  107.728
 22.5016  11801.3  107.99
 22.5436  11884.1  108.243
 22.5856  12257.5  110.175
 22.6276  12351.7  110.722
 22.6696  11980.6  109.403
 22.7116  11933.7  108.709
 22.7536  11991.9  108.952
 22.7956  11995.6  108.317
 22.8376  11799.8  107.936
 22.8796  11855.3  107.992
 22.9216  12062.7  109.471
 22.9636  11776.4  107.339
 23.0056  11963  108.317
 23.0476  12014.5  109.113
 23.0896  12282.2  109.706
 23.1316  12032.2  109.011
 23.1736  11986.7  111.674
 23.2156  12482.5  111.302
 23.2576  12506.8  111.615
 23.2996  12266.8  110.307
 23.3416  12433.2  111.589
 23.3836  12230.1  109.888
 23.4256  12409.4  110.836
 23.4676  12145.7  109.35
 23.5096  12138.6  109.964
 23.5516  12100.5  109.102
 23.5936  12326  111.018
 23.6356  12426  111.136
 23.6776  12185.3  110.578
 23.7196  12258.2  110.389
 23.7616  12275.1  110.162
 23.8036  12390.5  110.742
 23.8456  12111.2  109.034
 23.8876  12105.8  109.371
 23.9296  12112.7  109.883
 23.9716  11929.6  108.262
 24.0136  12037.3  109.646
 24.0556  11943.1  108.93
 24.0976  11795.3  108.081
 24.1396  11767.1  110.502
 24.1816  11827  109.565
 24.2236  11858.3  109.019
 24.2656  11855.5  108.479
 24.3076  11652.3  107.818
 24.3496  11707.1  107.945
 24.3916  11636.8  107.68
 24.4336  11812.6  108.689
 24.4756  11724  108.165
 24.5176  11534.2  106.911
 24.5596  11530.9  107.225
 24.6016  11499.8  107.176
 24.6436  11520.4  106.786
 24.6856  11496.9  106.422
 24.7276  11343.1  106.023
 24.7696  11297.8  105.926
 24.8116  11223.2  105.746
 24.8536  11192.5  105.6
 24.8956  11161.7  105.198
 24.9376  11159.2  105.358
 24.9796  11130.9  105.336
 25.0216  11005.6  104.863
 25.0636  11053.9  104.744
 25.1056  10849.7  104.189
 25.1476  10944.4  106.516
 25.1896  10847.4  104.574
 25.2316  10934.3  104.172
 25.2736  10832.9  103.452
 25.3156  10838.7  103.553
 25.3576  10710.4  103.368
 25.3996  10794.8  103.767
 25.4416  10891.2  104.199
 25.4836  10623.9  103.416
 25.5256  10696.2  103.147
 25.5676  10688.2  102.834
 25.6096  10555.7  102.767
 25.6516  10714.8  103.046
 25.6936  10701.1  103.3
 25.7356  10673.3  103.292
 25.7776  10617.2  102.7
 25.8196  10557.1  102.57
 25.8616  10556.5  102.5
 25.9036  10637.4  102.36
 25.9456  10452.7  102.045
 25.9876  10723  103.286
 26.0296  10786.1  103.33
 26.0716  10570  102.629
 26.1136  10456.7  102.009
 26.1556  10631.2  102.158
 26.1976  10380.5  101.946
 26.2396  10459.8  101.746
 26.2816  10522.9  102.408
 26.3236  10413.5  101.939
 26.3656  10676.8  103.039
 26.4076  10559.3  102.662
 26.4496  10717.5  103.035
 26.4916  10791.6  103.277
 26.5336  11088.2  105.035
 26.5756  11088.4  104.908
 26.6176  10587.4  102.532
 26.6596  10534.8  102.589
 26.7016  10411.1  101.781
 26.7436  10571.6  102.665
 26.7856  10239.5  101.025
 26.8276  10372.7  101.639
 26.8696  10220.2  100.763
 26.9116  10256.9  100.879
 26.9536  10329.3  101.29
 26.9956  10094.4  100.162
 27.0376  10230  101.058
 27.0796  10129.7  100.329
 27.1216  10265.4  101.014
 27.1636  10000.1  99.8681
 27.2056  10089.8  100.203
 27.2476  10136.2  100.412
 27.2896  10084.5  100.207
 27.3316  10068.3  99.9136
 27.3736  9905.85  99.3673
 27.4156  10001.8  99.6986
 27.4576  10008.3  99.9467
 27.4996  10045.2  99.7467
 27.5416  9929.04  99.4626
 27.5836  9919.57  99.2619
 27.6256  9909.56  99.3767
 27.6676  9862.66  99.1408
 27.7096  10102.6  100.225
 27.7516  9848.57  99.0907
 27.7936  10142.2  100.704
 27.8356  10011.6  99.6621
 27.8776  10125.1  100.306
 27.9196  9950.12  99.2928
 27.9616  9885.92  99.1717
 28.0036  9776.41  98.5875
 28.0456  9764.36  98.6566
 28.0876  9639.57  98.1126
 28.1296  9762.5  98.5777
 28.1716  9863.79  99.097
 28.2136  9779.41  98.6385
 28.2556  9777.32  98.7424
 28.2976  9704.64  98.3673
 28.3396  9620.98  97.742
 28.3816  9695  98.0859
 28.4236  9509.1  97.2984
 28.4656  9606.7  97.8309
 28.5076  9613.28  97.5044
 28.5496  9594.04  97.6593
 28.5916  9600.67  97.5208
 28.6336  9508.99  97.3889
 28.6756  9666.69  97.3998
 28.7176  9547.52  97.3422
 28.7596  9479.47  96.8857
 28.8016  9471.75  96.9578
 28.8436  9479.44  97.152
 28.8856  9450.02  96.8635
 28.9276  9554.81  97.64
 28.9696  9439.4  96.7108
 29.0116  9371.99  96.5314
 29.0536  9319.16  96.4734
 29.0956  9436.81  96.7915
 29.1376  9435.42  96.7532
 29.1796  9440.77  96.8319
 29.2216  9367.22  96.2972
 29.2636  9476.82  96.86
 29.3056  9318.21  95.8988
 29.3476  9312.35  96.3948
 29.3896  9308.1  96.4837
 29.4316  9159.5  95.0515
 29.4736  9221.85  95.4341
 29.5156  9105.56  94.7586
 29.5576  9048.05  95.1706
 29.5996  9105.96  94.7567
 29.6416  8987.3  94.2502
 29.6836  9297.77  95.7912
 29.7256  9051.81  95.0679
 29.7676  9086.77  94.9198
 29.8096  9021.47  94.5233
 29.8516  8918.55  94.3023
 29.8936  9100.79  95.353
 29.9356  9013.64  94.6579
 29.9776  8929.6  94.3606
 30.0196  8906.47  93.6511
 30.0616  9110.72  95.0858
 30.1036  9057.61  94.638
 30.1456  9088.08  95.0366
 30.1876  8949.52  94.2748
 30.2296  8912.98  94.031
 30.2716  9083.2  94.5733
 30.3136  8951.03  94.4616
 30.3556  9099.05  95.5119
 30.3976  9188.95  97.436
 30.4396  9472.57  96.3152
 30.4816  9248.31  94.7845
 30.5236  9242.15  94.7518
 30.5656  9184.53  95.1108
 30.6076  9126.14  94.5665
 30.6496  9254.65  95.2847
 30.6916  9039.13  94.2622
 30.7336  9120.98  94.8299
 30.7756  9038.95  94.7037
 30.8176  9113.69  94.7859
 30.8596  9209.02  95.0379
 30.9016  9203.88  94.9094
 30.9436  9279.71  95.5185
 30.9856  9337.6  95.9317
 31.0276  9142.33  94.5494
 31.0696  9239.29  95.4776
 31.1116  9168.62  95.2058
 31.1536  8972.52  94.0705
 31.1956  9103.7  94.8399
 31.2376  8890.11  93.7461
 31.2796  9024.73  94.0035
 31.3216  9057.01  94.0923
 31.3636  9058.3  94.7873
 31.4056  8974.05  95.623
 31.4476  9111.89  94.2919
 31.4896  9009.4  94.2542
 31.5316  9000.01  93.6656
 31.5736  9109.3  94.0213
 31.6156  9081.47  93.8879
 31.6576  9139.98  94.2603
 31.6996  9077.84  93.6014
 31.7416  9010.85  94.2049
 31.7836  9012.96  93.3729
 31.8256  8947.17  93.3643
 31.8676  9118.91  94.1706
 31.9096  8905.93  93.2854
 31.9516  8777.07  92.9075
 31.9936  8869.14  93.2266
 32.0356  8984.39  93.8756
 32.0776  9141.5  94.5896
 32.1196  9105.39  94.4244
 32.1616  9079.33  93.8276
 32.2036  9046.93  94.1705
 32.2456  8867.99  93.6085
 32.2876  8823.08  92.7021
 32.3296  8829.5  92.8712
 32.3716  8696.15  92.2716
 32.4136  8638.2  92.1639
 32.4556  8828.54  92.6221
 32.4976  8791.47  92.3355
 32.5396  8616.72  91.4221
 32.5816  8708.52  91.9463
 32.6236  8645.46  91.7668
 32.6656  8821.79  93.2405
 32.7076  8640.81  91.9372
 32.7496  8639.26  91.6033
 32.7916  8715.47  91.9739
 32.8336  8647.47  91.6997
 32.8756  8828.71  92.4696
 32.9176  8483.57  91.0335
 32.9596  8584.25  91.6412
 33.0016  8638.81  91.7092
 33.0436  8520.63  91.2297
 33.0856  8521.33  91.3469
 33.1276  8490.74  90.9083
 33.1696  8722.81  91.9831
 33.2116  8691.37  92.0459
 33.2536  8754.37  92.3654
 33.2956  8581.6  91.5331
 33.3376  8484.16  90.8275
 33.3796  8652.71  91.8799
 33.4216  8627.97  91.3364
 33.4636  8553.96  91.101
 33.5056  8457.2  90.6649
 33.5476  8497.01  91.013
 33.5896  8704.7  91.8977
 33.6316  8645.37  91.9105
 33.6736  8360.32  90.6245
 33.7156  8405.48  90.9013
 33.7576  8553.03  91.3377
 33.7996  8461.98  90.6152
 33.8416  8352.4  90.2124
 33.8836  8355.85  90.0097
 33.9256  8529.79  90.9994
 33.9676  8606.02  91.3012
 34.0096  8386.43  90.4409
 34.0516  8417.96  90.2456
 34.0936  8424.91  90.5547
 34.1356  8452.7  90.4421
 34.1776  8268.75  89.4491
 34.2196  8318.02  89.8949
 34.2616  8329.01  90.1598
 34.3036  8460.56  91.0554
 34.3456  8385.64  90.4056
 34.3876  8356.41  90.3065
 34.4296  8388.25  90.085
 34.4716  8379.76  90.1837
 34.5136  8328.92  90.105
 34.5556  8293  90.1597
 34.5976  8504.44  91.1517
 34.6396  8256.89  89.4961
 34.6816  8350.55  90.0991
 34.7236  8414.56  90.2318
 34.7656  8333.41  89.99
 34.8076  8195.99  89.5774
 34.8496  8179.83  89.3432
 34.8916  8206.41  89.3563
 34.9336  8266.49  89.6627
 34.9756  8493.07  90.8319
 35.0176  8356.53  90.5967
 35.0596  8390.8  90.5992
 35.1016  8380.84  90.3048
 35.1436  8493.99  90.6014
 35.1856  8316.12  89.7707
 35.2276  8295.23  89.8196
 35.2696  8319.56  90.1433
 35.3116  8167.64  89.4278
 35.3536  8299.09  89.8831
 35.3956  8175.03  88.8979
 35.4376  8309.29  90.1831
 35.4796  8266.53  89.982
 35.5216  8236.37  89.719
 35.5636  7953.03  88.956
 35.6056  8058.54  88.5798
 35.6476  8235.87  89.4432
 35.6896  8225.88  89.5696
 35.7316  8111.24  88.84
 35.7736  8113.9  89.0365
 35.8156  8226.08  89.6516
 35.8576  8223.7  89.8876
 35.8996  8288.92  90.2162
 35.9416  8207.92  89.2777
 35.9836  8098.8  89.1262
 36.0256  8358.44  90.451
 36.0676  8338.51  89.8603
 36.1096  8168.2  89.3101
 36.1516  8323.87  90.0548
 36.1936  8235.47  89.4068
 36.2356  8325.72  90.5651
 36.2776  8147.5  89.0573
 36.3196  8149.56  88.7395
 36.3616  8162.21  88.953
 36.4036  8024.5  88.2669
 36.4456  8130.43  89.0548
 36.4876  7972.64  88.1277
 36.5296  8002.04  88.3281
 36.5716  8062.92  89.43
 36.6136  7903.15  87.3435
 36.6556  7944.06  87.7596
 36.6976  7862.86  87.7943
 36.7396  7833.51  87.4627
 36.7816  7871.46  87.9497
 36.8236  7796.31  87.4516
 36.8656  7813.17  87.6144
 36.9076  7637.72  86.6339
 36.9496  7755.96  87.3118
 36.9916  7803.45  87.0647
 37.0336  7925.05  88.0557
 37.0756  7725.07  86.7377
 37.1176  7681.23  86.8434
 37.1596  7626.12  86.4451
 37.2016  7726.59  87.1856
 37.2436  7840.04  87.199
 37.2856  7719.19  86.7749
 37.3276  7831.18  86.7698
 37.3696  7707.48  86.9411
 37.4116  7864.33  87.7301
 37.4536  7721.98  86.7978
 37.4956  7794.19  87.2562
 37.5376  7956.79  89.7402
 37.5796  7873.98  89.193
 37.6216  7796.68  87.0584
 37.6636  7892.79  87.4899
 37.7056  7883.41  87.6159
 37.7476  7862.51  87.0525
 37.7896  7807.14  87.2463
 37.8316  7829.96  87.5318
 37.8736  7845.44  87.1448
 37.9156  7904.88  87.4657
 37.9576  7822.97  87.0686
 37.9996  7849.12  86.7924
 38.0416  7784.03  87.2285
 38.0836  7954.97  88.0776
 38.1256  7733.77  86.8237
 38.1676  7626.78  86.3376
 38.2096  7842.98  87.1739
 38.2516  8010.88  88.2289
 38.2936  8028.07  88.2107
 38.3356  7678.85  86.2013
 38.3776  7647.31  86.276
 38.4196  7805.02  87.0017
 38.4616  7749.22  86.9444
 38.5036  7866.32  87.4429
 38.5456  7613.07  86.817
 38.5876  7689.83  87.2865
 38.6296  7846.5  87.1544
 38.6716  7790.07  86.647
 38.7136  7689  86.0202
 38.7556  7743.06  86.824
 38.7976  7728.51  86.6755
 38.8396  7679.71  86.8457
 38.8816  7741.55  87.0009
 38.9236  7694.75  86.5393
 38.9656  7790.62  86.9864
 39.0076  7889.45  86.945
 39.0496  7790.72  86.9509
 39.0916  7820.31  86.7583
 39.1336  7718.46  86.5879
 39.1756  7714.73  86.6257
 39.2176  7579.93  86.3961
 39.2596  7724.62  87.1451
 39.3016  7645.53  86.2903
 39.3436  7598.49  86.4251
 39.3856  7775.24  86.8716
 39.4276  7859.45  87.8541
 39.4696  7835.95  87.3392
 39.5116  7851.66  87.9374
 39.5536  7835.26  88.2624
 39.5956  7656.34  86.3638
 39.6376  7676.25  86.3237
 39.6796  7609.19  85.8518
 39.7216  7664.99  86.2584
 39.7636  7679.31  86.8918
 39.8056  7753.2  87.1101
 39.8476  7562.74  86.2816
 39.8896  7722.51  86.8205
 39.9316  7627.28  86.5217
 39.9736  7656.53  86.2731
 40.0156  7681.39  86.2453
 40.0576  7626.77  86.2798
 40.0996  7764.81  86.2619
 40.1416  7681.5  86.5717
 40.1836  7717.84  86.6747
 40.2256  7764.54  86.9639
 40.2676  7609.43  86.2586
 40.3096  7845.79  87.4599
 40.3516  7609.6  86.3155
 40.3936  7658.7  86.0783
 40.4356  7623.81  86.0825
 40.4776  7823.92  87.4385
 40.5196  7732.06  87.2203
 40.5616  7755.4  86.9972
 40.6036  7575.84  86.2387
 40.6456  7722.72  86.6821
 40.6876  7751.51  86.8296
 40.7296  7711.05  86.731
 40.7716  7803.37  87.3758
 40.8136  7622.99  86.3039
 40.8556  7808.94  87.4828
 40.8976  7755.27  87.1065
 40.9396  7777.45  87.5743
 40.9816  7780.48  86.8876
 41.0236  7542.37  85.3382
 41.0656  7822.43  87.4315
 41.1076  7690.53  86.4701
 41.1496  7765.67  86.8051
 41.1916  7702.71  86.7629
 41.2336  7717.65  86.8468
 41.2756  7697.29  86.3395
 41.3176  7752.23  87.2524
 41.3596  7669.71  86.5295
 41.4016  7597.77  86.3771
 41.4436  7702.78  86.7538
 41.4856  7624.12  86.4696
 41.5276  7806.46  87.517
 41.5696  7749.44  86.8216
 41.6116  7776.33  87.373
 41.6536  7696.14  86.7664
 41.6956  7859.78  87.6775
 41.7376  7661.44  86.6657
 41.7796  7625.25  86.3913
 41.8216  7788.59  87.505
 41.8636  7617.72  86.4774
 41.9056  7559.74  85.9436
 41.9476  7673.64  86.826
 41.9896  7738.87  86.8647
 42.0316  7752.43  87.0221
 42.0736  7737.18  87.0655
 42.1156  7628.23  86.2557
 42.1576  7658.93  86.5369
 42.1996  7745.28  87.1428
 42.2416  7651.93  86.2177
 42.2836  7606.83  86.0798
 42.3256  7561.38  85.9301
 42.3676  7750.49  86.8008
 42.4096  7692.06  86.4509
 42.4516  7752.58  86.8599
 42.4936  7622.53  86.1989
 42.5356  7551.91  85.9375
 42.5776  7724.44  86.8501
 42.6196  7600.05  86.1253
 42.6616  7471.97  85.6463
 42.7036  7705.46  86.3604
 42.7456  7711.12  86.7523
 42.7876  7564.58  85.9848
 42.8296  7648.53  86.3916
 42.8716  7479.14  85.5202
 42.9136  7576.03  85.8308
 42.9556  7627.1  86.279
 42.9976  7631.95  86.2728
 43.0396  7661.19  86.1785
 43.0816  7489.13  85.5814
 43.1236  7567.74  86.0759
 43.1656  7530.75  85.6995
 43.2076  7587.42  86.1293
 43.2496  7541.17  85.6895
 43.2916  7545.61  86.067
 43.3336  7534.56  85.8374
 43.3756  7580.38  85.8629
 43.4176  7473.03  85.3299
 43.4596  7542.04  85.5838
 43.5016  7577.81  86.181
 43.5436  7523.46  85.783
 43.5856  7376.38  84.9677
 43.6276  7461.4  85.3433
 43.6696  7460.73  85.4856
 43.7116  7498.24  85.3153
 43.7536  7585.39  86.3048
 43.7956  7380.54  86.3177
 43.8376  7351.13  84.686
 43.8796  7463.31  85.4138
 43.9216  7299.17  84.3895
 43.9636  7360.43  84.8512
 44.0056  7398.53  85.2949
 44.0476  7315.97  84.4536
 44.0896  7278.42  84.5758
 44.1316  7198.94  83.781
 44.1736  7269.17  84.182
 44.2156  7355.93  84.5315
 44.2576  7227.53  84.1098
 44.2996  7367.39  84.8917
 44.3416  7319.68  84.3825
 44.3836  7181.25  83.8952
 44.4256  7259.95  84.0112
 44.4676  7175.67  83.6727
 44.5096  7244.65  84.2134
 44.5516  7418.78  85.1911
 44.5936  7218.45  83.9828
 44.6356  7246.56  83.8893
 44.6776  7290.01  84.4507
 44.7196  7320.36  84.8855
 44.7616  7368.53  86.5233
 44.8036  7405.33  85.3931
 44.8456  7396.5  85.3328
 44.8876  7408.08  85.2522
 44.9296  7375.1  84.4999
 44.9716  7404.82  85.1166
 45.0136  7432.82  85.2127
 45.0556  7379.9  84.9967
 45.0976  7414.86  85.2447
 45.1396  7342.4  84.583
 45.1816  7381.77  84.577
 45.2236  7405.32  84.795
 45.2656  7265.12  84.476
 45.3076  7465.07  85.4045
 45.3496  7388.77  85.2805
 45.3916  7329.77  85.2083
 45.4336  7416.11  85.5587
 45.4756  7335.09  84.9468
 45.5176  7402.2  84.9469
 45.5596  7449.01  85.3304
 45.6016  7250.04  84.6045
 45.6436  7428.33  84.8137
 45.6856  7428.4  85.4666
 45.7276  7275.42  86.3917
 45.7696  7304.09  85.7358
 45.8116  7335.13  85.3499
 45.8536  7346.38  85.3082
 45.8956  7292.75  84.3588
 45.9376  7354.66  84.1792
 45.9796  7439.06  85.3682
 46.0216  7375.68  85.3287
 46.0636  7411.33  84.6811
 46.1056  7307.04  84.0705
 46.1476  7396.65  85.1745
 46.1896  7237.11  84.3902
 46.2316  7324.44  84.7624
 46.2736  7304.04  84.8702
 46.3156  7236.23  84.2131
 46.3576  7287.48  84.7169
 46.3996  7167.84  84.1848
 46.4416  7346.86  84.7679
 46.4836  7205.23  84.3248
 46.5256  7325.55  84.9711
 46.5676  7303.56  84.963
 46.6096  7132.37  83.8815
 46.6516  7430.92  84.6733
 46.6936  7203.47  83.856
 46.7356  7465.47  85.4712
 46.7776  7282.38  85.2513
 46.8196  7220.01  84.6294
 46.8616  7127.76  83.8891
 46.9036  7085.7  83.3017
 46.9456  7164.01  83.4087
 46.9876  7284.3  84.1927
 47.0296  7203.79  84.4042
 47.0716  7206.33  84.2468
 47.1136  7142.98  83.5551
 47.1556  7193.37  83.7223
 47.1976  7282.25  84.3889
 47.2396  7222.75  84.3644
 47.2816  7144.87  83.6032
 47.3236  7179.95  84.1906
 47.3656  7247.65  84.4974
 47.4076  7267.25  84.3554
 47.4496  7057.71  83.2925
 47.4916  7186.45  84.2442
 47.5336  7240.88  84.3758
 47.5756  7162.84  83.9925
 47.6176  7126.36  83.7172
 47.6596  7137.59  83.4994
 47.7016  7257.91  84.0122
 47.7436  7214.81  84.1044
 47.7856  7202.76  84.0545
 47.8276  7126.63  83.6728
 47.8696  7230.15  84.3502
 47.9116  7126.69  83.4704
 47.9536  7168.62  83.6541
 47.9956  7154.96  84.2824
 48.0376  7089.79  83.6654
 48.0796  7324.56  85.1641
 48.1216  7143.26  83.9349
 48.1636  7309.51  84.4782
 48.2056  7171.07  83.9395
 48.2476  7332.64  85.1909
 48.2896  7320.56  85.0156
 48.3316  7212.46  84.3332
 48.3736  7244.35  84.5336
 48.4156  7126.03  83.7049
 48.4576  7187.55  84.3641
 48.4996  7216.71  83.9765
 48.5416  7270.7  84.6343
 48.5836  7069.38  83.1183
 48.6256  7192.05  84.0571
 48.6676  7119.45  84.1467
 48.7096  7189.86  83.8177
 48.7516  7131.21  83.6188
 48.7936  7023.73  83.0529
 48.8356  7116.61  83.6566
 48.8776  7080  83.9232
 48.9196  7368.71  85.0691
 48.9616  7188.83  84.404
 49.0036  7204.47  84.8431
 49.0456  7148.12  84.4932
 49.0876  7141.68  84.0832
 49.1296  7110.52  83.9723
 49.1716  7004.16  83.2092
 49.2136  7143.81  83.953
 49.2556  7236.74  84.5394
 49.2976  7018.65  83.3279
 49.3396  7122.25  83.9902
 49.3816  7190.52  83.8169
 49.4236  7157.39  84.0461
 49.4656  7104.11  83.7562
 49.5076  7166.25  83.8644
 49.5496  7063.77  83.2088
 49.5916  7113.16  83.5368
 49.6336  7111.74  83.7259
 49.6756  7150.09  84.1923
 49.7176  7192.17  84.3801
 49.7596  7117.35  83.8802
 49.8016  7179.32  84.0007
 49.8436  7118.52  83.9331
 49.8856  7104.5  83.8455
 49.9276  7100.25  83.9285
 49.9696  7094.97  83.8745
 50.0116  7083.69  83.9399
 50.0536  7026.99  83.5554
 50.0956  7084.74  83.979
 50.1376  7069.41  83.5771
 50.1796  7150.95  84.331
 50.2216  7021.31  83.5663
 50.2636  7069.43  83.464
 50.3056  7001.53  83.2352
 50.3476  7035.33  83.4595
 50.3896  6948.49  82.9138
 50.4316  7104.53  83.6666
 50.4736  7032.55  83.4631
 50.5156  6994.93  83.2345
 50.5576  7105.6  83.6552
 50.5996  7006.38  83.345
 50.6416  7014.47  83.3225
 50.6836  7075.97  83.7468
 50.7256  7088.6  83.7278
 50.7676  7172.33  84.5232
 50.8096  7070.04  83.4774
 50.8516  6976.58  83.3559
 50.8936  7026.78  83.4287
 50.9356  7164.16  84.3524
 50.9776  7009.45  83.5913
 51.0196  6826.97  82.6132
 51.0616  6781.58  81.6692
 51.1036  7016.9  83.4365
 51.1456  6954.33  82.9718
 51.1876  6881.72  81.8783
 51.2296  6794.14  81.9836
 51.2716  6804.62  81.7615
 51.3136  6767.19  81.991
 51.3556  6821.01  81.9366
 51.3976  6817.25  82.0675
 51.4396  6687.51  81.5891
 51.4816  6757.86  81.8733
 51.5236  6922.44  82.9388
 51.5656  6694.73  81.1735
 51.6076  6822.2  82.0287
 51.6496  6771.23  81.9145
 51.6916  6835.59  82.6583
 51.7336  6721.7  82.0609
 51.7756  6848.32  82.5184
 51.8176  6772.84  82.166
 51.8596  6810.38  82.4203
 51.9016  6946.42  82.8408
 51.9436  6808.73  83.5201
 51.9856  6855.96  84.2211
 52.0276  6886.55  82.8861
 52.0696  7007.16  83.6847
 52.1116  6774.26  82.399
 52.1536  6921.79  83.1214
 52.1956  6884.65  82.4122
 52.2376  6918.07  82.7862
 52.2796  6775.38  81.7376
 52.3216  6857.37  82.9345
 52.3636  6911.49  82.8173
 52.4056  6725.69  81.5665
 52.4476  6807.05  82.4248
 52.4896  6776.77  82.2774
 52.5316  6804.08  82.5051
 52.5736  6770.15  81.9914
 52.6156  6847.13  82.8821
 52.6576  6761.16  81.7819
 52.6996  6695.67  82.3819
 52.7416  6652.76  81.9672
 52.7836  6844.44  83.0343
 52.8256  6822.08  82.1033
 52.8676  6695.68  81.9181
 52.9096  6789.77  82.5477
 52.9516  6692.83  82.3505
 52.9936  6705.25  82.7986
 53.0356  6821.81  82.5091
 53.0776  6917.7  83.398
 53.1196  6795.16  82.7451
 53.1616  6809.79  82.8818
 53.2036  6707.77  82.2281
 53.2456  6755.11  82.6236
 53.2876  6681.37  81.8618
 53.3296  6723.68  82.4465
 53.3716  6848.48  82.9602
 53.4136  6698.04  82.1945
 53.4556  6760.32  82.6066
 53.4976  6792.83  82.6355
 53.5396  6656.01  82.1988
 53.5816  6807.81  82.7598
 53.6236  6591.44  81.7895
 53.6656  6818.01  82.7686
 53.7076  6794.82  82.604
 53.7496  6847.29  83.0559
 53.7916  6739.35  82.5325
 53.8336  6786.31  82.7078
 53.8756  6650.87  82.4174
 53.9176  6707.3  82.1079
 53.9596  6485.73  81.4914
 54.0016  6515.28  81.0139
 54.0436  6404.53  80.542
 54.0856  6557.95  80.93
 54.1276  6510.57  80.8326
 54.1696  6608.11  81.5918
 54.2116  6602.39  81.3075
 54.2536  6429.46  80.0603
 54.2956  6543.61  80.8168
 54.3376  6390.61  80.344
 54.3796  6379.53  80.1625
 54.4216  6509.83  81.0584
 54.4636  6341.64  79.9614
 54.5056  6534.97  80.95
 54.5476  6460.77  80.8503
 54.5896  6374.53  80.1561
 54.6316  6424.88  80.307
 54.6736  6437.74  80.425
 54.7156  6458.24  80.63
 54.7576  6365.53  80.0142
 54.7996  6536.23  81.2657
 54.8416  6310.47  79.8836
 54.8836  6427  80.7059
 54.9256  6371.46  80.1335
 54.9676  6347.28  79.8379
 55.0096  6512.21  80.901
 55.0516  6361.77  80.1381
 55.0936  6334.21  79.7077
 55.1356  6269.13  79.3201
 55.1776  6500.7  81.0251
 55.2196  6332.91  79.7432
 55.2616  6504.47  81.0605
 55.3036  6304.91  79.966
 55.3456  6191.23  79.3726
 55.3876  6318.97  79.9186
 55.4296  6130.21  78.7222
 55.4716  6277.24  79.6858
 55.5136  6313.82  79.6766
 55.5556  6462.3  80.6607
 55.5976  6323.52  79.8824
 55.6396  6261.91  79.3495
 55.6816  6197.13  78.893
 55.7236  6269.14  79.5005
 55.7656  6308.74  79.3627
 55.8076  6196.59  78.6565
 55.8496  6395.28  80.3577
 55.8916  6189.83  79.0714
 55.9336  6355.64  80.033
 55.9756  6282.19  79.4351
 56.0176  6128.33  78.6058
 56.0596  6307.88  79.749
 56.1016  6167.01  78.8968
 56.1436  6190.97  79.2633
 56.1856  6087.42  78.3516
 56.2276  6365.26  80.1925
 56.2696  6186.37  79.0166
 56.3116  6317.2  80.2197
 56.3536  6196.2  79.1277
 56.3956  6116.61  78.5899
 56.4376  6165.67  78.9581
 56.4796  6109.82  78.4269
 56.5216  6257.61  79.7323
 56.5636  6067.49  78.0973
 56.6056  6368.02  80.2364
 56.6476  6183.8  78.6766
 56.6896  6283.06  79.77
 56.7316  6180.07  79.0523
 56.7736  6166.79  78.9464
 56.8156  6188.52  79.095
 56.8576  5965.13  77.6054
 56.8996  6125.48  78.544
 56.9416  5962.83  77.6755
 56.9836  6192.89  78.8291
 57.0256  6064.7  78.3088
 57.0676  6149.68  78.9731
 57.1096  6133.44  78.6488
 57.1516  6001.99  77.8344
 57.1936  6114.11  78.3472
 57.2356  6075.88  78.4253
 57.2776  6136.52  78.7746
 57.3196  6118.92  79.0139
 57.3616  6109.13  78.4504
 57.4036  6080.74  78.3157
 57.4456  6177.24  78.9247
 57.4876  6076.59  78.1338
 57.5296  5986.87  77.798
 57.5716  6058.85  78.3537
 57.6136  5928.65  77.3438
 57.6556  6080.63  78.4429
 57.6976  6128.46  78.5959
 57.7396  6034.97  78.3514
 57.7816  5950.67  78.1536
 57.8236  5963.41  78.033
 57.8656  6006.61  77.9895
 57.9076  6014.03  78.0626
 57.9496  5986.28  78.2252
 57.9916  5968.39  77.5799
 58.0336  5998.45  78.1088
 58.0756  6003.88  77.7249
 58.1176  6008.26  77.7932
 58.1596  5979.66  78.1928
 58.2016  5769.26  76.0591
 58.2436  5811.56  76.7241
 58.2856  5688.71  75.8279
 58.3276  5728.77  76.4566
 58.3696  5750.67  76.3632
 58.4116  5791  76.4987
 58.4536  5832.36  76.6573
 58.4956  5682.78  75.8436
 58.5376  5863.2  76.6176
 58.5796  5762.05  76.3632
 58.6216  5834.56  76.6685
 58.6636  5815.45  76.748
 58.7056  5604.53  75.2059
 58.7476  5677.3  76.1216
 58.7896  5773.85  76.4204
 58.8316  5770.69  76.3946
 58.8736  5757.73  76.3139
 58.9156  5716.81  76.09
 58.9576  5836.52  77.0913
 58.9996  5799.66  76.2201
 59.0416  5821.88  76.7221
 59.0836  5690.63  75.7736
 59.1256  5713.73  76.3144
 59.1676  5728.76  77.0106
 59.2096  5797.13  76.7916
 59.2516  5845.69  76.7004
 59.2936  5765.28  76.4916
 59.3356  5521.48  74.74
 59.3776  5659.04  75.8288
 59.4196  5649.52  75.7034
 59.4616  5693.58  75.8617
 59.5036  5661.07  75.6759
 59.5456  5875.73  76.7981
 59.5876  5735.01  76.0591
 59.6296  5577.45  75.0736
 59.6716  5885.28  77.1747
 59.7136  5757.61  76.3215
 59.7556  5701.12  76.0788
 59.7976  5655.6  75.525
 59.8396  5709.71  75.7826
 59.8816  5638.23  75.8313
 59.9236  5859.15  76.9542
 59.9656  5652.67  75.8379
 60.0076  5777.03  76.0394
 60.0496  5786.72  76.5959
 60.0916  5837.68  76.3608
 60.1336  5617.33  75.9737
 60.1756  5574.94  76.8242
 60.1996  0.0000000E+00  0.0000000E+00