File: docs/examples/opeando_xrd/IS17_D/Data/IS17_D/17_Da_f00131.xye
# /beamlines/bl04/projects/cycle2025-II/20250340211-lsimonelli/DATA/IS17_D/17_Da_f00131.xye : mythproc.py merge -s 0.006 -l 0.5 -f /beamlines/bl04/inhouse/ff/FlatField/ff_20Nov2024rod8mm60s_17keV.raw -b True -c true -o xye /beamlines/bl04/projects/cycle2025-II/20250340211-lsimonelli/DATA/IS17_D/17_Da_00131.dat
# IsMon = [6774503, 6774819, 6773454]  IsPos = [-1.4999, -2.4884, -3.4988]
# Wave = 0.4962  CalPath /beamlines/bl04/projects/cycle2025-II/20250340211-lsimonelli/DATA/Align/Si_Pos1_25keV_f00001.cal
# Date = 2025-09-25_06:04:32 Dt = 4.8000  Bin = 0.0060  <imon> = 6774259 +/- 583 (Min/Max) 6773454 / 6774819
# icurr 251.5078  mocoIn 1.7158E-05  mocoOut 0.8048  i15 7.0924e+06  imon 6.77426e+06  i7 4.0000  iEMpd_timer 4.8000  iEMpd_1 3.4758E-08  iEMpd_2 7.8364E-08  iEMpd_3 1.8261E-08  iEMpd_4 4.8958E-08  iEMhp_timer 4.8000  iEMhp_1 4.9137E-06  iEMhp_2 -2.5807E-08  iEMhp_3 -2.4290E-08  iEMhp_4 -2.0697E-08
#      9776
 1.5856  40643.3  207.009
 1.6276  48235.6  221.647
 1.6696  54393.3  234.54
 1.7116  62506.4  251.916
 1.7536  72233.6  269.655
 1.7956  76879.7  278.887
 1.8376  73433  272.996
 1.8796  61789.1  248.567
 1.9216  49710.5  223.849
 1.9636  41777.9  204.372
 2.0056  37881.5  193.854
 2.0476  34855.2  187.988
 2.0896  33607.2  183.509
 2.1316  32873.7  180.623
 2.1736  30988.6  176.759
 2.2156  31331.8  176.309
 2.2576  30255  173.874
 2.2996  29135.9  171.254
 2.3416  29630  171.321
 2.3836  28910.8  169.334
 2.4256  28035.2  167.293
 2.4676  27466  165.351
 2.5096  27511.2  165.542
 2.5516  27182.3  168.363
 2.5936  34829.5  186.72
 2.6356  26615.6  163.92
 2.6776  25996.4  160.902
 2.7196  25831.4  160.9
 2.7616  25531.3  159.746
 2.8036  25248.8  159.031
 2.8456  25269.6  159.709
 2.8876  24762.6  157.976
 2.9296  24138.6  156.095
 2.9716  24267.3  156.006
 3.0136  23819.1  154.626
 3.0556  23982.2  155.546
 3.0976  23800.5  153.902
 3.1396  23565.3  153.856
 3.1816  23453.9  153.421
 3.2236  23419.8  153.312
 3.2656  23491.5  152.582
 3.3076  23139  152.874
 3.3496  23492.9  152.982
 3.3916  23820.3  153.873
 3.4336  24253.7  155.842
 3.4756  24836.1  157.624
 3.5176  25420.1  159.262
 3.5596  25404.9  161.647
 3.6016  25555.1  159.749
 3.6436  24903.2  158.794
 3.6856  24230.9  154.947
 3.7276  23431.4  153.453
 3.7696  23208.7  152.922
 3.8116  22879.3  151.715
 3.8536  22928.3  151.811
 3.8956  22843.9  151.359
 3.9376  22898.7  151.786
 3.9796  22781.7  150.914
 4.0216  22773.9  149.927
 4.0636  22831  151.589
 4.1056  22874.7  151.37
 4.1476  22799.4  151.437
 4.1896  23158.7  152.485
 4.2316  23278.8  152.708
 4.2736  23812.9  154.237
 4.3156  24036.1  155.191
 4.3576  24921.7  157.945
 4.3996  25013.4  158.492
 4.4416  25548.7  159.767
 4.4836  26218.4  161.997
 4.5256  26509.1  163.504
 4.5676  26360.6  163.304
 4.6096  27060.3  164.108
 4.6516  27272.1  164.463
 4.6936  27629.2  166.352
 4.7356  27836.3  166.8
 4.7776  27644.6  166.056
 4.8196  27155.9  165.231
 4.8616  26876  163.86
 4.9036  26565.4  162.652
 4.9456  26528.8  163.189
 4.9876  26053.7  161.625
 5.0296  26194.8  161.875
 5.0716  26072.4  162.281
 5.1136  26308.8  162.72
 5.1556  26648.1  163.23
 5.1976  27585.6  166.065
 5.2396  26968.3  163.9
 5.2816  27077.9  164.69
 5.3236  27168  164.671
 5.3656  26875.3  164.705
 5.4076  26393.9  163.375
 5.4496  26536.4  163.302
 5.4916  26832.5  163.966
 5.5336  26780.3  163.812
 5.5756  26635.3  163.394
 5.6176  26981.8  163.889
 5.6596  26899.9  164.612
 5.7016  27134.3  164.594
 5.7436  27332.9  165.466
 5.7856  27212.4  165.164
 5.8276  27756.1  166.53
 5.8696  27826.5  166.907
 5.9116  27699.8  167.136
 5.9536  27867.9  167.389
 5.9956  28354.6  168.206
 6.0376  28202.6  168.396
 6.0796  28432.9  168.913
 6.1216  28605.3  169.632
 6.1636  28771.5  169.178
 6.2056  28548.1  169.189
 6.2476  28679.8  169.451
 6.2896  29305.2  170.966
 6.3316  29004.2  170.256
 6.3736  29376.9  171.244
 6.4156  29116.5  170.373
 6.4576  29421  170.871
 6.4996  29610.7  171.907
 6.5416  29501.2  171.722
 6.5836  29699.1  172.53
 6.6256  29573  171.724
 6.6676  30065.5  172.717
 6.7096  30110.5  173.695
 6.7516  30374.7  174.116
 6.7936  30740.3  174.582
 6.8356  30979.8  175.342
 6.8776  31211  176.807
 6.9196  31394.3  177.727
 6.9616  31566  177.647
 7.0036  32043.1  178.64
 7.0456  32107.5  178.109
 7.0876  31754.5  178.818
 7.1296  31969.9  178.56
 7.1716  32184.1  178.688
 7.2136  31635.5  176.941
 7.2556  31943  177.964
 7.2976  31973.5  178.548
 7.3396  31850.6  178.416
 7.3816  31945.4  178.899
 7.4236  32190.7  178.871
 7.4656  32367.8  178.843
 7.5076  32706.3  179.913
 7.5496  32703.9  180.453
 7.5916  32690.9  180.445
 7.6336  33075.4  181.398
 7.6756  33138.9  181.419
 7.7176  33575.1  182.918
 7.7596  33419.3  183.756
 7.8016  34241.7  188.197
 7.8436  34298.3  185.019
 7.8856  34521.8  185.228
 7.9276  34940.5  186.75
 7.9696  35472.6  188.479
 8.0116  36209  188.944
 8.0536  36856.1  190.889
 8.0956  36523.6  191.205
 8.1376  36919  191.713
 8.1796  37090.9  192.698
 8.2216  37943.7  193.633
 8.2636  38233.2  194.615
 8.3056  38261.7  195.48
 8.3476  38938.7  196.516
 8.3896  38595.8  195.727
 8.4316  38603.3  195.914
 8.4736  38921.6  196.176
 8.5156  38276.1  194.822
 8.5576  38193.1  195.595
 8.5996  38232.8  194.554
 8.6416  37978.8  195.179
 8.6836  38197.6  195.58
 8.7256  38561.5  195.935
 8.7676  38322.4  198.278
 8.8096  38318.7  195.528
 8.8516  37554.6  193.181
 8.8936  37627.5  193.248
 8.9356  37074.2  192.178
 8.9776  37249.3  192.736
 9.0196  37204.8  192.279
 9.0616  37387.6  192.227
 9.1036  37121.7  192.742
 9.1456  37065.1  191.946
 9.1876  36892.7  191.445
 9.2296  37204.1  191.647
 9.2716  36048.2  188.708
 9.3136  36202  189.086
 9.3556  36852.6  190.768
 9.3976  35249.8  187.102
 9.4396  35757.1  188.341
 9.4816  35325.9  187.059
 9.5236  35111.6  186.402
 9.5656  35211.6  186.996
 9.6076  34859.1  186.601
 9.6496  34629.4  185.902
 9.6916  34691.5  186.045
 9.7336  34669.4  185.757
 9.7756  35004.1  187.929
 9.8176  33990.9  184.672
 9.8596  33788.8  182.553
 9.9016  33598.2  182.032
 9.9436  32974.3  180.247
 9.9856  32880.6  180.219
 10.0276  32236.8  179.558
 10.0696  32657.6  179.756
 10.1116  31705.6  177.378
 10.1536  31680.5  177.477
 10.1956  31036.5  175.262
 10.2376  30947.3  174.509
 10.2796  31347.3  175.763
 10.3216  30513.4  173.681
 10.3636  30807.3  174.546
 10.4056  30865  175.113
 10.4476  30641.9  174.099
 10.4896  31356  175.554
 10.5316  30197.4  173
 10.5736  29988  172.819
 10.6156  29394.3  170.859
 10.6576  30151.7  171.582
 10.6996  29239.8  169.644
 10.7416  28789.8  168.57
 10.7836  29170.6  170.389
 10.8256  28535.3  168.962
 10.8676  28657.3  168.846
 10.9096  28304.9  167.847
 10.9516  28056  166.024
 10.9936  28211.9  166.679
 11.0356  28061.9  166.891
 11.0776  28104.6  166.31
 11.1196  27798  166.163
 11.1616  27239.5  164.169
 11.2036  27486.7  164.769
 11.2456  27619.3  165.884
 11.2876  27208  164.371
 11.3296  27065.9  163.833
 11.3716  27546.9  164.973
 11.4136  27685.7  166.312
 11.4556  28185.1  167.465
 11.4976  28307.2  166.763
 11.5396  27795.4  165.42
 11.5816  27121.1  163.863
 11.6236  26627.9  162.585
 11.6656  26403.3  161.047
 11.7076  26133.7  161.076
 11.7496  25988.4  164.604
 11.7916  25987.4  159.875
 11.8336  25562.9  159.462
 11.8756  25386.6  158.439
 11.9176  25550.5  158.602
 11.9596  25246.7  157.831
 12.0016  25153  158.353
 12.0436  25012.1  157.328
 12.0856  24871.5  157.415
 12.1276  24783.2  157.054
 12.1696  24744.3  156.055
 12.2116  25185.9  157.434
 12.2536  25059.6  157.887
 12.2956  24897.7  156.702
 12.3376  24653.2  156.141
 12.3796  24767.3  156.969
 12.4216  24811.6  156.319
 12.4636  24520.3  156.316
 12.5056  24530  155.607
 12.5476  24755.3  155.853
 12.5896  24708.6  156.35
 12.6316  24321.2  155.271
 12.6736  24335  155.804
 12.7156  24260  155.426
 12.7576  24474.8  156.36
 12.7996  24549.1  155.23
 12.8416  24882.8  157.354
 12.8836  25003.8  157.563
 12.9256  25148.6  157.018
 12.9676  25277.7  157.852
 13.0096  24844.9  157.602
 13.0516  25136.5  157.546
 13.0936  25088.7  157.798
 13.1356  25324.9  157.513
 13.1776  24867.7  157.08
 13.2196  24988.6  157.12
 13.2616  25020.5  157.528
 13.3036  25144.8  157.894
 13.3456  24974.9  157.718
 13.3876  25000.1  157.08
 13.4296  24847.5  156.754
 13.4716  25175.1  157.387
 13.5136  24944.9  156.822
 13.5556  25087.8  157.89
 13.5976  25192  158.361
 13.6396  25234.4  157.86
 13.6816  24995.4  157.608
 13.7236  25527.5  158.918
 13.7656  24748.1  157.004
 13.8076  25120.5  156.954
 13.8496  24754.2  156.409
 13.8916  24626.5  157.013
 13.9336  24755.7  156.647
 13.9756  24622  155.567
 14.0176  24466.5  155.763
 14.0596  24476  155.756
 14.1016  24034.6  154.741
 14.1436  24003.8  153.766
 14.1856  23736.9  153.213
 14.2276  23420.6  152.669
 14.2696  23769.9  153.641
 14.3116  23436  152.462
 14.3536  23003.1  151.227
 14.3956  23062.2  151.149
 14.4376  23159.3  151.243
 14.4796  22970.5  150.617
 14.5216  22555.7  150.045
 14.5636  22588.2  149.715
 14.6056  22599.5  149.33
 14.6476  22544.2  148.375
 14.6896  22186.8  147.737
 14.7316  21854.3  147.647
 14.7736  21670.4  146.177
 14.8156  21570.5  145.878
 14.8576  21624.7  145.915
 14.8996  21044.3  145.151
 14.9416  20748.9  144.129
 14.9836  20980  144.892
 15.0256  20737.2  142.967
 15.0676  20617.8  142.876
 15.1096  20557.1  142.402
 15.1516  20149.2  141.542
 15.1936  20383.7  141.784
 15.2356  19965.9  140.604
 15.2776  19818.9  139.668
 15.3196  19432.1  139.307
 15.3616  19502.1  139.313
 15.4036  19275.3  138.344
 15.4456  19626.5  139.258
 15.4876  19336.2  137.897
 15.5296  18973.7  136.882
 15.5716  18884  136.161
 15.6136  18704.7  135.842
 15.6556  18917.6  135.84
 15.6976  18717  135.411
 15.7396  18569.7  135.28
 15.7816  18408.3  134.196
 15.8236  18189.5  134.102
 15.8656  18122.4  133.64
 15.9076  18182.7  133.686
 15.9496  17869.8  135.326
 15.9916  17874  135.805
 16.0336  17596.6  131.612
 16.0756  17624.3  132.031
 16.1176  17588.3  131.966
 16.1596  17203.8  131.699
 16.2016  17468.7  131.439
 16.2436  17152.9  130.628
 16.2856  17283.5  130.672
 16.3276  16942.9  129.793
 16.3696  17145.7  130.385
 16.4116  16913.5  129.966
 16.4536  17013.6  130.133
 16.4956  17117.6  130.265
 16.5376  16886  129.567
 16.5796  16835.3  128.723
 16.6216  16918.8  129.352
 16.6636  16826.4  129.158
 16.7056  16765.9  128.79
 16.7476  16843.7  128.61
 16.7896  16822.8  129.292
 16.8316  16693.9  128.74
 16.8736  16773.9  129.326
 16.9156  16818  129.831
 16.9576  16569  129.679
 16.9996  16574.9  130.203
 17.0416  16506.8  128.255
 17.0836  16472.8  127.887
 17.1256  16337.2  127.376
 17.1676  16243.8  127.001
 17.2096  16196.7  126.695
 17.2516  15989.9  125.663
 17.2936  16000.1  126.034
 17.3356  15687.4  124.795
 17.3776  15645  124.821
 17.4196  15757.2  124.961
 17.4616  15632.9  124.385
 17.5036  15598.8  124.617
 17.5456  15320.1  124.142
 17.5876  15423.6  123.6
 17.6296  15475.8  123.623
 17.6716  15497.8  124.289
 17.7136  15235.9  123.379
 17.7556  15318  124.007
 17.7976  15293.6  123.649
 17.8396  15082.8  122.289
 17.8816  15219  123.393
 17.9236  14961.1  122.149
 17.9656  15340.9  124.241
 18.0076  15183.3  123.178
 18.0496  15320.2  122.848
 18.0916  15890.5  125.657
 18.1336  15635.1  124.759
 18.1756  15529  123.837
 18.2176  15196.7  122.752
 18.2596  15168.7  122.371
 18.3016  15262.8  123.01
 18.3436  15271.9  123.049
 18.3856  14988.6  122.041
 18.4276  15009.4  121.789
 18.4696  14990  121.814
 18.5116  14897.9  121.73
 18.5536  15134.3  123.063
 18.5956  14773  121.128
 18.6376  14769.8  121.527
 18.6796  14753.8  120.771
 18.7216  14762.6  121.304
 18.7636  14590.8  120.584
 18.8056  14578.6  120.476
 18.8476  14504.7  120.802
 18.8896  14553.6  120.328
 18.9316  14721.4  121.013
 18.9736  14633.9  120.342
 19.0156  14456.6  120.02
 19.0576  14494.6  119.028
 19.0996  14657.1  120.416
 19.1416  14303.5  119.349
 19.1836  14360  119.182
 19.2256  14233.5  118.868
 19.2676  14464.6  119.926
 19.3096  14474.3  120.215
 19.3516  14384.8  119.805
 19.3936  14377.9  119.672
 19.4356  14325.8  119.32
 19.4776  14377.6  119.635
 19.5196  14404.2  119.599
 19.5616  14269.8  119.297
 19.6036  14406.8  119.36
 19.6456  14416.4  119.516
 19.6876  14552  119.723
 19.7296  14498.6  119.963
 19.7716  14371.9  119.599
 19.8136  14699.8  121.174
 19.8556  14979.1  121.773
 19.8976  14890.8  121.492
 19.9396  15042.4  121.676
 19.9816  15030.3  121.87
 20.0236  14767.8  121.022
 20.0656  14666.3  120.604
 20.1076  14141.7  118.885
 20.1496  14158.1  118.962
 20.1916  14032.5  117.945
 20.2336  14067.1  118.027
 20.2756  13814.3  117.392
 20.3176  13758.5  116.903
 20.3596  13942  117.653
 20.4016  13894.1  117.256
 20.4436  13798  117.407
 20.4856  13637.2  116.512
 20.5276  13685.1  117.183
 20.5696  13646.5  116.466
 20.6116  13642.3  116.734
 20.6536  13674.9  116.376
 20.6956  13560.1  116.007
 20.7376  13587.6  116.362
 20.7796  13505  115.688
 20.8216  13631.7  115.928
 20.8636  13394.4  115.291
 20.9056  13611.9  116.175
 20.9476  13298.2  114.663
 20.9896  13472.4  115.284
 21.0316  13638.5  115.884
 21.0736  13474.4  115.708
 21.1156  13495.6  115.964
 21.1576  13396.8  115.585
 21.1996  13358.6  115.403
 21.2416  13266.4  114.831
 21.2836  13305.4  114.968
 21.3256  13144.1  114.348
 21.3676  13333.3  114.713
 21.4096  13302.7  114.899
 21.4516  13106.7  113.926
 21.4936  13053.6  113.951
 21.5356  13221.8  114.625
 21.5776  13179.7  114.277
 21.6196  13049.8  113.744
 21.6616  13066.7  113.905
 21.7036  13159  114.086
 21.7456  13306.1  114.795
 21.7876  12965.7  113.07
 21.8296  13038.7  113.244
 21.8716  12859.5  112.693
 21.9136  13237.8  114.545
 21.9556  12935  112.893
 21.9976  12890  112.716
 22.0396  12941.9  113.196
 22.0816  12919.5  113.648
 22.1236  13106.7  113.909
 22.1656  13048.5  113.79
 22.2076  13079.1  113.391
 22.2496  12989.7  113.026
 22.2916  13009  112.995
 22.3336  12975.6  113.576
 22.3756  13107.1  113.873
 22.4176  12805.5  112.411
 22.4596  12669.4  112.404
 22.5016  12993.8  113.304
 22.5436  13040.8  113.405
 22.5856  13037.9  113.634
 22.6276  12843.3  112.922
 22.6696  12786.9  113.034
 22.7116  12826.1  112.71
 22.7536  12923.1  113.112
 22.7956  12874.1  112.225
 22.8376  12930.1  113
 22.8796  13017.5  113.174
 22.9216  13007.3  113.689
 22.9636  12952.9  112.59
 23.0056  12897.9  112.483
 23.0476  12975.6  113.403
 23.0896  13296.9  114.16
 23.1316  13081.9  113.675
 23.1736  12838.7  115.59
 23.2156  12862.9  113.051
 23.2576  12799.6  112.9
 23.2996  12882  113.055
 23.3416  12654  112.563
 23.3836  12849.1  112.655
 23.4256  12826.3  112.668
 23.4676  12869.6  112.559
 23.5096  12854.4  113.174
 23.5516  12727.9  111.895
 23.5936  12854.4  113.363
 23.6356  13003.2  113.68
 23.6776  12743.1  112.745
 23.7196  12697.4  112.118
 23.7616  12915.9  113.001
 23.8036  12810.1  112.57
 23.8456  12780.8  112.018
 23.8876  12496.6  111.111
 23.9296  12638.2  112.231
 23.9716  12572.3  111.135
 24.0136  12687.7  112.534
 24.0556  12480.4  111.36
 24.0976  12551.5  111.479
 24.1396  12342  113.221
 24.1816  12411.2  111.934
 24.2236  12249.1  110.804
 24.2656  12132.6  109.743
 24.3076  12154.6  110.092
 24.3496  12182.3  110.112
 24.3916  12201.4  110.252
 24.4336  12017.4  109.626
 24.4756  12194.3  110.296
 24.5176  12028.7  109.192
 24.5596  11809.4  108.317
 24.6016  11840.8  108.75
 24.6436  11807.7  108.087
 24.6856  11964.7  108.564
 24.7276  11928.8  108.721
 24.7696  11768.6  108.1
 24.8116  11639.2  107.691
 24.8536  11582.7  107.417
 24.8956  11591.3  107.199
 24.9376  11564.7  107.012
 24.9796  11495.2  107.047
 25.0216  11484.2  107.108
 25.0636  11625.1  107.411
 25.1056  11346.3  106.821
 25.1476  11520.3  109.334
 25.1896  11554.2  107.943
 25.2316  11505.9  106.979
 25.2736  11426.8  106.262
 25.3156  11358.5  106.024
 25.3576  11340.4  106.361
 25.3996  11331  106.302
 25.4416  11314.4  106.203
 25.4836  11169.6  106.051
 25.5256  11400  106.491
 25.5676  11360  106.029
 25.6096  11170.5  105.721
 25.6516  11379  106.193
 25.6936  11162.5  105.496
 25.7356  11294.1  106.254
 25.7776  11281.1  105.79
 25.8196  11156.1  105.442
 25.8616  11190.2  105.527
 25.9036  11166.2  104.878
 25.9456  11116.3  105.238
 25.9876  11027.2  104.883
 26.0296  11294.5  105.649
 26.0716  11111.5  105.215
 26.1136  11247.7  105.803
 26.1556  11274.3  105.3
 26.1976  11219.6  105.981
 26.2396  11229.2  105.172
 26.2816  11121.5  105.281
 26.3236  11140.4  105.531
 26.3656  11084.3  104.983
 26.4076  11248.9  105.981
 26.4496  11569  106.916
 26.4916  11241.6  105.43
 26.5336  11097.4  105.082
 26.5756  11680.2  107.612
 26.6176  10904.6  104.078
 26.6596  10908.6  104.404
 26.7016  10828.9  103.779
 26.7436  10916.5  104.33
 26.7856  10785.6  103.685
 26.8276  10718.5  103.323
 26.8696  10931  104.209
 26.9116  10812.8  103.584
 26.9536  10704.2  103.11
 26.9956  10778.1  103.503
 27.0376  10681.5  103.248
 27.0796  10807.6  103.592
 27.1216  10668.4  102.994
 27.1636  10703.8  103.331
 27.2056  10606.3  102.744
 27.2476  10569.7  102.561
 27.2896  10627.6  102.958
 27.3316  10669.4  102.867
 27.3736  10531.6  102.471
 27.4156  10470.4  102.005
 27.4576  10679.3  103.264
 27.4996  10527.6  102.119
 27.5416  10565  102.622
 27.5836  10546.4  102.345
 27.6256  10855.4  103.982
 27.6676  10750.6  103.519
 27.7096  10509.6  102.218
 27.7516  10536.5  102.504
 27.7936  10517  102.577
 27.8356  10569.2  102.448
 27.8776  10454.7  101.937
 27.9196  10326.8  101.159
 27.9616  10341.8  101.427
 28.0036  10352.6  101.458
 28.0456  10325.3  101.45
 28.0876  10224.7  101.049
 28.1296  10193.8  100.733
 28.1716  10297.4  101.253
 28.2136  10341.2  101.434
 28.2556  10162.6  100.667
 28.2976  10158.3  100.64
 28.3396  10302  101.107
 28.3816  10304.9  101.137
 28.4236  10199.5  100.777
 28.4656  10021.8  99.9314
 28.5076  10148.2  100.188
 28.5496  10091  100.174
 28.5916  10141.6  100.227
 28.6336  10018.1  99.9565
 28.6756  10170  99.905
 28.7176  10046.6  99.8533
 28.7596  10089.5  99.958
 28.8016  10045.4  99.7786
 28.8436  9968.02  99.638
 28.8856  10007  99.68
 28.9276  10032.7  100.055
 28.9696  9953.3  99.3097
 29.0116  9954.63  99.5091
 29.0536  9769.42  98.771
 29.0956  9889.86  99.1009
 29.1376  9974.95  99.4861
 29.1796  9938.04  99.351
 29.2216  9851.92  98.7621
 29.2636  9931.03  99.2314
 29.3056  9922.37  98.9792
 29.3476  9801.46  98.9002
 29.3896  9929.56  99.6355
 29.4316  10177.1  100.202
 29.4736  9927.42  99.0329
 29.5156  9985.7  99.2435
 29.5576  9844.76  99.282
 29.5996  9924.72  98.9354
 29.6416  9922.64  99.042
 29.6836  9899.36  98.8548
 29.7256  10058.2  100.225
 29.7676  9830.04  98.7311
 29.8096  9730.77  98.1776
 29.8516  9635.89  98.032
 29.8936  9627.65  98.0869
 29.9356  9982.6  99.6284
 29.9776  9642.87  98.0721
 30.0196  9774.13  98.1191
 30.0616  9714.74  98.1945
 30.1036  9728.65  98.0894
 30.1456  9641.85  97.8896
 30.1876  9707.73  98.1972
 30.2296  9738.74  98.305
 30.2716  9893.74  98.7136
 30.3136  9923.96  99.7412
 30.3556  9684.47  98.5326
 30.3976  9664.88  99.9779
 30.4396  9789.28  97.9156
 30.4816  9813.56  97.6338
 30.5236  9770  97.4297
 30.5656  9576.55  97.1202
 30.6076  9630.31  96.8247
 30.6496  9646  97.2861
 30.6916  9554.18  96.9151
 30.7336  9603.12  97.3151
 30.7756  9622.17  97.5049
 30.8176  9616.61  97.3914
 30.8596  9591.99  97.0353
 30.9016  9629.17  97.5677
 30.9436  9723.87  97.7963
 30.9856  9607.94  97.3147
 31.0276  9423.21  95.9737
 31.0696  9505.52  96.9836
 31.1116  9438.85  96.6218
 31.1536  9640.15  97.5291
 31.1956  9446.79  96.6333
 31.2376  9329.81  96.0381
 31.2796  9497.17  96.4326
 31.3216  9424.63  96.0095
 31.3636  9483.55  97.0015
 31.4056  9512.65  98.4954
 31.4476  9450.26  96.0277
 31.4896  9488.68  96.7309
 31.5316  9495.52  96.1511
 31.5736  9506.95  96.0278
 31.6156  9443.03  95.7313
 31.6576  9490.95  96.0696
 31.6996  9495  95.7594
 31.7416  9469.81  96.7075
 31.7836  9484.44  95.7855
 31.8256  9313.65  95.1918
 31.8676  9521.34  96.2439
 31.9096  9311.39  95.536
 31.9516  9212.58  95.1866
 31.9936  9223.15  95.0652
 32.0356  9345.02  95.762
 32.0776  9337.01  95.6025
 32.1196  9264.86  95.3277
 32.1616  9306.77  94.9941
 32.2036  9148.47  94.6924
 32.2456  9178  95.2282
 32.2876  9417.72  95.9526
 32.3296  9144.76  94.5158
 32.3716  9282.84  95.3372
 32.4136  9245.84  95.363
 32.4556  9348.46  95.257
 32.4976  9278.09  94.8118
 32.5396  9194.58  94.4523
 32.5816  9122.61  94.203
 32.6236  9213.7  94.7447
 32.6656  9194.93  95.1833
 32.7076  9121.88  94.4643
 32.7496  9191.19  94.4866
 32.7916  9217.54  94.5779
 32.8336  9161.55  94.3884
 32.8756  9195.58  94.2878
 32.9176  9056.93  94.0577
 32.9596  8978.13  93.7186
 33.0016  9063.91  93.9616
 33.0436  9179.89  94.7364
 33.0856  9194.3  94.8772
 33.1276  9066.75  93.9478
 33.1696  9185.19  94.3985
 33.2116  9172.47  94.5588
 33.2536  9135.11  94.3727
 33.2956  9166.77  94.6193
 33.3376  8992.25  93.4558
 33.3796  9040.33  93.9081
 33.4216  9226.19  94.4674
 33.4636  9016.26  93.5339
 33.5056  8839.89  92.8553
 33.5476  8894.1  93.1283
 33.5896  9170.66  94.3355
 33.6316  8905.5  93.2823
 33.6736  8918.58  93.596
 33.7156  8972.77  93.9214
 33.7576  8934.91  93.329
 33.7996  9184.79  94.4051
 33.8416  8830.08  92.7522
 33.8836  8941.24  93.1032
 33.9256  8931.95  93.1173
 33.9676  9051.74  93.6362
 34.0096  8807.19  92.6791
 34.0516  8902.68  92.8176
 34.0936  8818.71  92.6418
 34.1356  9015.07  93.4078
 34.1776  8846.93  92.5483
 34.2196  8780.06  92.3722
 34.2616  8689.77  92.0328
 34.3036  8718.08  92.4327
 34.3456  8823.01  92.7396
 34.3876  8833.15  92.7541
 34.4296  8800.77  92.2798
 34.4716  8976.96  93.3463
 34.5136  8878.75  93.036
 34.5556  8804.29  92.9029
 34.5976  8775.96  92.5586
 34.6396  8727.79  92.0078
 34.6816  8677.34  91.8524
 34.7236  8751.75  92.0369
 34.7656  8768.78  92.3245
 34.8076  8720.88  92.399
 34.8496  8701.92  92.1517
 34.8916  8753.8  92.2924
 34.9336  8838.83  92.7031
 34.9756  8793.17  92.3838
 35.0176  8785.14  92.8846
 35.0596  8572.7  91.5739
 35.1016  8738  92.2206
 35.1436  8656.7  91.4719
 35.1856  8605.84  91.3326
 35.2276  8703.94  92.0243
 35.2696  8597.67  91.6536
 35.3116  8546.43  91.477
 35.3536  8572.39  91.3281
 35.3956  8521.4  90.7625
 35.4376  8559.71  91.5207
 35.4796  8664.15  92.1388
 35.5216  8518.26  91.3173
 35.5636  8370.95  91.268
 35.6056  8682.83  91.9571
 35.6476  8641.26  91.6326
 35.6896  8621.49  91.615
 35.7316  8520.87  91.055
 35.7736  8542.31  91.3655
 35.8156  8523.29  91.2606
 35.8576  8587.84  91.8599
 35.8996  8589.15  91.8336
 35.9416  8577.77  91.2783
 35.9836  8566.65  91.5656
 36.0256  8537.48  91.4267
 36.0676  8572.16  91.3749
 36.1096  8383.1  90.4983
 36.1516  8433.7  90.6569
 36.1936  8565.2  91.208
 36.2356  8468.99  91.3391
 36.2776  8468.15  90.8207
 36.3196  8620.38  91.2948
 36.3616  8511.4  90.8419
 36.4036  8613.17  91.4451
 36.4456  8468.01  90.8806
 36.4876  8490.36  90.9383
 36.5296  8443.69  90.7343
 36.5716  8410.21  91.3408
 36.6136  8686.2  91.5753
 36.6556  8571.17  91.1708
 36.6976  8426.14  90.8994
 36.7396  8534.23  91.2071
 36.7816  8465.03  91.2149
 36.8236  8517.86  91.4204
 36.8656  8466.91  91.2212
 36.9076  8421.76  90.8512
 36.9496  8403.99  90.743
 36.9916  8368.49  90.1787
 37.0336  8498.33  91.2
 37.0756  8494.37  90.964
 37.1176  8299.78  90.1872
 37.1596  8424.08  90.8636
 37.2016  8259.05  90.1986
 37.2436  8438.12  90.4802
 37.2856  8375.98  90.4018
 37.3276  8407.14  89.9082
 37.3696  8263.24  90.0307
 37.4116  8373.47  90.5317
 37.4536  8326.14  90.145
 37.4956  8276.57  89.9212
 37.5376  8349.53  91.8546
 37.5796  8287.97  91.4956
 37.6216  8207.56  89.317
 37.6636  8145.38  88.8734
 37.7056  8254.76  89.6653
 37.7476  8268.62  89.2662
 37.7896  8248.8  89.6771
 37.8316  8028.06  88.6305
 37.8736  8281.91  89.5434
 37.9156  8302.35  89.6532
 37.9576  8198.29  88.9707
 37.9996  8152.06  88.4486
 38.0416  8183.93  89.4377
 38.0836  8201.14  89.4305
 38.1256  8201.72  89.3848
 38.1676  8027.9  88.5798
 38.2096  8130.33  88.7621
 38.2516  8299.61  89.8939
 38.2936  8060.35  88.3796
 38.3356  8264.39  89.3965
 38.3776  8108.31  88.8386
 38.4196  8234.09  89.3709
 38.4616  8176.07  89.2971
 38.5036  8213.49  89.335
 38.5456  8073.63  89.4186
 38.5876  8166.05  89.9583
 38.6296  8079.01  88.4421
 38.6716  8053.34  88.0966
 38.7136  8075.69  88.1628
 38.7556  8018.57  88.3546
 38.7976  8041.57  88.4178
 38.8396  7998.19  88.6373
 38.8816  7955.23  88.1658
 38.9236  8005.57  88.2668
 38.9656  8028.01  88.3038
 39.0076  8053.38  87.8469
 39.0496  8027.98  88.2509
 39.0916  8144.36  88.5171
 39.1336  8075.91  88.5752
 39.1756  8102.34  88.789
 39.2176  8008.9  88.8088
 39.2596  8088.44  89.1648
 39.3016  7911.1  87.7389
 39.3436  8053.04  88.9721
 39.3856  8083.57  88.5834
 39.4276  8133.43  89.3494
 39.4696  7957.4  88.011
 39.5116  7878.61  88.085
 39.5536  8217.3  90.3996
 39.5956  8107.94  88.8803
 39.6376  8095.89  88.8236
 39.6796  8066.96  88.4014
 39.7216  8111.52  88.7401
 39.7636  8090.06  89.2021
 39.8056  8039.42  88.7041
 39.8476  8020.24  88.8518
 39.8896  7944.81  88.0592
 39.9316  8056.5  88.9365
 39.9736  8164.7  89.0913
 40.0156  8053.54  88.3011
 40.0576  8119.34  89.0328
 40.0996  8188.45  88.5776
 40.1416  8078.64  88.7777
 40.1836  8116.28  88.8816
 40.2256  8058.71  88.6084
 40.2676  8062.24  88.7371
 40.3096  8174.71  89.2766
 40.3516  8232.57  89.6973
 40.3936  8061.01  88.3191
 40.4356  8121.65  88.8388
 40.4776  8212.85  89.7631
 40.5196  8185.07  89.7407
 40.5616  8076.39  88.7818
 40.6036  7957.6  88.3779
 40.6456  8182.8  89.2299
 40.6876  8214.88  89.3882
 40.7296  8147.42  89.1587
 40.7716  8074.95  88.8952
 40.8136  8144.1  89.2128
 40.8556  8021.55  88.6733
 40.8976  8159.63  89.3518
 40.9396  8008.42  88.8699
 40.9816  8136.95  88.8623
 41.0236  8168.11  88.8102
 41.0656  8179.05  89.4165
 41.1076  8111.39  88.8144
 41.1496  8177.03  89.0815
 41.1916  8116.97  89.079
 41.2336  8035.07  88.6168
 41.2756  8095.06  88.5502
 41.3176  7981.22  88.5389
 41.3596  8145.42  89.1737
 41.4016  8104.51  89.2118
 41.4436  8114.73  89.0528
 41.4856  8099.89  89.1352
 41.5276  7963.19  88.4003
 41.5696  8053.14  88.5266
 41.6116  8067.45  88.998
 41.6536  7955.87  88.2438
 41.6956  8036.34  88.7373
 41.7376  8053.78  88.8649
 41.7796  8005.67  88.4867
 41.8216  8063.84  89.0429
 41.8636  8098.05  89.1706
 41.9056  8023.41  88.5416
 41.9476  8107.25  89.2462
 41.9896  8024.65  88.4484
 42.0316  8081.85  88.8537
 42.0736  8024.98  88.6476
 42.1156  7996.91  88.3306
 42.1576  8062.13  88.793
 42.1996  8080.87  89.0371
 42.2416  8072.3  88.5616
 42.2836  7949.63  88.0068
 42.3256  7891.77  87.7999
 42.3676  7940.75  87.8677
 42.4096  8101.35  88.7144
 42.4516  7972.33  88.0964
 42.4936  7907.12  87.8081
 42.5356  7910.9  87.9624
 42.5776  8033.89  88.5826
 42.6196  8055.52  88.7562
 42.6616  7838.87  87.7179
 42.7036  7949.07  87.721
 42.7456  7975.03  88.222
 42.7876  7902.45  87.9196
 42.8296  7867.64  87.5582
 42.8716  7811.41  87.4067
 42.9136  7906.49  87.7239
 42.9556  7984.56  88.2909
 42.9976  7940.15  88.0056
 43.0396  7964.35  87.87
 43.0816  7850.61  87.6115
 43.1236  7877.52  87.8301
 43.1656  7862.73  87.5763
 43.2076  7827.63  87.4828
 43.2496  7889.08  87.6434
 43.2916  7825.23  87.6513
 43.3336  7912.23  87.9742
 43.3756  7908.16  87.7015
 43.4176  7730.99  86.7989
 43.4596  7814.18  87.1177
 43.5016  7861.84  87.7933
 43.5436  7850.06  87.6178
 43.5856  7807.05  87.4166
 43.6276  7804.57  87.2932
 43.6696  7803.29  87.5469
 43.7116  7874.47  87.4371
 43.7536  7932.33  88.2491
 43.7956  7730.29  88.3207
 43.8376  7687.7  86.6098
 43.8796  7740.95  86.998
 43.9216  7979.19  88.2381
 43.9636  7757.7  87.1194
 44.0056  7668.88  86.8476
 44.0476  7678.28  86.5334
 44.0896  7557.34  86.1897
 44.1316  7817.03  87.1745
 44.1736  7677.9  86.511
 44.2156  7762.54  86.8446
 44.2576  7731.1  87.0011
 44.2996  7715.31  86.8795
 44.3416  7701.79  86.5592
 44.3836  7550.99  86.0381
 44.4256  7615.91  86.055
 44.4676  7663.26  86.4792
 44.5096  7692.01  86.7837
 44.5516  7624.27  86.3698
 44.5936  7587.04  86.1069
 44.6356  7585.21  85.8355
 44.6776  7620.26  86.3531
 44.7196  7741.57  87.3524
 44.7616  7639.75  88.1041
 44.8036  7477.05  85.5984
 44.8456  7581.96  86.3992
 44.8876  7543.83  86.0294
 44.9296  7667.36  86.1779
 44.9716  7452.05  85.3857
 45.0136  7482.83  85.501
 45.0556  7619.11  86.2463
 45.0976  7442.61  85.4047
 45.1396  7429.75  85.0946
 45.1816  7456.71  85.1847
 45.2236  7634.2  86.084
 45.2656  7566.69  86.217
 45.3076  7528.04  85.7674
 45.3496  7454.15  85.6604
 45.3916  7441.51  85.853
 45.4336  7372.87  85.2956
 45.4756  7422.35  85.4352
 45.5176  7473.46  85.3493
 45.5596  7528.58  85.7875
 45.6016  7383.49  85.3754
 45.6436  7485.79  85.1424
 45.6856  7398.87  85.3007
 45.7276  7434.65  86.8325
 45.7696  7416.2  86.3818
 45.8116  7484.06  86.2068
 45.8536  7510.51  86.2587
 45.8956  7512.23  85.6181
 45.9376  7411.9  84.5101
 45.9796  7399.15  85.1134
 46.0216  7508.86  86.0965
 46.0636  7533.86  85.3679
 46.1056  7417.24  84.6998
 46.1476  7494.78  85.7372
 46.1896  7557.71  86.2475
 46.2316  7387.01  85.1354
 46.2736  7169.88  84.2402
 46.3156  7376.57  85.0321
 46.3576  7381.71  85.2633
 46.3996  7322.47  85.0831
 46.4416  7458.94  85.4435
 46.4836  7349.49  85.1704
 46.5256  7427.1  85.5584
 46.5676  7442.9  85.7624
 46.6096  7512.22  86.0945
 46.6516  7392.86  84.4519
 46.6936  7445.65  85.2413
 46.7356  7422.57  85.2131
 46.7776  7330.97  85.5352
 46.8196  7298.33  84.9405
 46.8616  7258.44  84.6574
 46.9036  7218.88  84.0876
 46.9456  7266.95  84.0009
 46.9876  7326.12  84.4301
 47.0296  7219.86  84.5039
 47.0716  7287  84.7164
 47.1136  7230.71  84.0671
 47.1556  7256.35  84.078
 47.1976  7375.58  84.8468
 47.2396  7186.94  84.1517
 47.2816  7189.99  83.8761
 47.3236  7236.22  84.5136
 47.3656  7324.04  84.9581
 47.4076  7193.71  84.0019
 47.4496  7173.21  83.974
 47.4916  7208.12  84.3752
 47.5336  7176.61  84.0018
 47.5756  7191.72  84.1983
 47.6176  7164.72  83.9496
 47.6596  7147.54  83.5642
 47.7016  7351.77  84.566
 47.7436  7205.84  84.0517
 47.7856  7349.84  84.9146
 47.8276  7153.94  83.8327
 47.8696  7212.07  84.2487
 47.9116  7284.58  84.3871
 47.9536  7175.06  83.6921
 47.9956  7165.82  84.3413
 48.0376  7012.04  83.2132
 48.0796  7204.5  84.4774
 48.1216  7259.3  84.6084
 48.1636  7394.19  84.9652
 48.2056  7147.77  83.8025
 48.2476  7206.36  84.453
 48.2896  7199.15  84.3191
 48.3316  7156.73  84.0127
 48.3736  7015.38  83.202
 48.4156  7054.29  83.2871
 48.4576  7095.24  83.8209
 48.4996  7073.85  83.1532
 48.5416  7131.96  83.8165
 48.5836  7116.48  83.3978
 48.6256  7116.85  83.6066
 48.6676  7050.51  83.7338
 48.7096  7200.75  83.8897
 48.7516  7099.57  83.4452
 48.7936  7066.31  83.3103
 48.8356  7103.41  83.5779
 48.8776  7055.37  83.8609
 48.9196  7207.28  84.1235
 48.9616  7017.52  83.3922
 49.0036  7087.72  84.1591
 49.0456  6984.42  83.5237
 49.0876  7012.72  83.2343
 49.1296  6889.41  82.6595
 49.1716  6924.09  82.7342
 49.2136  7106.18  83.7354
 49.2556  7049.45  83.4405
 49.2976  7066.38  83.6074
 49.3396  6947.76  82.9576
 49.3816  7141.24  83.5338
 49.4236  7065.22  83.5037
 49.4656  6933.26  82.7489
 49.5076  7077.65  83.3502
 49.5496  6954.68  82.6861
 49.5916  7002  82.8819
 49.6336  6968.49  82.8866
 49.6756  7045.69  83.5857
 49.7176  6892.87  82.608
 49.7596  6967.34  82.8281
 49.8016  7014.61  83.0301
 49.8436  6875.42  82.4899
 49.8856  6893.14  82.6018
 49.9276  6871.49  82.5678
 49.9696  6971.76  83.1564
 50.0116  6994.07  83.4213
 50.0536  6999.75  83.4022
 50.0956  6846.32  82.5539
 50.1376  6873.92  82.4215
 50.1796  6916.34  82.9432
 50.2216  6872.14  82.6754
 50.2636  6927.39  82.6241
 50.3056  6728.44  81.5991
 50.3476  6917.66  82.7649
 50.3896  6855.72  82.3594
 50.4316  6870.61  82.2857
 50.4736  6801.82  82.0902
 50.5156  6852.36  82.3876
 50.5576  6915.49  82.5183
 50.5996  6915.17  82.8036
 50.6416  6757.17  81.7833
 50.6836  6770.12  81.9149
 50.7256  6940.96  82.8711
 50.7676  6873.76  82.7762
 50.8096  6821.33  82.0101
 50.8516  6835.44  82.5053
 50.8936  6796  82.0533
 50.9356  6903.33  82.8035
 50.9776  6772.44  82.1644
 51.0196  6544.19  80.8995
 51.0616  6721.48  81.3121
 51.1036  6992.47  83.2974
 51.1456  6744.13  81.7197
 51.1876  6696  80.7739
 51.2296  6808.91  82.0929
 51.2716  6682.95  81.0318
 51.3136  6719.61  81.7057
 51.3556  6739.45  81.459
 51.3976  6762.09  81.7469
 51.4396  6548.74  80.7401
 51.4816  6712.9  81.6047
 51.5236  6642.93  81.2617
 51.5656  6652.42  80.9279
 51.6076  6816.39  82.0025
 51.6496  6740.3  81.7374
 51.6916  6659.4  81.5972
 51.7336  6732.97  82.1391
 51.7756  6717.55  81.7428
 51.8176  6699.97  81.7355
 51.8596  6676.25  81.6118
 51.9016  6844.85  82.2413
 51.9436  6626.22  82.3678
 51.9856  6533.14  82.2146
 52.0276  6607.86  81.1969
 52.0696  6649.65  81.5155
 52.1116  6662.37  81.7172
 52.1536  6572.25  81.0442
 52.1956  6678.52  81.1645
 52.2376  6809.17  82.1305
 52.2796  6779.76  81.7599
 52.3216  6502.78  80.7467
 52.3636  6619.89  81.0619
 52.4056  6673.87  81.2439
 52.4476  6498.6  80.5383
 52.4896  6483.23  80.4913
 52.5316  6541.09  80.8878
 52.5736  6554.69  80.7105
 52.6156  6568.68  81.1572
 52.6576  6588.58  80.7455
 52.6996  6461.19  80.9058
 52.7416  6656.63  81.9804
 52.7836  6544.36  81.1784
 52.8256  6647.84  81.0335
 52.8676  6520.43  80.8286
 52.9096  6538.36  81.0189
 52.9516  6477.91  81.0136
 52.9936  6520.05  81.6699
 53.0356  6426.22  80.0865
 53.0776  6391.32  80.1279
 53.1196  6384.5  80.2007
 53.1616  6407.99  80.405
 53.2036  6446.25  80.6022
 53.2456  6389.29  80.3475
 53.2876  6311.83  79.5628
 53.3296  6423.91  80.5928
 53.3716  6468.41  80.6162
 53.4136  6435.51  80.5611
 53.4556  6367.77  80.1666
 53.4976  6315.18  79.6843
 53.5396  6413.75  80.6952
 53.5816  6442.23  80.5053
 53.6236  6368.82  80.3831
 53.6656  6347.55  79.8855
 53.7076  6405.82  80.2135
 53.7496  6351.98  79.9925
 53.7916  6506.07  81.0823
 53.8336  6342.33  79.9574
 53.8756  6258.71  79.9734
 53.9176  6332.63  79.7912
 53.9596  6465.1  81.4029
 54.0016  6413.26  80.3992
 54.0436  6392.84  80.486
 54.0856  6362.59  79.7266
 54.1276  6379.43  80.0341
 54.1696  6363.85  80.1031
 54.2116  6319.74  79.582
 54.2536  6400.23  79.905
 54.2956  6394.02  79.911
 54.3376  6380.24  80.3115
 54.3796  6336.27  79.9326
 54.4216  6455.53  80.7219
 54.4636  6321.32  79.8427
 54.5056  6480.51  80.6634
 54.5476  6353.57  80.2047
 54.5896  6444.51  80.6056
 54.6316  6410.22  80.2497
 54.6736  6316.8  79.7329
 54.7156  6308.52  79.7007
 54.7576  6272.35  79.474
 54.7996  6373.08  80.2438
 54.8416  6295.4  79.8086
 54.8836  6256.42  79.6671
 54.9256  6386.2  80.2434
 54.9676  6406.09  80.2187
 55.0096  6328.71  79.8024
 55.0516  6406.33  80.5312
 55.0936  6320.48  79.6115
 55.1356  6250.2  79.2133
 55.1776  6269.6  79.6038
 55.2196  6385.81  80.1196
 55.2616  6280.37  79.6667
 55.3036  6265.13  79.7295
 55.3456  6289.85  80.0385
 55.3876  6299.61  79.8445
 55.4296  6330.76  80.0195
 55.4716  6292.45  79.8109
 55.5136  6361.97  80.0008
 55.5556  6341.24  79.9432
 55.5976  6329.72  79.932
 55.6396  6295.07  79.6547
 55.6816  6202.17  78.9485
 55.7236  6324.48  79.7589
 55.7656  6394.95  79.9625
 55.8076  6397.06  79.9619
 55.8496  6266.7  79.4567
 55.8916  6244.2  79.521
 55.9336  6290.49  79.6274
 55.9756  6302.38  79.594
 56.0176  6243.13  79.3741
 56.0596  6276.25  79.5678
 56.1016  6278.42  79.593
 56.1436  6175.14  79.1959
 56.1856  6276.88  79.585
 56.2276  6215.4  79.2451
 56.2696  6227.4  79.2989
 56.3116  6199.92  79.526
 56.3536  6347.55  80.1226
 56.3956  6274.14  79.6505
 56.4376  6296.94  79.8264
 56.4796  6324.33  79.8053
 56.5216  6246.46  79.6841
 56.5636  6397.89  80.2289
 56.6056  6228.82  79.3903
 56.6476  6294.98  79.4395
 56.6896  6334.67  80.1372
 56.7316  6275.02  79.6701
 56.7736  6238.04  79.4324
 56.8156  6259.56  79.5634
 56.8576  6247.58  79.4361
 56.8996  6280.13  79.5768
 56.9416  6203.14  79.3931
 56.9836  6200.62  78.8844
 57.0256  6209.26  79.2629
 57.0676  6243.08  79.5992
 57.1096  6298.92  79.7456
 57.1516  6242.11  79.4516
 57.1936  6194.24  78.8913
 57.2356  6233.17  79.4622
 57.2776  6207.75  79.2504
 57.3196  6203.78  79.6012
 57.3616  6280.38  79.5768
 57.4036  6258.63  79.4997
 57.4456  6204.57  79.1217
 57.4876  6222.98  79.1004
 57.5296  6169.36  79.0962
 57.5716  6140.14  78.896
 57.6136  6296.1  79.712
 57.6556  6272.88  79.703
 57.6976  6271.71  79.5155
 57.7396  6193.82  79.3993
 57.7816  6136.46  79.384
 57.8236  6174.21  79.4279
 57.8656  6250.49  79.57
 57.9076  6150.32  78.9569
 57.9496  6158.23  79.3583
 57.9916  6203.62  79.1574
 58.0336  6194.8  79.381
 58.0756  6231.31  79.2468
 58.1176  6338.33  79.9217
 58.1596  6109.12  79.0289
 58.2016  6323.49  79.6207
 58.2436  6359.97  80.2695
 58.2856  6184.5  79.0767
 58.3276  6214.83  79.6458
 58.3696  6289.77  79.8677
 58.4116  6211.48  79.2316
 58.4536  6213.24  79.1286
 58.4956  6145.89  78.8838
 58.5376  6333.33  79.639
 58.5796  6205.83  79.2625
 58.6216  6209.61  79.1014
 58.6636  6307.65  79.9391
 58.7056  6299.64  79.7405
 58.7476  6216.91  79.6622
 58.7896  6156.75  78.9221
 58.8316  6281.93  79.7107
 58.8736  6269.25  79.6408
 58.9156  6170.74  79.0547
 58.9576  6306.15  80.2518
 58.9996  6320.33  79.5697
 59.0416  6476.8  80.9214
 59.0836  6284.41  79.6401
 59.1256  6150.96  79.4932
 59.1676  6219.51  80.2454
 59.2096  6232.33  79.6336
 59.2516  6304.46  79.665
 59.2936  6228.08  79.5142
 59.3356  6182.35  79.098
 59.3776  6233.45  79.5959
 59.4196  6243.05  79.5926
 59.4616  6190.87  79.1169
 59.5036  6194.08  79.1733
 59.5456  6522.97  80.9293
 59.5876  6425.64  80.5204
 59.6296  6215.36  79.2622
 59.6716  6246.66  79.5205
 59.7136  6341.44  80.1095
 59.7556  6270.12  79.7967
 59.7976  6180.74  78.9651
 59.8396  6283.02  79.5079
 59.8816  6202.38  79.5486
 59.9236  6182.4  79.06
 59.9656  6197.79  79.4221
 60.0076  6357.19  79.7779
 60.0496  6216.12  79.3969
 60.0916  6349.95  79.6524
 60.1336  6131.83  79.3883
 60.1756  6115.9  80.4769
 60.1996  0.0000000E+00  0.0000000E+00