File: docs/examples/opeando_xrd/IS17_D/Data/IS17_D/17_Db_f00030.xye
# /beamlines/bl04/projects/cycle2025-II/20250340211-lsimonelli/DATA/IS17_D/17_Db_f00030.xye : mythproc.py merge -s 0.006 -l 0.5 -f /beamlines/bl04/inhouse/ff/FlatField/ff_20Nov2024rod8mm60s_17keV.raw -b True -c true -o xye /beamlines/bl04/projects/cycle2025-II/20250340211-lsimonelli/DATA/IS17_D/17_Db_00030.dat
# IsMon = [6772664, 6775263, 6774113]  IsPos = [-1.5000, -2.4885, -3.4986]
# Wave = 0.4962  CalPath /beamlines/bl04/projects/cycle2025-II/20250340211-lsimonelli/DATA/Align/Si_Pos1_25keV_f00001.cal
# Date = 2025-09-24_02:02:11 Dt = 4.8000  Bin = 0.0060  <imon> = 6774013 +/- 1063 (Min/Max) 6772664 / 6775263
# icurr 252.0424  mocoIn 1.7201E-05  mocoOut 0.8069  i15 7.09193e+06  imon 6.77401e+06  i7 4.3333  iEMpd_timer 4.8000  iEMpd_1 3.5685E-08  iEMpd_2 7.7911E-08  iEMpd_3 1.6828E-08  iEMpd_4 4.7081E-08  iEMhp_timer 4.8000  iEMhp_1 4.9254E-06  iEMhp_2 -2.5148E-08  iEMhp_3 -2.2398E-08  iEMhp_4 -2.1195E-08
#      9776
 1.5856  44207.3  215.92
 1.6276  50493.8  226.803
 1.6696  56477  239.018
 1.7116  64903.1  256.73
 1.7536  72394.7  269.987
 1.7956  76204.8  277.693
 1.8376  73094.5  272.398
 1.8796  62441.4  249.91
 1.9216  51521.1  227.916
 1.9636  44634.2  211.801
 2.0056  40246.6  199.837
 2.0476  37389.8  194.726
 2.0896  35819.9  189.476
 2.1316  35012.9  186.429
 2.1736  33226.9  183.053
 2.2156  33822.2  183.203
 2.2576  32777.7  181
 2.2996  31226.4  177.312
 2.3416  31695.8  177.214
 2.3836  31125.1  175.719
 2.4256  30349.1  174.081
 2.4676  29608.5  171.7
 2.5096  29202.5  170.574
 2.5516  28108.6  171.163
 2.5936  28124.5  167.786
 2.6356  27712.1  167.259
 2.6776  27478.5  165.445
 2.7196  27174.3  165.014
 2.7616  27023.8  164.349
 2.8036  26724.9  163.592
 2.8456  26579.7  163.799
 2.8876  26068.7  162.044
 2.9296  25707.3  161.084
 2.9716  25141.6  158.789
 3.0136  25182.7  158.991
 3.0556  25108.8  159.136
 3.0976  25349.8  158.815
 3.1396  24950.3  158.281
 3.1816  24488.3  156.754
 3.2236  24670.6  157.314
 3.2656  24236.6  154.978
 3.3076  24144.3  156.152
 3.3496  24528.9  156.555
 3.3916  24673.6  156.595
 3.4336  25223.6  158.92
 3.4756  25388.4  159.385
 3.5176  26335.6  162.091
 3.5596  25526.2  162.574
 3.6016  25901.4  160.821
 3.6436  25072.4  159.328
 3.6856  24783  156.717
 3.7276  23749  154.482
 3.7696  23571  153.877
 3.8116  23244.6  152.918
 3.8536  23395.7  153.35
 3.8956  23351.5  153.015
 3.9376  23177  152.748
 3.9796  23119.3  152.017
 4.0216  23198.1  151.305
 4.0636  22934.5  151.91
 4.1056  23116.9  152.159
 4.1476  23520  153.794
 4.1896  23675.3  154.157
 4.2316  23678.9  154.01
 4.2736  24143.6  155.305
 4.3156  24231.3  155.816
 4.3576  24934  157.959
 4.3996  25178.8  158.809
 4.4416  25860.8  160.737
 4.4836  26241.2  162.072
 4.5256  26737  164.211
 4.5676  26900.9  164.967
 4.6096  27055.7  164.462
 4.6516  27443.9  164.965
 4.6936  27717  166.618
 4.7356  27880.9  166.929
 4.7776  27739.6  166.33
 4.8196  27542.2  166.394
 4.8616  26994.7  164.354
 4.9036  26970.7  163.877
 4.9456  26742.7  163.835
 4.9876  26101  161.756
 5.0296  26245.2  162.049
 5.0716  26241.8  162.647
 5.1136  26333.3  162.795
 5.1556  26544.4  162.9
 5.1976  27104  164.611
 5.2396  27206.7  164.599
 5.2816  27098  164.757
 5.3236  27331.1  165.156
 5.3656  26749.8  164.321
 5.4076  26456.8  163.549
 5.4496  26616.8  163.548
 5.4916  26562.6  163.137
 5.5336  26492  162.922
 5.5756  26710.2  163.606
 5.6176  26630.7  162.817
 5.6596  26801.8  164.159
 5.7016  26913.7  163.923
 5.7436  27095.3  164.75
 5.7856  27037.1  164.64
 5.8276  27171.3  164.761
 5.8696  27468.4  165.722
 5.9116  27141  165.412
 5.9536  27869.8  167.391
 5.9956  27746.4  166.411
 6.0376  27688.7  166.854
 6.0796  28123.2  167.983
 6.1216  27979.6  167.755
 6.1636  28265.1  167.648
 6.2056  28108.4  167.876
 6.2476  28624.1  169.093
 6.2896  28766.8  169.381
 6.3316  28672.6  169.274
 6.3736  28640.4  169.069
 6.4156  28635.8  168.998
 6.4576  28845.7  169.19
 6.4996  28826.3  169.598
 6.5416  29106.8  170.554
 6.5836  28740.5  169.715
 6.6256  29168.7  170.536
 6.6676  29455.5  170.938
 6.7096  29441.7  171.761
 6.7516  29837.7  172.564
 6.7936  30241.1  172.885
 6.8356  30019.3  172.588
 6.8776  30201.4  173.905
 6.9196  30296.7  174.581
 6.9616  30760.6  175.326
 7.0036  31108.2  176.007
 7.0456  31370.9  176.05
 7.0876  31472  177.924
 7.1296  30915  175.579
 7.1716  31104.1  175.657
 7.2136  30561.4  173.9
 7.2556  31040  175.409
 7.2976  31039.2  175.892
 7.3396  30677.8  175.088
 7.3816  30792.4  175.632
 7.4236  30936  175.34
 7.4656  31290.7  175.806
 7.5076  31376.5  176.197
 7.5496  31039.5  175.788
 7.5916  31419.3  176.898
 7.6336  31687.9  177.54
 7.6756  31787.5  177.672
 7.7176  32157.9  179.023
 7.7596  32086.9  180.032
 7.8016  32704.6  183.976
 7.8436  32417.2  179.861
 7.8856  32318.6  179.21
 7.9276  32670.8  180.57
 7.9696  33282.2  182.548
 8.0116  34036  183.544
 8.0536  34251.5  184.006
 8.0956  34246.8  185.145
 8.1376  34667.8  185.765
 8.1796  34619.9  186.158
 8.2216  35575.6  187.476
 8.2636  35646.7  187.911
 8.3056  35360.1  187.907
 8.3476  36016.8  188.98
 8.3896  35611.9  188.433
 8.4316  36016.8  189.224
 8.4736  36341.4  189.556
 8.5156  35846.4  188.529
 8.5576  35596.6  188.814
 8.5996  35486.8  187.431
 8.6416  35393.4  188.413
 8.6836  34840.2  186.779
 8.7256  35573.9  188.188
 8.7676  35226.1  190.129
 8.8096  35536.7  188.322
 8.8516  36186.8  189.655
 8.8936  35334  187.32
 8.9356  35566.4  188.256
 8.9776  35398.2  187.894
 9.0196  35777.2  188.57
 9.0616  35275.6  186.755
 9.1036  34538.5  185.933
 9.1456  34589  185.406
 9.1876  34570.1  185.298
 9.2296  34329  184.107
 9.2716  34198.9  183.8
 9.3136  34339.2  184.169
 9.3556  34352.2  184.17
 9.3976  33400.2  182.122
 9.4396  33485.9  182.253
 9.4816  33551.1  182.303
 9.5236  32957.4  180.578
 9.5656  32801.8  180.501
 9.6076  32190.9  179.32
 9.6496  32307.3  179.541
 9.6916  31993.4  178.595
 9.7336  32340.1  179.371
 9.7756  32151.5  180.038
 9.8176  31840.9  178.714
 9.8596  31855.2  177.237
 9.9016  31540.7  176.342
 9.9436  31186.6  175.098
 9.9856  30810.7  174.483
 10.0276  30597.6  174.924
 10.0696  30739.7  174.392
 10.1116  30008  172.556
 10.1536  30120.5  172.557
 10.1956  29646  171.289
 10.2376  29663.7  170.861
 10.2796  29337.8  170.02
 10.3216  28857.5  168.75
 10.3636  28758.5  168.64
 10.4056  28288.2  167.637
 10.4476  28800.1  168.781
 10.4896  28976.4  168.745
 10.5316  28557.3  167.904
 10.5736  27942.2  166.825
 10.6156  28204.6  167.36
 10.6576  27845.8  164.881
 10.6996  27652.9  165.007
 10.7416  27304  164.176
 10.7836  26834.3  163.405
 10.8256  26486.9  162.762
 10.8676  26445.3  162.192
 10.9096  26384.9  162.041
 10.9516  25997.5  159.815
 10.9936  26163.7  160.529
 11.0356  25679.3  159.629
 11.0776  25459  158.293
 11.1196  25175.1  158.155
 11.1616  24950.5  157.121
 11.2036  25129  157.527
 11.2456  24916.6  157.549
 11.2876  25187  158.146
 11.3296  24833.1  156.945
 11.3716  24925.9  156.973
 11.4136  25147.7  158.493
 11.4556  25126.6  158.1
 11.4976  25405  157.985
 11.5396  25900.6  159.683
 11.5816  26295.2  161.323
 11.6236  25516.5  159.375
 11.6656  25387.1  157.913
 11.7076  24422.2  155.703
 11.7496  24359.6  159.443
 11.7916  24044.9  153.764
 11.8336  23586.5  153.19
 11.8756  23693.5  153.067
 11.9176  23578.8  152.608
 11.9596  23918  153.64
 12.0016  23644.4  153.51
 12.0436  23618.7  152.892
 12.0856  23157.2  151.877
 12.1276  23327.4  152.386
 12.1696  23307.2  151.447
 12.2116  23307  151.452
 12.2536  23310.6  152.249
 12.2956  22872.5  150.186
 12.3376  23233.5  151.577
 12.3796  23110  151.643
 12.4216  23153.4  150.985
 12.4636  22892.9  151.062
 12.5056  23042.9  150.835
 12.5476  23179.9  150.801
 12.5896  23012.7  150.89
 12.6316  22827.5  150.43
 12.6736  22991.7  151.306
 12.7156  23035.8  151.436
 12.7576  22819  150.96
 12.7996  23011.5  150.271
 12.8416  22864.6  150.819
 12.8836  23088.4  151.373
 12.9256  23687.7  152.388
 12.9676  23362.6  151.729
 13.0096  23633.6  153.719
 13.0516  23563.3  152.533
 13.0936  23331.8  151.907
 13.1356  23818.6  152.743
 13.1776  23602.3  153.045
 13.2196  23754.5  153.182
 13.2616  23386.6  152.299
 13.3036  23811.5  153.808
 13.3456  23284.1  152.071
 13.3876  23768  153.136
 13.4296  23521.8  152.5
 13.4716  23541.4  152.197
 13.5136  23689.9  152.804
 13.5556  23366.6  152.371
 13.5976  23664.3  153.513
 13.6396  23649.7  152.829
 13.6816  23781  153.596
 13.7236  24164.7  154.55
 13.7656  25797  160.101
 13.8076  26634.9  161.318
 13.8496  25157.5  157.661
 13.8916  23937.6  154.735
 13.9336  23202.5  151.623
 13.9756  23140.2  150.81
 14.0176  22930.2  150.789
 14.0596  23055.1  151.116
 14.1016  22859.2  150.913
 14.1436  22995.5  150.502
 14.1856  22240.1  148.296
 14.2276  22313.5  149.016
 14.2696  22274.6  148.738
 14.3116  21772.2  146.96
 14.3536  21736.8  147.003
 14.3956  21623.8  146.348
 14.4376  21900.2  147.068
 14.4796  21856.6  146.926
 14.5216  21388.3  146.117
 14.5636  21147.5  144.87
 14.6056  21559.4  145.833
 14.6476  21311.7  144.252
 14.6896  20993.3  143.704
 14.7316  20483.4  142.97
 14.7736  20473.3  142.082
 14.8156  20370.1  141.747
 14.8576  20276.8  141.283
 14.8996  20119.1  141.915
 14.9416  19465.6  139.606
 14.9836  19576.4  139.988
 15.0256  19033.1  136.965
 15.0676  18977  137.068
 15.1096  18942.9  136.681
 15.1516  18631.3  136.093
 15.1936  18538.3  135.205
 15.2356  18492.1  135.309
 15.2776  18215  133.891
 15.3196  17822.5  133.402
 15.3616  17888.9  133.42
 15.4036  17673.2  132.478
 15.4456  18069.5  133.389
 15.4876  17670.2  131.817
 15.5296  17654.7  132.037
 15.5716  17306.8  130.342
 15.6136  17383.1  130.95
 15.6556  17319.9  129.974
 15.6976  17328.8  130.084
 15.7396  16958.6  129.274
 15.7816  16867.9  128.456
 15.8236  16704.5  128.502
 15.8656  16836.9  128.809
 15.9076  16658.4  127.95
 15.9496  17358.7  133.389
 15.9916  17122.5  132.865
 16.0336  17143.7  129.875
 16.0756  16813.4  128.935
 16.1176  16548.7  127.83
 16.1596  16433.8  128.7
 16.2016  16415.8  127.417
 16.2436  16373.6  127.627
 16.2856  16349.6  127.046
 16.3276  16082.9  126.456
 16.3696  16132.7  126.471
 16.4116  16256.8  127.411
 16.4536  16360.4  127.615
 16.4956  16287.2  127.065
 16.5376  16112.5  126.559
 16.5796  15921  125.193
 16.6216  16168.8  126.423
 16.6636  15813  125.21
 16.7056  16118  126.275
 16.7476  15753.6  124.515
 16.7896  15794.5  125.268
 16.8316  15965.4  125.932
 16.8736  16099.1  126.701
 16.9156  15710.2  125.492
 16.9576  15620.8  125.899
 16.9996  15769.9  126.944
 17.0416  15934.1  126.023
 17.0836  15920.9  125.737
 17.1256  15843.3  125.437
 17.1676  15656.9  124.662
 17.2096  15519.6  123.999
 17.2516  15495.4  124.005
 17.2936  15403.4  123.682
 17.3356  15174.1  122.742
 17.3776  15068.3  122.501
 17.4196  15007.8  121.955
 17.4616  14986.1  121.772
 17.5036  14594.2  120.53
 17.5456  14786.1  121.934
 17.5876  14728.4  120.775
 17.6296  14993.5  121.673
 17.6716  14599.8  120.643
 17.7136  14636.7  120.928
 17.7556  14384.1  120.164
 17.7976  14294.2  119.392
 17.8396  14332.6  119.202
 17.8816  14292.3  119.583
 17.9236  14291.6  119.378
 17.9656  14107.4  119.276
 18.0076  14205  119.129
 18.0496  14107.8  117.876
 18.0916  14139.2  118.547
 18.1336  14178.1  118.801
 18.1756  14409.2  119.325
 18.2176  14167.9  118.525
 18.2596  14071.5  117.851
 18.3016  14327.1  119.18
 18.3436  14369.7  119.59
 18.3856  14140.5  118.542
 18.4276  14167.2  118.339
 18.4696  13839.4  117.048
 18.5116  14033.5  118.131
 18.5536  13882.7  117.857
 18.5956  13878.1  117.397
 18.6376  13707.9  117.069
 18.6796  13855  117.032
 18.7216  13926  117.878
 18.7636  13729.7  116.983
 18.8056  13563.5  116.193
 18.8476  13447.2  116.017
 18.8896  13637.5  116.473
 18.9316  13543.3  115.893
 18.9736  13529.6  115.704
 19.0156  13502.5  115.975
 19.0576  13566.3  115.142
 19.0996  13679.7  116.321
 19.1416  13498.8  115.926
 19.1836  13378.4  115.027
 19.2256  13291.7  114.874
 19.2676  13489.8  115.814
 19.3096  13383  115.593
 19.3516  13661.4  116.565
 19.3936  13285.5  115.091
 19.4356  13527  115.954
 19.4776  13338.3  115.23
 19.5196  13392.8  115.323
 19.5616  13259.9  114.998
 19.6036  13341.1  114.72
 19.6456  13341  114.97
 19.6876  13389.3  114.822
 19.7296  13527.3  115.869
 19.7716  13536.3  115.939
 19.8136  13696.4  116.96
 19.8556  13695.9  116.442
 19.8976  13579.1  116.009
 19.9396  13691.7  116.08
 19.9816  13822.4  116.876
 20.0236  13983.3  117.745
 20.0656  14065.4  118.095
 20.1076  14173.6  119.026
 20.1496  13934.1  118.01
 20.1916  13597.4  116.063
 20.2336  13481.6  115.531
 20.2756  13327.5  115.298
 20.3176  13172.7  114.373
 20.3596  13053.7  113.844
 20.4016  13189.4  114.233
 20.4436  13017.9  114.053
 20.4856  12986.6  113.702
 20.5276  12868.8  113.64
 20.5696  12842.9  113.091
 20.6116  12731.1  112.761
 20.6536  12774.2  112.526
 20.6956  12897.5  113.147
 20.7376  12638.5  112.208
 20.7796  12615  111.801
 20.8216  12911.9  112.833
 20.8636  12841.9  112.895
 20.9056  12616.3  111.835
 20.9476  12640.8  111.796
 20.9896  12766.4  112.21
 21.0316  12681.8  111.74
 21.0736  12705.3  112.359
 21.1156  12442.6  111.342
 21.1576  12682.2  112.446
 21.1996  12514  111.694
 21.2416  12701.4  112.351
 21.2836  12662  112.156
 21.3256  12585.6  111.885
 21.3676  12549.4  111.273
 21.4096  12316.7  110.6
 21.4516  12363.5  110.63
 21.4936  12175.9  110.042
 21.5356  12612.9  111.956
 21.5776  12557.7  111.542
 21.6196  12319.9  110.523
 21.6616  12229.4  110.193
 21.7036  12447.3  110.939
 21.7456  12331.8  110.5
 21.7876  12131  109.373
 21.8296  12295.3  109.953
 21.8716  12311.7  110.25
 21.9136  12402.4  110.863
 21.9556  12290.6  110.041
 21.9976  12039.3  108.941
 22.0396  12121.9  109.562
 22.0816  12081.7  109.883
 22.1236  12314.3  110.416
 22.1656  12105  109.659
 22.2076  12087.4  108.993
 22.2496  11864  108.01
 22.2916  11972.1  108.385
 22.3336  11925.7  108.865
 22.3756  11944  108.694
 22.4176  11789.5  107.838
 22.4596  11659.9  107.825
 22.5016  11781.3  107.894
 22.5436  11908.3  108.36
 22.5856  12108.4  109.508
 22.6276  12357.1  110.755
 22.6696  12100.2  109.952
 22.7116  11931.9  108.704
 22.7536  11893.1  108.507
 22.7956  11992.4  108.307
 22.8376  11943.1  108.593
 22.8796  11956.3  108.459
 22.9216  11924.6  108.845
 22.9636  11825.1  107.568
 23.0056  11889.4  107.988
 23.0476  11993.5  109.022
 23.0896  12153.6  109.135
 23.1316  12135.8  109.484
 23.1736  12062.5  112.037
 23.2156  12439.4  111.107
 23.2576  12480.1  111.494
 23.2996  12274.5  110.349
 23.3416  12329.4  111.119
 23.3836  12268.9  110.063
 23.4256  12436.1  110.951
 23.4676  12283.7  109.956
 23.5096  12285.9  110.636
 23.5516  12244.4  109.747
 23.5936  12267.8  110.755
 23.6356  12360.6  110.826
 23.6776  12206.6  110.662
 23.7196  12250.8  110.347
 23.7616  12244.5  110.018
 23.8036  12469.9  111.088
 23.8456  12119.5  109.06
 23.8876  12071.4  109.207
 23.9296  12068  109.673
 23.9716  12075.7  108.925
 24.0136  12021.4  109.571
 24.0556  11775.3  108.153
 24.0976  11827.7  108.227
 24.1396  11799.3  110.678
 24.1816  11838.1  109.614
 24.2236  11686.5  108.218
 24.2656  11615.3  107.377
 24.3076  11734.7  108.194
 24.3496  11663.2  107.738
 24.3916  11885  108.818
 24.4336  11733.1  108.317
 24.4756  11580.5  107.496
 24.5176  11578.9  107.12
 24.5596  11635.6  107.693
 24.6016  11494.5  107.14
 24.6436  11735  107.772
 24.6856  11545.2  106.641
 24.7276  11303.8  105.836
 24.7696  11334.2  106.078
 24.8116  11135.7  105.323
 24.8536  11149.4  105.399
 24.8956  11300.9  105.849
 24.9376  11238.9  105.733
 24.9796  11168.8  105.516
 25.0216  11080.7  105.208
 25.0636  11125.5  105.082
 25.1056  10896.3  104.409
 25.1476  10891.5  106.265
 25.1896  10952.4  105.081
 25.2316  10790.9  103.488
 25.2736  10886.3  103.709
 25.3156  10916.7  103.933
 25.3576  10691.8  103.278
 25.3996  10861  104.081
 25.4416  10822.2  103.87
 25.4836  10667.4  103.629
 25.5256  10750.3  103.408
 25.5676  10665.5  102.731
 25.6096  10529  102.63
 25.6516  10648.2  102.728
 25.6936  10683.4  103.211
 25.7356  10686.4  103.355
 25.7776  10617.5  102.705
 25.8196  10555.3  102.561
 25.8616  10577.2  102.604
 25.9036  10581.7  102.085
 25.9456  10579.5  102.667
 25.9876  10624.4  102.811
 26.0296  10568  102.279
 26.0716  10573.3  102.643
 26.1136  10529  102.354
 26.1556  10623.6  102.124
 26.1976  10486.6  102.464
 26.2396  10396.9  101.445
 26.2816  10622  102.887
 26.3236  10457.9  102.16
 26.3656  10599.1  102.654
 26.4076  10376.8  101.762
 26.4496  10621.2  102.575
 26.4916  10813  103.382
 26.5336  11057.3  104.884
 26.5756  11155.3  105.229
 26.6176  10605.4  102.618
 26.6596  10537.1  102.589
 26.7016  10417.1  101.82
 26.7436  10447.8  102.061
 26.7856  10167.8  100.666
 26.8276  10219.5  100.879
 26.8696  10218.2  100.756
 26.9116  10230.8  100.753
 26.9536  10150.1  100.401
 26.9956  10044.8  99.9113
 27.0376  10351.1  101.65
 27.0796  10172.7  100.543
 27.1216  10219.2  100.786
 27.1636  9935.96  99.547
 27.2056  10015.4  99.8331
 27.2476  10146.7  100.474
 27.2896  10009.3  99.8358
 27.3316  10002.4  99.5743
 27.3736  9867.84  99.1877
 27.4156  10030.8  99.8362
 27.4576  9853.34  99.162
 27.4996  10054.6  99.7966
 27.5416  9957.66  99.6086
 27.5836  9975.03  99.5377
 27.6256  9979.57  99.7389
 27.6676  9914.1  99.4006
 27.7096  9988.76  99.655
 27.7516  9856.67  99.1403
 27.7936  10179.1  100.887
 27.8356  10057.4  99.902
 27.8776  10150.5  100.432
 27.9196  9790.91  98.5001
 27.9616  9957.58  99.5293
 28.0036  9803.96  98.7175
 28.0456  9817.73  98.9264
 28.0876  9794.71  98.8977
 28.1296  9756.33  98.5448
 28.1716  9934.9  99.4529
 28.2136  9773.95  98.6039
 28.2556  9724.43  98.4801
 28.2976  9611.44  97.897
 28.3396  9593.28  97.599
 28.3816  9664.34  97.9339
 28.4236  9583.6  97.6795
 28.4656  9616.41  97.8856
 28.5076  9633.81  97.6175
 28.5496  9574.29  97.5739
 28.5916  9553.35  97.2776
 28.6336  9613.5  97.918
 28.6756  9574.29  96.9268
 28.7176  9529.53  97.2479
 28.7596  9441.76  96.6925
 28.8016  9404.83  96.6189
 28.8436  9321.81  96.3453
 28.8856  9609.08  97.6739
 28.9276  9525.44  97.4932
 28.9696  9377.63  96.3819
 29.0116  9360.16  96.4783
 29.0536  9320.61  96.4883
 29.0956  9372.34  96.4632
 29.1376  9352.27  96.3325
 29.1796  9349.87  96.3639
 29.2216  9394.72  96.4418
 29.2636  9455.38  96.7483
 29.3056  9277.74  95.6881
 29.3476  9420.41  96.9532
 29.3896  9342.39  96.6607
 29.4316  9234.63  95.4429
 29.4736  9154.41  95.093
 29.5156  9179.3  95.1366
 29.5576  9204.13  95.9935
 29.5996  9076.51  94.6071
 29.6416  9071.34  94.6942
 29.6836  9181  95.1953
 29.7256  9089.94  95.2713
 29.7676  9029.74  94.627
 29.8096  8929.27  94.0453
 29.8516  8868.15  94.0444
 29.8936  9023.88  94.9533
 29.9356  9071.92  94.9698
 29.9776  8937.49  94.4122
 30.0196  8966.56  93.9698
 30.0616  9123.76  95.1588
 30.1036  9088.77  94.8006
 30.1456  8979.25  94.4812
 30.1876  8954.63  94.3073
 30.2296  8921.25  94.0845
 30.2716  9018.84  94.2423
 30.3136  8988.27  94.6621
 30.3556  9167.91  95.8606
 30.3976  9119.7  97.0592
 30.4396  9497.13  96.4378
 30.4816  9262.21  94.8529
 30.5236  9260.9  94.8456
 30.5656  9314.78  95.7711
 30.6076  9099.81  94.4126
 30.6496  9262.3  95.3289
 30.6916  8989.89  93.9932
 30.7336  9123.83  94.8426
 30.7756  9158.92  95.33
 30.8176  9141.41  94.9373
 30.8596  9149.28  94.7233
 30.9016  9324.09  95.5202
 30.9436  9033.08  94.2207
 30.9856  9218.34  95.3131
 31.0276  9036.75  94.0011
 31.0696  9014.62  94.3111
 31.1116  9027.75  94.4702
 31.1536  9002.35  94.2278
 31.1956  9025.7  94.4299
 31.2376  8868.24  93.6307
 31.2796  9022.74  93.9844
 31.3216  9090.51  94.2545
 31.3636  9057.2  94.7735
 31.4056  9054.05  96.0512
 31.4476  9109.45  94.2799
 31.4896  9121.79  94.8395
 31.5316  8959.09  93.4498
 31.5736  9058  93.753
 31.6156  9070.85  93.8277
 31.6576  9060.09  93.8426
 31.6996  9101.85  93.7438
 31.7416  9043.48  94.3739
 31.7836  9057.26  93.5899
 31.8256  9025.07  93.7606
 31.8676  9159.14  94.3668
 31.9096  8877.76  93.1342
 31.9516  8790.35  92.9862
 31.9936  8734.62  92.5115
 32.0356  9015.03  94.0291
 32.0776  8945.06  93.5691
 32.1196  8984.89  93.7913
 32.1616  9123.97  94.0531
 32.2036  8996.75  93.8993
 32.2456  8858.62  93.5529
 32.2876  8833.6  92.7596
 32.3296  8686.93  92.1163
 32.3716  8681.3  92.201
 32.4136  8704.48  92.5141
 32.4556  8746.06  92.1945
 32.4976  8832.02  92.5429
 32.5396  8681.58  91.7707
 32.5816  8769.78  92.2647
 32.6236  8757.14  92.3575
 32.6656  8764.56  92.9348
 32.7076  8678.29  92.1287
 32.7496  8594.06  91.3615
 32.7916  8641.96  91.5819
 32.8336  8665.77  91.7952
 32.8756  8857.96  92.6172
 32.9176  8594.29  91.6219
 32.9596  8557.9  91.4993
 33.0016  8648.9  91.7631
 33.0436  8724.39  92.3333
 33.0856  8701.57  92.3073
 33.1276  8451.94  90.7092
 33.1696  8702.48  91.8777
 33.2116  8641.69  91.7868
 33.2536  8705.63  92.1074
 33.2956  8640.23  91.8556
 33.3376  8502.16  90.9172
 33.3796  8548.42  91.3248
 33.4216  8501.65  90.674
 33.4636  8699.6  91.8742
 33.5056  8555.89  91.1942
 33.5476  8486.49  90.9605
 33.5896  8588.37  91.2752
 33.6316  8527.48  91.282
 33.6736  8360.13  90.625
 33.7156  8522  91.5116
 33.7576  8584.99  91.5125
 33.7996  8524.48  90.9539
 33.8416  8256.8  89.6957
 33.8836  8425.16  90.3816
 33.9256  8510.75  90.8912
 33.9676  8478.23  90.6209
 34.0096  8398.52  90.4979
 34.0516  8424.29  90.2808
 34.0936  8323.46  90.0104
 34.1356  8357.82  89.9313
 34.1776  8327.96  89.7702
 34.2196  8399.46  90.344
 34.2616  8220.57  89.5671
 34.3036  8455.44  91.0271
 34.3456  8319.43  90.0406
 34.3876  8397.35  90.5277
 34.4296  8328.82  89.7698
 34.4716  8444.01  90.5358
 34.5136  8356.1  90.2558
 34.5556  8180.86  89.5455
 34.5976  8439.77  90.7998
 34.6396  8272.91  89.5726
 34.6816  8438.69  90.5788
 34.7236  8305.56  89.6495
 34.7656  8322.06  89.9448
 34.8076  8344.02  90.3873
 34.8496  8192.21  89.4096
 34.8916  8288.2  89.7976
 34.9336  8285.74  89.7684
 34.9756  8387.67  90.2628
 35.0176  8248.25  90.0038
 35.0596  8357.81  90.4227
 35.1016  8276.25  89.7297
 35.1436  8503.78  90.661
 35.1856  8341.74  89.8974
 35.2276  8225.69  89.4438
 35.2696  8351.02  90.3217
 35.3116  8146.74  89.3072
 35.3536  8242.71  89.5749
 35.3956  8103.89  88.5041
 35.4376  8292.26  90.0932
 35.4796  8147.28  89.331
 35.5216  8193.2  89.4836
 35.5636  8006.89  89.2397
 35.6056  8075.52  88.6734
 35.6476  8151.89  88.9956
 35.6896  8240.93  89.6421
 35.7316  8106.53  88.8177
 35.7736  8130.4  89.1276
 35.8156  8193.9  89.4649
 35.8576  8243.64  89.9886
 35.8996  8244.88  89.9647
 35.9416  8143.07  88.9229
 35.9836  8075.12  88.9984
 36.0256  8337.31  90.345
 36.0676  8334.35  89.8479
 36.1096  8108.21  88.9883
 36.1516  8283.65  89.8365
 36.1936  8194.56  89.19
 36.2356  8127.36  89.4753
 36.2776  8143.55  89.034
 36.3196  8077.83  88.354
 36.3616  8074.17  88.4634
 36.4036  8135.24  88.8689
 36.4456  8083.52  88.7864
 36.4876  7989.15  88.2114
 36.5296  7941.49  87.9879
 36.5716  8081.69  89.5349
 36.6136  7986.43  87.8061
 36.6556  7836.04  87.1669
 36.6976  7829.29  87.6154
 36.7396  7930.25  88.0058
 36.7816  7919.46  88.2225
 36.8236  7783.78  87.3788
 36.8656  7821.8  87.6695
 36.9076  7841.96  87.7902
 36.9496  7662.09  86.7904
 36.9916  7708.42  86.54
 37.0336  7899.35  87.9163
 37.0756  7870.21  87.5526
 37.1176  7666.32  86.7649
 37.1596  7754.34  87.1682
 37.2016  7645.1  86.7275
 37.2436  7705.35  86.4552
 37.2856  7802.2  87.2444
 37.3276  7844.57  86.8492
 37.3696  7623.72  86.4712
 37.4116  7801.08  87.3821
 37.4536  7719.23  86.7865
 37.4956  7643.34  86.4055
 37.5376  7824.67  88.9883
 37.5796  7916.84  89.4361
 37.6216  7926.65  87.7809
 37.6636  7932.75  87.7051
 37.7056  7905.82  87.7471
 37.7476  7998.54  87.8051
 37.7896  7684.74  86.561
 37.8316  7849.75  87.6306
 37.8736  7748.01  86.6008
 37.9156  7973.39  87.8484
 37.9576  7730.19  86.5507
 37.9996  7753.28  86.2577
 38.0416  7812.66  87.3808
 38.0836  7910.99  87.8377
 38.1256  7786.88  87.1199
 38.1676  7711.55  86.8129
 38.2096  7681.02  86.2636
 38.2516  7918.33  87.7164
 38.2936  7872.28  87.3488
 38.3356  7897.59  87.4182
 38.3776  7752.65  86.8516
 38.4196  7672.79  86.2686
 38.4616  7860.34  87.5627
 38.5036  7827.84  87.229
 38.5456  7693.23  87.287
 38.5876  7700.02  87.3414
 38.6296  7757.37  86.6565
 38.6716  7688.24  86.0652
 38.7136  7631.89  85.7016
 38.7556  7735.99  86.7829
 38.7976  7752.7  86.803
 38.8396  7616.56  86.4903
 38.8816  7646.53  86.4587
 38.9236  7746.65  86.8254
 38.9656  7810.63  87.0905
 39.0076  7820.56  86.5506
 39.0496  7760.32  86.7671
 39.0916  7775.98  86.5087
 39.1336  7715.1  86.5706
 39.1756  7700.73  86.5402
 39.2176  7627.03  86.6614
 39.2596  7710.48  87.0504
 39.3016  7721.18  86.7125
 39.3436  7729.71  87.17
 39.3856  7761.6  86.7826
 39.4276  7926.77  88.223
 39.4696  7831.75  87.3085
 39.5116  7695.17  87.0567
 39.5536  7687.27  87.4146
 39.5956  7650.31  86.3337
 39.6376  7685.12  86.3644
 39.6796  7704.31  86.3877
 39.7216  7680.85  86.3568
 39.7636  7753.16  87.3077
 39.8056  7719.57  86.9191
 39.8476  7631.71  86.6707
 39.8896  7617.74  86.2298
 39.9316  7687.02  86.8653
 39.9736  7730.34  86.6871
 40.0156  7668.4  86.1769
 40.0576  7668.7  86.5175
 40.0996  7755.29  86.2023
 40.1416  7615.85  86.1979
 40.1836  7750.89  86.8507
 40.2256  7734.36  86.7824
 40.2676  7531.56  85.8243
 40.3096  7663.08  86.4336
 40.3516  7678.03  86.7027
 40.3936  7835.42  87.0605
 40.4356  7653.98  86.252
 40.4776  7806.22  87.3399
 40.5196  7767.78  87.4146
 40.5616  7814.64  87.323
 40.6036  7619.03  86.4759
 40.6456  7664.65  86.3562
 40.6876  7893.23  87.6202
 40.7296  7696.12  86.646
 40.7716  7799.25  87.3458
 40.8136  7608.48  86.2245
 40.8556  7767.31  87.2571
 40.8976  7720.59  86.909
 40.9396  7680.57  87.0306
 40.9816  7863.46  87.3518
 41.0236  7734.2  86.4209
 41.0656  7765.83  87.1278
 41.1076  7733.17  86.7157
 41.1496  7815.45  87.0787
 41.1916  7569.91  86.0147
 41.2336  7729.74  86.9188
 41.2756  7777.7  86.7972
 41.3176  7734  87.1461
 41.3596  7674  86.5474
 41.4016  7597.31  86.3715
 41.4436  7753.89  87.0428
 41.4856  7753.11  87.2025
 41.5276  7674.45  86.7762
 41.5696  7733.91  86.735
 41.6116  7760.58  87.2843
 41.6536  7722.63  86.926
 41.6956  7798.69  87.3328
 41.7376  7613.25  86.3976
 41.7796  7616.94  86.3466
 41.8216  7739.26  87.2273
 41.8636  7712.75  87.0191
 41.9056  7696.24  86.7248
 41.9476  7699.95  86.9728
 41.9896  7731.3  86.8253
 42.0316  7686.81  86.6498
 42.0736  7706.46  86.8923
 42.1156  7665.71  86.465
 42.1576  7630.77  86.3808
 42.1996  7744.7  87.1379
 42.2416  7635.17  86.1278
 42.2836  7667.1  86.4219
 42.3256  7648.69  86.4168
 42.3676  7849.39  87.3585
 42.4096  7669.68  86.3256
 42.4516  7675.07  86.4302
 42.4936  7688.68  86.5712
 42.5356  7556.05  85.9679
 42.5776  7632.89  86.3415
 42.6196  7568.51  85.9436
 42.6616  7463.62  85.6026
 42.7036  7633.77  85.9594
 42.7456  7682.55  86.5788
 42.7876  7604.59  86.2219
 42.8296  7661.73  86.4637
 42.8716  7503.5  85.6633
 42.9136  7491.37  85.3455
 42.9556  7622.39  86.2562
 42.9976  7590.92  86.0466
 43.0396  7595.62  85.8058
 43.0816  7550.68  85.9353
 43.1236  7533.16  85.882
 43.1656  7626.09  86.236
 43.2076  7508.48  85.6759
 43.2496  7485.05  85.3692
 43.2916  7481.97  85.705
 43.3336  7656.93  86.5157
 43.3756  7575.07  85.8215
 43.4176  7364.69  84.711
 43.4596  7482.23  85.2398
 43.5016  7522.66  85.8655
 43.5436  7592.09  86.1691
 43.5856  7527.64  85.8376
 43.6276  7485.2  85.4784
 43.6696  7500.46  85.7103
 43.7116  7612.18  85.9614
 43.7536  7559.8  86.156
 43.7956  7319.22  85.9644
 43.8376  7295.39  84.3735
 43.8796  7323.36  84.6139
 43.9216  7439.04  85.1965
 43.9636  7310.13  84.5619
 44.0056  7307.89  84.7759
 44.0476  7355.73  84.6915
 44.0896  7317.83  84.809
 44.1316  7193.07  83.7502
 44.1736  7301.32  84.3711
 44.2156  7404.19  84.8102
 44.2576  7322.06  84.6644
 44.2996  7226.63  84.082
 44.3416  7358.75  84.616
 44.3836  7229.92  84.1886
 44.4256  7265.12  84.0402
 44.4676  7287.28  84.3266
 44.5096  7304.73  84.5691
 44.5516  7155.34  83.6652
 44.5936  7247.94  84.1571
 44.6356  7324.89  84.3459
 44.6776  7355.23  84.8289
 44.7196  7258.7  84.5341
 44.7616  7253.1  85.8444
 44.8036  7304.72  84.8077
 44.8456  7436.2  85.5687
 44.8876  7431.45  85.3838
 44.9296  7546.61  85.4898
 44.9716  7603.73  86.2263
 45.0136  7474.6  85.4388
 45.0556  7449.81  85.3961
 45.0976  7312.21  84.6483
 45.1396  7287.19  84.2408
 45.1816  7378.95  84.5601
 45.2236  7536.37  85.5409
 45.2656  7359.71  85.0211
 45.3076  7366.04  84.836
 45.3496  7225.41  84.3345
 45.3916  7421.78  85.7412
 45.4336  7508.93  86.0847
 45.4756  7394.31  85.2728
 45.5176  7449.49  85.2128
 45.5596  7398.24  85.031
 45.6016  7274.29  84.7444
 45.6436  7381.68  84.5467
 45.6856  7290.84  84.665
 45.7276  7221.52  86.0549
 45.7696  7266.94  85.5159
 45.8116  7283.79  85.0466
 45.8536  7256.57  84.7915
 45.8956  7294.83  84.3636
 45.9376  7366.43  84.2484
 45.9796  7368.06  84.9549
 46.0216  7362.08  85.2385
 46.0636  7332.76  84.2117
 46.1056  7257.97  83.7878
 46.1476  7230.84  84.2117
 46.1896  7347.83  85.0389
 46.2316  7341.01  84.861
 46.2736  7337.31  85.0621
 46.3156  7308.96  84.6355
 46.3576  7261.68  84.562
 46.3996  7175.98  84.2225
 46.4416  7344.37  84.7557
 46.4836  7278.14  84.7578
 46.5256  7273.98  84.6652
 46.5676  7269.88  84.7639
 46.6096  7390.54  85.3857
 46.6516  7355.6  84.2409
 46.6936  7282.92  84.3122
 46.7356  7419.89  85.1881
 46.7776  7154.26  84.4944
 46.8196  7174.73  84.3584
 46.8616  7144.77  83.9934
 46.9036  7073.59  83.2363
 46.9456  7116.22  83.1328
 46.9876  7259.44  84.0447
 47.0296  7211.62  84.4506
 47.0716  7151.15  83.9215
 47.1136  7156.64  83.6308
 47.1556  7213.35  83.8325
 47.1976  7250.14  84.1931
 47.2396  7112.12  83.7125
 47.2816  7050.13  83.0496
 47.3236  7279.23  84.7641
 47.3656  7213.06  84.301
 47.4076  7246.16  84.2394
 47.4496  7144.05  83.803
 47.4916  7203.75  84.3466
 47.5336  7315  84.8032
 47.5756  7170.13  84.0429
 47.6176  7081.37  83.4511
 47.6596  7130.94  83.4615
 47.7016  7434.64  85.0425
 47.7436  7216.79  84.1119
 47.7856  7228.68  84.2098
 47.8276  7129.91  83.6973
 47.8696  7206.26  84.2174
 47.9116  7239.67  84.1209
 47.9536  7220.46  83.9574
 47.9956  7068.4  83.7709
 48.0376  7021.9  83.2688
 48.0796  7231.97  84.6237
 48.1216  7085.93  83.5981
 48.1636  7244.83  84.0954
 48.2056  7169.53  83.9271
 48.2476  7298.18  84.9899
 48.2896  7244.95  84.5822
 48.3316  7260.13  84.6184
 48.3736  7276.09  84.7346
 48.4156  7137.7  83.7752
 48.4576  7202.11  84.4424
 48.4996  7208.47  83.9361
 48.5416  7223.7  84.3526
 48.5836  7205.67  83.9141
 48.6256  7268.58  84.4918
 48.6676  7166.23  84.4216
 48.7096  7141.97  83.5378
 48.7516  7215.42  84.1223
 48.7936  7037.15  83.1302
 48.8356  7143.4  83.8087
 48.8776  7268.22  85.0417
 48.9196  7382.09  85.135
 48.9616  7150.74  84.1791
 49.0036  7187  84.7424
 49.0456  7135.55  84.4133
 49.0876  7071.17  83.6727
 49.1296  7038.39  83.5444
 49.1716  6980.12  83.0705
 49.2136  7251.02  84.5953
 49.2556  7078.12  83.6058
 49.2976  7172.93  84.2363
 49.3396  7021.61  83.3946
 49.3816  7263.74  84.2421
 49.4236  7123.09  83.8525
 49.4656  7045.93  83.4145
 49.5076  7131.86  83.6673
 49.5496  7014.18  82.9185
 49.5916  7136.25  83.6671
 49.6336  7096.43  83.6517
 49.6756  7188.15  84.4197
 49.7176  6979.05  83.1257
 49.7596  7142.95  84.0361
 49.8016  7164.95  83.8999
 49.8436  7017.16  83.3359
 49.8856  7088.28  83.7605
 49.9276  7062.39  83.7072
 49.9696  7064.01  83.6964
 50.0116  6973.4  83.2988
 50.0536  7122.44  84.1291
 50.0956  7097.97  84.048
 50.1376  7064.81  83.5534
 50.1796  7077.24  83.8969
 50.2216  7036.83  83.6562
 50.2636  7031.31  83.237
 50.3056  7001.72  83.2363
 50.3476  7089.68  83.7751
 50.3896  7019.88  83.3405
 50.4316  7044.87  83.3155
 50.4736  6964.11  83.0575
 50.5156  7009.95  83.3197
 50.5576  7126.77  83.7706
 50.5996  7020.69  83.4316
 50.6416  6969.45  83.0482
 50.6836  7018.62  83.404
 50.7256  7054.34  83.5366
 50.7676  7199.72  84.6657
 50.8096  6984.71  82.975
 50.8516  6991.97  83.4325
 50.8936  6894.51  82.6404
 50.9356  7011.34  83.4437
 50.9776  6916.18  83.0383
 51.0196  6823.39  82.6022
 51.0616  6818.94  81.897
 51.1036  6923.13  82.8819
 51.1456  6950.49  82.9561
 51.1876  6936.28  82.2069
 51.2296  6909.13  82.6711
 51.2716  6753.1  81.4547
 51.3136  6858.19  82.5477
 51.3556  6815.97  81.9121
 51.3976  6733.02  81.5623
 51.4396  6585.49  80.9722
 51.4816  6819.64  82.2531
 51.5236  6863.48  82.6006
 51.5656  6865.48  82.2109
 51.6076  6832.82  82.0959
 51.6496  6856.02  82.4286
 51.6916  6865.03  82.8395
 51.7336  6799.41  82.5391
 51.7756  6811.8  82.3056
 51.8176  6716.47  81.8263
 51.8596  6803.32  82.3811
 51.9016  6883.33  82.4663
 51.9436  6897.84  84.0653
 51.9856  6842.41  84.1235
 52.0276  6878.32  82.8357
 52.0696  7042.69  83.8947
 52.1116  6833.87  82.7628
 52.1536  6813.14  82.4691
 52.1956  6940.82  82.7429
 52.2376  6907.38  82.7085
 52.2796  6790.94  81.8416
 52.3216  6735.31  82.1833
 52.3636  6842.78  82.4044
 52.4056  6858.92  82.3691
 52.4476  6781.64  82.2646
 52.4896  6690.92  81.7476
 52.5316  6932.69  83.277
 52.5736  6722.09  81.7171
 52.6156  6904.29  83.222
 52.6576  6676.89  81.2738
 52.6996  6697.29  82.3896
 52.7416  6673.75  82.1005
 52.7836  6881.03  83.2541
 52.8256  6868.89  82.3833
 52.8676  6516.89  80.8074
 52.9096  6849.92  82.9156
 52.9516  6714.67  82.4867
 52.9936  6752.12  83.09
 53.0356  6842.57  82.6279
 53.0776  6859.89  83.0425
 53.1196  6797.8  82.7651
 53.1616  6691.1  82.1612
 53.2036  6791.42  82.7355
 53.2456  6788.93  82.8272
 53.2876  6776.02  82.4364
 53.3296  6754.75  82.6333
 53.3716  6857.18  83.006
 53.4136  6885.33  83.3309
 53.4556  6697.17  82.208
 53.4976  6640.5  81.6961
 53.5396  6714.68  82.5555
 53.5816  6804.27  82.7348
 53.6236  6594.85  81.8068
 53.6656  6679.65  81.9353
 53.7076  6733.98  82.2308
 53.7496  6735.8  82.3749
 53.7916  6754.32  82.6187
 53.8336  6716.56  82.2802
 53.8756  6624.36  82.2498
 53.9176  6659.54  81.8026
 53.9596  6427.32  81.1289
 54.0016  6471.42  80.7445
 54.0436  6426.08  80.6751
 54.0856  6487.53  80.4911
 54.1276  6470.72  80.5787
 54.1696  6483.56  80.8384
 54.2116  6606.7  81.3374
 54.2536  6458.95  80.2428
 54.2956  6455.58  80.2671
 54.3376  6476.63  80.8956
 54.3796  6419.44  80.414
 54.4216  6572.37  81.4407
 54.4636  6369.01  80.1243
 54.5056  6476.87  80.5961
 54.5476  6373.47  80.2898
 54.5896  6399.41  80.311
 54.6316  6394.25  80.1319
 54.6736  6410.15  80.2547
 54.7156  6428.34  80.4324
 54.7576  6302.1  79.6115
 54.7996  6523.58  81.1841
 54.8416  6390.85  80.3679
 54.8836  6461.74  80.9198
 54.9256  6376.22  80.1553
 54.9676  6355.38  79.8944
 55.0096  6353.52  79.9038
 55.0516  6289.21  79.6618
 55.0936  6437.82  80.3539
 55.1356  6257.93  79.2368
 55.1776  6519.15  81.1137
 55.2196  6286.06  79.4375
 55.2616  6467.24  80.8241
 55.3036  6280.65  79.8183
 55.3456  6130.6  78.9828
 55.3876  6350.85  80.1255
 55.4296  6224.93  79.3286
 55.4716  6342.22  80.0904
 55.5136  6284.09  79.4918
 55.5556  6525.87  81.049
 55.5976  6388.43  80.2696
 55.6396  6239.11  79.1984
 55.6816  6227.26  79.0515
 55.7236  6196.82  79.0381
 55.7656  6384.37  79.8349
 55.8076  6231.72  78.8911
 55.8496  6415.54  80.4719
 55.8916  6209.18  79.2332
 55.9336  6471.42  80.748
 55.9756  6135.04  78.5087
 56.0176  6247.08  79.3505
 56.0596  6287.7  79.6112
 56.1016  6175.64  78.9538
 56.1436  6267.32  79.7563
 56.1856  6055.5  78.1496
 56.2276  6351.61  80.0884
 56.2696  6155.33  78.8262
 56.3116  6323  80.2661
 56.3536  6259.34  79.5226
 56.3956  6115.71  78.5925
 56.4376  6256.95  79.5297
 56.4796  6108.92  78.4114
 56.5216  6173.19  79.1978
 56.5636  6108.35  78.3477
 56.6056  6291.09  79.7536
 56.6476  6143.91  78.43
 56.6896  6351.29  80.2004
 56.7316  6160.52  78.896
 56.7736  6200.36  79.1637
 56.8156  6183.92  79.0731
 56.8576  6013.14  77.9151
 56.8996  6034.18  77.9451
 56.9416  6022.62  78.0607
 56.9836  6211.16  78.9207
 57.0256  6122.79  78.6726
 57.0676  6209.75  79.3245
 57.1096  6126.85  78.6015
 57.1516  5984.99  77.7122
 57.1936  6079.69  78.1089
 57.2356  6002.32  77.9435
 57.2776  6059.7  78.2813
 57.3196  6135.32  79.0992
 57.3616  6043.95  78.0205
 57.4036  6105.36  78.4657
 57.4456  6178.57  78.9349
 57.4876  6081.2  78.1813
 57.5296  6039.27  78.1274
 57.5716  5988.66  77.9103
 57.6136  5967.1  77.5984
 57.6556  6153.25  78.9275
 57.6976  6047.52  78.0802
 57.7396  6000.3  78.108
 57.7816  5890.37  77.7524
 57.8236  5951.75  77.9436
 57.8656  6071  78.3976
 57.9076  5975.93  77.7986
 57.9496  5938.34  77.901
 57.9916  5969.39  77.5956
 58.0336  5999.94  78.1058
 58.0756  6036.09  77.9265
 58.1176  5992.44  77.6936
 58.1596  5923.97  77.8265
 58.2016  5795.72  76.2387
 58.2436  5787.83  76.562
 58.2856  5708.18  75.9653
 58.3276  5692.26  76.2157
 58.3696  5742.65  76.3139
 58.4116  5756.44  76.2734
 58.4536  5837.78  76.6962
 58.4956  5709.18  76.0251
 58.5376  5750.04  75.8792
 58.5796  5713.38  76.0466
 58.6216  5765.18  76.2031
 58.6636  5796.19  76.6277
 58.7056  5742.99  76.1258
 58.7476  5802.64  76.963
 58.7896  5693.35  75.8903
 58.8316  5793.69  76.5474
 58.8736  5818.6  76.7271
 58.9156  5682.91  75.8662
 58.9576  5824.86  77.0183
 58.9996  5868.03  76.671
 59.0416  5736.48  76.1588
 59.0836  5761.33  76.2413
 59.1256  5668.48  76.0164
 59.1676  5694.66  76.7848
 59.2096  5684.03  76.0449
 59.2516  5742.3  76.0252
 59.2936  5743.53  76.3533
 59.3356  5732.86  76.1632
 59.3776  5746.53  76.4188
 59.4196  5664.05  75.8064
 59.4616  5758.77  76.3009
 59.5036  5578.62  75.1321
 59.5456  5838.81  76.5626
 59.5876  5655.64  75.537
 59.6296  5636.71  75.4774
 59.6716  5832.87  76.8364
 59.7136  5708.12  75.9989
 59.7556  5790.66  76.68
 59.7976  5605.94  75.1986
 59.8396  5599.29  75.0522
 59.8816  5761.73  76.6652
 59.9236  5851.18  76.9079
 59.9656  5621.71  75.6357
 60.0076  5673.06  75.358
 60.0496  5790.23  76.6241
 60.0916  5930.7  76.9729
 60.1336  5503.41  75.2053
 60.1756  5669.32  77.4779
 60.1996  0.0000000E+00  0.0000000E+00