File: docs/examples/opeando_xrd/IS17_D/Data/IS17_D/17_Db_f00100.xye
# /beamlines/bl04/projects/cycle2025-II/20250340211-lsimonelli/DATA/IS17_D/17_Db_f00100.xye : mythproc.py merge -s 0.006 -l 0.5 -f /beamlines/bl04/inhouse/ff/FlatField/ff_20Nov2024rod8mm60s_17keV.raw -b True -c true -o xye /beamlines/bl04/projects/cycle2025-II/20250340211-lsimonelli/DATA/IS17_D/17_Db_00100.dat
# IsMon = [6743826, 6744796, 6746734]  IsPos = [-1.5000, -2.4884, -3.4988]
# Wave = 0.4962  CalPath /beamlines/bl04/projects/cycle2025-II/20250340211-lsimonelli/DATA/Align/Si_Pos1_25keV_f00001.cal
# Date = 2025-09-24_21:33:50 Dt = 4.8000  Bin = 0.0060  <imon> = 6745119 +/- 1209 (Min/Max) 6743826 / 6746734
# icurr 249.4196  mocoIn 1.7017E-05  mocoOut 0.7985  i15 7.07176e+06  imon 6.74512e+06  i7 5.0000  iEMpd_timer 4.8000  iEMpd_1 3.4919E-08  iEMpd_2 7.8293E-08  iEMpd_3 1.6467E-08  iEMpd_4 4.7619E-08  iEMhp_timer 4.8000  iEMhp_1 4.8726E-06  iEMhp_2 -2.4633E-08  iEMhp_3 -2.3102E-08  iEMhp_4 -2.1822E-08
#      9776
 1.5856  44109.2  215.68
 1.6276  51276  228.552
 1.6696  56548.8  239.169
 1.7116  63602.3  254.143
 1.7536  72174.6  269.575
 1.7956  76007.5  277.332
 1.8376  72618.9  271.509
 1.8796  62666.2  250.371
 1.9216  51865  228.675
 1.9636  45120.6  212.952
 2.0056  40904.7  201.464
 2.0476  37893.6  196.032
 2.0896  37179.1  193.037
 2.1316  35930.8  188.856
 2.1736  34111.5  185.473
 2.2156  34724.2  185.629
 2.2576  33380.4  182.656
 2.2996  32264.5  180.234
 2.3416  32731.1  180.08
 2.3836  32042.5  178.29
 2.4256  31188.5  176.471
 2.4676  30602.9  174.559
 2.5096  30620  174.665
 2.5516  29016.9  173.909
 2.5936  29070.5  170.587
 2.6356  28542.3  169.744
 2.6776  28556  168.673
 2.7196  28181.6  168.067
 2.7616  27871.4  166.914
 2.8036  27442.2  165.794
 2.8456  27423  166.39
 2.8876  26697.1  164.029
 2.9296  26481.4  163.502
 2.9716  26266  162.318
 3.0136  26000.7  161.564
 3.0556  25927  161.711
 3.0976  26103.6  161.159
 3.1396  25520.2  160.091
 3.1816  25380.6  159.593
 3.2236  25059.6  158.569
 3.2656  24924.5  157.183
 3.3076  24569.8  157.53
 3.3496  24929.4  157.591
 3.3916  25480.2  159.145
 3.4336  25519.4  159.861
 3.4756  26133.8  161.714
 3.5176  26626.8  162.996
 3.5596  26114.1  164.445
 3.6016  26468.4  162.57
 3.6436  25495.2  160.671
 3.6856  25178.8  157.961
 3.7276  24398.5  156.58
 3.7696  24074.8  155.519
 3.8116  23699.2  154.408
 3.8536  23929  155.083
 3.8956  23657.4  154.02
 3.9376  23488.5  153.737
 3.9796  23375.8  152.861
 4.0216  23521.9  152.362
 4.0636  23310.2  153.147
 4.1056  23447.9  153.254
 4.1476  23700.8  154.378
 4.1896  23865.5  154.779
 4.2316  24058.9  155.231
 4.2736  24530.5  156.546
 4.3156  24543.7  156.816
 4.3576  25345.7  159.259
 4.3996  25453.9  159.876
 4.4416  26033.6  161.274
 4.4836  26517.9  162.93
 4.5256  27093.5  165.297
 4.5676  26914.3  165.005
 4.6096  27410.2  165.536
 4.6516  27767.7  165.93
 4.6936  27894.2  167.146
 4.7356  28045.8  167.423
 4.7776  27960.9  166.997
 4.8196  27882.2  167.412
 4.8616  27277.2  165.081
 4.9036  27087.6  164.237
 4.9456  26801.4  164.018
 4.9876  26117.3  161.815
 5.0296  26568.2  163.046
 5.0716  26480.1  163.519
 5.1136  26490.6  163.284
 5.1556  26687.6  163.344
 5.1976  27355.8  165.373
 5.2396  27381.8  165.139
 5.2816  27484.7  165.925
 5.3236  27208.1  164.783
 5.3656  26865.1  164.675
 5.4076  26620.3  164.061
 5.4496  26480.9  163.127
 5.4916  26867.4  164.065
 5.5336  26794.7  163.851
 5.5756  26814.7  163.924
 5.6176  26683.8  162.97
 5.6596  27112  165.098
 5.7016  27215.6  164.84
 5.7436  27428.7  165.763
 5.7856  27048.6  164.677
 5.8276  27299.9  165.148
 5.8696  27662.9  166.308
 5.9116  27465.3  166.425
 5.9536  27899.7  167.474
 5.9956  27862.6  166.756
 6.0376  28114.4  168.132
 6.0796  28240.6  168.336
 6.1216  28154.9  168.278
 6.1636  28530.3  168.449
 6.2056  28162.7  168.039
 6.2476  28781.5  169.559
 6.2896  28633.7  168.988
 6.3316  28834.7  169.751
 6.3736  29054.2  170.292
 6.4156  28751.9  169.349
 6.4576  29137.5  170.041
 6.4996  29147.4  170.547
 6.5416  29227.8  170.915
 6.5836  29052.4  170.633
 6.6256  29436.4  171.317
 6.6676  29793.7  171.912
 6.7096  29823.7  172.874
 6.7516  30041.7  173.158
 6.7936  30203.9  173.031
 6.8356  30462.7  173.863
 6.8776  30597.9  175.048
 6.9196  30545.3  175.301
 6.9616  30891.1  175.737
 7.0036  31609.9  177.42
 7.0456  31603.3  176.702
 7.0876  31664.5  178.47
 7.1296  31305.4  176.686
 7.1716  31441.3  176.608
 7.2136  31140.2  175.54
 7.2556  31297.6  176.132
 7.2976  31316.3  176.688
 7.3396  31290.7  176.829
 7.3816  31129.9  176.594
 7.4236  31380.7  176.595
 7.4656  31658  176.832
 7.5076  31861.8  177.547
 7.5496  31469.5  176.99
 7.5916  31717.5  177.739
 7.6336  32167.6  178.882
 7.6756  32248.8  178.955
 7.7176  32700.7  180.533
 7.7596  32531.7  181.273
 7.8016  33069.6  185.002
 7.8436  32678.6  180.584
 7.8856  33201.5  181.633
 7.9276  33190.9  181.994
 7.9696  33477.3  183.088
 8.0116  34655.2  184.84
 8.0536  34687.4  185.175
 8.0956  34767.5  186.557
 8.1376  34907.3  186.406
 8.1796  35371.5  188.177
 8.2216  35896.1  188.31
 8.2636  36115.1  189.142
 8.3056  35954  189.47
 8.3476  36813.1  191.058
 8.3896  36227.1  189.61
 8.4316  36571.2  190.676
 8.4736  36613.8  190.263
 8.5156  36291.5  189.697
 8.5576  35955.3  189.769
 8.5996  35987.7  188.75
 8.6416  35924.1  189.827
 8.6836  35147.6  187.593
 8.7256  36020.6  189.375
 8.7676  35985.9  192.166
 8.8096  36114.5  189.835
 8.8516  36419.4  190.272
 8.8936  35742.5  188.389
 8.9356  36019.6  189.45
 8.9776  35771.8  188.873
 9.0196  36299.5  189.93
 9.0616  35702.1  187.87
 9.1036  35162.2  187.596
 9.1456  34835.7  186.057
 9.1876  35288.4  187.208
 9.2296  34907.9  185.642
 9.2716  34750.6  185.258
 9.3136  34827.2  185.469
 9.3556  34953.2  185.773
 9.3976  33988.8  183.716
 9.4396  34158  184.073
 9.4816  33936.3  183.331
 9.5236  33624.6  182.379
 9.5656  33443.2  182.248
 9.6076  32686.3  180.683
 9.6496  32945.7  181.286
 9.6916  32632.7  180.376
 9.7336  33026.3  181.244
 9.7756  32762  181.642
 9.8176  32578.4  180.783
 9.8596  32458.3  178.918
 9.9016  32138.7  178.028
 9.9436  31559  176.154
 9.9856  31584.4  176.671
 10.0276  30990.1  176.059
 10.0696  31532.3  176.636
 10.1116  30572.9  174.188
 10.1536  30310.1  173.109
 10.1956  29961.2  172.212
 10.2376  29947.3  171.682
 10.2796  29707.3  171.1
 10.3216  29419.6  170.404
 10.3636  29016  169.403
 10.4056  28605.8  168.598
 10.4476  28817.7  168.84
 10.4896  28960.1  168.71
 10.5316  28621.3  168.109
 10.5736  28287.7  167.863
 10.6156  28056.7  166.932
 10.6576  28018.9  165.407
 10.6996  27453.5  164.42
 10.7416  27347.7  164.314
 10.7836  26761.8  163.187
 10.8256  26631.2  163.208
 10.8676  26633.6  162.77
 10.9096  26407.2  162.104
 10.9516  26189.8  160.398
 10.9936  26374.1  161.173
 11.0356  26098.8  160.923
 11.0776  25878.9  159.593
 11.1196  25384.7  158.811
 11.1616  25219.8  157.97
 11.2036  25465.4  158.587
 11.2456  25199.9  158.45
 11.2876  25568.9  159.339
 11.3296  24878.8  157.09
 11.3716  25147.2  157.664
 11.4136  25278.9  158.908
 11.4556  25193  158.302
 11.4976  25694.2  158.875
 11.5396  26010  160.025
 11.5816  26831.4  162.962
 11.6236  26364.5  161.783
 11.6656  26107.3  160.14
 11.7076  25297.4  158.464
 11.7496  24788.4  160.846
 11.7916  24608.6  155.556
 11.8336  24350.6  155.61
 11.8756  24217  154.749
 11.9176  24151.3  154.218
 11.9596  24141.1  154.359
 12.0016  23973.4  154.575
 12.0436  23771.6  153.382
 12.0856  23642.3  153.462
 12.1276  23423.7  152.703
 12.1696  23477.8  152.008
 12.2116  23522.3  152.148
 12.2536  23504.3  152.868
 12.2956  23169.8  151.158
 12.3376  23541.7  152.582
 12.3796  23338.2  152.392
 12.4216  23301.5  151.475
 12.4636  23175.4  151.984
 12.5056  23298.3  151.666
 12.5476  23551.1  151.999
 12.5896  23285.1  151.783
 12.6316  23264.1  151.861
 12.6736  23000.6  151.481
 12.7156  23310.6  152.345
 12.7576  23164.3  152.097
 12.7996  23317.3  151.266
 12.8416  23015.7  151.324
 12.8836  23405.9  152.431
 12.9256  23741  152.56
 12.9676  23775.8  153.067
 13.0096  23879.8  154.518
 13.0516  23864  153.506
 13.0936  23873.1  153.657
 13.1356  24283.4  154.219
 13.1776  23906.4  154.026
 13.2196  24067.5  154.189
 13.2616  23809  153.672
 13.3036  24158.8  154.936
 13.3456  23755.3  153.804
 13.3876  24082.4  154.139
 13.4296  23951.5  153.885
 13.4716  24044.8  153.821
 13.5136  23932.8  153.564
 13.5556  23800.6  153.782
 13.5976  24162.2  155.12
 13.6396  24023.6  154.035
 13.6816  24205.6  154.961
 13.7236  24522.7  155.699
 13.7656  25902.5  160.452
 13.8076  26575.7  161.179
 13.8496  25428.3  158.552
 13.8916  24240.6  155.705
 13.9336  23508.9  152.614
 13.9756  23590.1  152.273
 14.0176  23258.8  151.867
 14.0596  23236.5  151.727
 14.1016  23370.6  152.587
 14.1436  23378.6  151.752
 14.1856  22719.6  149.883
 14.2276  22600.7  149.976
 14.2696  22632.3  149.928
 14.3116  22159.6  148.261
 14.3536  21933.6  147.667
 14.3956  22035.5  147.733
 14.4376  22328  148.502
 14.4796  22043.4  147.551
 14.5216  21664.8  147.058
 14.5636  21607.6  146.439
 14.6056  21798.4  146.635
 14.6476  21641  145.36
 14.6896  21336.2  144.882
 14.7316  20989.4  144.723
 14.7736  20764.3  143.097
 14.8156  20559.8  142.413
 14.8576  20615.7  142.466
 14.8996  20171.5  142.106
 14.9416  19924.3  141.245
 14.9836  19986.9  141.444
 15.0256  19396.4  138.264
 15.0676  19327.5  138.325
 15.1096  19289.2  137.933
 15.1516  19097.8  137.798
 15.1936  18869.2  136.405
 15.2356  18370.2  134.862
 15.2776  18694.6  135.644
 15.3196  18401.3  135.55
 15.3616  18194.7  134.55
 15.4036  18196.1  134.422
 15.4456  18281.3  134.391
 15.4876  17847  132.475
 15.5296  17858.2  132.8
 15.5716  17534.4  131.194
 15.6136  17736.9  132.28
 15.6556  17614.3  131.074
 15.6976  17398.3  130.56
 15.7396  17344.2  130.729
 15.7816  17261.4  129.943
 15.8236  16948.3  129.431
 15.8656  17233.3  130.317
 15.9076  16755.1  128.322
 15.9496  17675  134.6
 15.9916  17223.4  133.265
 16.0336  17494.5  131.201
 16.0756  17189  130.368
 16.1176  16954.8  129.38
 16.1596  16443.6  128.735
 16.2016  16790.2  128.859
 16.2436  16572.7  128.391
 16.2856  16636.2  128.163
 16.3276  16252  127.106
 16.3696  16559.5  128.134
 16.4116  16400.9  127.96
 16.4536  16452.4  127.965
 16.4956  16500.4  127.889
 16.5376  16054.1  126.334
 16.5796  16165.9  126.146
 16.6216  16294.3  126.909
 16.6636  15821.7  125.24
 16.7056  16118.7  126.268
 16.7476  16390.6  126.863
 16.7896  16101.9  126.471
 16.8316  15989.1  126.016
 16.8736  16208.3  127.123
 16.9156  16191.5  127.387
 16.9576  15901.9  127.031
 16.9996  15720.3  126.77
 17.0416  15997  126.279
 17.0836  16121  126.532
 17.1256  16028.1  126.177
 17.1676  15849.1  125.428
 17.2096  15936.4  125.666
 17.2516  16016.1  126.067
 17.2936  15729.8  124.991
 17.3356  15514.6  124.12
 17.3776  15486  124.188
 17.4196  15326.2  123.253
 17.4616  15387.9  123.401
 17.5036  14885  121.735
 17.5456  14828.7  122.122
 17.5876  15024.8  121.992
 17.6296  15132.4  122.241
 17.6716  14905.7  121.912
 17.7136  14789.7  121.558
 17.7556  14564.9  120.924
 17.7976  14741.8  121.395
 17.8396  14586.9  120.262
 17.8816  14527.2  120.574
 17.9236  14438  119.999
 17.9656  14296.1  119.913
 18.0076  14382.4  119.87
 18.0496  14292.1  118.649
 18.0916  14267.8  119.079
 18.1336  14162.1  118.729
 18.1756  14407.7  119.317
 18.2176  14027  117.933
 18.2596  13965.3  117.415
 18.3016  14228.7  118.777
 18.3436  14154.8  118.469
 18.3856  14127.3  118.478
 18.4276  14102.9  118.07
 18.4696  13793.6  116.85
 18.5116  14028.5  118.107
 18.5536  13944.2  118.098
 18.5956  13835.1  117.212
 18.6376  13774.3  117.355
 18.6796  13865.5  117.087
 18.7216  13819.7  117.359
 18.7636  13854.5  117.513
 18.8056  13703  116.792
 18.8476  13550.1  116.747
 18.8896  13722.7  116.836
 18.9316  13780.6  117.062
 18.9736  13725.8  116.535
 19.0156  13543.3  116.17
 19.0576  13826  116.232
 19.0996  13745.2  116.609
 19.1416  13590.4  116.333
 19.1836  13507.6  115.589
 19.2256  13519  115.855
 19.2676  13710.6  116.76
 19.3096  13541.8  116.279
 19.3516  13741.6  116.908
 19.3936  13506.2  115.98
 19.4356  13764.4  116.967
 19.4776  13562.7  116.194
 19.5196  13569.8  116.078
 19.5616  13503.9  116.052
 19.6036  13444.1  115.298
 19.6456  13581.4  116.005
 19.6876  13557.6  115.545
 19.7296  13660.4  116.435
 19.7716  13383.9  115.426
 19.8136  13805.3  117.429
 19.8556  13948.6  117.514
 19.8976  13680.6  116.431
 19.9396  13737.9  116.273
 19.9816  14007.1  117.658
 20.0236  14238.8  118.82
 20.0656  14316.7  119.145
 20.1076  14471.1  120.272
 20.1496  14505.1  120.399
 20.1916  14506.9  119.878
 20.2336  14236.2  118.729
 20.2756  13976.4  118.067
 20.3176  13666.5  116.49
 20.3596  13488.5  115.727
 20.4016  13446.7  115.336
 20.4436  13164.1  114.678
 20.4856  13258  114.888
 20.5276  13232.5  115.235
 20.5696  13197  114.641
 20.6116  13080.6  114.3
 20.6536  12974.3  113.352
 20.6956  13007.5  113.628
 20.7376  12852.5  113.158
 20.7796  12759.5  112.442
 20.8216  13008.6  113.253
 20.8636  13023.8  113.693
 20.9056  12967.3  113.382
 20.9476  12899.2  112.93
 20.9896  12852.5  112.594
 21.0316  12895.5  112.682
 21.0736  12768.2  112.639
 21.1156  12647.5  112.26
 21.1576  12774.5  112.857
 21.1996  12735.1  112.678
 21.2416  12793  112.764
 21.2836  12735.3  112.476
 21.3256  12755  112.637
 21.3676  12703.2  111.949
 21.4096  12563.4  111.7
 21.4516  12583.7  111.607
 21.4936  12378.2  110.966
 21.5356  12730.2  112.474
 21.5776  12633.1  111.878
 21.6196  12440.3  111.057
 21.6616  12452.9  111.202
 21.7036  12427.4  110.853
 21.7456  12514  111.314
 21.7876  12395.8  110.557
 21.8296  12439.5  110.605
 21.8716  12437.4  110.821
 21.9136  12600.6  111.738
 21.9556  12462.5  110.806
 21.9976  12308  110.15
 22.0396  12472.9  111.135
 22.0816  12371  111.199
 22.1236  12531.2  111.385
 22.1656  12442.6  111.13
 22.2076  12216.1  109.573
 22.2496  12314.5  110.045
 22.2916  12061.7  108.797
 22.3336  12161.9  109.96
 22.3756  11970.6  108.817
 22.4176  12006.4  108.835
 22.4596  11955.2  109.177
 22.5016  12049.8  109.126
 22.5436  12201.5  109.683
 22.5856  12225.8  110.037
 22.6276  12371.8  110.824
 22.6696  12095.8  109.934
 22.7116  12161.3  109.746
 22.7536  12176.6  109.793
 22.7956  12085.2  108.732
 22.8376  11901  108.398
 22.8796  11987.6  108.6
 22.9216  11959.8  109.006
 22.9636  12101.1  108.812
 23.0056  12065.8  108.792
 23.0476  12209.5  110
 23.0896  12331.3  109.93
 23.1316  12120.2  109.414
 23.1736  12347.2  113.355
 23.2156  12463.6  111.278
 23.2576  12629  112.15
 23.2996  12384.6  110.833
 23.3416  12655.7  112.571
 23.3836  12504.5  111.129
 23.4256  12746.2  112.322
 23.4676  12558.5  111.186
 23.5096  12513  111.629
 23.5516  12295.6  109.972
 23.5936  12274  110.777
 23.6356  12563.9  111.74
 23.6776  12390.1  111.178
 23.7196  12250.2  110.343
 23.7616  12362.4  110.547
 23.8036  12525  111.329
 23.8456  12279.1  109.784
 23.8876  12174.8  109.675
 23.9296  12018.7  109.451
 23.9716  12177.4  109.374
 24.0136  12224.3  110.482
 24.0556  12087.1  109.584
 24.0976  11864.9  108.389
 24.1396  11809.9  110.72
 24.1816  12026.1  110.169
 24.2236  12008.8  109.703
 24.2656  11874.7  108.572
 24.3076  11797.9  108.491
 24.3496  11849.4  108.606
 24.3916  11929.8  109.024
 24.4336  11900.1  109.085
 24.4756  11812.4  108.574
 24.5176  11895.1  108.582
 24.5596  11639.5  107.736
 24.6016  11477.3  107.068
 24.6436  11583.6  107.078
 24.6856  11583.3  106.815
 24.7276  11492  106.72
 24.7696  11425.8  106.52
 24.8116  11163.5  105.473
 24.8536  11313.4  106.175
 24.8956  11407.2  106.351
 24.9376  11206.4  105.58
 24.9796  11120.8  105.293
 25.0216  11127  105.433
 25.0636  11293.8  105.879
 25.1056  10999.2  105.172
 25.1476  11169.8  107.593
 25.1896  11037.1  105.489
 25.2316  10904.3  104.143
 25.2736  10962  104.064
 25.3156  11003.6  104.338
 25.3576  10926  104.403
 25.3996  10961.7  104.562
 25.4416  10878.1  104.129
 25.4836  10707.8  103.83
 25.5256  10927.6  104.256
 25.5676  10878.8  103.759
 25.6096  10838.4  104.133
 25.6516  10823.6  103.573
 25.6936  10888.2  104.194
 25.7356  10737.4  103.604
 25.7776  10636.1  102.794
 25.8196  10620.8  102.884
 25.8616  10621.2  102.811
 25.9036  10773  103.008
 25.9456  10650.3  103.013
 25.9876  10728.6  103.296
 26.0296  10735  103.002
 26.0716  10733.9  103.418
 26.1136  10659.7  102.997
 26.1556  10723.6  102.689
 26.1976  10562.7  102.835
 26.2396  10555.9  101.961
 26.2816  10683.2  103.188
 26.3236  10610.5  102.985
 26.3656  10793.7  103.598
 26.4076  10604.7  102.887
 26.4496  10769.5  103.275
 26.4916  10799.7  103.319
 26.5336  11233.6  105.721
 26.5756  11499.3  106.843
 26.6176  10791  103.519
 26.6596  10635.6  103.075
 26.7016  10644.9  102.882
 26.7436  10699.6  103.278
 26.7856  10385.9  101.739
 26.8276  10521.7  102.369
 26.8696  10433.3  101.808
 26.9116  10492.9  102.041
 26.9536  10326.6  101.275
 26.9956  10260.3  100.978
 27.0376  10367.8  101.734
 27.0796  10253.6  100.894
 27.1216  10317.9  101.268
 27.1636  10148.5  100.606
 27.2056  10173.6  100.62
 27.2476  10187  100.673
 27.2896  10092  100.321
 27.3316  10211.5  100.629
 27.3736  10048.5  100.088
 27.4156  10185  100.615
 27.4576  10001.5  99.9188
 27.4996  10115.7  100.098
 27.5416  10000.1  99.8152
 27.5836  10017.3  99.7489
 27.6256  10141.9  100.549
 27.6676  9965.64  99.6505
 27.7096  10120.6  100.317
 27.7516  9893.72  99.3281
 27.7936  10299.3  101.475
 27.8356  10112.5  100.186
 27.8776  10202.4  100.687
 27.9196  9900.22  99.0453
 27.9616  9994.33  99.7151
 28.0036  9906.17  99.2272
 28.0456  9820.93  98.934
 28.0876  9816.55  98.9969
 28.1296  9822.07  98.8626
 28.1716  9833.74  98.9487
 28.2136  9840.45  98.9444
 28.2556  9775.34  98.7319
 28.2976  9706.64  98.3797
 28.3396  9681.33  98.0063
 28.3816  9817.22  98.7051
 28.4236  9694.78  98.2368
 28.4656  9637.37  97.9857
 28.5076  9675.92  97.8182
 28.5496  9770.44  98.5554
 28.5916  9714.15  98.0926
 28.6336  9717.7  98.449
 28.6756  9723.25  97.6823
 28.7176  9642.81  97.825
 28.7596  9557.96  97.2856
 28.8016  9506.5  97.0617
 28.8436  9432.74  96.9158
 28.8856  9693.8  98.1059
 28.9276  9567.81  97.7019
 28.9696  9588.06  97.465
 29.0116  9424.12  96.8188
 29.0536  9435.33  97.0794
 29.0956  9502.92  97.1183
 29.1376  9426.35  96.7116
 29.1796  9532.64  97.3052
 29.2216  9449.84  96.7227
 29.2636  9480.55  96.9542
 29.3056  9394.34  96.2894
 29.3476  9463.09  97.1706
 29.3896  9447.57  97.2029
 29.4316  9297.69  95.7634
 29.4736  9305.17  95.8698
 29.5156  9357.73  96.0629
 29.5576  9300.71  96.4985
 29.5996  9141.93  94.9487
 29.6416  9105.8  94.8741
 29.6836  9189.05  95.2378
 29.7256  9168.65  95.6837
 29.7676  9169.93  95.3537
 29.8096  9226.56  95.598
 29.8516  9081.98  95.1705
 29.8936  9164.93  95.6956
 29.9356  9301.06  96.1618
 29.9776  9115.62  95.3371
 30.0196  9175.89  95.0663
 30.0616  9156.03  95.3271
 30.1036  9148.26  95.1149
 30.1456  9002.17  94.5737
 30.1876  9127.41  95.2122
 30.2296  9066.67  94.8453
 30.2716  9144.07  94.8935
 30.3136  9198.07  96.0172
 30.3556  9366.51  96.8943
 30.3976  9174.49  97.361
 30.4396  9394.57  95.9021
 30.4816  9493.77  96.0261
 30.5236  9353.44  95.31
 30.5656  9153.53  94.9451
 30.6076  9117.63  94.5145
 30.6496  9206.07  95.023
 30.6916  9096.77  94.5412
 30.7336  9237.01  95.4153
 30.7756  9176.11  95.1965
 30.8176  9220.01  95.3523
 30.8596  9441.11  96.2251
 30.9016  9305.62  95.4221
 30.9436  9551.03  96.897
 30.9856  9480.81  96.6526
 31.0276  9299.63  95.3602
 31.0696  9078.36  94.7627
 31.1116  9244.16  95.5885
 31.1536  9184.07  95.1788
 31.1956  9110.83  94.8817
 31.2376  8905.88  93.8245
 31.2796  9097.63  94.3661
 31.3216  9157.88  94.6179
 31.3636  9172.16  95.3825
 31.4056  9062.8  96.0989
 31.4476  9167.65  94.5866
 31.4896  9054.29  94.4916
 31.5316  9095.11  94.1166
 31.5736  9135.93  94.1626
 31.6156  9189.93  94.4486
 31.6576  9210.83  94.631
 31.6996  9088.01  93.6439
 31.7416  9214.22  95.2656
 31.7836  9153.13  94.0931
 31.8256  9068.02  93.927
 31.8676  9259  94.9007
 31.9096  8861.97  93.0675
 31.9516  8879.47  93.4615
 31.9936  8932.97  93.5514
 32.0356  8961.78  93.7478
 32.0776  9011.95  93.9223
 32.1196  9201.58  94.9148
 32.1616  9074.93  93.8071
 32.2036  9069.8  94.2913
 32.2456  8901.03  93.778
 32.2876  8994.96  93.7818
 32.3296  8927.43  93.3884
 32.3716  8798.72  92.8214
 32.4136  8673.78  92.3565
 32.4556  8897.59  92.9305
 32.4976  8874.88  92.7609
 32.5396  8789.73  92.3397
 32.5816  8889.64  92.9924
 32.6236  8808.97  92.6303
 32.6656  8860.15  93.4414
 32.7076  8841.14  92.9986
 32.7496  8671.98  91.7789
 32.7916  8765.52  92.2276
 32.8336  8759.03  92.2907
 32.8756  8917.71  92.8451
 32.9176  8720.62  92.2971
 32.9596  8671.12  92.1003
 33.0016  8710.1  92.066
 33.0436  8735.22  92.3841
 33.0856  8633.81  91.9456
 33.1276  8640.38  91.7127
 33.1696  8748.17  92.1052
 33.2116  8775.16  92.4995
 33.2536  8829.23  92.7613
 33.2956  8622.87  91.7478
 33.3376  8532.02  91.1051
 33.3796  8662.72  91.9292
 33.4216  8675.69  91.5903
 33.4636  8658.77  91.6631
 33.5056  8645.35  91.8305
 33.5476  8697.83  92.0842
 33.5896  8704.44  91.9147
 33.6316  8637.49  91.8615
 33.6736  8550.15  91.6454
 33.7156  8582.69  91.8516
 33.7576  8648.02  91.8465
 33.7996  8654.58  91.6408
 33.8416  8479.57  90.8976
 33.8836  8587.22  91.2492
 33.9256  8642.37  91.5894
 33.9676  8771.27  92.1772
 34.0096  8483.2  90.96
 34.0516  8429.79  90.3108
 34.0936  8374.34  90.285
 34.1356  8565.13  91.0508
 34.1776  8454.45  90.4516
 34.2196  8415.37  90.4278
 34.2616  8399.68  90.4796
 34.3036  8551.26  91.539
 34.3456  8425.67  90.6187
 34.3876  8540.21  91.2931
 34.4296  8360.27  89.9297
 34.4716  8469.74  90.6701
 34.5136  8434.91  90.6688
 34.5556  8284.98  90.1223
 34.5976  8615.54  91.7369
 34.6396  8426.6  90.4081
 34.6816  8415.5  90.4547
 34.7236  8429.36  90.3015
 34.7656  8429.92  90.5195
 34.8076  8330.26  90.3119
 34.8496  8247.37  89.7101
 34.8916  8410.75  90.4537
 34.9336  8375.51  90.2498
 34.9756  8541.86  91.0887
 35.0176  8390.76  90.7809
 35.0596  8570.92  91.5735
 35.1016  8357.28  90.1814
 35.1436  8597.57  91.1574
 35.1856  8427.5  90.3709
 35.2276  8412.37  90.4666
 35.2696  8445.16  90.8382
 35.3116  8322.67  90.2709
 35.3536  8359.74  90.2065
 35.3956  8220.99  89.1462
 35.4376  8361.73  90.4612
 35.4796  8337.17  90.3809
 35.5216  8305.95  90.169
 35.5636  8203.18  90.3414
 35.6056  8220.79  89.4682
 35.6476  8324.34  89.9369
 35.6896  8280.6  89.7911
 35.7316  8158.33  89.1001
 35.7736  8211.76  89.5764
 35.8156  8237.66  89.7167
 35.8576  8218.94  89.8508
 35.8996  8341.3  90.4853
 35.9416  8231.48  89.3937
 35.9836  8141.59  89.3692
 36.0256  8390.65  90.6153
 36.0676  8300.92  89.8937
 36.1096  8215.81  89.5844
 36.1516  8294.48  89.8977
 36.1936  8230.88  89.3763
 36.2356  8306.11  90.451
 36.2776  8262.73  89.6861
 36.3196  8102.08  88.495
 36.3616  8169.23  88.9958
 36.4036  8195.09  89.1973
 36.4456  8189.46  89.3743
 36.4876  8091.02  88.7803
 36.5296  8140.03  89.0805
 36.5716  8169.09  90.0079
 36.6136  8111.32  88.4893
 36.6556  7934.31  87.7142
 36.6976  7870.62  87.8466
 36.7396  7962.27  88.0927
 36.7816  7848.43  87.8264
 36.8236  7927.97  88.1929
 36.8656  7920.99  88.2123
 36.9076  7911.85  88.0572
 36.9496  7801.53  87.425
 36.9916  7923.56  87.7424
 37.0336  7961.19  88.2592
 37.0756  7963.12  88.0674
 37.1176  7692.23  86.8144
 37.1596  7915.18  88.0752
 37.2016  7773.74  87.5014
 37.2436  7830.32  87.1471
 37.2856  7780.4  87.1238
 37.3276  7753.85  86.3457
 37.3696  7710.25  86.9589
 37.4116  7814.31  87.4526
 37.4536  7733.88  86.8708
 37.4956  7685.61  86.6468
 37.5376  8024.7  90.1162
 37.5796  7850.6  89.064
 37.6216  7857.69  87.3899
 37.6636  8047.18  88.3275
 37.7056  7952.72  88.0011
 37.7476  8120.22  88.4622
 37.7896  7793.12  87.1624
 37.8316  7933.08  88.0946
 37.8736  7951.6  87.725
 37.9156  7771.33  86.7297
 37.9576  7987.72  87.8356
 37.9996  7794.31  86.4825
 38.0416  7979.76  88.3105
 38.0836  7944.7  88.0235
 38.1256  7843.45  87.4307
 38.1676  7702.48  86.7573
 38.2096  8001.08  88.0388
 38.2516  7844.55  87.3821
 38.2936  7977.4  87.922
 38.3356  7882.02  87.3283
 38.3776  7745.56  86.8197
 38.4196  7851.39  87.2645
 38.4616  7828.67  87.3771
 38.5036  7769.73  86.8961
 38.5456  7681.42  87.2136
 38.5876  7718.7  87.4493
 38.6296  7876.9  87.314
 38.6716  7811.12  86.7592
 38.7136  7773.1  86.4947
 38.7556  7790.24  87.0902
 38.7976  7908.69  87.6826
 38.8396  7845.35  87.7812
 38.8816  7729.86  86.9368
 38.9236  7886.08  87.6007
 38.9656  7733.12  86.6682
 39.0076  7842.75  86.6831
 39.0496  7857.8  87.322
 39.0916  7970.38  87.5874
 39.1336  7841.43  87.2779
 39.1756  7778.11  86.9838
 39.2176  7775.05  87.505
 39.2596  7806.02  87.6011
 39.3016  7833.05  87.343
 39.3436  7769.77  87.3921
 39.3856  7810.56  87.076
 39.4276  7969.52  88.4654
 39.4696  7620.93  86.1352
 39.5116  7783.47  87.5583
 39.5536  7801.48  88.073
 39.5956  7738.61  86.8315
 39.6376  7766.79  86.9912
 39.6796  7647.48  86.0744
 39.7216  7693.3  86.4252
 39.7636  7775.59  87.4513
 39.8056  7745.97  87.0645
 39.8476  7657.75  86.82
 39.8896  7783.33  87.1609
 39.9316  7759.38  87.2767
 39.9736  7831.31  87.252
 40.0156  7732.42  86.5353
 40.0576  7720.56  86.8167
 40.0996  7789.59  86.3959
 40.1416  7749.03  86.9523
 40.1836  7762.08  86.9113
 40.2256  7760.42  86.9448
 40.2676  7650.41  86.4882
 40.3096  7774.48  87.0556
 40.3516  7797.67  87.2978
 40.3936  7847.05  87.1202
 40.4356  7661.72  86.2987
 40.4776  7858.83  87.6399
 40.5196  7821.38  87.7198
 40.5616  7818.5  87.3452
 40.6036  7701.96  86.9461
 40.6456  7720.91  86.6672
 40.6876  7876.61  87.5274
 40.7296  7739.08  86.893
 40.7716  7877.72  87.7904
 40.8136  7725.61  86.887
 40.8556  7889.46  87.9349
 40.8976  7785.01  87.2708
 40.9396  7871.59  88.1055
 40.9816  7898.91  87.5499
 41.0236  7809.9  86.8331
 41.0656  7744.44  87.0038
 41.1076  7780.9  86.9821
 41.1496  7784.28  86.9105
 41.1916  7774.51  87.1583
 41.2336  7754.07  87.0555
 41.2756  7816.64  87.0128
 41.3176  7831.22  87.6991
 41.3596  7792.03  87.2168
 41.4016  7705.93  86.9869
 41.4436  7899.5  87.856
 41.4856  7723.8  87.0396
 41.5276  7769.17  87.314
 41.5696  7679.58  86.4465
 41.6116  7821.43  87.6244
 41.6536  7752.31  87.0915
 41.6956  7933.29  88.084
 41.7376  7743.03  87.126
 41.7796  7688.09  86.7079
 41.8216  7843.7  87.8064
 41.8636  7690.21  86.8867
 41.9056  7748.6  87.0161
 41.9476  7810.54  87.5912
 41.9896  7943.93  88.0119
 42.0316  7882.11  87.7471
 42.0736  7765.27  87.2216
 42.1156  7748.28  86.9351
 42.1576  7735.22  86.9711
 42.1996  7855.68  87.7788
 42.2416  7785.08  86.9673
 42.2836  7712.25  86.6814
 42.3256  7679.15  86.5848
 42.3676  7799.17  87.0708
 42.4096  7847.17  87.317
 42.4516  7768.85  86.9577
 42.4936  7692.37  86.6023
 42.5356  7641.52  86.4483
 42.5776  7793.82  87.2435
 42.6196  7715.23  86.8575
 42.6616  7574.4  86.234
 42.7036  7755.24  86.6369
 42.7456  7807.63  87.2855
 42.7876  7672.58  86.6253
 42.8296  7716.05  86.7066
 42.8716  7596.92  86.1883
 42.9136  7599.8  85.9638
 42.9556  7694.1  86.6623
 42.9976  7620.12  86.2165
 43.0396  7612.42  85.9029
 43.0816  7587.53  86.144
 43.1236  7545.2  85.9493
 43.1656  7684.89  86.5661
 43.2076  7601.01  86.2007
 43.2496  7593.54  85.984
 43.2916  7584.33  86.2938
 43.3336  7633.18  86.4012
 43.3756  7612.32  86.0413
 43.4176  7550.45  85.764
 43.4596  7569.53  85.7398
 43.5016  7644.68  86.5666
 43.5436  7606.82  86.2501
 43.5856  7545.95  85.9376
 43.6276  7653.93  86.4381
 43.6696  7590.18  86.3324
 43.7116  7582.48  85.7964
 43.7536  7647.75  86.6568
 43.7956  7478.91  86.8925
 43.8376  7512.9  85.6253
 43.8796  7304.38  84.5043
 43.9216  7629.09  86.2787
 43.9636  7430.6  85.2551
 44.0056  7401.44  85.3168
 44.0476  7294.64  84.3368
 44.0896  7430.29  85.4579
 44.1316  7357.59  84.5696
 44.1736  7419.91  85.0516
 44.2156  7431.32  84.9756
 44.2576  7461.76  85.4695
 44.2996  7443.25  85.3322
 44.3416  7480.19  85.3043
 44.3836  7206.52  84.0544
 44.4256  7372.28  84.6607
 44.4676  7374.58  84.8296
 44.5096  7481.35  85.5834
 44.5516  7394.01  85.0502
 44.5936  7431.57  85.2178
 44.6356  7453.51  85.0826
 44.6776  7446.04  85.3553
 44.7196  7433.72  85.5907
 44.7616  7394.71  86.6801
 44.8036  7423.36  85.4892
 44.8456  7479.27  85.8114
 44.8876  7477.93  85.6482
 44.9296  7567.01  85.5934
 44.9716  7503.94  85.6836
 45.0136  7305.44  84.4603
 45.0556  7528.97  85.8436
 45.0976  7544.9  85.9829
 45.1396  7459.76  85.252
 45.1816  7388.14  84.7703
 45.2236  7577.85  85.7705
 45.2656  7344.07  84.9188
 45.3076  7439.29  85.2542
 45.3496  7351.17  85.0551
 45.3916  7208.4  84.4866
 45.4336  7484.42  85.9422
 45.4756  7341.67  84.9799
 45.5176  7530.39  85.6754
 45.5596  7439.83  85.2672
 45.6016  7285.11  84.803
 45.6436  7361.41  84.4179
 45.6856  7337.4  84.9397
 45.7276  7267.67  85.8356
 45.7696  7377.2  86.1605
 45.8116  7391.47  85.6817
 45.8536  7347.54  85.3233
 45.8956  7443.58  85.2337
 45.9376  7376.55  84.3132
 45.9796  7374.63  84.982
 46.0216  7334.92  85.098
 46.0636  7413.9  84.6896
 46.1056  7360.15  84.3808
 46.1476  7307.5  84.6637
 46.1896  7397.39  85.329
 46.2316  7419.52  85.3052
 46.2736  7542.4  86.2415
 46.3156  7371.54  85.0101
 46.3576  7386.52  85.293
 46.3996  7307.83  84.9917
 46.4416  7395.41  85.0584
 46.4836  7333.25  85.081
 46.5256  7385.75  85.3134
 46.5676  7306.33  84.9773
 46.6096  7311.95  84.9325
 46.6516  7452.22  84.7886
 46.6936  7493.82  85.5307
 46.7356  7485.91  85.5731
 46.7776  7291.01  85.3005
 46.8196  7333.83  85.2918
 46.8616  7194.99  84.2824
 46.9036  7167.05  83.7789
 46.9456  7199.54  83.6113
 46.9876  7268.88  84.0981
 47.0296  7204.08  84.4084
 47.0716  7187.48  84.1363
 47.1136  7292.64  84.4244
 47.1556  7166.7  83.5575
 47.1976  7244.56  84.1713
 47.2396  7247.77  84.5115
 47.2816  7157.01  83.6851
 47.3236  7288.89  84.817
 47.3656  7273.3  84.6644
 47.4076  7249.4  84.261
 47.4496  7229.38  84.3034
 47.4916  7233.27  84.5132
 47.5336  7298.69  84.7089
 47.5756  7440.28  85.6379
 47.6176  7223.11  84.282
 47.6596  7155.85  83.6087
 47.7016  7379.1  84.7223
 47.7436  7330.55  84.7761
 47.7856  7386.43  85.1211
 47.8276  7226.99  84.2467
 47.8696  7262.65  84.5447
 47.9116  7306.14  84.5019
 47.9536  7254.05  84.1478
 47.9956  7248.84  84.8348
 48.0376  7180.9  84.2063
 48.0796  7202.73  84.4597
 48.1216  7240.56  84.508
 48.1636  7352.18  84.724
 48.2056  7258.81  84.4515
 48.2476  7348.85  85.2858
 48.2896  7369.56  85.3032
 48.3316  7193.2  84.2265
 48.3736  7204.48  84.3174
 48.4156  7170.5  83.9682
 48.4576  7263.35  84.8061
 48.4996  7320.18  84.5872
 48.5416  7328.74  84.9651
 48.5836  7196.6  83.868
 48.6256  7329.39  84.8475
 48.6676  7254.67  84.9235
 48.7096  7176.54  83.7366
 48.7516  7261.32  84.3844
 48.7936  7114.02  83.5902
 48.8356  7161.05  83.9129
 48.8776  7216.03  84.8115
 48.9196  7319.33  84.7753
 48.9616  7212.04  84.5384
 49.0036  7216.23  84.9185
 49.0456  7170.26  84.624
 49.0876  7215.44  84.4142
 49.1296  7121.65  84.039
 49.1716  7091.3  83.7267
 49.2136  7222.97  84.42
 49.2556  7265.35  84.7111
 49.2976  7186.03  84.3127
 49.3396  7173.27  84.287
 49.3816  7222.31  84.0136
 49.4236  7257.89  84.6368
 49.4656  7034.06  83.337
 49.5076  7244.95  84.3331
 49.5496  7216.86  84.2337
 49.5916  7249.93  84.3363
 49.6336  7184.47  84.1601
 49.6756  7234.66  84.6891
 49.7176  7223.75  84.5672
 49.7596  7211.29  84.2624
 49.8016  7179.34  83.9867
 49.8436  7097.99  83.8178
 49.8856  7193.82  84.3872
 49.9276  7051.01  83.6445
 49.9696  7108.56  83.9659
 50.0116  7146.65  84.3166
 50.0536  7251.32  84.8852
 50.0956  7002  83.4863
 50.1376  7150.69  84.0504
 50.1796  7059.25  83.7957
 50.2216  7173.66  84.4504
 50.2636  7066.79  83.4461
 50.3056  7080.46  83.7068
 50.3476  7091.9  83.7888
 50.3896  7130.81  83.9967
 50.4316  7043.61  83.3144
 50.4736  7040.11  83.5081
 50.5156  7091.96  83.8093
 50.5576  7218.65  84.3038
 50.5996  7052.52  83.6175
 50.6416  7086.18  83.7316
 50.6836  7134.78  84.094
 50.7256  7077.8  83.6803
 50.7676  7263.43  85.1003
 50.8096  7106.22  83.6996
 50.8516  7025.4  83.6325
 50.8936  7022.39  83.3999
 50.9356  7076.77  83.8334
 50.9776  6994.55  83.5049
 51.0196  6890.56  83.0057
 51.0616  6990.54  82.9248
 51.1036  6974.91  83.1899
 51.1456  7122.33  83.9777
 51.1876  7034.65  82.7818
 51.2296  6785.3  81.9352
 51.2716  6805.83  81.7689
 51.3136  6924.07  82.9435
 51.3556  6731.93  81.4039
 51.3976  6881.83  82.4586
 51.4396  6740.33  81.918
 51.4816  6841.32  82.383
 51.5236  6918.15  82.9286
 51.5656  6796.57  81.7892
 51.6076  6925.21  82.649
 51.6496  6801.45  82.0992
 51.6916  6802.2  82.4658
 51.7336  6833.01  82.7394
 51.7756  6847.01  82.5205
 51.8176  6711.29  81.8084
 51.8596  6802.32  82.3754
 51.9016  6906.25  82.6056
 51.9436  6855.79  83.8049
 51.9856  6895.76  84.4493
 52.0276  6990.3  83.4975
 52.0696  7012.72  83.7049
 52.1116  6861.39  82.9199
 52.1536  6977.56  83.4526
 52.1956  6948.11  82.7822
 52.2376  7020.03  83.388
 52.2796  6882.56  82.3867
 52.3216  6875.86  83.0353
 52.3636  6938.31  82.977
 52.4056  6843.76  82.2702
 52.4476  6804.35  82.4051
 52.4896  6741.88  82.0672
 52.5316  6921.86  83.2081
 52.5736  6721.74  81.7159
 52.6156  6934.33  83.4018
 52.6576  6744.44  81.682
 52.6996  6769.54  82.8237
 52.7416  6786.4  82.783
 52.7836  6801.47  82.767
 52.8256  6822.16  82.1
 52.8676  6760.62  82.3056
 52.9096  6806.97  82.6389
 52.9516  6834.63  83.2267
 52.9936  6902.05  83.9953
 53.0356  6885.24  82.8974
 53.0776  6866.88  83.0616
 53.1196  6769.42  82.5857
 53.1616  6905.95  83.4749
 53.2036  6819.51  82.9118
 53.2456  6855.85  83.2391
 53.2876  6805.71  82.6218
 53.3296  6855.2  83.2454
 53.3716  6964.4  83.6471
 53.4136  6879.6  83.299
 53.4556  6810.64  82.913
 53.4976  6710.85  82.1332
 53.5396  6726.21  82.6282
 53.5816  6776.01  82.5728
 53.6236  6814.35  83.1578
 53.6656  6882.65  83.1668
 53.7076  6874.43  83.0674
 53.7496  6862.84  83.1467
 53.7916  6775.41  82.7514
 53.8336  6772.48  82.6125
 53.8756  6688.87  82.6455
 53.9176  6686.03  81.9869
 53.9596  6422.29  81.0968
 54.0016  6525.16  81.0823
 54.0436  6423.23  80.6582
 54.0856  6532.74  80.7828
 54.1276  6544.38  81.0392
 54.1696  6474.53  80.7707
 54.2116  6701.93  81.9275
 54.2536  6520.74  80.6136
 54.2956  6572.49  80.9912
 54.3376  6545.18  81.3235
 54.3796  6458.41  80.6632
 54.4216  6469.42  80.7974
 54.4636  6428.88  80.5009
 54.5056  6581.04  81.2473
 54.5476  6412.84  80.5558
 54.5896  6417.52  80.4182
 54.6316  6562.18  81.1644
 54.6736  6537.3  81.0933
 54.7156  6474.17  80.7226
 54.7576  6357.45  79.9605
 54.7996  6584.5  81.5658
 54.8416  6439.72  80.7067
 54.8836  6446.34  80.8268
 54.9256  6497.37  80.9132
 54.9676  6383.99  80.069
 55.0096  6424.23  80.337
 55.0516  6294.99  79.7677
 55.0936  6331.92  79.671
 55.1356  6392.42  80.0966
 55.1776  6534.39  81.2069
 55.2196  6463.44  80.5578
 55.2616  6588.92  81.5768
 55.3036  6386.67  80.4886
 55.3456  6271.43  79.8884
 55.3876  6343.46  80.0946
 55.4296  6286.95  79.7204
 55.4716  6396.16  80.442
 55.5136  6284.75  79.4973
 55.5556  6555.02  81.2611
 55.5976  6346.36  80.0187
 55.6396  6334.63  79.8138
 55.6816  6365.19  79.928
 55.7236  6271.02  79.4064
 55.7656  6473.2  80.3972
 55.8076  6231.51  78.892
 55.8496  6442.95  80.6546
 55.8916  6259.35  79.5773
 55.9336  6363.41  80.0701
 55.9756  6317.05  79.6469
 56.0176  6179.46  78.9325
 56.0596  6306.31  79.7295
 56.1016  6127.85  78.6041
 56.1436  6231.17  79.5256
 56.1856  6095.83  78.4156
 56.2276  6463.32  80.8075
 56.2696  6244.46  79.3824
 56.3116  6305.13  80.1382
 56.3536  6202.73  79.169
 56.3956  6180.85  78.9907
 56.4376  6211.51  79.2551
 56.4796  6178.66  78.8559
 56.5216  6244.33  79.6556
 56.5636  6139.91  78.5592
 56.6056  6372.16  80.2583
 56.6476  6180.87  78.6793
 56.6896  6299.57  79.889
 56.7316  6164.9  78.9414
 56.7736  6246.9  79.4628
 56.8156  6194.27  79.1422
 56.8576  6060.87  78.2241
 56.8996  6184.07  78.8911
 56.9416  6141.99  78.9532
 56.9836  6247.48  79.1763
 57.0256  6238.61  79.4176
 57.0676  6273.79  79.7593
 57.1096  6223.43  79.2271
 57.1516  6116.02  78.5896
 57.1936  6285.18  79.4301
 57.2356  6031.18  78.1339
 57.2776  6209.98  79.2541
 57.3196  6185.38  79.4388
 57.3616  6129.71  78.5784
 57.4036  6143.23  78.7081
 57.4456  6232.28  79.2625
 57.4876  6105.81  78.3298
 57.5296  6052.91  78.316
 57.5716  6115.4  78.7237
 57.6136  5957.01  77.535
 57.6556  6149.22  78.8834
 57.6976  6039.28  78.0343
 57.7396  6005.92  78.154
 57.7816  5963.38  78.2369
 57.8236  5979.34  78.1389
 57.8656  6094.07  78.5465
 57.9076  6135.56  78.839
 57.9496  6067.53  78.7526
 57.9916  6081.74  78.351
 58.0336  6058.25  78.4843
 58.0756  6003.13  77.747
 58.1176  6071.74  78.2057
 58.1596  6020.44  78.4648
 58.2016  5866.67  76.6823
 58.2436  5840.79  76.9171
 58.2856  5857.66  76.9515
 58.3276  5868.12  77.3871
 58.3696  5834.34  76.9238
 58.4116  5799.59  76.5595
 58.4536  5923.66  77.2605
 58.4956  5867.25  77.0705
 58.5376  5822.45  76.3555
 58.5796  5797.22  76.6021
 58.6216  5837.66  76.6931
 58.6636  5828.78  76.8404
 58.7056  5726.99  76.0273
 58.7476  5783.67  76.8361
 58.7896  5762.25  76.3457
 58.8316  5795.42  76.5624
 58.8736  5849.36  76.9276
 58.9156  5787.35  76.5638
 58.9576  5819.58  77.0899
 58.9996  5850.48  76.559
 59.0416  5794.85  76.5465
 59.0836  5891.52  77.1029
 59.1256  5692.81  76.4714
 59.1676  5727.81  77.0089
 59.2096  5788.88  76.7345
 59.2516  6005.21  77.7374
 59.2936  5860.44  77.1178
 59.3356  5757.26  76.3165
 59.3776  5834.76  76.9945
 59.4196  5718.9  76.1636
 59.4616  5629.91  75.4339
 59.5036  5701.82  75.9486
 59.5456  5873.35  76.7801
 59.5876  5944.71  77.4347
 59.6296  5550.37  74.8887
 59.6716  5806.86  76.6563
 59.7136  5710.79  76.0081
 59.7556  5751.95  76.4147
 59.7976  5807.85  76.5323
 59.8396  5867.35  76.8191
 59.8816  5720.41  76.382
 59.9236  5668.88  75.6918
 59.9656  5796.82  76.7946
 60.0076  5666.79  75.3079
 60.0496  5764.01  76.4424
 60.0916  6038.44  77.6602
 60.1336  5689.92  76.4604
 60.1756  5717.14  77.7952
 60.1996  0.0000000E+00  0.0000000E+00