File: docs/examples/opeando_xrd/IS17_D/Data/IS17_D/17_Db_f00061.xye
# /beamlines/bl04/projects/cycle2025-II/20250340211-lsimonelli/DATA/IS17_D/17_Db_f00061.xye : mythproc.py merge -s 0.006 -l 0.5 -f /beamlines/bl04/inhouse/ff/FlatField/ff_20Nov2024rod8mm60s_17keV.raw -b True -c true -o xye /beamlines/bl04/projects/cycle2025-II/20250340211-lsimonelli/DATA/IS17_D/17_Db_00061.dat
# IsMon = [6783264, 6780692, 6787538]  IsPos = [-1.4999, -2.4884, -3.4988]
# Wave = 0.4962  CalPath /beamlines/bl04/projects/cycle2025-II/20250340211-lsimonelli/DATA/Align/Si_Pos1_25keV_f00001.cal
# Date = 2025-09-24_10:42:20 Dt = 4.8000  Bin = 0.0060  <imon> = 6783831 +/- 2824 (Min/Max) 6780692 / 6787538
# icurr 251.9777  mocoIn 1.7197E-05  mocoOut 0.8069  i15 7.10711e+06  imon 6.78383e+06  i7 2.3333  iEMpd_timer 4.8000  iEMpd_1 3.3867E-08  iEMpd_2 7.9182E-08  iEMpd_3 1.6058E-08  iEMpd_4 4.7108E-08  iEMhp_timer 4.8000  iEMhp_1 4.9244E-06  iEMhp_2 -2.6833E-08  iEMhp_3 -2.4530E-08  iEMhp_4 -2.1872E-08
#      9776
 1.5856  44601.5  216.868
 1.6276  51352  228.709
 1.6696  56927.3  239.955
 1.7116  63980.5  254.884
 1.7536  71717.7  268.706
 1.7956  76038.6  277.374
 1.8376  72724.4  271.692
 1.8796  62942.6  250.897
 1.9216  52288  229.593
 1.9636  44757.1  211.546
 2.0056  41152.3  202.061
 2.0476  38270.2  196.994
 2.0896  36052.3  190.079
 2.1316  35844.2  188.619
 2.1736  33429.4  183.599
 2.2156  34265.8  184.39
 2.2576  33099.6  181.875
 2.2996  31718.5  178.693
 2.3416  32362.8  179.059
 2.3836  31557.1  176.924
 2.4256  30628.1  174.869
 2.4676  30303.3  173.692
 2.5096  29995.3  172.864
 2.5516  29241.7  174.626
 2.5936  33530.1  183.204
 2.6356  28525  169.709
 2.6776  27969.1  166.941
 2.7196  27569.4  166.232
 2.7616  27422.9  165.583
 2.8036  26929.8  164.249
 2.8456  27161.3  165.605
 2.8876  26254.6  162.681
 2.9296  25940.6  161.831
 2.9716  26011  161.528
 3.0136  25442  159.822
 3.0556  25425  160.172
 3.0976  25647.9  159.76
 3.1396  25228  159.175
 3.1816  24874.3  158.008
 3.2236  24723.9  157.513
 3.2656  24594.6  156.154
 3.3076  24271.3  156.584
 3.3496  24685.5  156.836
 3.3916  25142.5  158.101
 3.4336  25458.2  159.679
 3.4756  25697.5  160.364
 3.5176  26658.3  163.093
 3.5596  26408.8  164.784
 3.6016  26324.7  162.128
 3.6436  25530.7  160.791
 3.6856  25127.1  157.801
 3.7276  24314.5  156.325
 3.7696  24202.7  156.143
 3.8116  23607.8  154.112
 3.8536  23834.7  154.77
 3.8956  23950.1  154.964
 3.9376  23532.3  153.882
 3.9796  23606.5  153.613
 4.0216  23603.3  152.64
 4.0636  23571  154.006
 4.1056  23596.8  153.74
 4.1476  23838.8  154.833
 4.1896  23789.4  154.538
 4.2316  24042.5  155.173
 4.2736  24622.2  156.838
 4.3156  24543.2  156.809
 4.3576  25490  159.71
 4.3996  25589.6  160.317
 4.4416  26237.7  161.901
 4.4836  26549.5  163.034
 4.5256  26984  164.964
 4.5676  26979.2  165.201
 4.6096  27490.2  165.407
 4.6516  27960.5  166.51
 4.6936  27814.7  166.901
 4.7356  28194.4  167.868
 4.7776  28165.4  167.609
 4.8196  27948.4  167.612
 4.8616  27295.4  165.144
 4.9036  27135.7  164.383
 4.9456  26942.3  164.45
 4.9876  26216  162.124
 5.0296  26744.5  163.584
 5.0716  26388.3  163.238
 5.1136  26593  163.597
 5.1556  26822.9  163.76
 5.1976  27821.7  166.769
 5.2396  27309.1  164.921
 5.2816  27487.7  165.934
 5.3236  27612.1  166
 5.3656  27026  165.167
 5.4076  26656.4  164.177
 5.4496  26838.3  164.226
 5.4916  27125  164.853
 5.5336  26763.9  163.762
 5.5756  27080  164.737
 5.6176  27157.4  164.411
 5.6596  27308.6  165.861
 5.7016  27478.8  165.63
 5.7436  27549  166.126
 5.7856  27292.7  165.418
 5.8276  27700  166.359
 5.8696  27775.6  166.757
 5.9116  27661.4  167.019
 5.9536  28114.1  168.116
 5.9956  28148.4  167.607
 6.0376  28248.1  168.532
 6.0796  28523  169.179
 6.1216  28452.9  169.165
 6.1636  28646.6  168.797
 6.2056  28436.9  168.857
 6.2476  28955.4  170.255
 6.2896  29242.2  170.777
 6.3316  29133.1  170.629
 6.3736  29195.2  170.701
 6.4156  29394.3  171.164
 6.4576  29268  170.421
 6.4996  29259.1  170.876
 6.5416  29437.8  171.53
 6.5836  29519.6  172.003
 6.6256  29413.3  171.255
 6.6676  30099.8  172.803
 6.7096  30184.5  173.905
 6.7516  30425.2  174.255
 6.7936  30675  174.361
 6.8356  30621.8  174.319
 6.8776  30877.9  175.852
 6.9196  30834.8  176.124
 6.9616  31515.4  177.507
 7.0036  31906.6  178.251
 7.0456  31718.6  177.023
 7.0876  31775  178.87
 7.1296  31629.2  177.595
 7.1716  31845.8  177.731
 7.2136  31504.9  176.563
 7.2556  31839.8  177.658
 7.2976  31803.5  178.06
 7.3396  31814.9  178.314
 7.3816  31686.8  178.168
 7.4236  32263.4  179.07
 7.4656  32383.9  178.851
 7.5076  32444.5  179.171
 7.5496  31994.8  178.462
 7.5916  32164  178.987
 7.6336  32581.8  180.033
 7.6756  32931.8  180.843
 7.7176  33327.3  182.26
 7.7596  33350.5  183.549
 7.8016  34039.8  187.69
 7.8436  33374.5  182.502
 7.8856  33694.7  182.981
 7.9276  34019.8  184.243
 7.9696  34350.5  185.466
 8.0116  35282.4  186.51
 8.0536  35760.1  188.015
 8.0956  35643.4  188.908
 8.1376  35855.2  188.925
 8.1796  36207.4  190.405
 8.2216  36914.8  190.978
 8.2636  37072.3  191.638
 8.3056  36870.1  191.865
 8.3476  37578  193.04
 8.3896  37335.8  192.499
 8.4316  37577.9  193.287
 8.4736  37828.7  193.399
 8.5156  37297.9  192.314
 8.5576  36880.4  192.221
 8.5996  36799  190.87
 8.6416  37002  192.671
 8.6836  36552.6  191.3
 8.7256  37242.1  192.575
 8.7676  37243.7  195.485
 8.8096  37137  192.487
 8.8516  37401.1  192.732
 8.8936  36791.8  191.115
 8.9356  37263.6  192.676
 8.9776  36919.6  191.863
 9.0196  37207  192.284
 9.0616  36769.1  190.637
 9.1036  36480.3  191.06
 9.1456  36062.2  189.278
 9.1876  36266.1  189.764
 9.2296  36067.5  188.68
 9.2716  35631.4  187.585
 9.3136  35788.9  187.997
 9.3556  35993  188.509
 9.3976  34973.3  186.33
 9.4396  35132.7  186.669
 9.4816  35041.6  186.285
 9.5236  34546.5  184.848
 9.5656  34450.7  184.953
 9.6076  33794.5  183.703
 9.6496  34257  184.842
 9.6916  33702.1  183.277
 9.7336  34085.1  184.119
 9.7756  33675.8  184.286
 9.8176  33662.1  183.789
 9.8596  33488.3  181.75
 9.9016  33223.9  181.016
 9.9436  32886.1  180.014
 9.9856  32356  178.829
 10.0276  32028.5  178.993
 10.0696  32613  179.646
 10.1116  31566  177.012
 10.1536  31553.7  177.132
 10.1956  30945.5  175.024
 10.2376  30907.7  174.423
 10.2796  30712.4  173.98
 10.3216  30320  173.16
 10.3636  30220.8  172.903
 10.4056  29969.6  172.591
 10.4476  30306  173.152
 10.4896  30457.8  173.031
 10.5316  29401.6  170.736
 10.5736  29341.4  170.975
 10.6156  29324.7  170.674
 10.6576  29405.5  169.467
 10.6996  28684.7  168.079
 10.7416  28483.5  167.705
 10.7836  28068.9  167.14
 10.8256  27804.4  166.771
 10.8676  27692.4  165.987
 10.9096  27469.6  165.33
 10.9516  27238.1  163.579
 10.9936  27408.5  164.296
 11.0356  27085.8  163.939
 11.0776  27075.6  163.237
 11.1196  26522.3  162.332
 11.1616  26159.5  160.894
 11.2036  26537.6  161.895
 11.2456  26508  162.526
 11.2876  26604.7  162.53
 11.3296  26009  160.62
 11.3716  26782.7  162.666
 11.4136  26928  164.017
 11.4556  27007.4  163.902
 11.4976  27824.2  165.333
 11.5396  27081.8  163.292
 11.5816  26554.7  162.131
 11.6236  26068.5  160.885
 11.6656  26150.9  160.273
 11.7076  25533.8  159.204
 11.7496  25181.4  162.087
 11.7916  25107.1  157.115
 11.8336  24821.4  157.112
 11.8756  24641  156.103
 11.9176  24918.7  156.657
 11.9596  24824.7  156.525
 12.0016  24495.2  156.245
 12.0436  24650.8  156.193
 12.0856  24328.5  155.673
 12.1276  24396.7  155.843
 12.1696  24254.6  154.502
 12.2116  24193.7  154.307
 12.2536  24344.9  155.608
 12.2956  23940.6  153.652
 12.3376  24186.4  154.653
 12.3796  24083.5  154.803
 12.4216  24132.2  154.152
 12.4636  23911.6  154.387
 12.5056  23987.4  153.892
 12.5476  24272.1  154.309
 12.5896  23972.8  154.006
 12.6316  24016.1  154.296
 12.6736  23720.9  153.834
 12.7156  23963.3  154.45
 12.7576  23950.2  154.67
 12.7996  24066.4  153.685
 12.8416  23877.2  154.131
 12.8836  24238.2  155.124
 12.9256  24466  154.872
 12.9676  24460.3  155.26
 13.0096  24530.3  156.608
 13.0516  24580.9  155.789
 13.0936  24753.3  156.754
 13.1356  24769.2  155.758
 13.1776  24429.6  155.706
 13.2196  24541.6  155.703
 13.2616  24108  154.633
 13.3036  24603.8  156.177
 13.3456  24290.6  155.529
 13.3876  24740.7  156.239
 13.4296  24454.2  155.498
 13.4716  24504.6  155.273
 13.5136  24508.6  155.424
 13.5556  24431.5  155.823
 13.5976  24682.6  156.782
 13.6396  24534.7  155.66
 13.6816  24604.6  156.353
 13.7236  24985.8  157.142
 13.7656  26453.2  162.127
 13.8076  27254.1  163.21
 13.8496  26835.6  162.606
 13.8916  24817.1  157.548
 13.9336  24079.9  154.463
 13.9756  24154.9  154.087
 14.0176  23793.2  153.608
 14.0596  24005.2  154.212
 14.1016  23689.5  153.628
 14.1436  23994.6  153.737
 14.1856  23204.7  151.474
 14.2276  23141.2  151.75
 14.2696  23255.9  151.979
 14.3116  22777.6  150.317
 14.3536  22590.8  149.868
 14.3956  22481.9  149.237
 14.4376  22610.3  149.442
 14.4796  22565.9  149.289
 14.5216  22159.3  148.723
 14.5636  21960.5  147.629
 14.6056  22305.2  148.334
 14.6476  22220.3  147.294
 14.6896  21749.4  146.275
 14.7316  21347.2  145.955
 14.7736  21193.7  144.575
 14.8156  21194.6  144.597
 14.8576  21135.1  144.251
 14.8996  20552.7  143.443
 14.9416  20326.5  142.655
 14.9836  20260.2  142.401
 15.0256  19551  138.82
 15.0676  19679.6  139.585
 15.1096  19677  139.316
 15.1516  19384  138.836
 15.1936  19216.9  137.661
 15.2356  18970.3  137.049
 15.2776  19049.3  136.928
 15.3196  18674.1  136.559
 15.3616  18443  135.461
 15.4036  18584.7  135.854
 15.4456  18694.5  135.906
 15.4876  18514.8  134.934
 15.5296  18255  134.276
 15.5716  17867.8  132.44
 15.6136  18016.6  133.33
 15.6556  17958  132.35
 15.6976  17791.5  132.035
 15.7396  17606.3  131.708
 15.7816  17749.1  131.769
 15.8236  17477.1  131.429
 15.8656  17427.7  131.054
 15.9076  17157.5  129.852
 15.9496  18017.4  135.902
 15.9916  17691.3  135.072
 16.0336  17906.4  132.727
 16.0756  17747.3  132.452
 16.1176  17388.6  131.18
 16.1596  16979.4  130.809
 16.2016  17049.5  129.832
 16.2436  17067.5  130.292
 16.2856  16895.1  129.14
 16.3276  16679.4  128.761
 16.3696  16874.4  129.331
 16.4116  16572.5  128.595
 16.4536  16882.9  129.615
 16.4956  16847.3  129.219
 16.5376  16424  127.764
 16.5796  16564.9  127.676
 16.6216  16803.1  128.862
 16.6636  16408.5  127.522
 16.7056  16593.9  128.106
 16.7476  16705.3  128.061
 16.7896  16682.3  128.73
 16.8316  16732.2  128.894
 16.8736  16845  129.589
 16.9156  16657  129.188
 16.9576  16328.8  128.732
 16.9996  16245.8  128.86
 17.0416  16408.2  127.909
 17.0836  16561.5  128.259
 17.1256  16142.5  126.634
 17.1676  16168.1  126.692
 17.2096  16248.7  126.911
 17.2516  16027.6  125.832
 17.2936  15995.7  126.055
 17.3356  15856  125.477
 17.3776  15636.2  124.8
 17.4196  15617.4  124.434
 17.4616  15686.3  124.602
 17.5036  15245.6  123.217
 17.5456  15261.9  123.912
 17.5876  15172.4  122.599
 17.6296  15400  123.342
 17.6716  15334.7  123.662
 17.7136  15255.3  123.465
 17.7556  15149.3  123.341
 17.7976  15051.5  122.664
 17.8396  14946.4  121.75
 17.8816  14751.3  121.513
 17.9236  14914  121.958
 17.9656  14823  122.112
 18.0076  14982.4  122.333
 18.0496  14866  121.005
 18.0916  15080  122.421
 18.1336  14746.9  121.161
 18.1756  14951.4  121.546
 18.2176  14753.2  120.95
 18.2596  14687.7  120.419
 18.3016  14766.1  120.989
 18.3436  14797.5  121.13
 18.3856  14648.1  120.648
 18.4276  14580.3  120.053
 18.4696  14638.1  120.368
 18.5116  14615.1  120.556
 18.5536  14554.8  120.657
 18.5956  14301.6  119.178
 18.6376  14234.9  119.304
 18.6796  14384  119.222
 18.7216  14417.7  119.876
 18.7636  14172.5  118.848
 18.8056  14217.8  118.966
 18.8476  13998.6  118.665
 18.8896  14132.9  118.571
 18.9316  14301.5  119.254
 18.9736  14111.5  118.162
 19.0156  14034  118.264
 19.0576  14317.1  118.29
 19.0996  14197.4  118.506
 19.1416  13974.3  117.954
 19.1836  13985.7  117.61
 19.2256  13906.4  117.503
 19.2676  14136  118.549
 19.3096  13976.4  118.126
 19.3516  13865.5  117.616
 19.3936  14019.8  118.174
 19.4356  14117.8  118.462
 19.4776  13916.7  117.705
 19.5196  13968  117.772
 19.5616  14041  118.343
 19.6036  13815.3  116.875
 19.6456  13975.3  117.67
 19.6876  14043.6  117.596
 19.7296  14191.8  118.678
 19.7716  14122.2  118.571
 19.8136  14498.9  120.329
 19.8556  14694.9  120.61
 19.8976  14674  120.588
 19.9396  14836.6  120.842
 19.9816  14881.4  121.273
 20.0236  14891.3  121.506
 20.0656  14332.2  119.204
 20.1076  14268  119.42
 20.1496  14072.8  118.595
 20.1916  14104.1  118.247
 20.2336  13889.8  117.275
 20.2756  13714.5  116.96
 20.3176  13571  116.099
 20.3596  13472.3  115.658
 20.4016  13535.3  115.728
 20.4436  13320.9  115.357
 20.4856  13514.2  115.992
 20.5276  13312.4  115.579
 20.5696  13562  116.101
 20.6116  13250.6  115.039
 20.6536  13322.7  114.865
 20.6956  13277.3  114.8
 20.7376  13115.3  114.301
 20.7796  13187.8  114.323
 20.8216  13242.6  114.264
 20.8636  13277  114.792
 20.9056  13135.4  114.109
 20.9476  13231.9  114.38
 20.9896  13297.4  114.515
 21.0316  13204.5  114.026
 21.0736  13140.7  114.27
 21.1156  13043.1  114.001
 21.1576  13184  114.66
 21.1996  13103.2  114.295
 21.2416  13116.6  114.169
 21.2836  13147.6  114.283
 21.3256  13038.8  113.883
 21.3676  13083  113.614
 21.4096  12908.6  113.175
 21.4516  12889  112.955
 21.4936  12690.9  112.357
 21.5356  12988.2  113.607
 21.5776  12990.4  113.451
 21.6196  12778.5  112.563
 21.6616  12686.9  112.23
 21.7036  12804.2  112.526
 21.7456  12741.9  112.332
 21.7876  12774.9  112.233
 21.8296  12705.6  111.782
 21.8716  12739.3  112.16
 21.9136  12918.6  113.145
 21.9556  12661.8  111.695
 21.9976  12675.1  111.779
 22.0396  12500.5  111.26
 22.0816  12591.2  112.183
 22.1236  12789.9  112.527
 22.1656  12596.2  111.809
 22.2076  12465.4  110.691
 22.2496  12428.2  110.564
 22.2916  12523.4  110.86
 22.3336  12504.1  111.505
 22.3756  12372.9  110.634
 22.4176  12267.1  110.018
 22.4596  12093.9  109.807
 22.5016  12267.9  110.112
 22.5436  12435.6  110.728
 22.5856  12592.2  111.678
 22.6276  12741.1  112.473
 22.6696  12307.3  110.894
 22.7116  12386.8  110.771
 22.7536  12477.9  111.145
 22.7956  12327.3  109.815
 22.8376  12171.7  109.62
 22.8796  12309.5  110.052
 22.9216  12566.7  111.733
 22.9636  12384.9  110.085
 23.0056  12338.5  110.015
 23.0476  12518.7  111.385
 23.0896  12608.3  111.162
 23.1316  12431.3  110.813
 23.1736  12637.8  114.681
 23.2156  12625  111.98
 23.2576  12889.3  113.293
 23.2996  12476.2  111.23
 23.3416  12799.4  113.201
 23.3836  12645.5  111.749
 23.4256  13055  113.667
 23.4676  12575.5  111.246
 23.5096  12703.7  112.478
 23.5516  12508.7  110.905
 23.5936  12766.9  112.968
 23.6356  12725  112.445
 23.6776  12553  111.886
 23.7196  12546.7  111.441
 23.7616  12612.7  111.648
 23.8036  12745.6  112.299
 23.8456  12373.8  110.195
 23.8876  12566.6  111.416
 23.9296  12458.3  111.412
 23.9716  12519.2  110.886
 24.0136  12508  111.749
 24.0556  12152.8  109.865
 24.0976  12287.8  110.289
 24.1396  12192.5  112.496
 24.1816  12397.7  111.849
 24.2236  12348.6  111.268
 24.2656  12237.7  110.228
 24.3076  12178.8  110.238
 24.3496  12170.9  110.076
 24.3916  12166.7  110.112
 24.4336  12198.8  110.451
 24.4756  12022  109.543
 24.5176  11842.3  108.337
 24.5596  11906.5  108.745
 24.6016  11846.5  108.786
 24.6436  12003.4  109.006
 24.6856  11764.3  107.665
 24.7276  11789.6  108.106
 24.7696  11740.8  107.988
 24.8116  11636.8  107.687
 24.8536  11601  107.523
 24.8956  11734.7  107.876
 24.9376  11528.7  106.84
 24.9796  11344.4  106.344
 25.0216  11423.9  106.833
 25.0636  11457.8  106.655
 25.1056  11269.5  106.473
 25.1476  11317.1  108.302
 25.1896  11316.8  106.831
 25.2316  11204.4  105.558
 25.2736  11260.2  105.475
 25.3156  11233  105.425
 25.3576  11075.1  105.115
 25.3996  11272  106.026
 25.4416  11131.9  105.345
 25.4836  10903.6  104.77
 25.5256  11096.7  105.057
 25.5676  11145.3  105.027
 25.6096  11052.9  105.156
 25.6516  11085.8  104.827
 25.6936  11122.6  105.31
 25.7356  11068.4  105.184
 25.7776  11177.1  105.287
 25.8196  10929.9  104.359
 25.8616  10946.3  104.371
 25.9036  11045  104.297
 25.9456  10820.5  103.836
 25.9876  10947.1  104.49
 26.0296  11016.7  104.351
 26.0716  10966  104.531
 26.1136  10951.3  104.382
 26.1556  10938.9  103.712
 26.1976  10896.9  104.45
 26.2396  10974  103.954
 26.2816  10892.1  104.189
 26.3236  10916.1  104.452
 26.3656  11049.6  104.818
 26.4076  10866.4  104.154
 26.4496  11042.9  104.58
 26.4916  11246.9  105.426
 26.5336  11567  107.28
 26.5756  11625.8  107.428
 26.6176  10989.4  104.472
 26.6596  10830  104.013
 26.7016  10782.6  103.545
 26.7436  10896.9  104.231
 26.7856  10587.6  102.724
 26.8276  10635  102.917
 26.8696  10762.6  103.403
 26.9116  10482.7  101.984
 26.9536  10544.8  102.337
 26.9956  10486.5  102.092
 27.0376  10563.4  102.687
 27.0796  10539  102.302
 27.1216  10556.7  102.434
 27.1636  10347.7  101.592
 27.2056  10523.3  102.331
 27.2476  10428  101.87
 27.2896  10428.2  101.976
 27.3316  10312  101.126
 27.3736  10267.8  101.174
 27.4156  10502.6  102.165
 27.4576  10343.2  101.598
 27.4996  10420.3  101.589
 27.5416  10386.8  101.729
 27.5836  10313.4  101.214
 27.6256  10268.6  101.169
 27.6676  10259.2  101.116
 27.7096  10261.9  101.012
 27.7516  10281.1  101.253
 27.7936  10584.2  102.881
 27.8356  10533.1  102.243
 27.8776  10421.7  101.765
 27.9196  10254  100.803
 27.9616  10223.5  100.852
 28.0036  10244.4  100.915
 28.0456  10087.9  100.276
 28.0876  10104  100.447
 28.1296  10124.2  100.38
 28.1716  10148.1  100.518
 28.2136  10140.9  100.441
 28.2556  10163  100.665
 28.2976  10031  100.011
 28.3396  9958.02  99.3941
 28.3816  10090.7  100.075
 28.4236  9920.16  99.3791
 28.4656  9884.56  99.2405
 28.5076  9887.07  98.8926
 28.5496  9901.37  99.217
 28.5916  10008.8  99.572
 28.6336  10011.4  99.9229
 28.6756  9889.14  98.5167
 28.7176  9956.89  99.4052
 28.7596  9837.28  98.7031
 28.8016  9852.19  98.8178
 28.8436  9760.74  98.5936
 28.8856  9830.32  98.7931
 28.9276  9848.35  99.1313
 28.9696  9869.85  98.8905
 29.0116  9691.29  98.1714
 29.0536  9710.02  98.483
 29.0956  9735.29  98.3074
 29.1376  9673.26  97.9628
 29.1796  9725.99  98.2924
 29.2216  9689.71  97.9445
 29.2636  9788.23  98.5206
 29.3056  9701.41  97.855
 29.3476  9759.8  98.6785
 29.3896  9619.95  98.0797
 29.4316  9678.71  97.713
 29.4736  9404.96  96.3771
 29.5156  9606.72  97.334
 29.5576  9423.82  97.1416
 29.5996  9542.42  97.0088
 29.6416  9422.78  96.5187
 29.6836  9364.2  96.144
 29.7256  9410.65  96.9417
 29.7676  9470.42  96.9049
 29.8096  9452.1  96.7624
 29.8516  9233.55  95.9515
 29.8936  9360.02  96.7113
 29.9356  9473.31  97.0499
 29.9776  9398.27  96.8161
 30.0196  9437.02  96.4155
 30.0616  9353.94  96.3536
 30.1036  9339.74  96.1162
 30.1456  9320.12  96.2303
 30.1876  9317.55  96.2121
 30.2296  9263.23  95.8616
 30.2716  9431.88  96.3765
 30.3136  9310.87  96.6072
 30.3556  9535.6  97.7683
 30.3976  9461.47  98.8881
 30.4396  9821.04  98.0585
 30.4816  9519.21  96.137
 30.5236  9663.5  96.8658
 30.5656  9648.72  97.4592
 30.6076  9608.4  96.6637
 30.6496  9644.79  97.2553
 30.6916  9403.42  96.1282
 30.7336  9498.62  96.7612
 30.7756  9340.81  96.0297
 30.8176  9327.48  95.8841
 30.8596  9365.33  95.831
 30.9016  9431.56  96.5339
 30.9436  9433.16  96.2738
 30.9856  9545.64  96.976
 31.0276  9447.83  96.106
 31.0696  9269.43  95.7474
 31.1116  9263.38  95.6886
 31.1536  9328.01  95.8991
 31.1956  9396.72  96.3432
 31.2376  9173.03  95.2098
 31.2796  9301.21  95.415
 31.3216  9307.48  95.3757
 31.3636  9320.92  96.1563
 31.4056  9319.75  97.4511
 31.4476  9444.79  96.0154
 31.4896  9250.98  95.5229
 31.5316  9264.81  95.0046
 31.5736  9615.42  96.6049
 31.6156  9461.7  95.838
 31.6576  9462.26  95.9127
 31.6996  9576.51  96.1563
 31.7416  9296.08  95.836
 31.7836  9301.83  94.8616
 31.8256  9353.3  95.3897
 31.8676  9527.65  96.2565
 31.9096  9220.03  95.0698
 31.9516  9238.2  95.3353
 31.9936  9146.31  94.6791
 32.0356  9360.53  95.8211
 32.0776  9365.29  95.7499
 32.1196  9285.8  95.4513
 32.1616  9409.46  95.5296
 32.2036  9410.62  96.045
 32.2456  9208.02  95.3878
 32.2876  9250.86  95.111
 32.3296  9170.91  94.6608
 32.3716  8996.21  93.8637
 32.4136  9050.24  94.3322
 32.4556  9081.65  93.8941
 32.4976  9076.94  93.7743
 32.5396  8998.02  93.4266
 32.5816  9010.27  93.6179
 32.6236  9113.16  94.216
 32.6656  9049.6  94.4364
 32.7076  8925.99  93.4421
 32.7496  9006.67  93.5429
 32.7916  9002.56  93.472
 32.8336  8978.14  93.449
 32.8756  9057.83  93.5669
 32.9176  8934.59  93.4199
 32.9596  8893.78  93.2711
 33.0016  8995.81  93.5847
 33.0436  8988.65  93.7198
 33.0856  9051.45  94.1461
 33.1276  8764.35  92.3697
 33.1696  8991.97  93.3961
 33.2116  8981.02  93.574
 33.2536  8963.49  93.4698
 33.2956  8968.52  93.5858
 33.3376  8832.03  92.5929
 33.3796  9001.01  93.7116
 33.4216  8824.23  92.3644
 33.4636  8919.86  93.0302
 33.5056  8749.84  92.3891
 33.5476  8791.05  92.5737
 33.5896  8868.06  92.7838
 33.6316  8867.88  93.0772
 33.6736  8671.01  92.2931
 33.7156  8695.28  92.4512
 33.7576  8797.74  92.638
 33.7996  8894.65  92.9036
 33.8416  8718.54  92.1698
 33.8836  8683.76  91.7617
 33.9256  8861.2  92.7454
 33.9676  8795.89  92.2913
 34.0096  8715.65  92.1956
 34.0516  8636.27  91.415
 34.0936  8587.08  91.4262
 34.1356  8742.6  91.9872
 34.1776  8577.28  91.1114
 34.2196  8624.68  91.5455
 34.2616  8560.7  91.3454
 34.3036  8780.77  92.7522
 34.3456  8598.08  91.5294
 34.3876  8692.46  92.014
 34.4296  8574.04  91.0817
 34.4716  8837.51  92.6204
 34.5136  8641.81  91.7767
 34.5556  8528.15  91.4272
 34.5976  8582.69  91.5325
 34.6396  8651.34  91.6108
 34.6816  8601.54  91.4485
 34.7236  8605.39  91.2515
 34.7656  8661.34  91.7584
 34.8076  8501.02  91.2342
 34.8496  8514.58  91.1552
 34.8916  8667.45  91.8363
 34.9336  8593.69  91.4218
 34.9756  8593.32  91.3331
 35.0176  8647.63  92.1595
 35.0596  8667.53  92.0879
 35.1016  8570.76  91.3309
 35.1436  8773.61  92.0887
 35.1856  8611.25  91.3571
 35.2276  8547.72  91.1961
 35.2696  8577.44  91.5433
 35.3116  8489.31  91.1719
 35.3536  8440.38  90.6117
 35.3956  8344.73  89.8104
 35.4376  8552.12  91.487
 35.4796  8533.33  91.4314
 35.5216  8514.85  91.2931
 35.5636  8297.46  90.8606
 35.6056  8392.21  90.3969
 35.6476  8506.81  90.9076
 35.6896  8665.99  91.856
 35.7316  8353.65  90.1615
 35.7736  8296.35  90.0301
 35.8156  8417.57  90.6926
 35.8576  8510.88  91.4352
 35.8996  8540.8  91.5645
 35.9416  8394  90.2843
 35.9836  8431.5  90.8406
 36.0256  8617  91.838
 36.0676  8633.9  91.6907
 36.1096  8491.88  91.0687
 36.1516  8540.93  91.2229
 36.1936  8449.13  90.5697
 36.2356  8444.99  91.2071
 36.2776  8324.16  90.0277
 36.3196  8386.03  90.034
 36.3616  8328.35  89.856
 36.4036  8438.2  90.5155
 36.4456  8445.58  90.7638
 36.4876  8228.19  89.5266
 36.5296  8382.91  90.4055
 36.5716  8284.4  90.6493
 36.6136  8276.07  89.3886
 36.6556  8168.37  88.994
 36.6976  8103.94  89.1419
 36.7396  8108.56  88.9016
 36.7816  8131.56  89.3983
 36.8236  8091.87  89.1072
 36.8656  8096.89  89.2037
 36.9076  8055.81  88.8561
 36.9496  7987.44  88.4549
 36.9916  8143.53  88.9477
 37.0336  8196.94  89.5501
 37.0756  8163.19  89.1685
 37.1176  7904.94  88.0083
 37.1596  7963.02  88.3434
 37.2016  7980.82  88.6611
 37.2436  8170.87  89.0325
 37.2856  8014.01  88.4352
 37.3276  8158.85  88.574
 37.3696  7951.12  88.3193
 37.4116  7993.73  88.4489
 37.4536  8040.42  88.5796
 37.4956  7971.04  88.2387
 37.5376  8149.62  90.8119
 37.5796  8173.49  90.876
 37.6216  7977.94  88.0531
 37.6636  8164.26  88.9705
 37.7056  8230.52  89.5127
 37.7476  8286.14  89.3523
 37.7896  8085.23  88.7695
 37.8316  8107.97  89.0524
 37.8736  8151.95  88.8174
 37.9156  8156.35  88.8402
 37.9576  8172.34  88.8347
 37.9996  8068.62  87.984
 38.0416  7960.28  88.1945
 38.0836  8253.52  89.7022
 38.1256  8017.81  88.3883
 38.1676  7978.83  88.2823
 38.2096  8122.61  88.7024
 38.2516  8042.63  88.4713
 38.2936  8123.96  88.7235
 38.3356  8082.03  88.4154
 38.3776  8061.32  88.5535
 38.4196  8013.33  88.145
 38.4616  8037.96  88.5346
 38.5036  8139.15  88.9317
 38.5456  7912.28  88.5146
 38.5876  8037.02  89.2402
 38.6296  8002.55  88.038
 38.6716  7941.79  87.497
 38.7136  7882.71  87.1157
 38.7556  8015.07  88.3527
 38.7976  8070.66  88.5712
 38.8396  8026.63  88.7929
 38.8816  7829.06  87.4988
 38.9236  8036.39  88.452
 38.9656  8102.85  88.7265
 39.0076  8057.34  87.8681
 39.0496  8156.47  88.967
 39.0916  8152.22  88.5893
 39.1336  8047.02  88.4229
 39.1756  7984.79  88.1476
 39.2176  7882.46  88.1162
 39.2596  8110.78  89.3037
 39.3016  7935.51  87.9188
 39.3436  7900.63  88.1325
 39.3856  8070.9  88.5245
 39.4276  8163.26  89.5365
 39.4696  7977.62  88.1224
 39.5116  7983.64  88.6779
 39.5536  7998.05  89.1609
 39.5956  7944.79  87.9865
 39.6376  7983.67  88.1879
 39.6796  7915.67  87.5718
 39.7216  7859.06  87.3471
 39.7636  7895.9  88.1145
 39.8056  7913.36  87.9966
 39.8476  7892.38  88.1401
 39.8896  8003.13  88.3863
 39.9316  7888.54  87.9945
 39.9736  7997.58  88.1824
 40.0156  7919.5  87.5762
 40.0576  7922.22  87.9365
 40.0996  8112.65  88.1703
 40.1416  7906.57  87.8341
 40.1836  8055.21  88.545
 40.2256  7965.38  88.0922
 40.2676  7933.63  88.0117
 40.3096  8019.49  88.4144
 40.3516  8076.54  88.8376
 40.3936  8066.9  88.3437
 40.4356  7927.47  87.79
 40.4776  8033.83  88.7762
 40.5196  7947.73  88.4263
 40.5616  8111.22  88.9622
 40.6036  8001.78  88.623
 40.6456  8016.56  88.2995
 40.6876  8143.05  88.9973
 40.7296  7880.39  87.6828
 40.7716  7951.79  88.1978
 40.8136  7863.85  87.6579
 40.8556  8088.95  89.0345
 40.8976  8027.83  88.6193
 40.9396  8046.37  89.0725
 40.9816  7964.75  87.9172
 41.0236  7917.93  87.4347
 41.0656  8031.49  88.6052
 41.1076  7916.94  87.7371
 41.1496  7971  87.938
 41.1916  7892.61  87.8333
 41.2336  8088.52  88.9115
 41.2756  7895.04  87.4442
 41.3176  7937.14  88.2817
 41.3596  7951.63  88.1077
 41.4016  7930.26  88.2394
 41.4436  8078.52  88.8463
 41.4856  7973.83  88.4415
 41.5276  7934.56  88.236
 41.5696  7855.06  87.4365
 41.6116  8022.92  88.7485
 41.6536  7988.44  88.4162
 41.6956  8083.01  88.9984
 41.7376  7882.7  87.9161
 41.7796  7872.72  87.7396
 41.8216  8045.76  88.9297
 41.8636  7906.43  88.1042
 41.9056  7869.95  87.6924
 41.9476  7981.38  88.5468
 41.9896  8018.62  88.4165
 42.0316  8004.86  88.4282
 42.0736  7989.65  88.4494
 42.1156  7981.31  88.2402
 42.1576  7943.31  88.1319
 42.1996  8046.22  88.8277
 42.2416  7920.09  87.7236
 42.2836  7874.65  87.5865
 42.3256  7917.43  87.9312
 42.3676  8023.19  88.3243
 42.4096  7966.98  87.9795
 42.4516  8064.46  88.601
 42.4936  7914.15  87.8404
 42.5356  7835.73  87.5457
 42.5776  7896.81  87.8247
 42.6196  7950.46  88.1843
 42.6616  7772.49  87.3551
 42.7036  7967.16  87.8165
 42.7456  8009.62  88.404
 42.7876  7856.08  87.6504
 42.8296  7843.88  87.4182
 42.8716  7735.31  86.9761
 42.9136  7831.28  87.3013
 42.9556  7851.08  87.5472
 42.9976  7816.56  87.3226
 43.0396  7894.49  87.4848
 43.0816  7837.48  87.5511
 43.1236  7766.04  87.2035
 43.1656  7886.07  87.691
 43.2076  7854.28  87.6281
 43.2496  7726.03  86.7333
 43.2916  7776.47  87.3751
 43.3336  7770.76  87.1789
 43.3756  7834.77  87.2946
 43.4176  7648.75  86.3239
 43.4596  7714.96  86.5548
 43.5016  7747.34  87.1449
 43.5436  7693.87  86.7461
 43.5856  7720.89  86.9236
 43.6276  7645.16  86.3909
 43.6696  7736.02  87.1515
 43.7116  7798.27  87.0029
 43.7536  7873.58  87.9298
 43.7956  7661.71  87.9478
 43.8376  7607.98  86.1732
 43.8796  7631.09  86.3758
 43.9216  7536.5  85.7594
 43.9636  7625.56  86.362
 44.0056  7524.61  86.0158
 44.0476  7558.08  85.8441
 44.0896  7688.53  86.933
 44.1316  7719.95  86.6297
 44.1736  7652.56  86.3785
 44.2156  7619.22  86.0457
 44.2576  7585.55  86.1759
 44.2996  7626.22  86.3868
 44.3416  7578.5  85.8616
 44.3836  7409.44  85.225
 44.4256  7477.7  85.258
 44.4676  7410.83  85.0403
 44.5096  7568.23  86.0829
 44.5516  7521.2  85.7768
 44.5936  7466.01  85.4181
 44.6356  7598.87  85.9095
 44.6776  7551.56  85.9692
 44.7196  7522.24  86.0883
 44.7616  7680.09  88.3452
 44.8036  7554.9  86.0257
 44.8456  7672.32  86.9024
 44.8876  7591.49  86.2802
 44.9296  7749.04  86.6188
 44.9716  7652.45  86.5143
 45.0136  7780.5  87.1716
 45.0556  7717.16  86.7921
 45.0976  7599.36  86.2734
 45.1396  7540.44  85.6896
 45.1816  7611.82  86.0435
 45.2236  7764.38  86.8111
 45.2656  7530.25  85.9773
 45.3076  7683.45  86.6479
 45.3496  7553.86  86.2042
 45.3916  7581.01  86.6424
 45.4336  7663  86.9524
 45.4756  7610.49  86.5001
 45.5176  7686.21  86.5514
 45.5596  7784.26  87.2217
 45.6016  7580.57  86.4964
 45.6436  7584.63  85.6848
 45.6856  7578.75  86.3071
 45.7276  7483.27  87.0948
 45.7696  7471.18  86.7099
 45.8116  7487.91  86.2458
 45.8536  7531.39  86.3843
 45.8956  7569.63  85.9559
 45.9376  7495.97  85.0005
 45.9796  7613.66  86.3531
 46.0216  7559.31  86.3976
 46.0636  7585.5  85.6719
 46.1056  7613.45  85.8249
 46.1476  7552.33  86.077
 46.1896  7495.09  85.9014
 46.2316  7532.89  85.9777
 46.2736  7445.57  85.8576
 46.3156  7426.84  85.3339
 46.3576  7602.76  86.543
 46.3996  7542.62  86.35
 46.4416  7593  86.215
 46.4836  7432.75  85.6602
 46.5256  7633.4  86.7502
 46.5676  7613.07  86.7526
 46.6096  7620.72  86.721
 46.6516  7642.43  85.8733
 46.6936  7604  86.1635
 46.7356  7626.74  86.3879
 46.7776  7432.71  86.1267
 46.8196  7491.74  86.0587
 46.8616  7396.46  85.4551
 46.9036  7357.38  84.8967
 46.9456  7416.76  84.8672
 46.9876  7508.65  85.4747
 47.0296  7460.89  85.8952
 47.0716  7408.27  85.4188
 47.1136  7415.99  85.1362
 47.1556  7469.5  85.3048
 47.1976  7583.1  86.0399
 47.2396  7456.64  85.7227
 47.2816  7371.93  84.9364
 47.3236  7461.07  85.8137
 47.3656  7461.13  85.7507
 47.4076  7415.97  85.2824
 47.4496  7432.41  85.4729
 47.4916  7450.04  85.7701
 47.5336  7411.49  85.3621
 47.5756  7528.7  86.1548
 47.6176  7321.58  84.8572
 47.6596  7431.81  85.2107
 47.7016  7571.58  85.8178
 47.7436  7440.2  85.4057
 47.7856  7454.93  85.5222
 47.8276  7425.89  85.3969
 47.8696  7435.65  85.5332
 47.9116  7470.35  85.4559
 47.9536  7441.34  85.2268
 47.9956  7328.53  85.2999
 48.0376  7412.72  85.5616
 48.0796  7354.04  85.3413
 48.1216  7317.35  84.959
 48.1636  7468.15  85.3883
 48.2056  7516.24  85.9359
 48.2476  7590.55  86.6755
 48.2896  7536.39  86.2668
 48.3316  7446.23  85.6931
 48.3736  7557.45  86.352
 48.4156  7458.07  85.6359
 48.4576  7415.38  85.6885
 48.4996  7415  85.141
 48.5416  7496.35  85.9292
 48.5836  7478.71  85.492
 48.6256  7486.05  85.7536
 48.6676  7444.98  86.0411
 48.7096  7461.78  85.3879
 48.7516  7379.57  85.068
 48.7936  7360.89  85.0309
 48.8356  7371.04  85.1384
 48.8776  7403.18  85.9141
 48.9196  7602.61  86.4059
 48.9616  7472.15  86.0451
 49.0036  7369.05  85.8118
 49.0456  7386.22  85.8905
 49.0876  7360.42  85.2593
 49.1296  7284.05  84.9809
 49.1716  7275.02  84.8081
 49.2136  7488.85  85.96
 49.2556  7411.07  85.5534
 49.2976  7396.39  85.535
 49.3396  7375.63  85.4748
 49.3816  7545.02  85.8667
 49.4236  7347.96  85.1662
 49.4656  7244.05  84.5787
 49.5076  7282.39  84.5502
 49.5496  7321.05  84.8432
 49.5916  7432.39  85.3901
 49.6336  7372.39  85.2574
 49.6756  7365.97  85.4585
 49.7176  7336.98  85.2299
 49.7596  7373.29  85.1973
 49.8016  7373.11  85.122
 49.8436  7349.87  85.2953
 49.8856  7237.44  84.6344
 49.9276  7219.46  84.6405
 49.9696  7325.54  85.2356
 50.0116  7384.28  85.7114
 50.0536  7375.41  85.6089
 50.0956  7256.54  84.9876
 50.1376  7328.34  85.0896
 50.1796  7309.6  85.2684
 50.2216  7343.38  85.4533
 50.2636  7139.2  83.8766
 50.3056  7234.75  84.618
 50.3476  7224.75  84.5715
 50.3896  7200.71  84.4073
 50.4316  7291.71  84.7625
 50.4736  7220.64  84.5746
 50.5156  7208.57  84.4904
 50.5576  7388.75  85.2942
 50.5996  7263.92  84.8622
 50.6416  7144.12  84.0791
 50.6836  7313.11  85.1332
 50.7256  7469.61  85.9652
 50.7676  7402.47  85.9121
 50.8096  7309.33  84.8891
 50.8516  7183.76  84.5809
 50.8936  7169.82  84.2629
 50.9356  7344.27  85.4074
 50.9776  7284.62  85.2155
 51.0196  7008.17  83.7086
 51.0616  7122.93  83.7148
 51.1036  7195.51  84.4977
 51.1456  7197.72  84.4268
 51.1876  7159.75  83.5249
 51.2296  7088.66  83.7554
 51.2716  7069.56  83.3385
 51.3136  7038.97  83.6276
 51.3556  7102.58  83.6099
 51.3976  7054.46  83.4856
 51.4396  6947.52  83.17
 51.4816  7028.8  83.507
 51.5236  7105.67  84.0553
 51.5656  6978.68  82.8873
 51.6076  7129.38  83.8686
 51.6496  6978.57  83.1576
 51.6916  6938.6  83.2945
 51.7336  6928.68  83.3146
 51.7756  7231.85  84.8134
 51.8176  6975.26  83.4042
 51.8596  7022.22  83.6984
 51.9016  7013.83  83.2475
 51.9436  7118.99  85.3858
 51.9856  7095.51  85.6762
 52.0276  7021.9  83.6907
 52.0696  7132.91  84.419
 52.1116  7024.61  83.8913
 52.1536  7287.92  85.3347
 52.1956  7158.38  84.0194
 52.2376  7091.35  83.8037
 52.2796  7106.19  83.7058
 52.3216  6890.53  83.1169
 52.3636  7058.61  83.6773
 52.4056  7121.7  83.9137
 52.4476  6991.59  83.5107
 52.4896  6906.05  83.0502
 52.5316  7139.55  84.4901
 52.5736  6942.12  83.0323
 52.6156  7058.35  84.1397
 52.6576  6992.73  83.1657
 52.6996  6913.51  83.6949
 52.7416  6962.08  83.8292
 52.7836  7101.79  84.566
 52.8256  7088.27  83.6771
 52.8676  6889.09  83.0768
 52.9096  7077.21  84.285
 52.9516  7033.57  84.4261
 52.9936  6973.05  84.4367
 53.0356  7067.97  83.9873
 53.0776  7041.1  84.1171
 53.1196  6937.4  83.6192
 53.1616  6940.08  83.6719
 53.2036  6836.4  83.0202
 53.2456  6938.07  83.7429
 53.2876  7028.36  83.9714
 53.3296  6962.11  83.9014
 53.3716  7143.92  84.7283
 53.4136  7072.07  84.4645
 53.4556  6969.52  83.8772
 53.4976  6916.56  83.3838
 53.5396  6826  83.2491
 53.5816  6950.98  83.639
 53.6236  6890.29  83.63
 53.6656  7058.97  84.2245
 53.7076  6932.12  83.4482
 53.7496  7087.48  84.4964
 53.7916  6998.7  84.0976
 53.8336  6947.95  83.6901
 53.8756  6919.92  84.0864
 53.9176  6919.71  83.4178
 53.9596  6746.94  83.1252
 54.0016  6719.54  82.2881
 54.0436  6607.97  81.8153
 54.0856  6820.12  82.5239
 54.1276  6768.97  82.4213
 54.1696  6627.42  81.7258
 54.2116  6942.02  83.375
 54.2536  6678.16  81.5909
 54.2956  6714.51  81.8662
 54.3376  6725.06  82.4289
 54.3796  6620.99  81.675
 54.4216  6626.56  81.7767
 54.4636  6665.14  81.9786
 54.5056  6711.22  82.059
 54.5476  6650.6  82.0383
 54.5896  6782.91  82.6768
 54.6316  6736.48  82.2293
 54.6736  6753.74  82.4444
 54.7156  6547.94  81.1892
 54.7576  6531.27  81.0598
 54.7996  6678.65  82.1291
 54.8416  6616.58  81.8056
 54.8836  6704.26  82.4256
 54.9256  6572.52  81.3804
 54.9676  6477.17  80.6492
 55.0096  6557.01  81.1943
 55.0516  6487.5  80.9523
 55.0936  6592  81.2994
 55.1356  6512.72  80.8546
 55.1776  6670.59  82.0669
 55.2196  6545.25  81.0707
 55.2616  6689.34  82.1844
 55.3036  6365.44  80.3492
 55.3456  6376.16  80.5552
 55.3876  6647.06  81.9813
 55.4296  6394.07  80.4066
 55.4716  6480.88  80.9778
 55.5136  6494.55  80.8172
 55.5556  6633.56  81.7319
 55.5976  6487.77  80.9028
 55.6396  6632.76  81.7506
 55.6816  6471.17  80.6048
 55.7236  6387.81  80.14
 55.7656  6518.56  80.6799
 55.8076  6440.89  80.2114
 55.8496  6388.98  80.1982
 55.8916  6432.03  80.6892
 55.9336  6607.8  81.592
 55.9756  6570.21  81.243
 56.0176  6457.5  80.6839
 56.0596  6413  80.4102
 56.1016  6267.16  79.5019
 56.1436  6456.51  80.9604
 56.1856  6396.34  80.3272
 56.2276  6525.38  81.1805
 56.2696  6453.75  80.7182
 56.3116  6514.89  81.4627
 56.3536  6420.13  80.5391
 56.3956  6399.94  80.3863
 56.4376  6383.64  80.3419
 56.4796  6324.14  79.7895
 56.5216  6337.87  80.2393
 56.5636  6290.87  79.5245
 56.6056  6499.16  81.0628
 56.6476  6302.52  79.4606
 56.6896  6534.06  81.3582
 56.7316  6337.67  80.0388
 56.7736  6357.9  80.1638
 56.8156  6395.11  80.4111
 56.8576  6284.86  79.6638
 56.8996  6299.81  79.6461
 56.9416  6258.95  79.7285
 56.9836  6405.72  80.163
 57.0256  6262.22  79.5899
 57.0676  6384.26  80.4586
 57.1096  6378.1  80.2154
 57.1516  6225.98  79.2869
 57.1936  6352.78  79.8531
 57.2356  6273.47  79.684
 57.2776  6300.66  79.8223
 57.3196  6272.18  79.9727
 57.3616  6294.53  79.6208
 57.4036  6334.69  79.9438
 57.4456  6384.39  80.2344
 57.4876  6328.46  79.7356
 57.5296  6304.09  79.9162
 57.5716  6289.28  79.8414
 57.6136  6122.63  78.6036
 57.6556  6289.68  79.784
 57.6976  6254.96  79.409
 57.7396  6193.44  79.3632
 57.7816  6128.64  79.3185
 57.8236  6170.45  79.3813
 57.8656  6280.07  79.7491
 57.9076  6271.57  79.7062
 57.9496  6212.13  79.6878
 57.9916  6304.11  79.7846
 58.0336  6150.11  79.0899
 58.0756  6272.99  79.5079
 58.1176  6228.02  79.2018
 58.1596  6201.28  79.6295
 58.2016  6004.8  77.5809
 58.2436  6060.71  78.3544
 58.2856  6004.01  77.9046
 58.3276  5935.22  77.8296
 58.3696  5963.86  77.7772
 58.4116  6018.52  77.9935
 58.4536  6060.42  78.1501
 58.4956  5969.95  77.7424
 58.5376  6154.26  78.5026
 58.5796  5937.29  77.5196
 58.6216  5935.89  77.3337
 58.6636  6000.6  77.9592
 58.7056  6038.9  78.0727
 58.7476  5847.54  77.2626
 58.7896  5903.24  77.2787
 58.8316  6018.51  78.0308
 58.8736  6009.28  77.9763
 58.9156  5941.76  77.5846
 58.9576  5966.31  78.0534
 58.9996  5998.21  77.5259
 59.0416  6013.73  77.9735
 59.0836  6056.14  78.1689
 59.1256  5859.51  77.5824
 59.1676  5831.24  77.706
 59.2096  5977.69  77.9638
 59.2516  6137.42  78.5764
 59.2936  5980.74  77.8933
 59.3356  5915.5  77.3464
 59.3776  5864.44  77.1783
 59.4196  5893.17  77.3043
 59.4616  5898.07  77.1977
 59.5036  5832.41  76.8015
 59.5456  6131.38  78.4364
 59.5876  6084.55  78.3281
 59.6296  5878.96  77.0617
 59.6716  5829.77  76.7955
 59.7136  5973.75  77.7264
 59.7556  5729.51  76.2538
 59.7976  5918.03  77.243
 59.8396  5901.31  77.0293
 59.8816  5915.55  77.6621
 59.9236  5979.57  77.7264
 59.9656  5922.75  77.6099
 60.0076  6082.39  78.0086
 60.0496  5871.54  77.1355
 60.0916  6076.61  77.8933
 60.1336  5934.22  78.0726
 60.1756  5744.65  77.9702
 60.1996  0.0000000E+00  0.0000000E+00