File: docs/examples/opeando_xrd/IS17_D/Data/IS17_D/17_Da_f00062.xye
# /beamlines/bl04/projects/cycle2025-II/20250340211-lsimonelli/DATA/IS17_D/17_Da_f00062.xye : mythproc.py merge -s 0.006 -l 0.5 -f /beamlines/bl04/inhouse/ff/FlatField/ff_20Nov2024rod8mm60s_17keV.raw -b True -c true -o xye /beamlines/bl04/projects/cycle2025-II/20250340211-lsimonelli/DATA/IS17_D/17_Da_00062.dat
# IsMon = [6759399, 6763137, 6765093]  IsPos = [-1.4999, -2.4884, -3.4988]
# Wave = 0.4962  CalPath /beamlines/bl04/projects/cycle2025-II/20250340211-lsimonelli/DATA/Align/Si_Pos1_25keV_f00001.cal
# Date = 2025-09-24_10:50:38 Dt = 4.8000  Bin = 0.0060  <imon> = 6762543 +/- 2362 (Min/Max) 6759399 / 6765093
# icurr 250.0158  mocoIn 1.7057E-05  mocoOut 0.7999  i15 7.08194e+06  imon 6.76254e+06  i7 7.3333  iEMpd_timer 4.8000  iEMpd_1 3.3172E-08  iEMpd_2 7.8136E-08  iEMpd_3 1.5555E-08  iEMpd_4 4.7468E-08  iEMhp_timer 4.8000  iEMhp_1 4.8847E-06  iEMhp_2 -2.4782E-08  iEMhp_3 -2.3925E-08  iEMhp_4 -2.0734E-08
#      9776
 1.5856  39978.6  205.361
 1.6276  47252.9  219.433
 1.6696  54106  233.978
 1.7116  62376.1  251.716
 1.7536  71664.6  268.658
 1.7956  76382.3  278.053
 1.8376  72037.5  270.457
 1.8796  61350.3  247.758
 1.9216  49375.2  223.149
 1.9636  41805.9  204.491
 2.0056  37079.6  191.839
 2.0476  34351.7  186.672
 2.0896  32991  181.865
 2.1316  32225.9  178.879
 2.1736  30756.1  176.139
 2.2156  31243.7  176.105
 2.2576  30179.3  173.701
 2.2996  28929.9  170.69
 2.3416  29302  170.411
 2.3836  28648.9  168.607
 2.4256  27880.9  166.874
 2.4676  27477.7  165.428
 2.5096  27010.8  164.07
 2.5516  27773.6  170.204
 2.5936  38114.1  195.359
 2.6356  26754.2  164.365
 2.6776  26184.7  161.506
 2.7196  25617.9  160.259
 2.7616  25263.8  158.928
 2.8036  25071.6  158.491
 2.8456  25097.4  159.181
 2.8876  24591.4  157.44
 2.9296  24208.2  156.34
 2.9716  23905.3  154.86
 3.0136  23917.8  154.965
 3.0556  23699.1  154.645
 3.0976  23682.6  153.55
 3.1396  23526.7  153.741
 3.1816  23133.6  152.383
 3.2236  23189.9  152.561
 3.2656  23235.3  151.762
 3.3076  22757  151.626
 3.3496  23393  152.669
 3.3916  23669.4  153.402
 3.4336  24071.8  155.275
 3.4756  24421.1  156.331
 3.5176  25227.9  158.68
 3.5596  25163.8  160.886
 3.6016  25431.1  159.36
 3.6436  24629  157.919
 3.6856  24116.8  154.591
 3.7276  23282  152.964
 3.7696  23168  152.773
 3.8116  22738.3  151.246
 3.8536  22819  151.448
 3.8956  22725.5  150.966
 3.9376  22504  150.481
 3.9796  22696.5  150.632
 4.0216  22608.8  149.381
 4.0636  22616.5  150.875
 4.1056  22561.1  150.328
 4.1476  22889.2  151.739
 4.1896  22882.9  151.578
 4.2316  23171.5  152.357
 4.2736  23721.9  153.942
 4.3156  23826  154.498
 4.3576  24690.1  157.213
 4.3996  24767.7  157.713
 4.4416  25419.9  159.364
 4.4836  25766.6  160.598
 4.5256  26251  162.717
 4.5676  26372.3  163.34
 4.6096  26550.6  162.561
 4.6516  27328.6  164.633
 4.6936  27530.3  166.045
 4.7356  27487.3  165.752
 4.7776  27521.9  165.68
 4.8196  27052  164.92
 4.8616  26780  163.565
 4.9036  26456.1  162.329
 4.9456  26214.7  162.225
 4.9876  25732.7  160.627
 5.0296  25919.3  161.018
 5.0716  26035.7  162.156
 5.1136  26197.1  162.37
 5.1556  26391.4  162.431
 5.1976  27629.1  166.208
 5.2396  26822.1  163.454
 5.2816  26736.2  163.653
 5.3236  27153.2  164.626
 5.3656  26497.1  163.543
 5.4076  26292.9  163.062
 5.4496  26523.1  163.252
 5.4916  26457.8  162.816
 5.5336  26569.9  163.161
 5.5756  26235.9  162.176
 5.6176  26250.9  161.656
 5.6596  26575.1  163.625
 5.7016  26737.2  163.387
 5.7436  26980.9  164.401
 5.7856  26737.9  163.716
 5.8276  27211.9  164.881
 5.8696  27565.6  166.124
 5.9116  27282.9  165.87
 5.9536  27570.5  166.503
 5.9956  27881.8  166.796
 6.0376  27873.6  167.412
 6.0796  27952.4  167.48
 6.1216  28278.4  168.651
 6.1636  28309.2  167.812
 6.2056  28349.8  168.591
 6.2476  28554.7  169.08
 6.2896  28994  170.057
 6.3316  28738.3  169.486
 6.3736  28855.9  169.719
 6.4156  29001.3  170.047
 6.4576  29193.8  170.209
 6.4996  29484.8  171.529
 6.5416  29581.1  171.955
 6.5836  29541.3  172.065
 6.6256  29552.2  171.665
 6.6676  30008.8  172.554
 6.7096  29844.9  172.942
 6.7516  30067.2  173.233
 6.7936  30561.3  174.073
 6.8356  30869  175.031
 6.8776  31049  176.335
 6.9196  30871.8  176.242
 6.9616  31572.8  177.669
 7.0036  31813  177.996
 7.0456  32012.2  177.844
 7.0876  31729.2  178.749
 7.1296  31625.1  177.595
 7.1716  31728.1  177.423
 7.2136  31524.6  176.632
 7.2556  31564  176.903
 7.2976  31740.4  177.895
 7.3396  31776.4  178.203
 7.3816  31675.5  178.142
 7.4236  31869.4  177.976
 7.4656  32240  178.49
 7.5076  32323.6  178.857
 7.5496  32284  179.278
 7.5916  32221.5  179.141
 7.6336  32631.9  180.177
 7.6756  32602  179.948
 7.7176  33177.8  181.847
 7.7596  33171.9  183.07
 7.8016  33731.8  186.82
 7.8436  34119.7  184.513
 7.8856  34317.2  184.652
 7.9276  34830.3  186.423
 7.9696  35159.6  187.618
 8.0116  35886.8  188.08
 8.0536  36505.8  189.949
 8.0956  36329  190.684
 8.1376  36578  190.802
 8.1796  36741.9  191.778
 8.2216  37657  192.876
 8.2636  37645.9  193.095
 8.3056  37636.2  193.844
 8.3476  38242.7  194.719
 8.3896  38117.5  194.483
 8.4316  38084.4  194.568
 8.4736  38091.6  194.051
 8.5156  38045  194.21
 8.5576  37585.2  194.02
 8.5996  37949.8  193.811
 8.6416  37608.3  194.207
 8.6836  37494.2  193.737
 8.7256  38399.1  195.505
 8.7676  37688.4  196.631
 8.8096  37494.9  193.415
 8.8516  37207.5  192.287
 8.8936  36860.8  191.286
 8.9356  36610  190.984
 8.9776  36723.3  191.364
 9.0196  36605.6  190.743
 9.0616  36830.8  190.78
 9.1036  36606.9  191.398
 9.1456  36643.6  190.834
 9.1876  36428.2  190.235
 9.2296  36636.4  190.163
 9.2716  35826.2  188.124
 9.3136  35712.5  187.819
 9.3556  36259.3  189.229
 9.3976  34678.3  185.592
 9.4396  35234.8  186.961
 9.4816  34630.3  185.222
 9.5236  34927.2  185.913
 9.5656  34475.5  185.033
 9.6076  34252.7  184.957
 9.6496  34200.7  184.747
 9.6916  34178.1  184.649
 9.7336  34134.2  184.317
 9.7756  34241.5  185.86
 9.8176  33168.1  182.446
 9.8596  33414.9  181.563
 9.9016  33120.5  180.755
 9.9436  32731.1  179.603
 9.9856  32388.6  178.89
 10.0276  31840.5  178.469
 10.0696  32536.7  179.445
 10.1116  31251.3  176.127
 10.1536  31343.4  176.552
 10.1956  30957.6  175.057
 10.2376  30496.5  173.264
 10.2796  30791.3  174.219
 10.3216  30260.1  172.983
 10.3636  30057.4  172.43
 10.4056  30252.6  173.384
 10.4476  30298.7  173.143
 10.4896  30948  174.431
 10.5316  29780.3  171.821
 10.5736  29193.4  170.537
 10.6156  28948.5  169.591
 10.6576  29620.4  170.08
 10.6996  28986.4  168.931
 10.7416  28346.3  167.287
 10.7836  28522.9  168.485
 10.8256  28016.3  167.416
 10.8676  28150.5  167.35
 10.9096  27826.5  166.426
 10.9516  27728.6  165.053
 10.9936  27753.5  165.328
 11.0356  27618.1  165.566
 11.0776  27436.7  164.327
 11.1196  26989.3  163.74
 11.1616  26613.5  162.276
 11.2036  26960.2  163.186
 11.2456  26867.9  163.614
 11.2876  26745.2  162.979
 11.3296  26266.5  161.403
 11.3716  26879.1  162.961
 11.4136  27055.4  164.409
 11.4556  27708.5  166.033
 11.4976  27959.1  165.735
 11.5396  27409.3  164.266
 11.5816  26784  162.843
 11.6236  26379.6  161.826
 11.6656  26044.2  159.96
 11.7076  25753.2  159.897
 11.7496  25440.6  162.853
 11.7916  25368.9  157.963
 11.8336  25211.8  158.352
 11.8756  24929.1  157.004
 11.9176  25113.1  157.235
 11.9596  24871.4  156.671
 12.0016  24872.7  157.465
 12.0436  24781.9  156.601
 12.0856  24428.6  156.007
 12.1276  24656.7  156.646
 12.1696  24619.3  155.659
 12.2116  24737.6  156.026
 12.2536  24547.5  156.266
 12.2956  24348.7  154.96
 12.3376  24277.7  154.951
 12.3796  24468.4  156.019
 12.4216  24385.5  154.968
 12.4636  24199.9  155.298
 12.5056  24277.7  154.811
 12.5476  24305.8  154.431
 12.5896  24273.5  154.957
 12.6316  23942.4  154.066
 12.6736  24068.4  154.951
 12.7156  23852.4  154.127
 12.7576  24145.5  155.309
 12.7996  24236.3  154.238
 12.8416  24156.9  155.039
 12.8836  24531.4  156.059
 12.9256  24779.8  155.859
 12.9676  24854.7  156.518
 13.0096  24488.3  156.473
 13.0516  24894.3  156.789
 13.0936  24772.4  156.816
 13.1356  25131.7  156.913
 13.1776  24715.9  156.599
 13.2196  24776.4  156.446
 13.2616  24701.4  156.518
 13.3036  24707.3  156.51
 13.3456  24787.9  157.117
 13.3876  24603.4  155.837
 13.4296  24635.9  156.085
 13.4716  24651.4  155.745
 13.5136  24833.2  156.473
 13.5556  24668.1  156.556
 13.5976  24780  157.054
 13.6396  25007.7  157.144
 13.6816  24438.5  155.843
 13.7236  25257.2  158.063
 13.7656  24479.9  156.162
 13.8076  24800.5  155.953
 13.8496  24402.5  155.303
 13.8916  24516.5  156.658
 13.9336  24475.3  155.758
 13.9756  24267.8  154.449
 14.0176  24151.8  154.752
 14.0596  24145.6  154.707
 14.1016  23743.8  153.804
 14.1436  23499.9  152.155
 14.1856  23414.7  152.164
 14.2276  23175  151.877
 14.2696  23563.5  152.979
 14.3116  23213.7  151.734
 14.3536  22753.7  150.404
 14.3956  22767  150.175
 14.4376  23033.7  150.834
 14.4796  22887.3  150.346
 14.5216  22596.8  150.192
 14.5636  22391.5  149.065
 14.6056  22508.9  149.034
 14.6476  22460.9  148.102
 14.6896  21917.7  146.839
 14.7316  21560.7  146.672
 14.7736  21513.2  145.651
 14.8156  21372.7  145.211
 14.8576  21274.1  144.726
 14.8996  20924.4  144.742
 14.9416  20628.2  143.714
 14.9836  20726.1  143.994
 15.0256  20244.1  141.242
 15.0676  20413.9  142.152
 15.1096  20221.1  141.217
 15.1516  20136  141.481
 15.1936  20102  140.784
 15.2356  19538.4  139.074
 15.2776  19752.7  139.42
 15.3196  19173  138.359
 15.3616  19247.2  138.378
 15.4036  19063.6  137.576
 15.4456  19340.7  138.223
 15.4876  18991.6  136.648
 15.5296  18785.3  136.186
 15.5716  18556.4  134.958
 15.6136  18758.1  136.021
 15.6556  18747.6  135.213
 15.6976  18444.1  134.414
 15.7396  18367.5  134.523
 15.7816  18187.8  133.369
 15.8236  18041.8  133.535
 15.8656  17930.3  132.917
 15.9076  17759.8  132.107
 15.9496  17854  135.28
 15.9916  17730.6  135.244
 16.0336  17409.7  130.922
 16.0756  17416.5  131.25
 16.1176  17467.1  131.507
 16.1596  16884.7  130.471
 16.2016  17224.6  130.506
 16.2436  16927.5  129.777
 16.2856  16829.5  128.941
 16.3276  16735.7  129.002
 16.3696  16881.8  129.384
 16.4116  16748.7  129.333
 16.4536  16802.4  129.319
 16.4956  16692.4  128.641
 16.5376  16793.2  129.213
 16.5796  16638.9  127.976
 16.6216  16832.2  129.025
 16.6636  16556.3  128.11
 16.7056  16529.3  127.876
 16.7476  16619.1  127.75
 16.7896  16526.3  128.148
 16.8316  16630.4  128.518
 16.8736  16573.4  128.56
 16.9156  16578.8  128.913
 16.9576  16303.3  128.643
 16.9996  16461  129.745
 17.0416  16459.4  128.094
 17.0836  16356.1  127.453
 17.1256  16059.1  126.301
 17.1676  16161.6  126.696
 17.2096  16038.7  126.089
 17.2516  15977.2  125.632
 17.2936  15954.3  125.871
 17.3356  15601.8  124.473
 17.3776  15469.6  124.135
 17.4196  15653.6  124.561
 17.4616  15568.6  124.14
 17.5036  15378  123.741
 17.5456  15199.3  123.666
 17.5876  15154.2  122.531
 17.6296  15301.2  122.941
 17.6716  15265.8  123.365
 17.7136  14985.4  122.383
 17.7556  15058.1  122.966
 17.7976  15125.2  122.981
 17.8396  14834.9  121.295
 17.8816  14955.1  122.325
 17.9236  14859.9  121.751
 17.9656  15004.9  122.874
 18.0076  14981.7  122.359
 18.0496  15086.7  121.91
 18.0916  15619.8  124.6
 18.1336  15230.4  123.133
 18.1756  15102  122.136
 18.2176  15034.1  122.097
 18.2596  14855  121.099
 18.3016  15098.8  122.348
 18.3436  15039.8  122.115
 18.3856  14755.2  121.091
 18.4276  14897  121.336
 18.4696  14739.5  120.797
 18.5116  14762.1  121.177
 18.5536  14810.9  121.734
 18.5956  14507.9  120.035
 18.6376  14575  120.723
 18.6796  14506  119.754
 18.7216  14659.1  120.875
 18.7636  14384.1  119.734
 18.8056  14130.1  118.609
 18.8476  14324.3  120.047
 18.8896  14369.4  119.569
 18.9316  14435.7  119.827
 18.9736  14323  119.054
 19.0156  14308.2  119.403
 19.0576  14144.1  117.587
 19.0996  14478.1  119.68
 19.1416  14111.7  118.551
 19.1836  14113.4  118.157
 19.2256  14119.6  118.387
 19.2676  14146.7  118.598
 19.3096  14218.6  119.143
 19.3516  14158.2  118.857
 19.3936  14092.2  118.478
 19.4356  14127.9  118.494
 19.4776  14044.9  118.247
 19.5196  14207.3  118.778
 19.5616  14147.9  118.79
 19.6036  14272.2  118.794
 19.6456  14156.4  118.442
 19.6876  14289.8  118.634
 19.7296  14196.9  118.714
 19.7716  14129.6  118.591
 19.8136  14378.5  119.851
 19.8556  14729.3  120.764
 19.8976  14805  121.141
 19.9396  14785.7  120.623
 19.9816  15000.2  121.745
 20.0236  14803.3  121.168
 20.0656  14471.6  119.794
 20.1076  14051.4  118.51
 20.1496  14034.5  118.442
 20.1916  13909.1  117.434
 20.2336  13967  117.606
 20.2756  13830.9  117.46
 20.3176  13592.1  116.193
 20.3596  13766.3  116.907
 20.4016  13744.8  116.618
 20.4436  13707.8  117.016
 20.4856  13510.4  115.977
 20.5276  13487.7  116.329
 20.5696  13409.4  115.456
 20.6116  13388.4  115.633
 20.6536  13525.7  115.739
 20.6956  13451.7  115.545
 20.7376  13447.4  115.753
 20.7796  13369.2  115.107
 20.8216  13461.1  115.204
 20.8636  13283.6  114.821
 20.9056  13499  115.689
 20.9476  13262.3  114.516
 20.9896  13512.9  115.457
 21.0316  13452.9  115.086
 21.0736  13358.7  115.214
 21.1156  13301.5  115.121
 21.1576  13381  115.521
 21.1996  13043.7  114.034
 21.2416  13207.1  114.584
 21.2836  13242.7  114.697
 21.3256  13039.4  113.899
 21.3676  13273  114.455
 21.4096  13103.4  114.032
 21.4516  13071.3  113.774
 21.4936  12805.8  112.854
 21.5356  13162.4  114.365
 21.5776  13116.3  114.004
 21.6196  13001.7  113.537
 21.6616  13093.5  114.019
 21.7036  13022.2  113.495
 21.7456  13051.6  113.692
 21.7876  12843.2  112.53
 21.8296  12919  112.723
 21.8716  12784.6  112.368
 21.9136  12899.7  113.07
 21.9556  12812.1  112.359
 21.9976  12766.9  112.172
 22.0396  12739.7  112.306
 22.0816  12841  113.297
 22.1236  12987.8  113.394
 22.1656  12925  113.245
 22.2076  12987.4  112.978
 22.2496  12889  112.577
 22.2916  12886.8  112.445
 22.3336  12741.3  112.539
 22.3756  12739.7  112.251
 22.4176  12672.6  111.811
 22.4596  12512.1  111.684
 22.5016  12843.2  112.646
 22.5436  12901.1  112.774
 22.5856  12805  112.6
 22.6276  12774.3  112.611
 22.6696  12772.2  112.954
 22.7116  12629  111.833
 22.7536  12934.9  113.15
 22.7956  12893.3  112.297
 22.8376  12544.6  111.284
 22.8796  12843.7  112.4
 22.9216  12914  113.261
 22.9636  12892.6  112.311
 23.0056  12857.1  112.287
 23.0476  13019.6  113.577
 23.0896  13086  113.236
 23.1316  12860.1  112.697
 23.1736  12661.3  114.781
 23.2156  12810.6  112.81
 23.2576  12654.8  112.27
 23.2996  12665.7  112.093
 23.3416  12568.7  112.191
 23.3836  12841.4  112.625
 23.4256  12722.8  112.214
 23.4676  12751.4  112.032
 23.5096  12874.4  113.262
 23.5516  12565.3  111.177
 23.5936  12843.3  113.315
 23.6356  12954  113.462
 23.6776  12713.8  112.62
 23.7196  12610.7  111.734
 23.7616  12720.9  112.133
 23.8036  12506.3  111.245
 23.8456  12617  111.284
 23.8876  12378.6  110.597
 23.9296  12396.1  111.157
 23.9716  12537.1  110.972
 24.0136  12542.4  111.895
 24.0556  12380.6  110.911
 24.0976  12212  109.962
 24.1396  12218.6  112.639
 24.1816  12363.8  111.728
 24.2236  12123.1  110.246
 24.2656  11956.4  108.962
 24.3076  12147.5  110.08
 24.3496  12132.7  109.901
 24.3916  12085.1  109.736
 24.4336  11997  109.547
 24.4756  11905.5  108.985
 24.5176  11765.9  108.007
 24.5596  11678.6  107.731
 24.6016  11804.5  108.598
 24.6436  11812.4  108.119
 24.6856  11881.6  108.2
 24.7276  11751  107.915
 24.7696  11807.4  108.293
 24.8116  11688.7  107.928
 24.8536  11517.2  107.127
 24.8956  11567.5  107.096
 24.9376  11526.9  106.849
 24.9796  11413.9  106.68
 25.0216  11175.6  105.676
 25.0636  11348.2  106.134
 25.1056  11084.4  105.594
 25.1476  11450.5  108.996
 25.1896  11407.8  107.256
 25.2316  11488.5  106.893
 25.2736  11227.2  105.33
 25.3156  11434.6  106.379
 25.3576  11321.7  106.278
 25.3996  11261.7  105.972
 25.4416  11331.3  106.285
 25.4836  11072.7  105.587
 25.5256  11231.5  105.703
 25.5676  11122.9  104.921
 25.6096  11086.9  105.326
 25.6516  11186.6  105.29
 25.6936  11093.1  105.167
 25.7356  11057.1  105.135
 25.7776  11177.8  105.308
 25.8196  11021.5  104.806
 25.8616  11175  105.449
 25.9036  11201.7  105.044
 25.9456  11152.6  105.412
 25.9876  10963.1  104.579
 26.0296  11206  105.238
 26.0716  11011.6  104.747
 26.1136  11111  105.156
 26.1556  11288.8  105.36
 26.1976  10999.2  104.939
 26.2396  10952.5  103.868
 26.2816  11074.7  105.059
 26.3236  10924.3  104.502
 26.3656  10905.3  104.141
 26.4076  11018.8  104.884
 26.4496  11447.2  106.403
 26.4916  11112.5  104.825
 26.5336  10951.4  104.388
 26.5756  11032.5  104.65
 26.6176  10847.2  103.797
 26.6596  10780.4  103.79
 26.7016  10779.5  103.543
 26.7436  10708.9  103.338
 26.7856  10533  102.466
 26.8276  10679  103.132
 26.8696  10691.4  103.06
 26.9116  10641.2  102.758
 26.9536  10687.3  103.029
 26.9956  10628.1  102.774
 27.0376  10480.8  102.283
 27.0796  10662.7  102.893
 27.1216  10575.1  102.545
 27.1636  10568.8  102.681
 27.2056  10516.9  102.307
 27.2476  10528.4  102.363
 27.2896  10535.1  102.507
 27.3316  10581.9  102.449
 27.3736  10443.5  102.041
 27.4156  10352.2  101.438
 27.4576  10456.3  102.179
 27.4996  10426.6  101.633
 27.5416  10397.9  101.807
 27.5836  10412.3  101.694
 27.6256  10815.6  103.808
 27.6676  10644  102.999
 27.7096  10416.9  101.772
 27.7516  10371.5  101.689
 27.7936  10324.6  101.642
 27.8356  10321.6  101.239
 27.8776  10270  101.038
 27.9196  10349.4  101.271
 27.9616  10302.2  101.232
 28.0036  10235.2  100.874
 28.0456  10324.2  101.443
 28.0876  10103.2  100.438
 28.1296  10133  100.431
 28.1716  10176.8  100.663
 28.2136  10297  101.214
 28.2556  10074  100.235
 28.2976  10122.6  100.462
 28.3396  10159  100.398
 28.3816  9972.92  99.4962
 28.4236  10096.8  100.267
 28.4656  10052.4  100.08
 28.5076  10065.8  99.7845
 28.5496  9988.52  99.6641
 28.5916  10054.1  99.799
 28.6336  9787.39  98.8098
 28.6756  10037  99.2514
 28.7176  9961.5  99.4258
 28.7596  9870.81  98.8733
 28.8016  9970.58  99.4049
 28.8436  9860.47  99.0979
 28.8856  10003.9  99.6642
 28.9276  9933.9  99.5647
 28.9696  9851.61  98.8019
 29.0116  9966.01  99.5584
 29.0536  9734.74  98.6055
 29.0956  9850.35  98.9015
 29.1376  9724.45  98.2326
 29.1796  9726.35  98.293
 29.2216  9671.39  97.8509
 29.2636  9702.33  98.0885
 29.3056  9792.93  98.3322
 29.3476  9843.17  99.1106
 29.3896  10013.5  100.053
 29.4316  9886.81  98.7518
 29.4736  9779.38  98.2749
 29.5156  9785.61  98.207
 29.5576  9746.09  98.7766
 29.5996  9826.95  98.4351
 29.6416  9673.26  97.7788
 29.6836  9822.58  98.4566
 29.7256  9673.2  98.2755
 29.7676  9718.9  98.1627
 29.8096  9671.52  97.8674
 29.8516  9662.02  98.1496
 29.8936  9806.57  98.9802
 29.9356  9782.17  98.6074
 29.9776  9619.98  97.9405
 30.0196  9664.76  97.5548
 30.0616  9612.56  97.6677
 30.1036  9749.61  98.1825
 30.1456  9600.47  97.6638
 30.1876  9513.47  97.202
 30.2296  9613.16  97.6505
 30.2716  9576.58  97.1063
 30.3136  9644.72  98.315
 30.3556  9704.92  98.6411
 30.3976  9519.54  99.2356
 30.4396  9554.26  96.7423
 30.4816  9654.5  96.8396
 30.5236  9519.38  96.1831
 30.5656  9469.45  96.5756
 30.6076  9583.59  96.5892
 30.6496  9551.53  96.8071
 30.6916  9533.19  96.8028
 30.7336  9546.76  97.0302
 30.7756  9447.45  96.6142
 30.8176  9566.16  97.1339
 30.8596  9456.18  96.3431
 30.9016  9441.9  96.6117
 30.9436  9479.63  96.5613
 30.9856  9517.95  96.8637
 31.0276  9406.75  95.9023
 31.0696  9394.73  96.4145
 31.1116  9357.96  96.2071
 31.1536  9424.18  96.4201
 31.1956  9238.41  95.5609
 31.2376  9202.47  95.3786
 31.2796  9334.06  95.5996
 31.3216  9394.67  95.853
 31.3636  9324.09  96.1869
 31.4056  9430.57  98.076
 31.4476  9245.17  94.9918
 31.4896  9205.44  95.2805
 31.5316  9392.36  95.6397
 31.5736  9504.64  96.0341
 31.6156  9392.59  95.4833
 31.6576  9471.73  95.9897
 31.6996  9378.98  95.1901
 31.7416  9279.81  95.7437
 31.7836  9318.94  94.9573
 31.8256  9140.03  94.3133
 31.8676  9420.05  95.7416
 31.9096  9182.02  94.8758
 31.9516  9173.4  94.998
 31.9936  9167.9  94.7878
 32.0356  9154.5  94.792
 32.0776  9160.08  94.704
 32.1196  9224.21  95.1148
 32.1616  9199.74  94.4581
 32.2036  9106.92  94.4926
 32.2456  9061.83  94.6353
 32.2876  9137.23  94.5238
 32.3296  9149.86  94.5535
 32.3716  9092.87  94.3559
 32.4136  9215.18  95.1992
 32.4556  9256.99  94.7902
 32.4976  9218.35  94.4865
 32.5396  9068.1  93.8017
 32.5816  8954.75  93.3341
 32.6236  9107.62  94.1927
 32.6656  9256.44  95.5074
 32.7076  8906.64  93.3436
 32.7496  9113.25  94.0848
 32.7916  9151.7  94.243
 32.8336  9120.64  94.177
 32.8756  9116.84  93.8737
 32.9176  8977.6  93.6392
 32.9596  8900.36  93.3134
 33.0016  9070.5  93.9973
 33.0436  9141.23  94.531
 33.0856  9013.16  93.9394
 33.1276  8926.3  93.2189
 33.1696  8983.77  93.368
 33.2116  8992.53  93.6342
 33.2536  9099.33  94.1927
 33.2956  9000.66  93.7622
 33.3376  8903.97  92.9964
 33.3796  9019.43  93.8047
 33.4216  9003.39  93.3181
 33.4636  9057.58  93.7412
 33.5056  8825.62  92.7788
 33.5476  8864.79  92.9787
 33.5896  9030.67  93.6084
 33.6316  8800.36  92.7337
 33.6736  8702.62  92.4405
 33.7156  8767.05  92.8352
 33.7576  8877.62  93.036
 33.7996  8968.12  93.2794
 33.8416  8698.75  92.0529
 33.8836  8792.67  92.3292
 33.9256  8835.71  92.6199
 33.9676  8955.94  93.1329
 34.0096  8567.87  91.4205
 34.0516  8785.84  92.2061
 34.0936  8744.71  92.2521
 34.1356  8827.96  92.4299
 34.1776  8796.1  92.2754
 34.2196  8708.99  92.0009
 34.2616  8705.2  92.1111
 34.3036  8588.25  91.7448
 34.3456  8794.72  92.5893
 34.3876  8698.57  92.0494
 34.4296  8584.49  91.122
 34.4716  8755.62  92.1787
 34.5136  8705.96  92.1295
 34.5556  8708.57  92.3917
 34.5976  8723.37  92.2751
 34.6396  8697.51  91.8548
 34.6816  8558.75  91.2291
 34.7236  8717.07  91.8534
 34.7656  8669.2  91.7968
 34.8076  8637.54  91.9506
 34.8496  8620  91.7105
 34.8916  8634.89  91.6706
 34.9336  8833.02  92.6777
 34.9756  8642.43  91.5895
 35.0176  8665.44  92.2486
 35.0596  8588.41  91.6578
 35.1016  8581.41  91.3914
 35.1436  8699.87  91.7021
 35.1856  8486.79  90.7007
 35.2276  8558.39  91.2523
 35.2696  8536.1  91.3258
 35.3116  8508.6  91.2714
 35.3536  8383.99  90.3193
 35.3956  8542.45  90.8706
 35.4376  8603.66  91.7522
 35.4796  8436.15  90.9208
 35.5216  8583.78  91.6666
 35.5636  8331.16  91.0525
 35.6056  8550.89  91.2542
 35.6476  8561.48  91.2069
 35.6896  8723.92  92.158
 35.7316  8357.33  90.1728
 35.7736  8456.13  90.9076
 35.8156  8419.71  90.7135
 35.8576  8522.93  91.5179
 35.8996  8628.74  92.0409
 35.9416  8888.91  92.8322
 35.9836  8421.18  90.7849
 36.0256  8599  91.7573
 36.0676  8537.62  91.1917
 36.1096  8373.28  90.4453
 36.1516  8548.29  91.2757
 36.1936  8403.95  90.3502
 36.2356  8456.03  91.2722
 36.2776  8497.29  90.97
 36.3196  8432.73  90.2948
 36.3616  8462.67  90.5857
 36.4036  8420.9  90.4228
 36.4456  8409.47  90.5709
 36.4876  8346.47  90.1689
 36.5296  8355.4  90.256
 36.5716  8407.41  91.3261
 36.6136  8433.21  90.2228
 36.6556  8445.3  90.4853
 36.6976  8396.94  90.73
 36.7396  8283.53  89.8498
 36.7816  8371.88  90.7015
 36.8236  8371.32  90.6193
 36.8656  8339.22  90.5233
 36.9076  8332.57  90.3621
 36.9496  8325.62  90.3076
 36.9916  8317.22  89.8928
 37.0336  8407.1  90.693
 37.0756  8424.75  90.5796
 37.1176  8124.76  89.2165
 37.1596  8285.36  90.1046
 37.2016  8303.05  90.4276
 37.2436  8232.67  89.3602
 37.2856  8217.96  89.5316
 37.3276  8151.77  88.5191
 37.3696  8208.43  89.7205
 37.4116  8313.12  90.1943
 37.4536  8254.7  89.745
 37.4956  8154.21  89.2389
 37.5376  8271.6  91.4289
 37.5796  8051.91  90.1844
 37.6216  8003.77  88.2019
 37.6636  8060.65  88.4161
 37.7056  8162.54  89.1641
 37.7476  8135.15  88.5517
 37.7896  8092.04  88.801
 37.8316  7992.12  88.4416
 37.8736  8255.47  89.394
 37.9156  8180.01  88.9905
 37.9576  8246.61  89.2443
 37.9996  8055.04  87.9112
 38.0416  8105.21  89.0055
 38.0836  8242.61  89.657
 38.1256  8162.04  89.1541
 38.1676  7953.74  88.1702
 38.2096  8017.46  88.1509
 38.2516  8105.16  88.8279
 38.2936  8081.84  88.5061
 38.3356  8159.93  88.8363
 38.3776  8032.02  88.4201
 38.4196  8076.9  88.5122
 38.4616  7990.34  88.2781
 38.5036  8188.61  89.2084
 38.5456  8141.82  89.8002
 38.5876  8118.92  89.7015
 38.6296  8074.62  88.4304
 38.6716  8022.33  87.9354
 38.7136  7866.21  87.021
 38.7556  8042.99  88.5004
 38.7976  7981.21  88.1008
 38.8396  7808.79  87.592
 38.8816  7720.8  86.8838
 38.9236  7798.19  87.1277
 38.9656  7929.65  87.7716
 39.0076  8014.31  87.6415
 39.0496  7968.15  87.936
 39.0916  7942.66  87.4286
 39.1336  7964.29  87.9719
 39.1756  7792.94  87.0869
 39.2176  7938.14  88.4234
 39.2596  7752.47  87.3087
 39.3016  7964.04  88.051
 39.3436  7949.27  88.4078
 39.3856  8040.01  88.3547
 39.4276  7947.99  88.3496
 39.4696  7966.11  88.0703
 39.5116  7997.97  88.7631
 39.5536  8084.36  89.6637
 39.5956  7998.94  88.2808
 39.6376  8021.14  88.4075
 39.6796  8027.45  88.1876
 39.7216  7955.72  87.8855
 39.7636  7908.7  88.1984
 39.8056  8045.47  88.7335
 39.8476  7990.87  88.6864
 39.8896  7950.58  88.1009
 39.9316  7974.63  88.4808
 39.9736  8076.52  88.6055
 40.0156  7997.92  88.0005
 40.0576  7979.09  88.2568
 40.0996  8139.14  88.3099
 40.1416  7981.73  88.249
 40.1836  8045.17  88.4857
 40.2256  8016.38  88.3761
 40.2676  7873.72  87.6925
 40.3096  8051.31  88.5855
 40.3516  8091.11  88.9223
 40.3936  8121.05  88.6501
 40.4356  8002.67  88.1931
 40.4776  8031.89  88.7656
 40.5196  8071.49  89.1153
 40.5616  8076.87  88.7848
 40.6036  7994.15  88.5852
 40.6456  8036.3  88.4207
 40.6876  8111.05  88.8236
 40.7296  8001.27  88.3525
 40.7716  7991.41  88.4341
 40.8136  8039.03  88.6359
 40.8556  7930.09  88.1721
 40.8976  7986.71  88.3975
 40.9396  7940.04  88.4955
 40.9816  8049.5  88.3771
 41.0236  8073.81  88.289
 41.0656  8121.27  89.0978
 41.1076  8022.31  88.3201
 41.1496  8054.14  88.4094
 41.1916  8008.19  88.4801
 41.2336  7920.05  87.9809
 41.2756  7987.2  87.9568
 41.3176  8041.19  88.8767
 41.3596  8080.31  88.816
 41.4016  7967.01  88.4531
 41.4436  8064.19  88.7758
 41.4856  8061.41  88.9194
 41.5276  8011.95  88.6696
 41.5696  7968  88.056
 41.6116  7972.74  88.4825
 41.6536  8011.11  88.5496
 41.6956  8014.42  88.6226
 41.7376  7945.17  88.2665
 41.7796  7979.65  88.3389
 41.8216  8077.05  89.1154
 41.8636  7931.22  88.2441
 41.9056  7887.19  87.7885
 41.9476  8020.35  88.764
 41.9896  8018.85  88.4213
 42.0316  7962.27  88.1933
 42.0736  7929.51  88.1254
 42.1156  7949.12  88.0658
 42.1576  7921.94  88.0097
 42.1996  7975.48  88.4572
 42.2416  7969.38  87.9972
 42.2836  7957.16  88.0466
 42.3256  7815.26  87.3739
 42.3676  7987.73  88.1369
 42.4096  7826.2  87.1946
 42.4516  7912.55  87.7756
 42.4936  7852.35  87.5022
 42.5356  7833.74  87.5272
 42.5776  7924.12  87.9751
 42.6196  7976.33  88.3177
 42.6616  7727.51  87.1001
 42.7036  7881.12  87.3452
 42.7456  7963.25  88.1576
 42.7876  7823.07  87.4786
 42.8296  7897.79  87.7263
 42.8716  7771.64  87.1821
 42.9136  7832.78  87.3136
 42.9556  7894.7  87.7929
 42.9976  7849.68  87.5027
 43.0396  7861.3  87.3001
 43.0816  7878.36  87.7666
 43.1236  7773.01  87.2459
 43.1656  7861.71  87.569
 43.2076  7825.74  87.4757
 43.2496  7793.57  87.1032
 43.2916  7711.56  87.0135
 43.3336  7829.61  87.5133
 43.3756  7798.83  87.0965
 43.4176  7622.07  86.1852
 43.4596  7715.84  86.5696
 43.5016  7881.97  87.9052
 43.5436  7698.53  86.779
 43.5856  7703.2  86.8241
 43.6276  7787.63  87.1954
 43.6696  7697.64  86.9477
 43.7116  7735.5  86.6612
 43.7536  7793.75  87.4839
 43.7956  7604.7  87.5832
 43.8376  7704.06  86.7032
 43.8796  7606.76  86.2278
 43.9216  7682.75  86.5765
 43.9636  7624.09  86.3523
 44.0056  7646.44  86.7071
 44.0476  7632.3  86.2596
 44.0896  7554.22  86.1624
 44.1316  7801.82  87.0803
 44.1736  7610.3  86.1243
 44.2156  7740.11  86.717
 44.2576  7607.93  86.2898
 44.2996  7718.37  86.8903
 44.3416  7625.99  86.1271
 44.3836  7499.7  85.7375
 44.4256  7483.27  85.2884
 44.4676  7571.9  85.9515
 44.5096  7546.75  85.9525
 44.5516  7546.75  85.9103
 44.5936  7496.11  85.5798
 44.6356  7712.22  86.5411
 44.6776  7601.22  86.2354
 44.7196  7576.81  86.4046
 44.7616  7601.35  87.8854
 44.8036  7550.13  86.0099
 44.8456  7563.8  86.2971
 44.8876  7514.59  85.8636
 44.9296  7603.83  85.8253
 44.9716  7462.47  85.4542
 45.0136  7612.97  86.2423
 45.0556  7569.02  85.971
 45.0976  7425.74  85.3175
 45.1396  7308.61  84.4007
 45.1816  7456.93  85.1784
 45.2236  7528.9  85.4935
 45.2656  7419.95  85.3691
 45.3076  7353.19  84.7664
 45.3496  7416.52  85.4388
 45.3916  7310.09  85.0921
 45.4336  7503.13  86.0557
 45.4756  7434.2  85.516
 45.5176  7386.23  84.859
 45.5596  7515.45  85.7095
 45.6016  7318.92  85.0006
 45.6436  7411.78  84.7153
 45.6856  7375.2  85.1702
 45.7276  7281.46  85.9335
 45.7696  7388.32  86.224
 45.8116  7443.35  85.9792
 45.8536  7289.42  84.989
 45.8956  7407.47  85.0268
 45.9376  7293.9  83.8459
 45.9796  7361.27  84.9114
 46.0216  7262.92  84.6828
 46.0636  7509.87  85.253
 46.1056  7306.53  84.0745
 46.1476  7394.27  85.1713
 46.1896  7387.49  85.2833
 46.2316  7400.82  85.2193
 46.2736  7234.03  84.6228
 46.3156  7337.17  84.8154
 46.3576  7390.4  85.3234
 46.3996  7370.43  85.3691
 46.4416  7337.43  84.7554
 46.4836  7347.07  85.1689
 46.5256  7350.07  85.1219
 46.5676  7227.34  84.5226
 46.6096  7258.68  84.6398
 46.6516  7319.4  84.0361
 46.6936  7363.65  84.7859
 46.7356  7403.13  85.1192
 46.7776  7174.15  84.62
 46.8196  7205.35  84.4053
 46.8616  7109.11  83.7744
 46.9036  7110.54  83.4491
 46.9456  7122.91  83.1635
 46.9876  7253.22  84.0125
 47.0296  7129.4  83.9652
 47.0716  7149.01  83.9099
 47.1136  7234.69  84.0928
 47.1556  7174.21  83.6095
 47.1976  7255.62  84.1648
 47.2396  7166.77  84.0404
 47.2816  7086.46  83.2692
 47.3236  7154.97  84.0442
 47.3656  7293.78  84.7817
 47.4076  7092.29  83.4026
 47.4496  7030.8  83.1392
 47.4916  7100.59  83.7359
 47.5336  7255.21  84.4539
 47.5756  7253.13  84.5631
 47.6176  7106.51  83.6101
 47.6596  7116.49  83.374
 47.7016  7279.73  84.1459
 47.7436  7181.81  83.9151
 47.7856  7218.28  84.161
 47.8276  7066.1  83.31
 47.8696  7038.47  83.2353
 47.9116  7262.5  84.2614
 47.9536  7084.75  83.161
 47.9956  7006.27  83.4011
 48.0376  7018.73  83.252
 48.0796  7026.62  83.4225
 48.1216  7160.26  84.0338
 48.1636  7261.72  84.2065
 48.2056  7209.6  84.1643
 48.2476  7235.69  84.6284
 48.2896  7086.82  83.6639
 48.3316  7056.53  83.4193
 48.3736  7067.75  83.5032
 48.4156  6937.25  82.5896
 48.4576  6973.29  83.0953
 48.4996  7072.31  83.1414
 48.5416  7148.38  83.9203
 48.5836  7035.34  82.9291
 48.6256  7109.43  83.5788
 48.6676  6982.57  83.3217
 48.7096  7076.2  83.1538
 48.7516  6938.69  82.4915
 48.7936  6883.51  82.2221
 48.8356  7003.55  82.99
 48.8776  7065.29  83.9197
 48.9196  7060.46  83.2715
 48.9616  7031.4  83.477
 49.0036  6982.98  83.5366
 49.0456  6916.66  83.1081
 49.0876  7017.16  83.2519
 49.1296  6889.6  82.6552
 49.1716  6884.61  82.4967
 49.2136  6951.64  82.8177
 49.2556  7011.98  83.2167
 49.2976  6915.78  82.7124
 49.3396  6963.98  83.0573
 49.3816  7031.51  82.8919
 49.4236  6892.8  82.49
 49.4656  6887.96  82.4712
 49.5076  6980.74  82.781
 49.5496  6872.56  82.199
 49.5916  6940.91  82.5207
 49.6336  6938.6  82.7146
 49.6756  6990.85  83.2562
 49.7176  6905.62  82.6874
 49.7596  6903.88  82.4443
 49.8016  6934.22  82.5513
 49.8436  6807.18  82.0792
 49.8856  6835.77  82.2598
 49.9276  6796.51  82.1189
 49.9696  6885.86  82.6423
 50.0116  6958.68  83.2016
 50.0536  6840.44  82.4457
 50.0956  6765.31  82.0633
 50.1376  6826.04  82.1325
 50.1796  6833.92  82.4424
 50.2216  6834.38  82.4363
 50.2636  6748.61  81.5489
 50.3056  6831.83  82.2239
 50.3476  6824.73  82.2012
 50.3896  6697.67  81.4044
 50.4316  6840.02  82.1029
 50.4736  6718.65  81.5873
 50.5156  6852.69  82.3897
 50.5576  6840.35  82.0739
 50.5996  6755.73  81.841
 50.6416  6621.06  80.9557
 50.6836  6816.04  82.1957
 50.7256  6777.81  81.8815
 50.7676  6825.12  82.4977
 50.8096  6759.27  81.6328
 50.8516  6714.2  81.7748
 50.8936  6676.62  81.3227
 50.9356  6810.67  82.2447
 50.9776  6724.61  81.8725
 51.0196  6593.95  81.1967
 51.0616  6609.71  80.6299
 51.1036  6746.06  81.81
 51.1456  6751.07  81.7546
 51.1876  6741.7  81.0413
 51.2296  6634.51  81.0243
 51.2716  6605.18  80.5494
 51.3136  6532  80.5533
 51.3556  6603.86  80.6228
 51.3976  6593.41  80.7105
 51.4396  6550.94  80.7523
 51.4816  6670.69  81.3317
 51.5236  6616.15  81.0867
 51.5656  6600.68  80.5951
 51.6076  6546.04  80.353
 51.6496  6655.88  81.2093
 51.6916  6530  80.7875
 51.7336  6629.34  81.4925
 51.7756  6518.86  80.5163
 51.8176  6504.27  80.5292
 51.8596  6574.54  80.979
 51.9016  6790.42  81.9043
 51.9436  6546.37  81.8516
 51.9856  6567.84  82.429
 52.0276  6693  81.7184
 52.0696  6558.76  80.9674
 52.1116  6583.82  81.23
 52.1536  6553.55  80.9358
 52.1956  6660.64  81.0545
 52.2376  6676.29  81.3269
 52.2796  6710.7  81.3368
 52.3216  6495.18  80.7083
 52.3636  6494.53  80.2904
 52.4056  6477.47  80.0323
 52.4476  6587.35  81.0855
 52.4896  6468.75  80.3996
 52.5316  6509.06  80.6989
 52.5736  6583.35  80.8817
 52.6156  6591.31  81.3008
 52.6576  6586.57  80.726
 52.6996  6452.02  80.8518
 52.7416  6642.43  81.8844
 52.7836  6458.34  80.6219
 52.8256  6588.57  80.6714
 52.8676  6358.1  79.8174
 52.9096  6610.97  81.4686
 52.9516  6425.74  80.6882
 52.9936  6361.24  80.6702
 53.0356  6358.5  79.6728
 53.0776  6308.14  79.6165
 53.1196  6465.8  80.7293
 53.1616  6351.01  80.0551
 53.2036  6186.95  78.9693
 53.2456  6367.52  80.213
 53.2876  6288.83  79.4294
 53.3296  6383.76  80.3505
 53.3716  6316.7  79.6783
 53.4136  6345.27  80.0057
 53.4556  6352.56  80.0813
 53.4976  6286.2  79.5093
 53.5396  6354.87  80.331
 53.5816  6220.08  79.1127
 53.6236  6308.75  80.0213
 53.6656  6298.12  79.5856
 53.7076  6347.93  79.8605
 53.7496  6359.98  80.056
 53.7916  6401.01  80.438
 53.8336  6291.34  79.6483
 53.8756  6204.57  79.6359
 53.9176  6405.99  80.2645
 53.9596  6382.45  80.8685
 54.0016  6278.18  79.55
 54.0436  6294.44  79.8577
 54.0856  6412.27  80.037
 54.1276  6320.61  79.6634
 54.1696  6334.11  79.9172
 54.2116  6304.08  79.4898
 54.2536  6401.06  79.9045
 54.2956  6334.38  79.5365
 54.3376  6263.36  79.5738
 54.3796  6209.29  79.1295
 54.4216  6412.86  80.4618
 54.4636  6291.11  79.656
 54.5056  6347.4  79.8297
 54.5476  6239.24  79.4775
 54.5896  6308.78  79.7525
 54.6316  6263.12  79.3212
 54.6736  6270.87  79.4479
 54.7156  6335.93  79.8755
 54.7576  6343.95  79.9276
 54.7996  6284.22  79.6808
 54.8416  6234.11  79.4204
 54.8836  6185.87  79.2247
 54.9256  6260.43  79.4441
 54.9676  6327.17  79.72
 55.0096  6343  79.8955
 55.0516  6305.23  79.8801
 55.0936  6300.57  79.4751
 55.1356  6273.24  79.3608
 55.1776  6281.53  79.6834
 55.2196  6246.89  79.2439
 55.2616  6185.52  79.0705
 55.3036  6186.8  79.2282
 55.3456  6257.17  79.8269
 55.3876  6316.7  79.9496
 55.4296  6349.01  80.1283
 55.4716  6220.27  79.3512
 55.5136  6256.43  79.3372
 55.5556  6276.7  79.5418
 55.5976  6239.17  79.3581
 55.6396  6185.09  78.9649
 55.6816  6178.67  78.799
 55.7236  6180.89  78.853
 55.7656  6286.6  79.2814
 55.8076  6229.54  78.9031
 55.8496  6152.57  78.7305
 55.8916  6169.73  79.0439
 55.9336  6148.57  78.7307
 55.9756  6258.38  79.3173
 56.0176  6142.36  78.7307
 56.0596  6168.73  78.883
 56.1016  6176.09  78.9397
 56.1436  6110.93  78.7812
 56.1856  6231.55  79.2965
 56.2276  6129.57  78.697
 56.2696  6147.55  78.7785
 56.3116  6228.93  79.7176
 56.3536  6273.93  79.6581
 56.3956  6223.47  79.328
 56.4376  6273.58  79.6804
 56.4796  6215.11  79.1027
 56.5216  6132.72  78.9436
 56.5636  6257.88  79.3418
 56.6056  6147.36  78.8742
 56.6476  6344.25  79.7488
 56.6896  6189.78  79.2163
 56.7316  6205.66  79.2201
 56.7736  6129.97  78.7421
 56.8156  6262.82  79.5852
 56.8576  6191.31  79.0683
 56.8996  6216  79.1696
 56.9416  6198.42  79.3589
 56.9836  6130.7  78.4506
 57.0256  6137.74  78.8063
 57.0676  6156.21  79.0509
 57.1096  6287.02  79.6706
 57.1516  6282.09  79.7009
 57.1936  6175.91  78.7735
 57.2356  6162.78  79.0048
 57.2776  6182.91  79.0973
 57.3196  6123.78  79.085
 57.3616  6171.21  78.8824
 57.4036  6205.64  79.1608
 57.4456  6162.51  78.854
 57.4876  6192.19  78.9017
 57.5296  6105.24  78.681
 57.5716  6055.94  78.3537
 57.6136  6141.71  78.7257
 57.6556  6207.43  79.2793
 57.6976  6148.85  78.7283
 57.7396  6110.51  78.8636
 57.7816  6040.67  78.7698
 57.8236  6027.98  78.482
 57.8656  6137.79  78.8519
 57.9076  6132.88  78.8402
 57.9496  6173.47  79.4592
 57.9916  6164.02  78.9084
 58.0336  6144.66  79.0641
 58.0756  6120.9  78.5501
 58.1176  6105.58  78.4419
 58.1596  6116.05  79.0709
 58.2016  6262.9  79.2225
 58.2436  6130.38  78.7998
 58.2856  6197.72  79.147
 58.3276  6105.32  78.9311
 58.3696  6046.82  78.303
 58.4116  6041.7  78.1337
 58.4536  6161.61  78.7878
 58.4956  6191.73  79.1674
 58.5376  6197.7  78.7726
 58.5796  6037.49  78.1687
 58.6216  6193.54  78.9909
 58.6636  6157.68  78.9711
 58.7056  6193.18  79.0502
 58.7476  6068.14  78.6971
 58.7896  6059.47  78.2876
 58.8316  6192.63  79.1391
 58.8736  6041.89  78.1796
 58.9156  6010.62  78.0203
 58.9576  6119.16  79.0355
 58.9996  6298.54  79.4196
 59.0416  6301.33  79.8128
 59.0836  6100.72  78.4576
 59.1256  6020.46  78.6337
 59.1676  6136.04  79.6946
 59.2096  6287.21  79.9636
 59.2516  6149.38  78.6596
 59.2936  6385.52  80.4929
 59.3356  6210.9  79.2607
 59.3776  6076.91  78.5706
 59.4196  6196.62  79.2764
 59.4616  6128.47  78.6977
 59.5036  6138.72  78.7992
 59.5456  6414.19  80.2318
 59.5876  6138.1  78.6787
 59.6296  6171.73  78.9639
 59.6716  6075.68  78.4051
 59.7136  6201.97  79.204
 59.7556  6225.66  79.4936
 59.7976  6077.59  78.284
 59.8396  6241.15  79.2229
 59.8816  6150.66  79.197
 59.9236  6085.4  78.4179
 59.9656  6204.61  79.4463
 60.0076  6223.23  78.9133
 60.0496  6109.73  78.6972
 60.0916  6322.78  79.4622
 60.1336  6075.29  79.0018
 60.1756  6147.8  80.6665
 60.1996  0.0000000E+00  0.0000000E+00