File: docs/examples/opeando_xrd/IS17_D/Data/IS17_D/17_Db_f00150.xye
# /beamlines/bl04/projects/cycle2025-II/20250340211-lsimonelli/DATA/IS17_D/17_Db_f00150.xye : mythproc.py merge -s 0.006 -l 0.5 -f /beamlines/bl04/inhouse/ff/FlatField/ff_20Nov2024rod8mm60s_17keV.raw -b True -c true -o xye /beamlines/bl04/projects/cycle2025-II/20250340211-lsimonelli/DATA/IS17_D/17_Db_00150.dat
# IsMon = [6744962, 6747850, 6751607]  IsPos = [-1.5000, -2.4883, -3.4989]
# Wave = 0.4962  CalPath /beamlines/bl04/projects/cycle2025-II/20250340211-lsimonelli/DATA/Align/Si_Pos1_25keV_f00001.cal
# Date = 2025-09-25_11:29:56 Dt = 4.8000  Bin = 0.0060  <imon> = 6748140 +/- 2721 (Min/Max) 6744962 / 6751607
# icurr 250.2206  mocoIn 1.7068E-05  mocoOut 0.8010  i15 7.075e+06  imon 6.74814e+06  i7 4.3333  iEMpd_timer 4.8000  iEMpd_1 3.4186E-08  iEMpd_2 7.7280E-08  iEMpd_3 1.7542E-08  iEMpd_4 4.7697E-08  iEMhp_timer 4.8000  iEMhp_1 4.8869E-06  iEMhp_2 -2.5971E-08  iEMhp_3 -2.3502E-08  iEMhp_4 -1.9418E-08
#      9776
 1.5856  44654.8  217.04
 1.6276  51545.7  229.184
 1.6696  57046.3  240.253
 1.7116  64326.5  255.622
 1.7536  72012.9  269.311
 1.7956  75641.5  276.702
 1.8376  72569.2  271.454
 1.8796  62958.3  250.984
 1.9216  52036.4  229.084
 1.9636  45273.6  213.342
 2.0056  41124.9  202.033
 2.0476  38204.1  196.862
 2.0896  36639.4  191.657
 2.1316  35619.2  188.062
 2.1736  33902.8  184.93
 2.2156  34384  184.743
 2.2576  33134  182.006
 2.2996  32121.4  179.86
 2.3416  32203.9  178.651
 2.3836  31780.1  177.583
 2.4256  31021.8  176.023
 2.4676  30474.8  174.217
 2.5096  30193.7  173.469
 2.5516  28810.2  173.308
 2.5936  28884.5  170.055
 2.6356  28145.9  168.577
 2.6776  28086.5  167.295
 2.7196  27780.4  166.486
 2.7616  27638.4  166.232
 2.8036  26957.9  164.341
 2.8456  27107.7  165.437
 2.8876  26371.2  163.039
 2.9296  26008.3  162.038
 2.9716  26029.1  161.593
 3.0136  25945.6  161.396
 3.0556  25726.4  161.106
 3.0976  25859  160.429
 3.1396  25112.2  158.818
 3.1816  25367.2  159.27
 3.2236  24968  158.305
 3.2656  24746.3  156.626
 3.3076  24484.8  157.274
 3.3496  24803.4  157.201
 3.3916  25153.5  158.137
 3.4336  25652.1  160.294
 3.4756  26029.6  161.405
 3.5176  26669.1  163.142
 3.5596  26315.1  165.065
 3.6016  26362.3  162.246
 3.6436  25709.9  161.342
 3.6856  25308.1  158.369
 3.7276  24452.5  156.756
 3.7696  24301.5  156.254
 3.8116  23859.1  154.927
 3.8536  24068.3  155.528
 3.8956  23793.7  154.464
 3.9376  23732.8  154.537
 3.9796  23723.1  153.991
 4.0216  23645.1  152.767
 4.0636  23641.3  154.212
 4.1056  23780.6  154.331
 4.1476  23839.3  154.848
 4.1896  24062.9  155.424
 4.2316  24266.2  155.898
 4.2736  24486.9  156.408
 4.3156  24511.3  156.707
 4.3576  25544.9  159.89
 4.3996  25759.8  160.841
 4.4416  26207.5  161.809
 4.4836  26738  163.603
 4.5256  27128.4  165.413
 4.5676  26975.5  165.194
 4.6096  27437.4  165.619
 4.6516  28113.2  166.974
 4.6936  27926  167.235
 4.7356  28148.9  167.732
 4.7776  27983.9  167.061
 4.8196  28204.8  168.39
 4.8616  27429.4  165.54
 4.9036  27215.4  164.632
 4.9456  27012.7  164.667
 4.9876  26533.6  163.105
 5.0296  26700.6  163.45
 5.0716  26485.4  163.536
 5.1136  26815.7  164.284
 5.1556  26917.6  164.04
 5.1976  27509.6  165.842
 5.2396  27643.2  165.927
 5.2816  27614.5  166.326
 5.3236  27539.7  165.782
 5.3656  26936.8  164.894
 5.4076  26930.6  165.014
 5.4496  26865  164.303
 5.4916  27119.7  164.834
 5.5336  26950.9  164.409
 5.5756  27128.8  164.899
 5.6176  27338  164.959
 5.6596  27522.8  166.346
 5.7016  27609.9  166.021
 5.7436  27705.1  166.203
 5.7856  27609.2  166.372
 5.8276  27913.4  166.992
 5.8696  28226.3  167.999
 5.9116  28170.7  168.246
 5.9536  28469.4  169.181
 5.9956  28453.7  168.519
 6.0376  28547.7  169.413
 6.0796  28825.5  170.074
 6.1216  28633  169.741
 6.1636  29125.9  170.201
 6.2056  28894.4  170.198
 6.2476  29256.2  170.96
 6.2896  29298.9  170.934
 6.3316  29303.9  171.133
 6.3736  29196  170.701
 6.4156  29389  171.215
 6.4576  29240.3  170.34
 6.4996  29415.7  171.326
 6.5416  29502.1  171.707
 6.5836  29831.7  172.764
 6.6256  29772.2  172.293
 6.6676  30220.8  173.149
 6.7096  30211.6  174
 6.7516  30334.1  173.998
 6.7936  30613.9  174.195
 6.8356  30521.2  174.027
 6.8776  30821.1  175.679
 6.9196  30897.8  176.308
 6.9616  31350.1  177.033
 7.0036  31924.6  178.301
 7.0456  31911.5  177.559
 7.0876  32108.3  179.723
 7.1296  31742.2  177.906
 7.1716  31855  177.765
 7.2136  31551.4  176.686
 7.2556  31808.6  177.566
 7.2976  31780.6  177.995
 7.3396  31775.1  178.188
 7.3816  31784.8  178.431
 7.4236  32008.2  178.357
 7.4656  32062.5  177.958
 7.5076  32111.3  178.255
 7.5496  32299.6  179.305
 7.5916  32450.9  179.779
 7.6336  32830.5  180.806
 7.6756  32922.6  180.817
 7.7176  33500.1  182.734
 7.7596  32886.4  182.26
 7.8016  33628.8  186.569
 7.8436  33110.2  181.9
 7.8856  33378.7  182.1
 7.9276  34027  184.256
 7.9696  34221.5  185.096
 8.0116  35058.8  185.9
 8.0536  35526.7  187.384
 8.0956  35273.4  187.9
 8.1376  35724.1  188.561
 8.1796  36023.8  189.891
 8.2216  36749.7  190.25
 8.2636  36926.6  191.277
 8.3056  36704.4  191.422
 8.3476  37719.3  193.382
 8.3896  37305.8  192.399
 8.4316  37374.6  192.747
 8.4736  37538.1  192.638
 8.5156  37217.6  192.089
 8.5576  36735.2  192.426
 8.5996  36894.6  191.1
 8.6416  36864.6  192.286
 8.6836  36151.1  190.234
 8.7256  37035.6  192.01
 8.7676  36726.1  194.124
 8.8096  37256.4  192.817
 8.8516  37424.1  192.884
 8.8936  36679.5  190.842
 8.9356  36934.1  191.852
 8.9776  36876.1  191.759
 9.0196  37040.3  191.874
 9.0616  36159  189.113
 9.1036  36121.1  190.133
 9.1456  35725.1  188.407
 9.1876  36160.8  189.519
 9.2296  35928.9  188.331
 9.2716  35586.1  187.483
 9.3136  35743  187.893
 9.3556  36057.9  188.691
 9.3976  35111.2  186.717
 9.4396  35123.7  186.655
 9.4816  35008.8  186.211
 9.5236  34838.5  185.638
 9.5656  34465.8  185.015
 9.6076  33589.6  183.155
 9.6496  33922.4  183.951
 9.6916  33750.7  183.439
 9.7336  33951.8  183.777
 9.7756  33807  184.518
 9.8176  33280.4  182.747
 9.8596  33503.1  181.788
 9.9016  33148  180.803
 9.9436  32750.3  179.455
 9.9856  32621.6  179.561
 10.0276  31759  178.211
 10.0696  32233.5  178.605
 10.1116  31390.2  176.509
 10.1536  31486  176.443
 10.1956  31311.7  176.062
 10.2376  31087.1  174.932
 10.2796  30888.9  174.477
 10.3216  30467.9  173.421
 10.3636  30412.9  173.454
 10.4056  29722.9  171.873
 10.4476  29949.4  172.133
 10.4896  29886  171.543
 10.5316  29835.9  171.651
 10.5736  29505.7  171.45
 10.6156  29566.1  171.389
 10.6576  29208  168.889
 10.6996  29061.6  169.179
 10.7416  28224.9  166.936
 10.7836  28040.9  167.041
 10.8256  27668  166.359
 10.8676  27958.5  166.764
 10.9096  27828.6  166.405
 10.9516  27220.4  163.523
 10.9936  27598.1  164.867
 11.0356  27248  164.431
 11.0776  27213.6  163.656
 11.1196  26824.9  163.255
 11.1616  26516.7  161.984
 11.2036  26693.8  162.364
 11.2456  26529  162.581
 11.2876  26953  163.604
 11.3296  26284.2  161.465
 11.3716  26587.3  162.113
 11.4136  26834.1  163.725
 11.4556  26706.8  162.984
 11.4976  27050.6  163.018
 11.5396  27534.7  164.65
 11.5816  27456.2  164.852
 11.6236  26458.9  162.076
 11.6656  26614.9  161.699
 11.7076  25799.6  160.03
 11.7496  25176.1  161.266
 11.7916  25245.4  157.561
 11.8336  24882.2  157.302
 11.8756  24936.5  157.032
 11.9176  24960.7  156.781
 11.9596  24863.6  156.656
 12.0016  24566.4  156.208
 12.0436  24607.3  156.051
 12.0856  24174.8  155.18
 12.1276  24233.2  155.198
 12.1696  24433.2  155.065
 12.2116  24209.4  154.349
 12.2536  24179.2  155.064
 12.2956  24001.1  153.73
 12.3376  24193.7  154.687
 12.3796  24074.2  154.775
 12.4216  24064.1  153.932
 12.4636  23793.7  154.005
 12.5056  23981  153.935
 12.5476  24091.2  153.74
 12.5896  23890.9  153.738
 12.6316  24181.3  154.833
 12.6736  23780.3  154.207
 12.7156  23958  154.445
 12.7576  23969.9  154.733
 12.7996  23954  153.324
 12.8416  23735.3  153.674
 12.8836  23996.6  154.239
 12.9256  24478.4  154.91
 12.9676  24244.1  154.563
 13.0096  24579.7  156.768
 13.0516  24587.2  155.816
 13.0936  24581  155.917
 13.1356  24903.6  156.174
 13.1776  24553.9  156.101
 13.2196  24675  156.125
 13.2616  24268  155.14
 13.3036  24672.8  156.576
 13.3456  24495.8  156.374
 13.3876  24714.1  156.159
 13.4296  24588.8  155.923
 13.4716  24514.9  155.316
 13.5136  24463.5  155.266
 13.5556  24542.9  155.804
 13.5976  24544.4  156.342
 13.6396  24712.4  156.222
 13.6816  24841  156.99
 13.7236  25179.5  157.756
 13.7656  26624.7  162.708
 13.8076  27188.3  163.025
 13.8496  26175.6  160.853
 13.8916  24816.7  157.554
 13.9336  24125.4  154.607
 13.9756  24325.4  154.626
 14.0176  23665.2  153.097
 14.0596  23999.7  154.208
 14.1016  23769.7  153.885
 14.1436  23718.6  152.858
 14.1856  23102.4  151.134
 14.2276  23100.6  151.574
 14.2696  23263.7  152.003
 14.3116  22652.5  149.897
 14.3536  22369.3  149.122
 14.3956  22407.7  148.985
 14.4376  22679.8  149.67
 14.4796  22476.1  148.993
 14.5216  22250.9  149.038
 14.5636  22086.4  148.052
 14.6056  22358.9  148.509
 14.6476  22202.2  147.237
 14.6896  21844.1  146.591
 14.7316  21451.9  146.314
 14.7736  21254.5  144.775
 14.8156  21115.7  144.328
 14.8576  21133.7  144.242
 14.8996  20843.1  144.452
 14.9416  20335.9  142.688
 14.9836  20305.1  142.559
 15.0256  19956.9  140.24
 15.0676  19835.8  140.178
 15.1096  19691.8  139.355
 15.1516  19591.8  139.563
 15.1936  19356.9  138.15
 15.2356  19002.4  137.035
 15.2776  19000.5  137.151
 15.3196  18784.5  136.95
 15.3616  18721.7  136.473
 15.4036  18365.7  135.038
 15.4456  18660.2  135.767
 15.4876  18470.5  134.76
 15.5296  18335.3  134.556
 15.5716  18214.2  133.709
 15.6136  18015.6  133.311
 15.6556  18020.3  132.927
 15.6976  18006.5  132.818
 15.7396  17745.9  132.222
 15.7816  17768  131.829
 15.8236  17633.5  131.961
 15.8656  17430.2  131.05
 15.9076  17295.7  130.365
 15.9496  17976.7  135.76
 15.9916  17791.3  135.437
 16.0336  17888.4  132.662
 16.0756  17749.3  132.467
 16.1176  17351.2  130.886
 16.1596  17105.6  131.307
 16.2016  17101.6  130.043
 16.2436  16949.9  129.853
 16.2856  17071  129.821
 16.3276  16853.9  129.441
 16.3696  16923.8  129.534
 16.4116  16829.3  129.621
 16.4536  16944  129.865
 16.4956  16934.7  129.567
 16.5376  16527  128.174
 16.5796  16716.1  128.272
 16.6216  16666.8  128.334
 16.6636  16275.7  127.016
 16.7056  16678.8  128.447
 16.7476  16721.8  128.143
 16.7896  16557.4  128.256
 16.8316  16685.2  128.727
 16.8736  16757.8  129.273
 16.9156  16289.2  127.774
 16.9576  16376.6  128.92
 16.9996  16251.7  128.891
 17.0416  16608.1  128.675
 17.0836  16838.2  129.327
 17.1256  16349.3  127.441
 17.1676  16267  127.066
 17.2096  16000.6  125.931
 17.2516  16198.3  126.804
 17.2936  16069  126.343
 17.3356  15952.4  125.87
 17.3776  15676.2  124.955
 17.4196  15690.5  124.71
 17.4616  15800.3  125.047
 17.5036  15343  123.599
 17.5456  15295.6  124.04
 17.5876  15493  123.892
 17.6296  15567.9  123.998
 17.6716  15346.9  123.708
 17.7136  15220.8  123.339
 17.7556  15371.8  124.24
 17.7976  15337.1  123.823
 17.8396  15020.4  122.046
 17.8816  14915  122.177
 17.9236  15034.7  122.462
 17.9656  14839.5  122.178
 18.0076  15049.3  122.612
 18.0496  15098.2  121.946
 18.0916  14925.2  121.718
 18.1336  14823.3  121.474
 18.1756  15148.4  122.341
 18.2176  14783.8  121.077
 18.2596  14692.3  120.428
 18.3016  14875.6  121.443
 18.3436  14845.1  121.319
 18.3856  14805.1  121.481
 18.4276  14871  121.241
 18.4696  14497  119.787
 18.5116  14745  121.083
 18.5536  14636.7  121.002
 18.5956  14526.6  120.101
 18.6376  14460.3  120.236
 18.6796  14449.3  119.53
 18.7216  14364.6  119.652
 18.7636  14438.6  119.965
 18.8056  14165.4  118.749
 18.8476  14092.6  119.061
 18.8896  14278.3  119.18
 18.9316  14353.3  119.456
 18.9736  14316.9  119.014
 19.0156  14147.2  118.733
 19.0576  14436.5  118.778
 19.0996  14356.9  119.304
 19.1416  14199.8  118.918
 19.1836  14088.7  118.044
 19.2256  13967  117.839
 19.2676  14145.6  118.588
 19.3096  14087.7  118.594
 19.3516  14135.4  118.567
 19.3936  14019.3  118.166
 19.4356  14212.2  118.862
 19.4776  14265.7  119.172
 19.5196  13994.1  117.883
 19.5616  13944.3  117.932
 19.6036  13928.2  117.354
 19.6456  13991.7  117.736
 19.6876  14033.4  117.55
 19.7296  14234.8  118.868
 19.7716  13936.9  117.776
 19.8136  14329.4  119.631
 19.8556  14392.2  119.374
 19.8976  14319.3  119.125
 19.9396  14554.8  119.679
 19.9816  14505.3  119.796
 20.0236  14792.4  121.109
 20.0656  14723.9  120.824
 20.1076  14589  120.763
 20.1496  14228.5  119.245
 20.1916  14052.2  117.99
 20.2336  13921.8  117.39
 20.2756  13694.8  116.871
 20.3176  13540.8  115.968
 20.3596  13460.9  115.604
 20.4016  13656.6  116.238
 20.4436  13559.3  116.295
 20.4856  13499.8  115.933
 20.5276  13475.8  116.29
 20.5696  13398.1  115.503
 20.6116  13330.8  115.392
 20.6536  13364.2  115.007
 20.6956  13366.7  115.185
 20.7376  13145.2  114.434
 20.7796  13206  114.396
 20.8216  13449  115.154
 20.8636  13413.7  115.386
 20.9056  13201.6  114.407
 20.9476  13279.8  114.589
 20.9896  13316.5  114.607
 21.0316  13187  113.945
 21.0736  13188.9  114.48
 21.1156  13101.9  114.254
 21.1576  13080.9  114.213
 21.1996  13104.9  114.295
 21.2416  13115.8  114.175
 21.2836  13040.5  113.82
 21.3256  12917.8  113.403
 21.3676  13204.1  114.14
 21.4096  12832.5  112.889
 21.4516  12918.8  113.076
 21.4936  12709.5  112.44
 21.5356  12947.9  113.43
 21.5776  12969.6  113.358
 21.6196  12949.1  113.309
 21.6616  12682  112.219
 21.7036  12996.7  113.37
 21.7456  12946.1  113.233
 21.7876  12712.7  111.961
 21.8296  12698.6  111.742
 21.8716  12980.9  113.224
 21.9136  12971.3  113.372
 21.9556  12677.7  111.754
 21.9976  12729.5  112.016
 22.0396  12788.7  112.535
 22.0816  12661.2  112.492
 22.1236  12700.6  112.132
 22.1656  12739  112.802
 22.2076  12592.5  111.245
 22.2496  12549.7  111.087
 22.2916  12311.4  109.913
 22.3336  12346.4  110.785
 22.3756  12476.5  111.084
 22.4176  12338.8  110.323
 22.4596  12342  110.918
 22.5016  12329  110.373
 22.5436  12500.6  111.127
 22.5856  12612.1  111.751
 22.6276  12539.7  111.603
 22.6696  12406.5  111.329
 22.7116  12457.3  111.069
 22.7536  12354.6  110.585
 22.7956  12390  110.086
 22.8376  12301.6  110.2
 22.8796  12382.3  110.366
 22.9216  12429.9  111.114
 22.9636  12355.8  109.945
 23.0056  12263.2  109.668
 23.0476  12421.1  110.942
 23.0896  12600.2  111.116
 23.1316  12339.7  110.393
 23.1736  12547.1  114.051
 23.2156  12801.9  112.775
 23.2576  12860.7  113.181
 23.2996  12554.7  111.585
 23.3416  12772.7  113.102
 23.3836  12694.5  111.965
 23.4256  12765.2  112.415
 23.4676  12673.8  111.695
 23.5096  12700.5  112.46
 23.5516  12779.8  112.114
 23.5936  12811.7  113.178
 23.6356  12971  113.537
 23.6776  12488.9  111.607
 23.7196  12695.6  112.336
 23.7616  12550.5  111.376
 23.8036  12856.4  112.801
 23.8456  12707  111.533
 23.8876  12463.3  110.969
 23.9296  12255.1  110.522
 23.9716  12415.3  110.439
 24.0136  12420.4  111.368
 24.0556  12313  110.6
 24.0976  12109.5  109.502
 24.1396  12101.3  112.069
 24.1816  12405.6  111.883
 24.2236  12310.7  111.084
 24.2656  12085  109.531
 24.3076  12083  109.802
 24.3496  11974.4  109.182
 24.3916  12194.3  110.233
 24.4336  12125  110.123
 24.4756  12208.4  110.388
 24.5176  11904  108.625
 24.5596  11936.6  109.107
 24.6016  11883.2  108.946
 24.6436  12041.5  109.184
 24.6856  11865.6  108.119
 24.7276  11745.8  107.899
 24.7696  11644.7  107.548
 24.8116  11679.9  107.873
 24.8536  11713.5  108.043
 24.8956  11464.7  106.626
 24.9376  11607.4  107.465
 24.9796  11649.1  107.774
 25.0216  11517.3  107.278
 25.0636  11436.1  106.553
 25.1056  11294.7  106.588
 25.1476  11377.8  108.629
 25.1896  11333.6  106.902
 25.2316  11225.3  105.662
 25.2736  11261.4  105.485
 25.3156  11251.6  105.505
 25.3576  11332  106.325
 25.3996  11238.1  105.87
 25.4416  11096.4  105.175
 25.4836  11148.2  105.942
 25.5256  11003.5  104.62
 25.5676  10994.8  104.307
 25.6096  10940.4  104.622
 25.6516  11107.9  104.926
 25.6936  11071.6  105.066
 25.7356  10924.9  104.501
 25.7776  11075.9  104.888
 25.8196  10884.3  104.151
 25.8616  10885.1  104.076
 25.9036  11003.9  104.107
 25.9456  10970.1  104.539
 25.9876  11110.6  105.131
 26.0296  11115.3  104.814
 26.0716  11029.3  104.839
 26.1136  11040.9  104.811
 26.1556  10955.8  103.786
 26.1976  10998.8  104.937
 26.2396  10813.9  103.203
 26.2816  10865.1  104.062
 26.3236  10872.8  104.249
 26.3656  11022.5  104.694
 26.4076  10840.9  103.992
 26.4496  11086.7  104.792
 26.4916  11131.5  104.898
 26.5336  11234.9  105.797
 26.5756  11629.9  107.447
 26.6176  11102.4  104.961
 26.6596  10800.8  103.875
 26.7016  10833.1  103.794
 26.7436  10934.1  104.404
 26.7856  10679  103.165
 26.8276  10745.8  103.454
 26.8696  10737.1  103.282
 26.9116  10633.4  102.723
 26.9536  10481.7  102.032
 26.9956  10475.1  102.031
 27.0376  10501.5  102.393
 27.0796  10580  102.487
 27.1216  10548.9  102.409
 27.1636  10315.3  101.43
 27.2056  10396.9  101.713
 27.2476  10429.5  101.865
 27.2896  10312.5  101.423
 27.3316  10432.1  101.709
 27.3736  10316.7  101.417
 27.4156  10446  101.897
 27.4576  10386.3  101.825
 27.4996  10444.5  101.708
 27.5416  10330.1  101.453
 27.5836  10337.3  101.33
 27.6256  10310.6  101.38
 27.6676  10229.3  100.963
 27.7096  10354.7  101.461
 27.7516  10282.2  101.17
 27.7936  10545.7  102.696
 27.8356  10486.1  101.996
 27.8776  10536.8  102.331
 27.9196  10297.5  101.016
 27.9616  10205.9  100.759
 28.0036  10257.4  100.977
 28.0456  10090.8  100.286
 28.0876  10035  100.099
 28.1296  10054.2  99.9713
 28.1716  10086.5  100.215
 28.2136  10139.1  100.44
 28.2556  10083.6  100.273
 28.2976  9887.25  99.2896
 28.3396  9912.18  99.1696
 28.3816  10072.1  99.9813
 28.4236  9934.92  99.4424
 28.4656  9985.07  99.7471
 28.5076  9916.73  99.0419
 28.5496  10037.6  99.8942
 28.5916  9992.41  99.4807
 28.6336  9974.43  99.7439
 28.6756  9994.94  99.0376
 28.7176  9947.55  99.2459
 28.7596  9766.1  98.3451
 28.8016  9874.71  98.9173
 28.8436  9724.3  98.4065
 28.8856  9774.88  98.5622
 28.9276  9917.37  99.4773
 28.9696  9665.12  97.8631
 29.0116  9666.36  98.051
 29.0536  9705.83  98.4622
 29.0956  9857.74  98.9195
 29.1376  9678.37  97.9902
 29.1796  9816.82  98.7441
 29.2216  9746.66  98.2321
 29.2636  9829.49  98.7256
 29.3056  9670.69  97.6933
 29.3476  9790.93  98.8394
 29.3896  9699.92  98.4854
 29.4316  9668.25  97.6492
 29.4736  9526.43  96.9928
 29.5156  9518.78  96.8835
 29.5576  9590.59  97.9877
 29.5996  9638.92  97.4881
 29.6416  9474.57  96.776
 29.6836  9438.13  96.5111
 29.7256  9560.29  97.4697
 29.7676  9361.59  96.34
 29.8096  9365.01  96.3062
 29.8516  9244.32  96.0078
 29.8936  9370.56  96.7552
 29.9356  9406.13  96.6969
 29.9776  9338.81  96.4988
 30.0196  9361.4  96.2815
 30.0616  9261.5  95.867
 30.1036  9453.33  96.6866
 30.1456  9257.97  95.8968
 30.1876  9265.74  95.9309
 30.2296  9200.66  95.5349
 30.2716  9321.24  95.8027
 30.3136  9398.8  97.0544
 30.3556  9612.4  98.1622
 30.3976  9424.01  98.69
 30.4396  9700.47  97.4676
 30.4816  9572.88  96.4226
 30.5236  9715.06  97.1405
 30.5656  9574.03  97.0924
 30.6076  9433.22  96.1162
 30.6496  9495.92  96.4982
 30.6916  9426.31  96.2446
 30.7336  9483.71  96.6866
 30.7756  9535.22  97.04
 30.8176  9446.57  96.5085
 30.8596  9428.08  96.1579
 30.9016  9582.91  96.8447
 30.9436  9528.84  96.7836
 30.9856  9547.83  96.9932
 31.0276  9393.59  95.8396
 31.0696  9328.38  96.0495
 31.1116  9409.53  96.4467
 31.1536  9208.76  95.2807
 31.1956  9171.95  95.1871
 31.2376  9181.69  95.2674
 31.2796  9303.29  95.4311
 31.3216  9306.81  95.3677
 31.3636  9454.63  96.8484
 31.4056  9264.47  97.1756
 31.4476  9377.68  95.6677
 31.4896  9319.43  95.8564
 31.5316  9257.13  94.9574
 31.5736  9527.94  96.1695
 31.6156  9519.11  96.1287
 31.6576  9452.83  95.8789
 31.6996  9543.08  95.998
 31.7416  9411.79  96.2904
 31.7836  9446.38  95.6033
 31.8256  9470.79  95.995
 31.8676  9342.63  95.341
 31.9096  9123.34  94.4138
 31.9516  9193.37  95.1027
 31.9936  9184.92  94.8731
 32.0356  9304.67  95.5498
 32.0776  9456.19  96.2132
 32.1196  9366.25  95.7784
 32.1616  9366.06  95.3071
 32.2036  9286.78  95.4194
 32.2456  9246.47  95.587
 32.2876  9360.82  95.6743
 32.3296  9055.16  94.0601
 32.3716  8938.12  93.5564
 32.4136  9062.34  94.4038
 32.4556  9162.37  94.3052
 32.4976  9125.94  94.0717
 32.5396  9065.19  93.7674
 32.5816  9095.29  94.0648
 32.6236  9077.98  94.0334
 32.6656  9155.66  94.9834
 32.7076  9030.91  93.989
 32.7496  8962.01  93.3012
 32.7916  9031.04  93.6236
 32.8336  9041.71  93.7684
 32.8756  9096.21  93.7706
 32.9176  8863.06  93.0427
 32.9596  8938.76  93.5092
 33.0016  8908.33  93.1122
 33.0436  9125.63  94.1597
 33.0856  8913.51  93.4243
 33.1276  8721.59  92.1477
 33.1696  8928.13  93.0557
 33.2116  8970.91  93.5168
 33.2536  9103.51  94.1976
 33.2956  9011.49  93.8009
 33.3376  8754.5  92.2791
 33.3796  9031.43  93.8709
 33.4216  8877.74  92.6503
 33.4636  8940  93.1377
 33.5056  8797.28  92.6348
 33.5476  8849.91  92.885
 33.5896  8899.33  92.9427
 33.6316  8934.63  93.4373
 33.6736  8724.36  92.5751
 33.7156  8793.67  92.6986
 33.7576  8831.47  92.812
 33.7996  8972.64  93.3078
 33.8416  8646.66  91.7879
 33.8836  8788.91  92.4466
 33.9256  8869.77  92.8016
 33.9676  8845.08  92.5639
 34.0096  8716.72  92.2034
 34.0516  8698.18  91.7326
 34.0936  8666.26  91.7442
 34.1356  8787.12  92.2225
 34.1776  8614.48  91.3026
 34.2196  8593.13  91.3757
 34.2616  8621.59  91.664
 34.3036  8652.62  92.0778
 34.3456  8775.69  92.4757
 34.3876  8859.08  92.9776
 34.4296  8525.18  90.8191
 34.4716  8585.62  91.237
 34.5136  8701.04  92.0981
 34.5556  8529.45  91.4287
 34.5976  8762.74  92.5191
 34.6396  8565.06  91.2754
 34.6816  8719.92  92.0835
 34.7236  8622.3  91.3331
 34.7656  8661.29  91.7584
 34.8076  8529.47  91.3839
 34.8496  8458.14  90.9203
 34.8916  8560.49  91.2617
 34.9336  8657.92  91.7581
 34.9756  8802.53  92.4749
 35.0176  8766.76  92.7927
 35.0596  8701.31  92.2688
 35.1016  8590.09  91.4176
 35.1436  8806.34  92.2595
 35.1856  8568.47  91.1239
 35.2276  8623.03  91.5879
 35.2696  8515.37  91.2036
 35.3116  8601.82  91.7648
 35.3536  8546.31  91.2136
 35.3956  8460.47  90.4381
 35.4376  8429.11  90.8292
 35.4796  8454.93  90.9976
 35.5216  8426.11  90.8158
 35.5636  8286.23  90.7953
 35.6056  8440.14  90.6522
 35.6476  8520.45  90.9854
 35.6896  8510.61  91.026
 35.7316  8407.26  90.4488
 35.7736  8383.44  90.5057
 35.8156  8501.98  91.1473
 35.8576  8512.37  91.4518
 35.8996  8495.05  91.3319
 35.9416  8387.01  90.2528
 35.9836  8329.58  90.3875
 36.0256  8658.64  92.0594
 36.0676  8559.93  91.2865
 36.1096  8407.57  90.6165
 36.1516  8604.54  91.5635
 36.1936  8490.68  90.7855
 36.2356  8451.19  91.2408
 36.2776  8481.83  90.8693
 36.3196  8465.71  90.4594
 36.3616  8378  90.0753
 36.4036  8440.96  90.531
 36.4456  8459.82  90.8417
 36.4876  8344.81  90.1493
 36.5296  8297.79  89.944
 36.5716  8203.49  89.9609
 36.6136  8192.27  88.9257
 36.6556  8257.64  89.4701
 36.6976  8025.7  88.6993
 36.7396  8017.65  88.5623
 36.7816  8152.93  89.5053
 36.8236  8146.51  89.4
 36.8656  8021.31  88.7737
 36.9076  8051.48  88.826
 36.9496  7957.14  88.2855
 36.9916  8028.36  88.3132
 37.0336  8121.65  89.1342
 37.0756  8100.03  88.816
 37.1176  7998.26  88.5204
 37.1596  7940.03  88.206
 37.2016  8044.31  89.0037
 37.2436  8117.13  88.7184
 37.2856  8066.99  88.6976
 37.3276  8057.95  88.1783
 37.3696  7958.09  88.3462
 37.4116  8150.51  89.3064
 37.4536  7884.79  87.5676
 37.4956  7814.81  87.5646
 37.5376  8178.37  90.9813
 37.5796  8083.72  90.3747
 37.6216  8028.76  88.3408
 37.6636  8165.25  88.9851
 37.7056  8159.05  89.137
 37.7476  8236.27  89.1018
 37.7896  8108.79  88.9066
 37.8316  8025.46  88.6134
 37.8736  8220.85  89.1946
 37.9156  8108.03  88.5855
 37.9576  8095.69  88.4287
 37.9996  7987.52  87.55
 38.0416  7919.4  87.9747
 38.0836  8234.62  89.6125
 38.1256  8116.32  88.9389
 38.1676  7941.63  88.0877
 38.2096  8111.47  88.642
 38.2516  7941.97  87.9232
 38.2936  8209.73  89.2032
 38.3356  8041.29  88.2004
 38.3776  8076.24  88.6486
 38.4196  8023.64  88.2138
 38.4616  8089.13  88.8191
 38.5036  8161.72  89.0621
 38.5456  7983.55  88.9158
 38.5876  7946.17  88.8888
 38.6296  8145.25  88.8071
 38.6716  8078.14  88.2414
 38.7136  8040.65  87.9828
 38.7556  7985.83  88.1831
 38.7976  8054.5  88.4893
 38.8396  7908.78  87.953
 38.8816  7969.13  88.2752
 38.9236  7910.63  87.7476
 38.9656  8006.22  88.1831
 39.0076  7972.8  87.4029
 39.0496  8135.8  88.8594
 39.0916  7932.86  87.3876
 39.1336  8094.62  88.687
 39.1756  8047.46  88.4931
 39.2176  7892.71  88.1637
 39.2596  7998.61  88.6848
 39.3016  7871.35  87.4943
 39.3436  7904.27  88.1488
 39.3856  8033.13  88.3115
 39.4276  8030.55  88.8116
 39.4696  7975.93  88.1265
 39.5116  8079.32  89.217
 39.5536  8036.02  89.383
 39.5956  8042.54  88.5177
 39.6376  7979.48  88.1671
 39.6796  8022.82  88.1596
 39.7216  7938.03  87.7784
 39.7636  7992.66  88.64
 39.8056  8004.64  88.5083
 39.8476  7892.18  88.1366
 39.8896  7952.97  88.1112
 39.9316  7927.52  88.2176
 39.9736  8003.09  88.2914
 40.0156  7962.64  87.8151
 40.0576  7896.02  87.7881
 40.0996  7997.16  87.5389
 40.1416  7909.81  87.8611
 40.1836  8004.34  88.2648
 40.2256  7931.35  87.8987
 40.2676  7858.55  87.6667
 40.3096  8025.36  88.4465
 40.3516  7988  88.3486
 40.3936  8048.06  88.2433
 40.4356  7864.8  87.4341
 40.4776  8053.37  88.7211
 40.5196  8004.37  88.6639
 40.5616  8085.68  88.8316
 40.6036  8035.17  88.808
 40.6456  8005.11  88.2457
 40.6876  8057.88  88.5272
 40.7296  7966.51  88.0354
 40.7716  7931.11  88.0802
 40.8136  7823.41  87.4301
 40.8556  8033.57  88.734
 40.8976  7966.21  88.2819
 40.9396  8005.67  88.8519
 40.9816  8047.87  88.3647
 41.0236  8023.58  88.0152
 41.0656  8132.07  89.1523
 41.1076  7992.94  88.1572
 41.1496  8050.92  88.3871
 41.1916  7993.16  88.3771
 41.2336  7967.28  88.2465
 41.2756  7994.8  88.0001
 41.3176  8040.02  88.865
 41.3596  7995.86  88.3437
 41.4016  7920.72  88.1876
 41.4436  8008.04  88.4639
 41.4856  8033.63  88.7674
 41.5276  7933.13  88.2244
 41.5696  7930.96  87.8473
 41.6116  8046.08  88.8771
 41.6536  7982.78  88.3824
 41.6956  8042.55  88.6887
 41.7376  7861.83  87.7897
 41.7796  7918.66  87.9928
 41.8216  7948.86  88.3982
 41.8636  7885.04  87.9867
 41.9056  7970.19  88.2495
 41.9476  7841.9  87.6657
 41.9896  7969.28  88.1503
 42.0316  7955.35  88.1536
 42.0736  7939.5  88.1946
 42.1156  7886.88  87.7071
 42.1576  7930  88.0291
 42.1996  8063.89  88.9309
 42.2416  7990.56  88.0179
 42.2836  7891.48  87.6794
 42.3256  7908.02  87.8869
 42.3676  8002.25  88.2113
 42.4096  7987.06  88.0971
 42.4516  7948.6  88.0141
 42.4936  7842.62  87.4396
 42.5356  7896.37  87.8785
 42.5776  7869.54  87.6607
 42.6196  7921.96  88.0123
 42.6616  7777.79  87.3847
 42.7036  7872.69  87.2899
 42.7456  7867.21  87.6179
 42.7876  7804.05  87.3455
 42.8296  7823.18  87.2995
 42.8716  7751.53  87.0682
 42.9136  7757.39  86.8493
 42.9556  7887.51  87.7469
 42.9976  7866.92  87.5969
 43.0396  7857.24  87.2732
 43.0816  7777.86  87.2164
 43.1236  7744.19  87.0789
 43.1656  7804.62  87.2431
 43.2076  7809.54  87.3768
 43.2496  7751.36  86.8759
 43.2916  7773.46  87.3614
 43.3336  7786.52  87.2557
 43.3756  7883.59  87.5614
 43.4176  7689.99  86.5592
 43.4596  7736.24  86.6825
 43.5016  7778.33  87.3169
 43.5436  7839.44  87.5549
 43.5856  7646.73  86.5023
 43.6276  7753.41  86.9963
 43.6696  7778.03  87.3475
 43.7116  7806.68  87.0548
 43.7536  7900.52  88.0825
 43.7956  7654.03  87.9071
 43.8376  7623.36  86.2463
 43.8796  7593.72  86.1557
 43.9216  7547.12  85.8108
 43.9636  7699.04  86.77
 44.0056  7580.92  86.3397
 44.0476  7474.22  85.4813
 44.0896  7476.55  85.7174
 44.1316  7618.18  86.0488
 44.1736  7538.35  85.7217
 44.2156  7646.61  86.1854
 44.2576  7542.48  85.9187
 44.2996  7515.31  85.7372
 44.3416  7504.56  85.4369
 44.3836  7388.55  85.1028
 44.4256  7442.24  85.0521
 44.4676  7492.94  85.4987
 44.5096  7440.49  85.3422
 44.5516  7428.25  85.2377
 44.5936  7412.09  85.1004
 44.6356  7502.48  85.3556
 44.6776  7483.29  85.4848
 44.7196  7498.66  85.9536
 44.7616  7689.02  88.3823
 44.8036  7673.52  86.9174
 44.8456  7642.63  86.7435
 44.8876  7789.23  87.5205
 44.9296  7706.51  86.3768
 44.9716  7781.01  87.2319
 45.0136  7694.43  86.693
 45.0556  7674.07  86.6685
 45.0976  7595.37  86.2451
 45.1396  7540.37  85.7022
 45.1816  7587.63  85.9129
 45.2236  7807.21  87.0594
 45.2656  7500.55  85.8163
 45.3076  7614.18  86.2541
 45.3496  7522.48  86.0337
 45.3916  7506.69  86.2254
 45.4336  7587.95  86.5418
 45.4756  7571.98  86.2946
 45.5176  7677.62  86.5156
 45.5596  7755.83  87.0684
 45.6016  7455.37  85.7858
 45.6436  7591.82  85.731
 45.6856  7436.11  85.5106
 45.7276  7444.01  86.862
 45.7696  7551.17  87.1722
 45.8116  7540.9  86.5469
 45.8536  7482.16  86.0961
 45.8956  7599.69  86.1248
 45.9376  7655.74  85.9009
 45.9796  7565.64  86.0824
 46.0216  7643.03  86.8616
 46.0636  7684.37  86.2356
 46.1056  7608.7  85.797
 46.1476  7527.42  85.9312
 46.1896  7740.38  87.2922
 46.2316  7599.79  86.3515
 46.2736  7603.01  86.6015
 46.3156  7545.12  86.01
 46.3576  7546.22  86.223
 46.3996  7620.83  86.8098
 46.4416  7524.64  85.8014
 46.4836  7469.38  85.8649
 46.5256  7398  85.3896
 46.5676  7522.65  86.2291
 46.6096  7537.66  86.245
 46.6516  7624.74  85.7733
 46.6936  7562.82  85.9294
 46.7356  7699.15  86.7936
 46.7776  7437.77  86.2108
 46.8196  7455.29  85.9977
 46.8616  7280.04  84.7748
 46.9036  7448.43  85.4101
 46.9456  7420.14  84.8826
 46.9876  7453.55  85.1671
 47.0296  7410.9  85.5179
 47.0716  7427.74  85.5304
 47.1136  7450.19  85.3322
 47.1556  7583.19  85.9594
 47.1976  7567.3  86.0281
 47.2396  7425.52  85.5447
 47.2816  7368.68  84.9161
 47.3236  7363.23  85.2458
 47.3656  7462.28  85.7574
 47.4076  7545.5  85.9521
 47.4496  7383.82  85.1834
 47.4916  7405.95  85.5128
 47.5336  7469.39  85.692
 47.5756  7599.34  86.5525
 47.6176  7428.38  85.4817
 47.6596  7385.92  84.9481
 47.7016  7532.37  85.587
 47.7436  7446.35  85.4489
 47.7856  7517.04  85.89
 47.8276  7326.07  84.829
 47.8696  7372.71  85.1858
 47.9116  7434.62  85.2542
 47.9536  7457.34  85.3162
 47.9956  7366.74  85.5215
 48.0376  7266.88  84.7113
 48.0796  7385.44  85.5279
 48.1216  7409.15  85.4858
 48.1636  7486.05  85.489
 48.2056  7506.51  85.8789
 48.2476  7517.77  86.2401
 48.2896  7536.02  86.2674
 48.3316  7466.4  85.804
 48.3736  7369  85.2709
 48.4156  7401.33  85.4157
 48.4576  7393.49  85.5635
 48.4996  7442.57  85.2939
 48.5416  7506.99  85.9974
 48.5836  7447.52  85.3189
 48.6256  7472.41  85.6818
 48.6676  7445.91  86.0546
 48.7096  7401.75  85.0459
 48.7516  7478.05  85.6371
 48.7936  7329.17  84.9476
 48.8356  7334.61  84.9259
 48.8776  7317.38  85.4076
 48.9196  7503  85.84
 48.9616  7256.86  84.779
 49.0036  7416.9  86.0955
 49.0456  7352.06  85.6915
 49.0876  7327.85  85.0588
 49.1296  7241.57  84.7396
 49.1716  7236.72  84.8101
 49.2136  7401.15  85.4612
 49.2556  7301.32  85.0202
 49.2976  7360.28  85.3372
 49.3396  7271.63  84.8733
 49.3816  7438.8  85.408
 49.4236  7371.72  85.2895
 49.4656  7342.28  85.0999
 49.5076  7283.1  84.5517
 49.5496  7389.66  85.2306
 49.5916  7321.96  84.7596
 49.6336  7309.2  84.8998
 49.6756  7363.73  85.446
 49.7176  7342.3  85.2629
 49.7596  7414.32  85.4395
 49.8016  7370.6  85.1004
 49.8436  7260.75  84.7683
 49.8856  7263.08  84.7859
 49.9276  7230.78  84.7039
 49.9696  7355.85  85.4109
 50.0116  7332.04  85.4022
 50.0536  7270.58  84.9943
 50.0956  7264.56  85.0285
 50.1376  7287.38  84.8536
 50.1796  7216.13  84.7164
 50.2216  7276.29  85.0702
 50.2636  7259.96  84.5731
 50.3056  7285.64  84.9073
 50.3476  7205.31  84.4625
 50.3896  7231.43  84.5858
 50.4316  7235.07  84.4331
 50.4736  7183.49  84.3527
 50.5156  7237.42  84.6591
 50.5576  7387.2  85.282
 50.5996  7242.68  84.8579
 50.6416  7258.85  84.7582
 50.6836  7214.6  84.5617
 50.7256  7258.69  84.7209
 50.7676  7431.4  86.0818
 50.8096  7256.66  84.5703
 50.8516  7156.45  84.4168
 50.8936  7202.79  84.4683
 50.9356  7290.51  85.0869
 50.9776  7238.98  84.9481
 51.0196  7049.16  83.9477
 51.0616  7136.26  83.7809
 51.1036  7165.59  84.3153
 51.1456  7176.04  84.2889
 51.1876  7178.49  83.615
 51.2296  7113.92  84.0091
 51.2716  7066.52  83.3155
 51.3136  6958.36  83.1428
 51.3556  7036.06  83.2163
 51.3976  6934.9  82.7717
 51.4396  6921.43  83.0043
 51.4816  6922.31  82.8629
 51.5236  7105.8  84.0628
 51.5656  6952.98  82.7244
 51.6076  7100.16  83.6864
 51.6496  6938.62  82.9143
 51.6916  6944.4  83.305
 51.7336  6966.41  83.5355
 51.7756  7016.7  83.5041
 51.8176  6847.11  82.6264
 51.8596  7013.59  83.6395
 51.9016  7082.27  83.6446
 51.9436  7040.23  84.9236
 51.9856  7130.99  85.8829
 52.0276  7117.62  84.2659
 52.0696  7151.88  84.541
 52.1116  7003.77  83.7738
 52.1536  6987.36  83.4938
 52.1956  7077.79  83.5535
 52.2376  7116.44  83.9577
 52.2796  7119.1  83.79
 52.3216  6965.24  83.567
 52.3636  7087.82  83.8577
 52.4056  6935.29  82.818
 52.4476  7126.29  84.3217
 52.4896  6928.07  83.1923
 52.5316  7051.62  83.9843
 52.5736  6980.87  83.2649
 52.6156  7111.98  84.4663
 52.6576  7006.71  83.2536
 52.6996  6794.15  82.9779
 52.7416  6944.24  83.8165
 52.7836  7026.49  84.1246
 52.8256  7007.75  83.2068
 52.8676  6843.21  82.8087
 52.9096  7009.58  83.8717
 52.9516  6982.61  84.1196
 52.9936  6980.98  84.4967
 53.0356  6975.08  83.4347
 53.0776  7073.83  84.3113
 53.1196  7045.01  84.2635
 53.1616  7037.8  84.2745
 53.2036  6900.03  83.4036
 53.2456  6923.63  83.6553
 53.2876  6982.82  83.6975
 53.3296  7038.68  84.3584
 53.3716  7048.89  84.1741
 53.4136  6980.22  83.9111
 53.4556  7029.89  84.2379
 53.4976  6904.93  83.3241
 53.5396  6852.47  83.4127
 53.5816  6907.96  83.3698
 53.6236  6813.46  83.0816
 53.6656  6997.9  83.8819
 53.7076  7034.79  84.0609
 53.7496  7034.27  84.1859
 53.7916  6858.88  83.2586
 53.8336  6954.86  83.727
 53.8756  6922.59  84.0937
 53.9176  6846.79  82.9679
 53.9596  6598.28  82.2047
 54.0016  6735.18  82.37
 54.0436  6505.82  81.169
 54.0856  6789.22  82.3446
 54.1276  6790.06  82.5523
 54.1696  6652.6  81.8803
 54.2116  6879.52  83.0071
 54.2536  6752.78  82.044
 54.2956  6740.45  81.9438
 54.3376  6561.25  81.4045
 54.3796  6639.93  81.7941
 54.4216  6683.31  81.9452
 54.4636  6586.52  81.5462
 54.5056  6669.16  81.785
 54.5476  6621.48  81.8369
 54.5896  6553.22  81.2532
 54.6316  6608.03  81.4577
 54.6736  6728.8  82.2761
 54.7156  6558.59  81.246
 54.7576  6613.62  81.5763
 54.7996  6795.29  82.8622
 54.8416  6673.93  82.0661
 54.8836  6575.77  81.6346
 54.9256  6600.79  81.5519
 54.9676  6512.93  80.8765
 55.0096  6602.17  81.4727
 55.0516  6482.71  80.9575
 55.0936  6527.77  80.9077
 55.1356  6491.21  80.7077
 55.1776  6696.93  82.2266
 55.2196  6577.35  81.3357
 55.2616  6632.61  81.8604
 55.3036  6384.78  80.4769
 55.3456  6410.44  80.7582
 55.3876  6541.32  81.3087
 55.4296  6415.5  80.5471
 55.4716  6555.7  81.4399
 55.5136  6538.4  81.0806
 55.5556  6633.31  81.7323
 55.5976  6538.47  81.2245
 55.6396  6584.57  81.3526
 55.6816  6495.36  80.7486
 55.7236  6380.79  80.0949
 55.7656  6492.92  80.5286
 55.8076  6452.59  80.2753
 55.8496  6608.34  81.6843
 55.8916  6342.04  80.0914
 55.9336  6566.12  81.3461
 55.9756  6419.47  80.3089
 56.0176  6414.11  80.4276
 56.0596  6438.3  80.5623
 56.1016  6328.64  79.8913
 56.1436  6418.43  80.7003
 56.1856  6308.13  79.7585
 56.2276  6503.53  81.0475
 56.2696  6338.71  80.0197
 56.3116  6495.06  81.3596
 56.3536  6399.52  80.4107
 56.3956  6466.9  80.8148
 56.4376  6266.55  79.604
 56.4796  6275.81  79.4769
 56.5216  6330.12  80.2006
 56.5636  6267.65  79.3832
 56.6056  6494.06  81.0298
 56.6476  6324.22  79.5664
 56.6896  6525.86  81.3169
 56.7316  6368.79  80.2453
 56.7736  6281.35  79.659
 56.8156  6348.29  80.1248
 56.8576  6255.54  79.4687
 56.8996  6342.84  79.9176
 56.9416  6296.58  79.963
 56.9836  6318.23  79.6298
 57.0256  6275.28  79.6588
 57.0676  6397.76  80.5614
 57.1096  6318.75  79.8265
 57.1516  6241.19  79.4014
 57.1936  6256.97  79.2572
 57.2356  6126.64  78.7533
 57.2776  6333.96  80.0258
 57.3196  6289.94  79.9032
 57.3616  6303.44  79.6694
 57.4036  6306.96  79.7683
 57.4456  6396.27  80.3111
 57.4876  6285.33  79.4737
 57.5296  6270.46  79.7089
 57.5716  6268.04  79.6973
 57.6136  6153.8  78.8082
 57.6556  6299.95  79.8623
 57.6976  6202.56  78.9774
 57.7396  6155.36  79.1249
 57.7816  6156.57  79.5079
 57.8236  6117.52  79.0852
 57.8656  6242.87  79.5091
 57.9076  6255.39  79.6074
 57.9496  6161.42  79.3709
 57.9916  6304.62  79.7858
 58.0336  6200.32  79.4161
 58.0756  6157.59  78.7536
 58.1176  6218.75  79.1581
 58.1596  6173.4  79.455
 58.2016  6064  77.9561
 58.2436  6146.01  78.8947
 58.2856  5985.64  77.7791
 58.3276  5988.28  78.1673
 58.3696  5945.41  77.6464
 58.4116  5922.38  77.3606
 58.4536  6079.62  78.2693
 58.4956  5899.07  77.2734
 58.5376  6069.83  78.0809
 58.5796  5926.04  77.4424
 58.6216  6050.62  78.0744
 58.6636  6075.28  78.4353
 58.7056  5908.08  77.2152
 58.7476  5899.01  77.595
 58.7896  6063.46  78.3083
 58.8316  5944.97  77.6441
 58.8736  6032.37  78.1191
 58.9156  6019.98  78.0847
 58.9576  5877.89  77.4646
 58.9996  5980.02  77.3989
 59.0416  5956.47  77.597
 59.0836  6022.98  77.9388
 59.1256  5899.82  77.8406
 59.1676  5923.25  78.3088
 59.2096  6005.39  78.1455
 59.2516  5986.69  77.6068
 59.2936  5873.6  77.1937
 59.3356  5798.15  76.5766
 59.3776  6036.74  78.3052
 59.4196  5804.15  76.7196
 59.4616  5861.69  76.9605
 59.5036  5777.84  76.4427
 59.5456  5913.55  77.0318
 59.5876  5989.65  77.7161
 59.6296  5842.56  76.824
 59.6716  5892.17  77.2067
 59.7136  5888.01  77.1679
 59.7556  5882.27  77.2649
 59.7976  5893.45  77.0837
 59.8396  5754.47  76.0661
 59.8816  5960.37  77.9567
 59.9236  5872.98  77.0318
 59.9656  5858.06  77.1901
 60.0076  5960.78  77.2261
 60.0496  5800.32  76.2039
 60.0916  6157.84  78.4135
 60.1336  5771.03  76.9929
 60.1756  5845.84  78.6552
 60.1996  5799.17  80.5316