File: docs/examples/opeando_xrd/IS17_D/Data/IS17_D/17_Da_f00025.xye
# /beamlines/bl04/projects/cycle2025-II/20250340211-lsimonelli/DATA/IS17_D/17_Da_f00025.xye : mythproc.py merge -s 0.006 -l 0.5 -f /beamlines/bl04/inhouse/ff/FlatField/ff_20Nov2024rod8mm60s_17keV.raw -b True -c true -o xye /beamlines/bl04/projects/cycle2025-II/20250340211-lsimonelli/DATA/IS17_D/17_Da_00025.dat
# IsMon = [6754108, 6757118, 6756496]  IsPos = [-1.5000, -2.4885, -3.4988]
# Wave = 0.4962  CalPath /beamlines/bl04/projects/cycle2025-II/20250340211-lsimonelli/DATA/Align/Si_Pos1_25keV_f00001.cal
# Date = 2025-09-24_00:31:23 Dt = 4.8000  Bin = 0.0060  <imon> = 6755907 +/- 1297 (Min/Max) 6754108 / 6757118
# icurr 249.8289  mocoIn 1.7052E-05  mocoOut 0.8002  i15 7.06943e+06  imon 6.75591e+06  i7 5.3333  iEMpd_timer 4.8000  iEMpd_1 3.5546E-08  iEMpd_2 7.8169E-08  iEMpd_3 1.7289E-08  iEMpd_4 4.8480E-08  iEMhp_timer 4.8000  iEMhp_1 4.8816E-06  iEMhp_2 -2.5444E-08  iEMhp_3 -2.5524E-08  iEMhp_4 -2.1649E-08
#      9776
 1.5856  39473.6  204.04
 1.6276  46994.1  218.809
 1.6696  52984.6  231.518
 1.7116  61423.9  249.762
 1.7536  70429.2  266.306
 1.7956  75355.1  276.15
 1.8376  71533.4  269.482
 1.8796  60106.6  245.214
 1.9216  48053.6  220.12
 1.9636  40692.3  202.239
 2.0056  35937.9  188.844
 2.0476  34008.5  185.719
 2.0896  32366.6  180.117
 2.1316  31223.7  176.058
 2.1736  29426.6  172.272
 2.2156  30051.8  172.696
 2.2576  29443.5  171.551
 2.2996  28319  168.861
 2.3416  28332.7  167.55
 2.3836  27820.3  166.135
 2.4256  27090.8  164.476
 2.4676  26725.7  163.132
 2.5096  26736.3  163.218
 2.5516  27557.7  169.547
 2.5936  42022.9  205.074
 2.6356  26122.5  162.403
 2.6776  25289  158.69
 2.7196  25061.5  158.494
 2.7616  24993.9  158.065
 2.8036  24332.6  156.126
 2.8456  24425.1  157.025
 2.8876  24067.5  155.723
 2.9296  23415.6  153.748
 2.9716  23337.6  152.998
 3.0136  23186.3  152.566
 3.0556  23206.4  153.02
 3.0976  23138.4  151.763
 3.1396  22790.6  151.288
 3.1816  22695.4  150.923
 3.2236  22646.4  150.752
 3.2656  22621.8  149.735
 3.3076  22411.7  150.459
 3.3496  22622.3  150.368
 3.3916  22998.5  151.203
 3.4336  23322.4  152.827
 3.4756  23703.4  154.006
 3.5176  24506.4  156.373
 3.5596  24411.2  159.005
 3.6016  24811.7  157.408
 3.6436  23907.1  155.585
 3.6856  23442.7  152.412
 3.7276  22395.3  150.021
 3.7696  22451.9  150.202
 3.8116  21876.2  148.352
 3.8536  21997.5  148.702
 3.8956  21979.4  148.467
 3.9376  22016.6  148.839
 3.9796  22011  148.338
 4.0216  21954.5  147.205
 4.0636  21861.4  148.334
 4.1056  21899.4  148.106
 4.1476  22153.7  149.284
 4.1896  22335.4  149.754
 4.2316  22527.8  150.228
 4.2736  23103.9  151.916
 4.3156  23074.2  152.051
 4.3576  24084.5  155.271
 4.3996  24393.8  156.514
 4.4416  24785.9  157.364
 4.4836  25321.5  159.201
 4.5256  25804.4  161.326
 4.5676  25676.1  161.171
 4.6096  26032  161.315
 4.6516  26594.7  162.405
 4.6936  26868.8  164.042
 4.7356  27148.4  164.727
 4.7776  26930.3  163.895
 4.8196  26594.4  163.518
 4.8616  26230.8  162.006
 4.9036  25885  160.563
 4.9456  25975.7  161.484
 4.9876  25385.7  159.54
 5.0296  25600  160.033
 5.0716  25404.1  160.037
 5.1136  25616  160.558
 5.1556  26077  161.467
 5.1976  27394.4  165.491
 5.2396  26435.4  162.271
 5.2816  26398.8  162.618
 5.3236  26692.6  163.224
 5.3656  25918.3  161.744
 5.4076  25722.9  161.284
 5.4496  25819.3  161.076
 5.4916  25924.9  161.169
 5.5336  26067.5  161.615
 5.5756  25602.6  160.203
 5.6176  25911.5  160.606
 5.6596  26374.9  162.853
 5.7016  26393.4  162.332
 5.7436  26721.7  163.61
 5.7856  26447.9  162.828
 5.8276  26764.7  163.524
 5.8696  26708.4  163.417
 5.9116  26561.6  163.667
 5.9536  26901.7  164.469
 5.9956  27409.8  165.376
 6.0376  27185.9  165.333
 6.0796  27605.8  166.438
 6.1216  27772.7  167.138
 6.1636  27547.3  165.539
 6.2056  27782.4  166.901
 6.2476  28040.1  167.375
 6.2896  28188.5  167.675
 6.3316  28079.3  167.527
 6.3736  28289.3  168.041
 6.4156  28143.3  167.562
 6.4576  28500.3  168.178
 6.4996  28480.1  168.587
 6.5416  28674.6  169.301
 6.5836  28683  169.551
 6.6256  28719.7  169.229
 6.6676  29249.1  170.357
 6.7096  28956.3  170.342
 6.7516  29445.8  171.432
 6.7936  29562.7  171.211
 6.8356  30164.7  173.021
 6.8776  30274.8  174.128
 6.9196  30096.1  174.012
 6.9616  30592.6  174.865
 7.0036  30849.4  175.278
 7.0456  30803.6  174.456
 7.0876  30896  176.307
 7.1296  30760.9  175.149
 7.1716  30719.8  174.579
 7.2136  30336.3  173.271
 7.2556  30643.6  174.304
 7.2976  30662.4  174.849
 7.3396  30626.3  174.948
 7.3816  30432.4  174.611
 7.4236  30806.8  174.984
 7.4656  31006.7  175.045
 7.5076  31248.4  175.857
 7.5496  31121.2  176.027
 7.5916  31018.2  175.767
 7.6336  31455.7  176.901
 7.6756  31638  177.265
 7.7176  32061.5  178.757
 7.7596  31843.4  179.367
 7.8016  33023.7  184.828
 7.8436  32971.8  181.392
 7.8856  32776.4  180.474
 7.9276  33371.8  182.493
 7.9696  33597.1  183.412
 8.0116  34617  184.733
 8.0536  34870.4  185.662
 8.0956  35302.4  187.965
 8.1376  35378.1  187.656
 8.1796  35168.8  187.631
 8.2216  36121  188.91
 8.2636  36231.4  189.443
 8.3056  36079.8  189.808
 8.3476  36998  191.541
 8.3896  36572.2  190.515
 8.4316  36739.4  191.112
 8.4736  36811.6  190.767
 8.5156  36413  190.006
 8.5576  35813.1  189.395
 8.5996  35963.4  188.68
 8.6416  35858.7  189.644
 8.6836  35717.2  189.1
 8.7256  36272.5  190.017
 8.7676  36248.5  192.833
 8.8096  36228.9  190.132
 8.8516  35338.1  187.452
 8.8936  35374.7  187.38
 8.9356  34770.9  186.13
 8.9776  35034.5  186.918
 9.0196  34982.6  186.464
 9.0616  34895.3  185.719
 9.1036  34836.7  186.717
 9.1456  34832.3  186.073
 9.1876  34791.8  185.919
 9.2296  34600.6  184.821
 9.2716  33859.5  182.897
 9.3136  34109.4  183.554
 9.3556  34362.5  184.213
 9.3976  32671.1  180.142
 9.4396  33512.3  182.337
 9.4816  32656.3  179.86
 9.5236  32989.5  180.688
 9.5656  32739.3  180.312
 9.6076  32401.7  179.902
 9.6496  32636.5  180.478
 9.6916  32459.3  179.951
 9.7336  32450.3  179.718
 9.7756  32453.9  180.908
 9.8176  31614.9  178.111
 9.8596  31638.3  176.657
 9.9016  31205.6  175.44
 9.9436  31146.6  175.021
 9.9856  30827.4  174.504
 10.0276  30013.5  173.264
 10.0696  30287.4  173.116
 10.1116  29837  172.084
 10.1536  29326.9  170.291
 10.1956  28924.2  169.199
 10.2376  28960  168.827
 10.2796  28945.1  168.903
 10.3216  29093.2  169.453
 10.3636  28759.6  168.653
 10.4056  29142.6  170.155
 10.4476  29195.5  169.949
 10.4896  29726.8  170.942
 10.5316  28874.5  168.854
 10.5736  28085.2  167.257
 10.6156  27884.3  166.425
 10.6576  29268.4  169.047
 10.6996  27491.9  164.499
 10.7416  26990.3  163.228
 10.7836  27602.1  165.743
 10.8256  26932.6  164.147
 10.8676  26981  163.833
 10.9096  26439.5  162.228
 10.9516  26201.4  160.438
 10.9936  26386.2  161.204
 11.0356  26038.2  160.761
 11.0776  26175.5  160.501
 11.1196  25758.1  159.959
 11.1616  25375.7  158.456
 11.2036  25532.7  158.802
 11.2456  25997.8  160.945
 11.2876  25254.9  158.366
 11.3296  25353  158.568
 11.3716  25554.2  158.935
 11.4136  25451.2  159.459
 11.4556  25616.5  159.646
 11.4976  25983.6  159.768
 11.5396  26289.4  160.867
 11.5816  25607.9  159.22
 11.6236  25067  157.969
 11.6656  25024.1  156.792
 11.7076  24452.1  155.802
 11.7496  24303.4  159.144
 11.7916  24418.6  154.977
 11.8336  23990.8  154.5
 11.8756  23858.5  153.591
 11.9176  23961.3  153.585
 11.9596  23671.6  152.849
 12.0016  23785.6  153.99
 12.0436  23712.1  153.182
 12.0856  23205.6  152.051
 12.1276  23287.8  152.234
 12.1696  23377  151.686
 12.2116  23684.8  152.674
 12.2536  23530.9  152.97
 12.2956  23272.7  151.499
 12.3376  23071.7  151.054
 12.3796  23251.4  152.086
 12.4216  23217.8  151.215
 12.4636  23236.4  152.169
 12.5056  23181.2  151.281
 12.5476  23195.4  150.865
 12.5896  23082.9  151.112
 12.6316  23016.6  151.055
 12.6736  22918.2  151.205
 12.7156  22829.2  150.782
 12.7576  23209.3  152.266
 12.7996  23096.3  150.566
 12.8416  23168.9  151.838
 12.8836  23560.8  152.944
 12.9256  23483.6  151.732
 12.9676  23676.6  152.765
 13.0096  23396.8  152.944
 13.0516  23737.2  153.098
 13.0936  23356.9  151.986
 13.1356  23901  153.023
 13.1776  23400.3  152.367
 13.2196  23803  153.346
 13.2616  23705.2  153.333
 13.3036  23535.7  152.917
 13.3456  23400.4  152.466
 13.3876  23415.5  152.024
 13.4296  23739.9  153.218
 13.4716  23778.9  152.957
 13.5136  23704.7  152.875
 13.5556  23611.8  153.164
 13.5976  23736.2  153.723
 13.6396  23910.9  153.656
 13.6816  23276.9  151.971
 13.7236  24252.5  154.874
 13.7656  23782  153.916
 13.8076  23910.8  153.131
 13.8496  23372.2  152.165
 13.8916  23362.9  152.933
 13.9336  23282.2  151.908
 13.9756  23169.7  150.908
 14.0176  23183.3  151.622
 14.0596  23442.7  152.423
 14.1016  22874  150.964
 14.1436  22629  149.309
 14.1856  22414.1  148.882
 14.2276  22055.3  148.158
 14.2696  22399.7  149.145
 14.3116  22149.7  148.222
 14.3536  21821.1  147.291
 14.3956  21770  146.851
 14.4376  21943.2  147.219
 14.4796  21856.3  146.912
 14.5216  21434.9  146.28
 14.5636  21600.9  146.409
 14.6056  21500  145.654
 14.6476  21452.1  144.739
 14.6896  21073.4  143.982
 14.7316  20749.5  143.885
 14.7736  20781  143.152
 14.8156  20571.1  142.462
 14.8576  20531.3  142.176
 14.8996  20104.7  141.875
 14.9416  19740  140.581
 14.9836  19820.1  140.822
 15.0256  19358.8  138.129
 15.0676  19701  139.653
 15.1096  19332.5  138.084
 15.1516  19278.3  138.439
 15.1936  18972  136.776
 15.2356  18897  136.78
 15.2776  18672.4  135.554
 15.3196  18382.9  135.484
 15.3616  18482.5  135.612
 15.4036  18199.9  134.428
 15.4456  18551.8  135.381
 15.4876  18218.5  133.844
 15.5296  18160.1  133.906
 15.5716  17821.5  132.265
 15.6136  17775.8  132.415
 15.6556  18027.8  132.601
 15.6976  17936.8  132.339
 15.7396  17755.4  132.269
 15.7816  17436.2  130.597
 15.8236  17270.7  130.66
 15.8656  17097.8  129.798
 15.9076  16868.8  128.758
 15.9496  17159.7  132.624
 15.9916  17035.5  132.571
 16.0336  16856.3  128.822
 16.0756  16928.1  129.4
 16.1176  16729.5  128.552
 16.1596  16445.2  128.762
 16.2016  16483.6  127.676
 16.2436  16278.1  127.263
 16.2856  16208.1  126.542
 16.3276  15913.5  125.793
 16.3696  16272.3  127.026
 16.4116  15952.5  126.226
 16.4536  16335.6  127.52
 16.4956  16050  126.141
 16.5376  15961.6  125.976
 16.5796  15925.7  125.204
 16.6216  15796.9  124.995
 16.6636  15834.2  125.293
 16.7056  15878.1  125.336
 16.7476  15985.8  125.298
 16.7896  15807.8  125.333
 16.8316  15674.3  124.763
 16.8736  15900.7  125.919
 16.9156  15878.8  126.165
 16.9576  15506.8  125.457
 16.9996  15689.5  126.67
 17.0416  15782.6  125.425
 17.0836  15387.1  123.611
 17.1256  15400.5  123.678
 17.1676  15403  123.682
 17.2096  15221.2  122.826
 17.2516  15098.8  122.408
 17.2936  15190.8  122.808
 17.3356  14921.3  121.728
 17.3776  15047.5  122.418
 17.4196  15040.3  122.087
 17.4616  14808.7  121.067
 17.5036  14792.1  121.354
 17.5456  14590.9  121.157
 17.5876  14474.6  119.743
 17.6296  14662.7  120.329
 17.6716  14502.1  120.24
 17.7136  14499.4  120.373
 17.7556  14413.2  120.297
 17.7976  14523.3  120.363
 17.8396  14272.3  118.96
 17.8816  14253.4  119.414
 17.9236  14183  118.938
 17.9656  14433.7  120.677
 18.0076  14446.5  120.151
 18.0496  14450.7  119.31
 18.0916  15167.2  122.772
 18.1336  14734.3  121.111
 18.1756  14617.3  120.159
 18.2176  14794.7  121.124
 18.2596  14364  119.08
 18.3016  14669.5  120.597
 18.3436  14644.5  120.733
 18.3856  14271.5  119.087
 18.4276  14284.9  118.81
 18.4696  14287.5  118.922
 18.5116  14245  119.035
 18.5536  14271.9  119.505
 18.5956  14002.3  117.923
 18.6376  14004.9  118.336
 18.6796  13915.8  117.3
 18.7216  14002.9  118.216
 18.7636  13875.6  117.593
 18.8056  13751.5  117.007
 18.8476  13684.1  117.336
 18.8896  13709.3  116.789
 18.9316  13850  117.207
 18.9736  13678  116.344
 19.0156  13746.1  117.031
 19.0576  13753.2  115.946
 19.0996  13885.5  117.203
 19.1416  13434.9  115.671
 19.1836  13597.9  115.98
 19.2256  13429.4  115.458
 19.2676  13675.9  116.617
 19.3096  13652.9  116.752
 19.3516  13567.4  116.18
 19.3936  13585  116.32
 19.4356  13462.9  115.681
 19.4776  13499.6  115.928
 19.5196  13528.8  115.9
 19.5616  13295.6  115.153
 19.6036  13427  115.226
 19.6456  13549  115.869
 19.6876  13653.3  115.964
 19.7296  13564.4  116.037
 19.7716  13499.8  115.773
 19.8136  13593.8  116.531
 19.8556  13963.8  117.582
 19.8976  13771.5  116.833
 19.9396  13915.5  117.025
 19.9816  13992.7  117.584
 20.0236  14132.2  118.39
 20.0656  14180.3  118.583
 20.1076  13635.2  116.747
 20.1496  13601.4  116.603
 20.1916  13515.9  115.716
 20.2336  13390.5  115.159
 20.2756  13174  114.637
 20.3176  13199.1  114.501
 20.3596  13214.2  114.539
 20.4016  13136.5  114.013
 20.4436  13101.3  114.417
 20.4856  12941.3  113.503
 20.5276  13022.4  114.304
 20.5696  12901.9  113.352
 20.6116  12905.6  113.538
 20.6536  12815.4  112.697
 20.6956  12941.5  113.335
 20.7376  12792.2  112.898
 20.7796  12800.9  112.632
 20.8216  12952.8  113.014
 20.8636  12685.2  112.196
 20.9056  13044.2  113.723
 20.9476  12674.8  111.949
 20.9896  13163.6  113.948
 21.0316  12956.4  112.948
 21.0736  12700.5  112.336
 21.1156  12809  112.974
 21.1576  12852.9  113.217
 21.1996  12751.7  112.753
 21.2416  12513.7  111.533
 21.2836  12767.1  112.609
 21.3256  12508.3  111.55
 21.3676  12600.4  111.519
 21.4096  12691.5  112.28
 21.4516  12564.1  111.544
 21.4936  12320.2  110.702
 21.5356  12523.7  111.558
 21.5776  12589.1  111.683
 21.6196  12527.4  111.441
 21.6616  12519.7  111.499
 21.7036  12388  110.698
 21.7456  12361.1  110.648
 21.7876  12348.5  110.349
 21.8296  12252  109.775
 21.8716  12205.3  109.791
 21.9136  12477.5  111.204
 21.9556  12471.8  110.856
 21.9976  12272.6  109.98
 22.0396  12181.7  109.827
 22.0816  12192.9  110.405
 22.1236  12428.1  110.925
 22.1656  12290.7  110.487
 22.2076  12405.6  110.421
 22.2496  12286.8  109.918
 22.2916  12365.4  110.148
 22.3336  12310.5  110.606
 22.3756  12190.9  109.812
 22.4176  12159  109.527
 22.4596  12106.6  109.869
 22.5016  12395.8  110.648
 22.5436  12346.6  110.335
 22.5856  12242.6  110.11
 22.6276  12190.6  110.009
 22.6696  12130  110.075
 22.7116  12195.6  109.9
 22.7536  12421.2  110.888
 22.7956  12301.5  109.693
 22.8376  12178.9  109.66
 22.8796  12172.8  109.434
 22.9216  12336.3  110.709
 22.9636  12213.9  109.321
 23.0056  12178.2  109.294
 23.0476  12206.9  109.98
 23.0896  12645.7  111.322
 23.1316  12520.8  111.201
 23.1736  12107.5  112.244
 23.2156  12399  110.998
 23.2576  12261.4  110.508
 23.2996  12130.6  109.707
 23.3416  12196.9  110.506
 23.3836  12065.6  109.161
 23.4256  12165.6  109.737
 23.4676  12151.6  109.375
 23.5096  12202.7  110.271
 23.5516  12073.8  108.984
 23.5936  12169  110.298
 23.6356  12258.7  110.379
 23.6776  12170.3  110.19
 23.7196  12021.9  109.313
 23.7616  12235.1  109.98
 23.8036  12331.6  110.457
 23.8456  12169.5  109.306
 23.8876  12021.7  108.987
 23.9296  11868.8  108.773
 23.9716  11907.2  108.149
 24.0136  11964.1  109.286
 24.0556  11926  108.86
 24.0976  11823.3  108.199
 24.1396  11728.1  110.361
 24.1816  11831.3  109.613
 24.2236  11810.6  108.809
 24.2656  11701.9  107.787
 24.3076  11488.4  107.051
 24.3496  11566.1  107.297
 24.3916  11679.3  107.873
 24.4336  11668.7  108.03
 24.4756  11671.6  107.916
 24.5176  11401.3  106.312
 24.5596  11272.2  106.024
 24.6016  11253.7  106.026
 24.6436  11288.8  105.692
 24.6856  11411.3  106.029
 24.7276  11311.7  105.864
 24.7696  11297.7  105.922
 24.8116  11128.1  105.301
 24.8536  11278  106.002
 24.8956  11052.6  104.678
 24.9376  11026.2  104.737
 24.9796  10967.9  104.568
 25.0216  10810.9  103.926
 25.0636  10934.8  104.17
 25.1056  10998.2  104.899
 25.1476  10915.4  106.42
 25.1896  11042.4  105.522
 25.2316  11084.7  105.002
 25.2736  10961.2  104.081
 25.3156  10874.3  103.739
 25.3576  10766.4  103.629
 25.3996  10809.7  103.825
 25.4416  10754.1  103.541
 25.4836  10650.2  103.554
 25.5256  10704  103.189
 25.5676  10876.7  103.75
 25.6096  10591.5  102.941
 25.6516  10716.5  103.056
 25.6936  10633.9  102.968
 25.7356  10671.4  103.282
 25.7776  10713.7  103.172
 25.8196  10643.3  102.99
 25.8616  10707.3  103.221
 25.9036  10754.5  102.924
 25.9456  10572.4  102.633
 25.9876  10596.6  102.683
 26.0296  10730  103.066
 26.0716  10520.2  102.382
 26.1136  10650.8  102.955
 26.1556  10742.1  102.783
 26.1976  10582.2  102.928
 26.2396  10594.9  102.406
 26.2816  10641.1  102.983
 26.3236  10628.4  103.078
 26.3656  10497.2  102.17
 26.4076  10734.9  103.528
 26.4496  10940.4  104
 26.4916  10619.9  102.478
 26.5336  10639.2  102.89
 26.5756  10783.7  103.445
 26.6176  10543.5  102.339
 26.6596  10319.6  101.552
 26.7016  10321.3  101.316
 26.7436  10335.3  101.518
 26.7856  10333.7  101.49
 26.8276  10368.7  101.621
 26.8696  10364.7  101.476
 26.9116  10343.4  101.314
 26.9536  10061.9  99.9673
 26.9956  10195.5  100.664
 27.0376  10132.1  100.56
 27.0796  10219.1  100.806
 27.1216  10131  100.37
 27.1636  10054.6  100.151
 27.2056  10057  100.048
 27.2476  10006  99.7956
 27.2896  10138.7  100.561
 27.3316  9974.09  99.4563
 27.3736  10086.2  100.278
 27.4156  10018.5  99.7893
 27.4576  10046.4  100.157
 27.4996  9967.37  99.3624
 27.5416  10013.4  99.9066
 27.5836  9944.93  99.3804
 27.6256  10249  101.03
 27.6676  10167.3  100.671
 27.7096  9944.19  99.4239
 27.7516  10103.9  100.374
 27.7936  10039.7  100.228
 27.8356  9973.34  99.5145
 27.8776  9894.72  99.1694
 27.9196  9909.54  99.0901
 27.9616  10014.5  99.813
 28.0036  9879.04  99.1006
 28.0456  9904.12  99.3572
 28.0876  9749.75  98.6729
 28.1296  9842.71  98.9825
 28.1716  9773.79  98.6499
 28.2136  9879.44  99.141
 28.2556  9664  98.1679
 28.2976  9645.95  98.0669
 28.3396  9785.95  98.5672
 28.3816  9916.18  99.2138
 28.4236  9790.74  98.7362
 28.4656  9664.76  98.1287
 28.5076  9638.64  97.6407
 28.5496  9656.03  97.9913
 28.5916  9631.57  97.6783
 28.6336  9512.66  97.4087
 28.6756  9701.91  97.5831
 28.7176  9563.1  97.417
 28.7596  9545.75  97.2283
 28.8016  9534.47  97.2057
 28.8436  9471.07  97.1217
 28.8856  9581.48  97.5409
 28.9276  9616  97.9541
 28.9696  9497.6  97.016
 29.0116  9532.62  97.3782
 29.0536  9358.33  96.6823
 29.0956  9485.03  97.0515
 29.1376  9464.68  96.9147
 29.1796  9362.64  96.432
 29.2216  9405.4  96.4969
 29.2636  9419.59  96.5655
 29.3056  9358.19  96.1234
 29.3476  9381.35  96.7539
 29.3896  9466.75  97.2887
 29.4316  9502.79  96.8193
 29.4736  9415.76  96.4376
 29.5156  9541.71  96.9978
 29.5576  9275.81  96.3653
 29.5996  9381.86  96.1849
 29.6416  9398.22  96.38
 29.6836  9479.09  96.7258
 29.7256  9372.84  96.7402
 29.7676  9367.6  96.3775
 29.8096  9415.31  96.5692
 29.8516  9235.81  95.9688
 29.8936  9303.42  96.4133
 29.9356  9397.82  96.6587
 29.9776  9157.73  95.5665
 30.0196  9145.57  94.9
 30.0616  9315.86  96.1535
 30.1036  9271.34  95.746
 30.1456  9182.55  95.5203
 30.1876  9239.88  95.7965
 30.2296  9176.2  95.4153
 30.2716  9304.28  95.7202
 30.3136  9367.89  96.8991
 30.3556  9277.37  96.4455
 30.3976  9151.23  97.2806
 30.4396  9320.74  95.5525
 30.4816  9276.51  94.9263
 30.5236  9267.89  94.902
 30.5656  9268  95.545
 30.6076  9170.71  94.8236
 30.6496  9115.23  94.5724
 30.6916  9223.9  95.2258
 30.7336  9122.32  94.851
 30.7756  9120.61  94.9317
 30.8176  9136.22  94.9302
 30.8596  9157.78  94.8167
 30.9016  9124.79  94.5204
 30.9436  9028.22  94.2356
 30.9856  9107.42  94.7567
 31.0276  8971.19  93.6536
 31.0696  8982.98  94.2851
 31.1116  9015.04  94.4298
 31.1536  9166.5  95.104
 31.1956  9185.65  95.2884
 31.2376  8935.49  93.988
 31.2796  9042.64  94.0956
 31.3216  8961.99  93.6244
 31.3636  9045.78  94.7375
 31.4056  9039.36  96.0095
 31.4476  8975.89  93.5904
 31.4896  8879.92  93.5789
 31.5316  8960.29  93.4546
 31.5736  9104.04  93.9796
 31.6156  8932.14  93.1054
 31.6576  9048.82  93.8095
 31.6996  9071.91  93.6068
 31.7416  8888.98  93.5682
 31.7836  8976.83  93.1901
 31.8256  8856.72  92.9072
 31.8676  9040.72  93.7853
 31.9096  8831  92.9018
 31.9516  8693.97  92.465
 31.9936  8709.22  92.382
 32.0356  8920.36  93.5609
 32.0776  8870.67  93.1892
 32.1196  8886.05  93.2786
 32.1616  9082.84  93.8477
 32.2036  8773.24  92.7348
 32.2456  8860.68  93.5722
 32.2876  8794.43  92.5595
 32.3296  8745.38  92.4333
 32.3716  8758.21  92.5982
 32.4136  8835.65  93.2238
 32.4556  8797.31  92.4599
 32.4976  8842.24  92.5942
 32.5396  8711.88  91.9389
 32.5816  8603.08  91.4815
 32.6236  8744.78  92.3003
 32.6656  8823.8  93.2497
 32.7076  8695.77  92.2236
 32.7496  8741.25  92.1451
 32.7916  8784.63  92.3311
 32.8336  8775.46  92.3775
 32.8756  8701.23  91.7143
 32.9176  8515.37  91.1977
 32.9596  8588.01  91.6638
 33.0016  8711.55  92.1154
 33.0436  8821.31  92.8693
 33.0856  8627.14  91.9092
 33.1276  8568.11  91.3285
 33.1696  8734.99  92.0554
 33.2116  8628.58  91.7211
 33.2536  8691.45  92.0561
 33.2956  8665.36  91.9994
 33.3376  8562.12  91.2717
 33.3796  8679.52  92.015
 33.4216  8655.58  91.497
 33.4636  8660.45  91.6686
 33.5056  8514.22  91.1269
 33.5476  8547.27  91.297
 33.5896  8703.28  91.8672
 33.6316  8475.64  91.0027
 33.6736  8523.22  91.496
 33.7156  8415.69  90.9586
 33.7576  8614.27  91.6537
 33.7996  8656.6  91.6561
 33.8416  8324.21  90.0553
 33.8836  8439.98  90.461
 33.9256  8409.91  90.363
 33.9676  8622.02  91.3867
 34.0096  8355.8  90.2776
 34.0516  8423.11  90.2808
 34.0936  8344.92  90.1246
 34.1356  8514.08  90.7688
 34.1776  8377.29  90.0526
 34.2196  8275.49  89.6819
 34.2616  8284.45  89.8571
 34.3036  8310.08  90.2476
 34.3456  8407.04  90.5298
 34.3876  8449.68  90.8049
 34.4296  8350.81  89.8827
 34.4716  8410.58  90.343
 34.5136  8424.63  90.6275
 34.5556  8325.66  90.3398
 34.5976  8336.64  90.2449
 34.6396  8284.33  89.6381
 34.6816  8308.45  89.8873
 34.7236  8418.05  90.265
 34.7656  8325.76  89.9533
 34.8076  8323.55  90.2554
 34.8496  8278.54  89.8783
 34.8916  8269.89  89.7094
 34.9336  8450.25  90.6374
 34.9756  8590.63  91.31
 35.0176  8405.09  90.8434
 35.0596  8212.54  89.6274
 35.1016  8289.41  89.8216
 35.1436  8335.99  89.7632
 35.1856  8195.18  89.1276
 35.2276  8250.74  89.5997
 35.2696  8182.46  89.4147
 35.3116  8272.45  89.9995
 35.3536  8103.91  88.8226
 35.3956  8244.47  89.2759
 35.4376  8176.18  89.4486
 35.4796  8222.71  89.7625
 35.5216  8119.27  89.151
 35.5636  8003.78  89.2431
 35.6056  8183.38  89.2719
 35.6476  8242.55  89.4966
 35.6896  8169.66  89.2636
 35.7316  8114.29  88.8588
 35.7736  8085.71  88.8939
 35.8156  8027.36  88.5742
 35.8576  8253.8  90.0626
 35.8996  8277.21  90.1528
 35.9416  8196.71  89.2248
 35.9836  8145  89.3846
 36.0256  8184.8  89.5191
 36.0676  8162.15  88.9466
 36.1096  7933.21  88.0375
 36.1516  8203.12  89.4115
 36.1936  8160.95  89.0321
 36.2356  8164.03  89.6716
 36.2776  8099.92  88.808
 36.3196  8135.91  88.6862
 36.3616  8082.84  88.5302
 36.4036  8079.08  88.5632
 36.4456  8019.65  88.4445
 36.4876  8018.35  88.3771
 36.5296  8157.87  89.1859
 36.5716  8030.57  89.2539
 36.6136  8296.05  89.4876
 36.6556  8172.44  89.0205
 36.6976  8115.95  89.2039
 36.7396  8089.41  88.7846
 36.7816  8018.64  88.7717
 36.8236  8123.11  89.267
 36.8656  8030.64  88.8377
 36.9076  8027.36  88.8188
 36.9496  7968.24  88.356
 36.9916  8086.88  88.6405
 37.0336  8120.93  89.1448
 37.0756  7955.26  88.0217
 37.1176  7910.84  88.0422
 37.1596  7969.99  88.3781
 37.2016  8020.84  88.8327
 37.2436  7849.75  87.2572
 37.2856  7886.39  87.714
 37.3276  8004.42  87.7281
 37.3696  7972.2  88.4243
 37.4116  7983.02  88.3883
 37.4536  8024.53  88.4905
 37.4956  7878.62  87.7241
 37.5376  7976.14  89.8065
 37.5796  7868.95  89.1518
 37.6216  7738.69  86.7147
 37.6636  7721.57  86.537
 37.7056  7824.27  87.2971
 37.7476  7922.65  87.3886
 37.7896  7859.17  87.5292
 37.8316  7686.45  86.731
 37.8736  7918.47  87.5562
 37.9156  7802.3  86.9151
 37.9576  7780.04  86.6861
 37.9996  7727.23  86.111
 38.0416  7743.5  86.9961
 38.0836  7727.3  86.812
 38.1256  7746.84  86.873
 38.1676  7717.25  86.8516
 38.2096  7900.59  87.5064
 38.2516  7910.61  87.758
 38.2936  7767.06  86.7645
 38.3356  7876.33  87.2734
 38.3776  7760.78  86.9155
 38.4196  7756.13  86.7454
 38.4616  7763.46  87.0139
 38.5036  7807.93  87.1134
 38.5456  7711.79  87.3964
 38.5876  7700.41  87.357
 38.6296  7566.65  85.6009
 38.6716  7669.44  85.9739
 38.7136  7631.83  85.7041
 38.7556  7666.47  86.4001
 38.7976  7680.56  86.4184
 38.8396  7614.21  86.4879
 38.8816  7677.9  86.6166
 38.9236  7562.51  85.7939
 38.9656  7608.2  85.9687
 39.0076  7673.82  85.7561
 39.0496  7693.78  86.3972
 39.0916  7603.74  85.5367
 39.1336  7644.7  86.1834
 39.1756  7572.88  85.8433
 39.2176  7690.67  87.027
 39.2596  7593.89  86.4046
 39.3016  7584.7  85.9273
 39.3436  7542.5  86.11
 39.3856  7700.5  86.4637
 39.4276  7650.69  86.6762
 39.4696  7721.85  86.6978
 39.5116  7515.09  86.0307
 39.5536  7701.46  87.5146
 39.5956  7739.92  86.8413
 39.6376  7687.64  86.5546
 39.6796  7762.04  86.7155
 39.7216  7740.8  86.6872
 39.7636  7681.43  86.9197
 39.8056  7730.95  86.9874
 39.8476  7630.16  86.6619
 39.8896  7560.89  85.9074
 39.9316  7609.22  86.4256
 39.9736  7684.71  86.4308
 40.0156  7629.56  85.9519
 40.0576  7665.26  86.5068
 40.0996  7844.04  86.696
 40.1416  7713.56  86.7525
 40.1836  7693.62  86.5359
 40.2256  7682.29  86.5157
 40.2676  7695.05  86.7572
 40.3096  7808.8  87.2548
 40.3516  7754.45  87.0589
 40.3936  7749.54  86.5985
 40.4356  7737.97  86.7243
 40.4776  7684.95  86.6696
 40.5196  7801.19  87.6092
 40.5616  7808.81  87.3024
 40.6036  7691.43  86.8929
 40.6456  7774.73  86.9762
 40.6876  7753.07  86.8313
 40.7296  7767.54  87.0505
 40.7716  7768.8  87.1885
 40.8136  7682.7  86.6495
 40.8556  7671.32  86.7164
 40.8976  7640.47  86.4651
 40.9396  7637.29  86.7919
 40.9816  7770.48  86.8381
 41.0236  7768.62  86.6051
 41.0656  7743.31  87.0013
 41.1076  7786.44  87.013
 41.1496  7752.92  86.7364
 41.1916  7771.7  87.1631
 41.2336  7608.77  86.2352
 41.2756  7672.45  86.2021
 41.3176  7691  86.915
 41.3596  7681.6  86.5951
 41.4016  7738.28  87.1755
 41.4436  7757.39  87.0671
 41.4856  7752.12  87.1917
 41.5276  7664.97  86.7244
 41.5696  7737.44  86.755
 41.6116  7642.33  86.6273
 41.6536  7677.02  86.6826
 41.6956  7768.27  87.1778
 41.7376  7679.49  86.7799
 41.7796  7661.53  86.6035
 41.8216  7691.45  86.9606
 41.8636  7648.57  86.6573
 41.9056  7642.45  86.4175
 41.9476  7683.52  86.8729
 41.9896  7762.47  86.9914
 42.0316  7746.13  86.9859
 42.0736  7683.27  86.7716
 42.1156  7549.31  85.8227
 42.1576  7710.75  86.8308
 42.1996  7767.47  87.2921
 42.2416  7703.68  86.5171
 42.2836  7649.94  86.3257
 42.3256  7592.09  86.1156
 42.3676  7636.75  86.1764
 42.4096  7672.42  86.3376
 42.4516  7604.39  86.0449
 42.4936  7499.32  85.5141
 42.5356  7549.64  85.9306
 42.5776  7650.96  86.4424
 42.6196  7698.01  86.7635
 42.6616  7469.72  85.6317
 42.7036  7655.87  86.0877
 42.7456  7592.25  86.0828
 42.7876  7457.28  85.4057
 42.8296  7554.13  85.8005
 42.8716  7465.07  85.4467
 42.9136  7524.54  85.5377
 42.9556  7552.02  85.8627
 42.9976  7569.58  85.9245
 43.0396  7538.8  85.4906
 43.0816  7582.68  86.1135
 43.1236  7425.5  85.2734
 43.1656  7505.44  85.5648
 43.2076  7521.43  85.761
 43.2496  7424.57  85.0118
 43.2916  7481.95  85.7094
 43.3336  7511.08  85.7159
 43.3756  7503.29  85.4215
 43.4176  7406.88  84.9591
 43.4596  7416.02  84.8702
 43.5016  7437.36  85.3911
 43.5436  7478.4  85.5225
 43.5856  7494.81  85.6483
 43.6276  7418.72  85.1064
 43.6696  7463.86  85.5025
 43.7116  7511.03  85.3943
 43.7536  7506.69  85.8489
 43.7956  7381.28  86.2999
 43.8376  7506.26  85.5818
 43.8796  7362.7  84.8383
 43.9216  7357.76  84.7291
 43.9636  7370.46  84.9104
 44.0056  7463.72  85.6693
 44.0476  7372.1  84.7835
 44.0896  7331.62  84.887
 44.1316  7368.93  84.7734
 44.1736  7298.85  84.3433
 44.2156  7420.52  84.9107
 44.2576  7327.38  84.6941
 44.2996  7427.34  85.2386
 44.3416  7325.87  84.4227
 44.3836  7217.44  84.1068
 44.4256  7224.67  83.8068
 44.4676  7242.09  84.0634
 44.5096  7178.81  83.8337
 44.5516  7256.73  84.245
 44.5936  7247.12  84.152
 44.6356  7387.07  84.7
 44.6776  7306  84.5473
 44.7196  7244.91  84.4984
 44.7616  7244.4  85.794
 44.8036  7170.29  84.0221
 44.8456  7182.86  84.0908
 44.8876  7135.84  83.6737
 44.9296  7304.83  84.1207
 44.9716  7233.85  84.1207
 45.0136  7251.91  84.173
 45.0556  7187.07  83.8764
 45.0976  7165.09  83.8061
 45.1396  7173.03  83.6213
 45.1816  7165.83  83.5062
 45.2236  7188.42  83.5349
 45.2656  7149.43  83.8033
 45.3076  7078.28  83.1767
 45.3496  7094.33  83.5615
 45.3916  7056.51  83.6049
 45.4336  7172.78  84.1364
 45.4756  7056.83  83.3196
 45.5176  7135.72  83.4056
 45.5596  7161.96  83.6788
 45.6016  7066.32  83.5209
 45.6436  7134.14  83.1213
 45.6856  7036.8  83.1906
 45.7276  7012.96  84.3341
 45.7696  7074.89  84.3741
 45.8116  7152.44  84.287
 45.8536  6974.29  83.1297
 45.8956  7119.24  83.354
 45.9376  7209.27  83.3517
 45.9796  7118.45  83.5085
 46.0216  7017.96  83.2382
 46.0636  7104.09  82.9127
 46.1056  7173.92  83.3014
 46.1476  6989.37  82.8003
 46.1896  7034.34  83.2134
 46.2316  7053.6  83.1947
 46.2736  6975  82.9383
 46.3156  7011.76  82.9071
 46.3576  7055.55  83.3647
 46.3996  7009.33  83.2418
 46.4416  7170.4  83.7497
 46.4836  7072.84  83.5535
 46.5256  7064.87  83.4482
 46.5676  7042.66  83.4297
 46.6096  6990.62  83.0605
 46.6516  7057.8  82.5201
 46.6936  7152.9  83.5583
 46.7356  7176.95  83.8064
 46.7776  6996.19  83.562
 46.8196  6939.84  82.974
 46.8616  6842.88  82.1983
 46.9036  6908.49  82.2593
 46.9456  6902.72  81.871
 46.9876  6978.03  82.4024
 47.0296  6962.83  82.9859
 47.0716  6808.63  81.8893
 47.1136  6945.98  82.4023
 47.1556  6899.87  81.9896
 47.1976  6979.83  82.6099
 47.2396  6930.73  82.6374
 47.2816  6898.41  82.1493
 47.3236  6973.57  82.9662
 47.3656  6893.16  82.4133
 47.4076  6908.84  82.2499
 47.4496  6858.16  82.1126
 47.4916  6860.48  82.3095
 47.5336  6843.81  82.0309
 47.5756  6860.12  82.2412
 47.6176  6886.62  82.2984
 47.6596  6816.06  81.5968
 47.7016  6947.96  82.206
 47.7436  6932.02  82.4389
 47.7856  6895.36  82.2498
 47.8276  6882.39  82.2132
 47.8696  6790.08  81.7495
 47.9116  6904.05  82.151
 47.9536  7013.33  82.7414
 47.9956  6812.57  82.2418
 48.0376  6654.57  81.0633
 48.0796  6908  82.7209
 48.1216  6821.22  82.0214
 48.1636  6944.32  82.3428
 48.2056  6798.69  81.7308
 48.2476  6932.41  82.8341
 48.2896  6768.62  81.7575
 48.3316  6750.76  81.5985
 48.3736  6659.82  81.0581
 48.4156  6690.94  81.1098
 48.4576  6711.9  81.5255
 48.4996  6860.73  81.8905
 48.5416  6835.2  82.0566
 48.5836  6693.94  80.885
 48.6256  6800.85  81.7379
 48.6676  6824.54  82.3803
 48.7096  6807.59  81.5558
 48.7516  6820.82  81.7864
 48.7936  6650.56  80.8223
 48.8356  6763.54  81.5557
 48.8776  6809.81  82.3185
 48.9196  6789.43  81.6601
 48.9616  6741.23  81.7314
 49.0036  6719.35  81.9377
 49.0456  6651.94  81.5054
 49.0876  6678.4  81.3156
 49.1296  6672.58  81.3385
 49.1716  6600.35  80.7763
 49.2136  6682.11  81.2105
 49.2556  6802.64  81.9583
 49.2976  6555.25  80.5249
 49.3396  6674.47  81.3119
 49.3816  6822.04  81.6493
 49.4236  6643.79  80.9737
 49.4656  6621.04  80.8626
 49.5076  6666.36  80.8943
 49.5496  6597.45  80.5332
 49.5916  6677.61  80.9388
 49.6336  6569.84  80.4846
 49.6756  6665.07  81.2957
 49.7176  6549.07  80.5242
 49.7596  6621.27  80.7409
 49.8016  6597.92  80.5299
 49.8436  6591.36  80.767
 49.8856  6658.11  81.1806
 49.9276  6515.64  80.3956
 49.9696  6553.7  80.6251
 50.0116  6538.95  80.6494
 50.0536  6637.35  81.2147
 50.0956  6626.14  81.2164
 50.1376  6548.38  80.4407
 50.1796  6549.45  80.7116
 50.2216  6492.53  80.358
 50.2636  6568.67  80.4544
 50.3056  6495.02  80.1671
 50.3476  6563.88  80.613
 50.3896  6480.28  80.0673
 50.4316  6586.53  80.5656
 50.4736  6474.82  80.0907
 50.5156  6647.41  81.14
 50.5576  6624.5  80.7693
 50.5996  6530.3  80.4651
 50.6416  6432.66  79.7912
 50.6836  6515.72  80.3655
 50.7256  6520.69  80.3131
 50.7676  6636.68  81.3032
 50.8096  6441.83  79.6943
 50.8516  6510.4  80.5247
 50.8936  6460.61  80.0015
 50.9356  6576.82  80.8217
 50.9776  6513.46  80.5793
 51.0196  6410.88  80.0628
 51.0616  6327.07  78.8881
 51.1036  6464.52  80.0827
 51.1456  6551.57  80.5355
 51.1876  6432.27  79.1655
 51.2296  6480.55  80.083
 51.2716  6391.5  79.2431
 51.3136  6415.5  79.8344
 51.3556  6406.17  79.4078
 51.3976  6334.62  79.1149
 51.4396  6261.45  78.9513
 51.4816  6336.92  79.281
 51.5236  6461.91  80.1394
 51.5656  6329.59  78.932
 51.6076  6385.1  79.3581
 51.6496  6462.69  80.0284
 51.6916  6246.35  79.0134
 51.7336  6330.41  79.6336
 51.7756  6316.92  79.2643
 51.8176  6296.29  79.2359
 51.8596  6345.91  79.5594
 51.9016  6424.5  79.6641
 51.9436  6327.38  80.486
 51.9856  6314.22  80.8246
 52.0276  6332.03  79.4898
 52.0696  6269.96  79.1621
 52.1116  6331.02  79.6571
 52.1536  6332.67  79.5117
 52.1956  6380.82  79.3398
 52.2376  6463.34  80.0167
 52.2796  6329.12  78.9988
 52.3216  6282.92  79.3822
 52.3636  6254.86  78.7971
 52.4056  6244.42  78.5754
 52.4476  6183.72  78.5626
 52.4896  6219.21  78.8391
 52.5316  6190.2  78.7009
 52.5736  6241.09  78.7545
 52.6156  6304.94  79.5245
 52.6576  6342.65  79.2214
 52.6996  6045.56  78.279
 52.7416  6234.31  79.3452
 52.7836  6281.57  79.5165
 52.8256  6295.41  78.8565
 52.8676  6127.97  78.36
 52.9096  6154.07  78.6105
 52.9516  6188.25  79.1803
 52.9936  6126.54  79.1677
 53.0356  6066.52  77.8162
 53.0776  6106.51  78.3488
 53.1196  6106.07  78.4449
 53.1616  6116.28  78.5577
 53.2036  6120.07  78.5356
 53.2456  6077.32  78.3608
 53.2876  6055.54  77.936
 53.3296  6119.05  78.6592
 53.3716  6074.63  78.1325
 53.4136  6095.97  78.4126
 53.4556  6002.05  77.8345
 53.4976  6074.66  78.1563
 53.5396  5982.31  77.9351
 53.5816  6013.33  77.7877
 53.6236  5910.71  77.4402
 53.6656  6024.67  77.829
 53.7076  6108.57  78.3326
 53.7496  6080.63  78.2727
 53.7916  6121.25  78.6563
 53.8336  6039.77  78.0326
 53.8756  5917.11  77.7617
 53.9176  6045.2  77.9665
 53.9596  6075.55  78.906
 54.0016  5998.57  77.7581
 54.0436  6109.25  78.681
 54.0856  6023.97  77.5757
 54.1276  5980.12  77.4857
 54.1696  6024.3  77.9349
 54.2116  6100.82  78.1963
 54.2536  5991.39  77.3119
 54.2956  6151.5  78.3823
 54.3376  5999  77.8764
 54.3796  6017.34  77.892
 54.4216  6147.57  78.78
 54.4636  5969.65  77.5923
 54.5056  6028.4  77.7972
 54.5476  6004.74  77.964
 54.5896  6014.05  77.8626
 54.6316  6042.02  77.9065
 54.6736  6036.92  77.8976
 54.7156  6033.51  77.9537
 54.7576  5992.65  77.6817
 54.7996  5996.64  77.8573
 54.8416  6070.31  78.362
 54.8836  5948.91  77.6899
 54.9256  5962.05  77.5297
 54.9676  6079.2  78.1471
 55.0096  6024.43  77.8651
 55.0516  6000.94  77.8696
 55.0936  5976.42  77.4205
 55.1356  5961.97  77.3644
 55.1776  5978.09  77.7246
 55.2196  6007.8  77.7096
 55.2616  5941.19  77.4848
 55.3036  5938.29  77.6269
 55.3456  6017.32  78.2852
 55.3876  6017.44  78.0347
 55.4296  6037.41  78.1388
 55.4716  5983.11  77.8195
 55.5136  6010.61  77.7619
 55.5556  5961.96  77.5176
 55.5976  5955.55  77.5249
 55.6396  6031.37  77.8922
 55.6816  5995.87  77.6212
 55.7236  5954.72  77.3971
 55.7656  6009.93  77.5175
 55.8076  6023.29  77.5885
 55.8496  5937.52  77.4549
 55.8916  5985.19  77.822
 55.9336  5840.84  76.7276
 55.9756  5961.9  77.4181
 56.0176  5832.51  76.7198
 56.0596  5916.08  77.242
 56.1016  5963.98  77.6005
 56.1436  5894.81  77.3814
 56.1856  5913.71  77.2426
 56.2276  5941.23  77.4852
 56.2696  5927.69  77.3595
 56.3116  5896.28  77.5585
 56.3536  5944.75  77.5408
 56.3956  5968.32  77.6852
 56.4376  5943.68  77.5509
 56.4796  6026.2  77.8959
 56.5216  6011.87  78.1676
 56.5636  5993.85  77.653
 56.6056  5935.26  77.5002
 56.6476  5925.64  77.0745
 56.6896  5921.42  77.4845
 56.7316  5914.9  77.3533
 56.7736  5956.92  77.6249
 56.8156  5960.57  77.6452
 56.8576  5904.47  77.222
 56.8996  5853.41  76.8318
 56.9416  5923.35  77.5818
 56.9836  5806.38  76.3378
 57.0256  5769.77  76.4073
 57.0676  5862.51  77.137
 57.1096  5971.03  77.6441
 57.1516  5873.56  77.0296
 57.1936  5864.45  76.7615
 57.2356  5909.09  77.3641
 57.2776  5913.68  77.3512
 57.3196  5935.34  77.8588
 57.3616  5872.53  76.9491
 57.4036  5998.47  77.8308
 57.4456  5851.41  76.8375
 57.4876  5967.28  77.4552
 57.5296  5862.83  77.0084
 57.5716  5903.57  77.3623
 57.6136  5879.55  77.0242
 57.6556  5862.87  77.0544
 57.6976  5929.52  77.3212
 57.7396  5915.87  77.5993
 57.7816  5816.48  77.2923
 57.8236  5798.42  76.9719
 57.8656  5841.91  76.924
 57.9076  5865.31  77.11
 57.9496  5896.97  77.6581
 57.9916  5834.52  76.7702
 58.0336  5878.32  77.325
 58.0756  5930.2  77.2615
 58.1176  5968.38  77.5554
 58.1596  5816.06  77.1119
 58.2016  5926.84  77.0735
 58.2436  5959.81  77.691
 58.2856  5909.03  77.2873
 58.3276  5873.5  77.4218
 58.3696  5919.27  77.4756
 58.4116  5871.12  77.0285
 58.4536  5861.29  76.8469
 58.4956  5811.78  76.7035
 58.5376  5848.4  76.5241
 58.5796  5871.18  77.0896
 58.6216  5903.02  77.1186
 58.6636  5931.54  77.5142
 58.7056  5945.42  77.4622
 58.7476  5799.73  76.9433
 58.7896  5832.11  76.8067
 58.8316  5932.85  77.4616
 58.8736  6042.19  78.1862
 58.9156  5815.72  76.7463
 58.9576  6020.35  78.4041
 58.9996  6031.41  77.7235
 59.0416  6017.4  77.9954
 59.0836  5908.69  77.2134
 59.1256  5835.18  77.419
 59.1676  5760.18  77.2203
 59.2096  5890.01  77.4077
 59.2516  6047.85  78.0188
 59.2936  5887.93  77.3043
 59.3356  5781.85  76.4852
 59.3776  5934.04  77.6527
 59.4196  5906.62  77.4102
 59.4616  5904.74  77.259
 59.5036  5823.34  76.7587
 59.5456  5999.74  77.6077
 59.5876  5976.34  77.6463
 59.6296  5934.1  77.44
 59.6716  5883.81  77.1684
 59.7136  6026.89  78.0893
 59.7556  5904.47  77.4271
 59.7976  5818.65  76.6093
 59.8396  5785.74  76.2888
 59.8816  5892.12  77.5242
 59.9236  5817.13  76.681
 59.9656  5940.6  77.7492
 60.0076  6040.24  77.7557
 60.0496  5960.81  77.743
 60.0916  6081.4  77.9419
 60.1336  6036.19  78.7586
 60.1756  5747.29  78.006
 60.1996  0.0000000E+00  0.0000000E+00