File: docs/examples/opeando_xrd/IS17_D/Data/IS17_D/17_Da_f00140.xye
# /beamlines/bl04/projects/cycle2025-II/20250340211-lsimonelli/DATA/IS17_D/17_Da_f00140.xye : mythproc.py merge -s 0.006 -l 0.5 -f /beamlines/bl04/inhouse/ff/FlatField/ff_20Nov2024rod8mm60s_17keV.raw -b True -c true -o xye /beamlines/bl04/projects/cycle2025-II/20250340211-lsimonelli/DATA/IS17_D/17_Da_00140.dat
# IsMon = [6744633, 6744547, 6745755]  IsPos = [-1.4999, -2.4884, -3.4988]
# Wave = 0.4962  CalPath /beamlines/bl04/projects/cycle2025-II/20250340211-lsimonelli/DATA/Align/Si_Pos1_25keV_f00001.cal
# Date = 2025-09-25_08:36:02 Dt = 4.8000  Bin = 0.0060  <imon> = 6744978 +/- 550 (Min/Max) 6744547 / 6745755
# icurr 248.8834  mocoIn 1.6998E-05  mocoOut 0.7972  i15 7.06363e+06  imon 6.74498e+06  i7 5.6667  iEMpd_timer 4.8000  iEMpd_1 3.5700E-08  iEMpd_2 7.8076E-08  iEMpd_3 1.7272E-08  iEMpd_4 4.8111E-08  iEMhp_timer 4.8000  iEMhp_1 4.8644E-06  iEMhp_2 -2.5164E-08  iEMhp_3 -2.3491E-08  iEMhp_4 -2.1619E-08
#      9776
 1.5856  40269.4  206.064
 1.6276  47609.4  220.213
 1.6696  53383.5  232.363
 1.7116  61643.1  250.181
 1.7536  71184.9  267.702
 1.7956  75778.5  276.895
 1.8376  72053  270.43
 1.8796  60965.9  246.921
 1.9216  49112.7  222.509
 1.9636  41107.6  202.735
 2.0056  37177.2  192.051
 2.0476  34310.9  186.522
 2.0896  32789.8  181.272
 2.1316  31814.5  177.697
 2.1736  29878.5  173.572
 2.2156  31010  175.409
 2.2576  29717  172.329
 2.2996  28847.4  170.411
 2.3416  29075.4  169.719
 2.3836  28542.3  168.258
 2.4256  27520.7  165.758
 2.4676  27142.9  164.383
 2.5096  27109  164.334
 2.5516  28630.3  172.808
 2.5936  59482.7  244.008
 2.6356  26682.9  164.137
 2.6776  25753.9  160.153
 2.7196  25381.8  159.501
 2.7616  25325.1  159.11
 2.8036  24835.1  157.73
 2.8456  24666.3  157.801
 2.8876  24361  156.7
 2.9296  24222.5  156.375
 2.9716  23834  154.618
 3.0136  23395.5  153.254
 3.0556  23775  154.885
 3.0976  23471.3  152.842
 3.1396  23025  152.088
 3.1816  23006.4  151.961
 3.2236  22838.2  151.395
 3.2656  23086.9  151.274
 3.3076  22910.8  152.127
 3.3496  23065.5  151.591
 3.3916  23521.7  152.906
 3.4336  23734.3  154.169
 3.4756  24257.7  155.79
 3.5176  25028.4  158.043
 3.5596  24922.5  160.112
 3.6016  25108.4  158.348
 3.6436  24474  157.424
 3.6856  23789.5  153.529
 3.7276  22937.1  151.831
 3.7696  22812.4  151.606
 3.8116  22558.5  150.647
 3.8536  22566.7  150.608
 3.8956  22543  150.356
 3.9376  22785.8  151.416
 3.9796  22268.7  149.206
 4.0216  22449.9  148.856
 4.0636  22374.4  150.059
 4.1056  22355.1  149.639
 4.1476  22580.4  150.708
 4.1896  22880.8  151.571
 4.2316  22839.9  151.26
 4.2736  23362.8  152.775
 4.3156  23607  153.798
 4.3576  24309.8  155.996
 4.3996  24618.4  157.244
 4.4416  25152  158.521
 4.4836  25810.8  160.74
 4.5256  26296.7  162.853
 4.5676  25977.6  162.113
 4.6096  26548.8  162.55
 4.6516  26925.8  163.414
 4.6936  26921.3  164.199
 4.7356  27396.9  165.476
 4.7776  27229.5  164.805
 4.8196  26904.8  164.459
 4.8616  26562  162.903
 4.9036  26103.2  161.234
 4.9456  26189  162.142
 4.9876  25701.2  160.526
 5.0296  25734.6  160.449
 5.0716  25737.6  161.23
 5.1136  25776.3  161.063
 5.1556  26231.5  161.946
 5.1976  28902.8  169.972
 5.2396  26483.9  162.419
 5.2816  26571.9  163.144
 5.3236  26653.1  163.102
 5.3656  26170.1  162.526
 5.4076  25879.2  161.775
 5.4496  26166.4  162.155
 5.4916  26270.2  162.237
 5.5336  26408.5  162.672
 5.5756  26012  161.467
 5.6176  26603.7  162.732
 5.6596  26393.1  163.056
 5.7016  26765.2  163.472
 5.7436  26983  164.409
 5.7856  26749  163.751
 5.8276  27493.9  165.738
 5.8696  27216.1  165.066
 5.9116  27392  166.202
 5.9536  27431.1  166.074
 5.9956  27773.4  166.475
 6.0376  27824.6  167.264
 6.0796  28172.7  168.139
 6.1216  28224.8  168.497
 6.1636  28217  167.542
 6.2056  28390.2  168.717
 6.2476  28405.2  168.638
 6.2896  28756.3  169.358
 6.3316  28512.1  168.805
 6.3736  28830.2  169.644
 6.4156  28838.3  169.561
 6.4576  28869.1  169.263
 6.4996  29153.5  170.573
 6.5416  29050.5  170.406
 6.5836  29233.8  171.171
 6.6256  29130.9  170.438
 6.6676  29805.2  171.969
 6.7096  29284.9  171.3
 6.7516  29778.5  172.397
 6.7936  30569.9  174.096
 6.8356  30998.9  175.397
 6.8776  30808.4  175.661
 6.9196  30634.4  175.562
 6.9616  31067  176.244
 7.0036  31769.4  177.875
 7.0456  31381.2  176.084
 7.0876  31337.1  177.638
 7.1296  31267.4  176.587
 7.1716  31325.2  176.285
 7.2136  31222.7  175.785
 7.2556  31382.7  176.394
 7.2976  31564.4  177.402
 7.3396  31339  176.978
 7.3816  31396.4  177.353
 7.4236  31682.8  177.454
 7.4656  31980.8  177.775
 7.5076  31971  177.879
 7.5496  31801.9  177.942
 7.5916  32006  178.543
 7.6336  32639.1  180.198
 7.6756  32737.7  180.319
 7.7176  32673.5  180.447
 7.7596  32854.3  182.196
 7.8016  35020.8  190.353
 7.8436  34004.3  184.22
 7.8856  33905.4  183.566
 7.9276  34569.5  185.745
 7.9696  34758.9  186.569
 8.0116  35621.6  187.405
 8.0536  36293.8  189.422
 8.0956  36935.2  192.286
 8.1376  36485.8  190.581
 8.1796  36686  191.649
 8.2216  37630.4  192.827
 8.2636  37998  194.013
 8.3056  37650.7  193.903
 8.3476  38598  195.65
 8.3896  38237.7  194.815
 8.4316  38058.2  194.52
 8.4736  38306.5  194.615
 8.5156  37913.4  193.888
 8.5576  37634  194.164
 8.5996  37689.3  193.165
 8.6416  37597.1  194.2
 8.6836  37325.3  193.321
 8.7256  37958  194.394
 8.7676  38418.9  198.516
 8.8096  38239.5  195.306
 8.8516  37231.2  192.34
 8.8936  37469.2  192.831
 8.9356  36498.7  190.677
 8.9776  36675.2  191.238
 9.0196  36432.9  190.272
 9.0616  36803.3  190.717
 9.1036  37520  193.772
 9.1456  36416.4  190.244
 9.1876  36179.6  189.58
 9.2296  36470.2  189.743
 9.2716  35660.3  187.682
 9.3136  35858.2  188.189
 9.3556  36225.9  189.126
 9.3976  34446.1  184.953
 9.4396  34998.3  186.327
 9.4816  34370  184.508
 9.5236  34661  185.198
 9.5656  34478.5  185.031
 9.6076  34249.6  184.954
 9.6496  33907.4  183.946
 9.6916  34031  184.255
 9.7336  33946.7  183.803
 9.7756  34286.2  185.987
 9.8176  33354.3  182.946
 9.8596  33093.3  180.676
 9.9016  32634.5  179.413
 9.9436  32659.4  179.392
 9.9856  32509.2  179.21
 10.0276  32079.9  179.131
 10.0696  32243.4  178.621
 10.1116  31176.8  175.902
 10.1536  31192.4  176.115
 10.1956  30531.3  173.841
 10.2376  30491.6  173.226
 10.2796  30440.2  173.211
 10.3216  30213  172.829
 10.3636  30230.5  172.906
 10.4056  31408.2  176.657
 10.4476  32015.1  177.967
 10.4896  33707.8  182.03
 10.5316  31357.5  176.302
 10.5736  29450  171.27
 10.6156  29128.8  170.097
 10.6576  32793.5  178.95
 10.6996  29078.8  169.183
 10.7416  28693.4  168.292
 10.7836  29216.3  170.527
 10.8256  28109  167.693
 10.8676  28229.4  167.587
 10.9096  28052.5  167.098
 10.9516  27611.4  164.706
 10.9936  28144.7  166.482
 11.0356  27929.6  166.496
 11.0776  28369.9  167.101
 11.1196  27868.9  166.382
 11.1616  26898.5  163.146
 11.2036  27504.9  164.823
 11.2456  28025  167.105
 11.2876  26739.1  162.946
 11.3296  26752.6  162.887
 11.3716  27106.3  163.648
 11.4136  27046.7  164.383
 11.4556  27311.5  164.845
 11.4976  28136.3  166.252
 11.5396  27902.6  165.733
 11.5816  26638.6  162.4
 11.6236  26337.9  161.705
 11.6656  26034.2  159.921
 11.7076  25672.8  159.647
 11.7496  25713.5  163.713
 11.7916  25647.9  158.827
 11.8336  25146.2  158.152
 11.8756  25370.3  158.385
 11.9176  25185  157.459
 11.9596  24541.9  155.623
 12.0016  24769.5  157.143
 12.0436  24566.9  155.92
 12.0856  24317  155.651
 12.1276  24562.1  156.334
 12.1696  24321  154.712
 12.2116  24753.6  156.082
 12.2536  25325.5  158.725
 12.2956  24707.7  156.099
 12.3376  24320  155.082
 12.3796  24410.1  155.829
 12.4216  24328.9  154.791
 12.4636  24554.9  156.428
 12.5056  24109.6  154.281
 12.5476  24419.2  154.793
 12.5896  24346.5  155.202
 12.6316  23892.2  153.901
 12.6736  23882.9  154.349
 12.7156  24054.1  154.769
 12.7576  23980.9  154.775
 12.7996  24125.5  153.885
 12.8416  24134.2  154.966
 12.8836  24844.9  157.059
 12.9256  24764.8  155.811
 12.9676  24733.4  156.142
 13.0096  24563.5  156.704
 13.0516  24560  155.729
 13.0936  24454.8  155.794
 13.1356  25001.2  156.504
 13.1776  24539.4  156.039
 13.2196  24606.7  155.914
 13.2616  24521.4  155.945
 13.3036  24598.7  156.169
 13.3456  24570  156.431
 13.3876  24700.6  156.135
 13.4296  24455.7  155.511
 13.4716  24878.9  156.455
 13.5136  24705.8  156.064
 13.5556  24791.1  156.95
 13.5976  24615.5  156.541
 13.6396  25048.2  157.274
 13.6816  24349.4  155.558
 13.7236  25315.8  158.255
 13.7656  24650.2  156.695
 13.8076  25025.8  156.658
 13.8496  24488.3  155.567
 13.8916  24513.5  156.652
 13.9336  24343.5  155.339
 13.9756  24092.7  153.879
 14.0176  24214.4  154.96
 14.0596  24534.2  155.946
 14.1016  23784.5  153.935
 14.1436  23523.7  152.225
 14.1856  23447.6  152.27
 14.2276  23132  151.72
 14.2696  23458.7  152.633
 14.3116  23110.4  151.401
 14.3536  22704.3  150.24
 14.3956  22769.3  150.187
 14.4376  22813.4  150.111
 14.4796  22742.6  149.862
 14.5216  22460.8  149.739
 14.5636  22457.1  149.285
 14.6056  22257.8  148.198
 14.6476  22226.6  147.323
 14.6896  21787.1  146.4
 14.7316  21564.9  146.686
 14.7736  21237.8  144.721
 14.8156  21116.8  144.335
 14.8576  21230.6  144.578
 14.8996  20827.7  144.399
 14.9416  20454.3  143.099
 14.9836  20634.8  143.698
 15.0256  20396.2  141.79
 15.0676  20404  142.133
 15.1096  19920.8  140.178
 15.1516  19669.7  139.844
 15.1936  19626.9  139.123
 15.2356  19628.4  139.409
 15.2776  19586  138.84
 15.3196  19090.8  138.076
 15.3616  19082.3  137.799
 15.4036  19069.1  137.597
 15.4456  19399.4  138.444
 15.4876  19063  136.919
 15.5296  18822.5  136.336
 15.5716  18537.4  134.896
 15.6136  18676.2  135.736
 15.6556  19153.2  136.684
 15.6976  18500.3  134.631
 15.7396  18448.6  134.829
 15.7816  18383.4  134.097
 15.8236  17924.5  133.115
 15.8656  18056.3  133.394
 15.9076  17649.4  131.71
 15.9496  18041.1  135.977
 15.9916  17586.8  134.702
 16.0336  17318.1  130.564
 16.0756  17380.3  131.108
 16.1176  17149.8  130.307
 16.1596  16862.6  130.382
 16.2016  17169.5  130.299
 16.2436  16920.4  129.726
 16.2856  17009.7  129.626
 16.3276  16500.9  128.082
 16.3696  16905.6  129.46
 16.4116  16456.2  128.191
 16.4536  16747.8  129.1
 16.4956  16829.1  129.153
 16.5376  16608  128.493
 16.5796  16549.4  127.628
 16.6216  16702.7  128.522
 16.6636  16631.4  128.403
 16.7056  16510.9  127.798
 16.7476  16607.6  127.688
 16.7896  16417.8  127.718
 16.8316  16450  127.812
 16.8736  16379.3  127.797
 16.9156  16457.5  128.437
 16.9576  16133.7  127.97
 16.9996  16332.9  129.251
 17.0416  16323.1  127.556
 17.0836  16179.5  126.743
 17.1256  15892.2  125.638
 17.1676  16155.6  126.667
 17.2096  16028.5  126.043
 17.2516  15941  125.474
 17.2936  15618.2  124.532
 17.3356  15514.3  124.108
 17.3776  15564.4  124.506
 17.4196  15571.6  124.234
 17.4616  15438.6  123.616
 17.5036  15364.8  123.688
 17.5456  15356.2  124.293
 17.5876  15283.5  123.044
 17.6296  15063.2  121.97
 17.6716  15241.7  123.266
 17.7136  15396.6  124.036
 17.7556  15140.4  123.294
 17.7976  15103.2  122.885
 17.8396  15119.8  122.445
 17.8816  15008.1  122.541
 17.9236  14682.1  121.012
 17.9656  15180.3  123.592
 18.0076  15174  123.135
 18.0496  15316.3  122.835
 18.0916  17030.2  130.087
 18.1336  16188.2  126.939
 18.1756  15497  123.729
 18.2176  15446.6  123.755
 18.2596  14947.7  121.477
 18.3016  15303.7  123.172
 18.3436  15341.5  123.324
 18.3856  14800.8  121.268
 18.4276  14766.1  120.806
 18.4696  14894.9  121.429
 18.5116  14873.8  121.633
 18.5536  14812.7  121.741
 18.5956  14650.7  120.625
 18.6376  14592.8  120.795
 18.6796  14605  120.163
 18.7216  14812.7  121.51
 18.7636  14489.6  120.166
 18.8056  14340  119.485
 18.8476  14211.1  119.574
 18.8896  14303.7  119.292
 18.9316  14564.3  120.361
 18.9736  14250.4  118.752
 19.0156  14557.5  120.436
 19.0576  14590.2  119.421
 19.0996  14443.5  119.536
 19.1416  14264.6  119.186
 19.1836  14367.8  119.215
 19.2256  14151  118.526
 19.2676  14173.1  118.713
 19.3096  14257.4  119.311
 19.3516  14237.6  119.184
 19.3936  14174.2  118.822
 19.4356  14155.2  118.61
 19.4776  14133  118.614
 19.5196  14096.9  118.316
 19.5616  14206  119.024
 19.6036  14111.2  118.128
 19.6456  14174.8  118.517
 19.6876  14471.8  119.392
 19.7296  14213.8  118.777
 19.7716  14049.9  118.259
 19.8136  14318.7  119.593
 19.8556  14601.8  120.242
 19.8976  14714.9  120.772
 19.9396  14689.8  120.239
 19.9816  14872.2  121.233
 20.0236  15166.2  122.645
 20.0656  14498.2  119.909
 20.1076  14134.8  118.854
 20.1496  13946.5  118.072
 20.1916  13906.8  117.419
 20.2336  13891.4  117.291
 20.2756  13691.3  116.866
 20.3176  13522.1  115.893
 20.3596  13630.6  116.334
 20.4016  13600.6  116.007
 20.4436  13685.8  116.927
 20.4856  13455.8  115.736
 20.5276  13449  116.165
 20.5696  13380.4  115.33
 20.6116  13424.6  115.799
 20.6536  13196  114.319
 20.6956  13321.5  114.982
 20.7376  13354.5  115.36
 20.7796  13200.6  114.379
 20.8216  13414.3  115.006
 20.8636  13235.3  114.606
 20.9056  13740.3  116.721
 20.9476  13213.7  114.3
 20.9896  13903.3  117.111
 21.0316  13398.8  114.864
 21.0736  13383.1  115.321
 21.1156  13398.2  115.539
 21.1576  13442  115.78
 21.1996  13129.8  114.41
 21.2416  13106.5  114.141
 21.2836  13273.5  114.832
 21.3256  13071.8  114.036
 21.3676  13175.7  114.034
 21.4096  13207.6  114.484
 21.4516  13191.4  114.295
 21.4936  12852.2  113.065
 21.5356  12979.6  113.569
 21.5776  13098.1  113.919
 21.6196  13013.6  113.587
 21.6616  13015.5  113.682
 21.7036  12916.2  113.03
 21.7456  12890.9  112.992
 21.7876  12748.8  112.116
 21.8296  12789.9  112.156
 21.8716  12852.8  112.667
 21.9136  12896.7  113.055
 21.9556  13094.2  113.59
 21.9976  12871.9  112.636
 22.0396  12654.2  111.929
 22.0816  12818.5  113.199
 22.1236  13029.3  113.571
 22.1656  12922.8  113.231
 22.2076  12973.8  112.931
 22.2496  12802.5  112.21
 22.2916  12917.1  112.59
 22.3336  12818.5  112.89
 22.3756  12691.4  112.05
 22.4176  12600.4  111.503
 22.4596  12519.7  111.73
 22.5016  12750.5  112.251
 22.5436  12798.5  112.339
 22.5856  12811  112.643
 22.6276  12816.1  112.805
 22.6696  12794.5  113.063
 22.7116  12678.8  112.062
 22.7536  12768.2  112.432
 22.7956  12665  111.308
 22.8376  12712.4  112.039
 22.8796  12717  111.86
 22.9216  12775.6  112.666
 22.9636  12857.4  112.171
 23.0056  12704.3  111.637
 23.0476  12898.7  113.058
 23.0896  13123.1  113.41
 23.1316  12958.7  113.136
 23.1736  12685.6  114.894
 23.2156  12804.1  112.781
 23.2576  12696.5  112.436
 23.2996  12579.5  111.708
 23.3416  12469.7  111.732
 23.3836  12667.2  111.853
 23.4256  12642.8  111.865
 23.4676  12670.6  111.683
 23.5096  12552.5  111.833
 23.5516  12579.8  111.236
 23.5936  12594  112.203
 23.6356  12784.5  112.714
 23.6776  12561.5  111.941
 23.7196  12611.2  111.732
 23.7616  12690.2  111.999
 23.8036  12659.3  111.901
 23.8456  12496.6  110.756
 23.8876  12346.1  110.438
 23.9296  12326  110.839
 23.9716  12400.4  110.368
 24.0136  12583  112.075
 24.0556  12406.7  111.018
 24.0976  12209.8  109.945
 24.1396  12201  112.553
 24.1816  12190.6  110.937
 24.2236  12298.3  111.031
 24.2656  12153.7  109.85
 24.3076  11939.3  109.121
 24.3496  12134.1  109.904
 24.3916  12039.1  109.525
 24.4336  11912.8  109.155
 24.4756  12069.5  109.736
 24.5176  11852.4  108.395
 24.5596  11721.4  107.922
 24.6016  11808.9  108.611
 24.6436  11854.9  108.302
 24.6856  11651.8  107.141
 24.7276  11771.5  108.009
 24.7696  11634.4  107.49
 24.8116  11604.6  107.537
 24.8536  11605.2  107.528
 24.8956  11374.1  106.196
 24.9376  11582.3  107.099
 24.9796  11443.6  106.81
 25.0216  11297.2  106.235
 25.0636  11562.2  107.125
 25.1056  11192.9  106.103
 25.1476  11262.6  108.107
 25.1896  11330.5  106.894
 25.2316  11416.4  106.566
 25.2736  11381.3  106.053
 25.3156  11239.7  105.467
 25.3576  11170.4  105.562
 25.3996  11266.2  105.993
 25.4416  11300.9  106.142
 25.4836  11103.5  105.735
 25.5256  11138.3  105.265
 25.5676  11388  106.165
 25.6096  11023.1  105.016
 25.6516  11152.8  105.133
 25.6936  11134.2  105.354
 25.7356  11014.5  104.927
 25.7776  11187  105.351
 25.8196  10999.1  104.695
 25.8616  11144.9  105.311
 25.9036  11206.9  105.068
 25.9456  11044.3  104.901
 25.9876  11014.4  104.821
 26.0296  11177  105.1
 26.0716  11101.2  105.168
 26.1136  11171.8  105.448
 26.1556  11191.6  104.912
 26.1976  10932.1  104.617
 26.2396  11109.9  104.613
 26.2816  11029.5  104.84
 26.3236  11076.2  105.229
 26.3656  10956.4  104.377
 26.4076  11120.6  105.372
 26.4496  11461.8  106.451
 26.4916  11105.5  104.789
 26.5336  11013  104.682
 26.5756  11515.5  106.864
 26.6176  11080.5  104.913
 26.6596  10861.5  104.179
 26.7016  10838.5  103.826
 26.7436  10630.7  102.955
 26.7856  10541.1  102.506
 26.8276  10743.4  103.443
 26.8696  10721.3  103.207
 26.9116  10663.6  102.868
 26.9536  10622.9  102.713
 26.9956  10608.3  102.68
 27.0376  10513.4  102.439
 27.0796  10729  103.215
 27.1216  10626.9  102.794
 27.1636  10457.7  102.141
 27.2056  10535.6  102.4
 27.2476  10518.4  102.319
 27.2896  10473.4  102.21
 27.3316  10481  101.961
 27.3736  10474.5  102.196
 27.4156  10358.8  101.47
 27.4576  10470.1  102.248
 27.4996  10383.4  101.417
 27.5416  10395.4  101.794
 27.5836  10403.2  101.65
 27.6256  10715.6  103.321
 27.6676  10591.6  102.752
 27.7096  10417.5  101.77
 27.7516  10625.3  102.935
 27.7936  10569.6  102.836
 27.8356  10503.8  102.132
 27.8776  10352.5  101.437
 27.9196  10312.5  101.087
 27.9616  10350.4  101.466
 28.0036  10309.6  101.237
 28.0456  10367.8  101.661
 28.0876  10029.3  100.079
 28.1296  10174.4  100.637
 28.1716  10116.8  100.361
 28.2136  10185  100.661
 28.2556  10079.3  100.251
 28.2976  10116.8  100.437
 28.3396  10157.2  100.393
 28.3816  10078.7  100.021
 28.4236  10214.1  100.85
 28.4656  10019.5  99.9183
 28.5076  9976.77  99.3408
 28.5496  10024.7  99.8441
 28.5916  10123.2  100.136
 28.6336  9945.4  99.5978
 28.6756  10034.3  99.2392
 28.7176  9967.69  99.4567
 28.7596  9776.79  98.4014
 28.8016  9993.05  99.5166
 28.8436  9868.2  99.1333
 28.8856  9903.48  99.1664
 28.9276  9833.4  99.0578
 28.9696  9913.88  99.1194
 29.0116  9917.04  99.3162
 29.0536  9639.07  98.1124
 29.0956  9785.88  98.5777
 29.1376  9837.73  98.8044
 29.1796  9780.05  98.5541
 29.2216  9683.44  97.9151
 29.2636  9856.96  98.8637
 29.3056  9813.61  98.4362
 29.3476  9807.96  98.9338
 29.3896  9887.91  99.4246
 29.4316  9804.77  98.3514
 29.4736  9714.86  97.9608
 29.5156  9783.41  98.2293
 29.5576  9831.65  99.2189
 29.5996  9775.73  98.1873
 29.6416  9728.33  98.0694
 29.6836  9754.23  98.1234
 29.7256  9823.44  99.044
 29.7676  9770.85  98.4331
 29.8096  9718.22  98.1156
 29.8516  9630.9  98.0062
 29.8936  9670.94  98.3053
 29.9356  9734.48  98.3793
 29.9776  9571.24  97.7062
 30.0196  9674.91  97.6163
 30.0616  9805.46  98.6508
 30.1036  9666.72  97.7776
 30.1456  9708.47  98.2221
 30.1876  9448.78  96.8771
 30.2296  9535.77  97.266
 30.2716  9667.46  97.5759
 30.3136  9597.85  98.0854
 30.3556  9735.53  98.7954
 30.3976  9573.75  99.5151
 30.4396  9678.36  97.3576
 30.4816  9554.3  96.3335
 30.5236  9631.35  96.7383
 30.5656  9471.39  96.5814
 30.6076  9593.33  96.6306
 30.6496  9543.75  96.7645
 30.6916  9441.97  96.3407
 30.7336  9472.68  96.6496
 30.7756  9418.46  96.4619
 30.8176  9525.02  96.9237
 30.8596  9422.71  96.1695
 30.9016  9336.48  96.0695
 30.9436  9578.83  97.0604
 30.9856  9510.82  96.8157
 31.0276  9430.44  96.0126
 31.0696  9330.52  96.0856
 31.1116  9297.24  95.8886
 31.1536  9554.7  97.091
 31.1956  9486.93  96.8338
 31.2376  9186.13  95.2911
 31.2796  9315.15  95.5007
 31.3216  9381.41  95.7832
 31.3636  9383.34  96.4892
 31.4056  9364.94  97.7247
 31.4476  9375.01  95.6492
 31.4896  9258.86  95.5569
 31.5316  9466.98  96.0169
 31.5736  9673.03  96.8606
 31.6156  9658.57  96.8246
 31.6576  9573.14  96.479
 31.6996  9409.85  95.3365
 31.7416  9354.81  96.1252
 31.7836  9199.87  94.3436
 31.8256  9247.14  94.8574
 31.8676  9406.7  95.6554
 31.9096  9164.6  94.7834
 31.9516  9047.8  94.3353
 31.9936  9189.18  94.8963
 32.0356  9220.31  95.1209
 32.0776  9291.67  95.3757
 32.1196  9267.43  95.3412
 32.1616  9319.23  95.0633
 32.2036  9154.17  94.7266
 32.2456  9061.7  94.6284
 32.2876  9274.71  95.2257
 32.3296  9016.41  93.8559
 32.3716  9135.7  94.5804
 32.4136  9199.1  95.1246
 32.4556  9279.66  94.9099
 32.4976  9181.87  94.3154
 32.5396  9166.68  94.3067
 32.5816  9077.25  93.9684
 32.6236  9131.5  94.3166
 32.6656  9261.99  95.5393
 32.7076  9095.97  94.329
 32.7496  9046.27  93.7387
 32.7916  9002.4  93.4735
 32.8336  9145.27  94.3061
 32.8756  9148.71  94.0437
 32.9176  9061.29  94.0804
 32.9596  8966.22  93.6539
 33.0016  9051.03  93.8927
 33.0436  9088.55  94.2657
 33.0856  9004.46  93.8899
 33.1276  8948.18  93.3333
 33.1696  9087.22  93.9036
 33.2116  9088.55  94.1361
 33.2536  8999.11  93.6684
 33.2956  9009.05  93.8065
 33.3376  8953.4  93.2539
 33.3796  9073.49  94.0881
 33.4216  9037.73  93.4998
 33.4636  8988.41  93.3896
 33.5056  8855.45  92.9326
 33.5476  8826.07  92.769
 33.5896  8959.98  93.2437
 33.6316  8824.67  92.8513
 33.6736  8692.18  92.3985
 33.7156  8854.95  93.302
 33.7576  8874.23  93.0262
 33.7996  9005.32  93.4758
 33.8416  8813.62  92.6592
 33.8836  8806.89  92.4086
 33.9256  8767.76  92.2621
 33.9676  8809.74  92.3776
 34.0096  8694.11  92.0812
 34.0516  8808.67  92.3276
 34.0936  8623.35  91.6067
 34.1356  8916.04  92.8898
 34.1776  8689.09  91.7127
 34.2196  8639.04  91.629
 34.2616  8664.95  91.901
 34.3036  8755.7  92.6292
 34.3456  8641.16  91.7814
 34.3876  8628.55  91.6737
 34.4296  8660.56  91.5306
 34.4716  8633.4  91.5372
 34.5136  8641.94  91.7902
 34.5556  8698  92.3413
 34.5976  8767.47  92.5112
 34.6396  8599.43  91.3314
 34.6816  8657.93  91.7529
 34.7236  8615.4  91.3169
 34.7656  8779.34  92.3711
 34.8076  8568.43  91.5892
 34.8496  8580.96  91.5079
 34.8916  8612.95  91.5512
 34.9336  8742.1  92.1963
 34.9756  8737.07  92.0947
 35.0176  8742.75  92.6583
 35.0596  8482.25  91.0874
 35.1016  8498.54  90.9424
 35.1436  8668.25  91.5347
 35.1856  8507.28  90.8074
 35.2276  8637.16  91.6776
 35.2696  8553.47  91.4236
 35.3116  8552.27  91.511
 35.3536  8418.26  90.5006
 35.3956  8558.82  90.9639
 35.4376  8444.13  90.9038
 35.4796  8636.42  91.9945
 35.5216  8490.21  91.1659
 35.5636  8429.32  91.5862
 35.6056  8502.17  90.9982
 35.6476  8590.68  91.3672
 35.6896  8644.4  91.7371
 35.7316  8485.8  90.869
 35.7736  8329.12  90.2217
 35.8156  8395.3  90.5719
 35.8576  8425.75  90.9933
 35.8996  8494.28  91.328
 35.9416  8525  91.0021
 35.9836  8406.83  90.7083
 36.0256  8519.68  91.3394
 36.0676  8584.95  91.4411
 36.1096  8328.29  90.203
 36.1516  8532.16  91.1897
 36.1936  8466.43  90.6844
 36.2356  8368.63  90.7999
 36.2776  8408.33  90.4964
 36.3196  8380.96  90.0171
 36.3616  8512.14  90.8492
 36.4036  8455.63  90.6011
 36.4456  8444.53  90.7559
 36.4876  8186.4  89.2978
 36.5296  8418.69  90.5919
 36.5716  8461.11  91.6161
 36.6136  8592.5  91.07
 36.6556  8445.05  90.4951
 36.6976  8446.25  91.0058
 36.7396  8386.44  90.4113
 36.7816  8381.85  90.762
 36.8236  8360.93  90.5755
 36.8656  8267.79  90.1418
 36.9076  8290.86  90.1422
 36.9496  8298.8  90.1728
 36.9916  8362.04  90.139
 37.0336  8436.58  90.8601
 37.0756  8411.59  90.5182
 37.1176  8099.41  89.0885
 37.1596  8234.42  89.8326
 37.2016  8270.49  90.2584
 37.2436  8418.91  90.3716
 37.2856  8255.3  89.7459
 37.3276  8326.41  89.4784
 37.3696  8261.17  90.0179
 37.4116  8262.18  89.9276
 37.4536  8169.21  89.2887
 37.4956  8282.79  89.9446
 37.5376  8247.46  91.3188
 37.5796  8154.11  90.7616
 37.6216  7979.35  88.055
 37.6636  8077.55  88.5035
 37.7056  8209.68  89.4175
 37.7476  8108.43  88.3992
 37.7896  8138.79  89.0694
 37.8316  7873.77  87.7724
 37.8736  8185.92  89.0184
 37.9156  7993.87  87.9699
 37.9576  8116.87  88.5252
 37.9996  7969.28  87.447
 38.0416  8110.22  89.0301
 38.0836  8150.86  89.1547
 38.1256  8162.45  89.1705
 38.1676  7957.58  88.1845
 38.2096  8019.96  88.156
 38.2516  8196.78  89.328
 38.2936  8087.17  88.5303
 38.3356  8177.6  88.9391
 38.3776  8022.87  88.3658
 38.4196  8141.4  88.8688
 38.4616  8086.1  88.7974
 38.5036  8216.39  89.357
 38.5456  7988.63  88.9504
 38.5876  8071.57  89.4456
 38.6296  8047.68  88.2815
 38.6716  7932.92  87.4425
 38.7136  7964.84  87.5584
 38.7556  7845.73  87.3976
 38.7976  8050.74  88.4734
 38.8396  7880.55  87.988
 38.8816  7803.4  87.3295
 38.9236  7872.9  87.5371
 38.9656  7942.96  87.8401
 39.0076  7839.41  86.6764
 39.0496  7938.58  87.7584
 39.0916  8027.71  87.8968
 39.1336  7968.83  87.9907
 39.1756  7891.07  87.6281
 39.2176  7963.2  88.5619
 39.2596  7937.07  88.3363
 39.3016  7925.41  87.8449
 39.3436  8005.56  88.7147
 39.3856  8027.64  88.2816
 39.4276  8012.03  88.6833
 39.4696  7934.19  87.8879
 39.5116  7852.77  87.9462
 39.5536  8183.28  90.213
 39.5956  8047.73  88.5537
 39.6376  8125.2  88.9809
 39.6796  7927.74  87.6369
 39.7216  7905.31  87.6069
 39.7636  8040.63  88.9332
 39.8056  7991.81  88.438
 39.8476  7839.39  87.8447
 39.8896  7891.41  87.7646
 39.9316  8007.38  88.6654
 39.9736  7974.01  88.0468
 40.0156  7976.97  87.8876
 40.0576  8001.2  88.3827
 40.0996  8087.55  88.03
 40.1416  7956.35  88.1112
 40.1836  8013.17  88.3096
 40.2256  8053.4  88.5822
 40.2676  7939.23  88.0578
 40.3096  7991.3  88.2636
 40.3516  7994.1  88.3862
 40.3936  8118.56  88.6365
 40.4356  7995.85  88.1599
 40.4776  8061.75  88.9344
 40.5196  8054.56  89.0204
 40.5616  8049.45  88.6337
 40.6036  7934.41  88.2511
 40.6456  8083.54  88.6837
 40.6876  8056.11  88.5139
 40.7296  8063.87  88.7038
 40.7716  8038.64  88.6889
 40.8136  7918.8  87.9727
 40.8556  7954.57  88.3014
 40.8976  8021.5  88.5929
 40.9396  7994.78  88.7979
 40.9816  8064.28  88.4641
 41.0236  8059.2  88.2078
 41.0656  8111.76  89.0473
 41.1076  8041.06  88.4253
 41.1496  8059.88  88.4378
 41.1916  7971.72  88.2807
 41.2336  7921.12  87.987
 41.2756  8035.43  88.2223
 41.3176  8014.49  88.7245
 41.3596  8054.27  88.667
 41.4016  8071.14  89.0272
 41.4436  8089.96  88.9149
 41.4856  8000.61  88.5842
 41.5276  7957.9  88.3689
 41.5696  8024.81  88.3699
 41.6116  7894.21  88.0345
 41.6536  7975.82  88.3545
 41.6956  8010.82  88.6003
 41.7376  7972.64  88.4126
 41.7796  7939.04  88.1121
 41.8216  7986.94  88.6156
 41.8636  7976.56  88.4994
 41.9056  7910.59  87.9193
 41.9476  7981.7  88.552
 41.9896  8015.35  88.403
 42.0316  8067.8  88.7677
 42.0736  7942.72  88.1929
 42.1156  7899.58  87.7911
 42.1576  8009.55  88.5013
 42.1996  7958.75  88.3623
 42.2416  7941.07  87.8436
 42.2836  7818.97  87.2764
 42.3256  7942.96  88.0844
 42.3676  7938.53  87.8627
 42.4096  7960.18  87.9368
 42.4516  7870.98  87.5387
 42.4936  7775.67  87.0751
 42.5356  7893.45  87.8673
 42.5776  7974.36  88.2547
 42.6196  7941.9  88.1327
 42.6616  7664.47  86.7468
 42.7036  7938.79  87.6653
 42.7456  7927.11  87.9586
 42.7876  7807.65  87.3952
 42.8296  7855.14  87.4889
 42.8716  7842.05  87.5797
 42.9136  7891.41  87.6412
 42.9556  7923.92  87.9563
 42.9976  7824.8  87.3667
 43.0396  7851.65  87.2427
 43.0816  7789.73  87.2644
 43.1236  7786.95  87.324
 43.1656  7712.08  86.7332
 43.2076  7775.47  87.1916
 43.2496  7801.01  87.1422
 43.2916  7780.13  87.3999
 43.3336  7822.86  87.4755
 43.3756  7812.71  87.1725
 43.4176  7675.27  86.4842
 43.4596  7660.73  86.2589
 43.5016  7772.9  87.2944
 43.5436  7703.8  86.8067
 43.5856  7677.56  86.6813
 43.6276  7681.79  86.6038
 43.6696  7727.54  87.1198
 43.7116  7744.12  86.7095
 43.7536  7697.8  86.9347
 43.7956  7579.64  87.457
 43.8376  7669.34  86.5131
 43.8796  7710.54  86.825
 43.9216  7803.48  87.2608
 43.9636  7663.19  86.5805
 44.0056  7672.51  86.8702
 44.0476  7679.1  86.5332
 44.0896  7464.36  85.6569
 44.1316  7715.86  86.6048
 44.1736  7512.37  85.5775
 44.2156  7683  86.3966
 44.2576  7712.97  86.8994
 44.2996  7653.98  86.536
 44.3416  7624.04  86.1155
 44.3836  7440.05  85.4056
 44.4256  7475.86  85.2574
 44.4676  7418.27  85.0829
 44.5096  7551.48  85.9891
 44.5516  7536.04  85.8595
 44.5936  7467.65  85.428
 44.6356  7610.61  85.9772
 44.6776  7535.49  85.8727
 44.7196  7485.39  85.8918
 44.7616  7587.32  87.8049
 44.8036  7420.6  85.2644
 44.8456  7599.51  86.4928
 44.8876  7443.76  85.4553
 44.9296  7585.17  85.7164
 44.9716  7380.74  84.9734
 45.0136  7553.33  85.898
 45.0556  7464.84  85.3673
 45.0976  7350.51  84.8662
 45.1396  7434.72  85.1222
 45.1816  7364.98  84.6548
 45.2236  7531.21  85.5044
 45.2656  7348.3  84.9561
 45.3076  7289.38  84.4073
 45.3496  7340.9  85.0014
 45.3916  7224.89  84.5915
 45.4336  7426.58  85.608
 45.4756  7304.98  84.7609
 45.5176  7404.08  84.9536
 45.5596  7672.2  86.6014
 45.6016  7288.07  84.8198
 45.6436  7243.58  83.7492
 45.6856  7282.06  84.6266
 45.7276  7323.72  86.1867
 45.7696  7374.14  86.144
 45.8116  7420.55  85.8528
 45.8536  7196.18  84.4412
 45.8956  7392.95  84.9395
 45.9376  7376.49  84.3137
 45.9796  7404.85  85.1521
 46.0216  7350.41  85.187
 46.0636  7385.45  84.5369
 46.1056  7360.88  84.3816
 46.1476  7310.94  84.6835
 46.1896  7336.2  84.9811
 46.2316  7323.63  84.7753
 46.2736  7197.69  84.4082
 46.3156  7431.56  85.3536
 46.3576  7401.33  85.3799
 46.3996  7201.92  84.3849
 46.4416  7346.09  84.8042
 46.4836  7209.56  84.3601
 46.5256  7368.81  85.2252
 46.5676  7288.1  84.8715
 46.6096  7459.49  85.8041
 46.6516  7367.49  84.3091
 46.6936  7328.33  84.5782
 46.7356  7316.15  84.6117
 46.7776  7158.98  84.524
 46.8196  7222.99  84.5047
 46.8616  7055.19  83.465
 46.9036  7070.4  83.222
 46.9456  7131.47  83.2165
 46.9876  7145.7  83.3841
 47.0296  7146.94  84.0714
 47.0716  7050.02  83.3275
 47.1136  7150.8  83.5976
 47.1556  7154.9  83.493
 47.1976  7261.52  84.1885
 47.2396  7148.58  83.9324
 47.2816  7151.1  83.6524
 47.3236  7091.14  83.6619
 47.3656  7209.15  84.2907
 47.4076  7167.61  83.8508
 47.4496  7058.18  83.3019
 47.4916  7087  83.6599
 47.5336  7121.94  83.6835
 47.5756  7213.94  84.3401
 47.6176  7038.12  83.1956
 47.6596  7061.11  83.0551
 47.7016  7268.32  84.0837
 47.7436  7066.96  83.2435
 47.7856  7235.51  84.2533
 47.8276  7114.72  83.5903
 47.8696  7170.43  84.0022
 47.9116  7134.93  83.5111
 47.9536  7048.78  82.9506
 47.9956  7025.95  83.5152
 48.0376  6987.46  83.0669
 48.0796  7136.94  84.0796
 48.1216  7249.29  84.5578
 48.1636  7269.13  84.2453
 48.2056  7112.64  83.5962
 48.2476  7103.25  83.848
 48.2896  7060.82  83.5091
 48.3316  6936.68  82.7098
 48.3736  7119.24  83.8181
 48.4156  6903.26  82.3922
 48.4576  6908.9  82.7109
 48.4996  7022.42  82.851
 48.5416  7065.12  83.4234
 48.5836  7040.05  82.9558
 48.6256  7053.85  83.2386
 48.6676  6945.07  83.1012
 48.7096  7108.97  83.3496
 48.7516  6975.78  82.7133
 48.7936  6920.18  82.4458
 48.8356  6934.06  82.5771
 48.8776  6979.46  83.4084
 48.9196  7099.98  83.5011
 48.9616  6992.6  83.2463
 49.0036  7003.64  83.6589
 49.0456  6952.35  83.3319
 49.0876  6980.17  83.0341
 49.1296  6826.47  82.2788
 49.1716  6806.85  82.0297
 49.2136  6966.03  82.9174
 49.2556  7092.42  83.6869
 49.2976  6974.38  83.0619
 49.3396  6880.89  82.5619
 49.3816  6992.65  82.6654
 49.4236  6950.41  82.8284
 49.4656  6794.4  81.9159
 49.5076  6898.69  82.2902
 49.5496  6827.63  81.9296
 49.5916  6903.23  82.2844
 49.6336  6866.83  82.2836
 49.6756  6855.7  82.4397
 49.7176  6764.71  81.8366
 49.7596  6908.06  82.474
 49.8016  6935.16  82.5563
 49.8436  6812.01  82.1049
 49.8856  6866.67  82.4463
 49.9276  6843.83  82.4051
 49.9696  6894.92  82.6937
 50.0116  6898.79  82.8506
 50.0536  6871.03  82.6303
 50.0956  6869.11  82.6915
 50.1376  6855.58  82.3118
 50.1796  6760.77  82.006
 50.2216  6755.58  81.974
 50.2636  6687.84  81.1819
 50.3056  6738.72  81.6612
 50.3476  6846.54  82.335
 50.3896  6748.9  81.7141
 50.4316  6780.58  81.7457
 50.4736  6750.87  81.7833
 50.5156  6810.74  82.1343
 50.5576  6875.8  82.2812
 50.5996  6669.47  81.3174
 50.6416  6783.09  81.9402
 50.6836  6728.09  81.6654
 50.7256  6800.92  82.0299
 50.7676  6791.33  82.2833
 50.8096  6756.98  81.621
 50.8516  6648.79  81.3731
 50.8936  6696.43  81.4464
 50.9356  6815.06  82.272
 50.9776  6801.07  82.3312
 51.0196  6612.04  81.3141
 51.0616  6553.77  80.2937
 51.1036  6733.74  81.738
 51.1456  6697.46  81.4373
 51.1876  6882.48  81.8936
 51.2296  6624.57  80.9719
 51.2716  6706.23  81.1627
 51.3136  6693.7  81.5433
 51.3556  6581.46  80.4957
 51.3976  6634.36  80.9694
 51.4396  6546.8  80.732
 51.4816  6532.87  80.5051
 51.5236  6605.81  81.0322
 51.5656  6682.62  81.1116
 51.6076  6683.88  81.2005
 51.6496  6721.96  81.6203
 51.6916  6620.59  81.3588
 51.7336  6569.99  81.1344
 51.7756  6710.21  81.6977
 51.8176  6514.36  80.5977
 51.8596  6588.04  81.0709
 51.9016  6713.01  81.4425
 51.9436  6565.38  81.9735
 51.9856  6457.53  81.7284
 52.0276  6551.74  80.8506
 52.0696  6573.33  81.0484
 52.1116  6551.64  81.0322
 52.1536  6567.8  81.0089
 52.1956  6669.45  81.112
 52.2376  6571.52  80.6801
 52.2796  6574.19  80.5041
 52.3216  6493.43  80.6972
 52.3636  6483.63  80.2172
 52.4056  6520.08  80.3012
 52.4476  6531.72  80.739
 52.4896  6458.08  80.3342
 52.5316  6452.66  80.34
 52.5736  6538.45  80.6079
 52.6156  6441.89  80.3772
 52.6576  6622.48  80.942
 52.6996  6313.02  79.979
 52.7416  6464.65  80.7952
 52.7836  6529.5  81.0676
 52.8256  6485.41  80.0338
 52.8676  6412.32  80.1507
 52.9096  6498.24  80.771
 52.9516  6439.37  80.7775
 52.9936  6384.61  80.8146
 53.0356  6462.02  80.312
 53.0776  6352.77  79.8904
 53.1196  6312.33  79.7605
 53.1616  6412.6  80.4375
 53.2036  6334.22  79.9041
 53.2456  6354  80.1259
 53.2876  6367.18  79.9169
 53.3296  6212.31  79.2589
 53.3716  6354.61  79.9104
 53.4136  6331.32  79.9035
 53.4556  6245.08  79.3948
 53.4976  6315.2  79.6874
 53.5396  6332.3  80.1867
 53.5816  6310.57  79.6875
 53.6236  6241.92  79.5892
 53.6656  6484.29  80.7435
 53.7076  6422.15  80.3196
 53.7496  6360.91  80.0534
 53.7916  6447.86  80.7095
 53.8336  6317.09  79.8007
 53.8756  6215.89  79.704
 53.9176  6276.53  79.4455
 53.9596  6369.02  80.7855
 54.0016  6273.55  79.5208
 54.0436  6293.87  79.8596
 54.0856  6321.56  79.4661
 54.1276  6281.06  79.4121
 54.1696  6330.57  79.8954
 54.2116  6374.85  79.9284
 54.2536  6305.87  79.3146
 54.2956  6339.12  79.5706
 54.3376  6296.11  79.7817
 54.3796  6297.19  79.685
 54.4216  6429.05  80.5669
 54.4636  6318.04  79.8258
 54.5056  6306.16  79.5662
 54.5476  6293.12  79.8165
 54.5896  6312.26  79.7751
 54.6316  6265.87  79.3413
 54.6736  6377.36  80.1171
 54.7156  6296.35  79.6281
 54.7576  6240.26  79.2721
 54.7996  6289.78  79.7176
 54.8416  6260.81  79.5773
 54.8836  6186.39  79.2235
 54.9256  6239.68  79.3152
 54.9676  6307.11  79.5977
 55.0096  6212.65  79.0695
 55.0516  6329.41  80.0424
 55.0936  6252.83  79.1844
 55.1356  6222.45  79.0371
 55.1776  6192.43  79.1127
 55.2196  6243.86  79.2244
 55.2616  6296.7  79.7716
 55.3036  6138.35  78.9223
 55.3456  6185.61  79.3691
 55.3876  6226.45  79.374
 55.4296  6271.85  79.6431
 55.4716  6229.58  79.4081
 55.5136  6246.75  79.2787
 55.5556  6203.18  79.0703
 55.5976  6277.91  79.6031
 55.6396  6157.45  78.7834
 55.6816  6171.87  78.754
 55.7236  6205.57  79.0086
 55.7656  6317.94  79.4783
 55.8076  6315.62  79.4495
 55.8496  6221.54  79.1714
 55.8916  6170.33  79.0516
 55.9336  6256.88  79.4171
 55.9756  6115.45  78.409
 56.0176  6152.28  78.7944
 56.0596  6227.55  79.2595
 56.1016  6240.51  79.352
 56.1436  6253.43  79.6969
 56.1856  6184.83  79.0009
 56.2276  6215.63  79.2566
 56.2696  6199.55  79.1214
 56.3116  6135.36  79.1086
 56.3536  6199.88  79.1871
 56.3956  6108.41  78.5916
 56.4376  6173.88  79.0443
 56.4796  6240.25  79.2694
 56.5216  6138.9  78.9986
 56.5636  6340.7  79.8684
 56.6056  6136.69  78.8032
 56.6476  6228.79  79.0205
 56.6896  6144.6  78.926
 56.7316  6206.44  79.2395
 56.7736  6186.47  79.1023
 56.8156  6180.61  79.0577
 56.8576  6075.48  78.3325
 56.8996  6169.14  78.8699
 56.9416  6166.39  79.1535
 56.9836  6040.56  77.8618
 57.0256  6191.93  79.1505
 57.0676  6153.83  79.0352
 57.1096  6250.37  79.4394
 57.1516  6221.44  79.313
 57.1936  6236.85  79.162
 57.2356  6175.1  79.0899
 57.2776  6117.83  78.6767
 57.3196  6273.49  80.0459
 57.3616  6127.42  78.6016
 57.4036  6220.92  79.256
 57.4456  6077.43  78.3036
 57.4876  6154.97  78.6653
 57.5296  6049.75  78.3235
 57.5716  6077  78.4919
 57.6136  6191.76  79.0428
 57.6556  6205.38  79.2676
 57.6976  6144.09  78.7102
 57.7396  6031.66  78.3533
 57.7816  6017.17  78.6156
 57.8236  6043.67  78.5828
 57.8656  6184.65  79.1453
 57.9076  6122.29  78.7782
 57.9496  6090.76  78.9243
 57.9916  6146.77  78.7995
 58.0336  6039.29  78.3764
 58.0756  6167.86  78.8474
 58.1176  6100.85  78.4134
 58.1596  6063.67  78.7342
 58.2016  6180.26  78.7122
 58.2436  6144.43  78.8988
 58.2856  6161.86  78.927
 58.3276  6146.62  79.2054
 58.3696  6088.44  78.5758
 58.4116  6166.09  78.9435
 58.4536  6142.75  78.6809
 58.4956  6200.67  79.2275
 58.5376  6202.82  78.8131
 58.5796  6135.9  78.8109
 58.6216  6242.33  79.301
 58.6636  6209.36  79.313
 58.7056  6159.11  78.8454
 58.7476  6105.19  78.9473
 58.7896  6127.51  78.7343
 58.8316  6074.47  78.388
 58.8736  6296.6  79.8188
 58.9156  6095.33  78.575
 58.9576  6190.96  79.5153
 58.9996  6380.91  79.944
 59.0416  6388.81  80.3685
 59.0836  6036.01  78.0427
 59.1256  6118.09  79.2785
 59.1676  6142.33  79.7449
 59.2096  6109.01  78.8325
 59.2516  6120.2  78.483
 59.2936  6197.07  79.3067
 59.3356  6243.16  79.4767
 59.3776  6299.88  80.0095
 59.4196  6100.57  78.6697
 59.4616  6136.01  78.7564
 59.5036  6127.33  78.7345
 59.5456  6234.61  79.1111
 59.5876  6165.47  78.8642
 59.6296  6099.15  78.5085
 59.6716  6127.65  78.7501
 59.7136  6251.03  79.527
 59.7556  6112.08  78.7754
 59.7976  6125.77  78.6039
 59.8396  6046.98  77.991
 59.8816  6160.58  79.2709
 59.9236  6295.69  79.7718
 59.9656  6132.57  78.993
 60.0076  6187.9  78.6993
 60.0496  6208.76  79.3427
 60.0916  6193.33  78.6548
 60.1336  6067.15  78.9593
 60.1756  6055.92  80.072
 60.1996  0.0000000E+00  0.0000000E+00