File: docs/examples/opeando_xrd/IS17_D/Data/IS17_D/17_Db_f00023.xye
# /beamlines/bl04/projects/cycle2025-II/20250340211-lsimonelli/DATA/IS17_D/17_Db_f00023.xye : mythproc.py merge -s 0.006 -l 0.5 -f /beamlines/bl04/inhouse/ff/FlatField/ff_20Nov2024rod8mm60s_17keV.raw -b True -c true -o xye /beamlines/bl04/projects/cycle2025-II/20250340211-lsimonelli/DATA/IS17_D/17_Db_00023.dat
# IsMon = [6762345, 6766039, 6762150]  IsPos = [-1.4999, -2.4885, -3.4988]
# Wave = 0.4962  CalPath /beamlines/bl04/projects/cycle2025-II/20250340211-lsimonelli/DATA/Align/Si_Pos1_25keV_f00001.cal
# Date = 2025-09-24_00:06:32 Dt = 4.8000  Bin = 0.0060  <imon> = 6763511 +/- 1789 (Min/Max) 6762150 / 6766039
# icurr 251.0051  mocoIn 1.7130E-05  mocoOut 0.8039  i15 7.08193e+06  imon 6.76351e+06  i7 3.3333  iEMpd_timer 4.8000  iEMpd_1 3.5328E-08  iEMpd_2 7.7900E-08  iEMpd_3 1.6182E-08  iEMpd_4 4.7942E-08  iEMhp_timer 4.8000  iEMhp_1 4.9041E-06  iEMhp_2 -2.4172E-08  iEMhp_3 -2.3082E-08  iEMhp_4 -2.1371E-08
#      9776
 1.5856  42970.1  212.875
 1.6276  50461  226.726
 1.6696  55410.4  236.747
 1.7116  63278.9  253.494
 1.7536  71077.3  267.516
 1.7956  75520.9  276.44
 1.8376  72107.1  270.548
 1.8796  61918.8  248.864
 1.9216  50925.4  226.591
 1.9636  43406.3  208.339
 2.0056  39744.5  198.584
 2.0476  36866  193.354
 2.0896  34983.6  187.249
 2.1316  34397.2  184.78
 2.1736  32627.9  181.393
 2.2156  33358.6  181.941
 2.2576  32283  179.625
 2.2996  31188.8  177.203
 2.3416  31596.7  176.93
 2.3836  30676.5  174.446
 2.4256  29592.9  171.896
 2.4676  29317.3  170.851
 2.5096  29306.2  170.874
 2.5516  30175.9  177.291
 2.5936  54793.8  234.203
 2.6356  28642.2  170.021
 2.6776  27368.3  165.112
 2.7196  26753.3  163.726
 2.7616  26632.3  163.15
 2.8036  26069.3  161.576
 2.8456  26070.6  162.215
 2.8876  25828.9  161.292
 2.9296  25157.5  159.348
 2.9716  25007.9  158.362
 3.0136  24798.4  157.763
 3.0556  24791.3  158.125
 3.0976  24840.8  157.202
 3.1396  24591.9  157.117
 3.1816  24139  155.626
 3.2236  24082.4  155.432
 3.2656  23999.4  154.211
 3.3076  23708.3  154.725
 3.3496  24039.1  154.975
 3.3916  24234.2  155.19
 3.4336  24582.7  156.873
 3.4756  25066.2  158.364
 3.5176  25746.7  160.269
 3.5596  25551.5  162.089
 3.6016  25561.3  159.761
 3.6436  24764.7  158.346
 3.6856  24337  155.299
 3.7276  23452.4  153.504
 3.7696  23227.8  152.967
 3.8116  22826  151.531
 3.8536  23061.5  152.254
 3.8956  23034.5  151.976
 3.9376  23029.4  152.23
 3.9796  22609.1  150.324
 4.0216  22565.4  149.226
 4.0636  22657.2  150.977
 4.1056  22677  150.705
 4.1476  23165.3  152.63
 4.1896  23089.6  152.251
 4.2316  23217  152.495
 4.2736  23694.6  153.852
 4.3156  23824.4  154.509
 4.3576  24608.1  156.934
 4.3996  24923.6  158.196
 4.4416  25327.5  159.067
 4.4836  26069.1  161.536
 4.5256  26480.4  163.418
 4.5676  26265.1  162.999
 4.6096  26882.2  163.568
 4.6516  27209.8  164.264
 4.6936  27308.3  165.389
 4.7356  27784.7  166.643
 4.7776  27437.4  165.425
 4.8196  27174  165.281
 4.8616  26715.9  163.502
 4.9036  26627.3  162.837
 4.9456  26380.9  162.731
 4.9876  25943.5  161.273
 5.0296  25867.6  160.878
 5.0716  25893.7  161.559
 5.1136  26050.6  161.92
 5.1556  26270.2  162.062
 5.1976  28754.5  169.547
 5.2396  26893.1  163.656
 5.2816  26872.9  164.068
 5.3236  26933.4  163.95
 5.3656  26214.8  162.67
 5.4076  25942.2  161.96
 5.4496  25991.6  161.616
 5.4916  26274.7  162.248
 5.5336  26122.1  161.781
 5.5756  26252.9  162.21
 5.6176  26201.4  161.491
 5.6596  26553  163.549
 5.7016  26666.9  163.164
 5.7436  26650.6  163.389
 5.7856  26612.5  163.342
 5.8276  26747.5  163.469
 5.8696  26997.3  164.407
 5.9116  26984.3  164.959
 5.9536  27419.8  166.034
 5.9956  27385.4  165.325
 6.0376  27516.2  166.325
 6.0796  27781.9  166.961
 6.1216  27551.8  166.469
 6.1636  27903.2  166.587
 6.2056  27628.5  166.438
 6.2476  27943.3  167.258
 6.2896  28414.1  168.338
 6.3316  28248.9  168.023
 6.3736  28319.4  168.12
 6.4156  28498.8  168.531
 6.4576  28698.5  168.753
 6.4996  28388.8  168.315
 6.5416  28501.8  168.773
 6.5836  28567.5  169.203
 6.6256  28817.9  169.506
 6.6676  29369.5  170.696
 6.7096  29183.2  171.004
 6.7516  29367.5  171.2
 6.7936  29819.9  171.92
 6.8356  30050.3  172.67
 6.8776  29956.9  173.206
 6.9196  30168.3  174.212
 6.9616  30385.3  174.262
 7.0036  30782.4  175.081
 7.0456  30796  174.43
 7.0876  30561.2  175.425
 7.1296  30774  175.176
 7.1716  30702.3  174.524
 7.2136  30506.4  173.733
 7.2556  30587.5  174.126
 7.2976  30485.6  174.325
 7.3396  30509.9  174.602
 7.3816  30385.8  174.465
 7.4236  30816.8  175.007
 7.4656  30817.1  174.48
 7.5076  31136.7  175.529
 7.5496  30822.3  175.172
 7.5916  31015.1  175.762
 7.6336  31616.3  177.34
 7.6756  31420.8  176.649
 7.7176  32074.2  178.784
 7.7596  31912.7  179.546
 7.8016  33603.2  186.489
 7.8436  32028.1  178.776
 7.8856  32255.5  179.031
 7.9276  32643.2  180.5
 7.9696  32949.8  181.639
 8.0116  33818.3  182.595
 8.0536  34055.1  183.477
 8.0956  34624.8  186.159
 8.1376  34522.9  185.378
 8.1796  34628.6  186.178
 8.2216  35481.1  187.227
 8.2636  35754.1  188.195
 8.3056  35295.3  187.743
 8.3476  36531.3  190.325
 8.3896  35835.3  188.585
 8.4316  35848.2  188.783
 8.4736  36023.2  188.725
 8.5156  35707.7  188.166
 8.5576  35514.7  188.593
 8.5996  35203.4  186.683
 8.6416  34971.3  187.282
 8.6836  34747.1  186.535
 8.7256  35568.3  188.167
 8.7676  36061.4  192.376
 8.8096  36659.2  191.282
 8.8516  35423.6  187.602
 8.8936  35852.2  188.697
 8.9356  35277.8  187.501
 8.9776  35506.3  188.183
 9.0196  35295.1  187.303
 9.0616  35578.6  187.564
 9.1036  35486.6  188.481
 9.1456  34362.1  184.813
 9.1876  34600.3  185.389
 9.2296  34367.5  184.229
 9.2716  33832.8  182.814
 9.3136  34031.5  183.352
 9.3556  34255.5  183.929
 9.3976  33173  181.504
 9.4396  33111.1  181.229
 9.4816  32925.5  180.589
 9.5236  32845.3  180.266
 9.5656  32873.3  180.706
 9.6076  31795.8  178.227
 9.6496  32314.1  179.551
 9.6916  31952.2  178.502
 9.7336  32213.1  179.043
 9.7756  31851.5  179.331
 9.8176  31951.3  179.012
 9.8596  31852.4  177.218
 9.9016  31256.7  175.543
 9.9436  31364.2  175.752
 9.9856  31048  175.145
 10.0276  30339.9  174.181
 10.0696  30732.4  174.355
 10.1116  29963.7  172.422
 10.1536  29816.1  172.14
 10.1956  29419.8  170.623
 10.2376  29119.9  169.283
 10.2796  29331.7  169.995
 10.3216  28935.1  169.119
 10.3636  28926.2  169.122
 10.4056  29152.8  170.177
 10.4476  29623.5  171.162
 10.4896  30760.9  173.86
 10.5316  29320.8  170.466
 10.5736  28463  168.358
 10.6156  28068.3  166.958
 10.6576  29947.2  170.975
 10.6996  27632.1  164.936
 10.7416  27296.2  164.141
 10.7836  27155.6  164.375
 10.8256  26240.5  162.003
 10.8676  26452.5  162.209
 10.9096  26320.9  161.847
 10.9516  26104.9  160.139
 10.9936  26152.2  160.499
 11.0356  25930.8  160.405
 11.0776  26208.7  160.606
 11.1196  25818.2  160.162
 11.1616  25098.4  157.576
 11.2036  25552.7  158.859
 11.2456  25917.9  160.694
 11.2876  25417.8  158.87
 11.3296  24890.9  157.125
 11.3716  25435.7  158.535
 11.4136  25139.1  158.469
 11.4556  25258.3  158.514
 11.4976  25796.5  159.195
 11.5396  26138.4  160.408
 11.5816  25523.3  158.95
 11.6236  25003.3  157.757
 11.6656  24999.3  156.706
 11.7076  24363.5  155.508
 11.7496  24080.4  158.526
 11.7916  24145  154.082
 11.8336  23564.1  153.112
 11.8756  23735.4  153.203
 11.9176  23570.1  152.342
 11.9596  23676.9  152.859
 12.0016  23337.6  152.51
 12.0436  23462.6  152.384
 12.0856  23168.5  151.904
 12.1276  23089.7  151.609
 12.1696  23098  150.765
 12.2116  23115.9  150.822
 12.2536  23840.1  153.992
 12.2956  23020.2  150.667
 12.3376  23210.6  151.5
 12.3796  22912.7  150.995
 12.4216  23220.5  151.206
 12.4636  23056.3  151.599
 12.5056  22828.4  150.127
 12.5476  23033.8  150.33
 12.5896  22595.6  149.513
 12.6316  22790  150.306
 12.6736  22726.9  150.577
 12.7156  22975.3  151.237
 12.7576  23025.2  151.654
 12.7996  22981.2  150.171
 12.8416  22826.1  150.699
 12.8836  23154.1  151.613
 12.9256  23392.7  151.442
 12.9676  23293  151.51
 13.0096  23387.6  152.914
 13.0516  23477  152.25
 13.0936  23438.8  152.531
 13.1356  23612.4  152.068
 13.1776  23438  152.512
 13.2196  23389.6  151.998
 13.2616  23045.2  151.183
 13.3036  23374  152.227
 13.3456  22946.2  150.973
 13.3876  23570.4  152.485
 13.4296  23304.5  151.798
 13.4716  23524.9  152.143
 13.5136  23489.3  152.168
 13.5556  23169.6  151.728
 13.5976  23536  153.096
 13.6396  23412.2  152.061
 13.6816  23638.6  153.257
 13.7236  24093.7  154.286
 13.7656  25710  159.847
 13.8076  26709.1  161.582
 13.8496  25812.4  159.491
 13.8916  23772.6  154.175
 13.9336  23027.3  151.057
 13.9756  22981.7  150.299
 14.0176  22707.1  150.058
 14.0596  23209.3  151.63
 14.1016  22800.3  150.709
 14.1436  22827  149.952
 14.1856  22361.9  148.698
 14.2276  22368.9  149.196
 14.2696  22392  149.118
 14.3116  21746  146.868
 14.3536  21569.1  146.437
 14.3956  21478.3  145.853
 14.4376  21675.8  146.316
 14.4796  21616.4  146.111
 14.5216  21167.1  145.36
 14.5636  21274.4  145.303
 14.6056  21423.7  145.385
 14.6476  21039.9  143.335
 14.6896  20813.2  143.088
 14.7316  20466.1  142.909
 14.7736  20281.2  141.413
 14.8156  20201.2  141.152
 14.8576  20053.4  140.507
 14.8996  19802.7  140.787
 14.9416  19521.1  139.8
 14.9836  19524.4  139.804
 15.0256  19144.5  137.364
 15.0676  18785.5  136.375
 15.1096  18611.7  135.49
 15.1516  18441.8  135.403
 15.1936  18257.6  134.179
 15.2356  18272.4  134.502
 15.2776  18156.8  133.678
 15.3196  17722  133.03
 15.3616  17708.3  132.749
 15.4036  17738.4  132.723
 15.4456  17929.5  133.088
 15.4876  17653.9  131.755
 15.5296  17404.9  131.096
 15.5716  17223.4  130.033
 15.6136  17197  130.244
 15.6556  17699.1  131.388
 15.6976  17315.8  130.036
 15.7396  17190.4  130.16
 15.7816  17086.2  129.281
 15.8236  16642  128.265
 15.8656  16657.9  128.122
 15.9076  16556.3  127.559
 15.9496  17629.9  134.431
 15.9916  16988  132.354
 16.0336  17232.2  130.214
 16.0756  17045.3  129.825
 16.1176  16685.7  128.532
 16.1596  16374.1  128.476
 16.2016  16237.8  126.731
 16.2436  16184.1  126.89
 16.2856  16269.7  126.751
 16.3276  16038.3  126.277
 16.3696  16069.5  126.231
 16.4116  15976.5  126.302
 16.4536  16103.8  126.613
 16.4956  16346.7  127.298
 16.5376  15920.4  125.822
 16.5796  15951.5  125.316
 16.6216  15981.4  125.682
 16.6636  15786.9  125.118
 16.7056  15871.3  125.305
 16.7476  15930.9  125.081
 16.7896  15896.5  125.687
 16.8316  15696.5  124.872
 16.8736  15974  126.217
 16.9156  15961.2  126.493
 16.9576  15598.8  125.8
 16.9996  15544.6  126.054
 17.0416  15869.6  125.763
 17.0836  15484.7  123.998
 17.1256  15530.6  124.184
 17.1676  15661.3  124.678
 17.2096  15361.3  123.377
 17.2516  15252.7  122.727
 17.2936  15135.5  122.596
 17.3356  15194.2  122.825
 17.3776  15084.7  122.549
 17.4196  14956.7  121.736
 17.4616  15112.5  122.284
 17.5036  14913.3  121.826
 17.5456  14769.1  121.868
 17.5876  14544.7  120.008
 17.6296  14764.3  120.75
 17.6716  14776.3  121.365
 17.7136  14806.3  121.626
 17.7556  14541.4  120.816
 17.7976  14349.1  119.615
 17.8396  14290.5  119.025
 17.8816  14208.8  119.228
 17.9236  14229.8  119.12
 17.9656  14178.3  119.557
 18.0076  14444.7  120.135
 18.0496  14395.5  119.076
 18.0916  15871.6  125.605
 18.1336  14954.5  122.009
 18.1756  14602.6  120.122
 18.2176  15014.2  122.02
 18.2596  14198.9  118.383
 18.3016  14463.3  119.752
 18.3436  14793.5  121.349
 18.3856  14248.3  118.994
 18.4276  14051.4  117.854
 18.4696  14181.8  118.486
 18.5116  14119.3  118.5
 18.5536  13950.6  118.147
 18.5956  14060  118.165
 18.6376  13863.9  117.731
 18.6796  13766  116.646
 18.7216  13940.9  117.941
 18.7636  13770.5  117.159
 18.8056  13539.7  116.086
 18.8476  13253.3  115.468
 18.8896  13596.2  116.297
 18.9316  13502.3  115.719
 18.9736  13520  115.65
 19.0156  13571.3  116.286
 19.0576  13739.9  115.863
 19.0996  13583.6  115.912
 19.1416  13629.3  116.496
 19.1836  13456.8  115.371
 19.2256  13295.9  114.896
 19.2676  13334.1  115.145
 19.3096  13401.5  115.672
 19.3516  13326.6  115.312
 19.3936  13368.4  115.376
 19.4356  13516.3  115.908
 19.4776  13389.3  115.448
 19.5196  13455.8  115.591
 19.5616  13297  115.166
 19.6036  13204.8  114.275
 19.6456  13444.9  115.419
 19.6876  13563.9  115.562
 19.7296  13545.2  115.95
 19.7716  13434.7  115.498
 19.8136  13707.1  117.001
 19.8556  13847.9  117.09
 19.8976  13667.4  116.375
 19.9396  13807.2  116.572
 19.9816  13797.3  116.774
 20.0236  14195.3  118.636
 20.0656  13811.7  117.02
 20.1076  13784.6  117.375
 20.1496  13338.9  115.452
 20.1916  13596.4  116.093
 20.2336  13281.1  114.67
 20.2756  13026.7  113.988
 20.3176  12981.5  113.538
 20.3596  12871.5  113.049
 20.4016  13034.7  113.562
 20.4436  12830.4  113.23
 20.4856  13012.9  113.821
 20.5276  12837.3  113.498
 20.5696  12938.3  113.397
 20.6116  12783.8  113
 20.6536  12643.4  111.937
 20.6956  12698.2  112.268
 20.7376  12548.5  111.809
 20.7796  12593.5  111.71
 20.8216  12750.7  112.126
 20.8636  12763  112.549
 20.9056  12883.6  113.018
 20.9476  12643  111.807
 20.9896  13078.6  113.567
 21.0316  12612.8  111.44
 21.0736  12668.1  112.196
 21.1156  12735.6  112.651
 21.1576  12760.3  112.793
 21.1996  12558.5  111.89
 21.2416  12705.9  112.37
 21.2836  12596.9  111.861
 21.3256  12740.2  112.57
 21.3676  12618.8  111.57
 21.4096  12442.8  111.114
 21.4516  12423.4  110.891
 21.4936  12148.2  109.919
 21.5356  12467.4  111.31
 21.5776  12396  110.82
 21.6196  12362.1  110.714
 21.6616  12395  110.943
 21.7036  12343.6  110.489
 21.7456  12100.7  109.472
 21.7876  12168.2  109.539
 21.8296  12119.7  109.163
 21.8716  12241.7  109.938
 21.9136  12398.6  110.84
 21.9556  12324.1  110.192
 21.9976  12166.5  109.515
 22.0396  12158.1  109.724
 22.0816  12113.8  110.04
 22.1236  12374.7  110.683
 22.1656  11999.7  109.182
 22.2076  11878.1  108.041
 22.2496  11944.3  108.372
 22.2916  11827  107.733
 22.3336  11930  108.885
 22.3756  11924.1  108.602
 22.4176  11747.3  107.653
 22.4596  11638.7  107.733
 22.5016  11869.6  108.306
 22.5436  12051.3  109.011
 22.5856  12133  109.614
 22.6276  12375.5  110.836
 22.6696  11937.7  109.213
 22.7116  11906.9  108.584
 22.7536  11762.4  107.909
 22.7956  11882.4  107.808
 22.8376  11727.5  107.616
 22.8796  11722.6  107.392
 22.9216  11720.5  107.914
 22.9636  11797.6  107.445
 23.0056  11696.9  107.107
 23.0476  11822.2  108.243
 23.0896  12199.1  109.34
 23.1316  11996  108.852
 23.1736  12039.8  111.926
 23.2156  12099.4  109.658
 23.2576  12475.7  111.478
 23.2996  12115.9  109.641
 23.3416  12256.3  110.794
 23.3836  12155.6  109.583
 23.4256  12414.9  110.865
 23.4676  12138.5  109.321
 23.5096  12169.6  110.101
 23.5516  11982.4  108.574
 23.5936  12129.2  110.132
 23.6356  12430.7  111.16
 23.6776  12022.7  109.529
 23.7196  12010.4  109.052
 23.7616  12034.5  109.086
 23.8036  12276.5  110.226
 23.8456  12086.7  108.937
 23.8876  12031.9  109.029
 23.9296  11993  109.341
 23.9716  11880.4  108.042
 24.0136  12011.2  109.531
 24.0556  11871.3  108.605
 24.0976  11659.7  107.458
 24.1396  11721.6  110.297
 24.1816  11920.2  109.996
 24.2236  11915.7  109.275
 24.2656  11655.4  107.549
 24.3076  11602.1  107.575
 24.3496  11649.6  107.667
 24.3916  11646.2  107.713
 24.4336  11723.1  108.256
 24.4756  11630.2  107.723
 24.5176  11518.4  106.844
 24.5596  11541.7  107.05
 24.6016  11329  106.367
 24.6436  11611.5  107.199
 24.6856  11417  106.03
 24.7276  11320.9  105.908
 24.7696  11267.6  105.773
 24.8116  11189.4  105.566
 24.8536  11221.5  105.734
 24.8956  11103.4  104.91
 24.9376  11142.8  105.028
 24.9796  11127.3  105.31
 25.0216  11025  104.944
 25.0636  11112.4  105.013
 25.1056  10847.5  104.165
 25.1476  10826.1  105.922
 25.1896  10910  104.88
 25.2316  10851.9  103.896
 25.2736  11035.6  104.421
 25.3156  10769.7  103.227
 25.3576  10740.5  103.515
 25.3996  10757.6  103.587
 25.4416  10779.4  103.662
 25.4836  10619.2  103.395
 25.5256  10729.5  103.302
 25.5676  10700.2  102.897
 25.6096  10518.4  102.584
 25.6516  10657.9  102.768
 25.6936  10578.1  102.699
 25.7356  10650.4  103.183
 25.7776  10793.2  103.476
 25.8196  10533.5  102.459
 25.8616  10497.7  102.216
 25.9036  10736.6  102.836
 25.9456  10492.6  102.237
 25.9876  10440.8  102.05
 26.0296  10666.2  102.753
 26.0716  10521.6  102.392
 26.1136  10620.7  102.797
 26.1556  10649.9  102.342
 26.1976  10362  101.852
 26.2396  10447.1  101.681
 26.2816  10561.5  102.592
 26.3236  10554.8  102.706
 26.3656  10672.6  103.017
 26.4076  10393.2  101.858
 26.4496  10713.9  103.009
 26.4916  10691.5  102.8
 26.5336  10954.8  104.398
 26.5756  11126.8  105.097
 26.6176  10609.1  102.645
 26.6596  10561  102.712
 26.7016  10303  101.213
 26.7436  10363.7  101.639
 26.7856  10166.9  100.652
 26.8276  10370  101.63
 26.8696  10306.1  101.182
 26.9116  10221.8  100.703
 26.9536  10212.6  100.709
 26.9956  10016.6  99.777
 27.0376  10170.3  100.755
 27.0796  9990.39  99.6672
 27.1216  10283.2  101.091
 27.1636  10098.7  100.358
 27.2056  10149.5  100.497
 27.2476  9855.83  99.0229
 27.2896  9964.47  99.6798
 27.3316  9936.89  99.2704
 27.3736  9891.13  99.3014
 27.4156  10042.4  99.9007
 27.4576  9905.1  99.4229
 27.4996  10075.5  99.8982
 27.5416  9925.28  99.4512
 27.5836  9950.36  99.4138
 27.6256  9873.85  99.2065
 27.6676  9949.08  99.5767
 27.7096  9971.37  99.57
 27.7516  10103.1  100.372
 27.7936  10285.1  101.413
 27.8356  9994.73  99.591
 27.8776  10195  100.65
 27.9196  9759.67  98.3437
 27.9616  10013.7  99.8105
 28.0036  9732.52  98.3504
 28.0456  9824.05  98.9584
 28.0876  9689.2  98.3597
 28.1296  9774.23  98.6296
 28.1716  9899.93  99.2834
 28.2136  9708.46  98.2807
 28.2556  9712.26  98.4151
 28.2976  9665.06  98.1697
 28.3396  9615.95  97.7136
 28.3816  9667.03  97.9488
 28.4236  9635.17  97.9385
 28.4656  9547.49  97.5233
 28.5076  9599.9  97.4463
 28.5496  9713.75  98.2686
 28.5916  9631.58  97.6679
 28.6336  9678.09  98.2456
 28.6756  9650.13  97.3125
 28.7176  9518.05  97.1894
 28.7596  9493.74  96.9618
 28.8016  9471.03  96.8731
 28.8436  9441.04  96.9651
 28.8856  9553.14  97.3923
 28.9276  9500.62  97.3681
 28.9696  9388.66  96.4482
 29.0116  9383.42  96.6139
 29.0536  9250.27  96.1254
 29.0956  9439.04  96.8105
 29.1376  9201.72  95.5512
 29.1796  9424.34  96.7461
 29.2216  9277.38  95.8387
 29.2636  9380.86  96.3664
 29.3056  9289.27  95.752
 29.3476  9385.2  96.768
 29.3896  9340.04  96.6526
 29.4316  9125.23  94.8777
 29.4736  9110.44  94.8617
 29.5156  9027.91  94.3548
 29.5576  9136.82  95.6382
 29.5996  9251  95.514
 29.6416  9114.75  94.9173
 29.6836  9155.71  95.0655
 29.7256  8941.53  94.4918
 29.7676  8974.42  94.344
 29.8096  8904.27  93.9137
 29.8516  8945.46  94.455
 29.8936  8983.49  94.744
 29.9356  9138.66  95.319
 29.9776  8935.59  94.4031
 30.0196  9072.35  94.5194
 30.0616  8951.59  94.2551
 30.1036  8958.19  94.1169
 30.1456  8896.11  94.0214
 30.1876  8988.93  94.4843
 30.2296  8926.22  94.114
 30.2716  8990.2  94.0928
 30.3136  8985.34  94.9015
 30.3556  9285.81  96.4809
 30.3976  9098.98  96.9579
 30.4396  9420.53  96.0521
 30.4816  9218.39  94.6317
 30.5236  9318.48  95.13
 30.5656  9093.86  94.6308
 30.6076  9230.07  94.7556
 30.6496  9250.64  95.267
 30.6916  9062.77  94.3944
 30.7336  9100.46  94.7237
 30.7756  9196.97  95.3114
 30.8176  9111.77  94.799
 30.8596  9239.94  95.2024
 30.9016  9094.36  94.8061
 30.9436  9132.39  94.7522
 30.9856  9276.54  95.609
 31.0276  9137.73  94.5352
 31.0696  8967.03  94.186
 31.1116  8982.95  94.2498
 31.1536  8956.63  93.9867
 31.1956  8894.8  93.7439
 31.2376  8841  93.4994
 31.2796  8907.4  93.3895
 31.3216  9057.75  94.0849
 31.3636  8925.6  94.0882
 31.4056  9024.8  95.894
 31.4476  9026.44  93.8475
 31.4896  8916.45  93.758
 31.5316  9070.04  94.0203
 31.5736  9266.97  94.8263
 31.6156  9162.77  94.2958
 31.6576  9153.47  94.3237
 31.6996  9129.95  93.8613
 31.7416  8970.94  94.1249
 31.7836  9049.53  93.5583
 31.8256  8960.58  93.4244
 31.8676  9218.3  94.6759
 31.9096  8917.46  93.4792
 31.9516  8847.57  93.283
 31.9936  8792.69  92.8104
 32.0356  8967.18  93.7639
 32.0776  8892.02  93.2867
 32.1196  8956.55  93.7279
 32.1616  9052.89  93.68
 32.2036  8997.69  93.903
 32.2456  8810.08  93.2865
 32.2876  8875.58  92.9776
 32.3296  8807.72  92.7514
 32.3716  8655.63  92.0599
 32.4136  8756.32  92.7992
 32.4556  8772.26  92.3282
 32.4976  8761.73  92.1377
 32.5396  8720.33  91.9744
 32.5816  8657.07  91.7652
 32.6236  8629.19  91.6825
 32.6656  8740.85  92.8116
 32.7076  8523.18  91.3088
 32.7496  8682.19  91.8325
 32.7916  8623  91.4778
 32.8336  8567.72  91.2781
 32.8756  8679.37  91.5988
 32.9176  8564.53  91.4656
 32.9596  8611.43  91.7824
 33.0016  8649.81  91.7427
 33.0436  8599.79  91.6747
 33.0856  8670.09  92.1407
 33.1276  8471.41  90.8051
 33.1696  8645.57  91.5635
 33.2116  8559.21  91.346
 33.2536  8680.43  91.9814
 33.2956  8605.35  91.6672
 33.3376  8516.06  90.941
 33.3796  8613.09  91.6665
 33.4216  8571.52  91.0501
 33.4636  8546.29  91.063
 33.5056  8440.32  90.7301
 33.5476  8486.1  90.958
 33.5896  8611.93  91.4056
 33.6316  8494.25  91.0972
 33.6736  8336.78  90.4947
 33.7156  8317.93  90.424
 33.7576  8505.24  91.0845
 33.7996  8461.3  90.6175
 33.8416  8308.64  89.9759
 33.8836  8370.49  90.0908
 33.9256  8496.62  90.8244
 33.9676  8569.3  91.1036
 34.0096  8392.54  90.4656
 34.0516  8282.67  89.5206
 34.0936  8228.46  89.4951
 34.1356  8382.22  90.0728
 34.1776  8254.58  89.3696
 34.2196  8289.12  89.7506
 34.2616  8137.95  89.0545
 34.3036  8372.04  90.569
 34.3456  8297.84  89.9298
 34.3876  8350.75  90.1924
 34.4296  8308.74  89.6486
 34.4716  8403.96  90.3215
 34.5136  8336.75  90.1302
 34.5556  8187.29  89.5796
 34.5976  8291.12  89.9632
 34.6396  8232.74  89.3568
 34.6816  8354.49  90.1312
 34.7236  8260.61  89.3981
 34.7656  8259.92  89.6076
 34.8076  8195.83  89.5804
 34.8496  8154.77  89.203
 34.8916  8215.17  89.3942
 34.9336  8336.26  90.0421
 34.9756  8283.29  89.6749
 35.0176  8239.06  89.9459
 35.0596  8291.58  90.0625
 35.1016  8328.39  90.0205
 35.1436  8458.09  90.4067
 35.1856  8317.36  89.7795
 35.2276  8236.89  89.5069
 35.2696  8310.04  90.1063
 35.3116  8160.62  89.3828
 35.3536  8130.08  88.9386
 35.3956  8192.68  88.9956
 35.4376  8276.79  90.007
 35.4796  8236.81  89.8215
 35.5216  8135.35  89.2428
 35.5636  7934.06  88.8526
 35.6056  8113.62  88.8835
 35.6476  8195.83  89.2349
 35.6896  8287.08  89.8966
 35.7316  8089.67  88.7211
 35.7736  8097.59  88.9416
 35.8156  8154.58  89.2616
 35.8576  8081.12  89.0928
 35.8996  8152.41  89.4714
 35.9416  8011.47  88.2024
 35.9836  8155.63  89.336
 36.0256  8363.45  90.4752
 36.0676  8264.69  89.4782
 36.1096  8172.3  89.3413
 36.1516  8151.29  89.1278
 36.1936  8256.89  89.5322
 36.2356  8164.61  89.679
 36.2776  8102.23  88.8296
 36.3196  8163.59  88.8311
 36.3616  8099  88.6105
 36.4036  8010.8  88.1921
 36.4456  8119.77  88.9939
 36.4876  7986.48  88.2015
 36.5296  7961.29  88.1004
 36.5716  8015.97  89.1686
 36.6136  8051.34  88.1646
 36.6556  7935.2  87.7243
 36.6976  7853.39  87.7503
 36.7396  7767.3  87.0013
 36.7816  7763.99  87.3532
 36.8236  7828.38  87.6315
 36.8656  7709.68  87.0296
 36.9076  7829.15  87.7189
 36.9496  7682.67  86.7629
 36.9916  7911.98  87.6798
 37.0336  7895.19  87.9006
 37.0756  7843.72  87.4062
 37.1176  7770.86  87.2612
 37.1596  7706.69  86.9083
 37.2016  7635.05  86.6691
 37.2436  7701.66  86.4324
 37.2856  7788.94  87.1615
 37.3276  7778.8  86.4853
 37.3696  7730.07  87.0713
 37.4116  7741.31  87.0463
 37.4536  7664.42  86.4824
 37.4956  7613.84  86.2463
 37.5376  7846.47  89.1152
 37.5796  7816.52  88.8671
 37.6216  7678.05  86.3994
 37.6636  7941.36  87.7574
 37.7056  7837.12  87.3622
 37.7476  8042.78  88.0515
 37.7896  7681.12  86.541
 37.8316  7762.97  87.1506
 37.8736  7843.67  87.1398
 37.9156  7799.29  86.8775
 37.9576  7826.88  86.9569
 37.9996  7694.54  85.9338
 38.0416  7633.83  86.3803
 38.0836  7766.76  87.0322
 38.1256  7858.47  87.5238
 38.1676  7546.91  85.8882
 38.2096  7948.38  87.7458
 38.2516  7747.79  86.8626
 38.2936  7882.2  87.4043
 38.3356  7741.74  86.5589
 38.3776  7702.05  86.5691
 38.4196  7740.04  86.652
 38.4616  7830.44  87.4007
 38.5036  7867.61  87.4504
 38.5456  7687.69  87.2486
 38.5876  7698.61  87.3342
 38.6296  7670.56  86.1625
 38.6716  7699.04  86.1335
 38.7136  7590.97  85.4724
 38.7556  7646.04  86.275
 38.7976  7764.79  86.8645
 38.8396  7656.45  86.711
 38.8816  7629.45  86.3567
 38.9236  7616.07  86.0818
 38.9656  7785.56  86.9493
 39.0076  7640.28  85.5407
 39.0496  7787.11  86.9193
 39.0916  7832.86  86.8197
 39.1336  7665.29  86.2882
 39.1756  7691.19  86.4831
 39.2176  7644.59  86.7467
 39.2596  7833.24  87.7451
 39.3016  7819.74  87.2597
 39.3436  7531.18  86.0374
 39.3856  7672.29  86.2832
 39.4276  7869.53  87.9019
 39.4696  7651.71  86.2914
 39.5116  7719.98  87.1918
 39.5536  7804.79  88.0858
 39.5956  7699.72  86.6087
 39.6376  7620.34  86.1681
 39.6796  7526.04  85.3834
 39.7216  7711.9  86.5345
 39.7636  7627.01  86.6008
 39.8056  7707.83  86.8567
 39.8476  7464.14  85.711
 39.8896  7685.67  86.6136
 39.9316  7660.2  86.7156
 39.9736  7719.5  86.628
 40.0156  7679.78  86.2406
 40.0576  7636.36  86.3287
 40.0996  7608.86  85.3859
 40.1416  7665.24  86.4845
 40.1836  7760.25  86.9094
 40.2256  7634.72  86.2365
 40.2676  7580.36  86.0373
 40.3096  7700.53  86.64
 40.3516  7760.37  87.0793
 40.3936  7663.69  86.1142
 40.4356  7665.48  86.3145
 40.4776  7712.93  86.9796
 40.5196  7708.26  87.0838
 40.5616  7838.96  87.4549
 40.6036  7540.95  86.0321
 40.6456  7741.56  86.7888
 40.6876  7815.14  87.1865
 40.7296  7626.66  86.2627
 40.7716  7742.82  87.0261
 40.8136  7672.55  86.5804
 40.8556  7727.84  87.0221
 40.8976  7658.09  86.5616
 40.9396  7675.98  87.0023
 40.9816  7732.94  86.6244
 41.0236  7772.85  86.6366
 41.0656  7886.95  87.7966
 41.1076  7696.32  86.5052
 41.1496  7832.88  87.1804
 41.1916  7625.21  86.3181
 41.2336  7701.47  86.7579
 41.2756  7536.34  85.4324
 41.3176  7729.15  87.1236
 41.3596  7724.31  86.8348
 41.4016  7650.72  86.68
 41.4436  7751.12  87.0239
 41.4856  7604.49  86.3641
 41.5276  7703.32  86.941
 41.5696  7718.66  86.6506
 41.6116  7753.33  87.2415
 41.6536  7671.41  86.6364
 41.6956  7727.99  87.0196
 41.7376  7708.75  86.9304
 41.7796  7568.52  86.0727
 41.8216  7619.33  86.5401
 41.8636  7616.74  86.4698
 41.9056  7494.33  85.5761
 41.9476  7773.9  87.3854
 41.9896  7722.91  86.7694
 42.0316  7755.96  87.0454
 42.0736  7766.78  87.2037
 42.1156  7660.93  86.4515
 42.1576  7688.74  86.7104
 42.1996  7737.14  87.0991
 42.2416  7592.13  85.8869
 42.2836  7670.47  86.4481
 42.3256  7555.08  85.8993
 42.3676  7727.13  86.654
 42.4096  7683.81  86.4012
 42.4516  7820.62  87.2434
 42.4936  7640.32  86.3092
 42.5356  7520.32  85.7613
 42.5776  7546.75  85.8524
 42.6196  7615.19  86.292
 42.6616  7490.42  85.7516
 42.7036  7592.15  85.7299
 42.7456  7659.73  86.4554
 42.7876  7467.29  85.4459
 42.8296  7555.68  85.7922
 42.8716  7472.47  85.4832
 42.9136  7517.52  85.5329
 42.9556  7598.36  86.1222
 42.9976  7554.02  85.8314
 43.0396  7612.74  85.9038
 43.0816  7526.41  85.7958
 43.1236  7515.66  85.7787
 43.1656  7499.25  85.5091
 43.2076  7540.78  85.8619
 43.2496  7467.07  85.267
 43.2916  7455.88  85.553
 43.3336  7538.53  85.851
 43.3756  7590.84  85.9167
 43.4176  7430.03  85.0868
 43.4596  7538.97  85.5592
 43.5016  7614.73  86.3942
 43.5436  7503.58  85.6702
 43.5856  7441.52  85.3422
 43.6276  7402.89  85.0094
 43.6696  7398.69  85.1228
 43.7116  7497.71  85.3184
 43.7536  7516.49  85.9094
 43.7956  7409.75  86.4924
 43.8376  7364.19  84.7682
 43.8796  7217.7  84.0017
 43.9216  7380.47  84.8631
 43.9636  7359.26  84.851
 44.0056  7242.09  84.3913
 44.0476  7357.74  84.7074
 44.0896  7191.59  84.0745
 44.1316  7230.02  83.961
 44.1736  7273.67  84.2126
 44.2156  7387.31  84.7164
 44.2576  7260.26  84.3076
 44.2996  7394.7  85.0498
 44.3416  7245.81  83.965
 44.3836  7103.54  83.452
 44.4256  7150.61  83.384
 44.4676  7261.51  84.1779
 44.5096  7286.41  84.4633
 44.5516  7109.99  83.404
 44.5936  7253.07  84.1887
 44.6356  7105.18  83.0705
 44.6776  7301.36  84.52
 44.7196  7212.19  84.3104
 44.7616  7363.4  86.4947
 44.8036  7261.66  84.3655
 44.8456  7296.44  84.7634
 44.8876  7394.52  85.1765
 44.9296  7457.39  84.9929
 44.9716  7410.04  85.1489
 45.0136  7444.29  85.2856
 45.0556  7417.31  85.1029
 45.0976  7315.24  84.6744
 45.1396  7294.84  84.306
 45.1816  7279.57  84.1667
 45.2236  7418.95  84.8757
 45.2656  7339.27  84.9146
 45.3076  7242.69  84.1181
 45.3496  7219.14  84.3039
 45.3916  7319.43  85.1503
 45.4336  7445.96  85.7275
 45.4756  7280.09  84.6185
 45.5176  7353.12  84.6616
 45.5596  7346.57  84.749
 45.6016  7348.01  85.1766
 45.6436  7219.69  83.6241
 45.6856  7386.59  85.226
 45.7276  7206.53  85.4731
 45.7696  7178.06  84.994
 45.8116  7239.35  84.7777
 45.8536  7209.49  84.5104
 45.8956  7321.12  84.5159
 45.9376  7173.05  83.1358
 45.9796  7354.61  84.878
 46.0216  7306.46  84.919
 46.0636  7384.74  84.5184
 46.1056  7195.69  83.423
 46.1476  7250.96  84.3245
 46.1896  7346.16  85.0308
 46.2316  7357.38  84.9575
 46.2736  7136.42  84.0401
 46.3156  7281.67  84.4725
 46.3576  7222.11  84.331
 46.3996  7189.44  84.2928
 46.4416  7280.74  84.4118
 46.4836  7149.46  83.9958
 46.5256  7269.47  84.6407
 46.5676  7140.34  83.9969
 46.6096  7313.89  84.9351
 46.6516  7253.54  83.645
 46.6936  7349.94  84.6964
 46.7356  7374.3  84.9289
 46.7776  7178.4  84.6423
 46.8196  7215.85  84.4615
 46.8616  7079.83  83.6118
 46.9036  7146.95  83.6576
 46.9456  7160.1  83.3844
 46.9876  7178.05  83.5715
 47.0296  7121.44  83.9223
 47.0716  6996.83  83.0129
 47.1136  7221.54  84.0089
 47.1556  7125.1  83.3235
 47.1976  7290.03  84.3552
 47.2396  7170  84.0576
 47.2816  7100.19  83.3453
 47.3236  7133.1  83.9084
 47.3656  7164.25  84.0146
 47.4076  7039.47  83.0925
 47.4496  7147.98  83.8265
 47.4916  7110.85  83.802
 47.5336  7168.18  83.9575
 47.5756  7270.07  84.6665
 47.6176  7145.56  83.8401
 47.6596  7111.26  83.3461
 47.7016  7337.69  84.4773
 47.7436  7270.88  84.4332
 47.7856  7223.2  84.1833
 47.8276  7141.97  83.7583
 47.8696  7123.54  83.7358
 47.9116  7265.43  84.279
 47.9536  7191.09  83.7887
 47.9956  7109.95  84.0171
 48.0376  7101.44  83.7389
 48.0796  7112.72  83.9319
 48.1216  7149.14  83.9667
 48.1636  7284.78  84.3366
 48.2056  7327.29  84.8426
 48.2476  7228.55  84.5788
 48.2896  7197.82  84.3086
 48.3316  7190.53  84.2116
 48.3736  7100.91  83.7062
 48.4156  7127.63  83.7144
 48.4576  7179.54  84.3168
 48.4996  7167.83  83.6975
 48.5416  7280.18  84.6833
 48.5836  7066.67  83.1131
 48.6256  7228.22  84.2611
 48.6676  7202.82  84.634
 48.7096  7157.67  83.6304
 48.7516  7094.02  83.4107
 48.7936  7011.64  82.9817
 48.8356  7197.08  84.1277
 48.8776  7008.52  83.4964
 48.9196  7215.68  84.1811
 48.9616  7105.46  83.9148
 49.0036  7159.75  84.5825
 49.0456  7036.94  83.8273
 49.0876  7139.82  84.0837
 49.1296  7078.65  83.783
 49.1716  7007.46  83.2287
 49.2136  7132.88  83.8961
 49.2556  7221.24  84.4501
 49.2976  7066.08  83.6023
 49.3396  6960.13  83.027
 49.3816  7162.44  83.6623
 49.4236  7077.82  83.5856
 49.4656  6996.44  83.1195
 49.5076  7125.64  83.6349
 49.5496  7125.7  83.6933
 49.5916  7048.55  83.1494
 49.6336  7046.04  83.352
 49.6756  7052.22  83.6162
 49.7176  7106.59  83.8784
 49.7596  7044.21  83.2776
 49.8016  7145.7  83.7865
 49.8436  7011.67  83.2946
 49.8856  7020.25  83.3501
 49.9276  7056.92  83.6732
 49.9696  7023.06  83.4554
 50.0116  7001.59  83.4563
 50.0536  7127.29  84.156
 50.0956  6996.49  83.4551
 50.1376  7028  83.3288
 50.1796  7020.49  83.5621
 50.2216  6997.4  83.4252
 50.2636  7001.7  83.0581
 50.3056  6999.75  83.2245
 50.3476  6995.94  83.2188
 50.3896  6983.6  83.1209
 50.4316  7004.96  83.0863
 50.4736  6982.11  83.1724
 50.5156  6997.21  83.2489
 50.5576  7073.15  83.4529
 50.5996  6992.88  83.264
 50.6416  7067.25  83.6286
 50.6836  6978.72  83.1588
 50.7256  7107.12  83.8459
 50.7676  7173.73  84.5274
 50.8096  6910.88  82.5245
 50.8516  6944.17  83.156
 50.8936  6858.12  82.4166
 50.9356  7039.73  83.6127
 50.9776  6976.02  83.3955
 51.0196  6623.72  81.3802
 51.0616  6749.11  81.4761
 51.1036  6875.32  82.5933
 51.1456  6888.24  82.579
 51.1876  6842.93  81.6404
 51.2296  6852.47  82.3398
 51.2716  6770.8  81.5672
 51.3136  6827.61  82.364
 51.3556  6791.17  81.767
 51.3976  6817  82.0588
 51.4396  6691.77  81.6233
 51.4816  6680.26  81.4084
 51.5236  6901.8  82.8282
 51.5656  6750.85  81.5151
 51.6076  6893.73  82.4541
 51.6496  6662.21  81.2572
 51.6916  6766.14  82.2404
 51.7336  6612.52  81.4007
 51.7756  6741.55  81.8694
 51.8176  6784.8  82.2547
 51.8596  6739.81  81.9959
 51.9016  6977.12  83.0289
 51.9436  6774.21  83.3071
 51.9856  6810.33  83.9254
 52.0276  6827.81  82.5279
 52.0696  6983.89  83.5442
 52.1116  6752.39  82.2649
 52.1536  6941.88  83.3007
 52.1956  6898.29  82.505
 52.2376  6973.12  83.1196
 52.2796  6846.66  82.1791
 52.3216  6696.01  81.9532
 52.3636  6909.93  82.8133
 52.4056  6700.55  81.4183
 52.4476  6771.04  82.2074
 52.4896  6633.96  81.4026
 52.5316  6839.36  82.7156
 52.5736  6648.75  81.285
 52.6156  6911.65  83.2732
 52.6576  6673.76  81.262
 52.6996  6575.63  81.6422
 52.7416  6652.66  81.9744
 52.7836  6772.91  82.602
 52.8256  6804.37  81.9999
 52.8676  6593.32  81.2839
 52.9096  6712.28  82.0865
 52.9516  6691.43  82.338
 52.9936  6684.93  82.668
 53.0356  6732.96  81.9704
 53.0776  6846.61  82.961
 53.1196  6630.11  81.7233
 53.1616  6800.64  82.8299
 53.2036  6634.48  81.7704
 53.2456  6740.54  82.5268
 53.2876  6713.88  82.0515
 53.3296  6717.63  82.3899
 53.3716  6821.94  82.7842
 53.4136  6715.59  82.2939
 53.4556  6754.19  82.5554
 53.4976  6686.7  81.9814
 53.5396  6625.76  82.002
 53.5816  6766.04  82.5041
 53.6236  6660.16  82.2052
 53.6656  6645.84  81.7178
 53.7076  6777.12  82.4611
 53.7496  6748.16  82.4464
 53.7916  6719.68  82.3987
 53.8336  6632.43  81.7588
 53.8756  6577.1  81.955
 53.9176  6608.29  81.4925
 53.9596  6456.32  81.3039
 54.0016  6516.65  81.0206
 54.0436  6281.82  79.7502
 54.0856  6437.82  80.186
 54.1276  6384.75  80.0514
 54.1696  6436.07  80.542
 54.2116  6570.89  81.1152
 54.2536  6488.29  80.43
 54.2956  6489.2  80.4829
 54.3376  6474.94  80.867
 54.3796  6395.75  80.2641
 54.4216  6490.09  80.9431
 54.4636  6339.08  79.9369
 54.5056  6471.13  80.5785
 54.5476  6353.85  80.1767
 54.5896  6455.12  80.6598
 54.6316  6372.51  79.9713
 54.6736  6343.05  79.8324
 54.7156  6299.52  79.6285
 54.7576  6255.24  79.3215
 54.7996  6373.47  80.2281
 54.8416  6435.94  80.6768
 54.8836  6412.96  80.6063
 54.9256  6336.11  79.9023
 54.9676  6271.08  79.3546
 55.0096  6281.88  79.4596
 55.0516  6195.89  79.0892
 55.0936  6393.06  80.065
 55.1356  6289.02  79.443
 55.1776  6424.01  80.5189
 55.2196  6301.73  79.56
 55.2616  6495.22  80.9945
 55.3036  6191.47  79.2442
 55.3456  6139.4  79.0552
 55.3876  6312.66  79.8798
 55.4296  6230.21  79.3571
 55.4716  6294.81  79.7866
 55.5136  6245.48  79.255
 55.5556  6434.23  80.4753
 55.5976  6195.65  79.0674
 55.6396  6349.05  79.9791
 55.6816  6247.48  79.2109
 55.7236  6183.36  78.8554
 55.7656  6208.05  78.7386
 55.8076  6148.53  78.3654
 55.8496  6202.63  79.0148
 55.8916  6187.64  79.092
 55.9336  6359.37  80.0421
 55.9756  6159.13  78.6425
 56.0176  6187.63  78.9792
 56.0596  6114.13  78.5003
 56.1016  6125.26  78.6322
 56.1436  6170.55  79.1386
 56.1856  6090.07  78.37
 56.2276  6282.53  79.6389
 56.2696  6104.88  78.5011
 56.3116  6326.52  80.2828
 56.3536  6114.92  78.5917
 56.3956  6210.37  79.184
 56.4376  6136.01  78.7709
 56.4796  6096.11  78.3269
 56.5216  6224.25  79.5234
 56.5636  6078.71  78.1626
 56.6056  6275.38  79.6565
 56.6476  6111.37  78.219
 56.6896  6250.45  79.5686
 56.7316  6094.21  78.4792
 56.7736  6100.36  78.4981
 56.8156  6191.94  79.1295
 56.8576  5983.48  77.7191
 56.8996  6039.24  78.0037
 56.9416  6122.64  78.8267
 56.9836  6114.64  78.3229
 57.0256  6074.63  78.3747
 57.0676  6199.52  79.2916
 57.1096  6130.12  78.6454
 57.1516  5931.18  77.3707
 57.1936  6057.62  77.9887
 57.2356  5939.32  77.5279
 57.2776  6032.92  78.1113
 57.3196  6073.29  78.7179
 57.3616  6059.36  78.108
 57.4036  6056.42  78.1429
 57.4456  6126.02  78.5985
 57.4876  6099.04  78.2845
 57.5296  5968.17  77.6691
 57.5716  5970.96  77.7852
 57.6136  5921.18  77.2985
 57.6556  6100.39  78.5824
 57.6976  6070.96  78.2324
 57.7396  5927.5  77.633
 57.7816  5935.01  78.0621
 57.8236  6050.6  78.5879
 57.8656  5925.9  77.4523
 57.9076  5965.69  77.7466
 57.9496  5981.44  78.2011
 57.9916  6010.3  77.8935
 58.0336  5922.33  77.606
 58.0756  6079.06  78.2468
 58.1176  5929.49  77.2951
 58.1596  5920.88  77.8096
 58.2016  5819.31  76.3801
 58.2436  5830.65  76.8536
 58.2856  5733.14  76.136
 58.3276  5626.39  75.776
 58.3696  5723.48  76.1845
 58.4116  5813.55  76.6513
 58.4536  5861.95  76.8508
 58.4956  5706.12  76.0014
 58.5376  5728.64  75.7383
 58.5796  5674.39  75.7871
 58.6216  5785.66  76.3508
 58.6636  5717.34  76.1059
 58.7056  5720.01  75.9803
 58.7476  5710.08  76.3479
 58.7896  5668.24  75.7231
 58.8316  5724.89  76.0863
 58.8736  5804.25  76.6289
 58.9156  5722.16  76.1232
 58.9576  5626.33  75.8046
 58.9996  5838.1  76.4721
 59.0416  5773.97  76.4145
 59.0836  5712.55  75.9209
 59.1256  5635.92  76.0884
 59.1676  5660.75  76.5567
 59.2096  5761.94  76.5726
 59.2516  5724.66  75.9165
 59.2936  5686.64  75.9824
 59.3356  5617.45  75.4009
 59.3776  5766.47  76.5595
 59.4196  5581.55  75.2609
 59.4616  5671.97  75.7318
 59.5036  5683.62  75.844
 59.5456  5811.18  76.3895
 59.5876  5854.14  76.8595
 59.6296  5713.14  75.9956
 59.6716  5697.76  75.9495
 59.7136  5649.06  75.6128
 59.7556  5734.78  76.3174
 59.7976  5615.08  75.2681
 59.8396  5736.71  75.9758
 59.8816  5580.6  75.4583
 59.9236  5607.07  75.2946
 59.9656  5708.92  76.2285
 60.0076  5649.31  75.2082
 60.0496  5712.33  76.1168
 60.0916  5764.78  75.8968
 60.1336  5557.15  75.5798
 60.1756  5499.57  76.3174
 60.1996  0.0000000E+00  0.0000000E+00