File: docs/examples/opeando_xrd/IS17_D/Data/IS17_D/17_Db_f00131.xye
# /beamlines/bl04/projects/cycle2025-II/20250340211-lsimonelli/DATA/IS17_D/17_Db_f00131.xye : mythproc.py merge -s 0.006 -l 0.5 -f /beamlines/bl04/inhouse/ff/FlatField/ff_20Nov2024rod8mm60s_17keV.raw -b True -c true -o xye /beamlines/bl04/projects/cycle2025-II/20250340211-lsimonelli/DATA/IS17_D/17_Db_00131.dat
# IsMon = [6745691, 6744431, 6742985]  IsPos = [-1.5000, -2.4884, -3.4988]
# Wave = 0.4962  CalPath /beamlines/bl04/projects/cycle2025-II/20250340211-lsimonelli/DATA/Align/Si_Pos1_25keV_f00001.cal
# Date = 2025-09-25_06:12:48 Dt = 4.8000  Bin = 0.0060  <imon> = 6744369 +/- 1106 (Min/Max) 6742985 / 6745691
# icurr 249.5828  mocoIn 1.7016E-05  mocoOut 0.7983  i15 7.06621e+06  imon 6.74437e+06  i7 5.6667  iEMpd_timer 4.8000  iEMpd_1 3.5408E-08  iEMpd_2 7.8186E-08  iEMpd_3 1.7643E-08  iEMpd_4 4.8718E-08  iEMhp_timer 4.8000  iEMhp_1 4.8749E-06  iEMhp_2 -2.5980E-08  iEMhp_3 -2.4220E-08  iEMhp_4 -2.2449E-08
#      9776
 1.5856  44049.5  215.492
 1.6276  50982.3  227.852
 1.6696  56368.7  238.742
 1.7116  63670.2  254.23
 1.7536  71575.5  268.402
 1.7956  74971.6  275.382
 1.8376  71901.2  270.112
 1.8796  61904.7  248.792
 1.9216  51075.3  226.883
 1.9636  44513.1  211.472
 2.0056  40657  200.814
 2.0476  37385.8  194.677
 2.0896  36118.1  190.226
 2.1316  35339.6  187.26
 2.1736  33701.7  184.32
 2.2156  34306.6  184.474
 2.2576  32859.2  181.187
 2.2996  31560.7  178.223
 2.3416  31909.9  177.777
 2.3836  31271  176.096
 2.4256  30356.2  174.066
 2.4676  29734.4  172.03
 2.5096  29877.5  172.5
 2.5516  29333  174.854
 2.5936  43148.3  207.822
 2.6356  28320.2  169.07
 2.6776  27598.1  165.8
 2.7196  27222.3  165.157
 2.7616  27162.8  164.762
 2.8036  26692.3  163.496
 2.8456  26612.2  163.892
 2.8876  26073.6  162.094
 2.9296  25791.4  161.336
 2.9716  25544.5  160.053
 3.0136  25236.3  159.153
 3.0556  25240.6  159.555
 3.0976  25251.7  158.485
 3.1396  24962.7  158.321
 3.1816  24675.4  157.339
 3.2236  24367  156.344
 3.2656  24441.2  155.635
 3.3076  24264.5  156.536
 3.3496  24527.8  156.308
 3.3916  24953.7  157.471
 3.4336  25081.2  158.467
 3.4756  25481.6  159.659
 3.5176  26122  161.424
 3.5596  25773.7  163.37
 3.6016  26145.5  161.573
 3.6436  25170.1  159.635
 3.6856  24833.1  156.876
 3.7276  23915.6  155.023
 3.7696  23977.6  155.211
 3.8116  23548.4  153.914
 3.8536  23525  153.765
 3.8956  23385.1  153.136
 3.9376  23574.7  154.02
 3.9796  23248.8  152.432
 4.0216  23241.3  151.456
 4.0636  23205.9  152.8
 4.1056  23356  152.953
 4.1476  23573.5  153.962
 4.1896  23819.9  154.626
 4.2316  23793.4  154.365
 4.2736  24270.3  155.712
 4.3156  24366.1  156.256
 4.3576  25244.5  158.944
 4.3996  25302.7  159.407
 4.4416  25801.8  160.547
 4.4836  26395.7  162.551
 4.5256  26784.7  164.346
 4.5676  26652.8  164.204
 4.6096  27081.4  164.541
 4.6516  27661.6  165.617
 4.6936  27545.3  166.106
 4.7356  28158.3  167.76
 4.7776  27637.7  166.038
 4.8196  27652.8  166.724
 4.8616  26975.5  164.163
 4.9036  26978  163.897
 4.9456  26689  163.677
 4.9876  26142.2  161.891
 5.0296  26301.7  162.224
 5.0716  26110.5  162.387
 5.1136  26476.1  163.238
 5.1556  26559.7  162.951
 5.1976  28147.1  167.733
 5.2396  27177.7  164.528
 5.2816  27317.1  165.415
 5.3236  27096.9  164.446
 5.3656  26736  164.277
 5.4076  26559.4  163.875
 5.4496  26494.3  163.172
 5.4916  26505.2  162.958
 5.5336  26615.9  163.312
 5.5756  26560  163.134
 5.6176  26766.4  163.222
 5.6596  27102.2  165.079
 5.7016  27003.9  164.194
 5.7436  27188.1  165.03
 5.7856  27129.2  164.919
 5.8276  27418.3  165.515
 5.8696  27760.6  166.595
 5.9116  27514.3  166.573
 5.9536  28007.8  167.792
 5.9956  27824.3  166.643
 6.0376  28214.6  168.431
 6.0796  28303.4  168.523
 6.1216  28197.7  168.412
 6.1636  28442.9  168.184
 6.2056  28321.8  168.52
 6.2476  28845.1  169.737
 6.2896  28794.6  169.462
 6.3316  28720  169.409
 6.3736  28987  170.093
 6.4156  28575  168.824
 6.4576  29010.5  169.673
 6.4996  28931.1  169.923
 6.5416  29185.3  170.788
 6.5836  29129.1  170.86
 6.6256  29369.4  171.118
 6.6676  29839.5  172.058
 6.7096  29834.9  172.899
 6.7516  29919.4  172.804
 6.7936  30501.6  173.872
 6.8356  30696.2  174.531
 6.8776  30697.4  175.342
 6.9196  30715.9  175.79
 6.9616  31175.8  176.539
 7.0036  31516.2  177.161
 7.0456  31387.7  176.098
 7.0876  31666  178.471
 7.1296  31464.3  177.127
 7.1716  31449.1  176.629
 7.2136  31073.5  175.353
 7.2556  31377.6  176.359
 7.2976  31528.5  177.278
 7.3396  31311.8  176.891
 7.3816  31424  177.418
 7.4236  31743.7  177.621
 7.4656  31955.9  177.67
 7.5076  32025.1  178.012
 7.5496  31923.3  178.279
 7.5916  32121.2  178.868
 7.6336  32567  179.989
 7.6756  32787.1  180.441
 7.7176  33081.9  181.573
 7.7596  33021.7  182.644
 7.8016  34374.6  188.61
 7.8436  33180.3  181.983
 7.8856  33401.8  182.204
 7.9276  33819.6  183.737
 7.9696  34031.9  184.618
 8.0116  35131  186.122
 8.0536  35281.5  186.769
 8.0956  35501.2  188.526
 8.1376  35757.7  188.682
 8.1796  36083.9  190.073
 8.2216  36859  190.843
 8.2636  36831.3  191.027
 8.3056  36717.6  191.499
 8.3476  37376.4  192.535
 8.3896  37088.8  191.873
 8.4316  37338.1  192.683
 8.4736  37357.3  192.206
 8.5156  36889.1  191.271
 8.5576  36903.4  192.27
 8.5996  36898.5  191.142
 8.6416  36602.2  191.621
 8.6836  36257.2  190.558
 8.7256  37159  192.355
 8.7676  37161.6  195.291
 8.8096  37290.8  192.907
 8.8516  37641.8  193.427
 8.8936  37439  192.811
 8.9356  37075.4  192.194
 8.9776  36999.9  192.09
 9.0196  37160.4  192.163
 9.0616  36939.2  191.1
 9.1036  36760  191.811
 9.1456  36104  189.433
 9.1876  36327.9  189.943
 9.2296  35921  188.335
 9.2716  35864.6  188.209
 9.3136  35491.5  187.234
 9.3556  36077.8  188.741
 9.3976  35109.9  186.696
 9.4396  35127.2  186.666
 9.4816  34943.8  186.031
 9.5236  34618.7  185.065
 9.5656  34596.9  185.368
 9.6076  33949.9  184.159
 9.6496  33863.5  183.79
 9.6916  33683.4  183.269
 9.7336  34021.2  183.957
 9.7756  33718.3  184.284
 9.8176  33569.6  183.503
 9.8596  33495.2  181.731
 9.9016  33227.4  180.999
 9.9436  32622.7  179.085
 9.9856  32487.8  179.159
 10.0276  32184.4  179.389
 10.0696  32557.1  179.461
 10.1116  31624.9  177.135
 10.1536  31411.6  176.207
 10.1956  30728  174.374
 10.2376  30895.3  174.35
 10.2796  30869.9  174.385
 10.3216  30274.7  172.846
 10.3636  30277.2  173.034
 10.4056  30196.4  173.21
 10.4476  30677.8  174.171
 10.4896  31412.1  175.691
 10.5316  30677.7  174.01
 10.5736  29725.5  172.06
 10.6156  29409.2  170.885
 10.6576  30310.8  172.011
 10.6996  29109.6  169.287
 10.7416  28566.1  167.916
 10.7836  28441.3  168.236
 10.8256  27845.6  166.882
 10.8676  27730.6  166.078
 10.9096  27682  165.975
 10.9516  27395.2  164.053
 10.9936  27677.5  165.105
 11.0356  27437.8  164.996
 11.0776  27669.7  165.024
 11.1196  27033.3  163.886
 11.1616  26627  162.322
 11.2036  27041.9  163.419
 11.2456  26969.2  163.926
 11.2876  26900.1  163.432
 11.3296  26445.9  161.961
 11.3716  26846.9  162.917
 11.4136  27114.7  164.58
 11.4556  27390.8  165.071
 11.4976  27809.2  165.284
 11.5396  27041.4  163.167
 11.5816  26616.4  162.294
 11.6236  25932.5  160.452
 11.6656  26108.5  160.14
 11.7076  25464.6  158.994
 11.7496  25291  162.472
 11.7916  25542.8  158.489
 11.8336  24846.3  157.202
 11.8756  24915  156.966
 11.9176  24757.3  156.138
 11.9596  24876.4  156.682
 12.0016  24513.9  156.31
 12.0436  24469.7  155.62
 12.0856  24203.7  155.272
 12.1276  24005.3  154.588
 12.1696  24239.4  154.453
 12.2116  24366.6  154.86
 12.2536  24698.2  156.699
 12.2956  24044.5  153.987
 12.3376  24446.4  155.465
 12.3796  24112.3  154.895
 12.4216  24211.2  154.4
 12.4636  24073.5  154.907
 12.5056  24085.3  154.205
 12.5476  24197  154.073
 12.5896  23770.4  153.356
 12.6316  24007.4  154.265
 12.6736  23761.2  153.966
 12.7156  23902.7  154.251
 12.7576  23873.3  154.42
 12.7996  24153.8  153.964
 12.8416  23976.4  154.452
 12.8836  24225.3  155.082
 12.9256  24656.3  155.473
 12.9676  24478  155.317
 13.0096  24662.1  157.019
 13.0516  24550.9  155.694
 13.0936  24438.2  155.468
 13.1356  24732.1  155.638
 13.1776  24388.4  155.568
 13.2196  24555.8  155.744
 13.2616  24141.4  154.747
 13.3036  24557.8  156.199
 13.3456  24101.3  154.929
 13.3876  24709  156.134
 13.4296  24253.2  154.856
 13.4716  24673.5  155.818
 13.5136  24589.9  155.687
 13.5556  24312  155.431
 13.5976  24667.8  156.732
 13.6396  24534.6  155.67
 13.6816  24801.7  156.856
 13.7236  24990.3  157.173
 13.7656  26480.9  162.222
 13.8076  27297.9  163.343
 13.8496  25994.8  160.288
 13.8916  24721.2  157.239
 13.9336  24150.4  154.7
 13.9756  23955.5  153.452
 14.0176  23887.3  153.916
 14.0596  23918.6  153.934
 14.1016  23736.4  153.779
 14.1436  23814.2  153.157
 14.1856  23166.1  151.348
 14.2276  23375  152.51
 14.2696  23416.5  152.497
 14.3116  22616  149.785
 14.3536  22443.8  149.377
 14.3956  22490.8  149.262
 14.4376  22549.3  149.238
 14.4796  22451.9  148.914
 14.5216  22110.9  148.566
 14.5636  22145.9  148.249
 14.6056  22116.5  147.705
 14.6476  22037.6  146.693
 14.6896  21606.6  145.79
 14.7316  21385  146.085
 14.7736  21173  144.491
 14.8156  20974.9  143.825
 14.8576  20885.1  143.395
 14.8996  20511.2  143.277
 14.9416  20174.1  142.125
 14.9836  20393.8  142.885
 15.0256  19546.3  138.812
 15.0676  19656.8  139.513
 15.1096  19560  138.911
 15.1516  19196  138.158
 15.1936  19051.8  137.08
 15.2356  18932.3  136.923
 15.2776  19077.7  137.039
 15.3196  18580.5  136.226
 15.3616  18449.3  135.506
 15.4036  18461.9  135.412
 15.4456  18717.7  135.995
 15.4876  18205.3  133.811
 15.5296  18190.5  134.038
 15.5716  17984.4  132.887
 15.6136  17925.8  132.985
 15.6556  18126.2  132.978
 15.6976  17877  132.351
 15.7396  17754.7  132.287
 15.7816  17635.7  131.359
 15.8236  17196.5  130.394
 15.8656  17396.4  130.944
 15.9076  17408.3  130.809
 15.9496  17981.3  135.757
 15.9916  17644.2  134.905
 16.0336  17833.9  132.462
 16.0756  17510.1  131.58
 16.1176  17265.4  130.582
 16.1596  16821.6  130.201
 16.2016  17042.9  129.832
 16.2436  16823.1  129.362
 16.2856  16941.5  129.311
 16.3276  16663.9  128.704
 16.3696  16711.3  128.719
 16.4116  16626.4  128.838
 16.4536  16851.5  129.507
 16.4956  16930.2  129.538
 16.5376  16662.2  128.704
 16.5796  16521.1  127.52
 16.6216  16892.8  129.231
 16.6636  16580.8  128.221
 16.7056  16674.4  128.43
 16.7476  16780.9  128.367
 16.7896  16532.2  128.162
 16.8316  16554.8  128.227
 16.8736  16798.5  129.411
 16.9156  16400.2  128.21
 16.9576  16284.1  128.542
 16.9996  16296.2  129.063
 17.0416  16373.1  127.75
 17.0836  16238.3  126.979
 17.1256  16198.2  126.83
 17.1676  16362.5  127.417
 17.2096  15971.8  125.786
 17.2516  15973.5  125.889
 17.2936  15970.4  125.93
 17.3356  15723.7  124.928
 17.3776  15574  124.531
 17.4196  15604.7  124.357
 17.4616  15786.2  124.986
 17.5036  15359.2  123.644
 17.5456  15253.7  123.857
 17.5876  15372  123.378
 17.6296  15536.6  123.844
 17.6716  15274.8  123.397
 17.7136  15343  123.792
 17.7556  15226.1  123.621
 17.7976  15070.5  122.73
 17.8396  14961.1  121.782
 17.8816  14767.3  121.556
 17.9236  14915  121.949
 17.9656  14880.8  122.346
 18.0076  14942.3  122.179
 18.0496  15038.5  121.705
 18.0916  15589  124.478
 18.1336  15240.2  123.172
 18.1756  15248  122.747
 18.2176  14854.5  121.368
 18.2596  14632.8  120.183
 18.3016  14941.2  121.714
 18.3436  14962.5  121.797
 18.3856  14790.8  121.228
 18.4276  14557.5  119.959
 18.4696  14426.6  119.507
 18.5116  14678.7  120.823
 18.5536  14519.3  120.525
 18.5956  14440.7  119.756
 18.6376  14431.2  120.121
 18.6796  14417.7  119.391
 18.7216  14432  119.915
 18.7636  14395.3  119.776
 18.8056  14170.2  118.757
 18.8476  14010.9  118.723
 18.8896  14165.7  118.715
 18.9316  14206.2  118.87
 18.9736  14110.6  118.165
 19.0156  14166.5  118.812
 19.0576  14217.7  117.864
 19.0996  14228.3  118.638
 19.1416  14096.6  118.472
 19.1836  14134.5  118.239
 19.2256  13847.4  117.256
 19.2676  14080.4  118.32
 19.3096  13894.2  117.787
 19.3516  14110.1  118.456
 19.3936  13980.9  117.991
 19.4356  14220.4  118.886
 19.4776  14133.1  118.615
 19.5196  14119  118.41
 19.5616  13974.6  118.061
 19.6036  13968.5  117.533
 19.6456  13959.8  117.61
 19.6876  14103  117.849
 19.7296  14218.8  118.791
 19.7716  14091.1  118.432
 19.8136  14572.2  120.638
 19.8556  14599.6  120.227
 19.8976  14807.1  121.132
 19.9396  14818.8  120.764
 19.9816  14552.5  119.932
 20.0236  14513.8  119.958
 20.0656  14100.5  118.247
 20.1076  13962.8  118.133
 20.1496  13764.2  117.288
 20.1916  13801.5  116.925
 20.2336  13735.4  116.611
 20.2756  13585.4  116.412
 20.3176  13415.2  115.429
 20.3596  13307.4  114.951
 20.4016  13495.1  115.55
 20.4436  13338.4  115.438
 20.4856  13441  115.672
 20.5276  13364.3  115.807
 20.5696  13189.4  114.603
 20.6116  13208  114.85
 20.6536  13282.7  114.697
 20.6956  13216.1  114.535
 20.7376  13139.1  114.417
 20.7796  13210.4  114.417
 20.8216  13295.8  114.497
 20.8636  13318.5  114.967
 20.9056  13262.7  114.665
 20.9476  13251.1  114.458
 20.9896  13306.3  114.566
 21.0316  13190.8  113.971
 21.0736  13133.4  114.239
 21.1156  13105.8  114.283
 21.1576  13115.7  114.361
 21.1996  12976.6  113.739
 21.2416  13112  114.145
 21.2836  13070.1  113.94
 21.3256  12972.9  113.594
 21.3676  12998.1  113.237
 21.4096  12856.3  113.001
 21.4516  12810  112.615
 21.4936  12647.3  112.165
 21.5356  12978.3  113.562
 21.5776  12906.5  113.085
 21.6196  12748.1  112.432
 21.6616  12807.7  112.771
 21.7036  12850  112.728
 21.7456  12821.9  112.673
 21.7876  12669.5  111.771
 21.8296  12647.9  111.526
 21.8716  12731.6  112.122
 21.9136  12948.1  113.274
 21.9556  12604.8  111.441
 21.9976  12608.3  111.482
 22.0396  12592.5  111.666
 22.0816  12591.8  112.197
 22.1236  12816.9  112.646
 22.1656  12764  112.559
 22.2076  12567.6  111.154
 22.2496  12369.3  110.299
 22.2916  12394.7  110.299
 22.3336  12319.9  110.676
 22.3756  12440.5  110.943
 22.4176  12248.8  109.944
 22.4596  12079.3  109.759
 22.5016  12409.4  110.751
 22.5436  12413.3  110.647
 22.5856  12567.8  111.576
 22.6276  12709.5  112.334
 22.6696  12401.6  111.326
 22.7116  12327.2  110.501
 22.7536  12467  111.105
 22.7956  12493.6  110.561
 22.8376  12150.8  109.547
 22.8796  12332.3  110.161
 22.9216  12282.2  110.48
 22.9636  12373.6  110.046
 23.0056  12306.8  109.883
 23.0476  12364.7  110.708
 23.0896  12724.2  111.68
 23.1316  12487.5  111.069
 23.1736  12476.4  113.951
 23.2156  12580.2  111.808
 23.2576  12816.7  112.976
 23.2996  12440.9  111.089
 23.3416  12579.5  112.233
 23.3836  12379.5  110.579
 23.4256  12773.6  112.439
 23.4676  12555.8  111.171
 23.5096  12697  112.461
 23.5516  12400.8  110.441
 23.5936  12564.7  112.082
 23.6356  12828.4  112.914
 23.6776  12432.5  111.373
 23.7196  12613.6  111.96
 23.7616  12575  111.5
 23.8036  12766.4  112.389
 23.8456  12370.7  110.201
 23.8876  12323.8  110.335
 23.9296  12329.5  110.858
 23.9716  12355.1  110.175
 24.0136  12460  111.548
 24.0556  12126.2  109.763
 24.0976  12239.6  110.09
 24.1396  12056.5  111.862
 24.1816  12232.6  111.106
 24.2236  12318.1  111.105
 24.2656  12104  109.606
 24.3076  12156.8  110.117
 24.3496  12114.9  109.806
 24.3916  12130.7  109.93
 24.4336  12129.5  110.121
 24.4756  12164.8  110.17
 24.5176  11985.8  108.979
 24.5596  11954.4  109.166
 24.6016  11844.4  108.76
 24.6436  11831.5  108.202
 24.6856  11947.7  108.48
 24.7276  11636.9  107.377
 24.7696  11668.1  107.633
 24.8116  11482.5  106.95
 24.8536  11581.3  107.41
 24.8956  11573.4  107.105
 24.9376  11655.9  107.661
 24.9796  11482.3  106.977
 25.0216  11429.1  106.842
 25.0636  11365.2  106.196
 25.1056  11359.9  106.868
 25.1476  11210.2  107.818
 25.1896  11316.2  106.82
 25.2316  11314.9  106.086
 25.2736  11160.8  105.009
 25.3156  11108.7  104.843
 25.3576  11106.9  105.265
 25.3996  11244.1  105.901
 25.4416  11113.1  105.249
 25.4836  11030.9  105.387
 25.5256  11085.5  105.001
 25.5676  11165.9  105.114
 25.6096  10869.6  104.288
 25.6516  11059.2  104.691
 25.6936  11008.8  104.765
 25.7356  10944.1  104.591
 25.7776  10933.3  104.223
 25.8196  10857.5  104.022
 25.8616  10897.6  104.148
 25.9036  10923.8  103.715
 25.9456  10925.2  104.333
 25.9876  11082.4  104.986
 26.0296  11107.9  104.777
 26.0716  11017  104.768
 26.1136  11083  105.012
 26.1556  11002.6  104.024
 26.1976  10783.2  103.902
 26.2396  10853.1  103.399
 26.2816  11045.2  104.914
 26.3236  10925.3  104.501
 26.3656  10970  104.437
 26.4076  10863.7  104.12
 26.4496  11006.4  104.396
 26.4916  11070  104.612
 26.5336  11310.9  106.083
 26.5756  11645.8  107.52
 26.6176  11000.9  104.523
 26.6596  10875.4  104.222
 26.7016  10731.7  103.293
 26.7436  10789.2  103.709
 26.7856  10554.5  102.562
 26.8276  10592  102.711
 26.8696  10562.6  102.438
 26.9116  10544.1  102.277
 26.9536  10522.6  102.229
 26.9956  10369.6  101.524
 27.0376  10629.6  103.006
 27.0796  10559.7  102.389
 27.1216  10547.2  102.395
 27.1636  10263.3  101.176
 27.2056  10456.1  102.006
 27.2476  10379.7  101.62
 27.2896  10360.1  101.642
 27.3316  10316.2  101.145
 27.3736  10254.8  101.116
 27.4156  10311.9  101.228
 27.4576  10330.5  101.554
 27.4996  10390  101.438
 27.5416  10326  101.437
 27.5836  10319.6  101.241
 27.6256  10083.8  100.257
 27.6676  10275.4  101.195
 27.7096  10322  101.305
 27.7516  10267.4  101.187
 27.7936  10615.4  103.027
 27.8356  10385.9  101.529
 27.8776  10418.3  101.743
 27.9196  10174  100.408
 27.9616  10240.1  100.93
 28.0036  10103.6  100.221
 28.0456  10053.9  100.111
 28.0876  10029.3  100.071
 28.1296  10052  100.014
 28.1716  10215.5  100.848
 28.2136  10008.6  99.7866
 28.2556  10092.1  100.315
 28.2976  9883.56  99.2718
 28.3396  9966.99  99.4528
 28.3816  10058.9  99.9047
 28.4236  9927.19  99.4131
 28.4656  9697.87  98.2964
 28.5076  9887.59  98.8953
 28.5496  10043.5  99.9255
 28.5916  9925.71  99.1512
 28.6336  9976.22  99.7464
 28.6756  9979.26  98.9586
 28.7176  9812.52  98.6806
 28.7596  9846.82  98.7503
 28.8016  9797.2  98.5372
 28.8436  9760.77  98.5955
 28.8856  9909.52  99.1889
 28.9276  9943.47  99.6092
 28.9696  9784.15  98.4591
 29.0116  9631.31  97.8775
 29.0536  9607.77  97.9615
 29.0956  9761.53  98.4454
 29.1376  9701.07  98.1141
 29.1796  9581.36  97.55
 29.2216  9706.94  98.0332
 29.2636  9733.42  98.2329
 29.3056  9712.13  97.9118
 29.3476  9699.32  98.3649
 29.3896  9671.88  98.355
 29.4316  9505.35  96.8439
 29.4736  9422.72  96.4865
 29.5156  9545.32  97.0345
 29.5576  9468.94  97.3739
 29.5996  9531.57  96.9603
 29.6416  9394.75  96.3734
 29.6836  9525.62  96.976
 29.7256  9471.41  97.2612
 29.7676  9410.6  96.6108
 29.8096  9456.84  96.7931
 29.8516  9242.69  96.0196
 29.8936  9421.89  97.0341
 29.9356  9433.89  96.8547
 29.9776  9249.61  96.0539
 30.0196  9416.24  96.3091
 30.0616  9416.25  96.6816
 30.1036  9402.74  96.4378
 30.1456  9281.06  96.0421
 30.1876  9279.22  96.0072
 30.2296  9221.77  95.6615
 30.2716  9443.43  96.4405
 30.3136  9419.87  97.1793
 30.3556  9540.06  97.7936
 30.3976  9328.05  98.1721
 30.4396  9850.5  98.2036
 30.4816  9633.02  96.722
 30.5236  9667.09  96.874
 30.5656  9493.33  96.6776
 30.6076  9565.84  96.8167
 30.6496  9558.82  96.8301
 30.6916  9252.99  95.3686
 30.7336  9483.33  96.6848
 30.7756  9442.79  96.5678
 30.8176  9577.35  97.177
 30.8596  9447.67  96.2584
 30.9016  9502.09  96.4257
 30.9436  9610.16  97.198
 30.9856  9622.27  97.3485
 31.0276  9248.29  95.0983
 31.0696  9318.3  96.0148
 31.1116  9303.33  95.903
 31.1536  9294.18  95.7376
 31.1956  9334.98  96.0222
 31.2376  9117.66  94.9405
 31.2796  9253.07  95.1775
 31.3216  9191.14  94.775
 31.3636  9280.25  95.9346
 31.4056  9304.75  97.3824
 31.4476  9388.84  95.7092
 31.4896  9298.59  95.747
 31.5316  9392.15  95.6353
 31.5736  9545.97  96.2433
 31.6156  9427.02  95.6418
 31.6576  9576.36  96.4912
 31.6996  9544.41  95.9849
 31.7416  9371.06  96.0594
 31.7836  9448.93  95.5957
 31.8256  9577.83  96.5055
 31.8676  9327.96  95.2312
 31.9096  9170.12  94.6542
 31.9516  9150.43  94.8627
 31.9936  9058.45  94.2108
 32.0356  9306.68  95.5361
 32.0776  9278.48  95.297
 32.1196  9411.01  95.9817
 32.1616  9226.54  94.5757
 32.2036  9186.55  94.8808
 32.2456  9179.34  95.2243
 32.2876  9233.79  94.9999
 32.3296  9142.87  94.4992
 32.3716  8901.77  93.3569
 32.4136  9055.38  94.3639
 32.4556  9159.18  94.288
 32.4976  9089.55  93.8827
 32.5396  9118.44  94.0475
 32.5816  8979.98  93.452
 32.6236  9057.47  93.9256
 32.6656  9061.44  94.4967
 32.7076  8969.31  93.6679
 32.7496  8987.2  93.4337
 32.7916  8962.55  93.2666
 32.8336  8926.51  93.1733
 32.8756  9065.78  93.6124
 32.9176  8827.12  92.858
 32.9596  8907.1  93.3465
 33.0016  9058.1  93.9132
 33.0436  9002.05  93.7889
 33.0856  8974.49  93.7442
 33.1276  8753.85  92.311
 33.1696  8980.06  93.3305
 33.2116  8992.36  93.6263
 33.2536  9076.13  94.0504
 33.2956  8870.2  93.0748
 33.3376  8728.98  92.1459
 33.3796  8857.07  92.9601
 33.4216  8882.11  92.6787
 33.4636  8917.71  93.0195
 33.5056  8691.31  92.0738
 33.5476  8857.71  92.9304
 33.5896  8949.56  93.2006
 33.6316  8820.02  92.8326
 33.6736  8740.76  92.6646
 33.7156  8822.3  93.1212
 33.7576  8863.82  92.9862
 33.7996  8768.98  92.2497
 33.8416  8643.51  91.7708
 33.8836  8731.11  92.0106
 33.9256  8873.77  92.8144
 33.9676  8883.11  92.76
 34.0096  8679.78  92.0012
 34.0516  8602.67  91.2338
 34.0936  8558.24  91.2712
 34.1356  8791.93  92.2398
 34.1776  8582.34  91.138
 34.2196  8671.69  91.7896
 34.2616  8515.9  91.1056
 34.3036  8710.56  92.3841
 34.3456  8686.91  92.0175
 34.3876  8674.41  92.0048
 34.4296  8708.92  91.7908
 34.4716  8711.22  91.955
 34.5136  8702.71  92.0996
 34.5556  8568.13  91.6498
 34.5976  8772.55  92.5607
 34.6396  8591.83  91.2961
 34.6816  8559.46  91.2278
 34.7236  8608.08  91.2658
 34.7656  8627.99  91.5791
 34.8076  8597.92  91.7507
 34.8496  8575.03  91.4806
 34.8916  8644.34  91.706
 34.9336  8626.92  91.6013
 34.9756  8762.59  92.2607
 35.0176  8642.28  92.1299
 35.0596  8649.11  91.9843
 35.1016  8607.37  91.5212
 35.1436  8694.48  91.667
 35.1856  8601.23  91.2967
 35.2276  8510.92  90.9994
 35.2696  8545.95  91.3705
 35.3116  8456.3  90.9943
 35.3536  8522.54  91.0798
 35.3956  8472.84  90.4983
 35.4376  8490.37  91.1546
 35.4796  8497.7  91.2329
 35.5216  8500.34  91.2127
 35.5636  8295.27  90.8411
 35.6056  8337.8  90.1096
 35.6476  8554.88  91.169
 35.6896  8523.85  91.0966
 35.7316  8303.18  89.8869
 35.7736  8348.82  90.3149
 35.8156  8455.91  90.8973
 35.8576  8475.8  91.2477
 35.8996  8516.4  91.4407
 35.9416  8490.18  90.7793
 35.9836  8385.05  90.6983
 36.0256  8557.07  91.5219
 36.0676  8536.86  91.1666
 36.1096  8374.48  90.4409
 36.1516  8453.98  90.76
 36.1936  8460.95  90.6283
 36.2356  8400.07  90.9611
 36.2776  8467.07  90.7859
 36.3196  8441.1  90.3298
 36.3616  8373.79  90.0906
 36.4036  8336.2  89.964
 36.4456  8420.35  90.6272
 36.4876  8230.43  89.5392
 36.5296  8271.21  89.7986
 36.5716  8229.86  90.342
 36.6136  8366.61  89.8807
 36.6556  8196.89  89.1602
 36.6976  8141.82  89.3563
 36.7396  8153.13  89.145
 36.7816  8116.23  89.3208
 36.8236  8048.05  88.8666
 36.8656  7999.42  88.6557
 36.9076  8036.71  88.7523
 36.9496  7958.31  88.312
 36.9916  8111.02  88.7793
 37.0336  8072.35  88.8817
 37.0756  8211.19  89.4386
 37.1176  8010.08  88.6017
 37.1596  8042.69  88.7884
 37.2016  7936.93  88.4253
 37.2436  8094.37  88.6164
 37.2856  8043.41  88.5865
 37.3276  8129.46  88.4205
 37.3696  8028.68  88.7444
 37.4116  7980.47  88.39
 37.4536  8059.74  88.6946
 37.4956  8010.08  88.4637
 37.5376  8134.88  90.7376
 37.5796  8045.87  90.1555
 37.6216  8093.96  88.7014
 37.6636  8191.31  89.1158
 37.7056  8196.96  89.3474
 37.7476  8213.56  88.9677
 37.7896  8040.73  88.5437
 37.8316  7993.25  88.4192
 37.8736  8063.91  88.3551
 37.9156  8075.97  88.4014
 37.9576  8104.08  88.4762
 37.9996  7941.49  87.297
 38.0416  8059.92  88.7468
 38.0836  8181.89  89.3275
 38.1256  8153.18  89.1408
 38.1676  7963.01  88.2146
 38.2096  8147.52  88.8417
 38.2516  8070.03  88.6416
 38.2936  8152.67  88.8796
 38.3356  8124.84  88.6676
 38.3776  7946.93  87.9347
 38.4196  7976.37  87.9555
 38.4616  8069.85  88.7186
 38.5036  8151.52  88.9993
 38.5456  7857.74  88.2156
 38.5876  7939.12  88.6949
 38.6296  7975.12  87.8568
 38.6716  8060.79  88.1282
 38.7136  7900.76  87.1973
 38.7556  7914.52  87.7748
 38.7976  8096.77  88.7053
 38.8396  8018.74  88.7414
 38.8816  7953.76  88.1769
 38.9236  7958.47  87.9989
 38.9656  8034.16  88.3194
 39.0076  7950.06  87.2559
 39.0496  8082.87  88.551
 39.0916  8091.31  88.2413
 39.1336  7945.77  87.8512
 39.1756  7951.48  87.9514
 39.2176  7805.11  87.663
 39.2596  7934.2  88.3109
 39.3016  7943.48  87.9472
 39.3436  7959.8  88.4435
 39.3856  7968.44  87.9422
 39.4276  8021.2  88.7393
 39.4696  7870.86  87.5262
 39.5116  8058.8  89.0786
 39.5536  8022.66  89.31
 39.5956  7968.05  88.1154
 39.6376  7981.91  88.1861
 39.6796  8020.48  88.1457
 39.7216  7958.74  87.9112
 39.7636  8016.05  88.7836
 39.8056  7916.47  88.0203
 39.8476  7902.33  88.1954
 39.8896  7929.26  87.973
 39.9316  7939.07  88.2733
 39.9736  7994.14  88.1575
 40.0156  7816.46  87.0052
 40.0576  7865.13  87.621
 40.0996  8077.07  87.9759
 40.1416  7971.85  88.1969
 40.1836  8024.43  88.3777
 40.2256  7979.72  88.1662
 40.2676  7790.53  87.2946
 40.3096  8000.14  88.3112
 40.3516  8036.24  88.6212
 40.3936  7970.55  87.8122
 40.4356  7901.62  87.6397
 40.4776  8103.55  88.9781
 40.5196  7929.16  88.3255
 40.5616  8069.39  88.7209
 40.6036  7859.49  87.8342
 40.6456  7913.01  87.7399
 40.6876  8011.6  88.278
 40.7296  7983.32  88.2507
 40.7716  7974.16  88.3275
 40.8136  7965.23  88.2278
 40.8556  8014.4  88.6284
 40.8976  7941.28  88.1439
 40.9396  8019.98  88.9193
 40.9816  7933.48  87.7393
 41.0236  8010.78  87.9537
 41.0656  8023.31  88.5569
 41.1076  7954.6  87.949
 41.1496  8048.94  88.3751
 41.1916  7891.76  87.8242
 41.2336  7929.49  88.0272
 41.2756  7921.93  87.597
 41.3176  8048.42  88.8997
 41.3596  7936.29  88.0237
 41.4016  7932.09  88.2618
 41.4436  8068.43  88.793
 41.4856  7903.2  88.0486
 41.5276  7932.84  88.2292
 41.5696  7926.25  87.8224
 41.6116  7959.96  88.3952
 41.6536  7933.89  88.1068
 41.6956  8048.97  88.7264
 41.7376  7883.62  87.9057
 41.7796  7804.24  87.3622
 41.8216  7923.89  88.2538
 41.8636  7895.02  88.0445
 41.9056  7888.99  87.7963
 41.9476  7959.86  88.4281
 41.9896  7991.06  88.2556
 42.0316  8069.51  88.7863
 42.0736  7973.6  88.3899
 42.1156  7835.13  87.423
 42.1576  7903.88  87.9181
 42.1996  7933.93  88.2036
 42.2416  7910.63  87.6692
 42.2836  7921.14  87.8446
 42.3256  7917.04  87.933
 42.3676  7956.42  87.9549
 42.4096  8006.37  88.2019
 42.4516  7917.05  87.7845
 42.4936  7873.04  87.608
 42.5356  7868.32  87.7271
 42.5776  7956.02  88.1493
 42.6196  7939  88.1125
 42.6616  7746.61  87.2096
 42.7036  7837.69  87.0934
 42.7456  7954.36  88.1048
 42.7876  7895.52  87.8575
 42.8296  7898.44  87.7243
 42.8716  7757.97  87.0957
 42.9136  7744.91  86.7869
 42.9556  7772.41  87.0989
 42.9976  7857.72  87.5503
 43.0396  7778.37  86.8362
 43.0816  7796.01  87.3166
 43.1236  7856.92  87.7144
 43.1656  7813.88  87.2987
 43.2076  7786.82  87.2421
 43.2496  7816.79  87.2387
 43.2916  7727.4  87.0995
 43.3336  7782.26  87.242
 43.3756  7821.6  87.2156
 43.4176  7747.18  86.8828
 43.4596  7713.18  86.5524
 43.5016  7739.1  87.0869
 43.5436  7707.19  86.8202
 43.5856  7737.3  87.0233
 43.6276  7736.35  86.9031
 43.6696  7711.47  87.0309
 43.7116  7800.82  87.0138
 43.7536  7779.58  87.3996
 43.7956  7690.09  88.1016
 43.8376  7621.75  86.2412
 43.8796  7626.13  86.3512
 43.9216  7622.59  86.248
 43.9636  7631.88  86.4105
 44.0056  7661.72  86.8144
 44.0476  7624.51  86.2339
 44.0896  7509.68  85.9197
 44.1316  7612.96  86.0332
 44.1736  7476.2  85.3818
 44.2156  7651.53  86.2292
 44.2576  7558.85  86.0261
 44.2996  7583.52  86.1397
 44.3416  7613.01  86.0722
 44.3836  7457.77  85.5116
 44.4256  7454.85  85.1444
 44.4676  7527.08  85.7084
 44.5096  7560.89  86.0452
 44.5516  7390.78  85.0347
 44.5936  7379.35  84.9246
 44.6356  7433.07  84.9748
 44.6776  7560.03  86.0146
 44.7196  7460.27  85.7538
 44.7616  7557.21  87.63
 44.8036  7686.15  86.9898
 44.8456  7656.69  86.8227
 44.8876  7640.6  86.5772
 44.9296  7702.11  86.3742
 44.9716  7623.63  86.3524
 45.0136  7619.22  86.263
 45.0556  7585.1  86.1646
 45.0976  7508.91  85.7757
 45.1396  7534.28  85.6866
 45.1816  7613.07  86.0725
 45.2236  7703.08  86.4773
 45.2656  7547.4  86.0992
 45.3076  7685.93  86.6448
 45.3496  7530.08  86.0946
 45.3916  7679.15  87.2117
 45.4336  7719.85  87.2741
 45.4756  7587.19  86.3689
 45.5176  7629.06  86.2324
 45.5596  7663.14  86.5538
 45.6016  7426.81  85.617
 45.6436  7482.46  85.1144
 45.6856  7498.66  85.8693
 45.7276  7399.4  86.619
 45.7696  7561.24  87.2251
 45.8116  7575.53  86.7336
 45.8536  7529.71  86.3565
 45.8956  7532.14  85.7264
 45.9376  7567.32  85.3896
 45.9796  7555.06  86.0081
 46.0216  7629.59  86.7619
 46.0636  7628.42  85.9039
 46.1056  7642.61  85.972
 46.1476  7662.36  86.6805
 46.1896  7573.37  86.3219
 46.2316  7467.41  85.5875
 46.2736  7533.45  86.1762
 46.3156  7540.28  85.9565
 46.3576  7505.41  85.9717
 46.3996  7559.39  86.4441
 46.4416  7506.83  85.6833
 46.4836  7532.42  86.2127
 46.5256  7472.48  85.8133
 46.5676  7378.54  85.3868
 46.6096  7595.64  86.5676
 46.6516  7551.13  85.349
 46.6936  7704.87  86.7167
 46.7356  7604.07  86.2393
 46.7776  7426.59  86.0919
 46.8196  7467.82  86.0669
 46.8616  7436.74  85.6945
 46.9036  7331.09  84.7324
 46.9456  7421.95  84.8918
 46.9876  7359.77  84.6233
 47.0296  7402.16  85.5639
 47.0716  7252.16  84.5135
 47.1136  7505.45  85.6424
 47.1556  7487.96  85.4153
 47.1976  7562.6  86.0019
 47.2396  7419.95  85.5086
 47.2816  7355.27  84.8345
 47.3236  7474.98  85.8995
 47.3656  7476.64  85.8339
 47.4076  7506.96  85.7322
 47.4496  7410.42  85.3478
 47.4916  7349.76  85.1913
 47.5336  7363.71  85.0786
 47.5756  7499.88  85.9882
 47.6176  7311.43  84.8018
 47.6596  7388.81  84.9616
 47.7016  7611.36  86.0353
 47.7436  7417.26  85.2733
 47.7856  7517.39  85.8738
 47.8276  7386.73  85.1765
 47.8696  7509.79  85.9736
 47.9116  7515.38  85.7094
 47.9536  7460.14  85.3434
 47.9956  7394.02  85.6799
 48.0376  7347.91  85.1807
 48.0796  7532  86.3682
 48.1216  7407.2  85.472
 48.1636  7441.61  85.2344
 48.2056  7420.19  85.3841
 48.2476  7559.1  86.4955
 48.2896  7535.29  86.2643
 48.3316  7487.88  85.9388
 48.3736  7417.99  85.5523
 48.4156  7376.73  85.1731
 48.4576  7294  84.9859
 48.4996  7561.77  85.9719
 48.5416  7516.17  86.0409
 48.5836  7456.95  85.3784
 48.6256  7471.36  85.6622
 48.6676  7342.61  85.4537
 48.7096  7387.06  84.9678
 48.7516  7397.38  85.1701
 48.7936  7244.05  84.3534
 48.8356  7416.06  85.3992
 48.8776  7416.93  85.9846
 48.9196  7456.35  85.5704
 48.9616  7303.79  85.0784
 49.0036  7340.87  85.6397
 49.0456  7235.27  85.0053
 49.0876  7391.73  85.451
 49.1296  7302.31  85.0997
 49.1716  7211.83  84.4436
 49.2136  7387.69  85.3868
 49.2556  7387.07  85.4079
 49.2976  7454.86  85.872
 49.3396  7262.16  84.8154
 49.3816  7528.68  85.7683
 49.4236  7402.5  85.4811
 49.4656  7338.17  85.1299
 49.5076  7359.82  84.9989
 49.5496  7384.38  85.2025
 49.5916  7464.85  85.58
 49.6336  7328.75  85.0017
 49.6756  7423.56  85.7936
 49.7176  7336.33  85.2246
 49.7596  7325.99  84.9305
 49.8016  7327.32  84.8642
 49.8436  7362.42  85.3642
 49.8856  7273.1  84.8476
 49.9276  7213.74  84.5996
 49.9696  7302.51  85.1018
 50.0116  7253.71  84.9519
 50.0536  7351.7  85.4729
 50.0956  7243.9  84.9105
 50.1376  7334.98  85.1258
 50.1796  7253.87  84.9401
 50.2216  7201.81  84.6265
 50.2636  7218.58  84.3374
 50.3056  7134.55  84.0207
 50.3476  7308.16  85.0586
 50.3896  7157.3  84.1513
 50.4316  7405.86  85.4273
 50.4736  7207.83  84.4947
 50.5156  7276.12  84.894
 50.5576  7254.05  84.5173
 50.5996  7178.59  84.3639
 50.6416  7296.44  84.9765
 50.6836  7264.55  84.8479
 50.7256  7369.56  85.3749
 50.7676  7370.3  85.7122
 50.8096  7224.39  84.3895
 50.8516  7170.11  84.4958
 50.8936  7188.42  84.3907
 50.9356  7273.45  84.9937
 50.9776  7160.48  84.4925
 51.0196  7067.79  84.0763
 51.0616  7132.28  83.7661
 51.1036  7195.87  84.5068
 51.1456  7215.6  84.5296
 51.1876  7079.47  83.0559
 51.2296  7053.71  83.5541
 51.2716  7149.17  83.8182
 51.3136  7021.47  83.5328
 51.3556  7085.47  83.529
 51.3976  7070.28  83.5895
 51.4396  7036.16  83.7036
 51.4816  6991.33  83.2874
 51.5236  7038.49  83.6541
 51.5656  6983.21  82.915
 51.6076  7064.22  83.482
 51.6496  6996.17  83.2761
 51.6916  6972.12  83.4901
 51.7336  6972.74  83.5942
 51.7756  7021.32  83.5621
 51.8176  6849.11  82.6516
 51.8596  6953.95  83.2968
 51.9016  7055.29  83.5
 51.9436  7086  85.1913
 51.9856  7053.68  85.422
 52.0276  7050.04  83.8662
 52.0696  7098.69  84.2187
 52.1116  6954.72  83.4915
 52.1536  7018.85  83.6833
 52.1956  6896.85  82.4857
 52.2376  7141.81  84.1096
 52.2796  7113.41  83.7566
 52.3216  6903.41  83.2032
 52.3636  7067.72  83.7427
 52.4056  6950.78  82.9153
 52.4476  7063.32  83.9469
 52.4896  6975.13  83.4775
 52.5316  7133.5  84.4707
 52.5736  6868.19  82.5989
 52.6156  7022.43  83.9264
 52.6576  7025.53  83.372
 52.6996  6802.38  83.0331
 52.7416  6874.6  83.3235
 52.7836  7045.48  84.2398
 52.8256  7057.68  83.5049
 52.8676  6853.77  82.8644
 52.9096  6939.21  83.4592
 52.9516  7067.25  84.6277
 52.9936  6946.65  84.2799
 53.0356  7022.68  83.7091
 53.0776  6971.95  83.6837
 53.1196  6904.11  83.4041
 53.1616  7051.92  84.3411
 53.2036  6987.78  83.919
 53.2456  6962.71  83.8629
 53.2876  7173.04  84.8072
 53.3296  6971.83  83.9429
 53.3716  7074.32  84.3072
 53.4136  7037.69  84.2428
 53.4556  6938.69  83.6777
 53.4976  7042.72  84.1399
 53.5396  6887.55  83.6054
 53.5816  6914.91  83.409
 53.6236  6866.01  83.4628
 53.6656  6932.44  83.453
 53.7076  6951.59  83.5353
 53.7496  6992.18  83.9162
 53.7916  6947.25  83.781
 53.8336  6908.53  83.4244
 53.8756  6749.41  83.032
 53.9176  6739.86  82.2966
 53.9596  6569.82  82.0292
 54.0016  6688.94  82.0807
 54.0436  6577.01  81.6229
 54.0856  6655.05  81.5286
 54.1276  6725.5  82.1582
 54.1696  6724.18  82.3104
 54.2116  6821.27  82.6349
 54.2536  6742.83  81.9764
 54.2956  6721.83  81.9133
 54.3376  6679.88  82.15
 54.3796  6653.85  81.8882
 54.4216  6728.3  82.4107
 54.4636  6552.27  81.273
 54.5056  6693.98  81.9568
 54.5476  6574.38  81.5528
 54.5896  6572.24  81.3914
 54.6316  6688.52  81.9368
 54.6736  6687.74  82.0331
 54.7156  6644.25  81.7904
 54.7576  6638.03  81.7208
 54.7996  6668.68  82.0845
 54.8416  6623.22  81.8351
 54.8836  6731.77  82.6049
 54.9256  6567.85  81.3502
 54.9676  6567.03  81.2128
 55.0096  6595.4  81.4259
 55.0516  6535.29  81.2705
 55.0936  6555.96  81.0764
 55.1356  6495.3  80.7402
 55.1776  6699.04  82.2382
 55.2196  6643.5  81.6806
 55.2616  6663.59  82.0398
 55.3036  6424.25  80.7118
 55.3456  6381.89  80.6063
 55.3876  6506.22  81.0881
 55.4296  6420.53  80.554
 55.4716  6440.94  80.7249
 55.5136  6444.02  80.4961
 55.5556  6635.92  81.7316
 55.5976  6546.08  81.2647
 55.6396  6522.36  80.9736
 55.6816  6536.9  81.012
 55.7236  6415.09  80.3134
 55.7656  6517.7  80.6817
 55.8076  6426.19  80.1099
 55.8496  6580.46  81.5018
 55.8916  6413.38  80.5631
 55.9336  6531  81.1128
 55.9756  6456.44  80.5348
 56.0176  6391.33  80.2688
 56.0596  6425.31  80.4956
 56.1016  6380.68  80.2311
 56.1436  6398.86  80.6082
 56.1856  6306.16  79.7487
 56.2276  6622.73  81.7687
 56.2696  6363.22  80.1534
 56.3116  6571.78  81.8332
 56.3536  6356.2  80.1447
 56.3956  6321.7  79.9035
 56.4376  6269.83  79.6331
 56.4796  6303.68  79.6615
 56.5216  6421.47  80.7646
 56.5636  6274.01  79.414
 56.6056  6528.63  81.2323
 56.6476  6386.65  79.9556
 56.6896  6513.27  81.2199
 56.7316  6337.35  80.0326
 56.7736  6356.51  80.1507
 56.8156  6394.73  80.4172
 56.8576  6269.64  79.5704
 56.8996  6270.09  79.472
 56.9416  6336.49  80.2007
 56.9836  6378.95  79.9911
 57.0256  6388.57  80.3711
 57.0676  6399.23  80.5459
 57.1096  6289.56  79.6511
 57.1516  6259.13  79.5088
 57.1936  6319.49  79.6394
 57.2356  6148.92  78.8972
 57.2776  6211.94  79.2698
 57.3196  6352.89  80.5112
 57.3616  6204.03  79.058
 57.4036  6300.93  79.7178
 57.4456  6343.35  79.9816
 57.4876  6240.08  79.1869
 57.5296  6298.44  79.8789
 57.5716  6241.45  79.5315
 57.6136  6185.4  79.0124
 57.6556  6268.64  79.6647
 57.6976  6254.38  79.4104
 57.7396  6132.18  78.9608
 57.7816  6123.36  79.2852
 57.8236  6217.39  79.6816
 57.8656  6319.79  80.0006
 57.9076  6230.16  79.4495
 57.9496  6188.7  79.5326
 57.9916  6253.8  79.4579
 58.0336  6193.85  79.3746
 58.0756  6238.08  79.2544
 58.1176  6220.67  79.1594
 58.1596  6164.13  79.3946
 58.2016  6034.13  77.7835
 58.2436  6033.61  78.1816
 58.2856  6001.52  77.9024
 58.3276  5928.29  77.7803
 58.3696  5950.43  77.681
 58.4116  5979.35  77.744
 58.4536  5978.79  77.6249
 58.4956  5917.42  77.4046
 58.5376  6097.92  78.1433
 58.5796  5877.23  77.1379
 58.6216  6009.16  77.8168
 58.6636  6042.13  78.2457
 58.7056  6037.03  78.0628
 58.7476  5925.97  77.7852
 58.7896  5925.86  77.4313
 58.8316  5954.34  77.6103
 58.8736  6041.57  78.1897
 58.9156  5882.03  77.1929
 58.9576  5859.89  77.3657
 58.9996  6016.16  77.6399
 59.0416  6121.75  78.6867
 59.0836  6044.79  78.0985
 59.1256  5989.37  78.4448
 59.1676  5960.69  78.5661
 59.2096  6014.62  78.2337
 59.2516  6002.92  77.7398
 59.2936  5895.56  77.3657
 59.3356  6068.22  78.3679
 59.3776  5958.41  77.8234
 59.4196  5877.84  77.2329
 59.4616  5981.66  77.772
 59.5036  5851.02  76.9497
 59.5456  6064.25  78.0352
 59.5876  5820.46  76.6382
 59.6296  5965.52  77.6561
 59.6716  5912.21  77.3657
 59.7136  5884.33  77.1715
 59.7556  5979.09  77.9262
 59.7976  5829.28  76.6904
 59.8396  6023.07  77.8491
 59.8816  5946.2  77.8872
 59.9236  5951.41  77.5724
 59.9656  5909.95  77.5587
 60.0076  5956.07  77.2234
 60.0496  6009.41  78.0694
 60.0916  5992.07  77.3787
 60.1336  6006.81  78.5782
 60.1756  6029.52  79.9101
 60.1996  0.0000000E+00  0.0000000E+00