File: docs/examples/opeando_xrd/IS17_D/Data/IS17_D/17_Da_f00098.xye
# /beamlines/bl04/projects/cycle2025-II/20250340211-lsimonelli/DATA/IS17_D/17_Da_f00098.xye : mythproc.py merge -s 0.006 -l 0.5 -f /beamlines/bl04/inhouse/ff/FlatField/ff_20Nov2024rod8mm60s_17keV.raw -b True -c true -o xye /beamlines/bl04/projects/cycle2025-II/20250340211-lsimonelli/DATA/IS17_D/17_Da_00098.dat
# IsMon = [6753410, 6754518, 6755651]  IsPos = [-1.5000, -2.4884, -3.4988]
# Wave = 0.4962  CalPath /beamlines/bl04/projects/cycle2025-II/20250340211-lsimonelli/DATA/Align/Si_Pos1_25keV_f00001.cal
# Date = 2025-09-24_20:52:17 Dt = 4.8000  Bin = 0.0060  <imon> = 6754526 +/- 915 (Min/Max) 6753410 / 6755651
# icurr 249.6080  mocoIn 1.7023E-05  mocoOut 0.7984  i15 7.07271e+06  imon 6.75453e+06  i7 4.0000  iEMpd_timer 4.8000  iEMpd_1 3.4490E-08  iEMpd_2 7.8645E-08  iEMpd_3 1.6934E-08  iEMpd_4 4.8098E-08  iEMhp_timer 4.8000  iEMhp_1 4.8761E-06  iEMhp_2 -2.5079E-08  iEMhp_3 -2.5437E-08  iEMhp_4 -2.1421E-08
#      9776
 1.5856  40417.2  206.454
 1.6276  48243.3  221.687
 1.6696  54268.8  234.295
 1.7116  62829.3  252.591
 1.7536  71954.1  269.16
 1.7956  76706.8  278.601
 1.8376  73227  272.64
 1.8796  61432.2  247.882
 1.9216  49554.9  223.521
 1.9636  41817.9  205.007
 2.0056  37652.2  193.286
 2.0476  34728.1  187.664
 2.0896  33561  183.402
 2.1316  32456  179.49
 2.1736  30625.9  175.739
 2.2156  31385.5  176.477
 2.2576  30446.8  174.443
 2.2996  29398.1  172.04
 2.3416  29611.3  171.286
 2.3836  28628.2  168.521
 2.4256  28076.9  167.434
 2.4676  27761.8  166.256
 2.5096  27748.7  166.271
 2.5516  26878.4  167.432
 2.5936  27224.3  165.097
 2.6356  26153.5  162.502
 2.6776  26297.9  161.842
 2.7196  26096.8  161.738
 2.7616  26058.6  161.401
 2.8036  25660.6  160.335
 2.8456  25743.2  161.207
 2.8876  25038.4  158.862
 2.9296  24708.8  157.94
 2.9716  24578.3  157.016
 3.0136  24366.8  156.4
 3.0556  24231.1  156.366
 3.0976  24204.7  155.213
 3.1396  23998.5  155.273
 3.1816  23817.7  154.616
 3.2236  23593.8  153.887
 3.2656  23699.4  153.267
 3.3076  23282.9  153.36
 3.3496  23725.9  153.749
 3.3916  23882.1  154.081
 3.4336  24415.2  156.371
 3.4756  24643.1  157.031
 3.5176  25832.7  160.561
 3.5596  25413  162.23
 3.6016  25505.2  159.594
 3.6436  24833.3  158.575
 3.6856  24311.3  155.203
 3.7276  23428.1  153.446
 3.7696  23280.3  152.951
 3.8116  22811.7  151.491
 3.8536  23124.6  152.459
 3.8956  22899.2  151.542
 3.9376  22685.6  151.077
 3.9796  22779.4  150.905
 4.0216  22784.7  149.96
 4.0636  22777.9  151.417
 4.1056  22834.6  151.239
 4.1476  22967.8  151.999
 4.1896  23279.5  152.88
 4.2316  23451.2  153.274
 4.2736  23854.6  154.374
 4.3156  23998.8  155.067
 4.3576  24694.8  157.226
 4.3996  25051  158.612
 4.4416  25549.6  159.768
 4.4836  25873.3  160.93
 4.5256  26333.1  162.966
 4.5676  26538.4  163.854
 4.6096  26846.5  163.822
 4.6516  27398.3  164.844
 4.6936  27551.9  166.11
 4.7356  27786  166.65
 4.7776  27572.5  165.839
 4.8196  27189.5  165.333
 4.8616  26891.1  163.908
 4.9036  26449.8  162.3
 4.9456  26623.4  163.481
 4.9876  26068.2  161.671
 5.0296  26393.3  162.491
 5.0716  26143.8  162.498
 5.1136  26362.4  162.884
 5.1556  26705.2  163.402
 5.1976  26902.4  164.002
 5.2396  27152.9  164.457
 5.2816  27030.4  164.548
 5.3236  27144.9  164.601
 5.3656  26655.2  164.03
 5.4076  26386.5  163.352
 5.4496  26512.5  163.222
 5.4916  26505.5  162.962
 5.5336  26793.6  163.849
 5.5756  26406.9  162.693
 5.6176  26757.5  163.202
 5.6596  26930.6  164.557
 5.7016  26973.6  164.107
 5.7436  27031.1  164.554
 5.7856  26910.2  164.237
 5.8276  27444.3  165.588
 5.8696  27432.1  165.61
 5.9116  27491.5  166.507
 5.9536  27795  167.174
 5.9956  27893.3  166.837
 6.0376  27923.1  167.559
 6.0796  28302.9  168.525
 6.1216  28282.4  168.667
 6.1636  28703.4  168.977
 6.2056  28491.3  169.017
 6.2476  28773.8  169.548
 6.2896  28951.8  169.932
 6.3316  28722.8  169.432
 6.3736  28747.3  169.399
 6.4156  28734.8  169.314
 6.4576  29199.9  170.23
 6.4996  29366.3  171.192
 6.5416  29239.2  170.96
 6.5836  29388.1  171.622
 6.6256  29374.5  171.144
 6.6676  30108.3  172.84
 6.7096  29644.9  172.355
 6.7516  30207.8  173.638
 6.7936  30259.1  173.215
 6.8356  30522  174.042
 6.8776  30836.8  175.739
 6.9196  30769.7  175.948
 6.9616  31279.7  176.844
 7.0036  31481.5  177.066
 7.0456  31468.5  176.327
 7.0876  31624.4  178.374
 7.1296  31576.2  177.456
 7.1716  31337.7  176.32
 7.2136  31357  176.162
 7.2556  31732.9  177.374
 7.2976  31491.3  177.196
 7.3396  31380.5  177.097
 7.3816  31215.7  176.844
 7.4236  31826.3  177.853
 7.4656  31840.7  177.379
 7.5076  31951.9  177.825
 7.5496  31832.5  178.026
 7.5916  31879.3  178.187
 7.6336  32344.6  179.384
 7.6756  32552.3  179.807
 7.7176  32573.5  180.172
 7.7596  32593  181.467
 7.8016  32907.4  184.514
 7.8436  33464.6  182.747
 7.8856  34014.3  183.852
 7.9276  34405.9  185.301
 7.9696  34700.4  186.404
 8.0116  35401.9  186.818
 8.0536  35441.2  187.174
 8.0956  35483.4  188.461
 8.1376  35853.2  188.915
 8.1796  35909.7  189.607
 8.2216  37054.9  191.341
 8.2636  37008.3  191.466
 8.3056  36935.5  192.047
 8.3476  37629.2  193.172
 8.3896  37202.8  192.156
 8.4316  37647.8  193.465
 8.4736  37487  192.52
 8.5156  37126.1  191.866
 8.5576  37018.4  192.559
 8.5996  36809.7  190.891
 8.6416  36833.9  192.216
 8.6836  36616.7  191.476
 8.7256  37360.6  192.861
 8.7676  36685  193.989
 8.8096  36376.6  190.504
 8.8516  36090.2  189.427
 8.8936  35754.3  188.376
 8.9356  35841.3  188.943
 8.9776  36125.3  189.796
 9.0196  35617.7  188.131
 9.0616  35803.8  188.109
 9.1036  35205.2  187.701
 9.1456  35485.2  187.8
 9.1876  35402.5  187.537
 9.2296  35511  187.227
 9.2716  35036.2  186.033
 9.3136  35041.6  186.028
 9.3556  35087.1  186.136
 9.3976  33766.2  183.124
 9.4396  34259.5  184.353
 9.4816  33661.1  182.599
 9.5236  33654.4  182.49
 9.5656  33824.9  183.257
 9.6076  33513.5  182.953
 9.6496  33065.4  181.651
 9.6916  33370.5  182.457
 9.7336  33191  181.749
 9.7756  33075.9  182.537
 9.8176  32587.1  180.83
 9.8596  32458.9  178.938
 9.9016  32231  178.303
 9.9436  32013.1  177.446
 9.9856  31435.8  176.232
 10.0276  31123.1  176.441
 10.0696  31567.9  176.74
 10.1116  30499.7  173.985
 10.1536  30321.5  173.154
 10.1956  30222.8  172.957
 10.2376  29527.8  170.472
 10.2796  29808.7  171.406
 10.3216  29694  171.194
 10.3636  29192.7  169.922
 10.4056  28969.3  169.668
 10.4476  29181.5  169.911
 10.4896  28904.2  168.564
 10.5316  28433.9  167.557
 10.5736  28177  167.531
 10.6156  28000.2  166.773
 10.6576  28064.6  165.548
 10.6996  27567.7  164.739
 10.7416  27351.4  164.324
 10.7836  27460.4  165.321
 10.8256  27069.9  164.566
 10.8676  27341  164.927
 10.9096  26946.2  163.768
 10.9516  26795.7  162.249
 10.9936  26704.7  162.174
 11.0356  26496.3  162.166
 11.0776  26631.2  161.898
 11.1196  25957.6  160.57
 11.1616  25968.5  160.294
 11.2036  25852.5  159.791
 11.2456  25982.3  160.895
 11.2876  25727.9  159.837
 11.3296  25522.9  159.105
 11.3716  26102.4  160.629
 11.4136  25784.6  160.498
 11.4556  26031.6  160.932
 11.4976  26316.8  160.793
 11.5396  26670.1  162.032
 11.5816  26866.1  163.079
 11.6236  26558.2  162.373
 11.6656  26046.3  159.962
 11.7076  25440.6  158.918
 11.7496  25168.8  162.001
 11.7916  25103.1  157.134
 11.8336  24822.7  157.13
 11.8756  24432.2  155.435
 11.9176  24574.5  155.549
 11.9596  24218.4  154.601
 12.0016  24235.6  155.44
 12.0436  24436.6  155.511
 12.0856  23976.9  154.553
 12.1276  23956.9  154.415
 12.1696  23893  153.35
 12.2116  24227.1  154.412
 12.2536  23634.1  153.305
 12.2956  23920.9  153.598
 12.3376  23636.9  152.895
 12.3796  23815.7  153.915
 12.4216  23737.1  152.895
 12.4636  23406.5  152.739
 12.5056  23672  152.873
 12.5476  24025.2  153.539
 12.5896  23765.2  153.334
 12.6316  23310.1  152.018
 12.6736  23363.1  152.664
 12.7156  23323.3  152.4
 12.7576  23515.6  153.258
 12.7996  23895.1  153.149
 12.8416  23411.9  152.631
 12.8836  23858.3  153.908
 12.9256  24161.6  153.906
 12.9676  24212.9  154.486
 13.0096  23981.5  154.841
 13.0516  23998.2  153.936
 13.0936  24363.7  155.225
 13.1356  24542.9  155.064
 13.1776  24154.1  154.81
 13.2196  24409.3  155.283
 13.2616  24335.6  155.358
 13.3036  24254.4  155.238
 13.3456  24327  155.657
 13.3876  24268.3  154.765
 13.4296  24238.1  154.812
 13.4716  24235.8  154.424
 13.5136  24337.9  154.904
 13.5556  24294.8  155.375
 13.5976  24305.5  155.539
 13.6396  24510.5  155.577
 13.6816  23980.6  154.25
 13.7236  24815.3  156.681
 13.7656  23977.8  154.546
 13.8076  24299.9  154.371
 13.8496  23979.7  154.126
 13.8916  23976.2  154.925
 13.9336  23947.7  154.068
 13.9756  23967.2  153.482
 14.0176  23856.1  153.808
 14.0596  23633.1  153.05
 14.1016  23619.6  153.401
 14.1436  23272  151.411
 14.1856  23072.7  151.051
 14.2276  22792.2  150.608
 14.2696  23097.2  151.459
 14.3116  22879.7  150.633
 14.3536  22615.4  149.948
 14.3956  22466  149.181
 14.4376  22573.1  149.316
 14.4796  22384.2  148.684
 14.5216  22303.1  149.209
 14.5636  21873.1  147.333
 14.6056  22070.3  147.57
 14.6476  22000.8  146.576
 14.6896  21529.9  145.536
 14.7316  21307.6  145.803
 14.7736  21228.1  144.683
 14.8156  20970.8  143.837
 14.8576  20942  143.588
 14.8996  20586.3  143.568
 14.9416  20226.6  142.307
 14.9836  20311  142.552
 15.0256  20076.2  140.667
 15.0676  20227  141.51
 15.1096  20047.9  140.621
 15.1516  19674.7  139.858
 15.1936  19703.7  139.393
 15.2356  19478.1  138.869
 15.2776  19382.6  138.115
 15.3196  19044.6  137.905
 15.3616  18915.6  137.191
 15.4036  19053.9  137.554
 15.4456  19247.7  137.9
 15.4876  18988.5  136.643
 15.5296  18552.2  135.352
 15.5716  18535.3  134.89
 15.6136  18280.9  134.291
 15.6556  18396.3  133.95
 15.6976  18312.1  133.94
 15.7396  18136.5  133.682
 15.7816  18029.6  132.794
 15.8236  17903.7  133.035
 15.8656  17753.2  132.268
 15.9076  17548.4  131.33
 15.9496  17364.6  133.4
 15.9916  17371.1  133.887
 16.0336  17095.5  129.726
 16.0756  17335.2  130.939
 16.1176  17383.9  131.034
 16.1596  16861  130.375
 16.2016  17024.8  129.75
 16.2436  16680.9  128.824
 16.2856  16628.6  128.169
 16.3276  16384.9  127.629
 16.3696  16699.5  128.678
 16.4116  16315.9  127.654
 16.4536  16496.1  128.138
 16.4956  16488.7  127.851
 16.5376  16236  127.051
 16.5796  16215.6  126.328
 16.6216  16225.8  126.674
 16.6636  16169.9  126.602
 16.7056  16296.1  126.961
 16.7476  16321.2  126.602
 16.7896  16084.7  126.421
 16.8316  16192.9  126.815
 16.8736  15990.3  126.268
 16.9156  16094.8  127.002
 16.9576  16083.6  127.771
 16.9996  16089.9  128.281
 17.0416  16266.6  127.336
 17.0836  16099.6  126.442
 17.1256  15731.8  125.002
 17.1676  15921.4  125.738
 17.2096  15771.4  125.028
 17.2516  15675.7  124.73
 17.2936  15914.9  125.697
 17.3356  15225.1  122.955
 17.3776  15267.4  123.313
 17.4196  15366.2  123.409
 17.4616  15264.5  122.913
 17.5036  15052.6  122.425
 17.5456  14904.6  122.454
 17.5876  14849.6  121.284
 17.6296  14995.6  121.687
 17.6716  14851.4  121.679
 17.7136  14520.3  120.46
 17.7556  14761.6  121.741
 17.7976  14683.5  121.167
 17.8396  14611.4  120.371
 17.8816  14611.3  120.908
 17.9236  14474.8  120.156
 17.9656  14630.8  121.334
 18.0076  14661.8  121.044
 18.0496  14647.6  120.123
 18.0916  14524.8  120.153
 18.1336  14439.6  119.898
 18.1756  14689.2  120.453
 18.2176  14298.5  119.074
 18.2596  14498.1  119.637
 18.3016  14402.1  119.491
 18.3436  14551.6  120.114
 18.3856  14255.8  119.023
 18.4276  14389.2  119.25
 18.4696  14221  118.646
 18.5116  14214  118.907
 18.5536  14218.3  119.277
 18.5956  14111.6  118.385
 18.6376  14083.5  118.671
 18.6796  13939.6  117.401
 18.7216  14199.4  118.966
 18.7636  13922.9  117.797
 18.8056  14142.7  118.661
 18.8476  13945  118.451
 18.8896  14011.4  118.069
 18.9316  14181.8  118.768
 18.9736  14107.6  118.155
 19.0156  13951.7  117.906
 19.0576  14104.6  117.417
 19.0996  14080.2  118.021
 19.1416  13975.7  117.971
 19.1836  13786.9  116.782
 19.2256  13853.3  117.271
 19.2676  13958.3  117.808
 19.3096  13950.5  118.023
 19.3516  13810.4  117.214
 19.3936  13843.5  117.428
 19.4356  13781  117.036
 19.4776  13804.8  117.232
 19.5196  13765.3  116.912
 19.5616  13715.3  116.958
 19.6036  13814.2  116.877
 19.6456  13846.2  117.13
 19.6876  13891.6  116.973
 19.7296  13721.8  116.706
 19.7716  13677.9  116.679
 19.8136  13864.8  117.687
 19.8556  14110.7  118.199
 19.8976  13971.7  117.682
 19.9396  14069.5  117.673
 19.9816  14310.7  118.919
 20.0236  14427.1  119.618
 20.0656  14743.6  120.919
 20.1076  14676.1  121.114
 20.1496  14442.1  120.152
 20.1916  14326  119.135
 20.2336  14253.6  118.803
 20.2756  13830.5  117.457
 20.3176  13650.5  116.442
 20.3596  13582.4  116.126
 20.4016  13562.8  115.849
 20.4436  13538.3  116.29
 20.4856  13336.4  115.223
 20.5276  13297.2  115.513
 20.5696  13331.7  115.228
 20.6116  13263.9  115.104
 20.6536  13349.6  114.982
 20.6956  13275.5  114.783
 20.7376  13176.9  114.588
 20.7796  13038.7  113.676
 20.8216  13129.3  113.779
 20.8636  13038.6  113.75
 20.9056  13003  113.54
 20.9476  12844.3  112.692
 20.9896  13314.7  114.606
 21.0316  13138.2  113.738
 21.0736  12956.7  113.468
 21.1156  12994.7  113.791
 21.1576  12975.1  113.744
 21.1996  12877.4  113.308
 21.2416  12948.6  113.452
 21.2836  12849.4  112.978
 21.3256  12790.6  112.808
 21.3676  12892.9  112.805
 21.4096  12925.1  113.309
 21.4516  12684.9  112.078
 21.4936  12507.3  111.541
 21.5356  12810.7  112.825
 21.5776  12981.9  113.411
 21.6196  12797.1  112.634
 21.6616  12602.7  111.868
 21.7036  12716.2  112.152
 21.7456  12791.4  112.557
 21.7876  12685.1  111.839
 21.8296  12514.9  110.942
 21.8716  12547.8  111.321
 21.9136  12693.2  112.161
 21.9556  12660.2  111.689
 21.9976  12573.2  111.323
 22.0396  12547.7  111.464
 22.0816  12708.7  112.716
 22.1236  12713.7  112.192
 22.1656  12640.2  111.977
 22.2076  12544  111.039
 22.2496  12632.6  111.458
 22.2916  12618.9  111.281
 22.3336  12619.9  112.01
 22.3756  12533.3  111.346
 22.4176  12597.2  111.486
 22.4596  12404.8  111.214
 22.5016  12580  111.491
 22.5436  12636.3  111.622
 22.5856  12593.3  111.675
 22.6276  12444.4  111.154
 22.6696  12554  111.993
 22.7116  12544.4  111.465
 22.7536  12533.2  111.389
 22.7956  12510.9  110.624
 22.8376  12430.9  110.79
 22.8796  12483.9  110.827
 22.9216  12726.9  112.446
 22.9636  12484.2  110.528
 23.0056  12551.8  110.962
 23.0476  12626.2  111.858
 23.0896  13024.5  112.979
 23.1316  12692.6  111.968
 23.1736  12627.2  114.626
 23.2156  12710.7  112.374
 23.2576  12491.9  111.533
 23.2996  12654  112.044
 23.3416  12461.9  111.702
 23.3836  12600  111.555
 23.4256  12678.8  112.022
 23.4676  12522.8  111.028
 23.5096  12506.2  111.629
 23.5516  12387.4  110.385
 23.5936  12448.3  111.544
 23.6356  12735.8  112.495
 23.6776  12554.5  111.904
 23.7196  12263.3  110.403
 23.7616  12506.7  111.192
 23.8036  12431.9  110.896
 23.8456  12355.7  110.131
 23.8876  12152.9  109.572
 23.9296  12285.8  110.658
 23.9716  12221.4  109.566
 24.0136  12411.3  111.305
 24.0556  12195.9  110.078
 24.0976  12056.3  109.259
 24.1396  12048  111.848
 24.1816  12009.5  110.111
 24.2236  11911.3  109.271
 24.2656  11814.8  108.308
 24.3076  11994.3  109.387
 24.3496  11827.4  108.508
 24.3916  11793.2  108.397
 24.4336  11638.6  107.893
 24.4756  11671.7  107.906
 24.5176  11548.6  106.999
 24.5596  11520.1  107.184
 24.6016  11581.2  107.561
 24.6436  11596  107.12
 24.6856  11727.6  107.491
 24.7276  11565.7  107.057
 24.7696  11491.7  106.831
 24.8116  11326.6  106.237
 24.8536  11380.5  106.488
 24.8956  11374.5  106.196
 24.9376  11164.8  105.395
 24.9796  11262.6  105.966
 25.0216  11091.8  105.267
 25.0636  11280.5  105.811
 25.1056  10901.6  104.715
 25.1476  11246.9  108.013
 25.1896  11169.5  106.13
 25.2316  11188  105.492
 25.2736  11115.3  104.806
 25.3156  11123.4  104.92
 25.3576  11147.5  105.452
 25.3996  11046.6  104.953
 25.4416  10966.9  104.563
 25.4836  10874  104.637
 25.5256  10985.9  104.54
 25.5676  10990.5  104.295
 25.6096  10750.6  103.713
 25.6516  10968.4  104.262
 25.6936  10910.3  104.291
 25.7356  10856  104.172
 25.7776  10923.1  104.175
 25.8196  10705.5  103.287
 25.8616  10816.9  103.752
 25.9036  10937.5  103.798
 25.9456  10773.5  103.604
 25.9876  10765.4  103.491
 26.0296  10910.7  103.839
 26.0716  10713.8  103.318
 26.1136  10785.7  103.601
 26.1556  10936.1  103.702
 26.1976  10809.2  104.021
 26.2396  10824.6  103.256
 26.2816  10855  104.011
 26.3236  10779.7  103.812
 26.3656  10746.4  103.374
 26.4076  10792.8  103.808
 26.4496  11360  105.975
 26.4916  11000.4  104.298
 26.5336  10827.1  103.795
 26.5756  11022  104.587
 26.6176  10704.8  103.118
 26.6596  10603  102.936
 26.7016  10655.4  102.942
 26.7436  10482.7  102.238
 26.7856  10525.8  102.426
 26.8276  10558.1  102.544
 26.8696  10680.8  103.014
 26.9116  10502.1  102.085
 26.9536  10491.1  102.076
 26.9956  10513  102.22
 27.0376  10314.6  101.461
 27.0796  10460  101.907
 27.1216  10328.6  101.342
 27.1636  10403.2  101.874
 27.2056  10323.2  101.361
 27.2476  10310.5  101.299
 27.2896  10298.6  101.352
 27.3316  10392.1  101.526
 27.3736  10283.9  101.26
 27.4156  10202.1  100.702
 27.4576  10205.7  100.946
 27.4996  10126.6  100.156
 27.5416  10226.7  100.966
 27.5836  10260  100.949
 27.6256  10504.6  102.295
 27.6676  10321.1  101.432
 27.7096  10133.7  100.378
 27.7516  10092.9  100.323
 27.7936  10072.6  100.39
 27.8356  10165.6  100.474
 27.8776  10066.8  100.028
 27.9196  10065.9  99.8709
 27.9616  10143.3  100.449
 28.0036  10063.2  100.026
 28.0456  9961.93  99.6459
 28.0876  9974.8  99.8043
 28.1296  9988.7  99.7173
 28.1716  9947.28  99.5141
 28.2136  10039.2  99.937
 28.2556  9764.43  98.6769
 28.2976  9869.48  99.1975
 28.3396  9982.26  99.523
 28.3816  10008.8  99.6765
 28.4236  9901.04  99.2909
 28.4656  9828.62  98.9587
 28.5076  9729.88  98.1079
 28.5496  9734.57  98.3868
 28.5916  9789.74  98.4741
 28.6336  9738.85  98.5621
 28.6756  9809.82  98.1236
 28.7176  9791.78  98.5724
 28.7596  9704.84  98.0386
 28.8016  9855.85  98.828
 28.8436  9679.72  98.1818
 28.8856  9856.68  98.9294
 28.9276  9645.9  98.1102
 28.9696  9707.57  98.0811
 29.0116  9604.85  97.7459
 29.0536  9611.01  97.9753
 29.0956  9522.23  97.2392
 29.1376  9562.18  97.4083
 29.1796  9597.53  97.6389
 29.2216  9592.33  97.4529
 29.2636  9576.39  97.445
 29.3056  9608.08  97.3994
 29.3476  9673.46  98.2522
 29.3896  9675.38  98.3496
 29.4316  9720.67  97.9254
 29.4736  9649.21  97.6274
 29.5156  9650.7  97.5521
 29.5576  9660.43  98.3453
 29.5996  9527.31  96.9301
 29.6416  9551.19  97.1639
 29.6836  9572.56  97.1995
 29.7256  9598.52  97.9027
 29.7676  9653.56  97.8409
 29.8096  9606.43  97.5445
 29.8516  9398.2  96.8105
 29.8936  9607.11  97.977
 29.9356  9611.27  97.7518
 29.9776  9460.01  97.1299
 30.0196  9554.84  97.0105
 30.0616  9403.46  96.6063
 30.1036  9531.49  97.0877
 30.1456  9508.48  97.2011
 30.1876  9482.68  97.0474
 30.2296  9464.19  96.9017
 30.2716  9488.19  96.6627
 30.3136  9563.88  97.9091
 30.3556  9486.24  97.5256
 30.3976  9253.66  97.8341
 30.4396  9478.28  96.3535
 30.4816  9404.63  95.577
 30.5236  9409.84  95.6192
 30.5656  9363.91  96.0329
 30.6076  9382.05  95.8969
 30.6496  9303.1  95.5389
 30.6916  9208.84  95.1442
 30.7336  9338.68  95.9647
 30.7756  9302.59  95.8694
 30.8176  9227.95  95.4009
 30.8596  9299.36  95.5445
 30.9016  9290.47  95.3688
 30.9436  9485  96.5865
 30.9856  9383.93  96.1777
 31.0276  9147.21  94.5662
 31.0696  9230.58  95.5686
 31.1116  9029.95  94.5038
 31.1536  9251.18  95.5345
 31.1956  9135.3  95.0246
 31.2376  9199.1  95.3589
 31.2796  9110.66  94.4482
 31.3216  9239.01  95.0569
 31.3636  9232.14  95.709
 31.4056  9197.97  96.8557
 31.4476  9244.53  94.9819
 31.4896  9082.52  94.6436
 31.5316  9154.3  94.4223
 31.5736  9224.46  94.6017
 31.6156  9088.86  93.9267
 31.6576  9142.23  94.2973
 31.6996  9159.17  94.0582
 31.7416  8976.56  94.0279
 31.7836  9169.55  94.1891
 31.8256  9002.52  93.5956
 31.8676  9108.78  94.1431
 31.9096  8992.69  93.7545
 31.9516  8850.34  93.3021
 31.9936  8864.15  93.2053
 32.0356  8968.31  93.8108
 32.0776  8971.07  93.7168
 32.1196  9122.08  94.5125
 32.1616  9101.78  93.9471
 32.2036  8888.89  93.3435
 32.2456  8886.42  93.7079
 32.2876  8938.19  93.484
 32.3296  8915.67  93.3307
 32.3716  8896.46  93.3332
 32.4136  8881.24  93.4631
 32.4556  9102.96  93.9986
 32.4976  8934.68  93.078
 32.5396  8945.42  93.1638
 32.5816  8973.92  93.4326
 32.6236  8980.06  93.5366
 32.6656  9050.36  94.438
 32.7076  8756.11  92.5514
 32.7496  8889.65  92.9277
 32.7916  8869.88  92.7807
 32.8336  8889.96  92.9809
 32.8756  9006.52  93.3041
 32.9176  8743.2  92.4153
 32.9596  8848.03  93.0331
 33.0016  8774.84  92.4512
 33.0436  8899.65  93.2785
 33.0856  8880.38  93.245
 33.1276  8738.53  92.2291
 33.1696  8899.09  92.9227
 33.2116  8915.14  93.2321
 33.2536  8877.55  93.0337
 33.2956  8856.71  93.0102
 33.3376  8895.54  93.0327
 33.3796  8933.95  93.3633
 33.4216  8848.92  92.5104
 33.4636  8869.62  92.7736
 33.5056  8793.89  92.6072
 33.5476  8679.11  91.9957
 33.5896  8834.31  92.5915
 33.6316  8646.34  91.9165
 33.6736  8592.78  91.868
 33.7156  8633.21  92.1274
 33.7576  8804.22  92.6632
 33.7996  8825.06  92.5369
 33.8416  8588.42  91.4695
 33.8836  8689.76  91.7896
 33.9256  8598.94  91.3719
 33.9676  8708.73  91.8437
 34.0096  8510.75  91.11
 34.0516  8581.06  91.1218
 34.0936  8542.39  91.181
 34.1356  8651.87  91.5054
 34.1776  8523.04  90.8288
 34.2196  8478.45  90.7741
 34.2616  8536.64  91.2166
 34.3036  8475.69  91.1397
 34.3456  8631.65  91.7289
 34.3876  8742.14  92.3687
 34.4296  8686.72  91.6727
 34.4716  8647.32  91.6157
 34.5136  8559.08  91.3502
 34.5556  8487.43  91.2137
 34.5976  8461.22  90.9174
 34.6396  8473.7  90.6595
 34.6816  8571.3  91.295
 34.7236  8526.34  90.8418
 34.7656  8548.23  91.1514
 34.8076  8475.3  91.0881
 34.8496  8463.08  90.8733
 34.8916  8471.52  90.7946
 34.9336  8567.17  91.2694
 34.9756  8547.35  91.112
 35.0176  8485.01  91.2776
 35.0596  8371.63  90.4939
 35.1016  8473.39  90.8123
 35.1436  8581.39  91.074
 35.1856  8447.35  90.4845
 35.2276  8473.87  90.8035
 35.2696  8403.48  90.6143
 35.3116  8425.82  90.8291
 35.3536  8305.52  89.9277
 35.3956  8380.93  90.0078
 35.4376  8370.64  90.5055
 35.4796  8373.92  90.5844
 35.5216  8323.41  90.2638
 35.5636  8195.08  90.3063
 35.6056  8402.5  90.4576
 35.6476  8408.6  90.3877
 35.6896  8404.56  90.4605
 35.7316  8264.72  89.6764
 35.7736  8357.38  90.3752
 35.8156  8202.52  89.5311
 35.8576  8344.25  90.5502
 35.8996  8436.34  91.0112
 35.9416  8511.98  90.9028
 35.9836  8282.15  90.1341
 36.0256  8297.08  90.1351
 36.0676  8329.55  90.0753
 36.1096  8177.53  89.3829
 36.1516  8306.87  89.975
 36.1936  8385.04  90.2467
 36.2356  8385.04  90.8893
 36.2776  8218.49  89.4564
 36.3196  8238.52  89.2496
 36.3616  8315.42  89.7926
 36.4036  8283.74  89.6783
 36.4456  8244.54  89.6754
 36.4876  8092.03  88.7822
 36.5296  8134.82  89.0535
 36.5716  8251.08  90.4719
 36.6136  8343.81  89.743
 36.6556  8281.68  89.6122
 36.6976  8157.38  89.4317
 36.7396  8207.83  89.4403
 36.7816  8165.84  89.5853
 36.8236  8075.47  89.0129
 36.8656  8097.63  89.1996
 36.9076  8054.27  88.8447
 36.9496  8148.08  89.3486
 36.9916  8188.51  89.2012
 37.0336  8222  89.6966
 37.0756  8256.96  89.6795
 37.1176  8021.45  88.6569
 37.1596  8038  88.7471
 37.2016  8115.69  89.4067
 37.2436  8193.8  89.1521
 37.2856  8122.34  89.0213
 37.3276  8193.3  88.7569
 37.3696  8047.94  88.8485
 37.4116  8062.14  88.8298
 37.4536  8070.27  88.7446
 37.4956  8079.43  88.8343
 37.5376  8119.43  90.5953
 37.5796  7953.8  89.6409
 37.6216  7837.64  87.283
 37.6636  7886.23  87.4519
 37.7056  8073.49  88.6719
 37.7476  7902.26  87.2668
 37.7896  8061.62  88.638
 37.8316  7819.61  87.476
 37.8736  8003.08  88.0181
 37.9156  7863.43  87.2506
 37.9576  7993.17  87.86
 37.9996  7953.85  87.364
 38.0416  7871.71  87.7097
 38.0836  8143.4  89.1151
 38.1256  7881.56  87.6225
 38.1676  7809.76  87.367
 38.2096  7903.69  87.5179
 38.2516  8120.75  88.9005
 38.2936  7855.61  87.2565
 38.3356  8082.47  88.4132
 38.3776  7848.9  87.4033
 38.4196  7981.64  87.9945
 38.4616  7929.5  87.9395
 38.5036  7940.12  87.846
 38.5456  7829.16  88.0544
 38.5876  7920.73  88.6018
 38.6296  7787.81  86.8451
 38.6716  7811.47  86.7712
 38.7136  7809.33  86.7013
 38.7556  7748.99  86.8584
 38.7976  7776.18  86.9548
 38.8396  7781.6  87.4333
 38.8816  7750.48  87.0327
 38.9236  7757.17  86.8935
 38.9656  7914.38  87.6826
 39.0076  7855.66  86.7673
 39.0496  7694.27  86.4034
 39.0916  7950.57  87.4682
 39.1336  7721.66  86.6181
 39.1756  7900.01  87.6791
 39.2176  7873.44  88.0591
 39.2596  7781.01  87.4617
 39.3016  7896.69  87.6803
 39.3436  7759.27  87.34
 39.3856  7756.55  86.7799
 39.4276  7827.04  87.6647
 39.4696  7696.08  86.5606
 39.5116  7714.23  87.1665
 39.5536  7899.62  88.6351
 39.5956  7873.89  87.5925
 39.6376  7924.32  87.8752
 39.6796  7846.43  87.1807
 39.7216  7949.03  87.8505
 39.7636  7876.33  88.0222
 39.8056  7938.38  88.144
 39.8476  7834.34  87.817
 39.8896  7785  87.1679
 39.9316  7733.7  87.1373
 39.9736  7824.28  87.215
 40.0156  7809.85  86.9593
 40.0576  7927.25  87.9742
 40.0996  7877.31  86.8809
 40.1416  7918.12  87.8973
 40.1836  7898.34  87.6768
 40.2256  7818.59  87.2759
 40.2676  7810.63  87.4012
 40.3096  7906.71  87.8036
 40.3516  7956.68  88.1874
 40.3936  7876.76  87.3036
 40.4356  7846.4  87.3261
 40.4776  7858.7  87.6424
 40.5196  8003.04  88.738
 40.5616  7917  87.9052
 40.6036  7847.15  87.7676
 40.6456  7861.96  87.4574
 40.6876  7951.97  87.944
 40.7296  7864.72  87.6017
 40.7716  7929.91  88.0868
 40.8136  7914.49  87.9419
 40.8556  7959.36  88.3268
 40.8976  7926.91  88.0702
 40.9396  7879.39  88.1563
 40.9816  7849.79  87.2801
 41.0236  7969.51  87.719
 41.0656  7897.79  87.862
 41.1076  7968.26  88.0273
 41.1496  7977.09  87.985
 41.1916  7877.63  87.7576
 41.2336  7853.73  87.611
 41.2756  7839.17  87.1403
 41.3176  7836.53  87.7344
 41.3596  7855.39  87.5698
 41.4016  7937.4  88.2862
 41.4436  7946.71  88.1257
 41.4856  7893.92  87.9952
 41.5276  7903.48  88.065
 41.5696  7883.7  87.5878
 41.6116  7797.86  87.5012
 41.6536  7966.39  88.2991
 41.6956  7945.06  88.1645
 41.7376  7899.21  88.0109
 41.7796  7812.71  87.4095
 41.8216  7842.34  87.8112
 41.8636  7833.06  87.6986
 41.9056  7765.69  87.102
 41.9476  7797.8  87.5239
 41.9896  7857.01  87.5194
 42.0316  7908.98  87.8916
 42.0736  7964.26  88.3436
 42.1156  7835.65  87.4352
 42.1576  7827.58  87.4854
 42.1996  7755.46  87.2241
 42.2416  7866.53  87.4289
 42.2836  7721.99  86.738
 42.3256  7791.93  87.2421
 42.3676  7754.95  86.8429
 42.4096  7822.04  87.1797
 42.4516  7692.25  86.533
 42.4936  7696.56  86.6303
 42.5356  7734.6  86.9733
 42.5776  7776.25  87.1418
 42.6196  7900.69  87.8961
 42.6616  7693.76  86.9123
 42.7036  7838.16  87.106
 42.7456  7797.81  87.2377
 42.7876  7707.67  86.8261
 42.8296  7789.95  87.1255
 42.8716  7679.31  86.6643
 42.9136  7727.7  86.685
 42.9556  7778.87  87.144
 42.9976  7805.05  87.257
 43.0396  7729.02  86.5624
 43.0816  7586.22  86.1345
 43.1236  7637.8  86.4835
 43.1656  7653.04  86.4018
 43.2076  7641.39  86.4349
 43.2496  7662.23  86.3644
 43.2916  7672.43  86.7925
 43.3336  7699.76  86.7855
 43.3756  7689.4  86.4802
 43.4176  7518.68  85.5973
 43.4596  7536.83  85.5586
 43.5016  7735.65  87.0861
 43.5436  7597.86  86.2064
 43.5856  7618.87  86.3453
 43.6276  7570.86  85.9771
 43.6696  7524.18  85.965
 43.7116  7646.86  86.1644
 43.7536  7644.18  86.6381
 43.7956  7468.05  86.8203
 43.8376  7549.74  85.8329
 43.8796  7483.1  85.5323
 43.9216  7457.43  85.304
 43.9636  7592.23  86.1752
 44.0056  7496.81  85.863
 44.0476  7500  85.516
 44.0896  7548.31  86.1352
 44.1316  7728.9  86.6788
 44.1736  7506.72  85.5465
 44.2156  7552.46  85.662
 44.2576  7590.38  86.2014
 44.2996  7590.12  86.1724
 44.3416  7562.74  85.7786
 44.3836  7363.15  84.9607
 44.4256  7380.57  84.7098
 44.4676  7406.62  85.0135
 44.5096  7473.75  85.5391
 44.5516  7554.02  85.9621
 44.5936  7327.8  84.6214
 44.6356  7342.55  84.447
 44.6776  7520.89  85.7869
 44.7196  7397.15  85.3803
 44.7616  7353.01  86.4387
 44.8036  7361.16  85.1243
 44.8456  7312.83  84.8439
 44.8876  7338.45  84.8482
 44.9296  7492.08  85.1866
 44.9716  7397.54  85.0719
 45.0136  7395.8  84.997
 45.0556  7471.73  85.5119
 45.0976  7450.19  85.4422
 45.1396  7293.67  84.2991
 45.1816  7338.05  84.4939
 45.2236  7406.62  84.7938
 45.2656  7303.91  84.6971
 45.3076  7314.74  84.5545
 45.3496  7122.02  83.7265
 45.3916  7241.66  84.6897
 45.4336  7210.36  84.356
 45.4756  7216.81  84.2554
 45.5176  7287.11  84.2813
 45.5596  7280.67  84.3642
 45.6016  7157.25  84.0535
 45.6436  7344.84  84.3309
 45.6856  7204.85  84.1675
 45.7276  7191.28  85.3889
 45.7696  7251.94  85.4208
 45.8116  7300.65  85.1511
 45.8536  7207.9  84.5078
 45.8956  7334.04  84.6033
 45.9376  7340.41  84.1077
 45.9796  7199.52  83.9694
 46.0216  7308.53  84.9414
 46.0636  7419.97  84.7389
 46.1056  7163.84  83.2444
 46.1476  7099.87  83.4542
 46.1896  7192.61  84.1462
 46.2316  7131.17  83.6561
 46.2736  7208.49  84.3174
 46.3156  7257.93  84.3515
 46.3576  7227.96  84.3775
 46.3996  7209.75  84.4312
 46.4416  7186.21  83.8489
 46.4836  7046.99  83.4064
 46.5256  7133.53  83.855
 46.5676  7124.56  83.9156
 46.6096  7195  84.2639
 46.6516  7200.05  83.3496
 46.6936  7149.24  83.5354
 46.7356  7233.41  84.1224
 46.7776  7142.48  84.4331
 46.8196  7063.62  83.7115
 46.8616  6920.68  82.6638
 46.9036  7040.19  83.0363
 46.9456  7021.73  82.5709
 46.9876  7047.71  82.8119
 47.0296  7039.6  83.4344
 47.0716  7062.73  83.4005
 47.1136  7049.38  83.0021
 47.1556  6997.07  82.5706
 47.1976  7121.51  83.4403
 47.2396  7038.88  83.2888
 47.2816  6971.2  82.5868
 47.3236  7078.43  83.5909
 47.3656  7017.96  83.165
 47.4076  7060.49  83.1461
 47.4496  6902.94  82.3791
 47.4916  7003.2  83.1609
 47.5336  7102.67  83.5597
 47.5756  7070.43  83.4951
 47.6176  6948.43  82.6656
 47.6596  6931.93  82.2943
 47.7016  7084.02  83.0088
 47.7436  7051.83  83.1514
 47.7856  7070.23  83.2885
 47.8276  6882.79  82.2232
 47.8696  6983.24  82.9017
 47.9116  7091.41  83.2577
 47.9536  6999.55  82.6629
 47.9956  6973.21  83.2048
 48.0376  6852.93  82.2594
 48.0796  6955.21  82.9969
 48.1216  7048.66  83.3775
 48.1636  7149.85  83.5533
 48.2056  6978.37  82.8022
 48.2476  6993.37  83.1944
 48.2896  7041.21  83.3902
 48.3316  6851.19  82.1946
 48.3736  6870.33  82.3386
 48.4156  6898.14  82.3621
 48.4576  6868.89  82.4728
 48.4996  7002.82  82.7363
 48.5416  6934.53  82.652
 48.5836  6920.89  82.2506
 48.6256  6960.28  82.6901
 48.6676  6840.18  82.4717
 48.7096  6890.22  82.0565
 48.7516  6861.15  82.0319
 48.7936  6748.32  81.4135
 48.8356  6847.55  82.0586
 48.8776  6865.38  82.7272
 48.9196  6931.33  82.5
 48.9616  6885.4  82.5977
 49.0036  6872.86  82.8679
 49.0456  6805.15  82.4372
 49.0876  6819.35  82.0769
 49.1296  6767.96  81.9257
 49.1716  6699.23  81.3823
 49.2136  6846.95  82.1891
 49.2556  6833.77  82.1569
 49.2976  6851.16  82.3291
 49.3396  6859.36  82.4245
 49.3816  6799.42  81.5112
 49.4236  6799.3  81.9301
 49.4656  6594.12  80.6935
 49.5076  6759.87  81.4605
 49.5496  6786.49  81.6794
 49.5916  6901.39  82.2882
 49.6336  6757.41  81.6271
 49.6756  6748.08  81.798
 49.7176  6802.09  82.0659
 49.7596  6790.29  81.765
 49.8016  6860.28  82.1099
 49.8436  6752.95  81.7504
 49.8856  6607.71  80.8777
 49.9276  6699.61  81.5293
 49.9696  6727.04  81.6819
 50.0116  6712.83  81.7273
 50.0536  6640.58  81.2289
 50.0956  6655.94  81.3998
 50.1376  6761.3  81.7407
 50.1796  6557.67  80.7631
 50.2216  6700.31  81.632
 50.2636  6571.07  80.4707
 50.3056  6616.08  80.914
 50.3476  6693.3  81.4074
 50.3896  6653.68  81.1376
 50.4316  6660.73  81.0177
 50.4736  6583.92  80.7646
 50.5156  6672.03  81.2892
 50.5576  6715.12  81.323
 50.5996  6607.29  80.9379
 50.6416  6556.03  80.5544
 50.6836  6623.78  81.0303
 50.7256  6733.37  81.6193
 50.7676  6729.42  81.9121
 50.8096  6589.81  80.6054
 50.8516  6558.63  80.8213
 50.8936  6569.77  80.6738
 50.9356  6690.67  81.512
 50.9776  6676.21  81.5761
 51.0196  6374.13  79.8366
 51.0616  6573.93  80.4162
 51.1036  6678.4  81.4044
 51.1456  6572.66  80.6671
 51.1876  6640.55  80.4327
 51.2296  6641.63  81.0729
 51.2716  6595.17  80.4943
 51.3136  6474.55  80.2053
 51.3556  6606.17  80.6442
 51.3976  6479.59  80.017
 51.4396  6386.59  79.7328
 51.4816  6531.55  80.494
 51.5236  6552.02  80.6993
 51.5656  6530.42  80.1805
 51.6076  6578.01  80.5543
 51.6496  6516.05  80.3586
 51.6916  6423.06  80.1307
 51.7336  6495.44  80.6699
 51.7756  6452.47  80.1117
 51.8176  6425.64  80.046
 51.8596  6479.43  80.393
 51.9016  6659.95  81.1196
 51.9436  6460.02  81.3154
 51.9856  6420.41  81.4995
 52.0276  6452.72  80.2396
 52.0696  6414.07  80.062
 52.1116  6354.35  79.8003
 52.1536  6498.15  80.5375
 52.1956  6478.37  79.9427
 52.2376  6627.35  81.0205
 52.2796  6535.9  80.2758
 52.3216  6323.73  79.6361
 52.3636  6478.09  80.1872
 52.4056  6316.29  79.0327
 52.4476  6424.42  80.0717
 52.4896  6366.38  79.7604
 52.5316  6322.31  79.5282
 52.5736  6288.42  79.0474
 52.6156  6384.32  80.022
 52.6576  6444.35  79.8491
 52.6996  6244.43  79.547
 52.7416  6437.3  80.6243
 52.7836  6361.26  80.0184
 52.8256  6513.3  80.2088
 52.8676  6266.26  79.2397
 52.9096  6345.54  79.8212
 52.9516  6332.48  80.0955
 52.9936  6335.82  80.5061
 53.0356  6218.54  78.7871
 53.0776  6225.72  79.0875
 53.1196  6149.03  78.7186
 53.1616  6188.4  79.0175
 53.2036  6179.42  78.9165
 53.2456  6215.23  79.2458
 53.2876  6277.8  79.3556
 53.3296  6241.71  79.4475
 53.3716  6233.47  79.146
 53.4136  6267.47  79.5031
 53.4556  6192.12  79.0566
 53.4976  6215.91  79.0594
 53.5396  6180.06  79.2173
 53.5816  6220.97  79.1149
 53.6236  6093.28  78.6311
 53.6656  6202.75  78.9747
 53.7076  6217.09  79.0245
 53.7496  6136.16  78.6281
 53.7916  6228.38  79.3434
 53.8336  6130.58  78.6173
 53.8756  6197.97  79.5899
 53.9176  6199.87  78.9568
 53.9596  6244.76  79.9932
 54.0016  6149.94  78.7316
 54.0436  6228.21  79.4475
 54.0856  6269.33  79.1378
 54.1276  6187.11  78.8135
 54.1696  6246.14  79.3624
 54.2116  6116.98  78.2991
 54.2536  6121.86  78.1459
 54.2956  6205.99  78.7311
 54.3376  6178.63  79.0292
 54.3796  6211.19  79.1429
 54.4216  6276.28  79.5954
 54.4636  6124.97  78.5994
 54.5056  6230.91  79.0916
 54.5476  6119.23  78.7106
 54.5896  6234.36  79.2788
 54.6316  6254.12  79.266
 54.6736  6210.26  79.0596
 54.7156  6077.7  78.2273
 54.7576  6033.02  77.9428
 54.7996  6130.76  78.7215
 54.8416  6104.35  78.5875
 54.8836  6036.13  78.2547
 54.9256  6150.23  78.7404
 54.9676  6244.09  79.2031
 55.0096  6160.09  78.7327
 55.0516  6124.25  78.7337
 55.0936  6110.15  78.2811
 55.1356  6145.67  78.5511
 55.1776  6157.46  78.8884
 55.2196  6074.61  78.1408
 55.2616  6171.28  78.9711
 55.3036  6115.94  78.7781
 55.3456  6075.92  78.6638
 55.3876  6091.56  78.5137
 55.4296  6193.81  79.1453
 55.4716  6058.64  78.3138
 55.5136  6185.04  78.8809
 55.5556  6100.71  78.4152
 55.5976  6061.76  78.2218
 55.6396  6122.72  78.4813
 55.6816  6118.22  78.41
 55.7236  6184.32  78.8721
 55.7656  6204.28  78.7582
 55.8076  6228.67  78.8992
 55.8496  5996.1  77.8305
 55.8916  6023.06  78.1005
 55.9336  6127.9  78.5992
 55.9756  6100.49  78.3077
 56.0176  6003.8  77.8364
 56.0596  6050.87  78.1251
 56.1016  6156.15  78.8058
 56.1436  6036.42  78.3027
 56.1856  6117.31  78.5668
 56.2276  6135.72  78.7415
 56.2696  6105.19  78.5175
 56.3116  6076.49  78.7319
 56.3536  6076.62  78.3946
 56.3956  5996.31  77.8651
 56.4376  6096.18  78.5451
 56.4796  6071.84  78.1889
 56.5216  6039.84  78.3537
 56.5636  6152.49  78.674
 56.6056  6016.56  78.0278
 56.6476  6116.36  78.3026
 56.6896  6084.53  78.5419
 56.7316  5979.51  77.7732
 56.7736  5999.25  77.9001
 56.8156  6006.92  77.9438
 56.8576  6063.72  78.2596
 56.8996  6063.18  78.1957
 56.9416  6048.13  78.3924
 56.9836  5956.75  77.3226
 57.0256  5988.93  77.8401
 57.0676  5989.05  77.9566
 57.1096  6096.42  78.4551
 57.1516  6060.49  78.2813
 57.1936  5982.17  77.5263
 57.2356  6089.18  78.5322
 57.2776  6056.98  78.2854
 57.3196  6030.23  78.4782
 57.3616  6034.42  78.002
 57.4036  6036.38  78.0763
 57.4456  6015.05  77.905
 57.4876  6060.88  78.0577
 57.5296  5967.7  77.7944
 57.5716  6007.72  78.0447
 57.6136  6092.79  78.4149
 57.6556  6051.39  78.2837
 57.6976  6030.8  77.9762
 57.7396  5940.28  77.7563
 57.7816  5855.82  77.5525
 57.8236  6017.56  78.415
 57.8656  5971.53  77.7745
 57.9076  5960.84  77.7303
 57.9496  5989.49  78.2632
 57.9916  5919.26  77.3246
 58.0336  6011.69  78.2042
 58.0756  6060.16  78.1214
 58.1176  5973.34  77.5883
 58.1596  5976.22  78.1595
 58.2016  6078.16  78.0569
 58.2436  6104.79  78.6411
 58.2856  6070.02  78.3359
 58.3276  6036.5  78.4906
 58.3696  6029.09  78.1906
 58.4116  6048.54  78.184
 58.4536  6033.35  77.9738
 58.4956  5982.72  77.8246
 58.5376  6130.05  78.3469
 58.5796  5944.1  77.5648
 58.6216  6090.68  78.3283
 58.6636  6091.49  78.5535
 58.7056  5985.88  77.7267
 58.7476  6133.59  79.1246
 58.7896  6030.44  78.1056
 58.8316  5986.05  77.8137
 58.8736  6064.86  78.3324
 58.9156  5951.79  77.6433
 58.9576  6108.75  78.9804
 58.9996  6100.83  78.1746
 59.0416  6243.82  79.4447
 59.0836  6099.57  78.4535
 59.1256  6077.82  79.0102
 59.1676  6011.56  78.8763
 59.2096  6103.78  78.7968
 59.2516  6227.16  79.1638
 59.2936  6006.65  78.0767
 59.3356  6081.77  78.4407
 59.3776  5935.54  77.6595
 59.4196  6034.21  78.2386
 59.4616  6118.88  78.6444
 59.5036  6025.3  78.0757
 59.5456  6295.04  79.4915
 59.5876  6200.83  79.088
 59.6296  5881.19  77.091
 59.6716  6020.65  78.0575
 59.7136  5999.73  77.9101
 59.7556  6089.12  78.6253
 59.7976  5997.59  77.7752
 59.8396  6128.17  78.5108
 59.8816  5980.51  78.1022
 59.9236  6065.91  78.3004
 59.9656  6030.52  78.3323
 60.0076  6142.63  78.4089
 60.0496  6038.07  78.2426
 60.0916  6215.03  78.7904
 60.1336  6090.19  79.107
 60.1756  6038.61  79.9554
 60.1996  0.0000000E+00  0.0000000E+00