File: docs/examples/opeando_xrd/IS17_D/Data/IS17_D/17_Db_f00064.xye
# /beamlines/bl04/projects/cycle2025-II/20250340211-lsimonelli/DATA/IS17_D/17_Db_f00064.xye : mythproc.py merge -s 0.006 -l 0.5 -f /beamlines/bl04/inhouse/ff/FlatField/ff_20Nov2024rod8mm60s_17keV.raw -b True -c true -o xye /beamlines/bl04/projects/cycle2025-II/20250340211-lsimonelli/DATA/IS17_D/17_Db_00064.dat
# IsMon = [6754971, 6754813, 6752011]  IsPos = [-1.5000, -2.4884, -3.4988]
# Wave = 0.4962  CalPath /beamlines/bl04/projects/cycle2025-II/20250340211-lsimonelli/DATA/Align/Si_Pos1_25keV_f00001.cal
# Date = 2025-09-24_11:31:59 Dt = 4.8000  Bin = 0.0060  <imon> = 6753932 +/- 1360 (Min/Max) 6752011 / 6754971
# icurr 249.6809  mocoIn 1.7038E-05  mocoOut 0.7993  i15 7.07356e+06  imon 6.75393e+06  i7 3.6667  iEMpd_timer 4.8000  iEMpd_1 3.4676E-08  iEMpd_2 7.8979E-08  iEMpd_3 1.6849E-08  iEMpd_4 4.7976E-08  iEMhp_timer 4.8000  iEMhp_1 4.8790E-06  iEMhp_2 -2.3642E-08  iEMhp_3 -2.4090E-08  iEMhp_4 -2.0739E-08
#      9776
 1.5856  43739.4  214.737
 1.6276  50247.2  226.208
 1.6696  55664.2  237.25
 1.7116  62498  251.884
 1.7536  71436.5  268.147
 1.7956  74988.6  275.419
 1.8376  71920  270.153
 1.8796  61890.2  248.771
 1.9216  51448.4  227.715
 1.9636  44284.1  210.932
 2.0056  40191.1  199.664
 2.0476  37424.9  194.783
 2.0896  36039.8  190.023
 2.1316  34927  186.167
 2.1736  33120  182.726
 2.2156  33928.1  183.457
 2.2576  32651  180.617
 2.2996  31478.6  177.995
 2.3416  31761.8  177.368
 2.3836  31120.1  175.674
 2.4256  30332.4  174.002
 2.4676  29903.4  172.522
 2.5096  29443.1  171.245
 2.5516  31217.7  180.36
 2.5936  67727.2  260.249
 2.6356  29148.7  171.529
 2.6776  27512.6  165.542
 2.7196  27125.1  164.858
 2.7616  27035.3  164.372
 2.8036  26482.8  162.853
 2.8456  26612.9  163.892
 2.8876  25656.4  160.781
 2.9296  25371.1  160.015
 2.9716  25220.8  159.033
 3.0136  24938.2  158.199
 3.0556  24968.6  158.694
 3.0976  25032.8  157.81
 3.1396  24862.5  157.972
 3.1816  24432.9  156.561
 3.2236  24332.8  156.227
 3.2656  24057  154.405
 3.3076  23783.3  154.967
 3.3496  24138.9  155.056
 3.3916  24529.8  156.124
 3.4336  25074.4  158.441
 3.4756  25477  159.644
 3.5176  26151.4  161.515
 3.5596  25510.2  162.513
 3.6016  25947.7  160.964
 3.6436  24945.6  158.924
 3.6856  24724.8  156.533
 3.7276  23859.9  154.845
 3.7696  23700  154.314
 3.8116  23286.8  153.062
 3.8536  23364.7  153.245
 3.8956  23463.5  153.388
 3.9376  23345.5  153.267
 3.9796  23082.7  151.9
 4.0216  23207.9  151.344
 4.0636  22992.4  152.105
 4.1056  22966.5  151.661
 4.1476  23490.3  153.694
 4.1896  23426.2  153.339
 4.2316  23604.5  153.768
 4.2736  24016.3  154.898
 4.3156  24108.2  155.426
 4.3576  24938  157.978
 4.3996  25253.6  159.25
 4.4416  25814.9  160.594
 4.4836  26524.6  162.944
 4.5256  26660.9  163.969
 4.5676  26493.9  163.714
 4.6096  27085.3  164.553
 4.6516  27512.7  165.179
 4.6936  27483.6  165.921
 4.7356  27961.2  167.164
 4.7776  27553.5  165.781
 4.8196  27471.8  166.172
 4.8616  26887  163.893
 4.9036  26760.1  163.234
 4.9456  26773.3  163.929
 4.9876  25967.5  161.355
 5.0296  26245.7  162.05
 5.0716  25992.7  162.017
 5.1136  26295.7  162.678
 5.1556  26457.2  162.643
 5.1976  29651.4  172.154
 5.2396  27107.1  164.31
 5.2816  26920.6  164.207
 5.3236  26978.8  164.085
 5.3656  26554.8  163.72
 5.4076  26260.6  162.947
 5.4496  26320.3  162.636
 5.4916  26487.4  162.904
 5.5336  26322.8  162.407
 5.5756  26554.9  163.123
 5.6176  26507.7  162.429
 5.6596  26827.5  164.229
 5.7016  26828  163.658
 5.7436  26915.4  164.203
 5.7856  26913.2  164.263
 5.8276  27155.7  164.72
 5.8696  27350  165.358
 5.9116  27317.1  165.978
 5.9536  27518.5  166.321
 5.9956  27627.5  166.051
 6.0376  27861.3  167.374
 6.0796  28199.6  168.218
 6.1216  27874.7  167.448
 6.1636  28226.1  167.556
 6.2056  27986.9  167.512
 6.2476  28523.7  168.792
 6.2896  28656.3  169.062
 6.3316  28610.4  169.075
 6.3736  28781.5  169.491
 6.4156  28619.5  168.96
 6.4576  28990.4  169.614
 6.4996  28747.6  169.375
 6.5416  28995.1  170.228
 6.5836  29026.4  170.563
 6.6256  29086.5  170.292
 6.6676  29527.9  171.153
 6.7096  29696.1  172.491
 6.7516  29764.2  172.357
 6.7936  30380.3  173.528
 6.8356  30631.7  174.345
 6.8776  30503.6  174.785
 6.9196  30636.8  175.556
 6.9616  31049.4  176.181
 7.0036  31301.9  176.556
 7.0456  31403.6  176.143
 7.0876  31414.5  177.757
 7.1296  31159.4  176.275
 7.1716  31232.3  176.024
 7.2136  30917.5  174.906
 7.2556  31197.4  175.861
 7.2976  31188.2  176.321
 7.3396  31129.6  176.375
 7.3816  31078  176.447
 7.4236  31421.1  176.715
 7.4656  31789.4  177.205
 7.5076  31929.5  177.744
 7.5496  31685.5  177.613
 7.5916  31827.2  178.044
 7.6336  32306.6  179.27
 7.6756  32366.6  179.282
 7.7176  32953.9  181.223
 7.7596  32379.6  180.85
 7.8016  34824  189.84
 7.8436  33010.1  181.515
 7.8856  33300.2  181.923
 7.9276  33635.1  183.233
 7.9696  33775.6  183.912
 8.0116  34870.4  185.429
 8.0536  35100.4  186.29
 8.0956  35683.2  189.001
 8.1376  35531.3  188.081
 8.1796  35701.4  189.049
 8.2216  36729.2  190.508
 8.2636  37004.5  191.474
 8.3056  36600.1  191.197
 8.3476  37603.6  193.114
 8.3896  37103.7  191.913
 8.4316  36879.7  191.496
 8.4736  37141  191.645
 8.5156  36725.6  190.844
 8.5576  36393.8  190.936
 8.5996  36417.7  189.89
 8.6416  36384.1  191.045
 8.6836  35998.2  189.878
 8.7256  36746.4  191.278
 8.7676  37402.8  195.921
 8.8096  37967.1  194.65
 8.8516  37350.5  192.687
 8.8936  37067.5  191.856
 8.9356  36696.2  191.216
 8.9776  36642.3  191.164
 9.0196  36819.6  191.29
 9.0616  36762.5  190.647
 9.1036  36926.6  192.257
 9.1456  35948.7  189.022
 9.1876  35706  188.331
 9.2296  35408.5  186.993
 9.2716  35365.7  186.915
 9.3136  35452.2  187.135
 9.3556  35562.6  187.403
 9.3976  34740  185.724
 9.4396  34629.9  185.345
 9.4816  34843.5  185.769
 9.5236  34304.6  184.235
 9.5656  33848.6  183.358
 9.6076  33179.4  182.064
 9.6496  33409.4  182.568
 9.6916  33100.2  181.706
 9.7336  33477  182.499
 9.7756  33266.8  183.044
 9.8176  33087.2  182.175
 9.8596  33096  180.641
 9.9016  32292.2  178.434
 9.9436  32260.1  178.066
 9.9856  31996.1  177.795
 10.0276  31965.5  178.777
 10.0696  32248.8  178.612
 10.1116  31083.7  175.6
 10.1536  31208.8  175.622
 10.1956  30569.2  173.927
 10.2376  30410.6  172.983
 10.2796  30198.2  172.478
 10.3216  29818.2  171.527
 10.3636  29820.6  171.718
 10.4056  30352.7  173.651
 10.4476  30680.5  174.189
 10.4896  31972.8  177.251
 10.5316  31004.4  174.935
 10.5736  29145.5  170.367
 10.6156  29192.1  170.253
 10.6576  30142.3  171.54
 10.6996  28843  168.508
 10.7416  28092.3  166.513
 10.7836  28038.6  167.03
 10.8256  27367.6  165.458
 10.8676  27493.4  165.373
 10.9096  27323.2  164.9
 10.9516  27127.3  163.249
 10.9936  27252.6  163.838
 11.0356  27062.9  163.866
 11.0776  27431.4  164.306
 11.1196  26858.8  163.357
 11.1616  26075.5  160.628
 11.2036  26641.2  162.208
 11.2456  26923.6  163.781
 11.2876  26494.2  162.198
 11.3296  25921.1  160.347
 11.3716  26300.1  161.249
 11.4136  26646  163.15
 11.4556  26709  163.011
 11.4976  27443.7  164.203
 11.5396  26960.4  162.917
 11.5816  26372.1  161.556
 11.6236  25490.1  159.071
 11.6656  25840.9  159.313
 11.7076  25012.3  157.569
 11.7496  24915.9  161.252
 11.7916  25333.5  157.825
 11.8336  24430.4  155.891
 11.8756  24553.1  155.823
 11.9176  24506.8  155.345
 11.9596  24573.7  155.721
 12.0016  24259.5  155.49
 12.0436  24270.6  154.985
 12.0856  23898.1  154.29
 12.1276  24012.8  154.609
 12.1696  24098.2  154.001
 12.2116  23906.3  153.391
 12.2536  24584  156.347
 12.2956  23906.2  153.546
 12.3376  24158.7  154.56
 12.3796  23805.2  153.905
 12.4216  23893.9  153.39
 12.4636  24008.9  154.697
 12.5056  23520.8  152.391
 12.5476  23684.7  152.435
 12.5896  23528.4  152.574
 12.6316  23600.7  152.948
 12.6736  23553.5  153.292
 12.7156  23738.4  153.72
 12.7576  23485.8  153.162
 12.7996  23963.4  153.344
 12.8416  23868.1  154.101
 12.8836  24120.2  154.742
 12.9256  24274.4  154.264
 12.9676  24136  154.233
 13.0096  24071.9  155.135
 13.0516  24180.7  154.516
 13.0936  24304.3  155.041
 13.1356  24381.8  154.53
 13.1776  24229.2  155.064
 13.2196  24173.1  154.53
 13.2616  23733  153.43
 13.3036  24253.8  155.231
 13.3456  24007.8  154.629
 13.3876  24600.6  155.789
 13.4296  24033.3  154.15
 13.4716  24318  154.687
 13.5136  24232.8  154.542
 13.5556  24178.3  154.991
 13.5976  24291.5  155.534
 13.6396  24308.9  154.95
 13.6816  24458.6  155.77
 13.7236  24861.7  156.773
 13.7656  26345.5  161.808
 13.8076  27143.2  162.924
 13.8496  25729.5  159.475
 13.8916  24646.9  157.026
 13.9336  23756.6  153.426
 13.9756  23831.2  153.044
 14.0176  23559.3  152.855
 14.0596  23790.1  153.529
 14.1016  23540.2  153.139
 14.1436  23406.1  151.836
 14.1856  22943.1  150.624
 14.2276  23037.3  151.407
 14.2696  23035.7  151.258
 14.3116  22342.4  148.88
 14.3536  22119  148.289
 14.3956  22072.9  147.863
 14.4376  22514.4  149.123
 14.4796  22210  148.106
 14.5216  21848.2  147.685
 14.5636  21917.3  147.485
 14.6056  21944.7  147.138
 14.6476  21771.9  145.805
 14.6896  21480.9  145.37
 14.7316  21065.4  144.986
 14.7736  20728.3  142.969
 14.8156  20830.1  143.346
 14.8576  20716.5  142.814
 14.8996  20434.2  143.022
 14.9416  20031.2  141.611
 14.9836  20010.7  141.538
 15.0256  19418.5  138.355
 15.0676  19345.2  138.401
 15.1096  19287.3  137.937
 15.1516  18955.5  137.289
 15.1936  18859.7  136.383
 15.2356  18760.5  136.299
 15.2776  18634  135.434
 15.3196  18441.9  135.714
 15.3616  18408.4  135.358
 15.4036  18203.2  134.458
 15.4456  18677.6  135.852
 15.4876  18239.8  133.937
 15.5296  18182.9  134.005
 15.5716  18066  133.187
 15.6136  17835.9  132.656
 15.6556  18312.7  133.659
 15.6976  17952.2  132.625
 15.7396  17549.5  131.522
 15.7816  17549.6  131.035
 15.8236  17160.1  130.255
 15.8656  17341.2  130.734
 15.9076  17127.9  129.752
 15.9496  18033.8  135.959
 15.9916  17392.3  133.932
 16.0336  17708.8  131.987
 16.0756  17444.7  131.341
 16.1176  17115.5  130.008
 16.1596  16767.3  130.012
 16.2016  16756.2  128.74
 16.2436  16795  129.258
 16.2856  16669  128.289
 16.3276  16210.2  126.953
 16.3696  16584.9  128.233
 16.4116  16607  128.766
 16.4536  16788  129.274
 16.4956  17006.5  129.836
 16.5376  16413.9  127.732
 16.5796  16424.9  127.15
 16.6216  16376.2  127.239
 16.6636  16216.8  126.808
 16.7056  16463.7  127.622
 16.7476  16409.1  126.938
 16.7896  16476.8  127.941
 16.8316  16321.6  127.325
 16.8736  16586.5  128.597
 16.9156  16454.6  128.425
 16.9576  16034  127.548
 16.9996  16004.5  127.919
 17.0416  16129.9  126.787
 17.0836  16052.1  126.247
 17.1256  15905.4  125.671
 17.1676  16121.3  126.484
 17.2096  15918.9  125.585
 17.2516  16099.5  126.38
 17.2936  15668.9  124.734
 17.3356  15527.6  124.155
 17.3776  15461.7  124.078
 17.4196  15424.1  123.631
 17.4616  15487.7  123.788
 17.5036  15369.3  123.684
 17.5456  15048.3  123.018
 17.5876  14946.6  121.651
 17.6296  15285.2  122.838
 17.6716  15197.9  123.083
 17.7136  15409  124.069
 17.7556  15181.1  123.445
 17.7976  14932.4  122.162
 17.8396  14845  121.307
 17.8816  14590.1  120.819
 17.9236  14694.8  121.048
 17.9656  14652.1  121.396
 18.0076  15020.5  122.497
 18.0496  15111.1  122.001
 18.0916  16784.2  129.166
 18.1336  15711.8  125.063
 18.1756  15053  121.959
 18.2176  15049.4  122.158
 18.2596  14450.8  119.436
 18.3016  14857.3  121.363
 18.3436  15088.7  122.307
 18.3856  14611.2  120.492
 18.4276  14434.5  119.448
 18.4696  14332.2  119.117
 18.5116  14582.4  120.417
 18.5536  14235.6  119.35
 18.5956  14197.9  118.744
 18.6376  14169.8  119.019
 18.6796  14287.5  118.85
 18.7216  14387.7  119.737
 18.7636  14184.4  118.9
 18.8056  14034  118.198
 18.8476  13711  117.443
 18.8896  14100.6  118.437
 18.9316  13980  117.918
 18.9736  13938.3  117.441
 19.0156  14058.9  118.357
 19.0576  14216.5  117.866
 19.0996  14051.3  117.899
 19.1416  14016.2  118.135
 19.1836  13810.9  116.878
 19.2256  13723.7  116.726
 19.2676  13862.3  117.397
 19.3096  13697.3  116.941
 19.3516  13887.5  117.522
 19.3936  13716.9  116.882
 19.4356  13903.6  117.555
 19.4776  13807.6  117.24
 19.5196  13701.8  116.649
 19.5616  13708.3  116.925
 19.6036  13715.6  116.46
 19.6456  13806.1  116.958
 19.6876  13966.8  117.278
 19.7296  14004.1  117.894
 19.7716  13776.7  117.106
 19.8136  14326.4  119.613
 19.8556  14498.5  119.814
 19.8976  14520.8  119.963
 19.9396  14597.4  119.859
 19.9816  14624.8  120.228
 20.0236  14679.6  120.631
 20.0656  14122.5  118.337
 20.1076  13852.8  117.669
 20.1496  13695  116.997
 20.1916  13720  116.583
 20.2336  13655.9  116.27
 20.2756  13460.9  115.865
 20.3176  13403.1  115.371
 20.3596  13265.8  114.768
 20.4016  13332  114.854
 20.4436  13144.6  114.598
 20.4856  13299.6  115.057
 20.5276  13142.1  114.84
 20.5696  13127  114.335
 20.6116  13149.4  114.603
 20.6536  13072.8  113.779
 20.6956  13026.8  113.713
 20.7376  12963.2  113.649
 20.7796  12958.1  113.309
 20.8216  13097.3  113.635
 20.8636  13206  114.482
 20.9056  13422  115.352
 20.9476  13095.1  113.782
 20.9896  13518.8  115.476
 21.0316  13085.4  113.513
 21.0736  13084.8  114.024
 21.1156  13134.3  114.405
 21.1576  13135.6  114.444
 21.1996  12890.6  113.361
 21.2416  12900  113.227
 21.2836  13007.7  113.672
 21.3256  12874.8  113.164
 21.3676  12692.8  111.897
 21.4096  12800.4  112.753
 21.4516  12707  112.154
 21.4936  12592.7  111.914
 21.5356  12832.7  112.926
 21.5776  12832.5  112.757
 21.6196  12783.4  112.581
 21.6616  12693.9  112.271
 21.7036  12618.3  111.706
 21.7456  12606  111.726
 21.7876  12518.2  111.101
 21.8296  12584.3  111.243
 21.8716  12690.7  111.939
 21.9136  12635.7  111.9
 21.9556  12633.1  111.565
 21.9976  12507.1  111.038
 22.0396  12540.5  111.437
 22.0816  12455.8  111.587
 22.1236  12695.9  112.114
 22.1656  12518.1  111.472
 22.2076  12242.7  109.708
 22.2496  12316.8  110.059
 22.2916  12437.1  110.486
 22.3336  12354.6  110.831
 22.3756  12185.3  109.795
 22.4176  12173.9  109.603
 22.4596  12061.1  109.677
 22.5016  12171.4  109.681
 22.5436  12279.1  110.049
 22.5856  12407.2  110.86
 22.6276  12572.4  111.724
 22.6696  12394.2  111.289
 22.7116  12384.2  110.755
 22.7536  12207.5  109.942
 22.7956  12313.7  109.751
 22.8376  12114.6  109.384
 22.8796  12111  109.168
 22.9216  12353.5  110.799
 22.9636  12186.8  109.211
 23.0056  12203.1  109.404
 23.0476  12336.7  110.58
 23.0896  12622.6  111.23
 23.1316  12357.5  110.489
 23.1736  12349.6  113.365
 23.2156  12541  111.635
 23.2576  12614  112.083
 23.2996  12455.8  111.164
 23.3416  12480.5  111.787
 23.3836  12502.9  111.124
 23.4256  12653.3  111.913
 23.4676  12379.8  110.397
 23.5096  12380.7  111.05
 23.5516  12508.7  110.928
 23.5936  12792  113.096
 23.6356  12666.7  112.203
 23.6776  12469.6  111.539
 23.7196  12421  111.107
 23.7616  12634.1  111.769
 23.8036  12537.8  111.386
 23.8456  12445.3  110.54
 23.8876  12376.5  110.573
 23.9296  12245.1  110.471
 23.9716  12284.1  109.86
 24.0136  12429.6  111.415
 24.0556  12175.2  109.979
 24.0976  12147.9  109.681
 24.1396  11847  110.886
 24.1816  12121.1  110.581
 24.2236  12067.4  109.957
 24.2656  11998.1  109.121
 24.3076  12215.7  110.381
 24.3496  11995.9  109.262
 24.3916  12052.6  109.572
 24.4336  12129.3  110.111
 24.4756  11963.9  109.255
 24.5176  11851.9  108.372
 24.5596  11746.5  108.207
 24.6016  11502.4  107.163
 24.6436  11957.5  108.777
 24.6856  11636.8  107.054
 24.7276  11608.5  107.246
 24.7696  11620.9  107.41
 24.8116  11526.8  107.155
 24.8536  11425.1  106.684
 24.8956  11324.5  105.951
 24.9376  11364.8  106.309
 24.9796  11403.2  106.61
 25.0216  11495.9  107.155
 25.0636  11519.7  106.916
 25.1056  11035.6  105.332
 25.1476  11252.5  107.994
 25.1896  11073  105.658
 25.2316  11081.6  104.99
 25.2736  11058.8  104.529
 25.3156  11150.2  105.038
 25.3576  10944.8  104.494
 25.3996  11043.6  104.952
 25.4416  11069.9  105.05
 25.4836  10904.1  104.775
 25.5256  11117  105.158
 25.5676  10996.7  104.318
 25.6096  10877.3  104.317
 25.6516  10888.8  103.883
 25.6936  11041.7  104.924
 25.7356  10766.7  103.743
 25.7776  10960.9  104.354
 25.8196  10814.1  103.815
 25.8616  10806.4  103.712
 25.9036  10985.3  104.018
 25.9456  10840.3  103.923
 25.9876  10883.5  104.05
 26.0296  10907.1  103.822
 26.0716  10897.3  104.197
 26.1136  11041.1  104.819
 26.1556  10937.2  103.715
 26.1976  10723.5  103.612
 26.2396  10819.8  103.24
 26.2816  10769.8  103.601
 26.3236  10763.7  103.719
 26.3656  10856.4  103.894
 26.4076  10676.3  103.236
 26.4496  10781.7  103.329
 26.4916  11055.8  104.535
 26.5336  11346.2  106.238
 26.5756  11624.4  107.423
 26.6176  11012.3  104.578
 26.6596  10719.7  103.475
 26.7016  10708.6  103.181
 26.7436  10688.8  103.227
 26.7856  10492.3  102.267
 26.8276  10576.2  102.637
 26.8696  10500.1  102.134
 26.9116  10476.2  101.947
 26.9536  10334.8  101.314
 26.9956  10267.9  101.023
 27.0376  10412.5  101.95
 27.0796  10534.3  102.266
 27.1216  10443.5  101.888
 27.1636  10192.3  100.83
 27.2056  10359.4  101.533
 27.2476  10278.6  101.124
 27.2896  10288  101.294
 27.3316  10228.9  100.719
 27.3736  10213.5  100.916
 27.4156  10342.3  101.382
 27.4576  10293.1  101.367
 27.4996  10220.4  100.614
 27.5416  10242.9  101.026
 27.5836  10251.7  100.91
 27.6256  10177.4  100.718
 27.6676  10128.3  100.467
 27.7096  10288.7  101.146
 27.7516  10268.2  101.193
 27.7936  10655.1  103.224
 27.8356  10402.9  101.623
 27.8776  10489.5  102.086
 27.9196  10100.2  100.043
 27.9616  10234.5  100.901
 28.0036  10098.2  100.191
 28.0456  9991.67  99.7996
 28.0876  9923.64  99.5453
 28.1296  10045.8  99.9891
 28.1716  10128.5  100.42
 28.2136  9981.11  99.6507
 28.2556  9971.98  99.7169
 28.2976  9840.18  99.0541
 28.3396  9917.57  99.2064
 28.3816  10044.8  99.8432
 28.4236  9964.65  99.5989
 28.4656  9863.9  99.1387
 28.5076  9873.36  98.817
 28.5496  9795.35  98.6745
 28.5916  9876.88  98.906
 28.6336  9783.93  98.7775
 28.6756  9792.82  98.0319
 28.7176  9812.09  98.6809
 28.7596  9689.03  97.9553
 28.8016  9659.53  97.837
 28.8436  9760.33  98.5849
 28.8856  9734.98  98.3128
 28.9276  9720.5  98.4884
 28.9696  9550.28  97.2794
 29.0116  9563.86  97.5345
 29.0536  9549.58  97.6679
 29.0956  9661.73  97.9388
 29.1376  9683.27  98.0165
 29.1796  9619.62  97.7461
 29.2216  9598.85  97.4862
 29.2636  9706.13  98.0953
 29.3056  9694.76  97.8227
 29.3476  9646.83  98.1082
 29.3896  9717.29  98.5872
 29.4316  9365.39  96.1269
 29.4736  9339.62  96.0612
 29.5156  9396.88  96.2668
 29.5576  9385.67  96.9425
 29.5996  9417.29  96.3764
 29.6416  9291.44  95.842
 29.6836  9224.74  95.432
 29.7256  9299.21  96.3713
 29.7676  9310.82  96.1025
 29.8096  9190.95  95.4218
 29.8516  9107.96  95.3168
 29.8936  9184.8  95.8065
 29.9356  9361.4  96.4815
 29.9776  9254.4  96.0791
 30.0196  9259.54  95.5019
 30.0616  9227.15  95.7042
 30.1036  9265.67  95.7271
 30.1456  9170.09  95.4658
 30.1876  9097.01  95.0601
 30.2296  9135.19  95.2166
 30.2716  9369.6  96.0659
 30.3136  9201.33  96.0417
 30.3556  9401.41  97.083
 30.3976  9349.57  98.284
 30.4396  9645.19  97.1816
 30.4816  9715.97  97.1475
 30.5236  9542.51  96.2609
 30.5656  9482.21  96.624
 30.6076  9293.03  95.4262
 30.6496  9650.48  97.3012
 30.6916  9335.06  95.7823
 30.7336  9314.02  95.8324
 30.7756  9307.38  95.873
 30.8176  9307.19  95.7951
 30.8596  9393.33  95.9896
 30.9016  9359.79  95.6972
 30.9436  9386.61  96.0619
 30.9856  9549.03  96.9988
 31.0276  9398.94  95.8714
 31.0696  9239.85  95.6114
 31.1116  9217.43  95.4627
 31.1536  9256.4  95.5514
 31.1956  9256.15  95.6181
 31.2376  9111.9  94.9188
 31.2796  9114.43  94.4696
 31.3216  9281.35  95.2386
 31.3636  9218.73  95.6201
 31.4056  9268.97  97.1891
 31.4476  9332.88  95.4236
 31.4896  9290.26  95.7056
 31.5316  9287.36  95.0985
 31.5736  9613.61  96.5805
 31.6156  9490.38  95.9676
 31.6576  9481.18  95.9936
 31.6996  9446.79  95.4901
 31.7416  9276.43  95.5663
 31.7836  9362.5  95.1524
 31.8256  9409.11  95.6524
 31.8676  9350.09  95.3538
 31.9096  9185.21  94.7331
 31.9516  9119.91  94.6978
 31.9936  9027.68  94.0476
 32.0356  9238.73  95.1876
 32.0776  9276.62  95.2832
 32.1196  9321.19  95.5251
 32.1616  9316.85  95.0417
 32.2036  9223.58  95.0766
 32.2456  9084.41  94.7304
 32.2876  9113.78  94.3821
 32.3296  9166.58  94.6197
 32.3716  8946.58  93.5967
 32.4136  8944.82  93.7927
 32.4556  9127.5  94.1252
 32.4976  9040.81  93.6342
 32.5396  8861.64  92.7122
 32.5816  9005.63  93.5927
 32.6236  8912.81  93.1662
 32.6656  9049.44  94.433
 32.7076  8848.18  93.0343
 32.7496  8826.89  92.5927
 32.7916  8898.6  92.9308
 32.8336  8897.32  93.0167
 32.8756  9056.38  93.5631
 32.9176  8703.32  92.2067
 32.9596  8938.92  93.5144
 33.0016  8911.81  93.1518
 33.0436  8870.5  93.1182
 33.0856  8748.11  92.5551
 33.1276  8755.79  92.3268
 33.1696  8864.13  92.7237
 33.2116  8843.21  92.8495
 33.2536  8935.02  93.3196
 33.2956  8742.72  92.3959
 33.3376  8729.3  92.1523
 33.3796  8813.96  92.7341
 33.4216  8744.68  91.9655
 33.4636  8835.75  92.5862
 33.5056  8614.72  91.6661
 33.5476  8720.78  92.2068
 33.5896  8866.15  92.7662
 33.6316  8690.09  92.1429
 33.6736  8619.73  92.0218
 33.7156  8595.37  91.918
 33.7576  8711.17  92.1765
 33.7996  8769.96  92.2568
 33.8416  8590.61  91.4891
 33.8836  8545.65  91.0268
 33.9256  8771.48  92.2754
 33.9676  8690.21  91.7355
 34.0096  8648.48  91.8344
 34.0516  8631.03  91.3818
 34.0936  8558.99  91.2745
 34.1356  8613.01  91.302
 34.1776  8569.99  91.0747
 34.2196  8448.52  90.607
 34.2616  8470.56  90.8621
 34.3036  8547.41  91.5163
 34.3456  8564.12  91.3514
 34.3876  8647.75  91.8662
 34.4296  8586.74  91.1331
 34.4716  8693.02  91.8545
 34.5136  8600.47  91.5574
 34.5556  8428.43  90.8939
 34.5976  8620.24  91.7601
 34.6396  8661.57  91.6625
 34.6816  8636.78  91.6358
 34.7236  8554.03  90.9836
 34.7656  8561  91.2245
 34.8076  8492.57  91.1877
 34.8496  8382.48  90.4455
 34.8916  8542.97  91.1723
 34.9336  8569.86  91.296
 34.9756  8525.22  90.9876
 35.0176  8465.63  91.1842
 35.0596  8629.19  91.8761
 35.1016  8599.57  91.4815
 35.1436  8658.97  91.4799
 35.1856  8462.66  90.558
 35.2276  8458.48  90.7167
 35.2696  8526.23  91.2591
 35.3116  8401.06  90.6972
 35.3536  8563.89  91.303
 35.3956  8487.14  90.5762
 35.4376  8545.62  91.4527
 35.4796  8447.1  90.97
 35.5216  8448.88  90.9445
 35.5636  8258.3  90.6474
 35.6056  8370.8  90.2818
 35.6476  8421.99  90.4628
 35.6896  8471.96  90.8157
 35.7316  8330.95  90.0328
 35.7736  8310  90.1043
 35.8156  8374.2  90.4538
 35.8576  8375.78  90.7102
 35.8996  8373.88  90.6743
 35.9416  8390.48  90.2657
 35.9836  8251.74  89.9779
 36.0256  8436.33  90.8826
 36.0676  8449.05  90.6896
 36.1096  8434.14  90.7576
 36.1516  8381.69  90.361
 36.1936  8388.95  90.2345
 36.2356  8416.78  91.0503
 36.2776  8453.66  90.7156
 36.3196  8238.33  89.2397
 36.3616  8393.19  90.2066
 36.4036  8141.44  88.9053
 36.4456  8365.38  90.3235
 36.4876  8146.8  89.0804
 36.5296  8276.3  89.816
 36.5716  8257.32  90.4942
 36.6136  8280.89  89.4126
 36.6556  8199.69  89.1814
 36.6976  8042.02  88.8005
 36.7396  8118.92  88.9551
 36.7816  8096.13  89.209
 36.8236  8124.75  89.2864
 36.8656  7934  88.3074
 36.9076  7986.51  88.4738
 36.9496  7912.16  88.057
 36.9916  7921.4  87.7348
 37.0336  8106.41  89.0756
 37.0756  8060.61  88.6073
 37.1176  7998.21  88.5365
 37.1596  7991.58  88.507
 37.2016  7822.75  87.7846
 37.2436  8040.43  88.3157
 37.2856  8030.22  88.513
 37.3276  8080.9  88.1547
 37.3696  7902.27  88.0429
 37.4116  7854.83  87.6861
 37.4536  7920.4  87.9181
 37.4956  7924.66  87.9953
 37.5376  8007.48  90.024
 37.5796  8040.04  90.1246
 37.6216  7984.51  88.1022
 37.6636  8122.12  88.7375
 37.7056  8186.72  89.286
 37.7476  8292.02  89.3956
 37.7896  7856.36  87.5255
 37.8316  8020.63  88.5774
 37.8736  8130.15  88.7206
 37.9156  7918.2  87.5491
 37.9576  8250.64  89.2751
 37.9996  7884.54  86.9854
 38.0416  7893.86  87.8362
 38.0836  8179.87  89.3179
 38.1256  8025.75  88.4448
 38.1676  7852.61  87.5954
 38.2096  8102.42  88.5964
 38.2516  7963.99  88.0639
 38.2936  8071.47  88.4426
 38.3356  8032.63  88.1681
 38.3776  7913.15  87.7455
 38.4196  7927.2  87.6968
 38.4616  7976.37  88.2071
 38.5036  7978.55  88.0623
 38.5456  7888.6  88.3829
 38.5876  7871.4  88.3127
 38.6296  7877.87  87.3085
 38.6716  7948.61  87.5087
 38.7136  7891.12  87.1422
 38.7556  7927.14  87.8462
 38.7976  8017.2  88.2691
 38.8396  7794.83  87.4993
 38.8816  7751.79  87.0488
 38.9236  7965.67  88.0402
 38.9656  7893.81  87.5469
 39.0076  8092.74  88.0305
 39.0496  8080.36  88.5335
 39.0916  8001.89  87.7504
 39.1336  7936.66  87.7961
 39.1756  7921.94  87.7776
 39.2176  7923.52  88.3191
 39.2596  7956.32  88.4316
 39.3016  7900.98  87.7087
 39.3436  7871.87  87.9554
 39.3856  8000.8  88.1007
 39.4276  7985.42  88.5405
 39.4696  7869.02  87.5134
 39.5116  7962.52  88.546
 39.5536  7861.73  88.4047
 39.5956  7895.68  87.7058
 39.6376  7878.06  87.6147
 39.6796  7847.77  87.1875
 39.7216  7833.64  87.212
 39.7636  7868.37  87.9655
 39.8056  7938.7  88.1413
 39.8476  7752.02  87.3473
 39.8896  7899.6  87.8068
 39.9316  7867.44  87.8777
 39.9736  7864.91  87.4426
 40.0156  7783.9  86.8199
 40.0576  7817.97  87.3586
 40.0996  7922.25  87.1306
 40.1416  7951.35  88.0784
 40.1836  7928.88  87.8474
 40.2256  7894.66  87.6869
 40.2676  7788.78  87.2816
 40.3096  7901.43  87.772
 40.3516  8031.74  88.5985
 40.3936  7947.36  87.6912
 40.4356  7845.72  87.3254
 40.4776  7963.14  88.2182
 40.5196  7911.82  88.2272
 40.5616  8011.36  88.4198
 40.6036  7853.23  87.7988
 40.6456  7832.05  87.2919
 40.6876  7914.3  87.7372
 40.7296  7881.1  87.6882
 40.7716  7906.27  87.9422
 40.8136  7796.74  87.28
 40.8556  8019.58  88.6562
 40.8976  7880.57  87.8059
 40.9396  7873.82  88.109
 40.9816  7875.14  87.4157
 41.0236  7868.99  87.174
 41.0656  7993.41  88.3873
 41.1076  7889.85  87.5897
 41.1496  7923.71  87.6841
 41.1916  7880.76  87.7638
 41.2336  7956.7  88.1815
 41.2756  7918.36  87.5761
 41.3176  8026.6  88.7861
 41.3596  7986.54  88.299
 41.4016  7812.05  87.5935
 41.4436  7975.31  88.2836
 41.4856  7792.5  87.4346
 41.5276  7797.95  87.4769
 41.5696  7843.76  87.3619
 41.6116  7908.71  88.1123
 41.6536  7869.2  87.7296
 41.6956  7998.33  88.457
 41.7376  7837.2  87.652
 41.7796  7789.91  87.2819
 41.8216  7859.89  87.9008
 41.8636  7843.7  87.7535
 41.9056  7727.57  86.8944
 41.9476  7859.05  87.8632
 41.9896  7980.72  88.2039
 42.0316  7953.29  88.1446
 42.0736  7969.6  88.3624
 42.1156  7848.26  87.4889
 42.1576  7834.11  87.5257
 42.1996  7888.21  87.9526
 42.2416  7801.25  87.0634
 42.2836  7814.14  87.2538
 42.3256  7808.96  87.3279
 42.3676  7946.11  87.8736
 42.4096  7935.97  87.8049
 42.4516  8025.5  88.3789
 42.4936  7914.52  87.8421
 42.5356  7753.57  87.0845
 42.5776  7807.73  87.3278
 42.6196  7843.44  87.5758
 42.6616  7637.4  86.592
 42.7036  7819.21  86.9964
 42.7456  7836.64  87.4412
 42.7876  7834.97  87.5295
 42.8296  7785.72  87.0919
 42.8716  7689.16  86.7134
 42.9136  7661.18  86.3085
 42.9556  7793.96  87.2261
 42.9976  7735.25  86.8628
 43.0396  7807.92  87.002
 43.0816  7668.96  86.6051
 43.1236  7706.59  86.8573
 43.1656  7751.58  86.9487
 43.2076  7741.35  87.0031
 43.2496  7706.73  86.6248
 43.2916  7733.16  87.1313
 43.3336  7653.3  86.5078
 43.3756  7766.32  86.9079
 43.4176  7643.92  86.3074
 43.4596  7675.11  86.3318
 43.5016  7647.35  86.5706
 43.5436  7726.35  86.9268
 43.5856  7671.15  86.6545
 43.6276  7624.23  86.2733
 43.6696  7645.74  86.6555
 43.7116  7762.97  86.8126
 43.7536  7726.79  87.1012
 43.7956  7634.51  87.7691
 43.8376  7486  85.4684
 43.8796  7569.93  86.0336
 43.9216  7508.82  85.6043
 43.9636  7500.3  85.6682
 44.0056  7609.41  86.5135
 44.0476  7511.76  85.5947
 44.0896  7283.51  84.6174
 44.1316  7552.2  85.6891
 44.1736  7400.82  84.9419
 44.2156  7546.22  85.633
 44.2576  7453.21  85.4257
 44.2996  7549.6  85.9467
 44.3416  7596.2  85.9761
 44.3836  7334.2  84.8058
 44.4256  7418.25  84.9325
 44.4676  7269.5  84.231
 44.5096  7477.47  85.5676
 44.5516  7390.11  85.0322
 44.5936  7360.06  84.815
 44.6356  7389.26  84.7164
 44.6776  7517.5  85.7677
 44.7196  7439.16  85.6311
 44.7616  7441.57  86.9585
 44.8036  7534.04  86.1276
 44.8456  7763.17  87.4214
 44.8876  7592.26  86.3007
 44.9296  7687.22  86.283
 44.9716  7680.71  86.6671
 45.0136  7747.69  86.9998
 45.0556  7664.17  86.6158
 45.0976  7562.7  86.0765
 45.1396  7502.65  85.4946
 45.1816  7478.31  85.2971
 45.2236  7570.88  85.7352
 45.2656  7518.06  85.9289
 45.3076  7514.33  85.6789
 45.3496  7424.98  85.4962
 45.3916  7588.37  86.6963
 45.4336  7604.49  86.6237
 45.4756  7501.73  85.8812
 45.5176  7615.44  86.1514
 45.5596  7697.47  86.7484
 45.6016  7462.96  85.8347
 45.6436  7482.38  85.1162
 45.6856  7484.92  85.7956
 45.7276  7495.54  87.1693
 45.7696  7515.09  86.966
 45.8116  7432.23  85.9015
 45.8536  7399.99  85.6172
 45.8956  7519.96  85.6537
 45.9376  7426.01  84.5806
 45.9796  7441.07  85.3523
 46.0216  7595.62  86.5709
 46.0636  7683.14  86.2039
 46.1056  7497.01  85.1447
 46.1476  7436.59  85.3968
 46.1896  7485.77  85.8221
 46.2316  7461.39  85.5563
 46.2736  7484.04  85.8948
 46.3156  7452.45  85.4612
 46.3576  7444.4  85.6205
 46.3996  7434.3  85.7163
 46.4416  7518.6  85.7496
 46.4836  7396.43  85.4281
 46.5256  7592.65  86.4968
 46.5676  7451.19  85.8078
 46.6096  7416.44  85.5332
 46.6516  7507.37  85.0868
 46.6936  7577.22  85.994
 46.7356  7627.4  86.3844
 46.7776  7428.54  86.1038
 46.8196  7356.63  85.4222
 46.8616  7279.56  84.7871
 46.9036  7270.08  84.382
 46.9456  7415.22  84.8557
 46.9876  7455.9  85.1746
 47.0296  7402.98  85.5693
 47.0716  7183.61  84.1136
 47.1136  7440.91  85.2812
 47.1556  7278.14  84.2052
 47.1976  7440.88  85.3039
 47.2396  7413.24  85.4756
 47.2816  7274.07  84.3632
 47.3236  7451.48  85.7663
 47.3656  7337.56  85.034
 47.4076  7453.89  85.4334
 47.4496  7264.94  84.5127
 47.4916  7407.32  85.5281
 47.5336  7465.43  85.6761
 47.5756  7448.67  85.7032
 47.6176  7254.75  84.4708
 47.6596  7299.27  84.445
 47.7016  7509.5  85.4655
 47.7436  7446.75  85.442
 47.7856  7452.92  85.5048
 47.8276  7311.49  84.7465
 47.8696  7352.24  85.0723
 47.9116  7434.04  85.2496
 47.9536  7376.4  84.8617
 47.9956  7309.23  85.1861
 48.0376  7302.38  84.9131
 48.0796  7367.63  85.4155
 48.1216  7345.96  85.1161
 48.1636  7400.77  84.9989
 48.2056  7361.56  85.0467
 48.2476  7472.79  85.9918
 48.2896  7367.84  85.3079
 48.3316  7399.02  85.4165
 48.3736  7333.92  85.0727
 48.4156  7380.08  85.1903
 48.4576  7330.93  85.1997
 48.4996  7464.51  85.4168
 48.5416  7537.09  86.1642
 48.5836  7327.16  84.6203
 48.6256  7348.41  84.9511
 48.6676  7256.1  84.941
 48.7096  7396.64  85.0238
 48.7516  7403.58  85.2058
 48.7936  7253.13  84.4078
 48.8356  7289.6  84.6677
 48.8776  7245.81  84.9854
 48.9196  7455.15  85.5611
 48.9616  7371.96  85.4752
 49.0036  7386  85.9069
 49.0456  7245.56  85.0575
 49.0876  7274.67  84.7699
 49.1296  7180.94  84.3826
 49.1716  7204.62  84.3985
 49.2136  7314.98  84.9463
 49.2556  7281.51  84.7993
 49.2976  7456.38  85.8825
 49.3396  7240.57  84.6889
 49.3816  7397.04  85.0146
 49.4236  7245.3  84.5756
 49.4656  7204.6  84.3535
 49.5076  7360.6  85.0027
 49.5496  7220.73  84.2575
 49.5916  7206.51  84.083
 49.6336  7294.55  84.8004
 49.6756  7385.91  85.5722
 49.7176  7232.52  84.6209
 49.7596  7245.35  84.4644
 49.8016  7306.55  84.7283
 49.8436  7141.23  84.0736
 49.8856  7160.41  84.1834
 49.9276  7210.85  84.5778
 49.9696  7272.27  84.9308
 50.0116  7300.59  85.2234
 50.0536  7253.12  84.8917
 50.0956  7221.87  84.7816
 50.1376  7173.13  84.1875
 50.1796  7170.03  84.4462
 50.2216  7249.93  84.9048
 50.2636  7270.23  84.6416
 50.3056  7184.65  84.3138
 50.3476  7244.16  84.6938
 50.3896  7130  83.9883
 50.4316  7223.76  84.3667
 50.4736  7181.58  84.345
 50.5156  7136.63  84.0727
 50.5576  7183.25  84.1041
 50.5996  7157.82  84.2406
 50.6416  7175.2  84.2668
 50.6836  7236.49  84.6867
 50.7256  7222.73  84.5354
 50.7676  7258.8  85.0583
 50.8096  7207.13  84.2906
 50.8516  7096.56  84.065
 50.8936  6981.82  83.1691
 50.9356  7301.8  85.1528
 50.9776  7167.94  84.5385
 51.0196  6983.36  83.566
 51.0616  7078.81  83.4447
 51.1036  7104.83  83.9702
 51.1456  7158.77  84.194
 51.1876  7068.99  82.9946
 51.2296  7101.05  83.8328
 51.2716  6962.85  82.7211
 51.3136  6948.99  83.0997
 51.3556  6935.05  82.6364
 51.3976  6976.3  83.0254
 51.4396  6884.57  82.797
 51.4816  7002.45  83.355
 51.5236  7036.2  83.6387
 51.5656  6947.48  82.7044
 51.6076  6964.58  82.8856
 51.6496  6965.09  83.0891
 51.6916  6905.21  83.0881
 51.7336  6902.5  83.1719
 51.7756  6930.12  83.0227
 51.8176  6882.19  82.8496
 51.8596  6882.31  82.8644
 51.9016  7161.02  84.1221
 51.9436  7081.96  85.1709
 51.9856  7002  85.0911
 52.0276  7133.14  84.3588
 52.0696  7073.78  84.0748
 52.1116  6982.75  83.6638
 52.1536  7118.07  84.2888
 52.1956  7102.51  83.7097
 52.2376  7158.25  84.2061
 52.2796  7152.93  83.9917
 52.3216  6846.59  82.8635
 52.3636  7052.23  83.6384
 52.4056  6931.21  82.8027
 52.4476  6988.98  83.5088
 52.4896  6890.42  82.9674
 52.5316  7106.77  84.3063
 52.5736  6873.34  82.6362
 52.6156  7077.72  84.2565
 52.6576  6932.87  82.8215
 52.6996  6767.58  82.8224
 52.7416  6801.08  82.88
 52.7836  6967.49  83.772
 52.8256  7015.64  83.2585
 52.8676  6748.06  82.2318
 52.9096  6977.64  83.6956
 52.9516  6901.87  83.633
 52.9936  6936.75  84.2142
 53.0356  6992.61  83.5252
 53.0776  6936.6  83.4738
 53.1196  7001.62  83.9737
 53.1616  6940.84  83.6753
 53.2036  6903.08  83.4069
 53.2456  6853.37  83.2125
 53.2876  7022.89  83.906
 53.3296  6979.81  83.9834
 53.3716  7030.91  84.0442
 53.4136  6919.49  83.5318
 53.4556  6832.06  83.0315
 53.4976  6785.34  82.5839
 53.5396  6861.94  83.446
 53.5816  6892.29  83.2707
 53.6236  6829.3  83.2389
 53.6656  6991.39  83.8195
 53.7076  6979.33  83.6969
 53.7496  6950.3  83.6665
 53.7916  6940.44  83.7404
 53.8336  6881.74  83.2671
 53.8756  6783.83  83.2257
 53.9176  6812.15  82.7433
 53.9596  6589.85  82.1482
 54.0016  6684.56  82.0671
 54.0436  6528.67  81.3258
 54.0856  6731.46  81.9912
 54.1276  6687.99  81.9216
 54.1696  6587.81  81.4785
 54.2116  6812.26  82.6025
 54.2536  6622.04  81.2511
 54.2956  6621.85  81.2897
 54.3376  6643.87  81.9321
 54.3796  6588.36  81.4636
 54.4216  6642.9  81.8712
 54.4636  6646.32  81.8617
 54.5056  6676.33  81.8457
 54.5476  6536.78  81.3133
 54.5896  6535.89  81.162
 54.6316  6609.32  81.458
 54.6736  6556.97  81.2209
 54.7156  6608.07  81.5663
 54.7576  6522.15  81.0045
 54.7996  6758.19  82.63
 54.8416  6531.06  81.2674
 54.8836  6573.81  81.6291
 54.9256  6511.6  81.0065
 54.9676  6460.67  80.5517
 55.0096  6509.93  80.8649
 55.0516  6370.19  80.2484
 55.0936  6417.74  80.211
 55.1356  6431.24  80.3468
 55.1776  6601.02  81.6308
 55.2196  6507.68  80.8502
 55.2616  6490.07  80.9543
 55.3036  6430.32  80.7477
 55.3456  6383.01  80.6102
 55.3876  6475.98  80.9062
 55.4296  6385.8  80.3382
 55.4716  6484.61  80.9921
 55.5136  6505.62  80.8893
 55.5556  6627.48  81.6847
 55.5976  6420.68  80.4879
 55.6396  6418.54  80.3231
 55.6816  6426.44  80.3276
 55.7236  6331.1  79.79
 55.7656  6531.47  80.7614
 55.8076  6332.71  79.5285
 55.8496  6482.66  80.8821
 55.8916  6314.54  79.9409
 55.9336  6503.27  80.9502
 55.9756  6407.08  80.2197
 56.0176  6368.57  80.1298
 56.0596  6261.84  79.4468
 56.1016  6233.6  79.2961
 56.1436  6368.66  80.4031
 56.1856  6203.05  79.1034
 56.2276  6480.17  80.8926
 56.2696  6309.67  79.7932
 56.3116  6468.34  81.1784
 56.3536  6352.25  80.0843
 56.3956  6346.32  80.0652
 56.4376  6337.61  80.0586
 56.4796  6252.21  79.3227
 56.5216  6280.54  79.882
 56.5636  6227.75  79.1135
 56.6056  6392.75  80.3926
 56.6476  6358.73  79.7829
 56.6896  6441.44  80.7656
 56.7316  6346.57  80.0912
 56.7736  6302.71  79.8086
 56.8156  6299.74  79.8099
 56.8576  6149.51  78.7995
 56.8996  6277.98  79.5246
 56.9416  6228.17  79.5214
 56.9836  6315.5  79.5962
 57.0256  6179.54  79.049
 57.0676  6306.27  79.9738
 57.1096  6268  79.5227
 57.1516  6146.78  78.7994
 57.1936  6189.11  78.8232
 57.2356  6189.22  79.1404
 57.2776  6357.65  80.1942
 57.3196  6212.07  79.5973
 57.3616  6249.42  79.3438
 57.4036  6359.56  80.0929
 57.4456  6389.48  80.2702
 57.4876  6263.35  79.3373
 57.5296  6230.32  79.4626
 57.5716  6190.43  79.1997
 57.6136  6108.82  78.5228
 57.6556  6204.26  79.2535
 57.6976  6292.31  79.6521
 57.7396  6069.96  78.5724
 57.7816  5990.76  78.4317
 57.8236  6188.62  79.504
 57.8656  6145.78  78.8935
 57.9076  6147.6  78.9142
 57.9496  6149.49  79.2807
 57.9916  6179.73  78.9927
 58.0336  6161.57  79.1593
 58.0756  6112.8  78.454
 58.1176  6211.5  79.105
 58.1596  6127.8  79.1571
 58.2016  5904.88  76.9455
 58.2436  5926.32  77.4831
 58.2856  5931.03  77.4424
 58.3276  5820.87  77.0768
 58.3696  5872.03  77.1702
 58.4116  5987.59  77.7974
 58.4536  5968.69  77.5575
 58.4956  5922.01  77.4357
 58.5376  5997.48  77.4979
 58.5796  5861.89  77.0368
 58.6216  5875.79  76.9507
 58.6636  5905.12  77.3517
 58.7056  5959.15  77.5573
 58.7476  5871.59  77.4267
 58.7896  5864.21  77.0281
 58.8316  5944.5  77.5436
 58.8736  5996.46  77.8981
 58.9156  6000.48  77.9641
 58.9576  5877.36  77.4807
 58.9996  5958.61  77.2655
 59.0416  5931.25  77.4494
 59.0836  5952.65  77.5035
 59.1256  5845.66  77.4979
 59.1676  5890.25  78.0937
 59.2096  5963.97  77.9067
 59.2516  5832.46  76.6312
 59.2936  5877.3  77.2489
 59.3356  5816.62  76.7291
 59.3776  5872.27  77.2619
 59.4196  5873.88  77.2099
 59.4616  5896.05  77.2165
 59.5036  5815.19  76.7171
 59.5456  5829.6  76.5136
 59.5876  5927.01  77.3395
 59.6296  5660.17  75.6456
 59.6716  5822.75  76.7812
 59.7136  5866.02  77.0544
 59.7556  5921.44  77.5527
 59.7976  5960.63  77.5527
 59.8396  5712.33  75.8173
 59.8816  5961.52  77.9948
 59.9236  5816.32  76.6899
 59.9656  5877.93  77.3524
 60.0076  5892.59  76.8138
 60.0496  5897.04  77.3387
 60.0916  6022.58  77.5785
 60.1336  5780.5  77.0868
 60.1756  5805.16  78.4123
 60.1996  0.0000000E+00  0.0000000E+00