File: docs/examples/opeando_xrd/IS17_D/Data/IS17_D/17_Db_f00003.xye
# /beamlines/bl04/projects/cycle2025-II/20250340211-lsimonelli/DATA/IS17_D/17_Db_f00003.xye : mythproc.py merge -s 0.006 -l 0.5 -f /beamlines/bl04/inhouse/ff/FlatField/ff_20Nov2024rod8mm60s_17keV.raw -b True -c true -o xye /beamlines/bl04/projects/cycle2025-II/20250340211-lsimonelli/DATA/IS17_D/17_Db_00003.dat
# IsMon = [6740478, 6734829, 6741786]  IsPos = [-1.5000, -2.4885, -3.4988]
# Wave = 0.4962  CalPath /beamlines/bl04/projects/cycle2025-II/20250340211-lsimonelli/DATA/Align/Si_Pos1_25keV_f00001.cal
# Date = 2025-09-23_18:32:32 Dt = 4.8000  Bin = 0.0060  <imon> = 6739031 +/- 3019 (Min/Max) 6734829 / 6741786
# icurr 249.5251  mocoIn 1.7023E-05  mocoOut 0.7985  i15 7.05194e+06  imon 6.73903e+06  i7 6.0000  iEMpd_timer 4.8000  iEMpd_1 3.5824E-08  iEMpd_2 7.8376E-08  iEMpd_3 1.6660E-08  iEMpd_4 4.6975E-08  iEMhp_timer 4.8000  iEMhp_1 4.8755E-06  iEMhp_2 -2.6051E-08  iEMhp_3 -2.2830E-08  iEMhp_4 -1.9582E-08
#      9776
 1.5856  43466.5  214.059
 1.6276  50892  227.648
 1.6696  56249  238.486
 1.7116  63718.2  254.323
 1.7536  72140.3  269.457
 1.7956  75798.4  276.894
 1.8376  72567.8  271.358
 1.8796  62253.4  249.495
 1.9216  51295.5  227.369
 1.9636  45116.2  212.898
 2.0056  40284.4  199.89
 2.0476  37618.8  195.281
 2.0896  36393.8  190.949
 2.1316  35404.4  187.43
 2.1736  33470  183.683
 2.2156  34423.9  184.787
 2.2576  32680.5  180.694
 2.2996  31384.3  177.723
 2.3416  31888.1  177.714
 2.3836  31159.6  175.78
 2.4256  30465.8  174.379
 2.4676  29427.5  171.139
 2.5096  29475.5  171.334
 2.5516  28090.1  171.136
 2.5936  28078.5  167.668
 2.6356  27661.4  167.118
 2.6776  27546.6  165.673
 2.7196  27103.9  164.812
 2.7616  26884.8  163.943
 2.8036  26533.5  163.036
 2.8456  26490.3  163.543
 2.8876  25861.7  161.429
 2.9296  25419.5  160.191
 2.9716  25494.7  159.921
 3.0136  24957.9  158.293
 3.0556  25245.3  159.602
 3.0976  25100.1  158.029
 3.1396  24636.3  157.311
 3.1816  24430.1  156.584
 3.2236  24542.2  156.924
 3.2656  24142.5  154.709
 3.3076  24080.4  155.961
 3.3496  24233  155.623
 3.3916  24554.3  156.232
 3.4336  24869.4  157.811
 3.4756  25508.5  159.761
 3.5176  26205.5  161.7
 3.5596  25500.3  162.494
 3.6016  25879.2  160.754
 3.6436  25106.4  159.449
 3.6856  24599.7  156.134
 3.7276  23615.2  154.066
 3.7696  23594.3  153.957
 3.8116  23165  152.655
 3.8536  23270.3  152.925
 3.8956  22989.8  151.833
 3.9376  23151.3  152.629
 3.9796  23030.6  151.722
 4.0216  22937.8  150.47
 4.0636  23004.9  152.141
 4.1056  22980.7  151.721
 4.1476  23312.4  153.111
 4.1896  23410.5  153.303
 4.2316  23470.8  153.312
 4.2736  23902  154.528
 4.3156  24042.3  155.203
 4.3576  24699.8  157.216
 4.3996  24983.5  158.409
 4.4416  25370.9  159.204
 4.4836  25948.5  161.181
 4.5256  26518.8  163.527
 4.5676  26477.5  163.663
 4.6096  26790.1  163.652
 4.6516  27365.1  164.723
 4.6936  27413.8  165.694
 4.7356  27659.4  166.268
 4.7776  27443.2  165.451
 4.8196  27307.7  165.676
 4.8616  26625.9  163.226
 4.9036  26574.6  162.669
 4.9456  26384  162.739
 4.9876  25767.7  160.726
 5.0296  25978.8  161.227
 5.0716  25754.4  161.133
 5.1136  25950.9  161.609
 5.1556  26189  161.817
 5.1976  26751.6  163.53
 5.2396  26544.9  162.603
 5.2816  26763.2  163.727
 5.3236  26748.5  163.373
 5.3656  26473.9  163.472
 5.4076  25855.4  161.688
 5.4496  25951.3  161.494
 5.4916  26057.6  161.576
 5.5336  25830.5  160.883
 5.5756  25976.5  161.337
 5.6176  26125.2  161.26
 5.6596  26376.8  162.851
 5.7016  26343.8  162.175
 5.7436  26542.4  163.062
 5.7856  26397.1  162.682
 5.8276  26551.6  162.875
 5.8696  26976  164.22
 5.9116  26866.9  164.6
 5.9536  27184.3  165.305
 5.9956  27275.1  164.99
 6.0376  27508  166.305
 6.0796  27475  166.042
 6.1216  27328.7  165.796
 6.1636  27691.4  165.952
 6.2056  27569.4  166.264
 6.2476  28011.4  167.274
 6.2896  28310.1  168.028
 6.3316  28356.1  168.323
 6.3736  28051.8  167.325
 6.4156  28137.4  167.526
 6.4576  28254  167.444
 6.4996  28532  168.741
 6.5416  28487.8  168.731
 6.5836  28458.7  168.886
 6.6256  28675.6  169.088
 6.6676  29179.4  170.139
 6.7096  29203.3  171.055
 6.7516  29522.4  171.653
 6.7936  29688.2  171.538
 6.8356  29782  171.9
 6.8776  30027.5  173.419
 6.9196  29966.4  173.625
 6.9616  30733.7  175.256
 7.0036  31026.2  175.775
 7.0456  30913.5  174.764
 7.0876  31088.7  176.837
 7.1296  30713.5  175.009
 7.1716  30862.5  174.958
 7.2136  30452.5  173.591
 7.2556  30684.9  174.398
 7.2976  30662.1  174.825
 7.3396  30547.2  174.729
 7.3816  30627.9  175.158
 7.4236  30934.4  175.339
 7.4656  31041.4  175.109
 7.5076  31441.7  176.388
 7.5496  31119.5  176.002
 7.5916  31149.2  176.142
 7.6336  31611.1  177.326
 7.6756  31612.5  177.181
 7.7176  32119.9  178.921
 7.7596  32118.4  180.11
 7.8016  32601  183.672
 7.8436  32210.2  179.299
 7.8856  32639.2  180.106
 7.9276  32905.8  181.217
 7.9696  32979.8  181.739
 8.0116  33918.7  182.884
 8.0536  34442.9  184.535
 8.0956  34210.1  185.086
 8.1376  34799.2  186.137
 8.1796  34764.4  186.581
 8.2216  35315  186.807
 8.2636  35697.3  188.064
 8.3056  35595.4  188.535
 8.3476  36227.4  189.549
 8.3896  35955.3  188.913
 8.4316  36073.7  189.394
 8.4736  36358.8  189.617
 8.5156  35901.6  188.693
 8.5576  35542.8  188.712
 8.5996  35477.4  187.425
 8.6416  35486  188.699
 8.6836  35037.5  187.304
 8.7256  35760.2  188.717
 8.7676  35509.2  190.882
 8.8096  35665.6  188.628
 8.8516  36086.8  189.374
 8.8936  35233.8  187.017
 8.9356  35435.9  187.879
 8.9776  35510  188.15
 9.0196  35437.6  187.636
 9.0616  35112.5  186.284
 9.1036  34504.7  185.809
 9.1456  34476.1  185.072
 9.1876  34712.5  185.649
 9.2296  34527.2  184.605
 9.2716  34144.3  183.611
 9.3136  34558  184.723
 9.3556  34562.9  184.705
 9.3976  33555.6  182.498
 9.4396  33394.8  181.974
 9.4816  33456.6  182.004
 9.5236  33238.5  181.311
 9.5656  32957.6  180.89
 9.6076  32208.5  179.338
 9.6496  32419.7  179.809
 9.6916  31985.8  178.556
 9.7336  32511.4  179.801
 9.7756  32151.7  180.038
 9.8176  32073.9  179.396
 9.8596  32191.6  178.186
 9.9016  31637.6  176.628
 9.9436  31025.4  174.68
 9.9856  30799.9  174.47
 10.0276  30556.8  174.828
 10.0696  30829.2  174.664
 10.1116  29985  172.511
 10.1536  29861.7  171.818
 10.1956  29313.5  170.343
 10.2376  29462.5  170.278
 10.2796  29440.5  170.326
 10.3216  28760.5  168.499
 10.3636  28839.2  168.895
 10.4056  27899.5  166.521
 10.4476  28301.3  167.319
 10.4896  28310.1  166.797
 10.5316  27718.9  165.425
 10.5736  27265.5  164.808
 10.6156  27463.7  165.154
 10.6576  27341.2  163.393
 10.6996  27212.2  163.703
 10.7416  26724.3  162.437
 10.7836  26210.5  161.509
 10.8256  25966.8  161.155
 10.8676  26085  161.097
 10.9096  25795  160.197
 10.9516  25641  158.711
 10.9936  25673.9  159.008
 11.0356  25530.3  159.159
 11.0776  25373.5  158.027
 11.1196  24924  157.363
 11.1616  24710.1  156.38
 11.2036  24453.7  155.398
 11.2456  24700.3  156.888
 11.2876  24944  157.381
 11.3296  24370.2  155.476
 11.3716  24694.6  156.239
 11.4136  24661.3  156.956
 11.4556  24826.3  157.134
 11.4976  25341.7  157.782
 11.5396  25382.5  158.09
 11.5816  26228.2  161.104
 11.6236  25828  160.346
 11.6656  25551.8  158.417
 11.7076  24351.8  155.478
 11.7496  24090.8  158.561
 11.7916  24251.3  154.412
 11.8336  23805.3  153.901
 11.8756  23648.2  152.925
 11.9176  23548  152.291
 11.9596  23768.3  153.153
 12.0016  23399.6  152.707
 12.0436  23493  152.484
 12.0856  22927.9  151.121
 12.1276  23150.7  151.812
 12.1696  23027.5  150.536
 12.2116  23063.1  150.662
 12.2536  23132.5  151.654
 12.2956  22815.6  150.004
 12.3376  23123.8  151.203
 12.3796  22936.2  151.074
 12.4216  22921.6  150.236
 12.4636  22724.6  150.497
 12.5056  22894.7  150.341
 12.5476  22951  150.05
 12.5896  22648.6  149.696
 12.6316  22780.6  150.262
 12.6736  22617.7  150.216
 12.7156  22809.1  150.686
 12.7576  22764.4  150.782
 12.7996  22965.7  150.124
 12.8416  22631.6  150.059
 12.8836  22967.6  151.001
 12.9256  23175.3  150.739
 12.9676  23197.7  151.198
 13.0096  23464.8  153.159
 13.0516  23437.3  152.127
 13.0936  23576.5  152.694
 13.1356  23714.5  152.402
 13.1776  23345.3  152.207
 13.2196  23650  152.845
 13.2616  23277.2  151.951
 13.3036  23753.4  153.618
 13.3456  23297.9  152.104
 13.3876  23755.2  153.09
 13.4296  23633.9  152.857
 13.4716  23685.4  152.665
 13.5136  23218.4  151.269
 13.5556  23350.2  152.333
 13.5976  23531.9  153.08
 13.6396  23451  152.189
 13.6816  23568.3  152.899
 13.7236  23982.9  153.946
 13.7656  25771.6  160.015
 13.8076  26371.4  160.557
 13.8496  25077.2  157.366
 13.8916  23766.6  154.146
 13.9336  23064  151.172
 13.9756  23163.9  150.889
 14.0176  22891.5  150.672
 14.0596  23160.4  151.471
 14.1016  22653.5  150.227
 14.1436  22996.9  150.501
 14.1856  22276  148.418
 14.2276  22280.3  148.896
 14.2696  22243.8  148.635
 14.3116  21644.4  146.532
 14.3536  21666.3  146.766
 14.3956  21455.4  145.788
 14.4376  21724.7  146.475
 14.4796  21543.9  145.869
 14.5216  21141.7  145.261
 14.5636  21062.7  144.582
 14.6056  21241.6  144.742
 14.6476  21135.6  143.655
 14.6896  20794  143.028
 14.7316  20654.5  143.567
 14.7736  20352.5  141.679
 14.8156  20233.4  141.279
 14.8576  20236.4  141.146
 14.8996  19715.7  140.487
 14.9416  19253.3  138.835
 14.9836  19391.6  139.318
 15.0256  18864.4  136.37
 15.0676  18885  136.749
 15.1096  18657.9  135.67
 15.1516  18378.1  135.196
 15.1936  18381.2  134.643
 15.2356  18150.9  134.068
 15.2776  17992.3  133.084
 15.3196  17556.8  132.42
 15.3616  17445.2  131.755
 15.4036  17664.8  132.457
 15.4456  17806.4  132.646
 15.4876  17344.2  130.609
 15.5296  17389.1  131.066
 15.5716  17182.4  129.89
 15.6136  17116.2  129.968
 15.6556  17197.4  129.526
 15.6976  17188.6  129.571
 15.7396  16699.8  128.281
 15.7816  16742.3  127.986
 15.8236  16375  127.224
 15.8656  16495.4  127.509
 15.9076  16351.6  126.783
 15.9496  17218.6  132.85
 15.9916  16866.6  131.89
 16.0336  17084.5  129.633
 16.0756  16652.9  128.282
 16.1176  16473.8  127.521
 16.1596  16266.1  128.023
 16.2016  16272.1  126.836
 16.2436  16256.6  127.148
 16.2856  16235.9  126.572
 16.3276  16067.9  126.356
 16.3696  16134.9  126.452
 16.4116  16097.4  126.753
 16.4536  16072.7  126.46
 16.4956  16105.8  126.33
 16.5376  15809.3  125.35
 16.5796  15793.3  124.665
 16.6216  15849.6  125.152
 16.6636  15721.3  124.825
 16.7056  15769.9  124.886
 16.7476  15919.1  125.008
 16.7896  15754.8  125.091
 16.8316  15850.9  125.451
 16.8736  15712.8  125.15
 16.9156  15762.2  125.673
 16.9576  15522.4  125.507
 16.9996  15473.2  125.755
 17.0416  15769.5  125.393
 17.0836  15753.4  125.088
 17.1256  15372.5  123.569
 17.1676  15564.3  124.292
 17.2096  15505.5  123.963
 17.2516  15414.1  123.678
 17.2936  15153.9  122.689
 17.3356  15075.6  122.343
 17.3776  15046.4  122.42
 17.4196  14884  121.477
 17.4616  14950.3  121.641
 17.5036  14594.9  120.553
 17.5456  14656.2  121.425
 17.5876  14520.5  119.931
 17.6296  14725.9  120.581
 17.6716  14448.8  120.034
 17.7136  14445.1  120.137
 17.7556  14339.6  119.989
 17.7976  14065.7  118.449
 17.8396  14005.5  117.852
 17.8816  14150.1  119.011
 17.9236  14037.9  118.321
 17.9656  13983.7  118.75
 18.0076  14069.5  118.549
 18.0496  13880.7  116.919
 18.0916  13943.8  117.709
 18.1336  13811.2  117.254
 18.1756  14002  117.626
 18.2176  13623.6  116.221
 18.2596  13534  115.585
 18.3016  13851  117.183
 18.3436  13657.6  116.598
 18.3856  13615.9  116.309
 18.4276  13629.2  116.071
 18.4696  13387.8  115.114
 18.5116  13702  116.727
 18.5536  13586.9  116.586
 18.5956  13371.8  115.237
 18.6376  13440.4  115.932
 18.6796  13435.3  115.236
 18.7216  13543.8  116.25
 18.7636  13418.8  115.642
 18.8056  13359.9  115.318
 18.8476  13152.5  115.02
 18.8896  13204  114.609
 18.9316  13366.4  115.135
 18.9736  13323  114.805
 19.0156  13189.7  114.655
 19.0576  13443.9  114.606
 19.0996  13480.4  115.471
 19.1416  13268.7  114.939
 19.1836  13212  114.317
 19.2256  13176.6  114.376
 19.2676  13176.7  114.454
 19.3096  13147.8  114.578
 19.3516  13312.8  115.049
 19.3936  13052.3  114.025
 19.4356  13374.5  115.292
 19.4776  13240.8  114.811
 19.5196  13252.6  114.72
 19.5616  12996.5  113.853
 19.6036  13047.4  113.587
 19.6456  13252  114.586
 19.6876  13182.6  113.94
 19.7296  13356.8  115.129
 19.7716  13141.2  114.233
 19.8136  13451.3  115.9
 19.8556  13568.6  115.9
 19.8976  13463.6  115.509
 19.9396  13582.7  115.623
 19.9816  13554.8  115.748
 20.0236  13944.3  117.584
 20.0656  13997  117.808
 20.1076  14277.6  119.453
 20.1496  14005.1  118.309
 20.1916  13954.2  117.569
 20.2336  13719.4  116.548
 20.2756  13440.1  115.782
 20.3176  13223.3  114.595
 20.3596  12992.7  113.579
 20.4016  13129.9  113.977
 20.4436  13056.2  114.212
 20.4856  13038.5  113.925
 20.5276  12767.9  113.19
 20.5696  12736.1  112.62
 20.6116  12737.8  112.792
 20.6536  12799.8  112.648
 20.6956  12647.5  112.042
 20.7376  12595.5  112.022
 20.7796  12691.2  112.138
 20.8216  12705.8  111.914
 20.8636  12609.7  111.863
 20.9056  12488.4  111.266
 20.9476  12674.9  111.943
 20.9896  12733.2  112.066
 21.0316  12497.7  110.936
 21.0736  12533.5  111.601
 21.1156  12467.9  111.462
 21.1576  12532.3  111.787
 21.1996  12421.4  111.278
 21.2416  12443.1  111.201
 21.2836  12419.9  111.073
 21.3256  12442  111.248
 21.3676  12549.5  111.27
 21.4096  12234.6  110.24
 21.4516  12428.6  110.923
 21.4936  12085.5  109.644
 21.5356  12320  110.648
 21.5776  12362.7  110.677
 21.6196  12214.1  110.052
 21.6616  12092.1  109.579
 21.7036  12232.2  109.969
 21.7456  12292.5  110.332
 21.7876  12093.7  109.203
 21.8296  12038.7  108.802
 21.8716  12306.9  110.232
 21.9136  12296.4  110.378
 21.9556  12096.6  109.168
 21.9976  12126.6  109.336
 22.0396  11971.6  108.88
 22.0816  11977.8  109.413
 22.1236  12208.5  109.941
 22.1656  11932  108.88
 22.2076  11823.6  107.814
 22.2496  11902.1  108.207
 22.2916  11793.8  107.595
 22.3336  11891.5  108.719
 22.3756  11698.8  107.578
 22.4176  11936.3  108.529
 22.4596  11571.1  107.414
 22.5016  11823.3  108.106
 22.5436  11877.9  108.225
 22.5856  12158.1  109.744
 22.6276  12264.4  110.358
 22.6696  11968.1  109.361
 22.7116  11865.7  108.425
 22.7536  11882.3  108.468
 22.7956  11816.7  107.528
 22.8376  11605  107.048
 22.8796  11866.2  108.06
 22.9216  11893  108.696
 22.9636  11731.5  107.154
 23.0056  11821.5  107.692
 23.0476  11920.8  108.703
 23.0896  11973.9  108.338
 23.1316  11948.6  108.649
 23.1736  12070.1  112.08
 23.2156  12243.9  110.279
 23.2576  12307  110.696
 23.2996  12096.7  109.522
 23.3416  12320  111.052
 23.3836  12187.7  109.699
 23.4256  12391.6  110.731
 23.4676  12143.3  109.313
 23.5096  12175.9  110.11
 23.5516  12086.5  109.02
 23.5936  12176.9  110.322
 23.6356  12371.9  110.87
 23.6776  11985.7  109.325
 23.7196  12191.9  110.061
 23.7616  12185.1  109.736
 23.8036  12260.4  110.131
 23.8456  11908.4  108.1
 23.8876  12069.8  109.182
 23.9296  11899.5  108.891
 23.9716  11889.2  108.061
 24.0136  11892.4  108.96
 24.0556  11926.4  108.84
 24.0976  11567.3  107.006
 24.1396  11710.9  110.241
 24.1816  11803.9  109.471
 24.2236  11788.9  108.709
 24.2656  11528.6  106.985
 24.3076  11527.2  107.243
 24.3496  11564.8  107.306
 24.3916  11656.8  107.775
 24.4336  11604.4  107.735
 24.4756  11466  106.973
 24.5176  11454.3  106.532
 24.5596  11551.8  107.317
 24.6016  11166.7  105.612
 24.6436  11458.2  106.491
 24.6856  11375.8  105.863
 24.7276  11208.7  105.412
 24.7696  11126.4  105.122
 24.8116  11185.2  105.585
 24.8536  11123.4  105.285
 24.8956  11089.4  104.861
 24.9376  11099.7  105.075
 24.9796  10992.7  104.689
 25.0216  10866.1  104.184
 25.0636  10953.9  104.276
 25.1056  10907.3  104.469
 25.1476  10856  106.048
 25.1896  10765.2  104.191
 25.2316  10680  103.058
 25.2736  10801.6  103.317
 25.3156  10754.8  103.15
 25.3576  10693.1  103.282
 25.3996  10855.9  104.051
 25.4416  10456.6  102.099
 25.4836  10567  103.136
 25.5256  10612.6  102.737
 25.5676  10576.9  102.312
 25.6096  10452.2  102.264
 25.6516  10538  102.204
 25.6936  10547.4  102.548
 25.7356  10637.4  103.12
 25.7776  10521.4  102.23
 25.8196  10396.5  101.782
 25.8616  10397.2  101.72
 25.9036  10469.5  101.545
 25.9456  10413.1  101.859
 25.9876  10572  102.54
 26.0296  10636.9  102.616
 26.0716  10469.6  102.132
 26.1136  10455.7  102.001
 26.1556  10563.6  101.919
 26.1976  10396.9  102.022
 26.2396  10336.9  101.146
 26.2816  10340.3  101.507
 26.3236  10356.8  101.746
 26.3656  10545.4  102.387
 26.4076  10434.6  102.056
 26.4496  10643.5  102.662
 26.4916  10738  103.025
 26.5336  11163.5  105.388
 26.5756  11112.9  105.026
 26.6176  10541.9  102.314
 26.6596  10397.7  101.92
 26.7016  10348.9  101.451
 26.7436  10439.1  102.01
 26.7856  10140.4  100.526
 26.8276  10293.2  101.248
 26.8696  10227.1  100.792
 26.9116  10229.9  100.749
 26.9536  10060.8  99.9641
 26.9956  10073.3  100.059
 27.0376  10132.6  100.569
 27.0796  10069  100.056
 27.1216  10111  100.248
 27.1636  9869.14  99.2145
 27.2056  10029.8  99.8966
 27.2476  9998.5  99.7358
 27.2896  9776.33  98.7403
 27.3316  9870.71  98.9415
 27.3736  9834.41  99.0167
 27.4156  9876.02  99.0646
 27.4576  9784.78  98.8206
 27.4996  10002.9  99.5298
 27.5416  9840.64  99.0247
 27.5836  9809.19  98.709
 27.6256  9965.2  99.6664
 27.6676  9775.42  98.7049
 27.7096  9837.59  98.9021
 27.7516  9827.54  98.9953
 27.7936  10107.4  100.533
 27.8356  9984.64  99.5425
 27.8776  9899.34  99.1755
 27.9196  9713.21  98.1123
 27.9616  9742.68  98.4505
 28.0036  9741.26  98.4067
 28.0456  9616.25  97.9069
 28.0876  9597.16  97.8842
 28.1296  9658.42  98.0303
 28.1716  9689.39  98.2133
 28.2136  9760.58  98.544
 28.2556  9640.89  98.0426
 28.2976  9499.27  97.321
 28.3396  9504.15  97.1529
 28.3816  9488.44  97.0385
 28.4236  9468.34  97.0922
 28.4656  9610.73  97.8577
 28.5076  9544.37  97.1671
 28.5496  9487.56  97.1237
 28.5916  9413.29  96.562
 28.6336  9536.08  97.5152
 28.6756  9451.58  96.3026
 28.7176  9458.69  96.8803
 28.7596  9433.79  96.6575
 28.8016  9399.82  96.5227
 28.8436  9294.41  96.2049
 28.8856  9426.93  96.7457
 28.9276  9386.79  96.7808
 28.9696  9396.6  96.4726
 29.0116  9342.52  96.3913
 29.0536  9341.02  96.595
 29.0956  9325.99  96.2271
 29.1376  9315.39  96.1437
 29.1796  9359.32  96.4207
 29.2216  9239.62  95.6445
 29.2636  9436.28  96.6424
 29.3056  9312.18  95.8688
 29.3476  9266.51  96.1518
 29.3896  9248.16  96.1692
 29.4316  9188.58  95.2117
 29.4736  9007.38  94.3245
 29.5156  9140.84  94.9548
 29.5576  9061.32  95.2627
 29.5996  9017.05  94.3075
 29.6416  8947.41  94.058
 29.6836  9163.41  95.1096
 29.7256  8957.22  94.5846
 29.7676  8992.21  94.4336
 29.8096  8878.94  93.7887
 29.8516  8784.37  93.6021
 29.8936  8914.87  94.3897
 29.9356  8982.1  94.5081
 29.9776  8895.92  94.1952
 30.0196  8928.47  93.7899
 30.0616  8825.35  93.5985
 30.1036  8986.21  94.2869
 30.1456  8873.34  93.902
 30.1876  8950.33  94.3025
 30.2296  8884.31  93.8901
 30.2716  9021.04  94.261
 30.3136  8783  93.8336
 30.3556  8982.23  94.8839
 30.3976  8996.36  96.4197
 30.4396  9400.87  95.9227
 30.4816  9155.21  94.2865
 30.5236  9240.02  94.7142
 30.5656  9033  94.282
 30.6076  9052.19  94.1538
 30.6496  9047.78  94.1959
 30.6916  8923.52  93.6286
 30.7336  9159.22  94.9917
 30.7756  8900.78  93.7427
 30.8176  9005.15  94.2139
 30.8596  9120.8  94.5748
 30.9016  9185.13  94.7817
 30.9436  9189.97  95.0181
 30.9856  9209.28  95.244
 31.0276  9014.14  93.8707
 31.0696  8978.14  94.2211
 31.1116  9048.29  94.5654
 31.1536  8966.21  94.0074
 31.1956  8955.24  94.0527
 31.2376  8881.93  93.6883
 31.2796  9069  94.2108
 31.3216  9041.33  94.0056
 31.3636  8942.09  94.1822
 31.4056  8850.6  94.9682
 31.4476  8974.62  93.5931
 31.4896  8973.48  94.0626
 31.5316  8976.18  93.5492
 31.5736  9039.76  93.6698
 31.6156  9066.92  93.8169
 31.6576  9030.44  93.7033
 31.6996  9210.31  94.2933
 31.7416  8988.3  94.0824
 31.7836  8949.24  93.0397
 31.8256  8849.6  92.8642
 31.8676  8990  93.5006
 31.9096  8770  92.5838
 31.9516  8764.28  92.8533
 31.9936  8650.96  92.0825
 32.0356  8791.54  92.8629
 32.0776  8840.42  93.0327
 32.1196  9020.07  93.978
 32.1616  8979.68  93.3208
 32.2036  8824.44  92.9989
 32.2456  8761.41  93.04
 32.2876  8662.76  91.8746
 32.3296  8680.78  92.0948
 32.3716  8589.77  91.7193
 32.4136  8544.26  91.6696
 32.4556  8674.31  91.8175
 32.4976  8766.57  92.1932
 32.5396  8596.71  91.3171
 32.5816  8635.6  91.6503
 32.6236  8611.95  91.5799
 32.6656  8663.86  92.3962
 32.7076  8530.61  91.3462
 32.7496  8623.93  91.5323
 32.7916  8628.05  91.5115
 32.8336  8600.11  91.4584
 32.8756  8733.12  91.866
 32.9176  8543.25  91.3544
 32.9596  8507.42  91.2241
 33.0016  8571.53  91.3348
 33.0436  8573.12  91.5266
 33.0856  8548.38  91.492
 33.1276  8417.24  90.5314
 33.1696  8552.69  91.0811
 33.2116  8558.98  91.3565
 33.2536  8631.98  91.7188
 33.2956  8496.56  91.0932
 33.3376  8414.8  90.4705
 33.3796  8575  91.4671
 33.4216  8497.44  90.6348
 33.4636  8624.35  91.477
 33.5056  8364.42  90.3316
 33.5476  8600.25  91.5663
 33.5896  8694.49  91.8413
 33.6316  8573.47  91.5167
 33.6736  8366.08  90.6543
 33.7156  8356.67  90.6317
 33.7576  8505.49  91.0863
 33.7996  8518.66  90.9245
 33.8416  8225.93  89.5273
 33.8836  8305.21  89.7405
 33.9256  8527.13  90.9779
 33.9676  8431.85  90.3688
 34.0096  8344.7  90.2051
 34.0516  8410.72  90.2046
 34.0936  8308.22  89.9285
 34.1356  8392.25  90.1237
 34.1776  8272.63  89.486
 34.2196  8263.27  89.6032
 34.2616  8292.47  89.9073
 34.3036  8437.1  90.9182
 34.3456  8295.42  89.9098
 34.3876  8415.93  90.6261
 34.4296  8305.57  89.6385
 34.4716  8340.66  89.9745
 34.5136  8350.34  90.2133
 34.5556  8091.28  89.0634
 34.5976  8428.08  90.7303
 34.6396  8315.39  89.8138
 34.6816  8236.38  89.4821
 34.7236  8415.33  90.2375
 34.7656  8257.02  89.5842
 34.8076  8163.11  89.4023
 34.8496  8083.36  88.8168
 34.8916  8236.65  89.5188
 34.9336  8298.32  89.8374
 34.9756  8379.17  90.217
 35.0176  8270.07  90.1176
 35.0596  8395.43  90.6238
 35.1016  8233.45  89.5041
 35.1436  8470.06  90.4796
 35.1856  8334.74  89.8713
 35.2276  8261.32  89.648
 35.2696  8228.07  89.6577
 35.3116  8188.43  89.5425
 35.3536  8225.89  89.487
 35.3956  8056.11  88.2498
 35.4376  8205.24  89.6162
 35.4796  8197.69  89.6062
 35.5216  8129.51  89.2025
 35.5636  8041.48  89.4331
 35.6056  8024.53  88.3989
 35.6476  8119.2  88.8215
 35.6896  8224.21  89.5561
 35.7316  8021.5  88.3478
 35.7736  7972.3  88.2521
 35.8156  8114.61  89.0353
 35.8576  8109.9  89.2551
 35.8996  8183.46  89.6274
 35.9416  8047.51  88.417
 35.9836  7954.67  88.335
 36.0256  8324.49  90.2581
 36.0676  8391.52  90.1712
 36.1096  8188.08  89.4298
 36.1516  8206.15  89.4157
 36.1936  8191.36  89.1664
 36.2356  8241.67  90.1051
 36.2776  8116.9  88.8746
 36.3196  8120.06  88.5847
 36.3616  8080.33  88.5078
 36.4036  8059.6  88.4604
 36.4456  8119.82  88.9977
 36.4876  7937.17  87.9265
 36.5296  7964.82  88.1229
 36.5716  8030.6  89.2363
 36.6136  7912.3  87.3999
 36.6556  7959.92  87.8576
 36.6976  7744.59  87.1435
 36.7396  7747.19  86.9085
 36.7816  7727.8  87.1567
 36.8236  7851.2  87.7779
 36.8656  7744.63  87.2475
 36.9076  7791.37  87.5137
 36.9496  7678.45  86.7368
 36.9916  7743.96  86.7359
 37.0336  7697.53  86.7901
 37.0756  7856.04  87.4832
 37.1176  7675.47  86.7327
 37.1596  7584.05  86.2202
 37.2016  7676.96  86.9257
 37.2436  7687.13  86.3601
 37.2856  7723.47  86.8192
 37.3276  7816.01  86.7
 37.3696  7759.29  87.2491
 37.4116  7742.71  87.0548
 37.4536  7673.34  86.5418
 37.4956  7556.45  85.9158
 37.5376  7784.69  88.7583
 37.5796  7744.74  88.4626
 37.6216  7756.67  86.8199
 37.6636  7860.72  87.2887
 37.7056  7834.86  87.3261
 37.7476  7848.59  86.9608
 37.7896  7755.33  86.9333
 37.8316  7762.82  87.1325
 37.8736  7925.05  87.5637
 37.9156  7795.34  86.8351
 37.9576  7776.41  86.6544
 37.9996  7767.4  86.3224
 38.0416  7780.98  87.1889
 38.0836  7831.84  87.3818
 38.1256  7780  87.0633
 38.1676  7736.07  86.9326
 38.2096  7775.41  86.7787
 38.2516  7840.63  87.3523
 38.2936  7835.71  87.1275
 38.3356  7727.9  86.4597
 38.3776  7607.87  86.0294
 38.4196  7776.43  86.8338
 38.4616  7718.96  86.7563
 38.5036  7856.8  87.371
 38.5456  7639.33  86.9777
 38.5876  7658.11  87.1054
 38.6296  7800.74  86.9116
 38.6716  7761.63  86.4891
 38.7136  7566.65  85.3448
 38.7556  7643.31  86.2749
 38.7976  7658.59  86.2729
 38.8396  7654.72  86.7203
 38.8816  7707.63  86.8155
 38.9236  7581.75  85.9013
 38.9656  7712.1  86.5507
 39.0076  7592.76  85.297
 39.0496  7748.04  86.7055
 39.0916  7819.65  86.7596
 39.1336  7709.02  86.5416
 39.1756  7691.24  86.5115
 39.2176  7531.69  86.1253
 39.2596  7638.18  86.6587
 39.3016  7631.51  86.2141
 39.3436  7702.85  87.0126
 39.3856  7682.16  86.3529
 39.4276  7823.4  87.6462
 39.4696  7586.06  85.9436
 39.5116  7677.3  86.9565
 39.5536  7723.79  87.626
 39.5956  7755.7  86.9332
 39.6376  7575.14  85.8987
 39.6796  7525.56  85.3857
 39.7216  7640.39  86.126
 39.7636  7667.83  86.8167
 39.8056  7647.62  86.5057
 39.8476  7603.16  86.51
 39.8896  7631.24  86.3035
 39.9316  7511.03  85.8569
 39.9736  7599.17  85.9616
 40.0156  7696.53  86.3347
 40.0576  7596.14  86.1199
 40.0996  7729.29  86.0599
 40.1416  7716.56  86.7718
 40.1836  7714.78  86.6481
 40.2256  7637.75  86.2462
 40.2676  7571.74  86.0505
 40.3096  7688.77  86.57
 40.3516  7698.16  86.7437
 40.3936  7668.64  86.134
 40.4356  7588.57  85.8965
 40.4776  7721.38  86.8626
 40.5196  7676.35  86.9027
 40.5616  7889.64  87.7398
 40.6036  7493.41  85.7665
 40.6456  7640.58  86.2134
 40.6876  7732.65  86.7299
 40.7296  7765.1  87.0402
 40.7716  7733.12  86.9768
 40.8136  7654  86.4818
 40.8556  7765.61  87.2376
 40.8976  7701.02  86.7983
 40.9396  7629.61  86.7296
 40.9816  7638.68  86.0974
 41.0236  7767.82  86.6024
 41.0656  7710.56  86.814
 41.1076  7660.06  86.302
 41.1496  7661.51  86.2208
 41.1916  7592.02  86.1388
 41.2336  7645.08  86.4377
 41.2756  7579.72  85.6817
 41.3176  7667.58  86.771
 41.3596  7596.25  86.1159
 41.4016  7586.45  86.3062
 41.4436  7674.4  86.6015
 41.4856  7610.16  86.4056
 41.5276  7561.37  86.1354
 41.5696  7645.76  86.2393
 41.6116  7769.94  87.331
 41.6536  7687.8  86.736
 41.6956  7785.13  87.2691
 41.7376  7513.04  85.8264
 41.7796  7531.85  85.8605
 41.8216  7614.32  86.5164
 41.8636  7602.83  86.4004
 41.9056  7603.01  86.1943
 41.9476  7736.8  87.1818
 41.9896  7704.63  86.6633
 42.0316  7592.27  86.1201
 42.0736  7681.15  86.7543
 42.1156  7629.51  86.2659
 42.1576  7592.62  86.1707
 42.1996  7667.24  86.7158
 42.2416  7654.09  86.2323
 42.2836  7651.28  86.3384
 42.3256  7585.42  86.0679
 42.3676  7725.59  86.6523
 42.4096  7714.35  86.5778
 42.4516  7730.24  86.7248
 42.4936  7471.92  85.3499
 42.5356  7504.96  85.6789
 42.5776  7619.66  86.2664
 42.6196  7563.58  86.0018
 42.6616  7552.46  86.1066
 42.7036  7605.99  85.7946
 42.7456  7696.92  86.6591
 42.7876  7441.53  85.2814
 42.8296  7514.1  85.559
 42.8716  7520.39  85.7619
 42.9136  7441.26  85.0663
 42.9556  7656.53  86.4502
 42.9976  7536.5  85.7428
 43.0396  7484.61  85.1818
 43.0816  7517.46  85.7412
 43.1236  7540.6  85.9241
 43.1656  7522.83  85.6477
 43.2076  7515.41  85.7104
 43.2496  7474.61  85.3105
 43.2916  7463.29  85.5985
 43.3336  7398.67  85.0639
 43.3756  7573.91  85.8314
 43.4176  7435.47  85.1178
 43.4596  7434.89  84.9697
 43.5016  7480.72  85.6268
 43.5436  7453.95  85.3818
 43.5856  7457.54  85.4281
 43.6276  7474.87  85.4283
 43.6696  7371.83  84.9796
 43.7116  7566.07  85.6933
 43.7536  7583.35  86.2903
 43.7956  7397.37  86.4271
 43.8376  7347.86  84.6863
 43.8796  7083.67  83.2252
 43.9216  7210.17  83.8869
 43.9636  7310.48  84.5693
 44.0056  7297.83  84.7283
 44.0476  7319.9  84.4823
 44.0896  7173.35  83.976
 44.1316  7233.78  84.006
 44.1736  7287.49  84.2999
 44.2156  7381.69  84.7043
 44.2576  7299.79  84.5272
 44.2996  7329.26  84.6923
 44.3416  7349.86  84.5622
 44.3836  7221.85  84.1467
 44.4256  7081.65  82.9777
 44.4676  7245.61  84.0886
 44.5096  7199.56  83.9672
 44.5516  7254.53  84.2466
 44.5936  7136.74  83.5195
 44.6356  7266.84  84.0171
 44.6776  7213.26  84.0272
 44.7196  7307.07  84.8619
 44.7616  7317.13  86.2339
 44.8036  7325.42  84.9117
 44.8456  7420.95  85.463
 44.8876  7440.1  85.4182
 44.9296  7522.23  85.3457
 44.9716  7442.71  85.3071
 45.0136  7325.56  84.5786
 45.0556  7466.42  85.4747
 45.0976  7332.91  84.7583
 45.1396  7272.86  84.1669
 45.1816  7221.05  83.8083
 45.2236  7354.84  84.4853
 45.2656  7241.07  84.3203
 45.3076  7331.77  84.6336
 45.3496  7270.89  84.584
 45.3916  7367.03  85.4075
 45.4336  7358.64  85.1991
 45.4756  7256.17  84.4592
 45.5176  7377.31  84.7884
 45.5596  7375.66  84.8947
 45.6016  7307.52  84.9192
 45.6436  7388.74  84.5641
 45.6856  7324.55  84.8503
 45.7276  7151.66  85.1454
 45.7696  7214.49  85.2056
 45.8116  7276.52  85.0216
 45.8536  7348.75  85.3248
 45.8956  7272.41  84.2428
 45.9376  7377.61  84.3251
 45.9796  7343  84.8142
 46.0216  7340.55  85.1229
 46.0636  7467.63  84.9998
 46.1056  7374.06  84.4624
 46.1476  7292.14  84.5804
 46.1896  7283.63  84.6755
 46.2316  7314.49  84.7278
 46.2736  7342.55  85.0929
 46.3156  7229.18  84.1802
 46.3576  7234.17  84.4119
 46.3996  7253.2  84.6731
 46.4416  7223.9  84.0739
 46.4836  7173.45  84.1445
 46.5256  7315.03  84.9202
 46.5676  7184.93  84.2717
 46.6096  7200.84  84.3037
 46.6516  7275.26  83.7851
 46.6936  7208.81  83.889
 46.7356  7390.26  85.0349
 46.7776  7255.86  85.0984
 46.8196  7214.58  84.6044
 46.8616  7103.63  83.7442
 46.9036  7092.19  83.3486
 46.9456  7129.27  83.1973
 46.9876  7160.93  83.4711
 47.0296  7103.27  83.8101
 47.0716  7005.48  83.063
 47.1136  7185.26  83.7978
 47.1556  7252.18  84.0593
 47.1976  7251.53  84.2124
 47.2396  7261.43  84.5899
 47.2816  7142.67  83.6086
 47.3236  7139.22  83.9488
 47.3656  7185.39  84.1569
 47.4076  7219.95  84.0797
 47.4496  7155.24  83.8704
 47.4916  7120.91  83.8559
 47.5336  7207.92  84.1804
 47.5756  7158.61  84.0126
 47.6176  7138.53  83.796
 47.6596  7121.53  83.4165
 47.7016  7212.82  83.752
 47.7436  7257.5  84.369
 47.7856  7242.42  84.2885
 47.8276  7264.53  84.4762
 47.8696  7138.13  83.8041
 47.9116  7209.99  83.9465
 47.9536  7214.24  83.9179
 47.9956  7139.99  84.1942
 48.0376  7049.33  83.4396
 48.0796  7176.07  84.3075
 48.1216  7082.26  83.585
 48.1636  7321.23  84.5383
 48.2056  7243.94  84.3648
 48.2476  7218.93  84.5243
 48.2896  7192.45  84.2712
 48.3316  7161.95  84.0377
 48.3736  7109.23  83.7484
 48.4156  7180.82  84.0286
 48.4576  7234.72  84.6407
 48.4996  7217.22  83.9943
 48.5416  7271.16  84.6293
 48.5836  7184.3  83.8014
 48.6256  7218.38  84.201
 48.6676  7181.56  84.5048
 48.7096  7107.68  83.3376
 48.7516  7121.32  83.5683
 48.7936  7038.68  83.1497
 48.8356  7072.54  83.3971
 48.8776  7169.66  84.4602
 48.9196  7266.04  84.4598
 48.9616  7119.66  83.9989
 49.0036  7094.73  84.1953
 49.0456  7058.71  83.9578
 49.0876  7083.74  83.7435
 49.1296  7019.71  83.4258
 49.1716  7016.13  83.2809
 49.2136  7116.28  83.7877
 49.2556  7113.35  83.8103
 49.2976  7154.15  84.1221
 49.3396  7100.3  83.8527
 49.3816  7224.07  84.0138
 49.4236  7141.23  83.9601
 49.4656  7035.61  83.3513
 49.5076  7117.25  83.5796
 49.5496  7126.44  83.7044
 49.5916  7106.19  83.5024
 49.6336  7094.23  83.6337
 49.6756  7037.59  83.5261
 49.7176  7084.6  83.7517
 49.7596  7052.92  83.3238
 49.8016  7064.09  83.3157
 49.8436  7100.81  83.8381
 49.8856  7018.29  83.343
 49.9276  7047.61  83.6286
 49.9696  7099.87  83.9117
 50.0116  7087.35  83.9613
 50.0536  7010.89  83.4697
 50.0956  7059.39  83.8207
 50.1376  7070.15  83.5731
 50.1796  7018.99  83.556
 50.2216  7051.58  83.7404
 50.2636  6975.22  82.8984
 50.3056  6935.57  82.8525
 50.3476  7031.12  83.4338
 50.3896  7013.64  83.3041
 50.4316  7043.01  83.3108
 50.4736  7037.17  83.4953
 50.5156  6972.53  83.0903
 50.5576  6994.03  82.9895
 50.5996  6983.76  83.2113
 50.6416  7062.37  83.6047
 50.6836  7051.36  83.6026
 50.7256  7026.35  83.3644
 50.7676  7160.37  84.4475
 50.8096  7059.62  83.4218
 50.8516  6979.65  83.3669
 50.8936  7043.24  83.5271
 50.9356  7067.59  83.7777
 50.9776  7011.68  83.6045
 51.0196  6707.39  81.9048
 51.0616  6923.17  82.5377
 51.1036  6944.59  83.0168
 51.1456  6985.98  83.1768
 51.1876  6893.6  81.9624
 51.2296  6859.85  82.3983
 51.2716  6752.65  81.4538
 51.3136  6741.32  81.85
 51.3556  6797.17  81.8001
 51.3976  6850  82.2797
 51.4396  6673.63  81.5207
 51.4816  6755.74  81.8746
 51.5236  6800.08  82.2353
 51.5656  6687.22  81.1416
 51.6076  6764.37  81.6999
 51.6496  6763.06  81.8702
 51.6916  6751.1  82.1648
 51.7336  6696.63  81.9145
 51.7756  6860.12  82.6017
 51.8176  6672.98  81.583
 51.8596  6765.11  82.1581
 51.9016  6775.06  81.8257
 51.9436  6892.55  84.0228
 51.9856  6901.27  84.4972
 52.0276  6908.59  83.0071
 52.0696  6934.21  83.2247
 52.1116  6704.51  81.9577
 52.1536  6946.68  83.2506
 52.1956  6829.7  82.0668
 52.2376  6915.83  82.7479
 52.2796  6887.02  82.4019
 52.3216  6773.05  82.3785
 52.3636  6632.77  81.0965
 52.4056  6820.52  82.1236
 52.4476  6803.33  82.3713
 52.4896  6684.91  81.7089
 52.5316  6935.42  83.2799
 52.5736  6716.99  81.6765
 52.6156  6903.7  83.206
 52.6576  6713.46  81.4766
 52.6996  6698.68  82.3826
 52.7416  6727.65  82.4141
 52.7836  6765.39  82.5346
 52.8256  6748.22  81.6397
 52.8676  6653.4  81.6416
 52.9096  6893.92  83.1756
 52.9516  6769.95  82.8234
 52.9936  6811.63  83.4619
 53.0356  6812.47  82.4631
 53.0776  6866.38  83.0845
 53.1196  6755.48  82.5166
 53.1616  6795.41  82.7957
 53.2036  6627.45  81.7383
 53.2456  6663.23  82.0643
 53.2876  6676.06  81.8341
 53.3296  6758.19  82.6569
 53.3716  6890.55  83.2082
 53.4136  6839.97  83.063
 53.4556  6756.51  82.5859
 53.4976  6614.23  81.5545
 53.5396  6658.1  82.2192
 53.5816  6859.45  83.0853
 53.6236  6543.82  81.4945
 53.6656  6707.51  82.1039
 53.7076  6762.56  82.3998
 53.7496  6731.15  82.3391
 53.7916  6668.28  82.1018
 53.8336  6721.27  82.3054
 53.8756  6555.68  81.843
 53.9176  6659.58  81.8269
 53.9596  6532.15  81.7914
 54.0016  6457.96  80.6635
 54.0436  6425.3  80.6808
 54.0856  6575.68  81.0477
 54.1276  6453.56  80.483
 54.1696  6495.71  80.8889
 54.2116  6589.99  81.2424
 54.2536  6367.03  79.6801
 54.2956  6493.62  80.5121
 54.3376  6370.37  80.2216
 54.3796  6460.41  80.6768
 54.4216  6487.56  80.9227
 54.4636  6425.04  80.4872
 54.5056  6451.95  80.4534
 54.5476  6461.5  80.8489
 54.5896  6397.67  80.2928
 54.6316  6509.75  80.8268
 54.6736  6394.81  80.1652
 54.7156  6490.64  80.8224
 54.7576  6373.94  80.0826
 54.7996  6468.98  80.8482
 54.8416  6411.05  80.5287
 54.8836  6430.12  80.7167
 54.9256  6360.48  80.064
 54.9676  6327.19  79.7138
 55.0096  6336.25  79.7924
 55.0516  6291.56  79.6989
 55.0936  6360.15  79.8594
 55.1356  6245.65  79.1697
 55.1776  6464.91  80.7744
 55.2196  6307.78  79.5996
 55.2616  6438.38  80.6358
 55.3036  6225.68  79.4645
 55.3456  6184.55  79.3341
 55.3876  6317.75  79.9287
 55.4296  6186.57  79.0787
 55.4716  6233.24  79.4099
 55.5136  6263.44  79.366
 55.5556  6449.52  80.5898
 55.5976  6320.79  79.8593
 55.6396  6272.13  79.4046
 55.6816  6234.97  79.1303
 55.7236  6230.35  79.1478
 55.7656  6294.28  79.2906
 55.8076  6223.97  78.8455
 55.8496  6425.28  80.5358
 55.8916  6284.33  79.7018
 55.9336  6415.77  80.3799
 55.9756  6272.56  79.3729
 56.0176  6097.17  78.4031
 56.0596  6214.42  79.1552
 56.1016  6078.36  78.328
 56.1436  6143.1  78.9643
 56.1856  6070.27  78.2477
 56.2276  6423.26  80.5363
 56.2696  6242.83  79.3752
 56.3116  6332.03  80.3192
 56.3536  6202.04  79.1701
 56.3956  6193.04  79.0915
 56.4376  6190.97  79.1229
 56.4796  6056.03  78.0719
 56.5216  6115.14  78.8146
 56.5636  6102.62  78.3198
 56.6056  6287.01  79.7176
 56.6476  6123.16  78.295
 56.6896  6293.09  79.8335
 56.7316  6125.8  78.687
 56.7736  6177.32  79.0249
 56.8156  6165.67  78.9557
 56.8576  6016.55  77.9425
 56.8996  6046.98  78.0486
 56.9416  6176.12  79.1809
 56.9836  6169.43  78.6729
 57.0256  6071.48  78.3509
 57.0676  6167.35  79.0824
 57.1096  6066.13  78.2099
 57.1516  6061.02  78.2057
 57.1936  6160.76  78.6369
 57.2356  5981.93  77.8136
 57.2776  6082.3  78.4325
 57.3196  6144.64  79.1742
 57.3616  6138.12  78.6391
 57.4036  6132.35  78.6537
 57.4456  6157.62  78.7892
 57.4876  6095.77  78.2617
 57.5296  5988.84  77.7995
 57.5716  6029.41  78.1657
 57.6136  5969.53  77.6188
 57.6556  6019.02  78.0507
 57.6976  6098.14  78.4104
 57.7396  6031.35  78.307
 57.7816  5962.53  78.2443
 57.8236  6021.03  78.4058
 57.8656  6062.92  78.3639
 57.9076  5977.71  77.8086
 57.9496  6062.56  78.7221
 57.9916  6109.05  78.5462
 58.0336  5935.72  77.6891
 58.0756  6038.35  77.9468
 58.1176  6040.66  77.9937
 58.1596  5918.6  77.7961
 58.2016  5769.54  76.0502
 58.2436  5771  76.4631
 58.2856  5690.22  75.8462
 58.3276  5702.78  76.2895
 58.3696  5764.02  76.4679
 58.4116  5753.76  76.2643
 58.4536  5833.79  76.6866
 58.4956  5835  76.8648
 58.5376  5824.59  76.3762
 58.5796  5703.05  75.9813
 58.6216  5846.77  76.7608
 58.6636  5691.24  75.931
 58.7056  5793.57  76.4758
 58.7476  5600.07  75.6157
 58.7896  5773.42  76.4259
 58.8316  5784.48  76.5055
 58.8736  5707.71  76.001
 58.9156  5697.23  75.9781
 58.9576  5753.63  76.6535
 58.9996  5687.31  75.4959
 59.0416  5726.25  76.096
 59.0836  5763.43  76.2594
 59.1256  5702.26  76.5423
 59.1676  5774.27  77.3317
 59.2096  5771.2  76.6107
 59.2516  5772.81  76.2119
 59.2936  5672.34  75.8637
 59.3356  5738.5  76.1856
 59.3776  5762.95  76.5128
 59.4196  5654.13  75.7252
 59.4616  5701.14  75.9032
 59.5036  5664.89  75.6952
 59.5456  5805.65  76.3298
 59.5876  5682.14  75.6988
 59.6296  5612.73  75.3018
 59.6716  5711.07  76.015
 59.7136  5617.95  75.3814
 59.7556  5750.97  76.4017
 59.7976  5850.47  76.8061
 59.8396  5664.65  75.4741
 59.8816  5723.78  76.3982
 59.9236  5739.12  76.1529
 59.9656  5682.34  76.0279
 60.0076  5698.78  75.5138
 60.0496  5634.87  75.5749
 60.0916  5800.29  76.1069
 60.1336  5730.78  76.728
 60.1756  5577.4  76.8321
 60.1996  0.0000000E+00  0.0000000E+00