File: docs/examples/opeando_xrd/IS17_D/Data/IS17_D/17_Da_f00142.xye
# /beamlines/bl04/projects/cycle2025-II/20250340211-lsimonelli/DATA/IS17_D/17_Da_f00142.xye : mythproc.py merge -s 0.006 -l 0.5 -f /beamlines/bl04/inhouse/ff/FlatField/ff_20Nov2024rod8mm60s_17keV.raw -b True -c true -o xye /beamlines/bl04/projects/cycle2025-II/20250340211-lsimonelli/DATA/IS17_D/17_Da_00142.dat
# IsMon = [6760164, 6759588, 6760220]  IsPos = [-1.4999, -2.4884, -3.4988]
# Wave = 0.4962  CalPath /beamlines/bl04/projects/cycle2025-II/20250340211-lsimonelli/DATA/Align/Si_Pos1_25keV_f00001.cal
# Date = 2025-09-25_09:09:09 Dt = 4.8000  Bin = 0.0060  <imon> = 6759991 +/- 286 (Min/Max) 6759588 / 6760220
# icurr 250.3900  mocoIn 1.7082E-05  mocoOut 0.8011  i15 7.08224e+06  imon 6.75999e+06  i7 4.3333  iEMpd_timer 4.8000  iEMpd_1 3.6721E-08  iEMpd_2 7.8673E-08  iEMpd_3 1.9421E-08  iEMpd_4 4.8323E-08  iEMhp_timer 4.8000  iEMhp_1 4.8911E-06  iEMhp_2 -2.6426E-08  iEMhp_3 -2.4559E-08  iEMhp_4 -2.2461E-08
#      9776
 1.5856  40704.5  207.166
 1.6276  48176.2  221.512
 1.6696  54626.2  235.043
 1.7116  62455.8  251.815
 1.7536  72184.7  269.565
 1.7956  76738.2  278.631
 1.8376  72580.5  271.408
 1.8796  61246.4  247.489
 1.9216  49651.5  223.717
 1.9636  41524.4  203.752
 2.0056  37453.5  192.757
 2.0476  34329.9  186.567
 2.0896  33432.9  183.034
 2.1316  32244.3  178.886
 2.1736  30846.1  176.353
 2.2156  31042.9  175.495
 2.2576  30181.7  173.663
 2.2996  28883.9  170.512
 2.3416  29128.6  169.867
 2.3836  28691.3  168.691
 2.4256  27801.1  166.594
 2.4676  27563.7  165.646
 2.5096  27678.1  166.044
 2.5516  27701.8  169.982
 2.5936  45128.1  212.556
 2.6356  26653.3  164.042
 2.6776  25755.4  160.166
 2.7196  25539.7  160
 2.7616  25472.3  159.569
 2.8036  25211.3  158.919
 2.8456  25249.5  159.649
 2.8876  24552.4  157.311
 2.9296  24255.3  156.479
 2.9716  23917.8  154.883
 3.0136  23814.8  154.617
 3.0556  23823.5  155.038
 3.0976  23806.5  153.926
 3.1396  23583.2  153.919
 3.1816  23340.8  153.051
 3.2236  23013.6  151.974
 3.2656  23414.4  152.34
 3.3076  23012.2  152.461
 3.3496  23420.5  152.757
 3.3916  23565.8  153.054
 3.4336  24041.1  155.162
 3.4756  24491.1  156.528
 3.5176  25243.2  158.719
 3.5596  25188.5  160.952
 3.6016  25527  159.661
 3.6436  24494.7  157.494
 3.6856  24256.6  155.027
 3.7276  23403.3  153.364
 3.7696  22968.6  152.121
 3.8116  22850.6  151.622
 3.8536  22811  151.419
 3.8956  22753.2  151.058
 3.9376  22802.2  151.474
 3.9796  22541.2  150.116
 4.0216  22696.5  149.675
 4.0636  22550.9  150.652
 4.1056  22673.7  150.708
 4.1476  22829.6  151.539
 4.1896  22892.9  151.608
 4.2316  23081.8  152.056
 4.2736  23683.3  153.815
 4.3156  23933.9  154.858
 4.3576  24629.8  157.026
 4.3996  24965.8  158.347
 4.4416  25328.2  159.076
 4.4836  26031.6  161.426
 4.5256  26401.3  163.173
 4.5676  26189  162.772
 4.6096  26722.9  163.081
 4.6516  27187.9  164.209
 4.6936  27368.6  165.565
 4.7356  27841.3  166.816
 4.7776  27603  165.934
 4.8196  27279.6  165.597
 4.8616  26738.7  163.439
 4.9036  26534.5  162.558
 4.9456  26489.8  163.071
 4.9876  25680.4  160.46
 5.0296  25924.4  161.035
 5.0716  25889  161.708
 5.1136  26100.5  162.075
 5.1556  26438  162.584
 5.1976  28225.4  167.979
 5.2396  26952.4  163.849
 5.2816  27004  164.462
 5.3236  27212.7  164.806
 5.3656  26573.2  163.772
 5.4076  26374  163.314
 5.4496  26453.1  163.048
 5.4916  26526.8  163.029
 5.5336  26712.7  163.605
 5.5756  26503.8  162.991
 5.6176  26736.3  163.139
 5.6596  26816.7  164.36
 5.7016  27027.9  164.271
 5.7436  27338.8  165.486
 5.7856  26978.3  164.447
 5.8276  27727.2  166.442
 5.8696  27782.8  166.776
 5.9116  27582.3  166.779
 5.9536  27730.2  166.975
 5.9956  28139.1  167.565
 6.0376  28322.7  168.753
 6.0796  28416.3  168.863
 6.1216  28522.3  169.385
 6.1636  28633.4  168.77
 6.2056  28771.1  169.845
 6.2476  28620.8  169.274
 6.2896  29153  170.522
 6.3316  28878.8  169.89
 6.3736  28881.9  169.795
 6.4156  29205.9  170.633
 6.4576  29383.9  170.765
 6.4996  29476.7  171.52
 6.5416  29475.6  171.648
 6.5836  29463  171.846
 6.6256  29468  171.419
 6.6676  30110.1  172.846
 6.7096  29613.4  172.26
 6.7516  30200.1  173.617
 6.7936  30736.1  174.573
 6.8356  30929.8  175.2
 6.8776  31111.7  176.524
 6.9196  30836.2  176.136
 6.9616  31416.1  177.23
 7.0036  31877.2  178.178
 7.0456  31711.7  177.009
 7.0876  31425  177.89
 7.1296  31573.4  177.448
 7.1716  31744.1  177.457
 7.2136  31473.6  176.489
 7.2556  31863.4  177.74
 7.2976  31886.6  178.303
 7.3396  31575.8  177.647
 7.3816  31605.2  177.944
 7.4236  31859.5  177.949
 7.4656  32185.4  178.342
 7.5076  32212.9  178.551
 7.5496  32182.5  179.005
 7.5916  32177.8  179.023
 7.6336  32785.8  180.599
 7.6756  32817  180.539
 7.7176  32948.2  181.214
 7.7596  33144.8  182.999
 7.8016  34287.3  188.335
 7.8436  34084.2  184.44
 7.8856  34269.7  184.555
 7.9276  35007.2  186.923
 7.9696  34914.6  186.989
 8.0116  36381.3  189.391
 8.0536  36309.8  189.469
 8.0956  36935.1  192.286
 8.1376  36515.4  190.662
 8.1796  36644.2  191.545
 8.2216  37541.5  192.602
 8.2636  38284.3  194.748
 8.3056  37741.8  194.142
 8.3476  38788.8  196.136
 8.3896  38027.7  194.282
 8.4316  38398.6  195.392
 8.4736  38241.7  194.454
 8.5156  38160.3  194.528
 8.5576  38052.7  195.241
 8.5996  37704.8  193.207
 8.6416  37568.5  194.13
 8.6836  37562.5  193.941
 8.7256  38060.9  194.663
 8.7676  38292.4  198.204
 8.8096  37861.8  194.336
 8.8516  37213  192.292
 8.8936  37365.6  192.569
 8.9356  36542  190.775
 8.9776  37029.3  192.144
 9.0196  36697.6  190.967
 9.0616  37265  191.915
 9.1036  36747.5  191.759
 9.1456  36502.8  190.476
 9.1876  36255.2  189.779
 9.2296  36603.6  190.089
 9.2716  35942.4  188.425
 9.3136  36288.1  189.316
 9.3556  36255.9  189.212
 9.3976  34603.9  185.381
 9.4396  35401.9  187.398
 9.4816  34673.3  185.318
 9.5236  34765.2  185.475
 9.5656  34708.4  185.635
 9.6076  34565.7  185.8
 9.6496  34285  184.969
 9.6916  34433.5  185.342
 9.7336  33994.8  183.933
 9.7756  34504.6  186.582
 9.8176  33813.9  184.198
 9.8596  33326.1  181.306
 9.9016  33232.7  181.046
 9.9436  32890.7  180.021
 9.9856  32644  179.58
 10.0276  31930.9  178.712
 10.0696  32214.7  178.539
 10.1116  31488.4  176.778
 10.1536  31316.4  176.461
 10.1956  31130.4  175.531
 10.2376  30544.9  173.379
 10.2796  30756.6  174.106
 10.3216  30392.1  173.34
 10.3636  30460  173.566
 10.4056  30810.6  174.965
 10.4476  30847.5  174.689
 10.4896  32832.8  179.636
 10.5316  30888.5  174.98
 10.5736  29733  172.086
 10.6156  29159.7  170.184
 10.6576  31229.4  174.627
 10.6996  29008.5  168.982
 10.7416  28656.3  168.18
 10.7836  29141.7  170.308
 10.8256  28335.3  168.367
 10.8676  28460.6  168.27
 10.9096  28121.5  167.301
 10.9516  27839.4  165.38
 10.9936  27997.3  166.045
 11.0356  27845.7  166.244
 11.0776  27895.8  165.695
 11.1196  27583.9  165.53
 11.1616  27060  163.633
 11.2036  27338.3  164.326
 11.2456  27800.6  166.434
 11.2876  26904.8  163.45
 11.3296  27083.7  163.894
 11.3716  27323.9  164.306
 11.4136  27136.2  164.656
 11.4556  27536.6  165.523
 11.4976  28008.9  165.88
 11.5396  27799.9  165.43
 11.5816  27118  163.856
 11.6236  26502.6  162.203
 11.6656  26356.6  160.907
 11.7076  25791.4  160.013
 11.7496  25958.2  164.475
 11.7916  25726.5  159.071
 11.8336  25461.1  159.141
 11.8756  25359.2  158.347
 11.9176  25338.2  157.945
 11.9596  25085.5  157.343
 12.0016  24803.2  157.25
 12.0436  24821  156.72
 12.0856  24556.8  156.416
 12.1276  24736  156.905
 12.1696  24743.9  156.054
 12.2116  24958.9  156.732
 12.2536  25316.5  158.695
 12.2956  24667  155.976
 12.3376  24522  155.723
 12.3796  24383.9  155.751
 12.4216  24307  154.722
 12.4636  24385.4  155.889
 12.5056  24318.2  154.945
 12.5476  24458.8  154.919
 12.5896  24297.6  155.038
 12.6316  24047.9  154.402
 12.6736  24022.5  154.799
 12.7156  24075.2  154.833
 12.7576  24294.2  155.781
 12.7996  24340  154.567
 12.8416  24358  155.685
 12.8836  24739.5  156.727
 12.9256  24923  156.309
 12.9676  24876.4  156.591
 13.0096  24619.1  156.88
 13.0516  24746.2  156.32
 13.0936  24671.8  156.487
 13.1356  25095.9  156.801
 13.1776  24709.7  156.58
 13.2196  24939.7  156.964
 13.2616  24663.5  156.402
 13.3036  24942.6  157.258
 13.3456  24762.3  157.044
 13.3876  24896.3  156.754
 13.4296  24766  156.497
 13.4716  24882.8  156.469
 13.5136  24935.1  156.782
 13.5556  24970.6  157.517
 13.5976  24889.3  157.411
 13.6396  25109.6  157.472
 13.6816  24661.9  156.553
 13.7236  25354.9  158.382
 13.7656  24689.3  156.819
 13.8076  25048.7  156.728
 13.8496  24551.8  155.768
 13.8916  24796.1  157.553
 13.9336  24507.2  155.859
 13.9756  24232.5  154.335
 14.0176  24372.5  155.466
 14.0596  24399.8  155.519
 14.1016  24059.3  154.823
 14.1436  23703.4  152.807
 14.1856  23575.4  152.689
 14.2276  23255.1  152.13
 14.2696  23717.1  153.475
 14.3116  23247.3  151.851
 14.3536  22842.9  150.7
 14.3956  22827.3  150.381
 14.4376  22877.4  150.318
 14.4796  22932.6  150.483
 14.5216  22501.5  149.873
 14.5636  22550.3  149.588
 14.6056  22499.3  149.001
 14.6476  22276.8  147.493
 14.6896  21982.9  147.058
 14.7316  21663.6  147.015
 14.7736  21540.5  145.743
 14.8156  21353.2  145.143
 14.8576  21332.8  144.921
 14.8996  21065.8  145.218
 14.9416  20574  143.528
 14.9836  20752.4  144.109
 15.0256  20566.1  142.378
 15.0676  20410.1  142.157
 15.1096  20258.1  141.363
 15.1516  20166.5  141.604
 15.1936  20165.3  141.023
 15.2356  19757.6  139.868
 15.2776  19669.6  139.142
 15.3196  19403.5  139.205
 15.3616  19339.7  138.728
 15.4036  19285.8  138.389
 15.4456  19457.4  138.656
 15.4876  19264.9  137.644
 15.5296  18877.9  136.545
 15.5716  18676.6  135.409
 15.6136  18653.3  135.655
 15.6556  18997.8  136.129
 15.6976  18522.1  134.712
 15.7396  18417.6  134.72
 15.7816  18301.4  133.796
 15.8236  18061.7  133.626
 15.8656  18221.6  134.006
 15.9076  17801.9  132.281
 15.9496  17940.6  135.601
 15.9916  17872.2  135.793
 16.0336  17596.1  131.608
 16.0756  17530.2  131.669
 16.1176  17428.8  131.362
 16.1596  17055.9  131.123
 16.2016  17465.2  131.422
 16.2436  17073.7  130.33
 16.2856  17239.6  130.501
 16.3276  16727.1  128.96
 16.3696  17130.1  130.318
 16.4116  16762.5  129.381
 16.4536  16812.7  129.355
 16.4956  16715.1  128.722
 16.5376  16627.1  128.561
 16.5796  16588.1  127.774
 16.6216  16841  129.052
 16.6636  16745.2  128.845
 16.7056  16637.3  128.288
 16.7476  16620  127.747
 16.7896  16717  128.881
 16.8316  16680.8  128.701
 16.8736  16606.5  128.673
 16.9156  16637.4  129.133
 16.9576  16484  129.349
 16.9996  16511.4  129.956
 17.0416  16547.2  128.431
 17.0836  16316.8  127.292
 17.1256  16160.7  126.691
 17.1676  16340  127.379
 17.2096  16065.1  126.184
 17.2516  16078.2  126.017
 17.2936  15881.3  125.575
 17.3356  15548.6  124.25
 17.3776  15697.7  125.033
 17.4196  15878.8  125.443
 17.4616  15468.4  123.732
 17.5036  15533.3  124.36
 17.5456  15200.2  123.659
 17.5876  15213.6  122.76
 17.6296  15371.5  123.215
 17.6716  15225.5  123.202
 17.7136  15315.6  123.706
 17.7556  15009.5  122.757
 17.7976  15188.1  123.227
 17.8396  15063.2  122.213
 17.8816  15127.2  123.027
 17.9236  14891.1  121.869
 17.9656  15186.8  123.617
 18.0076  15189.8  123.201
 18.0496  15388.1  123.117
 18.0916  16444.5  127.842
 18.1336  15892.5  125.775
 18.1756  15378.5  123.246
 18.2176  15283.4  123.102
 18.2596  14930.4  121.409
 18.3016  15181.3  122.679
 18.3436  15360.6  123.41
 18.3856  14916.2  121.743
 18.4276  14942.9  121.523
 18.4696  14862.1  121.298
 18.5116  14820.9  121.418
 18.5536  14892.9  122.069
 18.5956  14657.9  120.649
 18.6376  14746.1  121.431
 18.6796  14732.8  120.689
 18.7216  14856.2  121.689
 18.7636  14544.7  120.392
 18.8056  14500.9  120.151
 18.8476  14380.6  120.285
 18.8896  14327.2  119.392
 18.9316  14773.7  121.226
 18.9736  14457.5  119.612
 19.0156  14563.7  120.466
 19.0576  14437.7  118.794
 19.0996  14587.1  120.128
 19.1416  14261.3  119.172
 19.1836  14403.1  119.363
 19.2256  14261.4  118.991
 19.2676  14220.2  118.912
 19.3096  14430  120.03
 19.3516  14270  119.324
 19.3936  14262.6  119.195
 19.4356  14249.9  119.005
 19.4776  14410.3  119.776
 19.5196  14190.9  118.71
 19.5616  14040.1  118.334
 19.6036  14337.9  119.068
 19.6456  14304.8  119.056
 19.6876  14435.2  119.243
 19.7296  14070.1  118.178
 19.7716  14244.8  119.077
 19.8136  14377.5  119.836
 19.8556  14637.6  120.388
 19.8976  14711.5  120.758
 19.9396  14788.5  120.632
 19.9816  15000  121.752
 20.0236  14963  121.82
 20.0656  14685.3  120.681
 20.1076  14266.3  119.406
 20.1496  14205.4  119.163
 20.1916  14051.5  118.029
 20.2336  14135.6  118.317
 20.2756  13744.4  117.095
 20.3176  13856  117.316
 20.3596  13738.9  116.798
 20.4016  13729.8  116.557
 20.4436  13755.2  117.226
 20.4856  13452.3  115.721
 20.5276  13547.2  116.588
 20.5696  13527.2  115.959
 20.6116  13516.3  116.195
 20.6536  13386  115.143
 20.6956  13493.5  115.714
 20.7376  13429.9  115.685
 20.7796  13439.4  115.41
 20.8216  13578.5  115.71
 20.8636  13389.3  115.266
 20.9056  13687.9  116.5
 20.9476  13353.9  114.911
 20.9896  13781.2  116.595
 21.0316  13448.3  115.079
 21.0736  13312  115.01
 21.1156  13526.2  116.097
 21.1576  13430  115.733
 21.1996  13210.3  114.755
 21.2416  13223.3  114.647
 21.2836  13444.1  115.562
 21.3256  13152.2  114.382
 21.3676  13424.7  115.107
 21.4096  13126.6  114.131
 21.4516  13130.5  114.03
 21.4936  12885.3  113.212
 21.5356  13087.3  114.04
 21.5776  13219  114.446
 21.6196  13179.3  114.313
 21.6616  13065.1  113.901
 21.7036  12998.5  113.389
 21.7456  13009.2  113.509
 21.7876  12935.1  112.937
 21.8296  12917.4  112.715
 21.8716  12965.2  113.154
 21.9136  13072  113.822
 21.9556  12959.2  113.003
 21.9976  12815.5  112.389
 22.0396  12909.9  113.048
 22.0816  12946.3  113.764
 22.1236  13065.5  113.73
 22.1656  12961.2  113.401
 22.2076  12926  112.725
 22.2496  12888.2  112.586
 22.2916  12901.7  112.525
 22.3336  12967.1  113.546
 22.3756  12850.2  112.749
 22.4176  12872.5  112.704
 22.4596  12634.4  112.245
 22.5016  12936.5  113.061
 22.5436  12968.4  113.085
 22.5856  12819.2  112.682
 22.6276  12928.9  113.302
 22.6696  12783.2  113.011
 22.7116  12805  112.62
 22.7536  12805.5  112.599
 22.7956  12973.3  112.657
 22.8376  12710.7  112.035
 22.8796  12880.7  112.577
 22.9216  12889.9  113.171
 22.9636  12756.2  111.731
 23.0056  12728.9  111.747
 23.0476  13029.8  113.63
 23.0896  13294.4  114.15
 23.1316  13060.6  113.582
 23.1736  12833.7  115.568
 23.2156  12837.2  112.932
 23.2576  12743.6  112.648
 23.2996  12701.6  112.252
 23.3416  12501.6  111.875
 23.3836  12705.2  112.019
 23.4256  12696.7  112.098
 23.4676  12792.8  112.22
 23.5096  12757  112.74
 23.5516  12744.3  111.963
 23.5936  12588.3  112.174
 23.6356  13024.6  113.765
 23.6776  12868.5  113.298
 23.7196  12698.7  112.122
 23.7616  12842  112.67
 23.8036  12776.8  112.431
 23.8456  12713.4  111.714
 23.8876  12436.4  110.835
 23.9296  12420.9  111.264
 23.9716  12273.1  109.806
 24.0136  12521.3  111.809
 24.0556  12296  110.529
 24.0976  12236.8  110.072
 24.1396  12188  112.508
 24.1816  12384.6  111.816
 24.2236  12298.1  111.026
 24.2656  12131.1  109.747
 24.3076  12263.1  110.589
 24.3496  12190.7  110.158
 24.3916  12071.6  109.669
 24.4336  12066.4  109.854
 24.4756  12042.8  109.615
 24.5176  11875.3  108.498
 24.5596  11845.6  108.49
 24.6016  11686.1  108.043
 24.6436  11996.8  108.948
 24.6856  11849.8  108.044
 24.7276  11847.1  108.348
 24.7696  11734.4  107.948
 24.8116  11753.5  108.218
 24.8536  11850.2  108.654
 24.8956  11469.3  106.637
 24.9376  11655.6  107.438
 24.9796  11310.5  106.188
 25.0216  11410.8  106.766
 25.0636  11504.2  106.854
 25.1056  11329  106.746
 25.1476  11473.9  109.116
 25.1896  11502.8  107.705
 25.2316  11538.5  107.133
 25.2736  11419.2  106.23
 25.3156  11427.3  106.344
 25.3576  11300.3  106.175
 25.3996  11346.7  106.371
 25.4416  11414.9  106.679
 25.4836  11089.3  105.668
 25.5256  11345.8  106.239
 25.5676  11324  105.865
 25.6096  11182.8  105.775
 25.6516  11257.8  105.63
 25.6936  11135.6  105.368
 25.7356  11113  105.39
 25.7776  11216.8  105.49
 25.8196  11152.6  105.422
 25.8616  11279.9  105.94
 25.9036  11241.7  105.232
 25.9456  11089.7  105.113
 25.9876  11127.6  105.36
 26.0296  11127.6  104.872
 26.0716  11090  105.116
 26.1136  11256.3  105.845
 26.1556  11269.3  105.277
 26.1976  11057.9  105.211
 26.2396  10942.9  103.817
 26.2816  11056.4  104.977
 26.3236  11173.6  105.689
 26.3656  11069.4  104.915
 26.4076  11047.1  105.023
 26.4496  11511.6  106.681
 26.4916  11212.2  105.292
 26.5336  11054.6  104.878
 26.5756  11572.1  107.098
 26.6176  11039.2  104.718
 26.6596  10922  104.473
 26.7016  10970.6  104.459
 26.7436  10706.9  103.323
 26.7856  10684.6  103.201
 26.8276  10719.3  103.324
 26.8696  10822.2  103.691
 26.9116  10713  103.095
 26.9536  10580.9  102.513
 26.9956  10754.2  103.388
 27.0376  10584.5  102.78
 27.0796  10807.2  103.592
 27.1216  10620.9  102.765
 27.1636  10471.5  102.207
 27.2056  10594.4  102.687
 27.2476  10445.5  101.964
 27.2896  10550.9  102.588
 27.3316  10527  102.184
 27.3736  10544.4  102.534
 27.4156  10379.5  101.568
 27.4576  10517.4  102.478
 27.4996  10423.9  101.611
 27.5416  10336.1  101.503
 27.5836  10517.1  102.202
 27.6256  10812.5  103.78
 27.6676  10728.4  103.415
 27.7096  10507.8  102.216
 27.7516  10518.5  102.42
 27.7936  10547.7  102.73
 27.8356  10477.3  102.003
 27.8776  10488.6  102.099
 27.9196  10290  100.978
 27.9616  10412.5  101.773
 28.0036  10512.1  102.231
 28.0456  10327.9  101.465
 28.0876  10167.7  100.766
 28.1296  10228.2  100.904
 28.1716  10273.9  101.139
 28.2136  10278.2  101.122
 28.2556  10055.7  100.137
 28.2976  10076.1  100.231
 28.3396  10254  100.863
 28.3816  10192.3  100.587
 28.4236  10252.6  101.04
 28.4656  10048.3  100.064
 28.5076  10123  100.069
 28.5496  10046.9  99.9548
 28.5916  10177.6  100.408
 28.6336  9893.23  99.3353
 28.6756  10109  99.6074
 28.7176  10046  99.8504
 28.7596  9913.84  99.0886
 28.8016  10080.5  99.951
 28.8436  9904.7  99.3195
 28.8856  10032.7  99.8083
 28.9276  9838.22  99.0824
 28.9696  9893.03  99.0066
 29.0116  9975.53  99.6145
 29.0536  9818.81  99.0268
 29.0956  9884.2  99.0734
 29.1376  9950.88  99.3696
 29.1796  9898.72  99.1557
 29.2216  9839.31  98.697
 29.2636  9795.65  98.5549
 29.3056  9932.23  99.0294
 29.3476  9820.68  98.9972
 29.3896  9906.02  99.5191
 29.4316  10051.5  99.5829
 29.4736  9870.94  98.7477
 29.5156  9942.33  99.0095
 29.5576  9918  99.6546
 29.5996  9834.92  98.486
 29.6416  9806.89  98.462
 29.6836  9858.45  98.6521
 29.7256  9800.72  98.9308
 29.7676  9868.81  98.9285
 29.8096  9817.09  98.6155
 29.8516  9615.56  97.9274
 29.8936  9879.79  99.3615
 29.9356  9846.55  98.9457
 29.9776  9668.85  98.2051
 30.0196  9713.05  97.8153
 30.0616  9657.74  97.9084
 30.1036  9671.4  97.8025
 30.1456  9659.46  97.977
 30.1876  9644.19  97.878
 30.2296  9684.41  98.0288
 30.2716  9751.91  98.0017
 30.3136  9633.7  98.266
 30.3556  9670.76  98.4691
 30.3976  9539.59  99.3173
 30.4396  9682.55  97.382
 30.4816  9743.85  97.2768
 30.5236  9624.64  96.7021
 30.5656  9566.33  97.0644
 30.6076  9641.89  96.8736
 30.6496  9731.4  97.7121
 30.6916  9496.44  96.6159
 30.7336  9539.39  96.9868
 30.7756  9565.53  97.2107
 30.8176  9530.29  96.9505
 30.8596  9535.12  96.7409
 30.9016  9625.94  97.5484
 30.9436  9481.52  96.5669
 30.9856  9402.75  96.2712
 31.0276  9354.43  95.633
 31.0696  9314.74  96.0046
 31.1116  9353.69  96.1814
 31.1536  9570.15  97.1699
 31.1956  9392.36  96.351
 31.2376  9309.96  95.9376
 31.2796  9384.68  95.8563
 31.3216  9408.93  95.9212
 31.3636  9357.29  96.3541
 31.4056  9328.8  97.5316
 31.4476  9396.23  95.7521
 31.4896  9288.15  95.7069
 31.5316  9537.12  96.3719
 31.5736  9670.8  96.8352
 31.6156  9444.09  95.7412
 31.6576  9501.56  96.1225
 31.6996  9385.62  95.2119
 31.7416  9217.44  95.4136
 31.7836  9425.28  95.4897
 31.8256  9322.86  95.242
 31.8676  9399.46  95.6284
 31.9096  9098.22  94.4416
 31.9516  9087.77  94.5466
 31.9936  9155.42  94.7209
 32.0356  9333.17  95.6965
 32.0776  9171.78  94.7561
 32.1196  9181.1  94.8982
 32.1616  9291.01  94.9171
 32.2036  9104.03  94.4627
 32.2456  9180.06  95.2398
 32.2876  9246.53  95.0803
 32.3296  9126.71  94.4262
 32.3716  9134.11  94.5729
 32.4136  9124.18  94.7344
 32.4556  9352.41  95.2765
 32.4976  9172.81  94.2671
 32.5396  9250.44  94.7379
 32.5816  9041.27  93.7744
 32.6236  9267.99  95.0163
 32.6656  9185.83  95.1427
 32.7076  8985.35  93.7531
 32.7496  9061.21  93.8192
 32.7916  9112.48  94.0402
 32.8336  9134.13  94.2519
 32.8756  9221.5  94.418
 32.9176  9037.88  93.9596
 32.9596  9054.45  94.1202
 33.0016  9058.3  93.9329
 33.0436  9194.3  94.8105
 33.0856  8936.79  93.5371
 33.1276  8922.53  93.1989
 33.1696  9045.93  93.6851
 33.2116  9092.25  94.1579
 33.2536  9040.1  93.8821
 33.2956  9036.32  93.948
 33.3376  8976.63  93.3737
 33.3796  9011.41  93.7658
 33.4216  9093.59  93.7832
 33.4636  9007.33  93.4856
 33.5056  8894.76  93.1447
 33.5476  8844.15  92.8609
 33.5896  9018.01  93.5435
 33.6316  8865.92  93.068
 33.6736  8883.1  93.4058
 33.7156  8808.79  93.0564
 33.7576  8976.07  93.5554
 33.7996  9055  93.7344
 33.8416  8781.84  92.5005
 33.8836  8846.45  92.6154
 33.9256  8955.78  93.2445
 33.9676  8995.67  93.3447
 34.0096  8758.16  92.4195
 34.0516  8832.66  92.4501
 34.0936  8829.91  92.7062
 34.1356  8856.31  92.5776
 34.1776  8807.4  92.3347
 34.2196  8795.49  92.4546
 34.2616  8642.48  91.7819
 34.3036  8638.98  92.0121
 34.3456  8689.3  92.0345
 34.3876  8779.57  92.4723
 34.4296  8801.54  92.2695
 34.4716  8793.94  92.3848
 34.5136  8791.17  92.5779
 34.5556  8652.93  92.1039
 34.5976  8827.28  92.8209
 34.6396  8731.86  92.0368
 34.6816  8703.24  91.9941
 34.7236  8727.4  91.9085
 34.7656  8694.76  91.924
 34.8076  8619.62  91.8553
 34.8496  8690.48  92.0877
 34.8916  8544.19  91.1858
 34.9336  8805.56  92.5291
 34.9756  8675.38  91.7622
 35.0176  8835.93  93.1525
 35.0596  8476.64  91.0577
 35.1016  8637.97  91.6917
 35.1436  8707.71  91.7413
 35.1856  8563.91  91.1123
 35.2276  8597.46  91.4653
 35.2696  8565.1  91.4825
 35.3116  8622.09  91.8795
 35.3536  8490.21  90.8879
 35.3956  8575.75  91.0424
 35.4376  8514.03  91.2769
 35.4796  8694.18  92.3024
 35.5216  8623.51  91.8788
 35.5636  8388.77  91.3662
 35.6056  8580.39  91.4137
 35.6476  8615.84  91.5002
 35.6896  8624.26  91.6348
 35.7316  8488.63  90.8832
 35.7736  8419.25  90.706
 35.8156  8498.74  91.1329
 35.8576  8564.38  91.7376
 35.8996  8592.99  91.8573
 35.9416  8533.95  91.0505
 35.9836  8469.07  91.047
 36.0256  8616.32  91.8555
 36.0676  8623.9  91.6519
 36.1096  8507.95  91.1665
 36.1516  8508.59  91.0591
 36.1936  8527.98  91.0145
 36.2356  8474.29  91.3706
 36.2776  8432.84  90.6262
 36.3196  8378.77  90.0052
 36.3616  8421.36  90.3607
 36.4036  8517.07  90.9313
 36.4456  8528.53  91.2052
 36.4876  8320.23  90.0187
 36.5296  8420.05  90.6056
 36.5716  8316.88  90.8324
 36.6136  8623.32  91.2367
 36.6556  8537.84  90.9955
 36.6976  8406.67  90.7938
 36.7396  8437.04  90.6868
 36.7816  8433.38  91.0453
 36.8236  8470.69  91.1664
 36.8656  8377.09  90.7343
 36.9076  8403.89  90.7575
 36.9496  8420.76  90.8351
 36.9916  8283.37  89.7204
 37.0336  8495.08  91.1787
 37.0756  8384.04  90.3689
 37.1176  8234.97  89.8341
 37.1596  8329.16  90.3516
 37.2016  8313.54  90.4961
 37.2436  8340.54  89.9551
 37.2856  8281.37  89.8835
 37.3276  8444.72  90.1129
 37.3696  8309.98  90.2859
 37.4116  8268.44  89.963
 37.4536  8317.68  90.0987
 37.4956  8164.88  89.3078
 37.5376  8226.1  91.2083
 37.5796  8161.05  90.7967
 37.6216  8103.1  88.7427
 37.6636  8269.22  89.5468
 37.7056  8086.82  88.7402
 37.7476  8217.74  88.9887
 37.7896  8222.84  89.5217
 37.8316  7965.79  88.2868
 37.8736  8205.31  89.1235
 37.9156  8209.67  89.1497
 37.9576  8096.51  88.4244
 37.9996  8017.63  87.7128
 38.0416  8143.61  89.2113
 38.0836  8288.24  89.9021
 38.1256  8106.24  88.8442
 38.1676  7893.89  87.835
 38.2096  8099.69  88.5923
 38.2516  8196.62  89.3278
 38.2936  8205.24  89.1684
 38.3356  8238.65  89.2677
 38.3776  8118.47  88.8909
 38.4196  8156.45  88.9516
 38.4616  8018.45  88.4253
 38.5036  8280.27  89.7046
 38.5456  8023.56  89.1466
 38.5876  8090.88  89.5486
 38.6296  8013.06  88.0867
 38.6716  7914.59  87.3377
 38.7136  8032.39  87.929
 38.7556  7939.69  87.9239
 38.7976  7963.12  87.993
 38.8396  7980.71  88.5399
 38.8816  8008.59  88.4638
 38.9236  7983.28  88.1481
 38.9656  8039.8  88.3714
 39.0076  8053.09  87.8449
 39.0496  8027.6  88.2522
 39.0916  7975.01  87.5957
 39.1336  7936.17  87.8096
 39.1756  7960.13  88.008
 39.2176  7905.02  88.2371
 39.2596  7919.39  88.2362
 39.3016  7839.98  87.3561
 39.3436  7855.19  87.8758
 39.3856  8117.88  88.7732
 39.4276  8029.55  88.7842
 39.4696  7940.04  87.9187
 39.5116  7922.29  88.3304
 39.5536  8209.44  90.3558
 39.5956  8155.54  89.1435
 39.6376  8009.68  88.3474
 39.6796  8001.56  88.0449
 39.7216  8063  88.4806
 39.7636  7939.22  88.3686
 39.8056  8117.35  89.1242
 39.8476  7906.05  88.2151
 39.8896  8023.02  88.483
 39.9316  8025.74  88.7612
 39.9736  8141.41  88.9652
 40.0156  8056.19  88.319
 40.0576  7989.19  88.3169
 40.0996  8181  88.5403
 40.1416  8068.29  88.7223
 40.1836  8015.62  88.3251
 40.2256  8102.13  88.847
 40.2676  7978.98  88.2746
 40.3096  8018.98  88.4187
 40.3516  8123.55  89.1029
 40.3936  8236.91  89.2795
 40.4356  8085.48  88.6501
 40.4776  8069.61  88.9744
 40.5196  8039.92  88.9413
 40.5616  8050.66  88.6401
 40.6036  8037.76  88.8231
 40.6456  8078.47  88.6563
 40.6876  8185.22  89.2254
 40.7296  8138.87  89.1126
 40.7716  8153.36  89.323
 40.8136  8053.34  88.7168
 40.8556  8027.46  88.7047
 40.8976  8002.79  88.4875
 40.9396  7915.53  88.356
 40.9816  8133.19  88.8415
 41.0236  8102.71  88.4534
 41.0656  8150.62  89.2614
 41.1076  8135.75  88.949
 41.1496  8104.79  88.6869
 41.1916  8044.8  88.6807
 41.2336  7938.69  88.0817
 41.2756  8020.12  88.1374
 41.3176  8063.51  88.992
 41.3596  7964.48  88.1788
 41.4016  7988.07  88.5647
 41.4436  8141.16  89.1993
 41.4856  8127.05  89.2874
 41.5276  7968.11  88.4259
 41.5696  8009.84  88.29
 41.6116  7948.13  88.3391
 41.6536  8087.77  88.9713
 41.6956  7989.73  88.4781
 41.7376  7976.77  88.4417
 41.7796  7833.54  87.5305
 41.8216  7989.17  88.6298
 41.8636  8007.19  88.6694
 41.9056  7990.94  88.3626
 41.9476  8065.45  89.0157
 41.9896  8052.53  88.6025
 42.0316  8064.63  88.7552
 42.0736  7921.29  88.0724
 42.1156  7932.19  87.9712
 42.1576  7987.76  88.3804
 42.1996  7998.27  88.5806
 42.2416  8015.95  88.2534
 42.2836  7942.98  87.9705
 42.3256  7915.38  87.9303
 42.3676  7971.17  88.043
 42.4096  7970.04  87.9994
 42.4516  7987.97  88.1864
 42.4936  7892.43  87.727
 42.5356  7916.17  87.9935
 42.5776  7981.37  88.2917
 42.6196  8007.65  88.4932
 42.6616  7856.47  87.8266
 42.7036  7919.19  87.5549
 42.7456  7916.81  87.8999
 42.7876  7901.36  87.9093
 42.8296  7934.87  87.9304
 42.8716  7877.9  87.7797
 42.9136  7845.81  87.3873
 42.9556  8032.15  88.55
 42.9976  7952.15  88.076
 43.0396  7844.11  87.2058
 43.0816  7816.59  87.4308
 43.1236  7830.76  87.5693
 43.1656  7851.1  87.5122
 43.2076  7855.99  87.6426
 43.2496  7871.29  87.538
 43.2916  7764.06  87.3094
 43.3336  7881.9  87.8023
 43.3756  7797.74  87.0861
 43.4176  7691.68  86.5779
 43.4596  7675.71  86.3442
 43.5016  7799.95  87.4469
 43.5436  7731.79  86.9599
 43.5856  7780.27  87.2639
 43.6276  7810.04  87.3235
 43.6696  7713.55  87.0406
 43.7116  7924.84  87.7161
 43.7536  7817.3  87.6092
 43.7956  7739.5  88.3652
 43.8376  7731.95  86.8582
 43.8796  7708.92  86.8161
 43.9216  7715.37  86.7708
 43.9636  7728.51  86.9523
 44.0056  7626.55  86.6101
 44.0476  7735.12  86.8521
 44.0896  7684.36  86.912
 44.1316  7703.83  86.5396
 44.1736  7624.07  86.2064
 44.2156  7782.67  86.9636
 44.2576  7726.23  86.9752
 44.2996  7680.39  86.6826
 44.3416  7650.38  86.2762
 44.3836  7535.69  85.9516
 44.4256  7482.72  85.2976
 44.4676  7546.41  85.8171
 44.5096  7678.33  86.7099
 44.5516  7559.32  85.9933
 44.5936  7567.63  85.9951
 44.6356  7508.01  85.3978
 44.6776  7554.33  85.9807
 44.7196  7585.21  86.4608
 44.7616  7591.74  87.8299
 44.8036  7471.69  85.5595
 44.8456  7526.8  86.0759
 44.8876  7524.46  85.9169
 44.9296  7743.7  86.605
 44.9716  7512.96  85.7265
 45.0136  7483.88  85.5052
 45.0556  7516.9  85.6664
 45.0976  7572.71  86.1444
 45.1396  7432.16  85.0897
 45.1816  7490.28  85.3737
 45.2236  7576.29  85.7587
 45.2656  7463.48  85.6242
 45.3076  7512.11  85.6749
 45.3496  7362.29  85.1273
 45.3916  7332.32  85.2179
 45.4336  7455.14  85.7729
 45.4756  7284.67  84.6479
 45.5176  7511.48  85.5659
 45.5596  7535.72  85.8253
 45.6016  7467.88  85.8576
 45.6436  7513.28  85.2971
 45.6856  7401.42  85.3132
 45.7276  7227.49  85.6105
 45.7696  7412.36  86.3696
 45.8116  7470.69  86.1453
 45.8536  7358.03  85.3852
 45.8956  7410.4  85.0386
 45.9376  7363.68  84.2373
 45.9796  7334.24  84.7462
 46.0216  7479.88  85.9272
 46.0636  7477.35  85.063
 46.1056  7427.84  84.7616
 46.1476  7247.32  84.3133
 46.1896  7348.57  85.0507
 46.2316  7366.36  85.025
 46.2736  7099.8  83.8307
 46.3156  7463.6  85.535
 46.3576  7395.81  85.3501
 46.3996  7366.54  85.3416
 46.4416  7293.62  84.4904
 46.4836  7338.97  85.1116
 46.5256  7459.66  85.745
 46.5676  7293.74  84.9021
 46.6096  7353.5  85.1797
 46.6516  7449.56  84.7763
 46.6936  7333.69  84.5998
 46.7356  7397.06  85.069
 46.7776  7385.1  85.8521
 46.8196  7343.52  85.2061
 46.8616  7122.65  83.8634
 46.9036  7223.63  84.1079
 46.9456  7215.64  83.7091
 46.9876  7300.04  84.28
 47.0296  7224.46  84.5255
 47.0716  7211.67  84.2763
 47.1136  7200.68  83.8906
 47.1556  7266.74  84.1483
 47.1976  7317.21  84.5114
 47.2396  7160.85  84.0043
 47.2816  7155.62  83.6784
 47.3236  7222.94  84.4377
 47.3656  7246.29  84.505
 47.4076  7105.74  83.4861
 47.4496  7090.69  83.493
 47.4916  7116.51  83.8275
 47.5336  7168.25  83.9491
 47.5756  7183.4  84.1521
 47.6176  7136.54  83.7848
 47.6596  7071.76  83.1187
 47.7016  7333.63  84.4498
 47.7436  7193.07  83.9813
 47.7856  7250.86  84.3453
 47.8276  7213.42  84.1728
 47.8696  7087.69  83.5243
 47.9116  7142  83.5549
 47.9536  7108.78  83.3015
 47.9956  7160.14  84.3136
 48.0376  7039.99  83.3805
 48.0796  7112.7  83.9331
 48.1216  7233.49  84.4525
 48.1636  7294.36  84.3905
 48.2056  7269.73  84.5136
 48.2476  7147.26  84.104
 48.2896  7108.37  83.7878
 48.3316  7108.64  83.7313
 48.3736  7045.25  83.378
 48.4156  6998.61  82.9603
 48.4576  6939.35  82.8936
 48.4996  7136.32  83.5229
 48.5416  7093.64  83.5934
 48.5836  7055.04  83.0434
 48.6256  7084.57  83.4311
 48.6676  7047.88  83.7195
 48.7096  7089.72  83.2421
 48.7516  7069.11  83.2618
 48.7936  6938.92  82.5561
 48.8356  7090.65  83.5035
 48.8776  7009.31  83.5942
 48.9196  7189.72  84.0213
 48.9616  7061.67  83.6569
 49.0036  7052.62  83.9474
 49.0456  6916.91  83.1153
 49.0876  7038.23  83.376
 49.1296  6886.84  82.6379
 49.1716  6900.99  82.5996
 49.2136  7019.11  83.2202
 49.2556  7024.32  83.2894
 49.2976  6969.2  83.0266
 49.3396  6933.31  82.867
 49.3816  7016.99  82.8122
 49.4236  6997.01  83.1142
 49.4656  6926.78  82.7112
 49.5076  6924.26  82.4453
 49.5496  6867.43  82.1686
 49.5916  7008.75  82.9263
 49.6336  6915.07  82.5679
 49.6756  6922.46  82.8507
 49.7176  6929.25  82.83
 49.7596  6903.06  82.4406
 49.8016  6943.49  82.6044
 49.8436  6889.34  82.5802
 49.8856  6801.19  82.052
 49.9276  6806.07  82.1742
 49.9696  6875.95  82.5859
 50.0116  6854.54  82.5739
 50.0536  6926.96  82.9673
 50.0956  6825.37  82.4208
 50.1376  6854.07  82.3002
 50.1796  6762.44  82.0153
 50.2216  6776.66  82.0931
 50.2636  6769.34  81.6749
 50.3056  6769.72  81.8505
 50.3476  6796.28  82.0296
 50.3896  6737.13  81.6392
 50.4316  6851.65  82.1737
 50.4736  6657.72  81.2171
 50.5156  6750.47  81.7667
 50.5576  6876.3  82.29
 50.5996  6795.73  82.0826
 50.6416  6792.7  81.9934
 50.6836  6710.05  81.5551
 50.7256  6821.06  82.1486
 50.7676  6787.64  82.2623
 50.8096  6799.94  81.8765
 50.8516  6817.07  82.397
 50.8936  6693.51  81.436
 50.9356  6751.04  81.8838
 50.9776  6776.73  82.1846
 51.0196  6635.19  81.4595
 51.0616  6725.78  81.3427
 51.1036  6769.97  81.9644
 51.1456  6768.7  81.8686
 51.1876  6891.66  81.9492
 51.2296  6731.79  81.6228
 51.2716  6673.03  80.9731
 51.3136  6660.48  81.3504
 51.3556  6673.14  81.0544
 51.3976  6631.18  80.9458
 51.4396  6575.22  80.8982
 51.4816  6485.11  80.2068
 51.5236  6658.15  81.3553
 51.5656  6649.35  80.9106
 51.6076  6679.35  81.1758
 51.6496  6655.26  81.2174
 51.6916  6678.34  81.7051
 51.7336  6622.63  81.463
 51.7756  6669.74  81.4529
 51.8176  6648.05  81.4212
 51.8596  6624.07  81.2919
 51.9016  6803.85  81.9935
 51.9436  6566.59  81.9757
 51.9856  6546.29  82.2881
 52.0276  6582.32  81.0407
 52.0696  6620.94  81.3405
 52.1116  6573.14  81.1622
 52.1536  6612.89  81.2922
 52.1956  6613.14  80.7638
 52.2376  6683.05  81.3626
 52.2796  6610.44  80.723
 52.3216  6447.38  80.4077
 52.3636  6610.35  81.0006
 52.4056  6557.49  80.5213
 52.4476  6502.81  80.5566
 52.4896  6468.63  80.3997
 52.5316  6483.67  80.538
 52.5736  6549.35  80.6738
 52.6156  6554.48  81.0778
 52.6576  6652.96  81.1299
 52.6996  6439.48  80.7745
 52.7416  6533.09  81.2157
 52.7836  6490.46  80.8289
 52.8256  6572.65  80.5747
 52.8676  6442.68  80.3349
 52.9096  6478.6  80.6511
 52.9516  6414.48  80.628
 52.9936  6440.05  81.1676
 53.0356  6350.52  79.6163
 53.0776  6376.95  80.0417
 53.1196  6308.79  79.7352
 53.1616  6325.53  79.8888
 53.2036  6294.61  79.6462
 53.2456  6332.13  79.9848
 53.2876  6310.83  79.5614
 53.3296  6367.89  80.2438
 53.3716  6342.76  79.832
 53.4136  6406.18  80.3817
 53.4556  6314.68  79.8329
 53.4976  6302.41  79.6066
 53.5396  6374.12  80.4484
 53.5816  6278.85  79.4831
 53.6236  6391.98  80.533
 53.6656  6420.99  80.3506
 53.7076  6321.93  79.6882
 53.7496  6325.41  79.8256
 53.7916  6415.74  80.5232
 53.8336  6369.28  80.1273
 53.8756  6310.48  80.3008
 53.9176  6370.93  80.0331
 53.9596  6329.64  80.5424
 54.0016  6356.87  80.0432
 54.0436  6362.6  80.2978
 54.0856  6366.46  79.7517
 54.1276  6337.77  79.77
 54.1696  6392.69  80.2874
 54.2116  6364.4  79.8617
 54.2536  6366.79  79.6896
 54.2956  6375.06  79.7951
 54.3376  6235.83  79.3932
 54.3796  6345.76  79.9937
 54.4216  6368.97  80.178
 54.4636  6405.87  80.3779
 54.5056  6345.21  79.814
 54.5476  6297.24  79.8422
 54.5896  6337.47  79.9347
 54.6316  6259.6  79.2984
 54.6736  6348.81  79.9342
 54.7156  6248.87  79.3319
 54.7576  6299.53  79.6469
 54.7996  6307.71  79.8338
 54.8416  6249.41  79.515
 54.8836  6192.63  79.2634
 54.9256  6286.38  79.6132
 54.9676  6344.31  79.8299
 55.0096  6293.01  79.5746
 55.0516  6327.81  80.03
 55.0936  6257.35  79.2211
 55.1356  6256.91  79.2587
 55.1776  6231.53  79.361
 55.2196  6288.95  79.5078
 55.2616  6308.52  79.8483
 55.3036  6225.58  79.4731
 55.3456  6188.03  79.3885
 55.3876  6279.53  79.716
 55.4296  6289.14  79.7482
 55.4716  6250.9  79.5463
 55.5136  6294.81  79.5832
 55.5556  6216.95  79.1516
 55.5976  6268.25  79.5377
 55.6396  6197.58  79.035
 55.6816  6247.66  79.2347
 55.7236  6237.76  79.2034
 55.7656  6349.27  79.6763
 55.8076  6304.82  79.3787
 55.8496  6230.02  79.2248
 55.8916  6173.9  79.0748
 55.9336  6201.23  79.0536
 55.9756  6253.05  79.2832
 56.0176  6234.11  79.3161
 56.0596  6174.66  78.9195
 56.1016  6249.84  79.4091
 56.1436  6203.17  79.3765
 56.1856  6223.39  79.2496
 56.2276  6241.75  79.4175
 56.2696  6309.17  79.8194
 56.3116  6200.8  79.5288
 56.3536  6257.58  79.5532
 56.3956  6189.81  79.1134
 56.4376  6244.24  79.4939
 56.4796  6249.4  79.3295
 56.5216  6152.92  79.0841
 56.5636  6281.73  79.4982
 56.6056  6127.37  78.7384
 56.6476  6256.74  79.1955
 56.6896  6269.32  79.7134
 56.7316  6219.49  79.3143
 56.7736  6218.04  79.304
 56.8156  6205.52  79.2232
 56.8576  6161.92  78.8914
 56.8996  6171.39  78.881
 56.9416  6160.78  79.1212
 56.9836  6168.19  78.6773
 57.0256  6083.17  78.4541
 57.0676  6156.72  79.0453
 57.1096  6233.89  79.3288
 57.1516  6228.36  79.3636
 57.1936  6216.87  79.0337
 57.2356  6193.81  79.2103
 57.2776  6194.33  79.1676
 57.3196  6179.21  79.4402
 57.3616  6190.18  79.0026
 57.4036  6237.68  79.3658
 57.4456  6212.52  79.1716
 57.4876  6144.4  78.5938
 57.5296  6078.94  78.5123
 57.5716  6173.25  79.1055
 57.6136  6167.18  78.8912
 57.6556  6214.14  79.3258
 57.6976  6190.75  79.0011
 57.7396  6084.09  78.6935
 57.7816  6102.26  79.1665
 57.8236  6057.24  78.6655
 57.8656  6128.82  78.7928
 57.9076  6111.13  78.7029
 57.9496  6177.42  79.4845
 57.9916  6123.71  78.648
 58.0336  6103.64  78.7971
 58.0756  6165.71  78.8283
 58.1176  6178.39  78.909
 58.1596  6022.58  78.4649
 58.2016  6215.51  78.9332
 58.2436  6381.09  80.4049
 58.2856  6153.52  78.8753
 58.3276  6220.56  79.6823
 58.3696  6032.88  78.2148
 58.4116  6140.19  78.7755
 58.4536  6182.93  78.9389
 58.4956  6121.05  78.7224
 58.5376  6214.94  78.8878
 58.5796  6145.72  78.8723
 58.6216  6181.93  78.9212
 58.6636  6202.64  79.2699
 58.7056  6118.06  78.5852
 58.7476  6145.92  79.2123
 58.7896  6199.55  79.197
 58.8316  6207.17  79.2413
 58.8736  6159.01  78.9409
 58.9156  6135.28  78.8349
 58.9576  6229.43  79.7578
 58.9996  6274.62  79.2776
 59.0416  6374.66  80.2744
 59.0836  6206.8  79.1455
 59.1256  6071.1  78.9724
 59.1676  6098.05  79.4544
 59.2096  6224.5  79.5774
 59.2516  6387.94  80.1846
 59.2936  6260.63  79.7155
 59.3356  6250.58  79.5272
 59.3776  6162.64  79.1364
 59.4196  6193.26  79.2685
 59.4616  6117.71  78.6421
 59.5036  6133.43  78.7786
 59.5456  6414.4  80.2469
 59.5876  6245.26  79.3761
 59.6296  6248.05  79.4643
 59.6716  6256.58  79.5774
 59.7136  6416.57  80.5764
 59.7556  6221.89  79.4832
 59.7976  6131.22  78.6421
 59.8396  6192.6  78.9277
 59.8816  6170.42  79.3377
 59.9236  6456.45  80.7871
 59.9656  6220.45  79.5615
 60.0076  6318.26  79.5272
 60.0496  6255.8  79.6458
 60.0916  6374  79.797
 60.1336  6118.24  79.2942
 60.1756  6278.34  81.5325
 60.1996  0.0000000E+00  0.0000000E+00