File: docs/examples/opeando_xrd/IS17_D/Data/IS17_D/17_Da_f00027.xye
# /beamlines/bl04/projects/cycle2025-II/20250340211-lsimonelli/DATA/IS17_D/17_Da_f00027.xye : mythproc.py merge -s 0.006 -l 0.5 -f /beamlines/bl04/inhouse/ff/FlatField/ff_20Nov2024rod8mm60s_17keV.raw -b True -c true -o xye /beamlines/bl04/projects/cycle2025-II/20250340211-lsimonelli/DATA/IS17_D/17_Da_00027.dat
# IsMon = [6765212, 6770900, 6768962]  IsPos = [-1.4999, -2.4884, -3.4988]
# Wave = 0.4962  CalPath /beamlines/bl04/projects/cycle2025-II/20250340211-lsimonelli/DATA/Align/Si_Pos1_25keV_f00001.cal
# Date = 2025-09-24_01:04:26 Dt = 4.8000  Bin = 0.0060  <imon> = 6768358 +/- 2361 (Min/Max) 6765212 / 6770900
# icurr 251.5839  mocoIn 1.7166E-05  mocoOut 0.8050  i15 7.08591e+06  imon 6.76836e+06  i7 10.0000  iEMpd_timer 4.8000  iEMpd_1 3.5708E-08  iEMpd_2 7.7504E-08  iEMpd_3 1.7361E-08  iEMpd_4 4.9604E-08  iEMhp_timer 4.8000  iEMhp_1 4.9158E-06  iEMhp_2 -2.4961E-08  iEMhp_3 -2.4360E-08  iEMhp_4 -2.1096E-08
#      9776
 1.5856  39864.8  205.068
 1.6276  47021.1  218.894
 1.6696  53449.1  232.554
 1.7116  62467.7  251.901
 1.7536  71403.2  268.168
 1.7956  76412.7  278.108
 1.8376  72874.4  272.023
 1.8796  60300.6  245.629
 1.9216  49216.4  222.789
 1.9636  40913.3  202.296
 2.0056  36550.2  190.464
 2.0476  34029.1  185.793
 2.0896  32359  180.114
 2.1316  31761.1  177.585
 2.1736  29845.2  173.511
 2.2156  30512.6  174.032
 2.2576  29507.3  171.754
 2.2996  28477.7  169.351
 2.3416  28949.5  169.384
 2.3836  28393.7  167.855
 2.4256  27494  165.712
 2.4676  26528  162.544
 2.5096  26597  162.809
 2.5516  26076.3  164.902
 2.5936  26155  161.82
 2.6356  25692.5  161.061
 2.6776  25417  159.101
 2.7196  25173.4  158.85
 2.7616  24960.9  157.961
 2.8036  24566.5  156.876
 2.8456  24648.7  157.741
 2.8876  24144.5  155.988
 2.9296  23740.6  154.811
 2.9716  23698.7  154.176
 3.0136  23476.9  153.519
 3.0556  23526.2  154.07
 3.0976  23204.3  151.977
 3.1396  23245.9  152.815
 3.1816  22922.5  151.674
 3.2236  22810.2  151.302
 3.2656  22838.5  150.448
 3.3076  22691.3  151.396
 3.3496  22948.8  151.198
 3.3916  23158.2  151.727
 3.4336  23650.7  153.9
 3.4756  23924.3  154.724
 3.5176  24909.4  157.67
 3.5596  24851.2  159.888
 3.6016  25031.8  158.106
 3.6436  24196.5  156.521
 3.6856  23635  153.03
 3.7276  22758.3  151.228
 3.7696  22730.9  151.33
 3.8116  22362  149.989
 3.8536  22308.7  149.751
 3.8956  22181.8  149.148
 3.9376  22109  149.149
 3.9796  22178.9  148.904
 4.0216  22183.3  147.965
 4.0636  22263.3  149.69
 4.1056  22246.2  149.271
 4.1476  22388.3  150.077
 4.1896  22500.4  150.302
 4.2316  22782.7  151.078
 4.2736  23247.3  152.395
 4.3156  23539.8  153.579
 4.3576  24256.5  155.814
 4.3996  24434.8  156.645
 4.4416  25151.2  158.519
 4.4836  25463.1  159.641
 4.5256  25782.8  161.258
 4.5676  25882.4  161.817
 4.6096  26470.3  162.319
 4.6516  26980  163.577
 4.6936  26934  164.243
 4.7356  27288.6  165.152
 4.7776  27236.8  164.819
 4.8196  26868.5  164.357
 4.8616  26572.5  162.925
 4.9036  26156  161.403
 4.9456  26217.9  162.234
 4.9876  25775.4  160.76
 5.0296  25741.4  160.466
 5.0716  25664  161.001
 5.1136  26001.5  161.765
 5.1556  26225  161.92
 5.1976  26681.4  163.333
 5.2396  26741.3  163.208
 5.2816  26637.1  163.355
 5.3236  26765.1  163.443
 5.3656  26302.4  162.941
 5.4076  25999.3  162.148
 5.4496  26159.8  162.13
 5.4916  26319.6  162.387
 5.5336  26072.7  161.627
 5.5756  26052.1  161.607
 5.6176  26182.9  161.445
 5.6596  26492.2  163.367
 5.7016  26624.4  163.041
 5.7436  26732  163.642
 5.7856  26615.8  163.345
 5.8276  27020  164.299
 5.8696  27009.4  164.44
 5.9116  27226  165.701
 5.9536  27244.3  165.514
 5.9956  27571.4  165.865
 6.0376  27462.2  166.171
 6.0796  27995.9  167.61
 6.1216  27945.3  167.652
 6.1636  28312  167.818
 6.2056  27989.7  167.52
 6.2476  28245.9  168.161
 6.2896  28708.7  169.216
 6.3316  28293.6  168.168
 6.3736  28562.1  168.852
 6.4156  28543.2  168.7
 6.4576  28885.6  169.309
 6.4996  28898.8  169.818
 6.5416  28811.1  169.702
 6.5836  28879.4  170.127
 6.6256  28991.5  170.028
 6.6676  29489.5  171.055
 6.7096  29306.9  171.376
 6.7516  29559.8  171.761
 6.7936  29903.8  172.202
 6.8356  30027  172.627
 6.8776  30380.2  174.428
 6.9196  30486.2  175.136
 6.9616  30676.2  175.122
 7.0036  31087.2  175.953
 7.0456  31189.5  175.546
 7.0876  30953  176.548
 7.1296  31347.4  176.807
 7.1716  31027.6  175.455
 7.2136  30583.8  173.976
 7.2556  30929  175.114
 7.2976  30980.8  175.753
 7.3396  30941  175.842
 7.3816  30598.5  175.085
 7.4236  31140.6  175.929
 7.4656  31182.4  175.54
 7.5076  31500.7  176.566
 7.5496  31444  176.938
 7.5916  31160.7  176.165
 7.6336  31637.5  177.407
 7.6756  31908.8  178.021
 7.7176  32091.2  178.837
 7.7596  31883.4  179.481
 7.8016  32606.9  183.673
 7.8436  32983  181.414
 7.8856  32982.6  181.033
 7.9276  33649.6  183.245
 7.9696  34057.2  184.655
 8.0116  34898.3  185.471
 8.0536  34924.5  185.791
 8.0956  35072.5  187.347
 8.1376  35571.3  188.156
 8.1796  35646  188.887
 8.2216  36183.2  189.064
 8.2636  36590.3  190.369
 8.3056  36421.7  190.7
 8.3476  37132.3  191.88
 8.3896  36879.3  191.299
 8.4316  36911.1  191.548
 8.4736  36948.9  191.115
 8.5156  36710.8  190.775
 8.5576  36462.2  191.09
 8.5996  36315.4  189.591
 8.6416  36121.2  190.323
 8.6836  35844.4  189.435
 8.7256  36348.5  190.207
 8.7676  35956.9  192.05
 8.8096  35733.1  188.831
 8.8516  35342.5  187.419
 8.8936  35255  187.09
 8.9356  35178.9  187.22
 8.9776  35425.5  187.973
 9.0196  35060.8  186.68
 9.0616  35176.8  186.47
 9.1036  34893.4  186.887
 9.1456  34926  186.33
 9.1876  34805.9  185.968
 9.2296  34821.6  185.411
 9.2716  34031.8  183.371
 9.3136  34478.2  184.553
 9.3556  34343.4  184.174
 9.3976  33035.8  181.157
 9.4396  33650.6  182.718
 9.4816  33202.4  181.368
 9.5236  33380.5  181.758
 9.5656  32855.6  180.642
 9.6076  32538.2  180.287
 9.6496  32817.5  180.986
 9.6916  32683  180.58
 9.7336  32389.7  179.558
 9.7756  33071.9  182.667
 9.8176  31858  178.794
 9.8596  31859.9  177.276
 9.9016  31484.9  176.223
 9.9436  31224.5  175.403
 9.9856  31005.9  175.021
 10.0276  30261.3  173.977
 10.0696  30683.6  174.245
 10.1116  30231.7  173.217
 10.1536  29871.3  172.344
 10.1956  29434.4  170.688
 10.2376  29015.2  168.995
 10.2796  29367.6  170.129
 10.3216  28879.3  168.976
 10.3636  28930.3  169.155
 10.4056  28584.6  168.523
 10.4476  28694  168.483
 10.4896  28771.8  168.174
 10.5316  28118.1  166.949
 10.5736  28151.1  167.451
 10.6156  27872.9  166.398
 10.6576  28051.2  165.502
 10.6996  27444.9  164.361
 10.7416  27463.4  164.648
 10.7836  27416.7  165.183
 10.8256  26998.1  164.348
 10.8676  27167.5  164.395
 10.9096  26644.1  162.855
 10.9516  26412.9  161.09
 10.9936  26509.8  161.588
 11.0356  26454.7  162.041
 11.0776  26287.1  160.845
 11.1196  25519.2  159.208
 11.1616  25593.5  159.133
 11.2036  25437  158.507
 11.2456  25472.8  159.3
 11.2876  25356  158.69
 11.3296  25222.1  158.163
 11.3716  25597.8  159.035
 11.4136  25660.6  160.11
 11.4556  25818.2  160.275
 11.4976  26127.6  160.213
 11.5396  26260.5  160.779
 11.5816  26066.8  160.648
 11.6236  25266.3  158.369
 11.6656  25096.4  157.023
 11.7076  24648.1  156.43
 11.7496  24543.4  159.952
 11.7916  24366.6  154.811
 11.8336  24293  155.445
 11.8756  23799.7  153.404
 11.9176  24166.7  154.238
 11.9596  23798.4  153.255
 12.0016  23900.1  154.361
 12.0436  23694.5  153.138
 12.0856  23582.4  153.282
 12.1276  23552  153.087
 12.1696  23464  151.968
 12.2116  23689.5  152.685
 12.2536  23319.8  152.307
 12.2956  23624.9  152.639
 12.3376  23228.3  151.569
 12.3796  23470.6  152.799
 12.4216  23386.1  151.763
 12.4636  23148.9  151.881
 12.5056  23265.6  151.542
 12.5476  23414  151.572
 12.5896  23277.8  151.749
 12.6316  22981.5  150.947
 12.6736  23064.4  151.692
 12.7156  23082.9  151.614
 12.7576  23326.3  152.647
 12.7996  23349.2  151.389
 12.8416  23166.6  151.826
 12.8836  23503.8  152.753
 12.9256  23746.9  152.574
 12.9676  23859.2  153.35
 13.0096  23270.5  152.534
 13.0516  23716.8  153.036
 13.0936  23572.9  152.963
 13.1356  24280.4  154.232
 13.1776  23634  153.138
 13.2196  23896  153.646
 13.2616  23771.1  153.538
 13.3036  23911.1  153.971
 13.3456  23850.1  154.117
 13.3876  23673.9  152.865
 13.4296  23787.6  153.373
 13.4716  23914.5  153.396
 13.5136  23455.5  152.072
 13.5556  23924.1  154.175
 13.5976  23982.9  154.517
 13.6396  23950.6  153.776
 13.6816  23706.5  153.489
 13.7236  24434.6  155.455
 13.7656  23764.9  153.863
 13.8076  23828  152.863
 13.8496  23411.9  152.12
 13.8916  23430.1  153.157
 13.9336  23484.4  152.567
 13.9756  23423.5  151.733
 14.0176  23272.3  151.91
 14.0596  23315.8  152.015
 14.1016  23124.9  151.788
 14.1436  22790.8  149.841
 14.1856  22450.1  148.996
 14.2276  22195.5  148.626
 14.2696  22423.1  149.224
 14.3116  22253.8  148.564
 14.3536  21891.8  147.529
 14.3956  22029  147.721
 14.4376  22013.3  147.451
 14.4796  22031.4  147.509
 14.5216  21770.2  147.41
 14.5636  21586.6  146.362
 14.6056  21694.3  146.315
 14.6476  21269.6  144.121
 14.6896  21305.5  144.777
 14.7316  20812.6  144.1
 14.7736  20870  143.452
 14.8156  20629.2  142.653
 14.8576  20532.8  142.182
 14.8996  19975.9  141.417
 14.9416  19789.8  140.764
 14.9836  20020.9  141.534
 15.0256  19651.3  139.158
 15.0676  19674.4  139.555
 15.1096  19395.3  138.303
 15.1516  19264.9  138.381
 15.1936  19333  138.065
 15.2356  18957.9  136.992
 15.2776  19008.9  136.767
 15.3196  18580.8  136.205
 15.3616  18618.5  136.102
 15.4036  18526.4  135.625
 15.4456  18784.3  136.22
 15.4876  18216.5  133.831
 15.5296  18168.7  133.932
 15.5716  18121.1  133.367
 15.6136  17929.7  132.98
 15.6556  17813.8  131.805
 15.6976  17890.2  132.369
 15.7396  17639.2  131.832
 15.7816  17645.4  131.356
 15.8236  17384.6  131.085
 15.8656  17484  131.25
 15.9076  17151.2  129.825
 15.9496  17137  132.526
 15.9916  17190.9  133.159
 16.0336  16823.7  128.707
 16.0756  16945.6  129.468
 16.1176  16809.4  129.022
 16.1596  16450.5  128.79
 16.2016  16522.4  127.833
 16.2436  16321.4  127.439
 16.2856  16242.5  126.683
 16.3276  16026.5  126.247
 16.3696  16344.7  127.317
 16.4116  16054  126.631
 16.4536  16527.6  128.27
 16.4956  15947.1  125.745
 16.5376  16046.3  126.314
 16.5796  16043.4  125.668
 16.6216  15892.3  125.379
 16.6636  15823.5  125.252
 16.7056  16089.9  126.175
 16.7476  16108.3  125.777
 16.7896  15780.9  125.235
 16.8316  15979.3  125.975
 16.8736  16015.1  126.389
 16.9156  15765.7  125.722
 16.9576  15659.5  126.071
 16.9996  15775  127.023
 17.0416  15854  125.689
 17.0836  15714.1  124.922
 17.1256  15652.7  124.686
 17.1676  15464.4  123.922
 17.2096  15394.9  123.525
 17.2516  15222.6  122.62
 17.2936  15179.9  122.762
 17.3356  15202.3  122.864
 17.3776  15061.9  122.48
 17.4196  15149.5  122.525
 17.4616  14940.7  121.604
 17.5036  14762.1  121.227
 17.5456  14628.8  121.315
 17.5876  14775.4  120.981
 17.6296  14588.5  120.036
 17.6716  14714.2  121.118
 17.7136  14367.1  119.826
 17.7556  14509.1  120.693
 17.7976  14470.9  120.284
 17.8396  14335.4  119.221
 17.8816  14412  120.07
 17.9236  14308.8  119.463
 17.9656  14340.8  120.119
 18.0076  14358.3  119.789
 18.0496  14361.7  118.944
 18.0916  14419.6  119.72
 18.1336  14540.3  120.312
 18.1756  14807.7  120.926
 18.2176  14468.7  119.779
 18.2596  14547.1  119.835
 18.3016  14652.8  120.526
 18.3436  14709.9  120.765
 18.3856  14349.4  119.419
 18.4276  14423.8  119.396
 18.4696  14351.2  119.198
 18.5116  14380.1  119.599
 18.5536  14398.5  120.027
 18.5956  14209.9  118.795
 18.6376  14035  118.457
 18.6796  14008.5  117.679
 18.7216  14099.8  118.543
 18.7636  13872.1  117.584
 18.8056  13973.1  117.948
 18.8476  13700.9  117.405
 18.8896  13803.7  117.188
 18.9316  13943  117.767
 18.9736  13721.8  116.529
 19.0156  13820  117.341
 19.0576  13645.4  115.495
 19.0996  13784.7  116.78
 19.1416  13633.9  116.526
 19.1836  13553.5  115.789
 19.2256  13507.4  115.795
 19.2676  13666.9  116.571
 19.3096  13677.3  116.855
 19.3516  13547.8  116.266
 19.3936  13547.7  116.162
 19.4356  13513.6  115.902
 19.4776  13628.1  116.48
 19.5196  13591.4  116.181
 19.5616  13415.5  115.668
 19.6036  13712.4  116.447
 19.6456  13610.7  116.127
 19.6876  13713.1  116.215
 19.7296  13533.3  115.905
 19.7716  13579.8  116.26
 19.8136  13735.9  117.142
 19.8556  13932.5  117.452
 19.8976  13968.6  117.668
 19.9396  13889  116.915
 19.9816  14079.9  117.948
 20.0236  14238.1  118.834
 20.0656  14289.1  119.037
 20.1076  13814.4  117.508
 20.1496  13672.6  116.905
 20.1916  13671.6  116.43
 20.2336  13452.5  115.419
 20.2756  13184.4  114.685
 20.3176  13202  114.513
 20.3596  13218.2  114.556
 20.4016  13149.5  114.067
 20.4436  13164.5  114.673
 20.4856  12998.2  113.76
 20.5276  12937.9  113.934
 20.5696  12972.1  113.559
 20.6116  12826.9  113.19
 20.6536  12996.1  113.453
 20.6956  12839  112.883
 20.7376  12949.5  113.588
 20.7796  12824.4  112.736
 20.8216  13043  113.403
 20.8636  12824.8  112.817
 20.9056  12796.3  112.641
 20.9476  12702.5  112.071
 20.9896  12968.7  113.107
 21.0316  13019.8  113.216
 21.0736  12784.4  112.71
 21.1156  12900.7  113.377
 21.1576  12951.7  113.652
 21.1996  12824.2  113.071
 21.2416  12612.8  111.976
 21.2836  12704.3  112.343
 21.3256  12625  112.077
 21.3676  12771.9  112.276
 21.4096  12653.9  112.059
 21.4516  12555.6  111.506
 21.4936  12556.8  111.75
 21.5356  12651.4  112.127
 21.5776  12671.1  112.046
 21.6196  12526.6  111.441
 21.6616  12436.1  111.128
 21.7036  12450.7  110.98
 21.7456  12561.2  111.539
 21.7876  12373.7  110.459
 21.8296  12316.9  110.064
 21.8716  12408.1  110.701
 21.9136  12637.5  111.914
 21.9556  12393.8  110.508
 21.9976  12249.1  109.876
 22.0396  12334.6  110.512
 22.0816  12259.9  110.697
 22.1236  12480.9  111.163
 22.1656  12381.5  110.833
 22.2076  12392.3  110.354
 22.2496  12293.5  109.941
 22.2916  12449.2  110.515
 22.3336  12283.9  110.496
 22.3756  12324.9  110.409
 22.4176  12193.4  109.677
 22.4596  12204.1  110.307
 22.5016  12322.9  110.329
 22.5436  12407.4  110.602
 22.5856  12147.1  109.674
 22.6276  12144.7  109.797
 22.6696  12298.7  110.837
 22.7116  12283  110.282
 22.7536  12368  110.642
 22.7956  12312.4  109.732
 22.8376  12211  109.799
 22.8796  12251.7  109.782
 22.9216  12429.3  111.12
 22.9636  12332.1  109.845
 23.0056  12396.6  110.265
 23.0476  12475.1  111.181
 23.0896  12604.7  111.136
 23.1316  12519  111.192
 23.1736  12292.9  113.102
 23.2156  12478  111.353
 23.2576  12195.2  110.211
 23.2996  12419.7  111.01
 23.3416  12363.8  111.272
 23.3836  12405.4  110.7
 23.4256  12327.6  110.472
 23.4676  12226.6  109.72
 23.5096  12415.8  111.235
 23.5516  12200.2  109.557
 23.5936  12271.3  110.765
 23.6356  12309.8  110.61
 23.6776  12353.4  111.015
 23.7196  12153.5  109.7
 23.7616  12336.1  110.43
 23.8036  12317.2  110.387
 23.8456  12271.5  109.762
 23.8876  11963.5  108.724
 23.9296  12037.7  109.547
 23.9716  12105.3  109.059
 24.0136  12181.5  110.288
 24.0556  11915.6  108.819
 24.0976  11810  108.139
 24.1396  11941.3  111.346
 24.1816  11794.6  109.123
 24.2236  11724.1  108.41
 24.2656  11746.8  107.994
 24.3076  11593.5  107.536
 24.3496  11779.4  108.279
 24.3916  11667.6  107.813
 24.4336  11666.9  108.021
 24.4756  11398.1  106.641
 24.5176  11516.9  106.85
 24.5596  11278  105.86
 24.6016  11297.5  106.233
 24.6436  11271.7  105.621
 24.6856  11460.4  106.247
 24.7276  11319.9  105.91
 24.7696  11250.9  105.702
 24.8116  11191.9  105.597
 24.8536  11180.2  105.541
 24.8956  11152.7  105.154
 24.9376  11304.4  105.806
 24.9796  10967.3  104.566
 25.0216  10846.8  104.099
 25.0636  11073  104.831
 25.1056  10947.3  104.933
 25.1476  11036.2  106.989
 25.1896  10925.2  104.956
 25.2316  11070  104.932
 25.2736  10905.9  103.809
 25.3156  10916.6  103.945
 25.3576  10947.5  104.506
 25.3996  10858.9  104.059
 25.4416  10932.5  104.396
 25.4836  10770.7  104.139
 25.5256  10812.4  103.711
 25.5676  10824.1  103.497
 25.6096  10876.9  104.323
 25.6516  10891.5  103.891
 25.6936  10780.6  103.671
 25.7356  10835.5  104.069
 25.7776  10814.9  103.587
 25.8196  10601.7  102.789
 25.8616  10652.8  102.956
 25.9036  10803.9  103.162
 25.9456  10670.4  103.1
 25.9876  10529.5  102.488
 26.0296  10701  102.834
 26.0716  10588  102.713
 26.1136  10688.1  103.126
 26.1556  10831.6  103.212
 26.1976  10562.3  102.831
 26.2396  10599.9  102.176
 26.2816  10678.1  103.156
 26.3236  10641.6  103.139
 26.3656  10564  102.5
 26.4076  10753.6  103.618
 26.4496  11080.5  104.686
 26.4916  10728.4  103.001
 26.5336  10653.2  102.958
 26.5756  10894.7  103.973
 26.6176  10496.5  102.108
 26.6596  10424.9  102.064
 26.7016  10376.3  101.584
 26.7436  10395.2  101.816
 26.7856  10236.2  101.011
 26.8276  10320.6  101.387
 26.8696  10337.3  101.335
 26.9116  10306.4  101.118
 26.9536  10285.5  101.076
 26.9956  10366.7  101.502
 27.0376  10299.8  101.393
 27.0796  10386.9  101.549
 27.1216  10263.4  101.026
 27.1636  10191.5  100.83
 27.2056  10191.8  100.716
 27.2476  10192.4  100.721
 27.2896  10137.7  100.554
 27.3316  10033.5  99.7579
 27.3736  10184.9  100.765
 27.4156  10018.7  99.796
 27.4576  10161.9  100.731
 27.4996  10089.3  99.9776
 27.5416  9999.01  99.8343
 27.5836  10053.7  99.9215
 27.6256  10340.6  101.5
 27.6676  10175  100.705
 27.7096  9972.24  99.5735
 27.7516  9983.46  99.7735
 27.7936  10025  100.152
 27.8356  9952.08  99.4136
 27.8776  9986.7  99.6323
 27.9196  10039.9  99.7449
 27.9616  9916.56  99.3146
 28.0036  9915.01  99.29
 28.0456  9973.44  99.7013
 28.0876  9876.79  99.3146
 28.1296  9865.5  99.0999
 28.1716  9825  98.911
 28.2136  9893.09  99.2116
 28.2556  9677.94  98.2437
 28.2976  9839.95  99.0461
 28.3396  9834.81  98.7892
 28.3816  9782.64  98.5449
 28.4236  9782.63  98.6905
 28.4656  9625.9  97.9364
 28.5076  9712.35  98.0165
 28.5496  9691.33  98.1701
 28.5916  9704.94  98.05
 28.6336  9542.11  97.5579
 28.6756  9810.5  98.1267
 28.7176  9584.71  97.531
 28.7596  9647.39  97.7479
 28.8016  9708.1  98.0839
 28.8436  9462.37  97.077
 28.8856  9628.98  97.782
 28.9276  9589.43  97.8197
 28.9696  9556.38  97.3113
 29.0116  9596.87  97.702
 29.0536  9484.34  97.3186
 29.0956  9484.69  97.056
 29.1376  9527.54  97.2299
 29.1796  9453.44  96.9004
 29.2216  9376.62  96.352
 29.2636  9579.38  97.4616
 29.3056  9487.05  96.7836
 29.3476  9532.3  97.5328
 29.3896  9471.8  97.3136
 29.4316  9583.93  97.2268
 29.4736  9510.26  96.9188
 29.5156  9532.77  96.9464
 29.5576  9501.34  97.5239
 29.5996  9527.92  96.9252
 29.6416  9243.61  95.5761
 29.6836  9404.64  96.3431
 29.7256  9270.74  96.2063
 29.7676  9345.24  96.2625
 29.8096  9502.8  97.0119
 29.8516  9242.21  96.0033
 29.8936  9402.78  96.9228
 29.9356  9437.53  96.8563
 29.9776  9274.58  96.17
 30.0196  9309.43  95.7468
 30.0616  9267.1  95.8963
 30.1036  9371.71  96.2599
 30.1456  9347.43  96.3697
 30.1876  9209.16  95.6302
 30.2296  9368.29  96.4021
 30.2716  9445.74  96.441
 30.3136  9398.91  97.0539
 30.3556  9384.91  97.0034
 30.3976  9202.33  97.5639
 30.4396  9427.66  96.1056
 30.4816  9204.41  94.5622
 30.5236  9149.33  94.2993
 30.5656  9241.15  95.4112
 30.6076  9175.77  94.5096
 30.6496  9228.32  95.1626
 30.6916  9154.83  94.8709
 30.7336  9067.31  94.5693
 30.7756  9181.9  95.2564
 30.8176  9248.03  95.5143
 30.8596  9090.07  94.4698
 30.9016  9246.45  95.6168
 30.9436  9198.43  95.1204
 30.9856  9174.61  95.1094
 31.0276  9030.4  93.9656
 31.0696  9054.82  94.6652
 31.1116  8969.4  94.195
 31.1536  9119.47  94.8629
 31.1956  9156.34  95.1405
 31.2376  8990.71  94.2834
 31.2796  9085.92  94.3251
 31.3216  9091.08  94.2992
 31.3636  9183.96  95.4583
 31.4056  9054.32  96.0942
 31.4476  8967.8  93.5475
 31.4896  9084.34  94.6477
 31.5316  9044.08  93.8415
 31.5736  9052.44  93.7133
 31.6156  9040.72  93.6749
 31.6576  9164.12  94.4047
 31.6996  8987.45  93.1732
 31.7416  8800.92  93.23
 31.7836  9021.82  93.4254
 31.8256  8947.2  93.3091
 31.8676  8986.02  93.505
 31.9096  8817.57  92.9715
 31.9516  8680.32  92.4014
 31.9936  8846.33  93.1038
 32.0356  8910.63  93.5118
 32.0776  8911.02  93.4012
 32.1196  8909.61  93.463
 32.1616  8848.27  92.6294
 32.2036  8732.34  92.5251
 32.2456  8822.71  93.3717
 32.2876  8941.55  93.5005
 32.3296  8691.82  92.1504
 32.3716  8764.22  92.6297
 32.4136  8808.14  93.0791
 32.4556  8909.64  92.9899
 32.4976  8925.7  92.9859
 32.5396  8824.78  92.5312
 32.5816  8698.38  91.9901
 32.6236  8845.48  92.8261
 32.6656  8979.01  94.066
 32.7076  8675.13  92.1227
 32.7496  8839.34  92.6524
 32.7916  8744.25  92.1216
 32.8336  8794.16  92.4713
 32.8756  8835  92.422
 32.9176  8702.93  92.1982
 32.9596  8666.91  92.08
 33.0016  8786.71  92.5153
 33.0436  8833.34  92.9285
 33.0856  8700.29  92.2972
 33.1276  8560.4  91.2846
 33.1696  8693.42  91.8411
 33.2116  8783.36  92.5384
 33.2536  8741.83  92.3246
 33.2956  8740.66  92.3977
 33.3376  8576.93  91.2764
 33.3796  8824.7  92.7887
 33.4216  8700.49  91.7383
 33.4636  8744.26  92.1041
 33.5056  8590.03  91.5269
 33.5476  8513.78  91.1205
 33.5896  8708.16  91.9183
 33.6316  8557.14  91.4463
 33.6736  8525.49  91.5051
 33.7156  8509.64  91.4614
 33.7576  8572.42  91.4305
 33.7996  8637.86  91.5433
 33.8416  8367.72  90.2732
 33.8836  8587.12  91.2409
 33.9256  8556.5  91.1478
 33.9676  8606.34  91.3041
 34.0096  8420.64  90.6249
 34.0516  8541.93  90.9137
 34.0936  8389.45  90.36
 34.1356  8485.5  90.6084
 34.1776  8368.08  90.0018
 34.2196  8465.02  90.7011
 34.2616  8253.31  89.6887
 34.3036  8248.11  89.9109
 34.3456  8336.59  90.1458
 34.3876  8472.81  90.8473
 34.4296  8374.37  90.0072
 34.4716  8473.42  90.6892
 34.5136  8432.32  90.6707
 34.5556  8400.77  90.7385
 34.5976  8503.99  91.112
 34.6396  8486.09  90.7246
 34.6816  8385.37  90.3065
 34.7236  8298  89.6192
 34.7656  8332.91  89.99
 34.8076  8260.95  89.9245
 34.8496  8367.58  90.3557
 34.8916  8381.69  90.3175
 34.9336  8354.31  90.1261
 34.9756  8645.68  91.5664
 35.0176  8319.37  90.3825
 35.0596  8228.25  89.7233
 35.1016  8298.17  89.8699
 35.1436  8352.4  89.8496
 35.1856  8218.57  89.2568
 35.2276  8295.15  89.8328
 35.2696  8247.97  89.7678
 35.3116  8292.45  90.1043
 35.3536  8276.49  89.7392
 35.3956  8243  89.2636
 35.4376  8216.11  89.6678
 35.4796  8218.08  89.7366
 35.5216  8209.74  89.6545
 35.5636  8010.48  89.2831
 35.6056  8263.99  89.7066
 35.6476  8274.98  89.6728
 35.6896  8283.14  89.7975
 35.7316  8198.29  89.3176
 35.7736  8188.24  89.4549
 35.8156  8147.33  89.2335
 35.8576  8263.55  90.1055
 35.8996  8356.97  90.5809
 35.9416  8239.52  89.4477
 35.9836  8188.63  89.5223
 36.0256  8226.23  89.7478
 36.0676  8262.13  89.7052
 36.1096  8099.05  88.9515
 36.1516  8219.22  89.4911
 36.1936  8143.34  88.935
 36.2356  8192.34  89.8411
 36.2776  8152.91  89.1103
 36.3196  8218.81  89.143
 36.3616  8217.89  89.2654
 36.4036  8053.38  88.4131
 36.4456  8140.13  89.1073
 36.4876  7949.33  87.9988
 36.5296  8038.42  88.529
 36.5716  8095.15  89.614
 36.6136  8179.94  88.8585
 36.6556  8192.28  89.1251
 36.6976  8141.04  89.3367
 36.7396  7931.92  87.9158
 36.7816  7950.11  88.3869
 36.8236  8135.96  89.3242
 36.8656  7937.78  88.3141
 36.9076  8021.96  88.6573
 36.9496  8107.99  89.1233
 36.9916  8059.7  88.4894
 37.0336  8246.97  89.83
 37.0756  8142.82  89.0489
 37.1176  7874.86  87.8374
 37.1596  7912.9  88.0447
 37.2016  7950.27  88.4852
 37.2436  8101.88  88.6472
 37.2856  8024.22  88.4706
 37.3276  8143.75  88.4811
 37.3696  7881.73  87.9151
 37.4116  8042.09  88.7118
 37.4536  7982.85  88.2546
 37.4956  8058.18  88.7049
 37.5376  8026.51  90.0852
 37.5796  7968.06  89.718
 37.6216  7840.15  87.2905
 37.6636  7820.12  87.0915
 37.7056  7869.42  87.5503
 37.7476  7876.37  87.1411
 37.7896  7821.34  87.3148
 37.8316  7800.22  87.3781
 37.8736  7912.34  87.5245
 37.9156  7791.42  86.8489
 37.9576  7889.79  87.2845
 37.9996  7715.38  86.0436
 38.0416  7807.66  87.3608
 38.0836  7855.48  87.5257
 38.1256  7825.4  87.3212
 38.1676  7777.83  87.1957
 38.2096  7696.13  86.3704
 38.2516  7968.68  88.0784
 38.2936  7850.58  87.237
 38.3356  7739.76  86.5328
 38.3776  7800.64  87.143
 38.4196  7929.43  87.7101
 38.4616  7763.62  87.0247
 38.5036  7893.76  87.5974
 38.5456  7728.19  87.4871
 38.5876  7692.72  87.3119
 38.6296  7760.22  86.6891
 38.6716  7737.19  86.3548
 38.7136  7666.62  85.9035
 38.7556  7701.58  86.5956
 38.7976  7762.8  86.8802
 38.8396  7549.14  86.1163
 38.8816  7608.65  86.2344
 38.9236  7592.09  85.9624
 38.9656  7691.64  86.4388
 39.0076  7711.59  85.9639
 39.0496  7725.33  86.5699
 39.0916  7767.73  86.4557
 39.1336  7692.24  86.4475
 39.1756  7699.3  86.5571
 39.2176  7686.75  87.0009
 39.2596  7661.09  86.7828
 39.3016  7616.88  86.1211
 39.3436  7549.24  86.1486
 39.3856  7627.27  86.0478
 39.4276  7631.03  86.5568
 39.4696  7756.82  86.8982
 39.5116  7595.4  86.4983
 39.5536  7885.11  88.5537
 39.5956  7840.67  87.4038
 39.6376  7701.62  86.6346
 39.6796  7707.83  86.4061
 39.7216  7879.41  87.4594
 39.7636  7684.4  86.9406
 39.8056  7692.12  86.7658
 39.8476  7633.14  86.6827
 39.8896  7731.55  86.8751
 39.9316  7651.43  86.6623
 39.9736  7853.26  87.369
 40.0156  7773.31  86.7505
 40.0576  7737.32  86.9109
 40.0996  7851.83  86.7373
 40.1416  7755.57  86.9884
 40.1836  7813.74  87.2101
 40.2256  7735.42  86.8159
 40.2676  7768.08  87.1054
 40.3096  7796.85  87.1872
 40.3516  7838.51  87.5226
 40.3936  7871.49  87.2772
 40.4356  7730.55  86.6806
 40.4776  7825.58  87.6237
 40.5196  7729.31  87.2067
 40.5616  7783.87  87.1651
 40.6036  7744.1  87.1902
 40.6456  7838.42  87.3259
 40.6876  7792.66  87.061
 40.7296  7830.79  87.4073
 40.7716  7852.45  87.6537
 40.8136  7795.78  87.282
 40.8556  7856.03  87.7594
 40.8976  7816.97  87.4599
 40.9396  7788.72  87.6478
 40.9816  7761.13  86.7831
 41.0236  7782.3  86.6849
 41.0656  7874.75  87.7349
 41.1076  7743.68  86.7729
 41.1496  7773.09  86.8509
 41.1916  7770.14  87.1509
 41.2336  7666.71  86.5683
 41.2756  7719.35  86.4643
 41.3176  7718.21  87.073
 41.3596  7714.95  86.7846
 41.4016  7756.35  87.2771
 41.4436  7801.61  87.3166
 41.4856  7875.42  87.8891
 41.5276  7765.1  87.2934
 41.5696  7762.77  86.9089
 41.6116  7649.19  86.6656
 41.6536  7714.01  86.8871
 41.6956  7726.16  87.0143
 41.7376  7710.6  86.9557
 41.7796  7663.37  86.571
 41.8216  7796.87  87.557
 41.8636  7765.94  87.3197
 41.9056  7591.47  86.1264
 41.9476  7795.35  87.5068
 41.9896  7877.65  87.6372
 42.0316  7723.39  86.8532
 42.0736  7650.84  86.5608
 42.1156  7597.75  86.0947
 42.1576  7694.43  86.7367
 42.1996  7726.36  87.0645
 42.2416  7695.63  86.4744
 42.2836  7624.96  86.1884
 42.3256  7553.61  85.8973
 42.3676  7709.63  86.5921
 42.4096  7679.63  86.3802
 42.4516  7626.43  86.1717
 42.4936  7602.12  86.0937
 42.5356  7572.65  86.0584
 42.5776  7676.09  86.5884
 42.6196  7635.76  86.413
 42.6616  7435.54  85.4413
 42.7036  7643.7  86.0202
 42.7456  7655.75  86.4435
 42.7876  7551.62  85.9488
 42.8296  7693.46  86.5875
 42.8716  7520.52  85.7652
 42.9136  7594.34  85.974
 42.9556  7649.97  86.4212
 42.9976  7612.5  86.1632
 43.0396  7615.38  85.9234
 43.0816  7553.24  85.9424
 43.1236  7604.07  86.2928
 43.1656  7527.86  85.69
 43.2076  7484.53  85.545
 43.2496  7606.01  86.0529
 43.2916  7565.49  86.185
 43.3336  7625.97  86.3669
 43.3756  7573.42  85.8295
 43.4176  7499.45  85.4883
 43.4596  7523.42  85.4827
 43.5016  7434.78  85.3755
 43.5436  7483.08  85.5555
 43.5856  7487.09  85.6046
 43.6276  7494.69  85.5376
 43.6696  7479.05  85.707
 43.7116  7556.59  85.6542
 43.7536  7588.05  86.3173
 43.7956  7385.82  86.3237
 43.8376  7487.83  85.4699
 43.8796  7358.31  84.8095
 43.9216  7459.5  85.3085
 43.9636  7508.34  85.6998
 44.0056  7394.66  85.2709
 44.0476  7428.28  85.102
 44.0896  7435.26  85.4814
 44.1316  7608.91  85.9961
 44.1736  7359.93  84.7007
 44.2156  7526.74  85.5027
 44.2576  7309.44  84.585
 44.2996  7381.15  84.9664
 44.3416  7353.08  84.5728
 44.3836  7217.22  84.1067
 44.4256  7196.36  83.6414
 44.4676  7271.71  84.2303
 44.5096  7367.43  84.922
 44.5516  7439.91  85.3006
 44.5936  7375.92  84.89
 44.6356  7317.07  84.2948
 44.6776  7361.02  84.8599
 44.7196  7272.96  84.6555
 44.7616  7237.21  85.7504
 44.8036  7235.58  84.1981
 44.8456  7270.87  84.609
 44.8876  7201.89  84.0607
 44.9296  7337.59  84.3121
 44.9716  7211.15  84.0134
 45.0136  7273.47  84.3026
 45.0556  7213.5  83.9298
 45.0976  7174.9  83.8605
 45.1396  7234.01  83.9706
 45.1816  7225.61  83.8567
 45.2236  7208.29  83.6606
 45.2656  7200.41  84.108
 45.3076  7102.95  83.3334
 45.3496  7110.66  83.6652
 45.3916  7140.07  84.1017
 45.4336  7237.44  84.5231
 45.4756  7090.07  83.5184
 45.5176  7209.18  83.838
 45.5596  7252.85  84.2117
 45.6016  7062.93  83.5087
 45.6436  7210.53  83.5657
 45.6856  7122.47  83.702
 45.7276  7049.69  84.5502
 45.7696  7283.86  85.609
 45.8116  7191.62  84.5154
 45.8536  7123.97  84.0157
 45.8956  7138.23  83.4647
 45.9376  7123.71  82.856
 45.9796  7102.89  83.403
 46.0216  7076.87  83.5899
 46.0636  7256.41  83.7981
 46.1056  7072.87  82.7123
 46.1476  7140.1  83.6872
 46.1896  7154.28  83.9204
 46.2316  7052.92  83.1952
 46.2736  6943.83  82.906
 46.3156  7050.23  83.1329
 46.3576  7080.85  83.5094
 46.3996  7087.08  83.7085
 46.4416  7094.31  83.3345
 46.4836  7150.23  84.0118
 46.5256  7082.12  83.5466
 46.5676  7088.88  83.7036
 46.6096  7129.76  83.8755
 46.6516  7091.98  82.7201
 46.6936  7042.82  82.9128
 46.7356  7135.11  83.5557
 46.7776  7035.25  83.7938
 46.8196  7064.37  83.57
 46.8616  6797.6  81.9252
 46.9036  6939.44  82.4366
 46.9456  6978.07  82.3189
 46.9876  6917.06  82.0387
 47.0296  6887.93  82.5373
 47.0716  6895.59  82.4101
 47.1136  6980.18  82.6031
 47.1556  6926.82  82.153
 47.1976  7124.65  83.392
 47.2396  6862.49  82.2328
 47.2816  6913.53  82.2425
 47.3236  7003.28  83.1411
 47.3656  6959.42  82.8074
 47.4076  6875.41  82.1177
 47.4496  6804.81  81.7846
 47.4916  6800.01  81.9454
 47.5336  6894.26  82.3325
 47.5756  6889.54  82.4227
 47.6176  6837.5  82.0108
 47.6596  6822.53  81.6359
 47.7016  7001  82.5235
 47.7436  6942.8  82.4963
 47.7856  6954.44  82.5975
 47.8276  6853.46  82.0492
 47.8696  6874.81  82.2639
 47.9116  6974.15  82.5654
 47.9536  6906.85  82.1149
 47.9956  6773.08  82.0023
 48.0376  6784.34  81.8484
 48.0796  6856.13  82.3995
 48.1216  6815.72  81.987
 48.1636  6959.94  82.437
 48.2056  6953.18  82.6537
 48.2476  6865.27  82.4357
 48.2896  6740.67  81.5917
 48.3316  6783.17  81.786
 48.3736  6727.95  81.4702
 48.4156  6752.05  81.4766
 48.4576  6745.32  81.7279
 48.4996  6982.99  82.6136
 48.5416  6877.94  82.3152
 48.5836  6766.53  81.3315
 48.6256  6894.69  82.3095
 48.6676  6837.06  82.4595
 48.7096  6827.19  81.6829
 48.7516  6768.2  81.4719
 48.7936  6662.14  80.891
 48.8356  6804.04  81.7975
 48.8776  6746.49  82.0071
 48.9196  6902.25  82.3342
 48.9616  6756.88  81.8303
 49.0036  6808.77  82.4887
 49.0456  6822.17  82.5368
 49.0876  6734.82  81.5579
 49.1296  6614.31  80.9892
 49.1716  6582.84  80.6704
 49.2136  6735.24  81.5315
 49.2556  6705.2  81.3743
 49.2976  6776.76  81.8716
 49.3396  6595.89  80.8338
 49.3816  6821.58  81.6474
 49.4236  6778.91  81.8007
 49.4656  6616.39  80.8309
 49.5076  6686.71  81.0167
 49.5496  6717.35  81.2575
 49.5916  6746.2  81.3574
 49.6336  6609.41  80.7282
 49.6756  6760.87  81.8743
 49.7176  6689.98  81.3814
 49.7596  6698.14  81.2092
 49.8016  6721.82  81.2701
 49.8436  6654.28  81.1523
 49.8856  6583.69  80.7312
 49.9276  6540.77  80.5525
 49.9696  6582.61  80.7952
 50.0116  6604.87  81.0677
 50.0536  6675.07  81.4398
 50.0956  6596.08  81.0271
 50.1376  6600.64  80.771
 50.1796  6554.48  80.7434
 50.2216  6597.87  81.0073
 50.2636  6662.99  81.0316
 50.3056  6472.26  80.0258
 50.3476  6453.1  79.9321
 50.3896  6563  80.5828
 50.4316  6503.1  80.0544
 50.4736  6462.41  80.0125
 50.5156  6648.68  81.1484
 50.5576  6563.79  80.3887
 50.5996  6507.81  80.3269
 50.6416  6461.99  79.9753
 50.6836  6579.72  80.7532
 50.7256  6699.81  81.4115
 50.7676  6586.26  81.0286
 50.8096  6405.05  79.47
 50.8516  6463.09  80.2303
 50.8936  6550.88  80.5548
 50.9356  6545.97  80.6322
 50.9776  6468.05  80.2939
 51.0196  6376.14  79.8436
 51.0616  6402.59  79.351
 51.1036  6457.33  80.0344
 51.1456  6461.61  79.9791
 51.1876  6569.77  79.9966
 51.2296  6412.5  79.6509
 51.2716  6301.37  78.6808
 51.3136  6428.75  79.9158
 51.3556  6365.81  79.1594
 51.3976  6485.03  80.0438
 51.4396  6206.15  78.5945
 51.4816  6407.26  79.7085
 51.5236  6452.56  80.0826
 51.5656  6453.8  79.7029
 51.6076  6442.76  79.7117
 51.6496  6323.6  79.1564
 51.6916  6297.62  79.3368
 51.7336  6369.27  79.8818
 51.7756  6236.92  78.7562
 51.8176  6275.82  79.1013
 51.8596  6291.7  79.2152
 51.9016  6477.86  79.9969
 51.9436  6381.47  80.8385
 51.9856  6318.87  80.8514
 52.0276  6382.74  79.8081
 52.0696  6348.41  79.6606
 52.1116  6373.79  79.9222
 52.1536  6195.33  78.698
 52.1956  6477.75  79.9406
 52.2376  6483.97  80.152
 52.2796  6413.14  79.5322
 52.3216  6197.78  78.8499
 52.3636  6201.22  78.4621
 52.4056  6265.16  78.7242
 52.4476  6173.97  78.5057
 52.4896  6236.25  78.951
 52.5316  6266.26  79.1858
 52.5736  6328.71  79.307
 52.6156  6364.34  79.9031
 52.6576  6341.85  79.2195
 52.6996  6052.57  78.3282
 52.7416  6358.14  80.1252
 52.7836  6334.31  79.8538
 52.8256  6338.54  79.1216
 52.8676  6164.5  78.5971
 52.9096  6265.36  79.3228
 52.9516  6224.66  79.4156
 52.9936  6182.54  79.5295
 53.0356  6155.65  78.3861
 53.0776  6135.45  78.5088
 53.1196  6082.09  78.2912
 53.1616  6186.37  79.0067
 53.2036  6100  78.4031
 53.2456  6116.13  78.6132
 53.2876  6069.13  78.0227
 53.3296  6129.36  78.7276
 53.3716  6083.25  78.1906
 53.4136  6100.53  78.4397
 53.4556  6064.57  78.2395
 53.4976  6006.78  77.7154
 53.5396  6107.9  78.7474
 53.5816  6161.83  78.7419
 53.6236  6036.34  78.2674
 53.6656  6070.25  78.125
 53.7076  6080.79  78.1563
 53.7496  5962.35  77.5093
 53.7916  6077.91  78.3785
 53.8336  6013.05  77.8624
 53.8756  5958.8  78.0351
 53.9176  6068.25  78.1057
 53.9596  6140.19  79.323
 54.0016  6086.27  78.3222
 54.0436  6075.84  78.4681
 54.0856  6094.76  78.0303
 54.1276  6116.92  78.3716
 54.1696  6029.84  77.974
 54.2116  6076.6  78.0422
 54.2536  6031.64  77.5717
 54.2956  6128.32  78.2301
 54.3376  6058.92  78.2616
 54.3796  6161.91  78.8198
 54.4216  6137.68  78.7103
 54.4636  6054.39  78.1369
 54.5056  6075.91  78.1062
 54.5476  6017.18  78.0494
 54.5896  6075.79  78.2678
 54.6316  6029.96  77.8329
 54.6736  6121.08  78.4912
 54.7156  6101.48  78.3891
 54.7576  6026.8  77.9007
 54.7996  6147.87  78.8102
 54.8416  6089.66  78.4853
 54.8836  5975.53  77.8651
 54.9256  6063.24  78.1784
 54.9676  6126.18  78.4434
 55.0096  6109  78.4061
 55.0516  5996.48  77.9075
 55.0936  5972.44  77.392
 55.1356  6004.87  77.6379
 55.1776  5968.82  77.6746
 55.2196  6058.08  78.0375
 55.2616  6029.72  78.0664
 55.3036  5943.02  77.6562
 55.3456  5992.83  78.1225
 55.3876  6038.41  78.1717
 55.4296  6024.81  78.0573
 55.4716  6015.89  78.037
 55.5136  6000.44  77.6952
 55.5556  6078.72  78.2768
 55.5976  5998.96  77.8093
 55.6396  6040.36  78.0339
 55.6816  5965.77  77.4285
 55.7236  6033.26  77.9029
 55.7656  5988.2  77.3768
 55.8076  6165.13  78.4907
 55.8496  5956.49  77.4655
 55.8916  6018.82  78.0694
 55.9336  6048.65  78.0899
 55.9756  5898.18  76.996
 56.0176  5915.55  77.2609
 56.0596  6051.2  78.125
 56.1016  5949.96  77.4789
 56.1436  5978.78  77.9306
 56.1856  5981.31  77.6834
 56.2276  6014.08  77.9511
 56.2696  6020.57  77.9732
 56.3116  5934.16  77.806
 56.3536  6022.6  78.0452
 56.3956  5969.01  77.6894
 56.4376  5949.75  77.5927
 56.4796  6029.19  77.9123
 56.5216  6025.94  78.2635
 56.5636  6026.82  77.8652
 56.6056  5966.03  77.702
 56.6476  5968.3  77.3478
 56.6896  6004.3  78.0278
 56.7316  5909.52  77.3157
 56.7736  6031.85  78.1063
 56.8156  5956.68  77.6198
 56.8576  5939.2  77.444
 56.8996  6026.83  77.9593
 56.9416  5909.22  77.4852
 56.9836  5925.75  77.1159
 57.0256  5866.37  77.0384
 57.0676  5900.83  77.3959
 57.1096  5986.6  77.7434
 57.1516  5927.6  77.4244
 57.1936  5988.29  77.5673
 57.2356  5992.11  77.9069
 57.2776  5985.71  77.8211
 57.3196  6030.58  78.4785
 57.3616  5882.49  77.0151
 57.4036  6001.63  77.8513
 57.4456  5906.87  77.2021
 57.4876  6046.15  77.9701
 57.5296  5880.75  77.2253
 57.5716  5921.31  77.4768
 57.6136  6022.26  77.9525
 57.6556  5962.34  77.7045
 57.6976  5882.85  77.008
 57.7396  5888.93  77.4212
 57.7816  5886.33  77.7568
 57.8236  5924.22  77.8035
 57.8656  5908.07  77.3572
 57.9076  5932.53  77.5494
 57.9496  5910.24  77.7463
 57.9916  5904.03  77.2287
 58.0336  5913.11  77.5607
 58.0756  5891.28  77.0549
 58.1176  5924.38  77.2672
 58.1596  5771.06  76.8111
 58.2016  5997.32  77.5317
 58.2436  5906.73  77.348
 58.2856  5949.71  77.5515
 58.3276  5873.45  77.4158
 58.3696  5910.28  77.4121
 58.4116  5817.08  76.6698
 58.4536  5978.12  77.6065
 58.4956  5924.51  77.4377
 58.5376  6059.68  77.8895
 58.5796  5890.03  77.2113
 58.6216  5991.53  77.6837
 58.6636  5953.87  77.6575
 58.7056  5864.51  76.9301
 58.7476  5785.97  76.8483
 58.7896  5949.4  77.5736
 58.8316  5944.77  77.5364
 58.8736  5972.23  77.7251
 58.9156  5892.82  77.2472
 58.9576  6122.23  79.0607
 58.9996  6103.76  78.1725
 59.0416  6021.75  78.0259
 59.0836  5922.2  77.3009
 59.1256  5884.73  77.743
 59.1676  5912.57  78.2186
 59.2096  6122.93  78.9233
 59.2516  6031.94  77.9161
 59.2936  6090.85  78.625
 59.3356  5850.02  76.9347
 59.3776  6017.66  78.1979
 59.4196  5913.71  77.4558
 59.4616  6083.75  78.4213
 59.5036  5929.94  77.4587
 59.5456  6148.12  78.5614
 59.5876  6093.28  78.4022
 59.6296  6035  78.0955
 59.6716  5852.19  76.9607
 59.7136  5959.68  77.6526
 59.7556  5985.21  77.9546
 59.7976  6073.39  78.2682
 59.8396  5878.17  76.8957
 59.8816  6009.76  78.2949
 59.9236  6026.81  78.0507
 59.9656  5921.43  77.6236
 60.0076  6084.17  78.0379
 60.0496  5944.81  77.6333
 60.0916  6224.52  78.8536
 60.1336  5834.77  77.4334
 60.1756  5870.04  78.8346
 60.1996  0.0000000E+00  0.0000000E+00