File: docs/examples/opeando_xrd/IS17_D/Data/IS17_D/17_Db_f00088.xye
# /beamlines/bl04/projects/cycle2025-II/20250340211-lsimonelli/DATA/IS17_D/17_Db_f00088.xye : mythproc.py merge -s 0.006 -l 0.5 -f /beamlines/bl04/inhouse/ff/FlatField/ff_20Nov2024rod8mm60s_17keV.raw -b True -c true -o xye /beamlines/bl04/projects/cycle2025-II/20250340211-lsimonelli/DATA/IS17_D/17_Db_00088.dat
# IsMon = [6743665, 6748728, 6744242]  IsPos = [-1.4999, -2.4884, -3.4988]
# Wave = 0.4962  CalPath /beamlines/bl04/projects/cycle2025-II/20250340211-lsimonelli/DATA/Align/Si_Pos1_25keV_f00001.cal
# Date = 2025-09-24_18:12:11 Dt = 4.8000  Bin = 0.0060  <imon> = 6745545 +/- 2263 (Min/Max) 6743665 / 6748728
# icurr 249.6266  mocoIn 1.7027E-05  mocoOut 0.7986  i15 7.07101e+06  imon 6.74554e+06  i7 5.0000  iEMpd_timer 4.8000  iEMpd_1 3.4570E-08  iEMpd_2 7.8789E-08  iEMpd_3 1.5996E-08  iEMpd_4 4.6975E-08  iEMhp_timer 4.8000  iEMhp_1 4.8754E-06  iEMhp_2 -2.5646E-08  iEMhp_3 -2.3443E-08  iEMhp_4 -2.2634E-08
#      9776
 1.5856  43664.4  214.599
 1.6276  50090.2  225.904
 1.6696  56387.5  238.838
 1.7116  64091.5  255.13
 1.7536  71986.1  269.235
 1.7956  75499.2  276.415
 1.8376  72074.3  270.501
 1.8796  62269.6  249.589
 1.9216  51167  227.14
 1.9636  44074.4  209.947
 2.0056  40548.3  200.593
 2.0476  37510.1  195.047
 2.0896  36013.4  189.995
 2.1316  35392.7  187.445
 2.1736  33817.9  184.681
 2.2156  33697.8  182.873
 2.2576  32625.6  180.587
 2.2996  31641.2  178.493
 2.3416  31644.8  177.08
 2.3836  30956.1  175.249
 2.4256  29947.7  172.933
 2.4676  29833.9  172.359
 2.5096  29430.8  171.246
 2.5516  28214.1  171.453
 2.5936  28238.1  168.116
 2.6356  27540.4  166.722
 2.6776  27712.6  166.147
 2.7196  27129.8  164.871
 2.7616  27110.1  164.61
 2.8036  26743.6  163.659
 2.8456  26644  163.993
 2.8876  25732  161.01
 2.9296  25562.1  160.618
 2.9716  25450.5  159.761
 3.0136  25234.7  159.138
 3.0556  25601  160.674
 3.0976  25130.6  158.13
 3.1396  24996.9  158.419
 3.1816  24599.4  157.101
 3.2236  24460.6  156.65
 3.2656  24403.3  155.506
 3.3076  23879.1  155.283
 3.3496  24330.8  155.665
 3.3916  24826.3  157.076
 3.4336  25310.7  159.175
 3.4756  25611.2  160.08
 3.5176  26078.1  161.299
 3.5596  25967.3  163.41
 3.6016  25942.7  160.945
 3.6436  25222.7  159.797
 3.6856  24610.9  156.169
 3.7276  23920.8  155.03
 3.7696  23678.3  154.45
 3.8116  23392.3  153.405
 3.8536  23528.4  153.787
 3.8956  23475.4  153.414
 3.9376  23313.3  153.163
 3.9796  23193.3  152.258
 4.0216  23265.8  151.524
 4.0636  23260.6  152.984
 4.1056  23250.4  152.595
 4.1476  23608.9  154.094
 4.1896  23599.7  153.911
 4.2316  23740.9  154.207
 4.2736  24252.8  155.656
 4.3156  24254  155.897
 4.3576  25167.7  158.699
 4.3996  25158.5  158.936
 4.4416  25963.8  161.056
 4.4836  26142.5  161.759
 4.5256  27028.2  165.104
 4.5676  26785.6  164.612
 4.6096  27313.3  164.876
 4.6516  27597.5  165.434
 4.6936  27675  166.497
 4.7356  27771.3  166.605
 4.7776  27817.7  166.567
 4.8196  27674.1  166.79
 4.8616  27119.5  164.592
 4.9036  26911.3  163.706
 4.9456  26683.7  163.664
 4.9876  25986.4  161.413
 5.0296  26580.8  163.08
 5.0716  26118.2  162.41
 5.1136  26505.3  163.329
 5.1556  26649.3  163.226
 5.1976  27323.2  165.279
 5.2396  27166  164.488
 5.2816  27272.4  165.288
 5.3236  27176.6  164.688
 5.3656  26774.7  164.397
 5.4076  26537.2  163.803
 5.4496  26705.9  163.818
 5.4916  26883.9  164.118
 5.5336  26782.6  163.816
 5.5756  26633.2  163.378
 5.6176  26792.9  163.301
 5.6596  27096.3  165.218
 5.7016  27315  165.141
 5.7436  27464  165.865
 5.7856  27133.7  164.934
 5.8276  27312.9  165.186
 5.8696  27780.5  166.774
 5.9116  27657  167.007
 5.9536  28037.9  167.895
 5.9956  28047.6  167.312
 6.0376  28161.8  168.267
 6.0796  28401.8  168.816
 6.1216  28342.3  168.833
 6.1636  28637.5  168.77
 6.2056  28315.3  168.485
 6.2476  28448.8  168.757
 6.2896  28971.1  169.981
 6.3316  28889.5  169.92
 6.3736  28695.1  169.234
 6.4156  29009.6  170.054
 6.4576  29078.5  169.869
 6.4996  28982.9  170.057
 6.5416  29157.8  170.706
 6.5836  29086.6  170.732
 6.6256  29305.6  170.94
 6.6676  29711.1  171.679
 6.7096  29952.9  173.242
 6.7516  29906.7  172.764
 6.7936  30215.3  173.066
 6.8356  30226.6  173.185
 6.8776  30346.3  174.326
 6.9196  30467.6  175.074
 6.9616  30830.2  175.548
 7.0036  31292.5  176.527
 7.0456  31440  176.245
 7.0876  31236.4  177.35
 7.1296  31251.9  176.533
 7.1716  31448.8  176.635
 7.2136  31161.8  175.599
 7.2556  31123.9  175.649
 7.2976  31103.7  176.076
 7.3396  31111.7  176.315
 7.3816  30932.6  176.032
 7.4236  31513.3  176.971
 7.4656  31669.6  176.867
 7.5076  31770.2  177.301
 7.5496  31578.7  177.309
 7.5916  31793.4  177.95
 7.6336  32244.6  179.093
 7.6756  32500.5  179.653
 7.7176  32662.6  180.418
 7.7596  32399.5  180.902
 7.8016  32991.4  184.785
 7.8436  32485.8  180.041
 7.8856  32913.6  180.846
 7.9276  33499  182.848
 7.9696  33733.6  183.781
 8.0116  34632.2  184.774
 8.0536  34694.6  185.192
 8.0956  34800.2  186.624
 8.1376  34964.3  186.555
 8.1796  35477.1  188.433
 8.2216  35793.8  188.042
 8.2636  36116.1  189.141
 8.3056  36186  190.095
 8.3476  36664.7  190.668
 8.3896  36251.6  189.676
 8.4316  36466.7  190.398
 8.4736  36545.8  190.084
 8.5156  36107.2  189.21
 8.5576  36004.5  189.874
 8.5996  35929.2  188.59
 8.6416  36091.5  190.249
 8.6836  35765.9  189.247
 8.7256  36259  189.98
 8.7676  36082.9  192.437
 8.8096  36913.7  191.951
 8.8516  36082.9  189.339
 8.8936  35864  188.733
 8.9356  36142.3  189.793
 8.9776  36282.9  190.24
 9.0196  36405.2  190.236
 9.0616  35989.8  188.65
 9.1036  35466.5  188.43
 9.1456  35077.1  186.733
 9.1876  35417.5  187.567
 9.2296  35102.3  186.185
 9.2716  34986.6  185.914
 9.3136  34971.8  185.878
 9.3556  35145  186.308
 9.3976  34377.9  184.776
 9.4396  34268.3  184.396
 9.4816  34363.4  184.502
 9.5236  33875.9  183.09
 9.5656  33882.9  183.466
 9.6076  32978.6  181.519
 9.6496  33138.2  181.842
 9.6916  32895.1  181.112
 9.7336  33500.4  182.562
 9.7756  32804.6  181.905
 9.8176  32680.9  181.052
 9.8596  32765.6  179.741
 9.9016  32255.1  178.34
 9.9436  32153.4  177.955
 9.9856  31850.7  177.395
 10.0276  31191.8  176.61
 10.0696  31631.4  176.895
 10.1116  30869.2  175.002
 10.1536  30708.7  174.704
 10.1956  30217  172.924
 10.2376  30313.8  172.717
 10.2796  30186.5  172.462
 10.3216  29833.8  171.729
 10.3636  29658.6  171.247
 10.4056  29126.6  170.102
 10.4476  29279.3  170.156
 10.4896  29838  171.231
 10.5316  29093.3  169.81
 10.5736  29294.7  170.809
 10.6156  29115  170.042
 10.6576  28921.3  168.03
 10.6996  28555.2  167.669
 10.7416  28265.7  167.022
 10.7836  27608.5  165.742
 10.8256  27352.8  165.412
 10.8676  27408.2  165.11
 10.9096  27074.1  164.15
 10.9516  26811.7  162.296
 10.9936  27007.3  163.105
 11.0356  26695.9  162.76
 11.0776  26464.3  161.381
 11.1196  25952.7  160.575
 11.1616  25936.2  160.185
 11.2036  26104.1  160.557
 11.2456  25882.4  160.577
 11.2876  26261.1  161.488
 11.3296  25639.3  159.473
 11.3716  26221.3  160.967
 11.4136  26026.7  161.244
 11.4556  26078.2  161.072
 11.4976  26530.3  161.443
 11.5396  26558  161.691
 11.5816  26351.5  161.517
 11.6236  25638.7  159.529
 11.6656  25790.3  159.164
 11.7076  24977.7  157.461
 11.7496  24786.5  160.835
 11.7916  24688.9  155.806
 11.8336  24478.4  156.034
 11.8756  24296.3  155.002
 11.9176  24153.8  154.217
 11.9596  24503.8  155.506
 12.0016  24179.5  155.236
 12.0436  24248.8  154.918
 12.0856  23849.5  154.137
 12.1276  23751  153.765
 12.1696  23886  153.323
 12.2116  23668  152.617
 12.2536  23543  153.023
 12.2956  23426.5  151.996
 12.3376  23833.7  153.524
 12.3796  23698.2  153.564
 12.4216  23744.9  152.911
 12.4636  23383.1  152.671
 12.5056  23557.8  152.507
 12.5476  23606.6  152.18
 12.5896  23291.9  151.804
 12.6316  23386.3  152.259
 12.6736  23270.6  152.366
 12.7156  23507.7  152.977
 12.7576  23004.8  151.584
 12.7996  23518.1  151.918
 12.8416  23343.1  152.388
 12.8836  23626.7  153.149
 12.9256  23959.2  153.258
 12.9676  23859.8  153.34
 13.0096  24082.2  155.172
 13.0516  23955.3  153.798
 13.0936  24248.2  155.146
 13.1356  24322.6  154.347
 13.1776  23667.4  153.254
 13.2196  24116.9  154.341
 13.2616  23790.4  153.608
 13.3036  24084.6  154.517
 13.3456  23772.5  153.857
 13.3876  24223.5  154.6
 13.4296  23931.7  153.827
 13.4716  24228.2  154.402
 13.5136  24059  153.978
 13.5556  23902.8  154.105
 13.5976  24075.4  154.838
 13.6396  24022  154.028
 13.6816  24162.2  154.951
 13.7236  24579.5  155.861
 13.7656  25806.1  160.167
 13.8076  26637.4  161.356
 13.8496  26220.5  160.762
 13.8916  24253.9  155.749
 13.9336  23749.6  153.401
 13.9756  23808.4  152.98
 14.0176  23425.5  152.415
 14.0596  23438.6  152.386
 14.1016  23269.9  152.261
 14.1436  23356.8  151.688
 14.1856  22750.7  149.989
 14.2276  22802.8  150.642
 14.2696  22710.9  150.189
 14.3116  22257.9  148.592
 14.3536  22095.6  148.212
 14.3956  21991.7  147.58
 14.4376  22198.3  148.066
 14.4796  22275.3  148.324
 14.5216  21803.2  147.524
 14.5636  21663.8  146.632
 14.6056  21852.1  146.836
 14.6476  21655.2  145.411
 14.6896  21386.3  145.049
 14.7316  21002.4  144.769
 14.7736  20800.2  143.213
 14.8156  20858.6  143.443
 14.8576  20766.3  142.985
 14.8996  20330.2  142.652
 14.9416  19897  141.133
 14.9836  19959.1  141.352
 15.0256  19373.3  138.18
 15.0676  19429.9  138.689
 15.1096  19234.4  137.732
 15.1516  19149  137.964
 15.1936  18730.7  135.902
 15.2356  18670.2  135.956
 15.2776  18724  135.747
 15.3196  18402.4  135.555
 15.3616  18176  134.489
 15.4036  18077.8  133.983
 15.4456  18604.3  135.568
 15.4876  18271.5  134.038
 15.5296  17946.5  133.112
 15.5716  17782.7  132.122
 15.6136  17676.4  132.037
 15.6556  17664  131.255
 15.6976  17691.7  131.641
 15.7396  17345  130.742
 15.7816  17171.8  129.605
 15.8236  17013.5  129.688
 15.8656  17259.7  130.412
 15.9076  16940.2  129.024
 15.9496  17752.9  134.905
 15.9916  17471.8  134.233
 16.0336  17535.6  131.364
 16.0756  17347.3  130.987
 16.1176  17059  129.97
 16.1596  16817.5  130.215
 16.2016  16942.4  129.457
 16.2436  16593.4  128.493
 16.2856  16714.8  128.483
 16.3276  16519.2  128.164
 16.3696  16635.6  128.433
 16.4116  16371.1  127.848
 16.4536  16599.7  128.554
 16.4956  16628.5  128.391
 16.5376  16340.9  127.474
 16.5796  16358.1  126.908
 16.6216  16314.4  126.994
 16.6636  16076.9  126.266
 16.7056  16178.4  126.527
 16.7476  16208.7  126.167
 16.7896  16123  126.581
 16.8316  16243.3  127.031
 16.8736  16376.5  127.803
 16.9156  16201.1  127.441
 16.9576  16004.7  127.442
 16.9996  15927.3  127.591
 17.0416  16089.2  126.623
 17.0836  16007.3  126.074
 17.1256  15761.5  125.108
 17.1676  15935.6  125.755
 17.2096  15787.5  125.059
 17.2516  15718.6  124.589
 17.2936  15609.1  124.499
 17.3356  15537.4  124.204
 17.3776  15464.1  124.092
 17.4196  15367.2  123.396
 17.4616  15450.2  123.64
 17.5036  15010.6  122.224
 17.5456  15164.2  123.47
 17.5876  15134.2  122.415
 17.6296  15139  122.271
 17.6716  15079.3  122.603
 17.7136  14800.2  121.603
 17.7556  14905.7  122.322
 17.7976  14927.2  122.136
 17.8396  14773.8  121.009
 17.8816  14683.5  121.202
 17.9236  14782.4  121.408
 17.9656  14600  121.174
 18.0076  14586.1  120.716
 18.0496  14686  120.26
 18.0916  14629.1  120.582
 18.1336  14730.1  121.094
 18.1756  14929.1  121.459
 18.2176  14484.1  119.843
 18.2596  14573.7  119.933
 18.3016  14752.5  120.931
 18.3436  14756.6  120.952
 18.3856  14609.4  120.491
 18.4276  14644.7  120.317
 18.4696  14508.3  119.838
 18.5116  14451.7  119.871
 18.5536  14519.8  120.526
 18.5956  14246.5  118.943
 18.6376  14132.2  118.866
 18.6796  14056.9  117.872
 18.7216  14245  119.142
 18.7636  14223  119.069
 18.8056  13980.2  117.963
 18.8476  13827.3  117.939
 18.8896  14035.2  118.155
 18.9316  14003.4  118.016
 18.9736  14004.9  117.708
 19.0156  13867.4  117.547
 19.0576  14064.1  117.232
 19.0996  14066.1  117.957
 19.1416  13830.2  117.353
 19.1836  13852.8  117.06
 19.2256  13766.3  116.911
 19.2676  13861.6  117.389
 19.3096  13702.3  116.966
 19.3516  13747.7  117.121
 19.3936  13747.3  117
 19.4356  13977.5  117.87
 19.4776  13869  117.501
 19.5196  13690.4  116.593
 19.5616  13718.7  116.974
 19.6036  13628.7  116.095
 19.6456  13697.7  116.506
 19.6876  13754.9  116.38
 19.7296  13945.9  117.654
 19.7716  13708.9  116.812
 19.8136  14110.9  118.716
 19.8556  14049.4  117.938
 19.8976  13887.7  117.311
 19.9396  14118.8  117.88
 19.9816  14226.4  118.574
 20.0236  14330.9  119.201
 20.0656  14285.7  119.012
 20.1076  14038.3  118.453
 20.1496  13832  117.58
 20.1916  13894.7  117.361
 20.2336  13570.5  115.906
 20.2756  13305.4  115.195
 20.3176  13243  114.668
 20.3596  13172.4  114.359
 20.4016  13291.7  114.678
 20.4436  13142.3  114.58
 20.4856  13387.8  115.445
 20.5276  13029.3  114.345
 20.5696  13227.1  114.663
 20.6116  12967.6  113.803
 20.6536  13100  113.902
 20.6956  13030.2  113.724
 20.7376  12852.6  113.153
 20.7796  12937.1  113.222
 20.8216  13026  113.324
 20.8636  12936.5  113.312
 20.9056  12954.2  113.329
 20.9476  12935.2  113.088
 20.9896  12980.1  113.145
 21.0316  13002.7  113.148
 21.0736  12891.7  113.185
 21.1156  12785.3  112.868
 21.1576  12876.1  113.312
 21.1996  12852  113.188
 21.2416  12914.8  113.295
 21.2836  12924.8  113.307
 21.3256  12860.8  113.109
 21.3676  12769.8  112.24
 21.4096  12677.1  112.156
 21.4516  12654.8  111.928
 21.4936  12459.5  111.314
 21.5356  12791.4  112.744
 21.5776  12791.8  112.577
 21.6196  12435.8  111.042
 21.6616  12426.6  111.081
 21.7036  12657.7  111.878
 21.7456  12740.5  112.328
 21.7876  12412.3  110.635
 21.8296  12536.7  111.023
 21.8716  12563.6  111.375
 21.9136  12756.3  112.433
 21.9556  12534.2  111.128
 21.9976  12375  110.448
 22.0396  12313.3  110.417
 22.0816  12418.3  111.415
 22.1236  12589.5  111.644
 22.1656  12395  110.921
 22.2076  12186.7  109.444
 22.2496  12244.3  109.721
 22.2916  12205.4  109.441
 22.3336  12106.5  109.695
 22.3756  12128.1  109.529
 22.4176  12029.2  108.936
 22.4596  11996.6  109.374
 22.5016  12184  109.731
 22.5436  12221.8  109.781
 22.5856  12294  110.341
 22.6276  12379.9  110.852
 22.6696  12288.5  110.804
 22.7116  12257  110.166
 22.7536  12265.7  110.188
 22.7956  12119.1  108.871
 22.8376  12023  108.96
 22.8796  11983.3  108.579
 22.9216  12133.7  109.8
 22.9636  12102.4  108.822
 23.0056  12002.3  108.501
 23.0476  12119.2  109.589
 23.0896  12574.7  111.008
 23.1316  12204  109.79
 23.1736  12376.4  113.477
 23.2156  12469.7  111.328
 23.2576  12593.4  112.005
 23.2996  12435  111.075
 23.3416  12476.6  111.788
 23.3836  12517.9  111.201
 23.4256  12689.6  112.084
 23.4676  12461.8  110.772
 23.5096  12406.5  111.175
 23.5516  12174.8  109.44
 23.5936  12356.4  111.163
 23.6356  12640  112.091
 23.6776  12139.1  110.051
 23.7196  12275.9  110.252
 23.7616  12349.3  110.502
 23.8036  12632.6  111.815
 23.8456  12255.4  109.684
 23.8876  12343.8  110.441
 23.9296  12156.3  110.088
 23.9716  12251.7  109.725
 24.0136  12169.9  110.254
 24.0556  12038.6  109.374
 24.0976  11950.7  108.793
 24.1396  12011.9  111.647
 24.1816  12039.7  110.216
 24.2236  12014.5  109.722
 24.2656  11979.2  109.042
 24.3076  11878.7  108.851
 24.3496  11762.7  108.189
 24.3916  12011.1  109.387
 24.4336  11871.6  108.94
 24.4756  11867.1  108.815
 24.5176  11847.4  108.351
 24.5596  11815.6  108.322
 24.6016  11625.4  107.74
 24.6436  11827.1  108.191
 24.6856  11536.1  106.589
 24.7276  11551.4  106.98
 24.7696  11533.6  107.009
 24.8116  11201.4  105.631
 24.8536  11521.6  107.137
 24.8956  11288.2  105.784
 24.9376  11308.3  105.799
 24.9796  11249.4  105.892
 25.0216  11210.5  105.824
 25.0636  11182.4  105.346
 25.1056  11132.2  105.799
 25.1476  11042.7  106.98
 25.1896  11090.9  105.739
 25.2316  10987.8  104.546
 25.2736  10968.3  104.1
 25.3156  11033  104.484
 25.3576  10916.6  104.358
 25.3996  10994.4  104.724
 25.4416  10944.6  104.454
 25.4836  10841.8  104.47
 25.5256  10994.8  104.576
 25.5676  10781.7  103.283
 25.6096  10705  103.489
 25.6516  10901.4  103.939
 25.6936  10893.4  104.221
 25.7356  10846  104.124
 25.7776  10886.1  103.921
 25.8196  10684.9  103.19
 25.8616  10745.2  103.416
 25.9036  10851.2  103.378
 25.9456  10724.4  103.358
 25.9876  10670.1  103.167
 26.0296  10855.8  103.575
 26.0716  10853.1  103.992
 26.1136  10791.9  103.626
 26.1556  10719.3  102.672
 26.1976  10655.1  103.28
 26.2396  10690.3  102.619
 26.2816  10746.5  103.487
 26.3236  10753.1  103.666
 26.3656  10778  103.514
 26.4076  10645.2  103.085
 26.4496  10893.9  103.864
 26.4916  10922.2  103.902
 26.5336  11254.2  105.812
 26.5756  11669.8  107.631
 26.6176  10815.9  103.641
 26.6596  10616.8  102.979
 26.7016  10619.8  102.755
 26.7436  10803.9  103.784
 26.7856  10412.1  101.869
 26.8276  10485.5  102.194
 26.8696  10477.4  102.022
 26.9116  10371.7  101.446
 26.9536  10402  101.642
 26.9956  10322.2  101.282
 27.0376  10433.4  102.058
 27.0796  10308.6  101.161
 27.1216  10417.7  101.76
 27.1636  10098.5  100.356
 27.2056  10163.7  100.566
 27.2476  10239.2  100.926
 27.2896  10237.5  101.04
 27.3316  10091.6  100.039
 27.3736  10102.8  100.356
 27.4156  10218.4  100.777
 27.4576  10139.9  100.603
 27.4996  10278.3  100.895
 27.5416  10202.1  100.821
 27.5836  10143.9  100.377
 27.6256  10141.8  100.541
 27.6676  10063.3  100.146
 27.7096  10149  100.457
 27.7516  9972.18  99.7183
 27.7936  10462.7  102.294
 27.8356  10226.3  100.729
 27.8776  10332.4  101.323
 27.9196  9983.39  99.4641
 27.9616  10107.8  100.276
 28.0036  10031  99.8618
 28.0456  9940.84  99.5417
 28.0876  9894.39  99.4002
 28.1296  9821.44  98.868
 28.1716  10002.1  99.7885
 28.2136  10002.9  99.7628
 28.2556  9954.75  99.633
 28.2976  9732.99  98.5093
 28.3396  9793.81  98.5826
 28.3816  9808.15  98.6495
 28.4236  9790.63  98.7249
 28.4656  9719.55  98.4087
 28.5076  9777.43  98.3355
 28.5496  9893.63  99.1811
 28.5916  9837.93  98.7173
 28.6336  9763.31  98.677
 28.6756  9697.73  97.5552
 28.7176  9671.68  97.9685
 28.7596  9566.85  97.329
 28.8016  9688.81  97.9783
 28.8436  9543.35  97.4861
 28.8856  9614.41  97.7027
 28.9276  9598.97  97.871
 28.9696  9515.89  97.1038
 29.0116  9476.57  97.0834
 29.0536  9483.98  97.3272
 29.0956  9607.91  97.6673
 29.1376  9453.99  96.8545
 29.1796  9509.3  97.1828
 29.2216  9546.12  97.212
 29.2636  9596.39  97.5371
 29.3056  9461.17  96.6279
 29.3476  9564.47  97.6934
 29.3896  9517.61  97.567
 29.4316  9317.36  95.8669
 29.4736  9265.72  95.6666
 29.5156  9379.74  96.1765
 29.5576  9396.27  96.9835
 29.5996  9471.02  96.6405
 29.6416  9244.11  95.5832
 29.6836  9247.45  95.5389
 29.7256  9294.93  96.3395
 29.7676  9307.77  96.0758
 29.8096  9128.46  95.0863
 29.8516  9035.72  94.9322
 29.8936  9191.54  95.8324
 29.9356  9259.36  95.9416
 29.9776  9148.15  95.5118
 30.0196  9312.27  95.7605
 30.0616  9255.33  95.8396
 30.1036  9168.2  95.212
 30.1456  9061.26  94.8912
 30.1876  9060.74  94.8582
 30.2296  9080.37  94.9185
 30.2716  9219.97  95.2845
 30.3136  9251.6  96.296
 30.3556  9351.99  96.8204
 30.3976  9228.04  97.6655
 30.4396  9598.68  96.9574
 30.4816  9590.34  96.5266
 30.5236  9547.15  96.2996
 30.5656  9358.76  96.0039
 30.6076  9403.71  95.6416
 30.6496  9390.07  95.9904
 30.6916  9179.21  94.9939
 30.7336  9331.06  95.9061
 30.7756  9322.14  95.9583
 30.8176  9254.04  95.5294
 30.8596  9282.66  95.4344
 30.9016  9332.99  96.0467
 30.9436  9380.09  96.0434
 30.9856  9590.81  97.2361
 31.0276  9190.2  94.8069
 31.0696  9121.44  95.0013
 31.1116  9107.38  94.8956
 31.1536  9201.34  95.2592
 31.1956  9115.75  94.9052
 31.2376  9061.79  94.6556
 31.2796  9157.62  94.6951
 31.3216  9166.15  94.668
 31.3636  9181.35  95.4273
 31.4056  9106.5  96.3451
 31.4476  9183.83  94.6616
 31.4896  9234.03  95.419
 31.5316  9143.05  94.3495
 31.5736  9334.9  95.1693
 31.6156  9234.78  94.6533
 31.6576  9304.62  95.0941
 31.6996  9231.52  94.397
 31.7416  9198.44  95.3138
 31.7836  9313.21  94.9061
 31.8256  9171.6  94.4451
 31.8676  9342.77  95.313
 31.9096  9075.13  94.2962
 31.9516  9076.56  94.4828
 31.9936  8888.36  93.3082
 32.0356  9072.72  94.3201
 32.0776  9155.66  94.6552
 32.1196  9067.08  94.3043
 32.1616  9247.93  94.6762
 32.2036  9182.04  94.868
 32.2456  9062.14  94.6155
 32.2876  9094.62  94.2868
 32.3296  8994.25  93.7245
 32.3716  8853.82  93.1086
 32.4136  8773.53  92.8918
 32.4556  8975.67  93.3283
 32.4976  8906.59  92.8948
 32.5396  8846.9  92.6339
 32.5816  8817.43  92.6139
 32.6236  8862.4  92.8981
 32.6656  8856.43  93.4215
 32.7076  8838.01  92.9781
 32.7496  8783.16  92.3551
 32.7916  8834.14  92.5975
 32.8336  8787.22  92.4398
 32.8756  8879.43  92.6473
 32.9176  8687.72  92.1185
 32.9596  8764.06  92.6014
 33.0016  8752.91  92.3013
 33.0436  8765.84  92.5558
 33.0856  8714.5  92.3746
 33.1276  8638.45  91.6942
 33.1696  8852.31  92.658
 33.2116  8719.07  92.1932
 33.2536  8857.25  92.9119
 33.2956  8696.6  92.1535
 33.3376  8695.67  91.8974
 33.3796  8841.37  92.8778
 33.4216  8706.14  91.7641
 33.4636  8762.04  92.2039
 33.5056  8531.49  91.219
 33.5476  8714.14  92.1698
 33.5896  8747.37  92.1381
 33.6316  8704.94  92.2235
 33.6736  8499.72  91.3746
 33.7156  8562.12  91.7293
 33.7576  8737.76  92.3225
 33.7996  8689.68  91.8312
 33.8416  8459.7  90.7912
 33.8836  8529.68  90.9433
 33.9256  8661.23  91.7001
 33.9676  8612.84  91.3386
 34.0096  8575.09  91.4512
 34.0516  8409.82  90.2053
 34.0936  8502.71  90.9737
 34.1356  8611.96  91.2992
 34.1776  8426.75  90.3127
 34.2196  8434.74  90.525
 34.2616  8412.33  90.5367
 34.3036  8529.05  91.4139
 34.3456  8427.08  90.6183
 34.3876  8554.99  91.2875
 34.4296  8495.58  90.6629
 34.4716  8457.17  90.6044
 34.5136  8471.29  90.867
 34.5556  8320.89  90.3133
 34.5976  8479.69  90.9832
 34.6396  8489.13  90.7471
 34.6816  8511.83  90.9727
 34.7236  8446.34  90.3987
 34.7656  8403.09  90.3733
 34.8076  8303.83  90.1701
 34.8496  8262.72  89.7927
 34.8916  8417.3  90.4862
 34.9336  8384.17  90.3001
 34.9756  8381.85  90.211
 35.0176  8408.53  90.8746
 35.0596  8436.4  90.8491
 35.1016  8488.74  90.8862
 35.1436  8530.75  90.8008
 35.1856  8385.9  90.1513
 35.2276  8392.8  90.3573
 35.2696  8337.25  90.2453
 35.3116  8256.39  89.9094
 35.3536  8236.49  89.5144
 35.3956  8338.2  89.7789
 35.4376  8346.14  90.38
 35.4796  8300.95  90.168
 35.5216  8314.27  90.2136
 35.5636  8063.25  89.5608
 35.6056  8263.57  89.7024
 35.6476  8399.89  90.343
 35.6896  8283.66  89.7977
 35.7316  8319.17  89.9712
 35.7736  8194.73  89.486
 35.8156  8219.98  89.6243
 35.8576  8257.59  90.0804
 35.8996  8313.83  90.3427
 35.9416  8318.78  89.8794
 35.9836  8205.57  89.6032
 36.0256  8392.44  90.6306
 36.0676  8435.05  90.6089
 36.1096  8365.94  90.394
 36.1516  8356.32  90.2166
 36.1936  8314.2  89.8452
 36.2356  8358.35  90.74
 36.2776  8141.74  89.0348
 36.3196  8324.16  89.7021
 36.3616  8293.9  89.6687
 36.4036  8167.66  89.0487
 36.4456  8251.91  89.7099
 36.4876  8109.79  88.8764
 36.5296  8189.32  89.3528
 36.5716  8162.85  89.9789
 36.6136  7959.83  87.6569
 36.6556  8039.22  88.2957
 36.6976  7949.35  88.2821
 36.7396  7964.82  88.0977
 36.7816  8011.32  88.7313
 36.8236  7979.59  88.4713
 36.8656  7886.08  88.0303
 36.9076  7868.28  87.8051
 36.9496  7841.42  87.6541
 36.9916  7865.14  87.4167
 37.0336  7952.34  88.2159
 37.0756  7951.8  88.0012
 37.1176  7896.47  87.9617
 37.1596  7747.06  87.1323
 37.2016  7883.8  88.1183
 37.2436  8038.99  88.3052
 37.2856  7819.47  87.335
 37.3276  7989.54  87.6462
 37.3696  7933.14  88.1979
 37.4116  7937.13  88.1417
 37.4536  7790.63  87.1852
 37.4956  7833.76  87.4801
 37.5376  8176.28  90.9689
 37.5796  8014.21  89.9818
 37.6216  7918.99  87.7475
 37.6636  8058.6  88.3992
 37.7056  8100.25  88.8227
 37.7476  8026.28  87.96
 37.7896  7823.53  87.3418
 37.8316  7908.98  87.9731
 37.8736  7952.68  87.7473
 37.9156  7951.88  87.7351
 37.9576  7951.1  87.6472
 37.9996  7723.17  86.0967
 38.0416  7833.99  87.5123
 38.0836  8086.43  88.8139
 38.1256  7922.49  87.8818
 38.1676  7662.72  86.5317
 38.2096  8000.59  88.0509
 38.2516  7834.58  87.3401
 38.2936  8021.45  88.181
 38.3356  7813.48  86.9585
 38.3776  7854.28  87.4405
 38.4196  7946.23  87.7993
 38.4616  7950.67  88.0672
 38.5036  8053.37  88.4772
 38.5456  7749.9  87.6038
 38.5876  7895.96  88.4373
 38.6296  7801.87  86.9021
 38.6716  7807.05  86.7269
 38.7136  7703.48  86.1048
 38.7556  7772.62  86.9893
 38.7976  7847.41  87.3155
 38.8396  7801.16  87.5325
 38.8816  7767.14  87.1372
 38.9236  7972.87  88.0804
 38.9656  7875.73  87.4491
 39.0076  7973.53  87.4018
 39.0496  7913.45  87.621
 39.0916  7855.48  86.9458
 39.1336  8001.24  88.1518
 39.1756  7945.03  87.9054
 39.2176  7812.62  87.6891
 39.2596  7864.54  87.917
 39.3016  7794.7  87.1201
 39.3436  7742.25  87.2352
 39.3856  7886.49  87.4716
 39.4276  7986.89  88.5534
 39.4696  7785.25  87.0457
 39.5116  7950.8  88.4904
 39.5536  7804.68  88.0946
 39.5956  7916.22  87.8167
 39.6376  7779.7  87.0686
 39.6796  7818.32  87.0241
 39.7216  7803.44  87.0471
 39.7636  7764.99  87.3892
 39.8056  7913.81  88.013
 39.8476  7708.65  87.1063
 39.8896  7823.6  87.3896
 39.9316  7825.83  87.6491
 39.9736  7798.29  87.0643
 40.0156  7822.05  87.0366
 40.0576  7714.88  86.7692
 40.0996  7853.28  86.7438
 40.1416  7881.48  87.698
 40.1836  7839.29  87.3523
 40.2256  7840.06  87.3907
 40.2676  7743.05  86.9615
 40.3096  7770.99  87.0272
 40.3516  7872.76  87.714
 40.3936  7921.33  87.5432
 40.4356  7730.69  86.6855
 40.4776  7898.25  88.0276
 40.5196  7858.67  87.9294
 40.5616  7976.23  88.2216
 40.6036  7793.19  87.461
 40.6456  7802.71  87.1314
 40.6876  7912.44  87.7321
 40.7296  7831.72  87.4086
 40.7716  7832.8  87.5301
 40.8136  7684.25  86.6426
 40.8556  7803.92  87.4471
 40.8976  7859.43  87.6908
 40.9396  7887.68  88.192
 40.9816  7862.3  87.3475
 41.0236  7937.44  87.5489
 41.0656  7905.71  87.907
 41.1076  7855.96  87.4
 41.1496  7847.02  87.2521
 41.1916  7765.76  87.1121
 41.2336  7877.33  87.7458
 41.2756  7781.66  86.8157
 41.3176  7817.51  87.6254
 41.3596  7815.18  87.3426
 41.4016  7730.08  87.1279
 41.4436  7810.43  87.364
 41.4856  7898.81  88.0205
 41.5276  7769.18  87.3138
 41.5696  7767.92  86.9387
 41.6116  7891.86  88.0187
 41.6536  7836.4  87.5599
 41.6956  7861.51  87.7726
 41.7376  7843.16  87.6943
 41.7796  7725.4  86.9165
 41.8216  7823.65  87.6933
 41.8636  7652.24  86.6806
 41.9056  7722.51  86.8685
 41.9476  7770.93  87.3714
 41.9896  7865.92  87.5684
 42.0316  7870.39  87.6818
 42.0736  7973.16  88.3584
 42.1156  7737.6  86.8645
 42.1576  7719.48  86.8814
 42.1996  7923.03  88.1535
 42.2416  7784.82  86.9596
 42.2836  7720.35  86.7237
 42.3256  7833.34  87.4589
 42.3676  7836.96  87.2871
 42.4096  7832.04  87.231
 42.4516  7872.58  87.5357
 42.4936  7673.23  86.4931
 42.5356  7696.15  86.7617
 42.5776  7830.18  87.4503
 42.6196  7669.07  86.5938
 42.6616  7640.2  86.6032
 42.7036  7814.12  86.9674
 42.7456  7757.55  87.0069
 42.7876  7685.03  86.6893
 42.8296  7683.83  86.5271
 42.8716  7651.65  86.5076
 42.9136  7704.05  86.5915
 42.9556  7737.89  86.9105
 42.9976  7761.76  87.0049
 43.0396  7664.74  86.1948
 43.0816  7653.19  86.5152
 43.1236  7626.08  86.4095
 43.1656  7646.03  86.3503
 43.2076  7625.12  86.342
 43.2496  7677.78  86.4621
 43.2916  7612.19  86.4378
 43.3336  7612.81  86.2829
 43.3756  7655.26  86.2837
 43.4176  7478.25  85.3474
 43.4596  7606.81  85.9468
 43.5016  7636.68  86.5204
 43.5436  7660.53  86.5585
 43.5856  7592.79  86.2087
 43.6276  7625.99  86.2707
 43.6696  7545.97  86.0786
 43.7116  7641.12  86.1276
 43.7536  7739.08  87.1723
 43.7956  7585.36  87.5096
 43.8376  7507.66  85.5879
 43.8796  7304.08  84.5008
 43.9216  7408.74  85.0234
 43.9636  7456.96  85.4139
 44.0056  7410.47  85.3683
 44.0476  7253.61  84.1046
 44.0896  7326.37  84.8541
 44.1316  7527.36  85.5386
 44.1736  7501.68  85.5124
 44.2156  7484.94  85.264
 44.2576  7476.5  85.5443
 44.2996  7355.24  84.8171
 44.3416  7438.12  85.0717
 44.3836  7272.43  84.4368
 44.4256  7387.17  84.75
 44.4676  7300.96  84.4033
 44.5096  7524.86  85.8296
 44.5516  7370.57  84.9073
 44.5936  7361.62  84.8143
 44.6356  7364.27  84.5698
 44.6776  7282.47  84.4031
 44.7196  7336.18  85.0305
 44.7616  7373.28  86.5473
 44.8036  7444.38  85.4182
 44.8456  7489.29  85.8778
 44.8876  7473.91  85.6357
 44.9296  7643  86.0526
 44.9716  7557.31  85.9929
 45.0136  7556.79  85.9162
 45.0556  7592.8  86.1073
 45.0976  7421.97  85.2704
 45.1396  7482.48  85.3745
 45.1816  7356.72  84.6153
 45.2236  7565.14  85.71
 45.2656  7415.23  85.346
 45.3076  7417.17  85.1477
 45.3496  7374.41  85.2076
 45.3916  7360.21  85.3909
 45.4336  7469.72  85.865
 45.4756  7365.88  85.121
 45.5176  7476.78  85.3779
 45.5596  7460.54  85.4044
 45.6016  7330.51  85.0769
 45.6436  7447.76  84.9298
 45.6856  7547.25  86.1584
 45.7276  7195.63  85.4132
 45.7696  7308.51  85.7607
 45.8116  7434.79  85.9119
 45.8536  7323.06  85.1686
 45.8956  7443.18  85.2171
 45.9376  7467.32  84.8221
 45.9796  7383.11  85.0249
 46.0216  7434.03  85.6583
 46.0636  7433.66  84.7905
 46.1056  7412.75  84.6708
 46.1476  7333.41  84.8055
 46.1896  7415.2  85.4262
 46.2316  7365  85.0039
 46.2736  7313.01  85.0753
 46.3156  7458.4  85.498
 46.3576  7395.09  85.3363
 46.3996  7356.33  85.2689
 46.4416  7384.99  85.0111
 46.4836  7259.85  84.6437
 46.5256  7374.45  85.2462
 46.5676  7210.3  84.4087
 46.6096  7529.16  86.1783
 46.6516  7269.99  83.731
 46.6936  7401.12  84.9887
 46.7356  7388.88  85.0147
 46.7776  7386.22  85.862
 46.8196  7309.81  85.0051
 46.8616  7243.08  84.5739
 46.9036  7269.86  84.3769
 46.9456  7291.82  84.1465
 46.9876  7335.35  84.4769
 47.0296  7264.11  84.7586
 47.0716  7254.94  84.5292
 47.1136  7294.19  84.4345
 47.1556  7302.76  84.3525
 47.1976  7421.97  85.119
 47.2396  7241.28  84.4777
 47.2816  7214.31  84.0095
 47.3236  7276.16  84.7482
 47.3656  7287.34  84.7253
 47.4076  7199.23  84.0349
 47.4496  7210.47  84.1932
 47.4916  7254.92  84.6506
 47.5336  7343.35  84.9719
 47.5756  7450.56  85.6991
 47.6176  7189.75  84.1007
 47.6596  7262.61  84.2285
 47.7016  7410.57  84.9001
 47.7436  7404.79  85.1986
 47.7856  7389.92  85.1508
 47.8276  7273.59  84.524
 47.8696  7270.41  84.5865
 47.9116  7321.72  84.6028
 47.9536  7233.83  84.035
 47.9956  7233.58  84.7449
 48.0376  7198.07  84.3014
 48.0796  7278.55  84.9042
 48.1216  7265.97  84.6499
 48.1636  7419.96  85.115
 48.2056  7261.03  84.46
 48.2476  7442.63  85.8237
 48.2896  7262.17  84.6885
 48.3316  7228.72  84.4361
 48.3736  7259.86  84.6329
 48.4156  7256.2  84.4657
 48.4576  7220.56  84.5521
 48.4996  7331.98  84.6529
 48.5416  7366.86  85.1864
 48.5836  7335.88  84.6814
 48.6256  7366.27  85.0677
 48.6676  7276.99  85.0609
 48.7096  7289.85  84.4012
 48.7516  7226.4  84.1872
 48.7936  7138.81  83.7353
 48.8356  7260.52  84.4959
 48.8776  7255.09  85.0432
 48.9196  7383.5  85.1532
 48.9616  7279.57  84.9404
 49.0036  7244.39  85.0839
 49.0456  7177.64  84.6697
 49.0876  7169.65  84.1474
 49.1296  7176.33  84.3589
 49.1716  7070.29  83.5945
 49.2136  7244.92  84.5549
 49.2556  7261.96  84.686
 49.2976  7208.27  84.4417
 49.3396  7158.36  84.2044
 49.3816  7270.25  84.2828
 49.4236  7304.69  84.9074
 49.4656  7027.49  83.2984
 49.5076  7274.45  84.5045
 49.5496  7201.07  84.1375
 49.5916  7270.79  84.4518
 49.6336  7177.05  84.1157
 49.6756  7196.52  84.4798
 49.7176  7168  84.2432
 49.7596  7163.52  83.9825
 49.8016  7329.15  84.8566
 49.8436  7097.68  83.8042
 49.8856  7128.88  84.0028
 49.9276  7090.1  83.8661
 49.9696  7117.13  84.0132
 50.0116  7142.62  84.3044
 50.0536  7188.63  84.5107
 50.0956  7133.02  84.2598
 50.1376  7228.11  84.5042
 50.1796  7156.16  84.3682
 50.2216  7168.58  84.4344
 50.2636  7107.62  83.6847
 50.3056  7110.52  83.8771
 50.3476  7194.21  84.3873
 50.3896  7088.98  83.7481
 50.4316  7104.39  83.6713
 50.4736  7031.46  83.4625
 50.5156  7095.24  83.8338
 50.5576  7182.65  84.101
 50.5996  7122.66  84.0325
 50.6416  7065.11  83.6178
 50.6836  7226.05  84.6211
 50.7256  7168.01  84.2164
 50.7676  7187.45  84.6389
 50.8096  7145.57  83.918
 50.8516  7084.61  83.9994
 50.8936  7029.25  83.4485
 50.9356  7188.62  84.4863
 50.9776  7103.57  84.1577
 51.0196  6898.33  83.0471
 51.0616  7006.97  83.0152
 51.1036  7098.39  83.9228
 51.1456  7102.97  83.8548
 51.1876  7012.58  82.6533
 51.2296  7063.32  83.5902
 51.2716  6849.62  82.0378
 51.3136  6885.63  82.7109
 51.3556  6863.12  82.1993
 51.3976  6927.62  82.7287
 51.4396  6750.94  81.9813
 51.4816  6833.65  82.3353
 51.5236  6948.35  83.1022
 51.5656  6884  82.3197
 51.6076  7005.72  83.1233
 51.6496  6851.69  82.4065
 51.6916  6923.52  83.1829
 51.7336  6842.56  82.8015
 51.7756  6883.86  82.7379
 51.8176  6823.08  82.485
 51.8596  6974.48  83.4088
 51.9016  6879.64  82.4446
 51.9436  6943.58  84.3358
 51.9856  6911.54  84.555
 52.0276  7101.33  84.1842
 52.0696  7061.29  84.0119
 52.1116  6920.33  83.2885
 52.1536  7049.49  83.9432
 52.1956  6963.07  82.8919
 52.2376  6990.24  83.2136
 52.2796  6982.56  82.9934
 52.3216  6776.73  82.4489
 52.3636  6940.65  82.9789
 52.4056  6947.97  82.9021
 52.4476  6807.11  82.4258
 52.4896  6890.19  82.9744
 52.5316  7064.37  84.0723
 52.5736  6831.17  82.3891
 52.6156  6987.01  83.7245
 52.6576  6841.72  82.2747
 52.6996  6642  82.0547
 52.7416  6822.88  83.0176
 52.7836  6824.42  82.9176
 52.8256  6908.27  82.6209
 52.8676  6717.14  82.056
 52.9096  6882.26  83.1284
 52.9516  6853.88  83.3415
 52.9936  6808.44  83.4244
 53.0356  6959.49  83.3282
 53.0776  6873.03  83.0911
 53.1196  6900.99  83.3757
 53.1616  6879.82  83.3094
 53.2036  6857.54  83.1338
 53.2456  6732.66  82.477
 53.2876  6857.31  82.9211
 53.3296  6840.16  83.1324
 53.3716  6959.5  83.618
 53.4136  6950.6  83.7218
 53.4556  6755.31  82.5533
 53.4976  6913.57  83.3645
 53.5396  6785.32  82.9727
 53.5816  6813.4  82.79
 53.6236  6740.01  82.6936
 53.6656  6853.94  82.9831
 53.7076  6823.04  82.7662
 53.7496  6844.92  83.0337
 53.7916  6817.28  83.0006
 53.8336  6800.19  82.779
 53.8756  6651.06  82.4141
 53.9176  6765.59  82.4578
 53.9596  6553.02  81.9345
 54.0016  6566.26  81.3331
 54.0436  6468.81  80.9586
 54.0856  6660.23  81.5669
 54.1276  6550.99  81.0842
 54.1696  6533.98  81.1341
 54.2116  6652.65  81.628
 54.2536  6573.63  80.9473
 54.2956  6537.82  80.7717
 54.3376  6490.82  80.9752
 54.3796  6510.34  80.9855
 54.4216  6562.13  81.3805
 54.4636  6573.53  81.3954
 54.5056  6593.51  81.3433
 54.5476  6497.57  81.0848
 54.5896  6509.71  81.0074
 54.6316  6506.64  80.7989
 54.6736  6524.7  81.0212
 54.7156  6505.96  80.9256
 54.7576  6381.52  80.1116
 54.7996  6498.51  81.0122
 54.8416  6495.32  81.0507
 54.8836  6525.73  81.315
 54.9256  6409  80.3317
 54.9676  6334.24  79.7585
 55.0096  6504.21  80.8531
 55.0516  6399.15  80.4433
 55.0936  6385.61  80.0212
 55.1356  6396.17  80.1098
 55.1776  6490.71  80.9625
 55.2196  6444.78  80.4535
 55.2616  6550.06  81.3312
 55.3036  6321.85  80.0769
 55.3456  6265.34  79.8596
 55.3876  6407.13  80.4688
 55.4296  6220.01  79.2937
 55.4716  6281.87  79.7168
 55.5136  6409.96  80.288
 55.5556  6521.4  81.0288
 55.5976  6357.48  80.086
 55.6396  6458.74  80.6724
 55.6816  6392.52  80.1299
 55.7236  6284.18  79.4926
 55.7656  6353.3  79.6603
 55.8076  6281.42  79.2186
 55.8496  6267.37  79.4205
 55.8916  6348.13  80.1355
 55.9336  6431.34  80.5034
 55.9756  6189.74  78.8633
 56.0176  6351.44  80.0134
 56.0596  6356.09  80.052
 56.1016  6201.89  79.0928
 56.1436  6150.92  79.0131
 56.1856  6177.89  78.9417
 56.2276  6410.96  80.4604
 56.2696  6224.64  79.2556
 56.3116  6334.76  80.327
 56.3536  6255.14  79.5037
 56.3956  6192.19  79.0945
 56.4376  6297.99  79.7819
 56.4796  6135.08  78.5767
 56.5216  6203.44  79.3816
 56.5636  6175.63  78.7784
 56.6056  6413.84  80.5212
 56.6476  6246.36  79.0836
 56.6896  6413.83  80.5979
 56.7316  6161.05  78.9192
 56.7736  6235.39  79.3833
 56.8156  6129.1  78.729
 56.8576  6062.18  78.2418
 56.8996  6171.48  78.8084
 56.9416  6128.04  78.8729
 56.9836  6271.31  79.3193
 57.0256  6153.73  78.8841
 57.0676  6184.85  79.1943
 57.1096  6138.09  78.6707
 57.1516  6129.31  78.6816
 57.1936  6198.87  78.8864
 57.2356  6061.81  78.315
 57.2776  6076.4  78.3928
 57.3196  6085.14  78.7928
 57.3616  6161.7  78.7936
 57.4036  6171.64  78.8933
 57.4456  6275.07  79.5386
 57.4876  6177.52  78.7867
 57.5296  6105.99  78.6542
 57.5716  6102.69  78.6412
 57.6136  6030.78  78.0071
 57.6556  6085.02  78.4883
 57.6976  6032.27  77.9801
 57.7396  6010.74  78.1949
 57.7816  6006.1  78.5234
 57.8236  6052.63  78.627
 57.8656  6139.16  78.8457
 57.9076  6135.74  78.8326
 57.9496  6098.27  78.9561
 57.9916  6071.98  78.2985
 58.0336  6097.48  78.7518
 58.0756  6126.77  78.5817
 58.1176  6100.7  78.3951
 58.1596  5978.23  78.1846
 58.2016  5920.77  77.0427
 58.2436  5894.19  77.2674
 58.2856  5858.5  76.9625
 58.3276  5765.39  76.6986
 58.3696  5828.12  76.8686
 58.4116  5748.97  76.2217
 58.4536  5854.23  76.7997
 58.4956  5780.02  76.4936
 58.5376  5944.6  77.1511
 58.5796  5821.96  76.7689
 58.6216  5840.43  76.7093
 58.6636  5776.81  76.4999
 58.7056  5831.77  76.7185
 58.7476  5802.36  76.96
 58.7896  5774.26  76.4247
 58.8316  5849.9  76.9158
 58.8736  5883.16  77.1498
 58.9156  5824.64  76.8029
 58.9576  5870.03  77.427
 58.9996  5891.93  76.8226
 59.0416  5894.05  77.1961
 59.0836  5811.64  76.5759
 59.1256  5772.88  77.0044
 59.1676  5791.9  77.4327
 59.2096  5797.29  76.8068
 59.2516  5865.72  76.8458
 59.2936  5947.72  77.7067
 59.3356  5840.8  76.8849
 59.3776  5953.42  77.7903
 59.4196  5771.42  76.5294
 59.4616  5788.66  76.5066
 59.5036  5649.5  75.6154
 59.5456  5841.02  76.585
 59.5876  5976.04  77.6552
 59.6296  5798.2  76.5589
 59.6716  5750.09  76.2971
 59.7136  5803.21  76.6373
 59.7556  5835.21  76.9824
 59.7976  5882.75  77.0409
 59.8396  5925.56  77.216
 59.8816  5843.38  77.2153
 59.9236  5932.54  77.4488
 59.9656  5706.4  76.2117
 60.0076  5698.22  75.5328
 60.0496  5822.85  76.8493
 60.0916  5869.86  76.585
 60.1336  5755.64  76.9174
 60.1756  5894.37  79.0089
 60.1996  0.0000000E+00  0.0000000E+00