File: docs/examples/opeando_xrd/IS17_D/Data/IS17_D/17_Db_f00047.xye
# /beamlines/bl04/projects/cycle2025-II/20250340211-lsimonelli/DATA/IS17_D/17_Db_f00047.xye : mythproc.py merge -s 0.006 -l 0.5 -f /beamlines/bl04/inhouse/ff/FlatField/ff_20Nov2024rod8mm60s_17keV.raw -b True -c true -o xye /beamlines/bl04/projects/cycle2025-II/20250340211-lsimonelli/DATA/IS17_D/17_Db_00047.dat
# IsMon = [6757909, 6762126, 6762090]  IsPos = [-1.5000, -2.4884, -3.4988]
# Wave = 0.4962  CalPath /beamlines/bl04/projects/cycle2025-II/20250340211-lsimonelli/DATA/Align/Si_Pos1_25keV_f00001.cal
# Date = 2025-09-24_06:48:02 Dt = 4.8000  Bin = 0.0060  <imon> = 6760708 +/- 1979 (Min/Max) 6757909 / 6762126
# icurr 250.7072  mocoIn 1.7100E-05  mocoOut 0.8026  i15 7.08498e+06  imon 6.76071e+06  i7 5.0000  iEMpd_timer 4.8000  iEMpd_1 3.4362E-08  iEMpd_2 7.9443E-08  iEMpd_3 1.6784E-08  iEMpd_4 4.9166E-08  iEMhp_timer 4.8000  iEMhp_1 4.8983E-06  iEMhp_2 -2.4621E-08  iEMhp_3 -2.2316E-08  iEMhp_4 -2.0768E-08
#      9776
 1.5856  45090.6  218.09
 1.6276  52071.2  230.343
 1.6696  57569.3  241.345
 1.7116  64789.9  256.534
 1.7536  73255.9  271.618
 1.7956  77375.8  279.845
 1.8376  73824.8  273.785
 1.8796  64158.4  253.368
 1.9216  53130  231.472
 1.9636  45881.3  214.763
 2.0056  41650.9  203.316
 2.0476  38844.3  198.498
 2.0896  37609.7  194.173
 2.1316  36659.5  190.783
 2.1736  35269.1  188.615
 2.2156  35937.9  188.866
 2.2576  34792.4  186.499
 2.2996  33124.4  182.641
 2.3416  33868.4  183.207
 2.3836  33297.3  181.767
 2.4256  32036.2  178.873
 2.4676  31569.5  177.313
 2.5096  31195.3  176.317
 2.5516  30160.4  177.321
 2.5936  29960.9  173.187
 2.6356  29777.7  173.39
 2.6776  29397.3  171.131
 2.7196  29054.3  170.636
 2.7616  29027.5  170.348
 2.8036  28403.5  168.675
 2.8456  28378.3  169.262
 2.8876  27731.3  167.172
 2.9296  27307.8  166.032
 2.9716  27086  164.83
 3.0136  27098.9  164.937
 3.0556  26993.3  165.014
 3.0976  26924.7  163.69
 3.1396  26245.4  162.342
 3.1816  26019.1  161.595
 3.2236  25852.1  161.056
 3.2656  25725.9  159.678
 3.3076  25394.3  160.163
 3.3496  25722.4  160.078
 3.3916  26048.1  160.911
 3.4336  26517.6  162.956
 3.4756  27016.7  164.428
 3.5176  27132.3  164.532
 3.5596  27060.8  167.391
 3.6016  27445.7  165.546
 3.6436  26357  163.359
 3.6856  25928.5  160.296
 3.7276  24995.4  158.484
 3.7696  24917.7  158.233
 3.8116  24380.4  156.607
 3.8536  24538.4  157.05
 3.8956  24369.3  156.32
 3.9376  24196.7  156.038
 3.9796  24124.6  155.281
 4.0216  24072.6  154.136
 4.0636  24214.4  156.09
 4.1056  24071.4  155.269
 4.1476  24439.4  156.777
 4.1896  24583.5  157.092
 4.2316  24611.2  157.006
 4.2736  24912.1  157.76
 4.3156  25268.9  159.119
 4.3576  26014.8  161.351
 4.3996  26163.1  162.091
 4.4416  26478.7  162.643
 4.4836  27089.6  164.67
 4.5256  27683.5  167.095
 4.5676  27517.2  166.844
 4.6096  27729.1  166.496
 4.6516  28419.1  167.877
 4.6936  28321.7  168.42
 4.7356  28463.9  168.665
 4.7776  28368.8  168.202
 4.8196  28433.5  169.073
 4.8616  27783.7  166.601
 4.9036  27689.8  166.056
 4.9456  27488.7  166.113
 4.9876  26807.8  163.94
 5.0296  26999.3  164.36
 5.0716  26747.1  164.352
 5.1136  27190.4  165.428
 5.1556  27204.5  164.91
 5.1976  27945  167.151
 5.2396  27627.9  165.88
 5.2816  27900  167.182
 5.3236  27580.7  165.904
 5.3656  27406.8  166.327
 5.4076  27128.3  165.622
 5.4496  27004.2  164.727
 5.4916  27202.9  165.088
 5.5336  27150.2  164.933
 5.5756  27291.3  165.383
 5.6176  27329.6  164.933
 5.6596  27547.9  166.424
 5.7016  27379.8  165.335
 5.7436  27445.9  165.815
 5.7856  27558.3  166.221
 5.8276  27629  166.141
 5.8696  28054.6  167.488
 5.9116  27891.9  167.711
 5.9536  28353.9  168.846
 5.9956  28381.9  168.301
 6.0376  28410.7  169.013
 6.0796  28759.2  169.878
 6.1216  28498.5  169.299
 6.1636  29037.6  169.942
 6.2056  28689.5  169.6
 6.2476  29098.7  170.497
 6.2896  29345.3  171.071
 6.3316  29376.7  171.342
 6.3736  29409.3  171.323
 6.4156  29528.9  171.625
 6.4576  29644.7  171.519
 6.4996  29585.7  171.819
 6.5416  29927.7  172.944
 6.5836  29741.2  172.641
 6.6256  30102.4  173.242
 6.6676  30681.2  174.461
 6.7096  30557.1  174.991
 6.7516  30897.1  175.603
 6.7936  30976.2  175.22
 6.8356  31087.8  175.636
 6.8776  31086.8  176.439
 6.9196  31340.2  177.569
 6.9616  31838.9  178.4
 7.0036  32235.8  179.172
 7.0456  32192.2  178.341
 7.0876  32469.4  180.734
 7.1296  32146.9  179.042
 7.1716  32229.8  178.81
 7.2136  31711.2  177.138
 7.2556  32242.7  178.775
 7.2976  31999.7  178.606
 7.3396  31846.2  178.388
 7.3816  31841.5  178.597
 7.4236  32280.5  179.114
 7.4656  32383.1  178.855
 7.5076  32710.5  179.912
 7.5496  32393.7  179.57
 7.5916  32464.7  179.815
 7.6336  33134.6  181.549
 7.6756  33314.4  181.89
 7.7176  33707  183.293
 7.7596  33434.8  183.782
 7.8016  33969  187.501
 7.8436  33545.7  182.957
 7.8856  33923.4  183.59
 7.9276  34566  185.721
 7.9696  34520.4  185.905
 8.0116  35714.4  187.633
 8.0536  35829.2  188.183
 8.0956  35940.7  189.666
 8.1376  36337.1  190.175
 8.1796  36516.7  191.183
 8.2216  37028  191.254
 8.2636  37265.3  192.119
 8.3056  37196.9  192.716
 8.3476  37504.9  192.84
 8.3896  37363  192.551
 8.4316  37794.3  193.828
 8.4736  37778.6  193.255
 8.5156  37524.6  192.882
 8.5576  37262.2  193.177
 8.5996  37279.7  192.097
 8.6416  37223.5  193.214
 8.6836  36552.5  191.297
 8.7256  37274.4  192.623
 8.7676  37094.1  195.092
 8.8096  37621.6  193.771
 8.8516  37854.2  193.997
 8.8936  36605  190.659
 8.9356  37262.3  192.705
 8.9776  37075.3  192.296
 9.0196  37105.5  192.053
 9.0616  36854.1  190.89
 9.1036  36334.1  190.713
 9.1456  36023.4  189.219
 9.1876  36549  190.536
 9.2296  35995.9  188.525
 9.2716  35863.3  188.222
 9.3136  35930.2  188.397
 9.3556  36228.6  189.151
 9.3976  35321.8  187.291
 9.4396  35560.2  187.829
 9.4816  34975.4  186.142
 9.5236  34908.8  185.854
 9.5656  34294.8  184.564
 9.6076  33755.9  183.621
 9.6496  33845.5  183.756
 9.6916  33759.7  183.474
 9.7336  33841.2  183.476
 9.7756  33834.4  184.599
 9.8176  33361.7  182.951
 9.8596  33526  181.84
 9.9016  32902.4  180.123
 9.9436  32543.3  178.885
 9.9856  32412.8  178.971
 10.0276  31874.1  178.555
 10.0696  32274  178.697
 10.1116  31451  176.673
 10.1536  31364.5  176.088
 10.1956  30779.2  174.548
 10.2376  30765.5  174.02
 10.2796  30654.3  173.804
 10.3216  30073.2  172.278
 10.3636  30030  172.339
 10.4056  29307.9  170.653
 10.4476  29677.2  171.333
 10.4896  29524.9  170.347
 10.5316  29289.1  170.063
 10.5736  28857.6  169.544
 10.6156  28849.5  169.274
 10.6576  28596.2  167.095
 10.6996  28290.4  166.906
 10.7416  28004.8  166.277
 10.7836  27637.3  165.842
 10.8256  27371.5  165.466
 10.8676  27206.7  164.507
 10.9096  27072.5  164.143
 10.9516  26767.8  162.157
 10.9936  26870.5  162.684
 11.0356  26588.2  162.429
 11.0776  26464.4  161.39
 11.1196  25974.2  160.643
 11.1616  25815.5  159.823
 11.2036  25878.6  159.868
 11.2456  25708.3  160.041
 11.2876  25864.6  160.272
 11.3296  25509.4  159.07
 11.3716  25701.8  159.396
 11.4136  25723.4  160.305
 11.4556  25487.6  159.226
 11.4976  25751.3  159.058
 11.5396  25848.9  159.521
 11.5816  26663.6  162.463
 11.6236  27127.2  164.104
 11.6656  27580.8  164.608
 11.7076  26573.1  162.419
 11.7496  25809.2  164.121
 11.7916  25490.4  158.322
 11.8336  25001  157.683
 11.8756  25088.3  157.51
 11.9176  24970.9  156.807
 11.9596  24922.6  156.839
 12.0016  24777.4  157.142
 12.0436  24721.7  156.419
 12.0856  24342  155.717
 12.1276  24223.5  155.287
 12.1696  24341.4  154.777
 12.2116  24419.2  155.017
 12.2536  24142.4  154.945
 12.2956  23988  153.803
 12.3376  24227.1  154.791
 12.3796  24200.4  155.18
 12.4216  24211.6  154.411
 12.4636  23919.3  154.411
 12.5056  23911  153.649
 12.5476  24195.5  154.068
 12.5896  23881.2  153.705
 12.6316  24066.6  154.461
 12.6736  23908.8  154.441
 12.7156  24121.9  154.963
 12.7576  24080  155.081
 12.7996  23917.1  153.203
 12.8416  23857.7  154.07
 12.8836  24086.7  154.627
 12.9256  24472.1  154.895
 12.9676  24245.8  154.567
 13.0096  24692.9  157.135
 13.0516  24499.6  155.534
 13.0936  24714.5  156.342
 13.1356  24780.2  155.791
 13.1776  24706.9  156.586
 13.2196  24971.4  157.061
 13.2616  24619.6  156.26
 13.3036  25133.4  158.03
 13.3456  24630.2  156.61
 13.3876  25128.9  157.465
 13.4296  24584.6  155.911
 13.4716  24697.7  155.892
 13.5136  24716.7  156.083
 13.5556  24523.2  156.101
 13.5976  24838.9  157.277
 13.6396  24790  156.466
 13.6816  24942.6  157.309
 13.7236  25293.5  158.128
 13.7656  26691.8  162.887
 13.8076  27472.3  163.876
 13.8496  26143.9  160.743
 13.8916  25050.2  158.293
 13.9336  24391.1  155.459
 13.9756  24268.3  154.439
 14.0176  23986.5  154.224
 14.0596  24161  154.719
 14.1016  23888.8  154.274
 14.1436  24168.3  154.3
 14.1856  23395.7  152.102
 14.2276  23480.7  152.871
 14.2696  23395.1  152.438
 14.3116  22803.7  150.397
 14.3536  22804  150.566
 14.3956  22732.1  150.056
 14.4376  23011.6  150.759
 14.4796  22805.7  150.083
 14.5216  22427.4  149.622
 14.5636  22309  148.794
 14.6056  22588.8  149.286
 14.6476  22408.3  147.916
 14.6896  22001.2  147.122
 14.7316  21597.9  146.804
 14.7736  21434.2  145.386
 14.8156  21368.4  145.184
 14.8576  21290.1  144.773
 14.8996  21076.2  145.253
 14.9416  20506  143.287
 14.9836  20613.7  143.643
 15.0256  19920.6  140.115
 15.0676  19935.9  140.481
 15.1096  19833.7  139.858
 15.1516  19554.8  139.421
 15.1936  19333.4  138.068
 15.2356  19297.3  138.216
 15.2776  19156.5  137.3
 15.3196  18784  136.95
 15.3616  18753.9  136.598
 15.4036  18665.7  136.141
 15.4456  19024.3  137.088
 15.4876  18424.2  134.593
 15.5296  18456.4  134.991
 15.5716  18079.3  133.216
 15.6136  18201.6  133.987
 15.6556  18161.3  133.087
 15.6976  17942.3  132.576
 15.7396  17785.8  132.379
 15.7816  17831.6  132.065
 15.8236  17598.3  131.887
 15.8656  17576.7  131.601
 15.9076  17338.1  130.528
 15.9496  18134.2  136.341
 15.9916  17735.4  135.249
 16.0336  17914.5  132.775
 16.0756  17865.3  132.919
 16.1176  17302  130.711
 16.1596  17178.5  131.597
 16.2016  17053.1  129.869
 16.2436  17125.5  130.528
 16.2856  16942.5  129.349
 16.3276  16477.9  127.995
 16.3696  16990.4  129.797
 16.4116  16715.7  129.198
 16.4536  16977.1  129.999
 16.4956  16816.2  129.115
 16.5376  16544.7  128.259
 16.5796  16532.3  127.572
 16.6216  16614.4  128.163
 16.6636  16237  126.876
 16.7056  16423.2  127.457
 16.7476  16561.7  127.529
 16.7896  16307.4  127.286
 16.8316  16377.6  127.546
 16.8736  16577.4  128.581
 16.9156  16542.7  128.771
 16.9576  16185.6  128.158
 16.9996  16204.6  128.7
 17.0416  16532.5  128.371
 17.0836  16524  128.106
 17.1256  16204.8  126.866
 17.1676  16407.3  127.615
 17.2096  16384.2  127.421
 17.2516  16259.7  127.036
 17.2936  16108.3  126.487
 17.3356  16066.8  126.311
 17.3776  15806.5  125.472
 17.4196  15732  124.866
 17.4616  15819.6  125.128
 17.5036  15354.9  123.639
 17.5456  15287.6  124.002
 17.5876  15413.9  123.561
 17.6296  15413  123.372
 17.6716  15157.2  122.935
 17.7136  15184.5  123.179
 17.7556  14928.7  122.426
 17.7976  14863.6  121.877
 17.8396  14725.2  120.827
 17.8816  14690.7  121.245
 17.9236  14760.1  121.333
 17.9656  14435.7  120.508
 18.0076  14704.2  121.212
 18.0496  14442.5  119.265
 18.0916  14455  119.865
 18.1336  14278.2  119.218
 18.1756  14640.5  120.276
 18.2176  14271.2  118.959
 18.2596  14193  118.362
 18.3016  14350.2  119.276
 18.3436  14358.6  119.313
 18.3856  14316.3  119.276
 18.4276  14131.6  118.187
 18.4696  14184.9  118.497
 18.5116  14372.4  119.542
 18.5536  14225.7  119.305
 18.5956  13906.3  117.52
 18.6376  13936  118.034
 18.6796  14197.9  118.482
 18.7216  14172.3  118.845
 18.7636  14085.7  118.493
 18.8056  13953.4  117.851
 18.8476  13796.2  117.811
 18.8896  14024.4  118.116
 18.9316  13943.1  117.756
 18.9736  13968.5  117.564
 19.0156  13840.7  117.436
 19.0576  13903.5  116.559
 19.0996  14175  118.413
 19.1416  13889.9  117.613
 19.1836  13909.7  117.295
 19.2256  13656.7  116.444
 19.2676  13823.4  117.237
 19.3096  13713.7  117.007
 19.3516  13875.9  117.481
 19.3936  13618.6  116.456
 19.4356  13975.4  117.865
 19.4776  13940.4  117.803
 19.5196  13905.4  117.516
 19.5616  13658.2  116.713
 19.6036  13762.3  116.654
 19.6456  13701.5  116.518
 19.6876  13698.6  116.135
 19.7296  14126.7  118.419
 19.7716  13626.9  116.462
 19.8136  13864.6  117.678
 19.8556  14044.5  117.922
 19.8976  13872.7  117.25
 19.9396  13884.9  116.898
 19.9816  13916.1  117.274
 20.0236  14167.1  118.511
 20.0656  14287  119.011
 20.1076  14600.1  120.81
 20.1496  14571.1  120.682
 20.1916  15043.4  122.077
 20.2336  14919.6  121.538
 20.2756  14643.1  120.856
 20.3176  14303.6  119.181
 20.3596  14126.4  118.425
 20.4016  14138.6  118.273
 20.4436  13752.7  117.21
 20.4856  13860.4  117.469
 20.5276  13718.2  117.329
 20.5696  13511.1  115.993
 20.6116  13492.2  116.087
 20.6536  13423.3  115.297
 20.6956  13432.1  115.467
 20.7376  13200.3  114.676
 20.7796  13340.8  114.967
 20.8216  13491.2  115.336
 20.8636  13283.8  114.821
 20.9056  13341.2  115.005
 20.9476  13252.8  114.476
 20.9896  13409.8  115
 21.0316  13290.7  114.387
 21.0736  13192.6  114.495
 21.1156  13098.7  114.242
 21.1576  13196.7  114.708
 21.1996  13001.2  113.845
 21.2416  13141.1  114.283
 21.2836  13188  114.453
 21.3256  13008.3  113.758
 21.3676  13085.8  113.617
 21.4096  12900.8  113.181
 21.4516  12772.6  112.44
 21.4936  12679.7  112.307
 21.5356  12992  113.621
 21.5776  13124  114.031
 21.6196  12844.7  112.847
 21.6616  12701.9  112.305
 21.7036  12907.8  112.981
 21.7456  12909.3  113.071
 21.7876  12766.1  112.204
 21.8296  12732.7  111.903
 21.8716  12819.5  112.51
 21.9136  12840.4  112.805
 21.9556  12885.4  112.676
 21.9976  12680.3  111.804
 22.0396  12661.7  111.972
 22.0816  12621.7  112.318
 22.1236  12840.4  112.746
 22.1656  12693.2  112.242
 22.2076  12504.5  110.855
 22.2496  12421  110.514
 22.2916  12520.9  110.843
 22.3336  12579.3  111.822
 22.3756  12491.8  111.155
 22.4176  12313.5  110.199
 22.4596  12237.6  110.456
 22.5016  12379.1  110.6
 22.5436  12554.9  111.257
 22.5856  12540.3  111.437
 22.6276  12693.8  112.25
 22.6696  12407.9  111.337
 22.7116  12411.2  110.864
 22.7536  12461.3  111.062
 22.7956  12364  109.965
 22.8376  12295.6  110.18
 22.8796  12180.3  109.463
 22.9216  12409  111.029
 22.9636  12318.2  109.784
 23.0056  12300.2  109.835
 23.0476  12401.8  110.857
 23.0896  12743.8  111.749
 23.1316  12389.1  110.614
 23.1736  12590.5  114.459
 23.2156  12730  112.467
 23.2576  12850.2  113.14
 23.2996  12783.6  112.611
 23.3416  12982.9  114.026
 23.3836  12778.7  112.35
 23.4256  13035.5  113.604
 23.4676  12726.9  111.937
 23.5096  12940.5  113.536
 23.5516  12780.9  112.131
 23.5936  12570.1  112.109
 23.6356  12847.2  113
 23.6776  12536.1  111.832
 23.7196  12670.5  112.229
 23.7616  12673.4  111.935
 23.8036  12753.7  112.349
 23.8456  12492.7  110.742
 23.8876  12609.8  111.627
 23.9296  12440  111.349
 23.9716  12462.8  110.658
 24.0136  12604.6  112.199
 24.0556  12505.4  111.459
 24.0976  12352.5  110.603
 24.1396  12187.1  112.467
 24.1816  12401.4  111.867
 24.2236  12335.4  111.185
 24.2656  12218.4  110.136
 24.3076  12138.8  110.042
 24.3496  12185.4  110.12
 24.3916  12131.8  109.945
 24.4336  11984.6  109.472
 24.4756  12250  110.567
 24.5176  11921.4  108.706
 24.5596  11975.2  109.272
 24.6016  11932.8  109.179
 24.6436  11901.4  108.54
 24.6856  11879.4  108.176
 24.7276  11716.8  107.754
 24.7696  11596  107.306
 24.8116  11457  106.834
 24.8536  11572.7  107.386
 24.8956  11691.1  107.664
 24.9376  11487.4  106.906
 24.9796  11509.3  107.115
 25.0216  11389.3  106.675
 25.0636  11494  106.811
 25.1056  11292.7  106.568
 25.1476  11269.1  108.102
 25.1896  11333.1  106.899
 25.2316  11287.9  105.96
 25.2736  11262.2  105.486
 25.3156  11113.1  104.861
 25.3576  11115.8  105.305
 25.3996  11221  105.794
 25.4416  11217.1  105.749
 25.4836  10973.4  105.11
 25.5256  11128.1  105.21
 25.5676  11104.8  104.824
 25.6096  10942.7  104.629
 25.6516  11075.2  104.768
 25.6936  11145.8  105.427
 25.7356  10957.4  104.66
 25.7776  10945  104.274
 25.8196  10870.4  104.085
 25.8616  10833.9  103.837
 25.9036  11062.7  104.381
 25.9456  10942.7  104.409
 25.9876  11098.6  105.077
 26.0296  10943.4  103.992
 26.0716  10863.9  104.045
 26.1136  11004.9  104.64
 26.1556  10874.4  103.413
 26.1976  10751.4  103.75
 26.2396  10765.5  102.971
 26.2816  10954  104.485
 26.3236  10854.5  104.162
 26.3656  10930.1  104.253
 26.4076  10839.9  104.005
 26.4496  11061.4  104.678
 26.4916  10999.5  104.28
 26.5336  11482.5  106.882
 26.5756  11487.5  106.785
 26.6176  11073.3  104.857
 26.6596  11028.5  104.967
 26.7016  10829.8  103.77
 26.7436  10909.1  104.29
 26.7856  10650.3  103.031
 26.8276  10757.9  103.51
 26.8696  10871.8  103.923
 26.9116  10695.1  103.019
 26.9536  10688.5  103.031
 26.9956  10580.9  102.548
 27.0376  10690.3  103.303
 27.0796  10595.9  102.568
 27.1216  10558.2  102.455
 27.1636  10340  101.551
 27.2056  10422.5  101.844
 27.2476  10439  101.91
 27.2896  10323.8  101.461
 27.3316  10302.6  101.08
 27.3736  10300.1  101.335
 27.4156  10345.5  101.398
 27.4576  10282.1  101.303
 27.4996  10481.5  101.886
 27.5416  10303.4  101.329
 27.5836  10232.9  100.813
 27.6256  10200.1  100.83
 27.6676  10256.2  101.101
 27.7096  10182.9  100.621
 27.7516  10132.5  100.516
 27.7936  10483.5  102.404
 27.8356  10504.7  102.096
 27.8776  10471.3  102.007
 27.9196  10129.2  100.188
 27.9616  10212.8  100.796
 28.0036  10189.6  100.63
 28.0456  10093.2  100.305
 28.0876  10049.9  100.18
 28.1296  10020.4  99.8642
 28.1716  10147.1  100.519
 28.2136  10038.4  99.9381
 28.2556  10030.5  100.017
 28.2976  10017.7  99.9452
 28.3396  10008.9  99.6506
 28.3816  10027.9  99.763
 28.4236  9811.51  98.8238
 28.4656  9788.52  98.7573
 28.5076  9917.02  99.0439
 28.5496  10027.9  99.8471
 28.5916  9945.43  99.2521
 28.6336  10045.2  100.096
 28.6756  10050.2  99.3187
 28.7176  9929.46  99.2673
 28.7596  9901.49  99.0155
 28.8016  9874.31  98.9243
 28.8436  9755.72  98.5673
 28.8856  9799.91  98.6422
 28.9276  9777.86  98.7756
 28.9696  9758.57  98.3341
 29.0116  9797.01  98.7094
 29.0536  9659.8  98.2243
 29.0956  9784.98  98.5532
 29.1376  9727.53  98.2505
 29.1796  9800.9  98.6648
 29.2216  9708.55  98.0369
 29.2636  9736.64  98.255
 29.3056  9726.28  97.9876
 29.3476  9769.18  98.7264
 29.3896  9717.67  98.5837
 29.4316  9446.41  96.5271
 29.4736  9484.91  96.7868
 29.5156  9545.58  97.0066
 29.5576  9543.83  97.7453
 29.5996  9511.94  96.8458
 29.6416  9434.77  96.5644
 29.6836  9426.33  96.4552
 29.7256  9496.21  97.3734
 29.7676  9469.75  96.9012
 29.8096  9424.36  96.6119
 29.8516  9218.62  95.8786
 29.8936  9416.18  96.9928
 29.9356  9571.48  97.5442
 29.9776  9342.46  96.5228
 30.0196  9321.21  95.8084
 30.0616  9315.17  96.1466
 30.1036  9464.88  96.7418
 30.1456  9233.73  95.7817
 30.1876  9365.62  96.4433
 30.2296  9189.01  95.4783
 30.2716  9280.52  95.5939
 30.3136  9345.2  96.7786
 30.3556  9633.23  98.2733
 30.3976  9303.85  98.0468
 30.4396  9718.06  97.5589
 30.4816  9606.89  96.6012
 30.5236  9529.44  96.2136
 30.5656  9545.75  96.9484
 30.6076  9458.95  96.2559
 30.6496  9468.94  96.3857
 30.6916  9394.54  96.0892
 30.7336  9460.65  96.5846
 30.7756  9442.4  96.5558
 30.8176  9617.86  97.3958
 30.8596  9454.11  96.3004
 30.9016  9545.64  96.6594
 30.9436  9505.29  96.6605
 30.9856  9621.73  97.3835
 31.0276  9589.7  96.8421
 31.0696  9538.59  97.1457
 31.1116  9464.55  96.7473
 31.1536  9337.35  95.9563
 31.1956  9508.63  96.9207
 31.2376  9224.69  95.4978
 31.2796  9319.53  95.5179
 31.3216  9291.85  95.3006
 31.3636  9470.26  96.9226
 31.4056  9318.76  97.4639
 31.4476  9422.57  95.8924
 31.4896  9304.31  95.791
 31.5316  9291.46  95.1261
 31.5736  9463.3  95.8357
 31.6156  9491.55  95.9808
 31.6576  9374.31  95.4718
 31.6996  9501.15  95.7742
 31.7416  9415.72  96.3067
 31.7836  9313.36  94.9112
 31.8256  9458.12  95.9195
 31.8676  9427.37  95.7437
 31.9096  9222.95  94.9271
 31.9516  9176.59  95.0095
 31.9936  9210.38  95.0029
 32.0356  9239.76  95.198
 32.0776  9316.29  95.4952
 32.1196  9343.96  95.6591
 32.1616  9361.16  95.2607
 32.2036  9215.88  95.0508
 32.2456  9236.46  95.5275
 32.2876  9302.97  95.3699
 32.3296  9037.11  93.9638
 32.3716  8998.83  93.8705
 32.4136  8995.23  94.0493
 32.4556  9184.77  94.4159
 32.4976  9223.84  94.5724
 32.5396  8921.35  93.0286
 32.5816  9047.02  93.8117
 32.6236  8977.34  93.5113
 32.6656  9089.18  94.6387
 32.7076  8953.07  93.5809
 32.7496  9032.13  93.6665
 32.7916  9113.39  94.0498
 32.8336  8978.29  93.4393
 32.8756  9091.44  93.7459
 32.9176  8889.96  93.1902
 32.9596  8945.35  93.5531
 33.0016  8891.28  93.0423
 33.0436  9021.13  93.8783
 33.0856  8893.98  93.322
 33.1276  8774.82  92.4227
 33.1696  9009.86  93.4777
 33.2116  8943.04  93.3751
 33.2536  9050.29  93.9126
 33.2956  8862.52  93.0286
 33.3376  8750.8  92.2633
 33.3796  8901.85  93.1932
 33.4216  8935.44  92.9546
 33.4636  8984  93.3623
 33.5056  8728.59  92.2701
 33.5476  8856.53  92.9306
 33.5896  8930.94  93.105
 33.6316  8906.82  93.2923
 33.6736  8817.24  93.0646
 33.7156  8811.92  93.0703
 33.7576  8993.24  93.6627
 33.7996  8833.29  92.5819
 33.8416  8716.37  92.1573
 33.8836  8830.4  92.5251
 33.9256  8908.42  92.9974
 33.9676  8915.24  92.9286
 34.0096  8767.34  92.4716
 34.0516  8743.3  91.9805
 34.0936  8700.39  92.0252
 34.1356  8759.22  92.0758
 34.1776  8661.75  91.5474
 34.2196  8765.63  92.2928
 34.2616  8635.99  91.7457
 34.3036  8755.95  92.6297
 34.3456  8705.29  92.1056
 34.3876  8708.69  92.189
 34.4296  8704.34  91.7624
 34.4716  8729.5  92.0467
 34.5136  8676.21  91.9581
 34.5556  8542.76  91.505
 34.5976  8743.63  92.4242
 34.6396  8608.99  91.3852
 34.6816  8636.46  91.6407
 34.7236  8713.35  91.8208
 34.7656  8603.35  91.4487
 34.8076  8500.59  91.2319
 34.8496  8476  90.946
 34.8916  8592.81  91.4313
 34.9336  8573.21  91.3095
 34.9756  8747.65  92.1837
 35.0176  8656.86  92.2092
 35.0596  8727.86  92.4071
 35.1016  8710.53  92.0618
 35.1436  8864.11  92.5563
 35.1856  8687.61  91.7629
 35.2276  8572.81  91.3159
 35.2696  8633.05  91.8318
 35.3116  8508.95  91.2721
 35.3536  8673.21  91.8918
 35.3956  8628.21  91.3263
 35.4376  8716.66  92.3683
 35.4796  8668.97  92.151
 35.5216  8524.72  91.347
 35.5636  8403.38  91.4325
 35.6056  8475.58  90.8414
 35.6476  8492.57  90.8376
 35.6896  8507.63  91.0135
 35.7316  8428.09  90.562
 35.7736  8433.41  90.771
 35.8156  8397.74  90.5845
 35.8576  8451.04  91.1095
 35.8996  8432.19  90.9912
 35.9416  8460.44  90.6467
 35.9836  8361.97  90.5688
 36.0256  8622.53  91.8615
 36.0676  8550.84  91.2322
 36.1096  8449.88  90.8395
 36.1516  8528  91.1549
 36.1936  8601.78  91.3872
 36.2356  8422.35  91.0845
 36.2776  8391.96  90.3797
 36.3196  8412.56  90.1767
 36.3616  8420.32  90.3455
 36.4036  8447.45  90.5549
 36.4456  8503.62  91.0733
 36.4876  8311.02  89.9754
 36.5296  8319.15  90.0552
 36.5716  8240.25  90.4039
 36.6136  8345.34  89.7533
 36.6556  8215.81  89.2472
 36.6976  8181.74  89.561
 36.7396  8070.27  88.6826
 36.7816  8174.24  89.6257
 36.8236  8157.94  89.4592
 36.8656  8000.38  88.6657
 36.9076  8119.01  89.192
 36.9496  7907.46  88.0147
 36.9916  8074.24  88.5654
 37.0336  8224.44  89.7057
 37.0756  8111.46  88.8779
 37.1176  7982.68  88.4379
 37.1596  8118.6  89.1842
 37.2016  8104.42  89.3402
 37.2436  8057.67  88.3919
 37.2856  8045.09  88.591
 37.3276  8059.91  88.0279
 37.3696  8053.81  88.8724
 37.4116  8114.06  89.11
 37.4536  7828.87  87.4002
 37.4956  7886.6  87.7692
 37.5376  8170.23  90.9203
 37.5796  8175.59  90.8908
 37.6216  8117.06  88.8287
 37.6636  8171.77  89.0263
 37.7056  8067.06  88.6393
 37.7476  8259.39  89.2276
 37.7896  8005.29  88.346
 37.8316  8107.56  89.0584
 37.8736  8178.87  88.9781
 37.9156  8123.75  88.6855
 37.9576  8145.16  88.7037
 37.9996  7966.05  87.4375
 38.0416  8079.34  88.8603
 38.0836  8220.44  89.5359
 38.1256  8095.59  88.8293
 38.1676  7963.02  88.2133
 38.2096  8100.31  88.596
 38.2516  8086.69  88.7294
 38.2936  8189.5  89.0897
 38.3356  8131.1  88.7013
 38.3776  8055.2  88.5371
 38.4196  8048.67  88.3588
 38.4616  8050.39  88.6138
 38.5036  8135.91  88.9274
 38.5456  7877.7  88.3075
 38.5876  7953.97  88.7744
 38.6296  8097.53  88.5333
 38.6716  7944.8  87.5033
 38.7136  8026.21  87.8887
 38.7556  8022.99  88.3847
 38.7976  8138.14  88.9411
 38.8396  7925.36  88.2352
 38.8816  8005.84  88.4746
 38.9236  7942.26  87.9169
 38.9656  7909.7  87.6471
 39.0076  8021.6  87.6701
 39.0496  8209.2  89.2548
 39.0916  8190.44  88.7874
 39.1336  8058.66  88.4753
 39.1756  7885.43  87.5847
 39.2176  7956.36  88.5129
 39.2596  8062.06  89.0282
 39.3016  7967.29  88.087
 39.3436  7850.06  87.8417
 39.3856  7985.72  88.0513
 39.4276  8046.36  88.8922
 39.4696  7944.49  87.94
 39.5116  8095.89  89.3002
 39.5536  7985.48  89.1089
 39.5956  8036.47  88.4874
 39.6376  7905.2  87.7624
 39.6796  8007.89  88.0727
 39.7216  7902.21  87.5938
 39.7636  8007.22  88.7412
 39.8056  8010.47  88.5388
 39.8476  7846.09  87.8789
 39.8896  7979.36  88.2542
 39.9316  7868.89  87.8827
 39.9736  7934.13  87.8232
 40.0156  7979.67  87.9092
 40.0576  7886.92  87.7453
 40.0996  7999.11  87.5514
 40.1416  7916.51  87.8894
 40.1836  7990.23  88.1909
 40.2256  7924.18  87.8504
 40.2676  7845.26  87.589
 40.3096  8005.52  88.3457
 40.3516  7973.21  88.2727
 40.3936  8074.91  88.3865
 40.4356  7900.35  87.6326
 40.4776  7988.78  88.3624
 40.5196  8025.29  88.8533
 40.5616  8169.67  89.2882
 40.6036  7962.6  88.403
 40.6456  7914.67  87.7529
 40.6876  8145.28  89.0055
 40.7296  7960.56  88.1245
 40.7716  8056.2  88.7771
 40.8136  7937.52  88.0711
 40.8556  8088.69  89.0418
 40.8976  7979.29  88.3584
 40.9396  8026.17  88.9676
 40.9816  8200.53  89.1931
 41.0236  7980.16  87.7812
 41.0656  8130.26  89.1386
 41.1076  7973.44  88.0496
 41.1496  8049.89  88.3792
 41.1916  7965.17  88.2258
 41.2336  8043.09  88.6624
 41.2756  7992.52  87.9829
 41.3176  8081.2  89.0902
 41.3596  8009.52  88.4256
 41.4016  7989.19  88.572
 41.4436  8097.86  88.9605
 41.4856  7954.03  88.3284
 41.5276  7887.99  87.9799
 41.5696  7907.43  87.7159
 41.6116  8038.89  88.8444
 41.6536  7979.68  88.3554
 41.6956  8052.52  88.7487
 41.7376  7900.47  88.0066
 41.7796  7880.74  87.79
 41.8216  7903.3  88.1444
 41.8636  7906.75  88.1069
 41.9056  7858.79  87.6339
 41.9476  7996.45  88.6303
 41.9896  8058.46  88.6352
 42.0316  8003.17  88.4216
 42.0736  7939.22  88.1967
 42.1156  7933.34  87.9693
 42.1576  7987.33  88.3752
 42.1996  8072.8  88.9832
 42.2416  7909.16  87.6599
 42.2836  7971.85  88.1258
 42.3256  7988.09  88.3301
 42.3676  8009.32  88.2478
 42.4096  7973.06  88.0061
 42.4516  7995.25  88.2256
 42.4936  7912.41  87.8337
 42.5356  7883.55  87.8093
 42.5776  7945.57  88.0969
 42.6196  8000.07  88.449
 42.6616  7758.1  87.2726
 42.7036  7955.94  87.7529
 42.7456  8042.24  88.5902
 42.7876  7825.67  87.4703
 42.8296  7918.16  87.8354
 42.8716  7874.65  87.7578
 42.9136  7749.82  86.808
 42.9556  7917.93  87.9177
 42.9976  7861.04  87.5662
 43.0396  7820.76  87.0708
 43.0816  7825.9  87.4868
 43.1236  7837.27  87.5768
 43.1656  7843.5  87.4545
 43.2076  7859.73  87.6611
 43.2496  7813.59  87.2235
 43.2916  7749.41  87.223
 43.3336  7845.28  87.5908
 43.3756  7928.27  87.8156
 43.4176  7725.7  86.7581
 43.4596  7790.56  86.9807
 43.5016  7785.29  87.3554
 43.5436  7845.79  87.6037
 43.5856  7798.71  87.3654
 43.6276  7744.34  86.9513
 43.6696  7669.56  86.7853
 43.7116  7863.89  87.3704
 43.7536  7864.86  87.8791
 43.7956  7672.89  88.0097
 43.8376  7553.22  85.8458
 43.8796  7558.04  85.9537
 43.9216  7650.32  86.3967
 43.9636  7677.66  86.6582
 44.0056  7695.45  86.9906
 44.0476  7591.76  86.0345
 44.0896  7556.56  86.1767
 44.1316  7703.31  86.5297
 44.1736  7560.54  85.8498
 44.2156  7639.82  86.1491
 44.2576  7604.54  86.2723
 44.2996  7644.38  86.4736
 44.3416  7545.54  85.6755
 44.3836  7553.9  86.0524
 44.4256  7541.1  85.6208
 44.4676  7502.48  85.5581
 44.5096  7608.63  86.3031
 44.5516  7558.69  85.986
 44.5936  7384.67  84.944
 44.6356  7582.62  85.812
 44.6776  7573.18  86.0778
 44.7196  7495.7  85.9411
 44.7616  7574.37  87.7218
 44.8036  7668.98  86.8966
 44.8456  7736.12  87.273
 44.8876  7744.45  87.1639
 44.9296  7788.9  86.8496
 44.9716  7787.7  87.2808
 45.0136  7770.6  87.1236
 45.0556  7633.42  86.4411
 45.0976  7762.37  87.2156
 45.1396  7754.75  86.9356
 45.1816  7624.37  86.1276
 45.2236  7822.73  87.1512
 45.2656  7544.99  86.0791
 45.3076  7601.88  86.1973
 45.3496  7560.78  86.2698
 45.3916  7452.76  85.9169
 45.4336  7687.68  87.104
 45.4756  7610  86.5203
 45.5176  7611.58  86.143
 45.5596  7647.09  86.4671
 45.6016  7558.98  86.3868
 45.6436  7794.62  86.8844
 45.6856  7624.11  86.5908
 45.7276  7439.5  86.845
 45.7696  7506.88  86.9183
 45.8116  7589.02  86.8105
 45.8536  7611.98  86.8376
 45.8956  7583.97  86.0273
 45.9376  7669.71  85.9677
 45.9796  7606.91  86.3106
 46.0216  7621.59  86.7391
 46.0636  7777.97  86.7486
 46.1056  7562.13  85.5295
 46.1476  7641.12  86.5767
 46.1896  7709.71  87.1097
 46.2316  7638.17  86.5712
 46.2736  7563.09  86.3653
 46.3156  7509.23  85.7989
 46.3576  7530.27  86.1207
 46.3996  7575.77  86.5403
 46.4416  7550.83  85.9368
 46.4836  7468.04  85.856
 46.5256  7612.43  86.6229
 46.5676  7616.42  86.7552
 46.6096  7532.28  86.1744
 46.6516  7577.56  85.4982
 46.6936  7648.7  86.4094
 46.7356  7689.09  86.7318
 46.7776  7490.48  86.4611
 46.8196  7445.16  85.9366
 46.8616  7347.37  85.1699
 46.9036  7363.51  84.9163
 46.9456  7409.9  84.8243
 46.9876  7445.34  85.1068
 47.0296  7488.76  86.059
 47.0716  7441.63  85.6115
 47.1136  7417.41  85.1412
 47.1556  7468.92  85.3089
 47.1976  7469.5  85.4727
 47.2396  7428.92  85.5652
 47.2816  7391.6  85.0437
 47.3236  7384.08  85.3777
 47.3656  7489.55  85.9088
 47.4076  7531.23  85.8769
 47.4496  7429.17  85.4609
 47.4916  7383.36  85.3914
 47.5336  7521.73  86.0021
 47.5756  7571.68  86.3984
 47.6176  7332.93  84.9285
 47.6596  7396.08  84.9994
 47.7016  7556.76  85.722
 47.7436  7523.57  85.8925
 47.7856  7493.98  85.7443
 47.8276  7545.45  86.0877
 47.8696  7430.37  85.516
 47.9116  7570.28  86.0291
 47.9536  7475.02  85.4249
 47.9956  7401.16  85.7216
 48.0376  7383.13  85.3853
 48.0796  7467.64  86.0003
 48.1216  7477.64  85.8775
 48.1636  7553.52  85.8786
 48.2056  7406.07  85.3014
 48.2476  7536.03  86.3644
 48.2896  7517.69  86.1669
 48.3316  7473.48  85.8454
 48.3736  7510.21  86.087
 48.4156  7403.74  85.3186
 48.4576  7313.89  85.0976
 48.4996  7537.47  85.8361
 48.5416  7522.18  86.0831
 48.5836  7404.62  85.0706
 48.6256  7399.01  85.2636
 48.6676  7458.46  86.1153
 48.7096  7449.1  85.3099
 48.7516  7515.04  85.848
 48.7936  7374.78  85.1073
 48.8356  7449.33  85.5896
 48.8776  7415.43  85.979
 48.9196  7467.01  85.6382
 48.9616  7356.11  85.3803
 49.0036  7372.5  85.8339
 49.0456  7316.99  85.4846
 49.0876  7355.74  85.2375
 49.1296  7349.06  85.37
 49.1716  7204.02  84.3892
 49.2136  7378.1  85.3352
 49.2556  7520.2  86.1851
 49.2976  7467.3  85.9455
 49.3396  7260.73  84.7995
 49.3816  7405.23  85.0663
 49.4236  7366.41  85.2711
 49.4656  7301.04  84.9087
 49.5076  7483.1  85.7081
 49.5496  7301.39  84.719
 49.5916  7455.38  85.5314
 49.6336  7319.45  84.9522
 49.6756  7424.11  85.7974
 49.7176  7363.04  85.3829
 49.7596  7330.11  84.9572
 49.8016  7447.67  85.5622
 49.8436  7295.03  84.9697
 49.8856  7334.93  85.2035
 49.9276  7288.11  85.0292
 49.9696  7360.62  85.4362
 50.0116  7310.73  85.2776
 50.0536  7311.14  85.2405
 50.0956  7299.02  85.2335
 50.1376  7331.62  85.1183
 50.1796  7359.59  85.5537
 50.2216  7309.64  85.2635
 50.2636  7373.97  85.2419
 50.3056  7284.43  84.9013
 50.3476  7294.06  84.9731
 50.3896  7271.24  84.8151
 50.4316  7329.13  84.9828
 50.4736  7253.28  84.7651
 50.5156  7271.58  84.8609
 50.5576  7335.7  84.9887
 50.5996  7219.36  84.6027
 50.6416  7182.96  84.3168
 50.6836  7304  85.0831
 50.7256  7375.86  85.4181
 50.7676  7430.39  86.074
 50.8096  7275.73  84.687
 50.8516  7262.65  85.0436
 50.8936  7214.69  84.537
 50.9356  7357.21  85.4764
 50.9776  7310.38  85.3684
 51.0196  7098.6  84.2469
 51.0616  7081.57  83.4578
 51.1036  7221.73  84.6462
 51.1456  7174.66  84.2781
 51.1876  7189.05  83.6857
 51.2296  7219.86  84.516
 51.2716  7073.11  83.3586
 51.3136  7057.08  83.7317
 51.3556  6992.63  82.962
 51.3976  7092.76  83.703
 51.4396  6999.78  83.4745
 51.4816  7036.51  83.5437
 51.5236  7156.98  84.3417
 51.5656  7040.47  83.2452
 51.6076  7204.46  84.29
 51.6496  7055.44  83.6147
 51.6916  7059.26  83.9974
 51.7336  7038.95  83.9761
 51.7756  7004.06  83.4549
 51.8176  7029.37  83.7189
 51.8596  6905.52  82.9938
 51.9016  7061.22  83.522
 51.9436  7217.39  85.9696
 51.9856  7099.8  85.6966
 52.0276  7211.2  84.8232
 52.0696  7283.14  85.3125
 52.1116  7088.87  84.2875
 52.1536  7100.49  84.1938
 52.1956  7012.63  83.1744
 52.2376  7276.56  84.8941
 52.2796  7134.3  83.8831
 52.3216  7019.51  83.9102
 52.3636  7126.95  84.0943
 52.4056  7022.2  83.3429
 52.4476  7113.23  84.2561
 52.4896  6941.99  83.2862
 52.5316  7151.07  84.5842
 52.5736  6952.75  83.1135
 52.6156  7151.11  84.704
 52.6576  7126.45  83.9718
 52.6996  6906.5  83.6668
 52.7416  6970.85  83.902
 52.7836  7026.09  84.1268
 52.8256  7114.83  83.8452
 52.8676  6887.65  83.0835
 52.9096  7126.67  84.5811
 52.9516  6921.37  83.7486
 52.9936  6957.32  84.3442
 53.0356  6980.31  83.4711
 53.0776  6997.63  83.8475
 53.1196  7043.66  84.2542
 53.1616  7062.04  84.4136
 53.2036  6983.08  83.8989
 53.2456  6922.59  83.6425
 53.2876  7026.31  83.9526
 53.3296  7072.85  84.5601
 53.3716  7190.13  85.0062
 53.4136  7103.57  84.6414
 53.4556  6945.23  83.7293
 53.4976  7013.73  83.9697
 53.5396  6929.33  83.8607
 53.5816  6971.98  83.7503
 53.6236  6978.84  84.1576
 53.6656  7013.21  83.9572
 53.7076  7096.88  84.4032
 53.7496  7096.94  84.5426
 53.7916  6904.4  83.5356
 53.8336  6958.25  83.7551
 53.8756  6930.61  84.1252
 53.9176  6964.97  83.6727
 53.9596  6697.84  82.8291
 54.0016  6767.29  82.57
 54.0436  6732.44  82.5841
 54.0856  6809.3  82.4653
 54.1276  6758.94  82.3701
 54.1696  6741.13  82.4197
 54.2116  6844.07  82.7949
 54.2536  6683.85  81.6345
 54.2956  6733.81  81.9864
 54.3376  6644.39  81.9367
 54.3796  6644.36  81.8079
 54.4216  6719.11  82.3399
 54.4636  6752.7  82.5144
 54.5056  6699.64  81.9904
 54.5476  6684.62  82.2416
 54.5896  6594.18  81.5214
 54.6316  6702.15  82.0213
 54.6736  6718.64  82.2254
 54.7156  6636.52  81.7393
 54.7576  6574.21  81.3311
 54.7996  6805.56  82.9234
 54.8416  6667.65  82.1199
 54.8836  6787.03  82.9385
 54.9256  6635.47  81.7786
 54.9676  6606.28  81.4459
 55.0096  6702.93  82.0847
 55.0516  6560.07  81.4293
 55.0936  6739.07  82.1969
 55.1356  6530.23  80.9598
 55.1776  6695.81  82.2045
 55.2196  6661.75  81.8013
 55.2616  6797.22  82.8587
 55.3036  6520.34  81.3313
 55.3456  6403.05  80.7173
 55.3876  6589.22  81.6007
 55.4296  6468.03  80.8677
 55.4716  6594.52  81.681
 55.5136  6564.04  81.2538
 55.5556  6691.72  82.0927
 55.5976  6536.42  81.2081
 55.6396  6600.19  81.4595
 55.6816  6572.62  81.2478
 55.7236  6493.92  80.8172
 55.7656  6547.73  80.8888
 55.8076  6504.68  80.6037
 55.8496  6644.38  81.9103
 55.8916  6509.52  81.1631
 55.9336  6635.8  81.7673
 55.9756  6511.31  80.8796
 56.0176  6399.47  80.3231
 56.0596  6473.67  80.7765
 56.1016  6412.39  80.4196
 56.1436  6439.43  80.8478
 56.1856  6366.4  80.1269
 56.2276  6627.03  81.8087
 56.2696  6459.2  80.7424
 56.3116  6565.8  81.7993
 56.3536  6488.13  80.9663
 56.3956  6474.73  80.8761
 56.4376  6478.9  80.942
 56.4796  6354.77  79.9767
 56.5216  6481.74  81.1543
 56.5636  6408.64  80.2592
 56.6056  6560.46  81.4428
 56.6476  6453.05  80.3767
 56.6896  6531.85  81.344
 56.7316  6329.46  79.9814
 56.7736  6375.1  80.2798
 56.8156  6432.84  80.659
 56.8576  6210.55  79.1772
 56.8996  6397.25  80.2817
 56.9416  6380.16  80.4799
 56.9836  6466.75  80.5546
 57.0256  6311.72  79.8865
 57.0676  6465.98  80.9814
 57.1096  6369.61  80.1614
 57.1516  6297.29  79.7575
 57.1936  6373.01  80.0066
 57.2356  6275.53  79.7057
 57.2776  6379.63  80.3245
 57.3196  6357.93  80.5188
 57.3616  6348.9  79.9719
 57.4036  6352.44  80.0628
 57.4456  6384.25  80.2371
 57.4876  6376.63  80.0465
 57.5296  6296.1  79.8805
 57.5716  6238.01  79.5139
 57.6136  6193.9  79.064
 57.6556  6319.13  79.9789
 57.6976  6278.61  79.5547
 57.7396  6252.95  79.7412
 57.7816  6221.02  79.9163
 57.8236  6319.37  80.3253
 57.8656  6317.32  79.9808
 57.9076  6234.95  79.4808
 57.9496  6310.34  80.3271
 57.9916  6275.16  79.6
 58.0336  6254.35  79.7631
 58.0756  6182.37  78.9046
 58.1176  6304.23  79.6831
 58.1596  6183.7  79.5199
 58.2016  6101.09  78.195
 58.2436  6045.28  78.249
 58.2856  6034.69  78.1006
 58.3276  5929.53  77.7849
 58.3696  6050.02  78.3262
 58.4116  6016.07  77.971
 58.4536  6093.58  78.3563
 58.4956  5977.54  77.7862
 58.5376  6103.13  78.1664
 58.5796  5985.38  77.8333
 58.6216  6041.37  78.0158
 58.6636  6026.55  78.126
 58.7056  6102.47  78.4757
 58.7476  5835.29  77.1753
 58.7896  5931.78  77.451
 58.8316  6021.96  78.0408
 58.8736  6078.13  78.4158
 58.9156  5906.16  77.3393
 58.9576  5941.33  77.8854
 58.9996  6121.29  78.3046
 59.0416  5970.08  77.6902
 59.0836  6078.6  78.299
 59.1256  5955.43  78.2089
 59.1676  6004.51  78.843
 59.2096  5922.73  77.6179
 59.2516  6216  79.0914
 59.2936  6020.21  78.1633
 59.3356  6190.23  79.1356
 59.3776  5903.83  77.4503
 59.4196  5939.87  77.623
 59.4616  5914.93  77.3211
 59.5036  5931.66  77.4639
 59.5456  5983.1  77.4955
 59.5876  5940.96  77.4116
 59.6296  5868.11  77.0037
 59.6716  5735.95  76.1881
 59.7136  5936.27  77.4955
 59.7556  6019.97  78.1761
 59.7976  5954.75  77.4955
 59.8396  5856.62  76.7502
 59.8816  5960.14  77.9674
 59.9236  5816.44  76.672
 59.9656  5842.68  77.1006
 60.0076  6109.44  78.1953
 60.0496  6000.35  77.9963
 60.0916  6135.73  78.2847
 60.1336  5903.17  77.8815
 60.1756  5878.81  78.8889
 60.1996  0.0000000E+00  0.0000000E+00