File: docs/examples/opeando_xrd/IS17_D/Data/IS17_D/17_Da_f00074.xye
# /beamlines/bl04/projects/cycle2025-II/20250340211-lsimonelli/DATA/IS17_D/17_Da_f00074.xye : mythproc.py merge -s 0.006 -l 0.5 -f /beamlines/bl04/inhouse/ff/FlatField/ff_20Nov2024rod8mm60s_17keV.raw -b True -c true -o xye /beamlines/bl04/projects/cycle2025-II/20250340211-lsimonelli/DATA/IS17_D/17_Da_00074.dat
# IsMon = [6763307, 6764537, 6766887]  IsPos = [-1.4999, -2.4884, -3.4988]
# Wave = 0.4962  CalPath /beamlines/bl04/projects/cycle2025-II/20250340211-lsimonelli/DATA/Align/Si_Pos1_25keV_f00001.cal
# Date = 2025-09-24_14:09:11 Dt = 4.8000  Bin = 0.0060  <imon> = 6764910 +/- 1485 (Min/Max) 6763307 / 6766887
# icurr 250.3657  mocoIn 1.7074E-05  mocoOut 0.8012  i15 7.08156e+06  imon 6.76491e+06  i7 8.0000  iEMpd_timer 4.8000  iEMpd_1 3.1847E-08  iEMpd_2 7.8486E-08  iEMpd_3 1.5529E-08  iEMpd_4 4.7889E-08  iEMhp_timer 4.8000  iEMhp_1 4.8898E-06  iEMhp_2 -2.5524E-08  iEMhp_3 -2.5499E-08  iEMhp_4 -2.1421E-08
#      9776
 1.5856  38952.6  202.686
 1.6276  45823.1  216.063
 1.6696  52770.4  231.046
 1.7116  61336.3  249.581
 1.7536  70557.3  266.544
 1.7956  75260.3  275.972
 1.8376  71657.4  269.712
 1.8796  59463.2  243.893
 1.9216  47852.7  219.656
 1.9636  40162.8  200.41
 2.0056  36066.9  189.18
 2.0476  33412.6  184.082
 2.0896  32021.3  179.151
 2.1316  31080.7  175.652
 2.1736  29625.1  172.85
 2.2156  29971.3  172.462
 2.2576  28873.9  169.883
 2.2996  27984.3  167.858
 2.3416  28328.7  167.54
 2.3836  27763  165.961
 2.4256  27116.1  164.55
 2.4676  26904.8  163.676
 2.5096  26956.4  163.886
 2.5516  33619.9  187.265
 2.5936  152375  390.606
 2.6356  29194.3  171.695
 2.6776  26012.6  160.963
 2.7196  25110.3  158.658
 2.7616  24691.9  157.115
 2.8036  24354.7  156.205
 2.8456  24523.3  157.347
 2.8876  23840.3  155.02
 2.9296  23622  154.433
 2.9716  23170.6  152.458
 3.0136  22869.9  151.528
 3.0556  23059.2  152.541
 3.0976  22974.7  151.219
 3.1396  22720.2  151.08
 3.1816  22448  150.108
 3.2236  22605.9  150.635
 3.2656  22599.8  149.672
 3.3076  22213.6  149.802
 3.3496  22463.1  149.604
 3.3916  22968.9  151.114
 3.4336  23224.8  152.514
 3.4756  23637.3  153.792
 3.5176  24533  156.477
 3.5596  24430.6  158.512
 3.6016  24476.8  156.341
 3.6436  23923.9  155.645
 3.6856  23273.7  151.863
 3.7276  22556.7  150.564
 3.7696  22283.1  149.827
 3.8116  21916.7  148.487
 3.8536  21850.4  148.2
 3.8956  22120.2  148.941
 3.9376  22873.8  151.709
 3.9796  21928.6  148.062
 4.0216  21862.9  146.9
 4.0636  21691.7  147.755
 4.1056  22047.2  148.612
 4.1476  21968.4  148.656
 4.1896  22222  149.369
 4.2316  22425.3  149.881
 4.2736  22873.4  151.167
 4.3156  23234.9  152.577
 4.3576  23946.8  154.829
 4.3996  24083  155.525
 4.4416  24973.5  157.958
 4.4836  26462.5  162.751
 4.5256  25806.3  161.33
 4.5676  25731.3  161.344
 4.6096  26099  161.174
 4.6516  26537.6  162.232
 4.6936  26735  163.633
 4.7356  27726.6  166.472
 4.7776  26955.4  163.972
 4.8196  26510.8  163.254
 4.8616  25957.8  161.036
 4.9036  25834.9  160.406
 4.9456  25914  161.289
 4.9876  25409.1  159.614
 5.0296  25401  159.406
 5.0716  25238.1  159.65
 5.1136  25371.4  159.788
 5.1556  25842.9  160.741
 5.1976  36137.3  190.069
 5.2396  26357.9  162.031
 5.2816  26084  161.644
 5.3236  26335.7  162.13
 5.3656  25768.7  161.276
 5.4076  25486.8  160.533
 5.4496  25675  160.624
 5.4916  25684.6  160.419
 5.5336  25618.5  160.218
 5.5756  25615  160.238
 5.6176  25764.1  160.151
 5.6596  25791.9  161.187
 5.7016  26121.5  161.494
 5.7436  26235.3  162.109
 5.7856  26217.3  162.121
 5.8276  26504  162.726
 5.8696  26430.7  162.671
 5.9116  26579  163.716
 5.9536  26788.7  164.122
 5.9956  27208.8  164.768
 6.0376  27149.7  165.222
 6.0796  27316.4  165.563
 6.1216  27556.1  166.487
 6.1636  27678  165.932
 6.2056  27722.2  166.716
 6.2476  27818.9  166.888
 6.2896  28025.8  167.189
 6.3316  27804.6  166.702
 6.3736  27927.4  166.966
 6.4156  28141.8  167.504
 6.4576  28483.7  168.129
 6.4996  28574  168.863
 6.5416  28452.1  168.641
 6.5836  29328.2  171.447
 6.6256  28506.4  168.599
 6.6676  29216.2  170.258
 6.7096  28980.2  170.414
 6.7516  29552.4  171.743
 6.7936  30689.1  174.439
 6.8356  31401  176.531
 6.8776  30866.6  175.821
 6.9196  30347.1  174.738
 6.9616  30538.8  174.74
 7.0036  30936  175.527
 7.0456  31068.5  175.205
 7.0876  30937.1  176.503
 7.1296  31032.6  175.922
 7.1716  30925.9  175.16
 7.2136  30763.1  174.485
 7.2556  30972.8  175.24
 7.2976  31007.2  175.828
 7.3396  30963.6  175.916
 7.3816  30999  176.229
 7.4236  31344.5  176.504
 7.4656  31466.6  176.338
 7.5076  31672  177.045
 7.5496  31642.1  177.49
 7.5916  31552.3  177.271
 7.6336  32437.8  179.639
 7.6756  32065.6  178.46
 7.7176  32576.9  180.186
 7.7596  32564  181.383
 7.8016  38580.9  199.801
 7.8436  33404.2  182.579
 7.8856  33785.9  183.233
 7.9276  34079.1  184.412
 7.9696  34682.6  186.354
 8.0116  35385.2  186.772
 8.0536  35940.1  188.484
 8.0956  39182.4  198.035
 8.1376  36279.7  190.032
 8.1796  36113.4  190.141
 8.2216  37484.2  192.439
 8.2636  38635.4  195.626
 8.3056  37632.3  193.843
 8.3476  40197.9  199.653
 8.3896  38615.4  195.767
 8.4316  37568.2  193.257
 8.4736  37934.2  193.66
 8.5156  37409.1  192.591
 8.5576  37477.3  193.751
 8.5996  37021.4  191.435
 8.6416  37296.8  193.419
 8.6836  37446.6  193.624
 8.7256  37942.2  194.344
 8.7676  40662.5  204.235
 8.8096  40620.2  201.324
 8.8516  37278  192.461
 8.8936  40108  199.54
 8.9356  36609.9  190.969
 8.9776  36871.9  191.751
 9.0196  36240.2  189.78
 9.0616  37082.2  191.426
 9.1036  39864.8  199.724
 9.1456  36699.9  190.984
 9.1876  36049.8  189.24
 9.2296  35900.7  188.246
 9.2716  35052.3  186.079
 9.3136  35175.3  186.383
 9.3556  35794.7  188.003
 9.3976  33826.5  183.291
 9.4396  34454.3  184.868
 9.4816  33814.5  183.018
 9.5236  34120.7  183.748
 9.5656  33807.9  183.218
 9.6076  33534  183.005
 9.6496  33166.2  181.923
 9.6916  33676.9  183.287
 9.7336  33369.4  182.234
 9.7756  33824.8  184.731
 9.8176  32807.2  181.445
 9.8596  32399.9  178.78
 9.9016  32273  178.424
 9.9436  32480.3  178.905
 9.9856  32722.5  179.793
 10.0276  31425.9  177.303
 10.0696  31794.4  177.378
 10.1116  30978.9  175.351
 10.1536  30706.5  174.745
 10.1956  30146.1  172.74
 10.2376  29792.3  171.237
 10.2796  29825.8  171.458
 10.3216  29723.2  171.434
 10.3636  29613.3  171.146
 10.4056  33563.4  182.631
 10.4476  33566  182.235
 10.4896  38040.5  193.385
 10.5316  35519  187.654
 10.5736  29720.2  172.061
 10.6156  29314.1  170.647
 10.6576  35947.4  187.367
 10.6996  29298  169.821
 10.7416  28305  167.164
 10.7836  29905.8  172.523
 10.8256  27770.1  166.682
 10.8676  27588.3  165.672
 10.9096  27705.7  166.06
 10.9516  27185.5  163.431
 10.9936  28252.1  166.803
 11.0356  28089.1  166.966
 11.0776  29612.9  170.719
 11.1196  29308.5  170.615
 11.1616  27094.7  163.739
 11.2036  28417.2  167.531
 11.2456  30441.5  174.164
 11.2876  26357.4  161.786
 11.3296  26865.2  163.23
 11.3716  27266.7  164.131
 11.4136  26585.2  162.972
 11.4556  26860.4  163.474
 11.4976  28727.2  167.992
 11.5396  28263.1  166.797
 11.5816  26087.7  160.713
 11.6236  25758.4  159.904
 11.6656  25516.4  158.329
 11.7076  24953  157.387
 11.7496  25968.4  164.524
 11.7916  25920.9  159.672
 11.8336  24837.7  157.175
 11.8756  25418.8  158.545
 11.9176  24958.7  156.747
 11.9596  24468.5  155.4
 12.0016  24408.9  155.995
 12.0436  24216.1  154.81
 12.0856  24031.2  154.734
 12.1276  24396  155.806
 12.1696  24175.8  154.255
 12.2116  24572.8  155.506
 12.2536  27431  165.193
 12.2956  24827.1  156.478
 12.3376  24497.2  155.655
 12.3796  24095.3  154.824
 12.4216  24428.7  155.105
 12.4636  25712.2  160.081
 12.5056  24053.6  154.098
 12.5476  24142.2  153.912
 12.5896  23969.9  153.993
 12.6316  23625.1  153.036
 12.6736  23548  153.27
 12.7156  24099.4  154.916
 12.7576  23799.8  154.191
 12.7996  24242.5  154.257
 12.8416  24497.5  156.129
 12.8836  25232.5  158.278
 12.9256  24701.6  155.608
 12.9676  24723.6  156.107
 13.0096  24063.2  155.108
 13.0516  24342  155.039
 13.0936  24166  154.873
 13.1356  24438.4  154.733
 13.1776  24499.4  155.907
 13.2196  24307  154.962
 13.2616  24164.1  154.808
 13.3036  24275.6  155.139
 13.3456  24165  155.136
 13.3876  24563.3  155.708
 13.4296  24341.8  155.152
 13.4716  24762.6  156.092
 13.5136  24527  155.501
 13.5556  24574.3  156.265
 13.5976  24242.5  155.348
 13.6396  24930.5  156.901
 13.6816  24300.5  155.4
 13.7236  24944.1  157.087
 13.7656  24480  156.159
 13.8076  25870.2  159.274
 13.8496  24450.6  155.452
 13.8916  24322.1  156.042
 13.9336  24002.6  154.242
 13.9756  23928  153.355
 14.0176  23889.2  153.913
 14.0596  25062.1  157.612
 14.1016  23607.3  153.357
 14.1436  23353  151.678
 14.1856  23273  151.705
 14.2276  23345.1  152.424
 14.2696  23631.9  153.201
 14.3116  23017.5  151.091
 14.3536  22440.7  149.363
 14.3956  22365.4  148.85
 14.4376  22423.4  148.82
 14.4796  22626  149.476
 14.5216  22030  148.284
 14.5636  22670.6  150
 14.6056  22136.6  147.794
 14.6476  21969.8  146.473
 14.6896  21496.8  145.422
 14.7316  21195  145.417
 14.7736  21147.9  144.409
 14.8156  21039.4  144.07
 14.8576  20999.7  143.786
 14.8996  20913.3  144.704
 14.9416  20205.6  142.234
 14.9836  20402.3  142.886
 15.0256  19949.4  140.221
 15.0676  19952.9  140.545
 15.1096  19904.4  140.113
 15.1516  19499.4  139.233
 15.1936  19629.3  139.126
 15.2356  19550.6  139.125
 15.2776  19401.5  138.176
 15.3196  19176.2  138.378
 15.3616  18917.4  137.193
 15.4036  18937.2  137.133
 15.4456  19310.5  138.122
 15.4876  18880.7  136.256
 15.5296  18799.6  136.25
 15.5716  18490.8  134.727
 15.6136  18289  134.308
 15.6556  21195.6  143.781
 15.6976  18898.9  136.07
 15.7396  18594.8  135.358
 15.7816  18472.3  134.423
 15.8236  17882.7  132.952
 15.8656  17829.7  132.549
 15.9076  17780.3  132.192
 15.9496  18520.6  137.781
 15.9916  17472  134.254
 16.0336  17143.5  129.908
 16.0756  17590.8  131.897
 16.1176  17060.8  129.967
 16.1596  16807.4  130.169
 16.2016  16878.8  129.188
 16.2436  16558.9  128.345
 16.2856  16822.9  128.914
 16.3276  16280.2  127.227
 16.3696  16596.8  128.281
 16.4116  16510.4  128.403
 16.4536  16590.4  128.5
 16.4956  17417.5  131.398
 16.5376  16866.8  129.486
 16.5796  16564.9  127.679
 16.6216  16459.7  127.58
 16.6636  16412.2  127.551
 16.7056  16411.4  127.414
 16.7476  16435.3  127.031
 16.7896  16417.8  127.719
 16.8316  16327  127.334
 16.8736  16553.3  128.479
 16.9156  16371.7  128.104
 16.9576  16019.1  127.515
 16.9996  16057.3  128.15
 17.0416  16109  126.719
 17.0836  15922.8  125.75
 17.1256  15782  125.205
 17.1676  16497.2  128.005
 17.2096  16068.4  126.203
 17.2516  15832.5  125.052
 17.2936  15645.6  124.64
 17.3356  15090.3  122.42
 17.3776  15175.6  122.947
 17.4196  15216  122.8
 17.4616  15380.9  123.391
 17.5036  16185.4  126.944
 17.5456  14890  122.398
 17.5876  15060.1  122.147
 17.6296  14944.8  121.499
 17.6716  15154.8  122.917
 17.7136  16010  126.49
 17.7556  15020.7  122.81
 17.7976  15515.3  124.555
 17.8396  14987.5  121.912
 17.8816  14776.6  121.589
 17.9236  14569.5  120.552
 17.9656  15002.4  122.867
 18.0076  15613.5  124.911
 18.0496  16211  126.37
 18.0916  21549.9  146.347
 18.1336  18565.9  135.953
 18.1756  16065.8  125.96
 18.2176  16431.4  127.648
 18.2596  14905.6  121.307
 18.3016  15648.6  124.553
 18.3436  16337.2  127.265
 18.3856  15204.6  122.919
 18.4276  14946  121.541
 18.4696  15183.7  122.603
 18.5116  15101  122.557
 18.5536  14716.9  121.347
 18.5956  14719.7  120.908
 18.6376  14926.8  122.173
 18.6796  14667.6  120.417
 18.7216  15020.7  122.36
 18.7636  14360.2  119.632
 18.8056  14195.1  118.881
 18.8476  13937.2  118.409
 18.8896  14009.6  118.061
 18.9316  14389.9  119.636
 18.9736  14094.4  118.101
 19.0156  14577.7  120.521
 19.0576  14390  118.602
 19.0996  14246.4  118.718
 19.1416  14075.2  118.397
 19.1836  13906.8  117.287
 19.2256  13766.2  116.901
 19.2676  13961  117.821
 19.3096  13962.3  118.07
 19.3516  13944.5  117.956
 19.3936  14082.9  118.44
 19.4356  14055.3  118.194
 19.4776  14148.8  118.685
 19.5196  13867.2  117.351
 19.5616  14103.5  118.601
 19.6036  13980  117.574
 19.6456  14084.7  118.135
 19.6876  14652.9  120.136
 19.7296  14029.9  118.014
 19.7716  13953.6  117.854
 19.8136  14247.4  119.3
 19.8556  14655.6  120.459
 19.8976  14816.2  121.187
 19.9396  14450.5  119.253
 19.9816  14503  119.713
 20.0236  14714.6  120.805
 20.0656  13986.4  117.772
 20.1076  13674.8  116.91
 20.1496  13531.5  116.301
 20.1916  13819.4  117.051
 20.2336  13756.6  116.72
 20.2756  13417.3  115.694
 20.3176  13479.1  115.709
 20.3596  13472.5  115.657
 20.4016  13609.9  116.052
 20.4436  13504.8  116.15
 20.4856  13204.9  114.652
 20.5276  13323.4  115.621
 20.5696  13198.6  114.546
 20.6116  13299.1  115.253
 20.6536  13159.2  114.163
 20.6956  13160.4  114.293
 20.7376  13293.8  115.094
 20.7796  13004.8  113.526
 20.8216  13261  114.35
 20.8636  13610.3  116.219
 20.9056  14620.5  120.403
 20.9476  13578.2  115.874
 20.9896  14637  120.162
 21.0316  13433.1  115.006
 21.0736  13591.2  116.21
 21.1156  13944.4  117.876
 21.1576  13325.5  115.281
 21.1996  13087.1  114.224
 21.2416  12972.8  113.555
 21.2836  13265.6  114.797
 21.3256  13007.5  113.761
 21.3676  13159.7  113.967
 21.4096  13420.9  115.407
 21.4516  12919.2  113.109
 21.4936  12758.2  112.655
 21.5356  13072.1  113.972
 21.5776  13055  113.731
 21.6196  12956  113.335
 21.6616  13128.9  114.18
 21.7036  12963.4  113.236
 21.7456  12774.7  112.479
 21.7876  12632.3  111.607
 21.8296  12675.1  111.652
 21.8716  12704.6  112.019
 21.9136  12936.9  113.233
 21.9556  13275.8  114.369
 21.9976  12842.4  112.507
 22.0396  12688.4  112.08
 22.0816  12729.5  112.806
 22.1236  13150.7  114.102
 22.1656  12761.8  112.526
 22.2076  12872  112.481
 22.2496  12794.7  112.173
 22.2916  13016.6  113.016
 22.3336  12959.8  113.506
 22.3756  12660  111.906
 22.4176  12827.1  112.494
 22.4596  12449.2  111.409
 22.5016  12869.5  112.753
 22.5436  12679  111.805
 22.5856  12607.1  111.733
 22.6276  12500.1  111.405
 22.6696  12538.6  111.921
 22.7116  12543.8  111.461
 22.7536  12579.9  111.595
 22.7956  12715  111.517
 22.8376  12504.5  111.114
 22.8796  12535.1  111.051
 22.9216  12684.3  112.257
 22.9636  12532.8  110.741
 23.0056  12556.3  110.979
 23.0476  12735.2  112.339
 23.0896  13009  112.911
 23.1316  12860.1  112.701
 23.1736  12516.5  114.132
 23.2156  12622.7  111.987
 23.2576  12536.6  111.74
 23.2996  12473.3  111.234
 23.3416  12443.6  111.628
 23.3836  12505.5  111.136
 23.4256  12581  111.593
 23.4676  12628.6  111.495
 23.5096  12621.6  112.141
 23.5516  12629.5  111.46
 23.5936  12788.2  113.063
 23.6356  13094.1  114.076
 23.6776  12545.5  111.868
 23.7196  12357.8  110.604
 23.7616  12602.3  111.61
 23.8036  12452.5  110.985
 23.8456  12469.1  110.634
 23.8876  12234.7  109.944
 23.9296  12237.8  110.44
 23.9716  12299.6  109.912
 24.0136  12342.1  111.001
 24.0556  12079  109.55
 24.0976  12179.8  109.814
 24.1396  12076.5  111.984
 24.1816  12237.5  111.151
 24.2236  12242.9  110.788
 24.2656  12276.5  110.409
 24.3076  12095.9  109.849
 24.3496  12307.3  110.688
 24.3916  12338.9  110.881
 24.4336  11916  109.174
 24.4756  12060.6  109.707
 24.5176  11688  107.646
 24.5596  11815.1  108.358
 24.6016  11639.6  107.831
 24.6436  11906.6  108.555
 24.6856  11906.6  108.312
 24.7276  11969.5  108.916
 24.7696  11686.9  107.737
 24.8116  11765.8  108.284
 24.8536  11709.8  108.02
 24.8956  11630.4  107.388
 24.9376  11740.7  107.837
 24.9796  11408.2  106.652
 25.0216  11474.5  107.071
 25.0636  11653.1  107.552
 25.1056  11329.8  106.756
 25.1476  11367  108.599
 25.1896  11365.1  107.057
 25.2316  11511.5  107.004
 25.2736  11380.4  106.05
 25.3156  11287.6  105.691
 25.3576  11122.9  105.336
 25.3996  11301.4  106.163
 25.4416  11232.1  105.818
 25.4836  11087.3  105.654
 25.5256  11236.4  105.724
 25.5676  11276  105.641
 25.6096  11168  105.707
 25.6516  11142.4  105.084
 25.6936  11065.8  105.041
 25.7356  11068  105.184
 25.7776  11210  105.457
 25.8196  11015.5  104.774
 25.8616  11065.6  104.929
 25.9036  11321.4  105.604
 25.9456  11088.1  105.107
 25.9876  10883.7  104.2
 26.0296  11059.7  104.549
 26.0716  10980.3  104.596
 26.1136  11442.1  106.716
 26.1556  11403.7  105.897
 26.1976  10940.1  104.645
 26.2396  11218.4  105.117
 26.2816  10855.4  104.016
 26.3236  11032.5  105.022
 26.3656  10998.9  104.586
 26.4076  10925.7  104.446
 26.4496  11553.1  106.852
 26.4916  11043.4  104.501
 26.5336  10840.5  103.858
 26.5756  11074.9  104.844
 26.6176  11091.4  104.964
 26.6596  10878.9  104.264
 26.7016  10690.4  103.114
 26.7436  10469  102.171
 26.7856  10516.3  102.383
 26.8276  10580.7  102.654
 26.8696  10591.5  102.582
 26.9116  10663.7  102.867
 26.9536  10439.8  101.827
 26.9956  10615.2  102.713
 27.0376  10499.9  102.371
 27.0796  10656.3  102.864
 27.1216  10604.4  102.688
 27.1636  10530.2  102.494
 27.2056  10619  102.804
 27.2476  10495  102.204
 27.2896  10438.5  102.038
 27.3316  10400.8  101.566
 27.3736  10451.4  102.075
 27.4156  10297.9  101.169
 27.4576  10684.6  103.29
 27.4996  10397.6  101.488
 27.5416  10464.3  102.132
 27.5836  10535.8  102.284
 27.6256  10729.4  103.393
 27.6676  10630.1  102.94
 27.7096  10328.1  101.338
 27.7516  11118.9  105.298
 27.7936  10778  103.843
 27.8356  10731.7  103.233
 27.8776  10484.7  102.075
 27.9196  10435.2  101.691
 27.9616  10547.5  102.431
 28.0036  10354.8  101.461
 28.0456  10245.9  101.06
 28.0876  10138.3  100.62
 28.1296  10344.2  101.473
 28.1716  10206.3  100.808
 28.2136  10262.8  101.044
 28.2556  9998.01  99.8539
 28.2976  10073.5  100.216
 28.3396  10337.9  101.281
 28.3816  10349.7  101.36
 28.4236  10443.3  101.974
 28.4656  10021.6  99.9294
 28.5076  9854.59  98.7287
 28.5496  9893.23  99.1819
 28.5916  9992.34  99.4835
 28.6336  9919.76  99.4721
 28.6756  10122.2  99.6728
 28.7176  9973  99.481
 28.7596  9845.38  98.7448
 28.8016  9882.23  98.9658
 28.8436  9807.74  98.8313
 28.8856  9961.1  99.4525
 28.9276  9941.75  99.6024
 28.9696  9842.27  98.7582
 29.0116  9863.05  99.0464
 29.0536  9771.33  98.7902
 29.0956  9762.2  98.46
 29.1376  9800.04  98.6142
 29.1796  9651.14  97.9092
 29.2216  9595.46  97.4662
 29.2636  9801.43  98.5866
 29.3056  9650.62  97.615
 29.3476  9712.2  98.4489
 29.3896  9829.7  99.1255
 29.4316  9874.64  98.6957
 29.4736  9714.08  97.9516
 29.5156  9743.92  98.0227
 29.5576  9816.87  99.1411
 29.5996  9898.07  98.7955
 29.6416  9662.6  97.7215
 29.6836  9745.83  98.0802
 29.7256  9647.46  98.1504
 29.7676  9833.82  98.742
 29.8096  9643.6  97.7326
 29.8516  9509.16  97.3801
 29.8936  9620.88  98.0419
 29.9356  9829.37  98.8538
 29.9776  9655.59  98.1307
 30.0196  9664.2  97.561
 30.0616  9645.4  97.8403
 30.1036  9628.89  97.5817
 30.1456  9588.68  97.6089
 30.1876  9576.72  97.531
 30.2296  9509.08  97.1286
 30.2716  9685.35  97.6589
 30.3136  9401.42  97.0734
 30.3556  9684.29  98.5373
 30.3976  9552.5  99.3891
 30.4396  9621.3  97.0742
 30.4816  9663.13  96.8796
 30.5236  9572.49  96.4436
 30.5656  9573.13  97.098
 30.6076  9500.29  96.1612
 30.6496  9541.08  96.7522
 30.6916  9458.1  96.4194
 30.7336  9471.1  96.6416
 30.7756  9392.17  96.3305
 30.8176  9466.95  96.6277
 30.8596  9427.94  96.196
 30.9016  9387.59  96.3323
 30.9436  9439.05  96.3481
 30.9856  9529.3  96.9206
 31.0276  9287.64  95.2861
 31.0696  9431.98  96.6061
 31.1116  9307.54  95.941
 31.1536  9619.98  97.4178
 31.1956  9351.03  96.1353
 31.2376  9226.08  95.5018
 31.2796  9174.05  94.7756
 31.3216  9291.22  95.3167
 31.3636  9362.1  96.3817
 31.4056  9260.57  97.1703
 31.4476  9246.69  94.9975
 31.4896  9352.68  96.0451
 31.5316  9488.69  96.1348
 31.5736  10026.8  98.6231
 31.6156  9909.49  98.074
 31.6576  9572.31  96.4891
 31.6996  9436.32  95.4792
 31.7416  9406.06  96.3854
 31.7836  9453  95.636
 31.8256  9316.9  95.2193
 31.8676  9291.6  95.0849
 31.9096  9184.39  94.8881
 31.9516  9160.54  94.9268
 31.9936  9195.5  94.9335
 32.0356  9182.11  94.929
 32.0776  9331.31  95.5833
 32.1196  9233.06  95.1684
 32.1616  9236.49  94.6446
 32.2036  9123.91  94.5738
 32.2456  9113.12  94.9006
 32.2876  9097.35  94.311
 32.3296  9096.81  94.276
 32.3716  9077.83  94.2766
 32.4136  9113.97  94.6763
 32.4556  9339.11  95.2155
 32.4976  9149.13  94.1392
 32.5396  9107.01  94.0018
 32.5816  8945.56  93.2823
 32.6236  9008.91  93.6861
 32.6656  9083.66  94.6031
 32.7076  9027.24  93.9712
 32.7496  9131.39  94.1823
 32.7916  9082.68  93.8838
 32.8336  9067.04  93.9037
 32.8756  9192.48  94.2684
 32.9176  9015.68  93.8424
 32.9596  9123.15  94.4744
 33.0016  9121.09  94.2533
 33.0436  9018.38  93.895
 33.0856  8903.46  93.3663
 33.1276  8922.96  93.1892
 33.1696  9025.51  93.5777
 33.2116  9085.71  94.1206
 33.2536  9025.11  93.8079
 33.2956  9068.68  94.1149
 33.3376  8812.64  92.5175
 33.3796  9050.75  93.9681
 33.4216  8908.19  92.8248
 33.4636  8929.86  93.0824
 33.5056  8845.97  92.8849
 33.5476  8868.65  92.9974
 33.5896  8937.24  93.1322
 33.6316  8772.1  92.5791
 33.6736  8722.28  92.5648
 33.7156  8681.15  92.3838
 33.7576  8808.62  92.6814
 33.7996  9029.6  93.5994
 33.8416  8814.91  92.672
 33.8836  8902.87  92.9062
 33.9256  8737.54  92.1015
 33.9676  8961.34  93.1623
 34.0096  8669.6  91.9579
 34.0516  8682.57  91.6647
 34.0936  8627.41  91.6302
 34.1356  8878.37  92.6967
 34.1776  8754.82  92.0598
 34.2196  8554.14  91.1797
 34.2616  8636.65  91.7532
 34.3036  8622.11  91.9261
 34.3456  8684.11  92.0071
 34.3876  8622.14  91.6388
 34.4296  8731.9  91.9076
 34.4716  8811.48  92.4788
 34.5136  8716.46  92.1827
 34.5556  8593.7  91.7873
 34.5976  8709.53  92.2039
 34.6396  8555.03  91.0939
 34.6816  8652.11  91.7244
 34.7236  8551.83  90.9789
 34.7656  8703.95  91.978
 34.8076  8529.03  91.3651
 34.8496  8574.68  91.4717
 34.8916  8551.07  91.224
 34.9336  8716.54  92.0573
 34.9756  8667.56  91.7285
 35.0176  8660.05  92.2197
 35.0596  8491.78  91.1293
 35.1016  8538.65  91.1569
 35.1436  8708.52  91.7469
 35.1856  8424.95  90.3652
 35.2276  8575.08  91.3423
 35.2696  8534.02  91.3181
 35.3116  8536.25  91.425
 35.3536  8467.62  90.7663
 35.3956  8497.79  90.6378
 35.4376  8490.47  91.1481
 35.4796  8541.92  91.4873
 35.5216  8435.63  90.8729
 35.5636  8345.06  91.1289
 35.6056  8541.06  91.1997
 35.6476  8535.54  91.0676
 35.6896  8594.34  91.4736
 35.7316  8447.65  90.659
 35.7736  8345.85  90.3112
 35.8156  8294.5  90.0364
 35.8576  8444.53  91.0923
 35.8996  8580.88  91.7927
 35.9416  8647.38  91.5973
 35.9836  8382.07  90.5773
 36.0256  8444.43  90.9327
 36.0676  8458.91  90.768
 36.1096  8380.52  90.4865
 36.1516  8422.87  90.6
 36.1936  8503.32  90.8799
 36.2356  8274.17  90.2863
 36.2776  8463.94  90.7883
 36.3196  8378.77  90.0028
 36.3616  8385.88  90.174
 36.4036  8407.57  90.3414
 36.4456  8339.48  90.1923
 36.4876  8273.52  89.7697
 36.5296  8410.42  90.5574
 36.5716  8450.7  91.5563
 36.6136  8542.88  90.8052
 36.6556  8613.44  91.3895
 36.6976  8400.61  90.7554
 36.7396  8495.94  90.9961
 36.7816  8411.75  90.9226
 36.8236  8364.14  90.587
 36.8656  8180.49  89.6626
 36.9076  8265.02  89.9997
 36.9496  8287.89  90.1061
 36.9916  8204.12  89.2816
 37.0336  8503.24  91.2155
 37.0756  8345.17  90.1558
 37.1176  8083.9  89.0001
 37.1596  8244.76  89.879
 37.2016  8329.53  90.5771
 37.2436  8473.38  90.6585
 37.2856  8256.67  89.7497
 37.3276  8259.68  89.1159
 37.3696  8190.31  89.6287
 37.4116  8231.71  89.7528
 37.4536  8225.13  89.59
 37.4956  8182.85  89.4033
 37.5376  8242.25  91.2907
 37.5796  8225.94  91.164
 37.6216  8014.08  88.2542
 37.6636  8090.78  88.5783
 37.7056  8121.9  88.9385
 37.7476  8140.91  88.5747
 37.7896  8110.78  88.9028
 37.8316  7878.77  87.806
 37.8736  8268.99  89.4644
 37.9156  8238.73  89.3072
 37.9576  8103.91  88.4547
 37.9996  7977.47  87.4891
 38.0416  8086.6  88.8892
 38.0836  8240.07  89.6415
 38.1256  8163.99  89.1786
 38.1676  8047.16  88.681
 38.2096  8127.4  88.747
 38.2516  8240.88  89.5701
 38.2936  8145.55  88.85
 38.3356  8182.7  88.9574
 38.3776  7974.33  88.0988
 38.4196  8131.74  88.8113
 38.4616  7908.3  87.8241
 38.5036  8174.69  89.1295
 38.5456  7911.38  88.5162
 38.5876  8045.62  89.2986
 38.6296  7951.89  87.7566
 38.6716  7910.66  87.3222
 38.7136  8002.18  87.7697
 38.7556  7909.29  87.7598
 38.7976  8033.92  88.3894
 38.8396  7890.35  88.0469
 38.8816  7834.66  87.5096
 38.9236  7952.82  87.9849
 38.9656  8017.28  88.254
 39.0076  8033.1  87.7452
 39.0496  7923.09  87.6812
 39.0916  7976.66  87.6135
 39.1336  7894.69  87.5843
 39.1756  7861.43  87.4684
 39.2176  7938.89  88.4292
 39.2596  7846.96  87.8326
 39.3016  7878.06  87.5818
 39.3436  7749.9  87.2905
 39.3856  7987.94  88.0656
 39.4276  7939.71  88.2959
 39.4696  7921.03  87.819
 39.5116  7819.31  87.7592
 39.5536  8080.15  89.6403
 39.5956  8036.78  88.4922
 39.6376  8066.74  88.6573
 39.6796  7998.56  88.025
 39.7216  8050  88.4054
 39.7636  7902.82  88.1684
 39.8056  7979.41  88.3668
 39.8476  8003.42  88.7581
 39.8896  7880.49  87.7087
 39.9316  8016.75  88.7142
 39.9736  8091.22  88.6918
 40.0156  7862.68  87.2595
 40.0576  7913.96  87.8988
 40.0996  8091.32  88.056
 40.1416  8148.58  89.1693
 40.1836  8062.39  88.5796
 40.2256  8059.72  88.6156
 40.2676  7972.25  88.2383
 40.3096  8121.23  88.9866
 40.3516  8027.49  88.5754
 40.3936  8156.73  88.8438
 40.4356  8015.76  88.2679
 40.4776  8046.53  88.8509
 40.5196  8010.82  88.782
 40.5616  8061.79  88.7036
 40.6036  7939.2  88.2816
 40.6456  8055.51  88.5262
 40.6876  8175.41  89.1708
 40.7296  8064.34  88.6984
 40.7716  8048.24  88.7448
 40.8136  8005.07  88.4501
 40.8556  7998.97  88.5492
 40.8976  7991.99  88.4282
 40.9396  7980.49  88.7194
 40.9816  8049.95  88.383
 41.0236  8056.93  88.1966
 41.0656  8040.29  88.6551
 41.1076  8075.31  88.6123
 41.1496  8038.54  88.3233
 41.1916  8062.07  88.7766
 41.2336  7931.02  88.0433
 41.2756  7955.79  87.7786
 41.3176  7987.98  88.5777
 41.3596  7903.83  87.8353
 41.4016  8008.27  88.6757
 41.4436  8084.26  88.8867
 41.4856  8039.04  88.7995
 41.5276  7902.18  88.0589
 41.5696  7912.43  87.7519
 41.6116  7920.23  88.1863
 41.6536  7984.13  88.3937
 41.6956  7951.46  88.2749
 41.7376  7932.79  88.198
 41.7796  7923.77  88.0304
 41.8216  7957.8  88.4531
 41.8636  8015.85  88.7113
 41.9056  7864.27  87.6574
 41.9476  7867.05  87.9115
 41.9896  7982.03  88.2185
 42.0316  7992.58  88.3531
 42.0736  7966.84  88.3275
 42.1156  7902.8  87.808
 42.1576  7936.33  88.086
 42.1996  7933.32  88.221
 42.2416  7964.74  87.9721
 42.2836  7840.43  87.3992
 42.3256  7882.04  87.7446
 42.3676  7885.63  87.5699
 42.4096  7926.72  87.7614
 42.4516  7914.47  87.7826
 42.4936  7823.32  87.3413
 42.5356  7878.28  87.7795
 42.5776  7958.67  88.1679
 42.6196  7896.55  87.8791
 42.6616  7699.47  86.939
 42.7036  7921.47  87.5672
 42.7456  7910.64  87.8667
 42.7876  7929.58  88.0674
 42.8296  7855.63  87.4937
 42.8716  7830.18  87.512
 42.9136  7842.86  87.3673
 42.9556  7904.04  87.8427
 42.9976  7948.15  88.0501
 43.0396  7868.49  87.3411
 43.0816  7782.85  87.2437
 43.1236  7775.28  87.2582
 43.1656  7759.98  87.0037
 43.2076  7667.98  86.5854
 43.2496  7765.25  86.947
 43.2916  7805.4  87.5387
 43.3336  7804.73  87.375
 43.3756  7751.72  86.8319
 43.4176  7626.73  86.2115
 43.4596  7732.2  86.6592
 43.5016  7747.98  87.1562
 43.5436  7778.52  87.2226
 43.5856  7727.16  86.9581
 43.6276  7713.59  86.7837
 43.6696  7652.88  86.6947
 43.7116  7734.01  86.6538
 43.7536  7693.36  86.915
 43.7956  7652.74  87.8742
 43.8376  7750.67  86.9641
 43.8796  7694.83  86.7324
 43.9216  7671.53  86.52
 43.9636  7602.69  86.2341
 44.0056  7659.9  86.7868
 44.0476  7581.44  85.9765
 44.0896  7462.15  85.6401
 44.1316  7730.27  86.6833
 44.1736  7499.2  85.5044
 44.2156  7708.7  86.5402
 44.2576  7549.5  85.9637
 44.2996  7584.95  86.1392
 44.3416  7727.59  86.7027
 44.3836  7477.11  85.6133
 44.4256  7437.9  85.0328
 44.4676  7540.7  85.7795
 44.5096  7515.38  85.7762
 44.5516  7480.7  85.5416
 44.5936  7420.42  85.1468
 44.6356  7583.42  85.8202
 44.6776  7591.73  86.1877
 44.7196  7436.81  85.6066
 44.7616  7517.34  87.3995
 44.8036  7464.17  85.5096
 44.8456  7591.92  86.452
 44.8876  7451.46  85.4999
 44.9296  7523.3  85.3659
 44.9716  7602.12  86.2467
 45.0136  7388.17  84.9533
 45.0556  7530.75  85.7487
 45.0976  7525.45  85.8821
 45.1396  7280.73  84.2312
 45.1816  7334.33  84.475
 45.2236  7487.38  85.2571
 45.2656  7347.22  84.9488
 45.3076  7215.44  83.9821
 45.3496  7322.93  84.8901
 45.3916  7291.07  84.9766
 45.4336  7362.45  85.2354
 45.4756  7155.11  83.8842
 45.5176  7437.19  85.1454
 45.5596  7525.5  85.7688
 45.6016  7301.45  84.8975
 45.6436  7239.83  83.7316
 45.6856  7463  85.6677
 45.7276  7284.43  85.9553
 45.7696  7383.98  86.1998
 45.8116  7326.72  85.3095
 45.8536  7257.52  84.8033
 45.8956  7396.94  84.9672
 45.9376  7308.59  83.9273
 45.9796  7310.11  84.6149
 46.0216  7368.99  85.297
 46.0636  7519.13  85.2991
 46.1056  7363.1  84.3976
 46.1476  7345.63  84.8887
 46.1896  7412.53  85.4257
 46.2316  7321.04  84.7676
 46.2736  7226.09  84.5753
 46.3156  7295.35  84.5709
 46.3576  7319.49  84.9127
 46.3996  7330.05  85.1358
 46.4416  7346.73  84.8082
 46.4836  7171.82  84.1457
 46.5256  7302.89  84.8487
 46.5676  7230.43  84.5374
 46.6096  7285.82  84.7998
 46.6516  7319.45  84.0372
 46.6936  7416.93  85.0856
 46.7356  7394.99  85.0655
 46.7776  7268.11  85.1678
 46.8196  7253.03  84.6855
 46.8616  7120.12  83.8425
 46.9036  7200.91  83.9841
 46.9456  7140.02  83.2691
 46.9876  7164.02  83.4947
 47.0296  7187.37  84.3119
 47.0716  7146.74  83.8977
 47.1136  7107.28  83.3407
 47.1556  7189.15  83.6903
 47.1976  7258.47  84.181
 47.2396  7147.31  83.9231
 47.2816  7046.94  83.0404
 47.3236  7138.84  83.9431
 47.3656  7149.34  83.9356
 47.4076  7123.88  83.5924
 47.4496  7157.59  83.8852
 47.4916  7111.71  83.8079
 47.5336  7170.03  83.9639
 47.5756  7236.73  84.4743
 47.6176  7052.41  83.2905
 47.6596  7072.16  83.1153
 47.7016  7258.12  84.0231
 47.7436  7101.2  83.4427
 47.7856  7129.11  83.629
 47.8276  7096.67  83.4817
 47.8696  7099.31  83.5821
 47.9116  7073.15  83.1559
 47.9536  7105.64  83.2858
 47.9956  6970.22  83.187
 48.0376  6993.5  83.0919
 48.0796  7133.76  84.0623
 48.1216  7155.13  84.0032
 48.1636  7188.76  83.7786
 48.2056  7095.35  83.4951
 48.2476  7049.14  83.5318
 48.2896  6910.16  82.6082
 48.3316  7022.88  83.2166
 48.3736  7044.98  83.3825
 48.4156  6944.14  82.6336
 48.4576  7006.07  83.2927
 48.4996  7106.1  83.3465
 48.5416  7136.58  83.8473
 48.5836  7045.26  82.9837
 48.6256  6960.54  82.6962
 48.6676  7132.5  84.2223
 48.7096  7042.67  82.958
 48.7516  7017.43  82.9604
 48.7936  6877.34  82.1883
 48.8356  6970.48  82.7937
 48.8776  6950.45  83.2372
 48.9196  7125.75  83.6499
 48.9616  6872.88  82.5306
 49.0036  6886.53  82.9593
 49.0456  6944.55  83.2834
 49.0876  6967.92  82.9545
 49.1296  6825.64  82.273
 49.1716  6861.57  82.3617
 49.2136  6974.09  82.9539
 49.2556  6945.94  82.8193
 49.2976  6970.04  83.037
 49.3396  6841.63  82.3235
 49.3816  7029.18  82.8769
 49.4236  6918.36  82.6314
 49.4656  6793.67  81.9059
 49.5076  6957.02  82.6372
 49.5496  6882.78  82.2608
 49.5916  6956.05  82.6175
 49.6336  6814.67  81.9624
 49.6756  6954.75  83.0449
 49.7176  6834.5  82.2532
 49.7596  6877.05  82.2869
 49.8016  6964.02  82.7287
 49.8436  6806.79  82.0801
 49.8856  6858.23  82.3967
 49.9276  6855.44  82.4742
 49.9696  6862.1  82.4989
 50.0116  6796.01  82.2269
 50.0536  6777.45  82.0662
 50.0956  6819.52  82.3892
 50.1376  6830.18  82.1572
 50.1796  6699.65  81.6344
 50.2216  6780.44  82.123
 50.2636  6667.7  81.0599
 50.3056  6699.79  81.4256
 50.3476  6814.55  82.139
 50.3896  6828.75  82.1968
 50.4316  6740.55  81.5036
 50.4736  6701.2  81.4809
 50.5156  6801.18  82.0773
 50.5576  6891.71  82.3743
 50.5996  6758.31  81.8591
 50.6416  6692.64  81.3923
 50.6836  6808.74  82.1559
 50.7256  6773.11  81.8599
 50.7676  6778.7  82.2114
 50.8096  6725.54  81.4284
 50.8516  6708.93  81.7417
 50.8936  6669.13  81.2681
 50.9356  6732.52  81.7728
 50.9776  6771.27  82.1538
 51.0196  6601.76  81.2492
 51.0616  6603.36  80.5959
 51.1036  6703  81.5531
 51.1456  6686.38  81.3648
 51.1876  6661.99  80.5665
 51.2296  6679.22  81.3014
 51.2716  6691.91  81.0814
 51.3136  6540.97  80.6087
 51.3556  6591.03  80.5489
 51.3976  6680.18  81.2425
 51.4396  6557.94  80.7988
 51.4816  6515.34  80.3906
 51.5236  6650.66  81.3107
 51.5656  6620.54  80.7297
 51.6076  6627.39  80.8524
 51.6496  6564.42  80.6529
 51.6916  6606.84  81.2676
 51.7336  6605.29  81.349
 51.7756  6586.41  80.9379
 51.8176  6504.31  80.5354
 51.8596  6516.79  80.6276
 51.9016  6662.67  81.1343
 51.9436  6483.45  81.4634
 51.9856  6507.11  82.046
 52.0276  6589.84  81.086
 52.0696  6543.44  80.8666
 52.1116  6506.29  80.7469
 52.1536  6528.4  80.7697
 52.1956  6583.5  80.5794
 52.2376  6629.06  81.033
 52.2796  6565.23  80.4305
 52.3216  6559.11  81.1057
 52.3636  6580.29  80.8147
 52.4056  6468.65  79.9818
 52.4476  6407.96  79.9718
 52.4896  6393.45  79.9305
 52.5316  6482.85  80.534
 52.5736  6473.38  80.2026
 52.6156  6504.19  80.7596
 52.6576  6650.92  81.1017
 52.6996  6377.99  80.3966
 52.7416  6456.04  80.7306
 52.7836  6578.82  81.3488
 52.8256  6529.64  80.3156
 52.8676  6366.46  79.8689
 52.9096  6542.94  81.0499
 52.9516  6456.31  80.8802
 52.9936  6345  80.5686
 53.0356  6317.02  79.4103
 53.0776  6334.99  79.7788
 53.1196  6320.98  79.817
 53.1616  6323.94  79.8831
 53.2036  6378.65  80.1826
 53.2456  6305.39  79.8285
 53.2876  6332.74  79.7044
 53.3296  6309.76  79.8814
 53.3716  6319.55  79.693
 53.4136  6220.18  79.2089
 53.4556  6215.9  79.2138
 53.4976  6303.79  79.6183
 53.5396  6347.32  80.2844
 53.5816  6289.42  79.5507
 53.6236  6210.43  79.3934
 53.6656  6314.83  79.6841
 53.7076  6283.5  79.45
 53.7496  6325.01  79.8277
 53.7916  6289.84  79.7334
 53.8336  6253.17  79.4021
 53.8756  6274.84  80.0831
 53.9176  6234.7  79.1835
 53.9596  6318.71  80.4709
 54.0016  6292.78  79.6433
 54.0436  6280.01  79.7722
 54.0856  6386.43  79.8744
 54.1276  6240.49  79.153
 54.1696  6229.55  79.2546
 54.2116  6228.24  79.0076
 54.2536  6308.75  79.3339
 54.2956  6318.82  79.4408
 54.3376  6217.28  79.2803
 54.3796  6284.49  79.6003
 54.4216  6404.1  80.4058
 54.4636  6292.2  79.6606
 54.5056  6308.71  79.5887
 54.5476  6281.66  79.7493
 54.5896  6340.37  79.9545
 54.6316  6279.18  79.4234
 54.6736  6350.47  79.9466
 54.7156  6191.24  78.9599
 54.7576  6195.93  78.9898
 54.7996  6265.13  79.5612
 54.8416  6253.69  79.5421
 54.8836  6179.02  79.1751
 54.9256  6177.75  78.9215
 54.9676  6362.42  79.9425
 55.0096  6113.54  78.4387
 55.0516  6263.27  79.6207
 55.0936  6236.41  79.0824
 55.1356  6242.17  79.1659
 55.1776  6194.84  79.1259
 55.2196  6245.64  79.2352
 55.2616  6189.87  79.0924
 55.3036  6128.84  78.8552
 55.3456  6167.97  79.2507
 55.3876  6264.42  79.6216
 55.4296  6205.33  79.2214
 55.4716  6258.47  79.5926
 55.5136  6186.24  78.892
 55.5556  6198.96  79.0454
 55.5976  6231.38  79.2992
 55.6396  6132.75  78.6294
 55.6816  6265.59  79.3504
 55.7236  6159.64  78.7199
 55.7656  6281.96  79.253
 55.8076  6259.87  79.0963
 55.8496  6139.14  78.6468
 55.8916  6108.37  78.6533
 55.9336  6164.64  78.8304
 55.9756  6164.03  78.719
 56.0176  6115.98  78.5614
 56.0596  6207.21  79.1292
 56.1016  6210.98  79.1481
 56.1436  6202.83  79.3658
 56.1856  6194.01  79.0563
 56.2276  6149.18  78.8288
 56.2696  6123.41  78.6352
 56.3116  6059.34  78.6173
 56.3536  6188.22  79.1132
 56.3956  6164.07  78.9482
 56.4376  6098.83  78.5617
 56.4796  6279.15  79.516
 56.5216  6114.43  78.8338
 56.5636  6221.18  79.1084
 56.6056  6078.81  78.4322
 56.6476  6184.53  78.7369
 56.6896  6220.27  79.4083
 56.7316  6216.76  79.3006
 56.7736  6285.24  79.7336
 56.8156  6118.41  78.6701
 56.8576  6137.41  78.7318
 56.8996  6177.51  78.9249
 56.9416  6172.91  79.1999
 56.9836  6112.26  78.3203
 57.0256  6096.01  78.5309
 57.0676  6111.82  78.7607
 57.1096  6115.81  78.5795
 57.1516  6226.82  79.3493
 57.1936  6169.75  78.7344
 57.2356  6183.98  79.1429
 57.2776  6069.79  78.3684
 57.3196  6142.87  79.2074
 57.3616  6067.41  78.2159
 57.4036  6128.08  78.6673
 57.4456  6068.21  78.2507
 57.4876  6136.4  78.5423
 57.5296  6144.73  78.9394
 57.5716  6126.47  78.8139
 57.6136  6181.97  78.9864
 57.6556  6136.05  78.8258
 57.6976  6190.24  79.0006
 57.7396  6060.07  78.5386
 57.7816  5997.55  78.4819
 57.8236  6159.45  79.3311
 57.8656  6200.55  79.2534
 57.9076  6146.59  78.931
 57.9496  6140.27  79.2443
 57.9916  6096.75  78.4777
 58.0336  6108.82  78.8267
 58.0756  6078.33  78.2763
 58.1176  6151.48  78.7371
 58.1596  6082.26  78.8602
 58.2016  6247.22  79.1286
 58.2436  6085.13  78.5114
 58.2856  6152.44  78.8639
 58.3276  6114.42  78.9933
 58.3696  6070.83  78.4544
 58.4116  6199.16  79.1509
 58.4536  6112.84  78.482
 58.4956  6155.38  78.939
 58.5376  6155.81  78.5101
 58.5796  6127.87  78.7496
 58.6216  6121.41  78.5326
 58.6636  6240.08  79.5027
 58.7056  6127.34  78.638
 58.7476  5998.39  78.2499
 58.7896  6131.32  78.7549
 58.8316  6099.49  78.5452
 58.8736  6252.58  79.5242
 58.9156  6032.25  78.1671
 58.9576  6133.05  79.1315
 58.9996  6201.52  78.8114
 59.0416  6238.43  79.4117
 59.0836  6188.94  79.0268
 59.1256  6028.47  78.6917
 59.1676  6115.02  79.5679
 59.2096  6217.98  79.5255
 59.2516  6295.91  79.5946
 59.2936  6293.48  79.9141
 59.3356  6055.32  78.2651
 59.3776  6095.14  78.6917
 59.4196  6124.79  78.8186
 59.4616  6207.11  79.2044
 59.5036  6073.54  78.3831
 59.5456  6334.08  79.7326
 59.5876  6407.15  80.388
 59.6296  6151.48  78.8376
 59.6716  6219.41  79.3305
 59.7136  6150.14  78.8756
 59.7556  6214.37  79.4249
 59.7976  6273.34  79.5381
 59.8396  6088.64  78.2523
 59.8816  6109.36  78.9299
 59.9236  6169.97  78.9643
 59.9656  6096.66  78.7518
 60.0076  6080.94  78.0093
 60.0496  6317.41  80.0253
 60.0916  6291.3  79.2674
 60.1336  6130.28  79.3619
 60.1756  6134.16  80.5804
 60.1996  0.0000000E+00  0.0000000E+00