File: docs/examples/opeando_xrd/IS17_D/Data/IS17_D/17_Db_f00027.xye
# /beamlines/bl04/projects/cycle2025-II/20250340211-lsimonelli/DATA/IS17_D/17_Db_f00027.xye : mythproc.py merge -s 0.006 -l 0.5 -f /beamlines/bl04/inhouse/ff/FlatField/ff_20Nov2024rod8mm60s_17keV.raw -b True -c true -o xye /beamlines/bl04/projects/cycle2025-II/20250340211-lsimonelli/DATA/IS17_D/17_Db_00027.dat
# IsMon = [6739116, 6745802, 6743979]  IsPos = [-1.5001, -2.4885, -3.4988]
# Wave = 0.4962  CalPath /beamlines/bl04/projects/cycle2025-II/20250340211-lsimonelli/DATA/Align/Si_Pos1_25keV_f00001.cal
# Date = 2025-09-24_01:12:41 Dt = 4.8000  Bin = 0.0060  <imon> = 6742966 +/- 2822 (Min/Max) 6739116 / 6745802
# icurr 249.6303  mocoIn 1.7030E-05  mocoOut 0.7989  i15 7.0622e+06  imon 6.74297e+06  i7 5.6667  iEMpd_timer 4.8000  iEMpd_1 3.6070E-08  iEMpd_2 7.6755E-08  iEMpd_3 1.6945E-08  iEMpd_4 4.6723E-08  iEMhp_timer 4.8000  iEMhp_1 4.8769E-06  iEMhp_2 -2.5017E-08  iEMhp_3 -2.4348E-08  iEMhp_4 -2.1180E-08
#      9776
 1.5856  43501.6  214.23
 1.6276  50120.6  226.005
 1.6696  56207.1  238.491
 1.7116  63480.5  253.948
 1.7536  71037.1  267.493
 1.7956  75173.3  275.857
 1.8376  72085.6  270.562
 1.8796  61276.1  247.622
 1.9216  50483.2  225.65
 1.9636  43749.7  209.731
 2.0056  39319.6  197.559
 2.0476  37082  193.959
 2.0896  35852.2  189.597
 2.1316  34225.5  184.355
 2.1736  32985.2  182.42
 2.2156  33429.3  182.17
 2.2576  32209.5  179.457
 2.2996  31038.2  176.81
 2.3416  31302.9  176.142
 2.3836  30696.8  174.539
 2.4256  29638.8  172.063
 2.4676  29223.5  170.611
 2.5096  28763.4  169.318
 2.5516  27726.7  169.986
 2.5936  27761.2  166.703
 2.6356  27690  166.626
 2.6776  26909.9  163.739
 2.7196  26835.4  163.988
 2.7616  26582.5  163.014
 2.8036  26038.5  161.648
 2.8456  26146.4  162.465
 2.8876  25634.4  160.694
 2.9296  25351.2  159.973
 2.9716  25060.5  158.548
 3.0136  24689.3  157.434
 3.0556  24828.7  158.261
 3.0976  24887.1  157.355
 3.1396  24540.1  156.973
 3.1816  23851  155.097
 3.2236  23897.2  154.84
 3.2656  23874.5  153.821
 3.3076  23570.3  154.281
 3.3496  24074.7  155.111
 3.3916  24281.9  155.796
 3.4336  24735.4  157.381
 3.4756  25078.5  158.423
 3.5176  25583.9  159.759
 3.5596  25078.8  161.15
 3.6016  25706.6  160.217
 3.6436  24687.1  158.091
 3.6856  24413.3  155.545
 3.7276  23353.7  153.186
 3.7696  23335.8  153.117
 3.8116  22880.9  151.711
 3.8536  23035.3  152.164
 3.8956  22905.9  151.558
 3.9376  22947.6  151.956
 3.9796  22693.2  150.608
 4.0216  22842.3  150.138
 4.0636  22798.5  151.447
 4.1056  22718  150.841
 4.1476  23177.3  152.68
 4.1896  22944.4  151.769
 4.2316  23361.2  152.969
 4.2736  23663.2  153.752
 4.3156  23793.5  154.402
 4.3576  24596  156.886
 4.3996  24936.1  158.236
 4.4416  25543.3  159.755
 4.4836  25686.2  160.343
 4.5256  26464.9  163.376
 4.5676  26429.1  163.513
 4.6096  26703.2  163.386
 4.6516  27187.3  164.198
 4.6936  27285.6  165.314
 4.7356  27631.6  166.184
 4.7776  27333.2  165.107
 4.8196  27168.8  165.267
 4.8616  26701.1  163.458
 4.9036  26707.7  163.081
 4.9456  26339.6  162.599
 4.9876  25625.9  160.281
 5.0296  26044.2  161.428
 5.0716  25873.4  161.498
 5.1136  26168.5  162.287
 5.1556  26138.8  161.649
 5.1976  26869.4  163.906
 5.2396  26783  163.322
 5.2816  26997.4  164.197
 5.3236  26808.1  163.567
 5.3656  26455.2  163.415
 5.4076  26240.8  162.883
 5.4496  26224.2  162.331
 5.4916  26403  162.34
 5.5336  26236.1  162.129
 5.5756  26440.5  162.783
 5.6176  26365.7  161.997
 5.6596  26581.9  163.484
 5.7016  26541.4  162.784
 5.7436  26776.8  163.778
 5.7856  26955  164.389
 5.8276  26861.6  163.814
 5.8696  27205.8  164.94
 5.9116  26978.1  164.94
 5.9536  27292.3  165.646
 5.9956  27387  165.325
 6.0376  27397.6  165.976
 6.0796  27807.5  167.041
 6.1216  27504.6  166.315
 6.1636  28101.5  167.185
 6.2056  27793.7  166.919
 6.2476  28480.3  168.68
 6.2896  28526.9  168.666
 6.3316  28295.4  168.171
 6.3736  28272.6  167.983
 6.4156  28334.9  168.114
 6.4576  28590.2  168.438
 6.4996  28443.6  168.465
 6.5416  28509.1  168.793
 6.5836  28681.2  169.535
 6.6256  28989.4  169.53
 6.6676  29171.7  170.115
 6.7096  29245  171.189
 6.7516  29454.4  171.454
 6.7936  29390.8  170.993
 6.8356  29749.3  171.808
 6.8776  29778.8  172.68
 6.9196  29937.7  173.54
 6.9616  30428.4  174.378
 7.0036  30828.5  175.216
 7.0456  31015  175.049
 7.0876  31013.7  176.639
 7.1296  30593.3  174.659
 7.1716  30709.2  174.546
 7.2136  30409  173.461
 7.2556  30410.3  173.717
 7.2976  30685.2  174.902
 7.3396  30501.5  174.585
 7.3816  30312.8  174.261
 7.4236  30505.1  174.121
 7.4656  30915.7  174.753
 7.5076  31124.5  175.487
 7.5496  30775.5  175.029
 7.5916  31037.4  175.819
 7.6336  31473  176.94
 7.6756  31648.5  177.286
 7.7176  32053.9  178.739
 7.7596  31621.1  178.719
 7.8016  32055.4  180.478
 7.8436  32021.2  178.744
 7.8856  32180.9  178.799
 7.9276  32719.3  180.689
 7.9696  33061.2  181.931
 8.0116  33657.7  182.143
 8.0536  34206.1  183.866
 8.0956  33848.5  184.047
 8.1376  34409.7  185.055
 8.1796  34418.4  185.592
 8.2216  35380.1  186.944
 8.2636  35122.7  186.508
 8.3056  35229.6  187.544
 8.3476  36002.8  188.93
 8.3896  35472.8  187.614
 8.4316  35408.6  187.604
 8.4736  35892.3  188.36
 8.5156  35410.8  187.363
 8.5576  35080.8  187.426
 8.5996  34966.6  186.034
 8.6416  34966.5  187.252
 8.6836  34696.3  186.375
 8.7256  35250.7  187.309
 8.7676  34931.3  189.334
 8.8096  35313.9  187.744
 8.8516  35539.2  187.98
 8.8936  34839.1  186.014
 8.9356  35169.5  187.223
 8.9776  35089.1  187.083
 9.0196  35191.4  187.037
 9.0616  34819.5  185.556
 9.1036  34704.2  186.391
 9.1456  34001  183.828
 9.1876  34490.8  185.102
 9.2296  34195.2  183.751
 9.2716  33910.3  183.029
 9.3136  34096  183.781
 9.3556  33829.5  182.787
 9.3976  33176.5  181.529
 9.4396  33428.6  182.118
 9.4816  33296.6  181.627
 9.5236  32924  180.491
 9.5656  32660.2  180.121
 9.6076  31626  177.746
 9.6496  32163.7  179.144
 9.6916  31681.1  177.738
 9.7336  31990.1  178.401
 9.7756  31955.9  179.496
 9.8176  31663.1  178.228
 9.8596  31874.9  177.294
 9.9016  31131.1  175.205
 9.9436  30834  174.099
 9.9856  30700.4  174.177
 10.0276  30305.4  174.096
 10.0696  30542  173.832
 10.1116  29729.2  171.766
 10.1536  29849.5  171.787
 10.1956  29506.5  170.896
 10.2376  29235.1  169.635
 10.2796  28953.4  168.913
 10.3216  28788  168.547
 10.3636  28706.5  168.496
 10.4056  28146.3  167.224
 10.4476  28641.6  168.316
 10.4896  28491.6  167.321
 10.5316  28423.7  167.519
 10.5736  28211.4  167.635
 10.6156  27880.9  166.417
 10.6576  28116.7  165.692
 10.6996  27449.8  164.406
 10.7416  26933.7  163.055
 10.7836  26694.2  162.97
 10.8256  26276.5  162.113
 10.8676  26290.2  161.702
 10.9096  26017.3  160.915
 10.9516  25949.7  159.661
 10.9936  25908  159.748
 11.0356  25768.1  159.903
 11.0776  25529.7  158.513
 11.1196  25005.8  157.622
 11.1616  24744.3  156.469
 11.2036  25020.3  157.198
 11.2456  24750.6  157.022
 11.2876  25242.5  158.33
 11.3296  24561  156.086
 11.3716  24884.3  156.843
 11.4136  24916.5  157.765
 11.4556  24936.2  157.49
 11.4976  25479.6  158.212
 11.5396  25789.3  159.333
 11.5816  25725.7  159.572
 11.6236  25066.2  157.967
 11.6656  24987.5  156.678
 11.7076  24083.7  154.611
 11.7496  24079.7  158.524
 11.7916  24135.6  154.051
 11.8336  23375.9  152.489
 11.8756  23524.4  152.521
 11.9176  23532.4  152.222
 11.9596  23666.6  152.834
 12.0016  23344.1  152.53
 12.0436  23433.5  152.29
 12.0856  22933.7  151.137
 12.1276  22961.4  151.186
 12.1696  23027.3  150.543
 12.2116  22992  150.417
 12.2536  22941.5  151.041
 12.2956  22816.6  150.001
 12.3376  22975.4  150.734
 12.3796  22904.7  150.967
 12.4216  22969.8  150.388
 12.4636  22639.5  150.225
 12.5056  22840.5  150.17
 12.5476  22968.4  150.114
 12.5896  22611.9  149.56
 12.6316  22716.5  150.074
 12.6736  22665.5  150.372
 12.7156  22547.3  150.162
 12.7576  22629.7  150.342
 12.7996  22838.2  149.709
 12.8416  22639.8  150.079
 12.8836  22791.6  150.416
 12.9256  23230.8  151.208
 12.9676  23054.9  150.722
 13.0096  23341.3  152.774
 13.0516  23126.1  151.11
 13.0936  23319.6  151.87
 13.1356  23595.4  152.01
 13.1776  23097.7  151.398
 13.2196  23453  152.203
 13.2616  23140.8  151.49
 13.3036  23478.7  152.741
 13.3456  23106.7  151.489
 13.3876  23574.1  152.51
 13.4296  23365  151.992
 13.4716  23401.4  151.746
 13.5136  23421.5  151.939
 13.5556  23202.2  151.828
 13.5976  23468  152.874
 13.6396  23348.1  151.848
 13.6816  23479.9  152.622
 13.7236  24023  154.087
 13.7656  25468.4  159.123
 13.8076  26143.8  159.845
 13.8496  24746.8  156.378
 13.8916  23759  154.154
 13.9336  22803.4  150.314
 13.9756  23082.9  150.626
 14.0176  22625.6  149.777
 14.0596  22791.2  150.253
 14.1016  22721  150.453
 14.1436  22643.6  149.352
 14.1856  22175.3  148.079
 14.2276  22125.1  148.386
 14.2696  22093.4  148.129
 14.3116  21463.2  145.909
 14.3536  21413.4  145.911
 14.3956  21373.5  145.492
 14.4376  21760.9  146.603
 14.4796  21599.2  146.06
 14.5216  21342.5  145.633
 14.5636  21050.6  144.539
 14.6056  21272.4  144.875
 14.6476  21040.5  143.335
 14.6896  20841.6  143.191
 14.7316  20358.4  142.528
 14.7736  20095.5  140.763
 14.8156  20049.8  140.635
 14.8576  20021.5  140.392
 14.8996  19730.2  140.518
 14.9416  19436.2  139.504
 14.9836  19299  138.991
 15.0256  18834.9  136.237
 15.0676  18799.8  136.413
 15.1096  18751.7  135.982
 15.1516  18528  135.705
 15.1936  18431.4  134.8
 15.2356  17947.6  133.289
 15.2776  17926.9  132.812
 15.3196  17872.7  133.58
 15.3616  17544.4  132.117
 15.4036  17660  132.406
 15.4456  17943  133.127
 15.4876  17478.5  131.083
 15.5296  17406.1  131.089
 15.5716  17217.5  129.997
 15.6136  17198.4  130.239
 15.6556  16957.4  128.595
 15.6976  16882.7  128.384
 15.7396  16965  129.287
 15.7816  16792.6  128.155
 15.8236  16582.8  128.021
 15.8656  16522.7  127.59
 15.9076  16507.7  127.36
 15.9496  17171.6  132.679
 15.9916  16919.8  132.084
 16.0336  17073.6  129.635
 16.0756  16886.2  129.208
 16.1176  16460.1  127.502
 16.1596  16226.5  127.902
 16.2016  16091.9  126.161
 16.2436  16102.1  126.568
 16.2856  16197.8  126.462
 16.3276  15944.3  125.915
 16.3696  16166.9  126.614
 16.4116  16053.4  126.616
 16.4536  16284.2  127.329
 16.4956  16132.9  126.478
 16.5376  15885.8  125.684
 16.5796  15674.2  124.015
 16.6216  15882  125.291
 16.6636  15642.4  124.532
 16.7056  15868.8  125.299
 16.7476  15837.8  124.717
 16.7896  15734.2  125.04
 16.8316  15664.6  124.746
 16.8736  15835  125.673
 16.9156  15708.2  125.489
 16.9576  15570.7  125.699
 16.9996  15519.2  125.951
 17.0416  15612.8  124.746
 17.0836  15689.5  124.826
 17.1256  15542.1  124.239
 17.1676  15436.1  123.765
 17.2096  15361.7  123.376
 17.2516  15428  123.745
 17.2936  15075.2  122.362
 17.3356  15013.4  122.096
 17.3776  14963.6  122.075
 17.4196  14913.7  121.571
 17.4616  14794.7  121.003
 17.5036  14520  120.225
 17.5456  14456.5  120.575
 17.5876  14829.4  121.185
 17.6296  14803.9  120.912
 17.6716  14639.6  120.816
 17.7136  14561.1  120.628
 17.7556  14469.3  120.526
 17.7976  14164.1  118.836
 17.8396  14165.1  118.508
 17.8816  14159  119.025
 17.9236  14161.3  118.839
 17.9656  14086.4  119.175
 18.0076  14199.6  119.108
 18.0496  14067  117.71
 18.0916  14171.1  118.681
 18.1336  14072.2  118.363
 18.1756  14382  119.213
 18.2176  14126.8  118.355
 18.2596  14064  117.82
 18.3016  14394.3  119.464
 18.3436  14311.7  119.354
 18.3856  14100.6  118.378
 18.4276  14107  118.089
 18.4696  13801.4  116.884
 18.5116  13918  117.64
 18.5536  13893.7  117.896
 18.5956  13804.5  117.091
 18.6376  13717.2  117.108
 18.6796  13705.2  116.402
 18.7216  13860.3  117.601
 18.7636  13684.1  116.785
 18.8056  13650.3  116.558
 18.8476  13292  115.637
 18.8896  13538.5  116.055
 18.9316  13497.6  115.687
 18.9736  13570.9  115.879
 19.0156  13302.9  115.129
 19.0576  13521.6  114.951
 19.0996  13487  115.501
 19.1416  13196.8  114.551
 19.1836  13420.6  115.218
 19.2256  13231.4  114.616
 19.2676  13337.5  115.159
 19.3096  13242.1  114.981
 19.3516  13383.3  115.375
 19.3936  13169.9  114.517
 19.4356  13445.8  115.604
 19.4776  13292.9  115.039
 19.5196  13279.3  114.835
 19.5616  13128.4  114.424
 19.6036  13231.6  114.391
 19.6456  13290.9  114.756
 19.6876  13344.2  114.628
 19.7296  13523.2  115.861
 19.7716  13300.5  114.92
 19.8136  13548.3  116.326
 19.8556  13696.7  116.453
 19.8976  13656.2  116.334
 19.9396  13710.4  116.158
 19.9816  13738.7  116.52
 20.0236  13987.9  117.774
 20.0656  13904.2  117.411
 20.1076  13744.7  117.216
 20.1496  13438.2  115.893
 20.1916  13497.9  115.628
 20.2336  13370.7  115.051
 20.2756  13174.9  114.637
 20.3176  12840  112.923
 20.3596  12852.7  112.957
 20.4016  13044.1  113.56
 20.4436  12766.5  112.944
 20.4856  12888.9  113.277
 20.5276  12619.7  112.534
 20.5696  12756.8  112.704
 20.6116  12716  112.696
 20.6536  12544.9  111.51
 20.6956  12581.6  111.752
 20.7376  12475.1  111.469
 20.7796  12590.4  111.805
 20.8216  12734.1  112.05
 20.8636  12523.6  111.491
 20.9056  12583  111.69
 20.9476  12534.9  111.463
 20.9896  12619.4  111.565
 21.0316  12515.4  111
 21.0736  12577.5  111.795
 21.1156  12420.8  111.244
 21.1576  12608.2  112.122
 21.1996  12442.2  111.371
 21.2416  12498.3  111.46
 21.2836  12402.7  111.001
 21.3256  12435.1  111.221
 21.3676  12485  110.971
 21.4096  12266.4  110.369
 21.4516  12223.9  110.003
 21.4936  12028.7  109.378
 21.5356  12334.8  110.71
 21.5776  12313.4  110.453
 21.6196  12267.2  110.284
 21.6616  12134  109.767
 21.7036  12269.6  110.149
 21.7456  12228.6  110.043
 21.7876  12139.4  109.41
 21.8296  12078.2  108.988
 21.8716  12039.8  109.091
 21.9136  12450  111.076
 21.9556  12217.5  109.705
 21.9976  12163.8  109.5
 22.0396  11982.5  108.927
 22.0816  12041.1  109.707
 22.1236  12219  109.991
 22.1656  11944.6  108.929
 22.2076  11923.8  108.246
 22.2496  11971.9  108.491
 22.2916  11885.1  107.985
 22.3336  11823.2  108.387
 22.3756  11723.2  107.677
 22.4176  11671.6  107.294
 22.4596  11618.4  107.624
 22.5016  11793.6  107.938
 22.5436  11915.7  108.385
 22.5856  12138.6  109.635
 22.6276  12325.4  110.599
 22.6696  11851.3  108.806
 22.7116  11806  108.117
 22.7536  11822.1  108.173
 22.7956  11842.6  107.619
 22.8376  11708.1  107.513
 22.8796  11615.9  106.894
 22.9216  11868.2  108.58
 22.9636  11791.7  107.406
 23.0056  11648.2  106.875
 23.0476  11779  108.033
 23.0896  12019.6  108.523
 23.1316  11777.7  107.846
 23.1736  11952.5  111.521
 23.2156  12154.2  109.892
 23.2576  12369.9  111.012
 23.2996  11998.6  109.103
 23.3416  12200  110.547
 23.3836  12156.3  109.585
 23.4256  12174  109.678
 23.4676  12118.8  109.231
 23.5096  12003  109.358
 23.5516  12108.5  109.139
 23.5936  12125  110.114
 23.6356  12335.6  110.735
 23.6776  12048.5  109.638
 23.7196  12079.6  109.584
 23.7616  12028.1  109.049
 23.8036  12212.9  109.948
 23.8456  11985.7  108.47
 23.8876  11958  108.432
 23.9296  11851.5  108.699
 23.9716  11873.1  108.016
 24.0136  12052.8  109.721
 24.0556  11850.5  108.51
 24.0976  11758.5  107.914
 24.1396  11571.1  109.583
 24.1816  11768.8  109.289
 24.2236  11792.3  108.701
 24.2656  11646.1  107.522
 24.3076  11645.8  107.787
 24.3496  11603.1  107.461
 24.3916  11735.3  108.133
 24.4336  11567  107.551
 24.4756  11429.4  106.798
 24.5176  11584.9  107.15
 24.5596  11546.5  107.295
 24.6016  11512.5  107.229
 24.6436  11488.1  106.642
 24.6856  11294.6  105.483
 24.7276  11146.3  105.092
 24.7696  11113.5  105.043
 24.8116  11025.5  104.8
 24.8536  11054.7  104.952
 24.8956  11127.1  105.031
 24.9376  11030  104.755
 24.9796  11006.6  104.751
 25.0216  10911.6  104.408
 25.0636  10923.4  104.125
 25.1056  10758.7  103.747
 25.1476  10818.7  105.9
 25.1896  10776  104.233
 25.2316  10818.6  103.734
 25.2736  10808.2  103.336
 25.3156  10645.5  102.634
 25.3576  10640.1  103.03
 25.3996  10719.4  103.405
 25.4416  10564.2  102.622
 25.4836  10471.6  102.677
 25.5256  10602.2  102.696
 25.5676  10635.4  102.577
 25.6096  10350.6  101.765
 25.6516  10517.2  102.088
 25.6936  10662.3  103.115
 25.7356  10565  102.765
 25.7776  10644.9  102.829
 25.8196  10324.5  101.432
 25.8616  10367.6  101.575
 25.9036  10396.5  101.189
 25.9456  10499.8  102.276
 25.9876  10545.4  102.42
 26.0296  10492.5  101.915
 26.0716  10490.4  102.241
 26.1136  10542.2  102.418
 26.1556  10478.8  101.512
 26.1976  10386.1  101.971
 26.2396  10326.7  101.092
 26.2816  10417.2  101.894
 26.3236  10419.3  102.049
 26.3656  10505  102.204
 26.4076  10338.2  101.588
 26.4496  10418.4  101.731
 26.4916  10785.8  103.255
 26.5336  10924.7  104.256
 26.5756  10943.9  104.228
 26.6176  10529  102.248
 26.6596  10563.9  102.57
 26.7016  10299.3  101.183
 26.7436  10459.2  102.114
 26.7856  10132.9  100.494
 26.8276  10211.2  100.847
 26.8696  10185.3  100.588
 26.9116  10187.4  100.539
 26.9536  10001.3  99.6605
 26.9956  9977.47  99.5759
 27.0376  10088.2  100.355
 27.0796  10127.5  100.349
 27.1216  10051.9  99.9639
 27.1636  9896.75  99.3492
 27.2056  10086.2  100.176
 27.2476  9885.53  99.1712
 27.2896  9805.16  98.8791
 27.3316  9858.79  98.8761
 27.3736  9861.28  99.1497
 27.4156  9965.98  99.5247
 27.4576  9921.64  99.5229
 27.4996  9992.55  99.4888
 27.5416  9937.25  99.5074
 27.5836  9894.37  99.1363
 27.6256  9946.83  99.5765
 27.6676  9800.22  98.8229
 27.7096  9959.32  99.5139
 27.7516  9893.17  99.3197
 27.7936  10120.2  100.605
 27.8356  9847.59  98.8525
 27.8776  10042.4  99.9007
 27.9196  9841.45  98.7536
 27.9616  9729.43  98.3819
 28.0036  9753.52  98.4584
 28.0456  9691.51  98.2841
 28.0876  9720.12  98.5152
 28.1296  9743.03  98.4695
 28.1716  9771.03  98.6366
 28.2136  9716.69  98.3265
 28.2556  9727.78  98.4984
 28.2976  9599.08  97.8317
 28.3396  9601.01  97.6403
 28.3816  9580.06  97.5015
 28.4236  9506.71  97.2738
 28.4656  9482.25  97.1908
 28.5076  9435.31  96.5952
 28.5496  9549.61  97.4377
 28.5916  9536.73  97.1923
 28.6336  9538.14  97.5414
 28.6756  9496.64  96.53
 28.7176  9453.97  96.8607
 28.7596  9353.59  96.2391
 28.8016  9400.09  96.504
 28.8436  9355.14  96.5161
 28.8856  9418.82  96.7
 28.9276  9358.08  96.6322
 28.9696  9424.85  96.6449
 29.0116  9215.05  95.7335
 29.0536  9249.92  96.1229
 29.0956  9358.8  96.3927
 29.1376  9265.28  95.8792
 29.1796  9376.81  96.5098
 29.2216  9238.19  95.6304
 29.2636  9290.57  95.9223
 29.3056  9216.56  95.3699
 29.3476  9180.73  95.7058
 29.3896  9346.95  96.6839
 29.4316  9071.14  94.588
 29.4736  9021.2  94.3899
 29.5156  9019.52  94.3014
 29.5576  8971.9  94.7637
 29.5996  9010.44  94.2545
 29.6416  8974.47  94.1771
 29.6836  9015.2  94.3234
 29.7256  9044.95  95.0279
 29.7676  9000.62  94.4662
 29.8096  8952.32  94.1578
 29.8516  8834.11  93.8549
 29.8936  8906.19  94.326
 29.9356  8920.56  94.1655
 29.9776  8822.54  93.7948
 30.0196  8979.84  94.0322
 30.0616  8921.63  94.0897
 30.1036  8938.44  94.0035
 30.1456  8874.63  93.8996
 30.1876  8929.45  94.1634
 30.2296  8884.79  93.8841
 30.2716  8917.73  93.7042
 30.3136  8958.14  94.7467
 30.3556  9126.64  96.0137
 30.3976  9065.67  96.7619
 30.4396  9347.86  95.68
 30.4816  9204.49  94.5584
 30.5236  9260.09  94.8464
 30.5656  9207.93  95.23
 30.6076  8999.31  93.8852
 30.6496  9168.18  94.8477
 30.6916  9012.49  94.1206
 30.7336  9070.43  94.5781
 30.7756  8959.98  94.0674
 30.8176  9039.36  94.4203
 30.8596  9116.45  94.5766
 30.9016  9174.54  94.7535
 30.9436  9051.4  94.3241
 30.9856  9179.84  95.116
 31.0276  8854.6  93.0621
 31.0696  8856.37  93.8122
 31.1116  8974.17  94.2059
 31.1536  8908.25  93.7264
 31.1956  8728.35  92.8693
 31.2376  8764.75  93.0916
 31.2796  8819.25  92.9184
 31.3216  8902.7  93.2949
 31.3636  8968.61  94.2957
 31.4056  8845.77  94.9508
 31.4476  9009.36  93.7627
 31.4896  8933.89  93.8616
 31.5316  8969.95  93.5076
 31.5736  8939.06  93.1411
 31.6156  9010.54  93.519
 31.6576  9036.95  93.7138
 31.6996  9123.37  93.8565
 31.7416  9002.89  94.1701
 31.7836  9013.57  93.3659
 31.8256  8918.37  93.2104
 31.8676  9157.81  94.3728
 31.9096  8956.86  93.5423
 31.9516  8703.68  92.5267
 31.9936  8844.23  93.0892
 32.0356  8887.94  93.343
 32.0776  8962.62  93.6629
 32.1196  9126.68  94.5412
 32.1616  8973.11  93.2698
 32.2036  9025.68  94.0672
 32.2456  8803.66  93.2685
 32.2876  8780.52  92.4835
 32.3296  8805.21  92.7463
 32.3716  8595.72  91.7408
 32.4136  8708.75  92.5382
 32.4556  8818.19  92.5734
 32.4976  8692.56  91.814
 32.5396  8651.68  91.6123
 32.5816  8663.9  91.8063
 32.6236  8635.68  91.7117
 32.6656  8726.6  92.7322
 32.7076  8681.61  92.1484
 32.7496  8547.29  91.1136
 32.7916  8590.99  91.3016
 32.8336  8538.86  91.118
 32.8756  8754.49  91.9968
 32.9176  8383.22  90.4879
 32.9596  8488.12  91.1241
 33.0016  8501.66  90.9647
 33.0436  8566.62  91.4884
 33.0856  8512.52  91.3003
 33.1276  8417.02  90.52
 33.1696  8605.39  91.2306
 33.2116  8569.1  91.4006
 33.2536  8656.22  91.8603
 33.2956  8501.11  91.1119
 33.3376  8412.11  90.4587
 33.3796  8465.92  90.883
 33.4216  8510.05  90.7195
 33.4636  8540.6  91.0284
 33.5056  8342.75  90.204
 33.5476  8521.54  91.1422
 33.5896  8530.24  90.9713
 33.6316  8480.72  91.0294
 33.6736  8245.01  89.996
 33.7156  8340.51  90.5474
 33.7576  8560.37  91.3787
 33.7996  8419.94  90.384
 33.8416  8401.24  90.477
 33.8836  8275.64  89.576
 33.9256  8507.85  90.8834
 33.9676  8365.36  90.0188
 34.0096  8273  89.8852
 34.0516  8303.69  89.6282
 34.0936  8210.97  89.3998
 34.1356  8384.83  90.0864
 34.1776  8183.47  88.9919
 34.2196  8406.45  90.298
 34.2616  8137.64  89.0554
 34.3036  8291.22  90.142
 34.3456  8183.41  89.3031
 34.3876  8328.14  90.1546
 34.4296  8391.58  90.0964
 34.4716  8321.79  89.8741
 34.5136  8295.98  89.9249
 34.5556  8137.27  89.2956
 34.5976  8352.55  90.3353
 34.6396  8206.95  89.2222
 34.6816  8345.89  90.0855
 34.7236  8251.3  89.3481
 34.7656  8192.08  89.2384
 34.8076  8130.53  89.2216
 34.8496  8128.93  89.0602
 34.8916  8181.19  89.2175
 34.9336  8146.78  89.006
 34.9756  8323.2  89.9153
 35.0176  8190.11  89.684
 35.0596  8323.85  90.2465
 35.1016  8197.79  89.3157
 35.1436  8350.06  89.8328
 35.1856  8199.37  89.136
 35.2276  8133.76  88.9473
 35.2696  8216.89  89.5906
 35.3116  8074.73  88.9115
 35.3536  8187.59  89.274
 35.3956  8193.5  88.9982
 35.4376  8176.18  89.4674
 35.4796  8184.44  89.5358
 35.5216  8089.62  89.0542
 35.5636  7925.81  88.8043
 35.6056  8010.39  88.3092
 35.6476  8062.02  88.5028
 35.6896  8207.95  89.4712
 35.7316  7937.38  87.882
 35.7736  7944.07  88.1004
 35.8156  8039.07  88.6286
 35.8576  8122.59  89.3303
 35.8996  8180.34  89.6248
 35.9416  8123.55  88.8186
 35.9836  7961.39  88.3664
 36.0256  8251.22  89.8654
 36.0676  8300.28  89.6428
 36.1096  8069.57  88.7755
 36.1516  8212.81  89.4554
 36.1936  8177.65  89.0944
 36.2356  8090.76  89.2737
 36.2776  8108.66  88.8448
 36.3196  8013.37  88.003
 36.3616  8028.25  88.2165
 36.4036  8028.56  88.2925
 36.4456  8063.84  88.6845
 36.4876  7821.99  87.2909
 36.5296  7952.1  88.0441
 36.5716  7971.55  88.9232
 36.6136  7889.08  87.2619
 36.6556  7820.27  87.0754
 36.6976  7843.72  87.6869
 36.7396  7741  86.8469
 36.7816  7839.78  87.7692
 36.8236  7806.78  87.4973
 36.8656  7639.68  86.632
 36.9076  7761.37  87.3277
 36.9496  7653.38  86.5882
 36.9916  7625.42  86.0705
 37.0336  7893.61  87.8797
 37.0756  7809.2  87.204
 37.1176  7482.67  85.6194
 37.1596  7658.71  86.6279
 37.2016  7693.95  86.996
 37.2436  7705.95  86.4464
 37.2856  7713.76  86.7318
 37.3276  7825.46  86.7354
 37.3696  7608.04  86.3741
 37.4116  7755.46  87.1185
 37.4536  7699.61  86.6658
 37.4956  7550.7  85.8753
 37.5376  7869.08  89.2378
 37.5796  7741.41  88.4356
 37.6216  7754.15  86.8236
 37.6636  7799.95  86.978
 37.7056  7873.2  87.5734
 37.7476  7960.69  87.6069
 37.7896  7635.52  86.2819
 37.8316  7491.91  85.6296
 37.8736  7747.79  86.6034
 37.9156  7737.28  86.512
 37.9576  7829.6  86.9712
 37.9996  7760.64  86.3078
 38.0416  7711.36  86.819
 38.0836  7680.58  86.5564
 38.1256  7837.52  87.4285
 38.1676  7519.6  85.7304
 38.2096  7807.28  86.9736
 38.2516  7744.09  86.8348
 38.2936  7798.38  86.95
 38.3356  7665.91  86.1279
 38.3776  7648.57  86.2632
 38.4196  7696.71  86.4041
 38.4616  7731.05  86.8467
 38.5036  7713.52  86.5901
 38.5456  7603.18  86.7661
 38.5876  7652.23  86.9753
 38.6296  7672.36  86.1749
 38.6716  7693.82  86.1091
 38.7136  7775.77  86.5095
 38.7556  7528.58  85.4554
 38.7976  7788.24  86.9881
 38.8396  7601.91  86.4118
 38.8816  7516.39  85.7266
 38.9236  7694.22  86.5254
 38.9656  7578.59  85.7874
 39.0076  7646.45  85.5782
 39.0496  7747.02  86.7084
 39.0916  7807.17  86.6863
 39.1336  7632.13  86.104
 39.1756  7619.14  86.0832
 39.2176  7617.98  86.6052
 39.2596  7634.55  86.6347
 39.3016  7663.74  86.3922
 39.3436  7592.15  86.3811
 39.3856  7709.78  86.5037
 39.4276  7697.83  86.9491
 39.4696  7654.49  86.3248
 39.5116  7768.93  87.4796
 39.5536  7680.19  87.3842
 39.5956  7625.97  86.1932
 39.6376  7585.56  85.9614
 39.6796  7570.35  85.6315
 39.7216  7654.08  86.2068
 39.7636  7694.76  86.9764
 39.8056  7713.78  86.8933
 39.8476  7534.34  86.112
 39.8896  7651.03  86.4218
 39.9316  7477.34  85.6748
 39.9736  7664.81  86.3176
 40.0156  7595.25  85.7644
 40.0576  7616.06  86.2176
 40.0996  7662.81  85.6898
 40.1416  7667.49  86.4952
 40.1836  7657.07  86.3358
 40.2256  7615.89  86.1292
 40.2676  7492.74  85.596
 40.3096  7625.38  86.2163
 40.3516  7644.64  86.4372
 40.3936  7649.99  86.0271
 40.4356  7553.11  85.6805
 40.4776  7787.61  87.2331
 40.5196  7590.08  86.411
 40.5616  7795.62  87.2286
 40.6036  7525.47  85.9464
 40.6456  7672.23  86.3951
 40.6876  7802.95  87.116
 40.7296  7621.86  86.2282
 40.7716  7668.46  86.6145
 40.8136  7509.85  85.6552
 40.8556  7691.91  86.8328
 40.8976  7611.27  86.2914
 40.9396  7622.79  86.6996
 40.9816  7704.97  86.4678
 41.0236  7674.42  86.0808
 41.0656  7657.1  86.5055
 41.1076  7659.73  86.2982
 41.1496  7705.18  86.4564
 41.1916  7584  86.0961
 41.2336  7647.71  86.4553
 41.2756  7596.89  85.7806
 41.3176  7676.81  86.8464
 41.3596  7641.42  86.363
 41.4016  7632.57  86.57
 41.4436  7731.33  86.9204
 41.4856  7601.99  86.35
 41.5276  7709.24  86.8858
 41.5696  7670.43  86.3804
 41.6116  7738.03  87.1535
 41.6536  7702.55  86.817
 41.6956  7641.36  86.4554
 41.7376  7563.1  86.1102
 41.7796  7492.27  85.6391
 41.8216  7690.52  86.9526
 41.8636  7704.82  86.9707
 41.9056  7733.81  86.8697
 41.9476  7585.38  86.322
 41.9896  7646.86  86.3499
 42.0316  7636.91  86.3744
 42.0736  7768.93  87.2476
 42.1156  7573.54  85.952
 42.1576  7576.58  86.0693
 42.1996  7680.77  86.7819
 42.2416  7596.93  85.9095
 42.2836  7701.02  86.5129
 42.3256  7526.56  85.7379
 42.3676  7642.53  86.1997
 42.4096  7568.45  85.7561
 42.4516  7646.19  86.2219
 42.4936  7532.08  85.6931
 42.5356  7468.72  85.4644
 42.5776  7648.74  86.42
 42.6196  7521.56  85.7572
 42.6616  7396.93  85.2196
 42.7036  7555.02  85.5104
 42.7456  7545.18  85.807
 42.7876  7485.25  85.5565
 42.8296  7562.68  85.84
 42.8716  7427.11  85.22
 42.9136  7436.44  85.0319
 42.9556  7567.37  85.9481
 42.9976  7522.3  85.6522
 43.0396  7453.99  84.9997
 43.0816  7431.37  85.2533
 43.1236  7455.4  85.4374
 43.1656  7456.85  85.2672
 43.2076  7494.06  85.6017
 43.2496  7429.2  85.0474
 43.2916  7376.88  85.099
 43.3336  7510.24  85.6995
 43.3756  7485.92  85.2951
 43.4176  7418.94  85.0165
 43.4596  7394.14  84.739
 43.5016  7444.39  85.4158
 43.5436  7447.56  85.3485
 43.5856  7441.28  85.337
 43.6276  7530.37  85.7371
 43.6696  7428.05  85.2924
 43.7116  7416.55  84.8498
 43.7536  7516.97  85.9102
 43.7956  7286.29  85.753
 43.8376  7288.27  84.3151
 43.8796  7368.92  84.8687
 43.9216  7304.25  84.4151
 43.9636  7299.07  84.4926
 44.0056  7319.43  84.8323
 44.0476  7239.06  84.0101
 44.0896  7213.92  84.1941
 44.1316  7154.37  83.5218
 44.1736  7227.23  83.9328
 44.2156  7281.45  84.1
 44.2576  7246.34  84.2159
 44.2996  7303.99  84.52
 44.3416  7264.29  84.0601
 44.3836  7067.47  83.2181
 44.4256  7176.74  83.5226
 44.4676  7139.65  83.4604
 44.5096  7214.52  84.0371
 44.5516  7199.99  83.9192
 44.5936  7099.77  83.2853
 44.6356  7225.71  83.7643
 44.6776  7176.13  83.7774
 44.7196  7163.14  84.0135
 44.7616  7299.28  86.118
 44.8036  7384.3  85.2709
 44.8456  7301.17  84.7937
 44.8876  7312.32  84.7062
 44.9296  7342.65  84.3284
 44.9716  7387.25  85.0088
 45.0136  7456.86  85.3555
 45.0556  7379.68  84.9973
 45.0976  7295.69  84.5602
 45.1396  7228.91  83.9142
 45.1816  7211.69  83.7656
 45.2236  7420.25  84.8833
 45.2656  7302.02  84.684
 45.3076  7226.59  84.0477
 45.3496  7255.95  84.5322
 45.3916  7193.43  84.4174
 45.4336  7350.72  85.1832
 45.4756  7215.3  84.2414
 45.5176  7370.33  84.7728
 45.5596  7383.51  84.9669
 45.6016  7319.34  85.0115
 45.6436  7290.94  84.0239
 45.6856  7274.08  84.5829
 45.7276  7155.74  85.1703
 45.7696  7186.58  85.0409
 45.8116  7211.95  84.4986
 45.8536  7177.35  84.3255
 45.8956  7217.34  83.9211
 45.9376  7215.45  83.3841
 45.9796  7326.15  84.7234
 46.0216  7345.29  85.1515
 46.0636  7361.86  84.3934
 46.1056  7247.66  83.7317
 46.1476  7172.72  83.8759
 46.1896  7192.42  84.1345
 46.2316  7293.18  84.6011
 46.2736  7194.63  84.2271
 46.3156  7222.33  84.143
 46.3576  7181.93  84.1002
 46.3996  7223.61  84.5019
 46.4416  7209.11  83.9783
 46.4836  7087.21  83.641
 46.5256  7220.95  84.3657
 46.5676  7099.19  83.7625
 46.6096  7240.99  84.5335
 46.6516  7142.79  83.4176
 46.6936  7262.54  84.1983
 46.7356  7355.54  84.8449
 46.7776  7104.53  84.2054
 46.8196  7099.19  83.9077
 46.8616  6968.27  82.9473
 46.9036  7085.15  83.2943
 46.9456  7090.45  82.9796
 46.9876  7161.82  83.4717
 47.0296  7168.37  84.1192
 47.0716  7147.74  83.9013
 47.1136  7106  83.3441
 47.1556  7068.06  82.9815
 47.1976  7141.65  83.5723
 47.2396  7126.47  83.8011
 47.2816  7048.38  83.0428
 47.3236  7036.66  83.3403
 47.3656  7219.55  84.3466
 47.4076  7192.28  83.9222
 47.4496  7076.11  83.4092
 47.4916  7000.71  83.1486
 47.5336  7187.18  84.0591
 47.5756  7205.67  84.288
 47.6176  7086.85  83.4862
 47.6596  7069.12  83.0977
 47.7016  7193.61  83.6412
 47.7436  7089.39  83.3705
 47.7856  7156.58  83.7977
 47.8276  7158.2  83.8564
 47.8696  7168.18  83.9992
 47.9116  7172.4  83.7328
 47.9536  7157.1  83.5871
 47.9956  7011.89  83.4362
 48.0376  7004.44  83.1647
 48.0796  7192.5  84.4015
 48.1216  7022.07  83.2181
 48.1636  7206.15  83.8813
 48.2056  7156.95  83.8569
 48.2476  7244.12  84.6837
 48.2896  7224.37  84.4621
 48.3316  7184.46  84.1719
 48.3736  7077.12  83.5655
 48.4156  7088.17  83.4826
 48.4576  7075.61  83.7016
 48.4996  7144.78  83.5651
 48.5416  7205.14  84.2514
 48.5836  7133.3  83.4991
 48.6256  7090.65  83.3796
 48.6676  7208.49  84.6625
 48.7096  7037.82  82.9337
 48.7516  7138.47  83.6737
 48.7936  7036.75  83.1319
 48.8356  7125.16  83.7245
 48.8776  7091.14  83.9958
 48.9196  7172.64  83.9305
 48.9616  7025.6  83.4398
 49.0036  6999.51  83.6299
 49.0456  7054.74  83.936
 49.0876  6989.65  83.1834
 49.1296  6963.68  83.0978
 49.1716  6966.66  82.9835
 49.2136  7070.73  83.5322
 49.2556  6983.63  83.0452
 49.2976  7110.46  83.871
 49.3396  6961.86  83.0416
 49.3816  7002.08  82.7999
 49.4236  7054.24  83.4395
 49.4656  6961.52  82.9147
 49.5076  7069.33  83.3013
 49.5496  7045.21  83.2187
 49.5916  7055.05  83.1962
 49.6336  7066.31  83.4675
 49.6756  7031.65  83.5039
 49.7176  7029.96  83.4216
 49.7596  6953.95  82.748
 49.8016  7133.96  83.7309
 49.8436  6965.02  83.0238
 49.8856  6984.04  83.1358
 49.9276  6989.48  83.2694
 49.9696  7022.4  83.4551
 50.0116  7101.3  84.0425
 50.0536  7088.72  84.0083
 50.0956  6926.16  83.0311
 50.1376  7031.12  83.3507
 50.1796  6876.1  82.6949
 50.2216  6991.05  83.3818
 50.2636  7010.64  83.1122
 50.3056  6902.42  82.6377
 50.3476  7037.9  83.4771
 50.3896  6986.81  83.14
 50.4316  6871.19  82.285
 50.4736  6952.07  82.9881
 50.5156  6942.37  82.9173
 50.5576  7039.4  83.2552
 50.5996  6912.78  82.7859
 50.6416  6811.18  82.102
 50.6836  7028.52  83.4576
 50.7256  7081.97  83.6827
 50.7676  6961.85  83.0414
 50.8096  6992.77  83.0217
 50.8516  6992.08  83.4455
 50.8936  6808.63  82.1249
 50.9356  6923.05  82.9187
 50.9776  6926.56  83.0993
 51.0196  6791.16  82.3805
 51.0616  6767.7  81.5786
 51.1036  6775.96  81.9887
 51.1456  6838.39  82.276
 51.1876  6875.26  81.8308
 51.2296  6831.38  82.208
 51.2716  6773.28  81.571
 51.3136  6754.87  81.9156
 51.3556  6761.93  81.5769
 51.3976  6718.44  81.4587
 51.4396  6730.41  81.8501
 51.4816  6723.8  81.6608
 51.5236  6842.56  82.4642
 51.5656  6670.81  81.0265
 51.6076  6708.64  81.3389
 51.6496  6655.68  81.206
 51.6916  6618.95  81.335
 51.7336  6675.87  81.7803
 51.7756  6690.43  81.5613
 51.8176  6644.53  81.3922
 51.8596  6747.4  82.0345
 51.9016  6887.17  82.4833
 51.9436  6748.97  83.146
 51.9856  6734.59  83.4604
 52.0276  6878.69  82.8412
 52.0696  6998.29  83.6359
 52.1116  6672.44  81.7819
 52.1536  6822.98  82.5331
 52.1956  6751.55  81.6082
 52.2376  6865.78  82.4778
 52.2796  6936.99  82.7217
 52.3216  6624.47  81.5156
 52.3636  6729.52  81.7065
 52.4056  6824.46  82.1596
 52.4476  6807.17  82.2902
 52.4896  6705.95  81.8565
 52.5316  6773.4  82.3265
 52.5736  6673.81  81.4241
 52.6156  6781.01  82.4874
 52.6576  6651.56  81.1286
 52.6996  6550.92  81.4875
 52.7416  6533.65  81.2359
 52.7836  6765.31  82.5567
 52.8256  6753.16  81.69
 52.8676  6598.48  81.3212
 52.9096  6755.38  82.5484
 52.9516  6600.59  81.78
 52.9936  6665.76  82.5576
 53.0356  6680.6  81.6337
 53.0776  6807.7  82.5232
 53.1196  6707.11  82.2159
 53.1616  6629.94  81.7819
 53.2036  6632.33  81.7642
 53.2456  6599.96  81.6689
 53.2876  6676.62  81.829
 53.3296  6849.26  83.213
 53.3716  6819.28  82.7862
 53.4136  6708.3  82.2528
 53.4556  6678.07  82.0885
 53.4976  6629.88  81.644
 53.5396  6670.47  82.2751
 53.5816  6764.34  82.4996
 53.6236  6686.99  82.3749
 53.6656  6659.46  81.81
 53.7076  6666.8  81.8108
 53.7496  6699.14  82.1488
 53.7916  6666.6  82.0775
 53.8336  6742.9  82.4494
 53.8756  6521.82  81.6064
 53.9176  6609.48  81.5124
 53.9596  6410.8  81.0172
 54.0016  6345.31  79.9477
 54.0436  6248.48  79.559
 54.0856  6468.81  80.3844
 54.1276  6389.87  80.0786
 54.1696  6344.01  79.9443
 54.2116  6526.7  80.849
 54.2536  6465.99  80.2899
 54.2956  6386.21  79.8333
 54.3376  6343.74  80.0643
 54.3796  6382.96  80.1862
 54.4216  6390.1  80.3104
 54.4636  6380.45  80.2006
 54.5056  6471.72  80.5816
 54.5476  6263  79.609
 54.5896  6374.99  80.1553
 54.6316  6392.7  80.1086
 54.6736  6346.2  79.8524
 54.7156  6329.56  79.8203
 54.7576  6299.76  79.5995
 54.7996  6394.01  80.3899
 54.8416  6294.02  79.7772
 54.8836  6373.6  80.3601
 54.9256  6338.03  79.9158
 54.9676  6242.79  79.1756
 55.0096  6317.38  79.6896
 55.0516  6205.4  79.1306
 55.0936  6307.2  79.523
 55.1356  6310.29  79.5658
 55.1776  6407.85  80.434
 55.2196  6260.94  79.3017
 55.2616  6412.54  80.4737
 55.3036  6209.72  79.3495
 55.3456  6180.01  79.2952
 55.3876  6321.3  79.9391
 55.4296  6137.15  78.7566
 55.4716  6420.85  80.6489
 55.5136  6196.36  78.9122
 55.5556  6385.59  80.1933
 55.5976  6214.99  79.1627
 55.6396  6236.46  79.1877
 55.6816  6157.97  78.6245
 55.7236  6144.99  78.6009
 55.7656  6240.58  78.9487
 55.8076  6172.61  78.5264
 55.8496  6255  79.4592
 55.8916  6212.34  79.244
 55.9336  6338.51  79.9249
 55.9756  6168.12  78.7129
 56.0176  6029.58  77.9681
 56.0596  6108.33  78.4786
 56.1016  6069.56  78.2664
 56.1436  6105.17  78.7068
 56.1856  6114.42  78.5331
 56.2276  6332.74  79.9679
 56.2696  6078.03  78.3172
 56.3116  6252.93  79.8215
 56.3536  6076.99  78.3676
 56.3956  6128.94  78.6779
 56.4376  6046.79  78.206
 56.4796  6023.58  77.856
 56.5216  6127.61  78.8966
 56.5636  6084.45  78.2001
 56.6056  6194.31  79.1296
 56.6476  6059.58  77.8897
 56.6896  6315.95  79.9919
 56.7316  6145.07  78.7987
 56.7736  6124.31  78.6748
 56.8156  6096.35  78.5107
 56.8576  5874.84  77.01
 56.8996  6120.6  78.509
 56.9416  6023.41  78.2109
 56.9836  6162.9  78.6389
 57.0256  6060.38  78.2783
 57.0676  6128.64  78.8207
 57.1096  6027.55  77.9672
 57.1516  5990.79  77.7567
 57.1936  6093.07  78.1957
 57.2356  5954.28  77.6215
 57.2776  6135.14  78.7811
 57.3196  5897.5  77.5678
 57.3616  6244.95  79.2854
 57.4036  5993.48  77.7514
 57.4456  6065.32  78.192
 57.4876  6031.6  77.8498
 57.5296  5946.44  77.5235
 57.5716  5943.09  77.6053
 57.6136  5883.91  77.0536
 57.6556  5914.58  77.3704
 57.6976  6031.23  77.9681
 57.7396  5883.73  77.351
 57.7816  5850.26  77.5032
 57.8236  5979.43  78.1395
 57.8656  6021.74  78.0968
 57.9076  5891.71  77.2582
 57.9496  5879.33  77.5211
 57.9916  5983.57  77.7281
 58.0336  5955.45  77.8165
 58.0756  6060.72  78.0901
 58.1176  5965.38  77.5163
 58.1596  5830.57  77.2097
 58.2016  5782.24  76.1271
 58.2436  5798.66  76.6325
 58.2856  5692.75  75.8561
 58.3276  5672.51  76.0724
 58.3696  5733.63  76.2422
 58.4116  5724.72  76.0564
 58.4536  5763.94  76.2013
 58.4956  5641.94  75.569
 58.5376  5728.4  75.7279
 58.5796  5671.28  75.7628
 58.6216  5691.16  75.7181
 58.6636  5739.18  76.2428
 58.7056  5621.81  75.3174
 58.7476  5717.32  76.3882
 58.7896  5613.56  75.3502
 58.8316  5631.12  75.46
 58.8736  5785.95  76.5025
 58.9156  5631.81  75.5154
 58.9576  5772.35  76.7695
 58.9996  5730.42  75.7582
 59.0416  5737.74  76.1634
 59.0836  5704.79  75.8631
 59.1256  5552.1  75.5123
 59.1676  5678.92  76.6688
 59.2096  5536.83  75.0487
 59.2516  5804.1  76.428
 59.2936  5532.94  74.9354
 59.3356  5637.22  75.5201
 59.3776  5663.1  75.8569
 59.4196  5695.39  76.0112
 59.4616  5629.42  75.434
 59.5036  5560.49  75.0042
 59.5456  5834.04  76.5261
 59.5876  5674.69  75.659
 59.6296  5760.6  76.2971
 59.6716  5618.71  75.4075
 59.7136  5614.46  75.3677
 59.7556  5782  76.6175
 59.7976  5616.08  75.2615
 59.8396  5676.05  75.5598
 59.8816  5628.71  75.7708
 59.9236  5653.56  75.5929
 59.9656  5662.21  75.9026
 60.0076  5613.36  74.9554
 60.0496  5663.91  75.7801
 60.0916  5663.67  75.215
 60.1336  5649.57  76.1922
 60.1756  5669.49  77.4738
 60.1996  0.0000000E+00  0.0000000E+00