File: docs/examples/opeando_xrd/IS17_D/Data/IS17_D/17_Db_f00068.xye
# /beamlines/bl04/projects/cycle2025-II/20250340211-lsimonelli/DATA/IS17_D/17_Db_f00068.xye : mythproc.py merge -s 0.006 -l 0.5 -f /beamlines/bl04/inhouse/ff/FlatField/ff_20Nov2024rod8mm60s_17keV.raw -b True -c true -o xye /beamlines/bl04/projects/cycle2025-II/20250340211-lsimonelli/DATA/IS17_D/17_Db_00068.dat
# IsMon = [6789364, 6790026, 6793505]  IsPos = [-1.4999, -2.4884, -3.4988]
# Wave = 0.4962  CalPath /beamlines/bl04/projects/cycle2025-II/20250340211-lsimonelli/DATA/Align/Si_Pos1_25keV_f00001.cal
# Date = 2025-09-24_12:38:08 Dt = 4.8000  Bin = 0.0060  <imon> = 6790965 +/- 1816 (Min/Max) 6789364 / 6793505
# icurr 252.9199  mocoIn 1.7257E-05  mocoOut 0.8095  i15 7.11466e+06  imon 6.79096e+06  i7 6.6667  iEMpd_timer 4.8000  iEMpd_1 3.1866E-08  iEMpd_2 7.7960E-08  iEMpd_3 1.4975E-08  iEMpd_4 4.6679E-08  iEMhp_timer 4.8000  iEMhp_1 4.9414E-06  iEMhp_2 -2.4260E-08  iEMhp_3 -2.4635E-08  iEMhp_4 -2.2320E-08
#      9776
 1.5856  43564.8  214.349
 1.6276  50309  226.392
 1.6696  56041.9  238.1
 1.7116  63491.8  253.928
 1.7536  71462.4  268.248
 1.7956  75523.9  276.455
 1.8376  71624.8  269.65
 1.8796  61962.5  248.964
 1.9216  51173.7  227.15
 1.9636  43735.8  209.134
 2.0056  40594.9  200.704
 2.0476  37476  194.954
 2.0896  35929.1  189.768
 2.1316  35013.2  186.433
 2.1736  33002  182.435
 2.2156  34129.9  184.038
 2.2576  32625.6  180.583
 2.2996  31589.2  178.342
 2.3416  31815.7  177.552
 2.3836  30998.1  175.364
 2.4256  30092.7  173.347
 2.4676  29731.1  172.058
 2.5096  30230.8  173.555
 2.5516  34158.8  188.69
 2.5936  116396  341.064
 2.6356  30330.6  174.981
 2.6776  27971.2  166.945
 2.7196  27230.8  165.206
 2.7616  27171.9  164.816
 2.8036  26487.3  162.893
 2.8456  26450.6  163.418
 2.8876  25678.8  160.881
 2.9296  25319.2  159.867
 2.9716  25581.9  160.191
 3.0136  25061.3  158.623
 3.0556  25162.5  159.328
 3.0976  25164.6  158.239
 3.1396  24778.7  157.742
 3.1816  24508.2  156.829
 3.2236  24171.7  155.746
 3.2656  24253.4  155.052
 3.3076  23953.4  155.549
 3.3496  24161.6  155.15
 3.3916  24588.2  156.334
 3.4336  24921.8  157.986
 3.4756  25546.7  159.893
 3.5176  25802.5  160.461
 3.5596  25905.1  163.211
 3.6016  25924.5  160.89
 3.6436  25040.5  159.232
 3.6856  24705.9  156.469
 3.7276  23660.7  154.203
 3.7696  23434.4  153.646
 3.8116  23395.2  153.411
 3.8536  23309.1  153.06
 3.8956  23246.5  152.681
 3.9376  23675.9  154.344
 3.9796  23017.6  151.683
 4.0216  23045.5  150.819
 4.0636  23131  152.549
 4.1056  22988  151.739
 4.1476  23303.4  153.089
 4.1896  23471.6  153.496
 4.2316  23520  153.479
 4.2736  24096.1  155.153
 4.3156  23973.3  154.981
 4.3576  24906.3  157.875
 4.3996  25262.5  159.277
 4.4416  25943.5  160.994
 4.4836  26884.1  164.052
 4.5256  26929.1  164.799
 4.5676  26650.5  164.195
 4.6096  27397.5  165.131
 4.6516  27769.2  165.939
 4.6936  27735.5  166.666
 4.7356  28267.8  168.088
 4.7776  27802.6  166.523
 4.8196  27598.5  166.565
 4.8616  26764.8  163.527
 4.9036  26985.9  163.921
 4.9456  26924.1  164.395
 4.9876  26186.7  162.03
 5.0296  26255.3  162.081
 5.0716  25990.3  162.01
 5.1136  26294.5  162.674
 5.1556  26492.2  162.741
 5.1976  33176.8  182.106
 5.2396  27029.9  164.076
 5.2816  27022.4  164.527
 5.3236  27081.2  164.397
 5.3656  26447.2  163.389
 5.4076  26023.1  162.216
 5.4496  26240.8  162.386
 5.4916  26503.4  162.955
 5.5336  26279.5  162.27
 5.5756  26436.2  162.782
 5.6176  26686.8  162.982
 5.6596  26559.9  163.575
 5.7016  26894.6  163.86
 5.7436  27074.8  164.688
 5.7856  26912.4  164.261
 5.8276  27148.5  164.692
 5.8696  27266.7  165.222
 5.9116  27393.5  166.206
 5.9536  27589.3  166.549
 5.9956  27763.5  166.457
 6.0376  27798.7  167.182
 6.0796  27977.9  167.556
 6.1216  27868.5  167.422
 6.1636  28326.9  167.845
 6.2056  28286  168.404
 6.2476  28329.1  168.401
 6.2896  28758.3  169.359
 6.3316  28648.8  169.212
 6.3736  28688.4  169.22
 6.4156  28920.6  169.79
 6.4576  29005.7  169.654
 6.4996  28896.2  169.811
 6.5416  29011.9  170.281
 6.5836  29209.7  171.097
 6.6256  29243.1  170.753
 6.6676  29852.4  172.095
 6.7096  29611.6  172.255
 6.7516  29999.5  173.037
 6.7936  30783.6  174.679
 6.8356  31272.4  176.157
 6.8776  30879.1  175.853
 6.9196  30521.1  175.233
 6.9616  30960.2  175.929
 7.0036  31415.2  176.871
 7.0456  31450.5  176.271
 7.0876  31252.8  177.398
 7.1296  31321.9  176.728
 7.1716  31429.3  176.568
 7.2136  31048.2  175.271
 7.2556  31300.9  176.15
 7.2976  31365.4  176.815
 7.3396  31405.4  177.158
 7.3816  31467.8  177.547
 7.4236  31752.9  177.646
 7.4656  31984.8  177.749
 7.5076  31843.9  177.508
 7.5496  31562.7  177.251
 7.5916  31808.1  177.993
 7.6336  32646.6  180.209
 7.6756  32446.4  179.506
 7.7176  33085.3  181.595
 7.7596  32995.5  182.569
 7.8016  37289.6  196.459
 7.8436  33404  182.577
 7.8856  33329.2  181.98
 7.9276  33736.8  183.481
 7.9696  34071.5  184.699
 8.0116  35094.3  186.005
 8.0536  35513.7  187.366
 8.0956  37114.6  192.741
 8.1376  35873.8  188.967
 8.1796  36095.8  190.094
 8.2216  37131.7  191.534
 8.2636  37526.9  192.802
 8.3056  36740  191.527
 8.3476  38520.1  195.436
 8.3896  37610.7  193.198
 8.4316  37445.3  192.94
 8.4736  37501.7  192.555
 8.5156  36994.6  191.524
 8.5576  36749  191.856
 8.5996  36842.4  190.976
 8.6416  36679.2  191.812
 8.6836  36224  190.437
 8.7256  37303  192.705
 8.7676  38911.6  199.82
 8.8096  39952.5  199.663
 8.8516  37732  193.6
 8.8936  38494.6  195.503
 8.9356  37298.7  192.786
 8.9776  37001.5  192.087
 9.0196  37052.6  191.896
 9.0616  37232.1  191.849
 9.1036  38715.9  196.843
 9.1456  36204.2  189.669
 9.1876  36149.8  189.474
 9.2296  35893.4  188.24
 9.2716  35319.3  186.778
 9.3136  35726.6  187.845
 9.3556  35973.6  188.473
 9.3976  34841.4  186.004
 9.4396  35059.8  186.481
 9.4816  34762.1  185.552
 9.5236  34185.9  183.894
 9.5656  34099.6  184.019
 9.6076  33425.9  182.71
 9.6496  33779.8  183.573
 9.6916  33268.8  182.133
 9.7336  33807.1  183.386
 9.7756  33273.9  183.185
 9.8176  33186  182.475
 9.8596  33059.4  180.569
 9.9016  32689  179.543
 9.9436  32751.9  179.642
 9.9856  32698.3  179.764
 10.0276  31934.7  178.728
 10.0696  32014.7  177.984
 10.1116  31457  176.698
 10.1536  31263.7  176.31
 10.1956  30612.5  174.08
 10.2376  30678  173.771
 10.2796  30206.1  172.529
 10.3216  30139.5  172.632
 10.3636  30312.7  173.157
 10.4056  31913.5  178.093
 10.4476  32579.6  179.532
 10.4896  35109.8  185.763
 10.5316  32413.9  179.248
 10.5736  29586.2  171.676
 10.6156  29528.8  171.26
 10.6576  32838.9  179.067
 10.6996  29071.4  169.201
 10.7416  28385.4  167.405
 10.7836  28867.9  169.489
 10.8256  27585.1  166.111
 10.8676  27393.9  165.082
 10.9096  27495.6  165.412
 10.9516  27023  162.94
 10.9936  27788  165.432
 11.0356  27639.1  165.603
 11.0776  28273.7  166.815
 11.1196  27975.3  166.718
 11.1616  26438.8  161.743
 11.2036  27395.8  164.489
 11.2456  28614.2  168.854
 11.2876  26528.8  162.307
 11.3296  26310  161.547
 11.3716  26883  162.979
 11.4136  26750  163.472
 11.4556  26831.9  163.369
 11.4976  28071.6  166.069
 11.5396  27550.4  164.691
 11.5816  26363.9  161.545
 11.6236  25578.2  159.353
 11.6656  25978.6  159.749
 11.7076  25156  158.018
 11.7496  25216.2  162.214
 11.7916  25746.1  159.109
 11.8336  24761  156.917
 11.8756  25030  157.326
 11.9176  24610.3  155.677
 11.9596  24732.2  156.236
 12.0016  24311.4  155.664
 12.0436  24396.3  155.389
 12.0856  24199.9  155.263
 12.1276  24239.5  155.339
 12.1696  24094.7  153.988
 12.2116  24297.3  154.631
 12.2536  26057.3  160.983
 12.2956  24264.9  154.693
 12.3376  24456.3  155.516
 12.3796  24150.2  155.018
 12.4216  24171.7  154.28
 12.4636  24678.1  156.842
 12.5056  23929.5  153.71
 12.5476  23882.6  153.074
 12.5896  23707.9  153.144
 12.6316  23779.8  153.537
 12.6736  23475.9  153.039
 12.7156  23954.2  154.43
 12.7576  23773.6  154.099
 12.7996  24179.6  154.042
 12.8416  24336.3  155.61
 12.8836  24643.7  156.41
 12.9256  24611.3  155.332
 12.9676  24290.8  154.719
 13.0096  24529.9  156.609
 13.0516  24545.5  155.675
 13.0936  24407.7  155.652
 13.1356  24544.3  155.047
 13.1776  24421  155.678
 13.2196  24417.4  155.309
 13.2616  23916.5  154.017
 13.3036  24157.7  154.754
 13.3456  23962.3  154.471
 13.3876  24746.2  156.261
 13.4296  24200.2  154.687
 13.4716  24231.8  154.406
 13.5136  24415.4  155.124
 13.5556  24307.4  155.412
 13.5976  24374.6  155.8
 13.6396  24630.6  155.968
 13.6816  24566.8  156.237
 13.7236  24801.3  156.564
 13.7656  26717.2  162.955
 13.8076  27677.3  164.474
 13.8496  26908.4  162.88
 13.8916  24835.5  157.605
 13.9336  24078.4  154.464
 13.9756  24110.2  153.939
 14.0176  23706.7  153.319
 14.0596  24530.5  155.884
 14.1016  23606.7  153.358
 14.1436  23667.5  152.68
 14.1856  23149  151.3
 14.2276  23344  152.419
 14.2696  23305.3  152.141
 14.3116  22735.8  150.177
 14.3536  22289.3  148.863
 14.3956  22310.8  148.661
 14.4376  22478.7  149.001
 14.4796  22429.8  148.84
 14.5216  22004.7  148.211
 14.5636  22334.1  148.875
 14.6056  22054.8  147.506
 14.6476  21980.4  146.5
 14.6896  21540.4  145.57
 14.7316  21275.4  145.711
 14.7736  21007.2  143.933
 14.8156  20990.1  143.89
 14.8576  20943.4  143.589
 14.8996  20604.9  143.613
 14.9416  20283.3  142.514
 14.9836  20210.4  142.229
 15.0256  19533.9  138.752
 15.0676  19610.8  139.337
 15.1096  19392.5  138.298
 15.1516  19086.1  137.758
 15.1936  18876.9  136.433
 15.2356  18991.3  137.121
 15.2776  18916.8  136.444
 15.3196  18746.2  136.818
 15.3616  18306.2  134.958
 15.4036  18391.5  135.134
 15.4456  18810.3  136.322
 15.4876  18279.5  134.069
 15.5296  18171.1  133.961
 15.5716  17810.5  132.228
 15.6136  17863.2  132.751
 15.6556  19352  137.386
 15.6976  18158.6  133.383
 15.7396  17927.3  132.902
 15.7816  17851.3  132.141
 15.8236  17310.5  130.804
 15.8656  17374.2  130.847
 15.9076  17249.5  130.197
 15.9496  18462.3  137.568
 15.9916  17534.6  134.45
 16.0336  17650.1  131.772
 16.0756  17499.9  131.535
 16.1176  17403.8  131.258
 16.1596  17006.3  130.925
 16.2016  17019.5  129.725
 16.2436  17050.6  130.231
 16.2856  16996.6  129.537
 16.3276  16467.5  127.95
 16.3696  16797.4  129.039
 16.4116  16458.4  128.17
 16.4536  16610.5  128.577
 16.4956  17319.4  131.025
 16.5376  16873.5  129.514
 16.5796  16528.2  127.549
 16.6216  16573.6  127.978
 16.6636  16299.5  127.109
 16.7056  16494  127.727
 16.7476  16509  127.318
 16.7896  16497.3  128.017
 16.8316  16415.1  127.679
 16.8736  16814.7  129.482
 16.9156  16694.4  129.35
 16.9576  16164  128.081
 16.9996  16266.5  128.941
 17.0416  16352.1  127.682
 17.0836  16159.4  126.684
 17.1256  16004.6  126.087
 17.1676  16422.7  127.693
 17.2096  16189.8  126.666
 17.2516  16063.1  125.966
 17.2936  15692.2  124.848
 17.3356  15656.5  124.694
 17.3776  15462  124.103
 17.4196  15440.7  123.717
 17.4616  15678.1  124.569
 17.5036  16024  126.308
 17.5456  15177.1  123.564
 17.5876  15216.6  122.771
 17.6296  15251.1  122.74
 17.6716  15399.7  123.92
 17.7136  15985.5  126.386
 17.7556  15122.8  123.23
 17.7976  15275.5  123.577
 17.8396  14905.7  121.576
 17.8816  14851.9  121.919
 17.9236  14670.6  120.97
 17.9656  14761  121.862
 18.0076  15461.7  124.283
 18.0496  15821.3  124.837
 18.0916  18743.6  136.495
 18.1336  17045.5  130.268
 18.1756  15701.9  124.561
 18.2176  15847  125.358
 18.2596  14900.3  121.276
 18.3016  15261.4  123.01
 18.3436  15650.8  124.567
 18.3856  15039.5  122.255
 18.4276  14530.7  119.846
 18.4696  14929.9  121.568
 18.5116  14799.8  121.31
 18.5536  14548.1  120.64
 18.5956  14678.5  120.737
 18.6376  14578.6  120.736
 18.6796  14473.8  119.604
 18.7216  14503  120.22
 18.7636  14375.4  119.701
 18.8056  13979.5  117.961
 18.8476  13918.3  118.324
 18.8896  14064  118.285
 18.9316  14248.3  119.035
 18.9736  14014  117.752
 19.0156  14212.2  119.008
 19.0576  14443.5  118.792
 19.0996  14248.9  118.725
 19.1416  14171.9  118.792
 19.1836  14013.7  117.731
 19.2256  13668.4  116.494
 19.2676  13922.3  117.648
 19.3096  13805.1  117.405
 19.3516  13852  117.559
 19.3936  13851.9  117.458
 19.4356  14132.6  118.517
 19.4776  13851.6  117.424
 19.5196  13875.6  117.385
 19.5616  13852.2  117.542
 19.6036  13855.9  117.051
 19.6456  13995.6  117.755
 19.6876  14307.3  118.696
 19.7296  14245.4  118.914
 19.7716  13907.6  117.665
 19.8136  14398  119.921
 19.8556  14756.5  120.871
 19.8976  14749.7  120.9
 19.9396  14688.5  120.233
 19.9816  14579  120.037
 20.0236  14792  121.107
 20.0656  14098.9  118.231
 20.1076  13932.9  118.014
 20.1496  13728.9  117.139
 20.1916  13777.8  116.875
 20.2336  13702.5  116.46
 20.2756  13437.7  115.769
 20.3176  13366.6  115.214
 20.3596  13273.1  114.799
 20.4016  13496.6  115.558
 20.4436  13228.9  114.958
 20.4856  13366.4  115.357
 20.5276  13192.3  115.06
 20.5696  13385.4  115.352
 20.6116  13279.4  115.164
 20.6536  13200.7  114.336
 20.6956  13099.2  114.028
 20.7376  13069  114.11
 20.7796  13066.2  113.784
 20.8216  13328.7  114.638
 20.8636  13389.7  115.279
 20.9056  14016.2  117.876
 20.9476  13476.9  115.438
 20.9896  13870.5  116.964
 21.0316  13204.2  114.021
 21.0736  13382.1  115.317
 21.1156  13591.8  116.375
 21.1576  13350.4  115.38
 21.1996  13011.1  113.887
 21.2416  13053.9  113.901
 21.2836  13051.1  113.859
 21.3256  13017  113.798
 21.3676  13214.2  114.178
 21.4096  13256.1  114.688
 21.4516  12943.1  113.196
 21.4936  12654.6  112.199
 21.5356  12863.9  113.065
 21.5776  12964.6  113.332
 21.6196  13074.1  113.852
 21.6616  12932  113.312
 21.7036  12862.7  112.782
 21.7456  12671.2  112.021
 21.7876  12617.2  111.548
 21.8296  12475.5  110.758
 21.8716  12657.2  111.799
 21.9136  12937.5  113.231
 21.9556  12821.6  112.395
 21.9976  12636.8  111.606
 22.0396  12545.8  111.459
 22.0816  12541.1  111.959
 22.1236  13039.3  113.622
 22.1656  12624.5  111.936
 22.2076  12426.8  110.515
 22.2496  12299.8  109.983
 22.2916  12255  109.659
 22.3336  12516.2  111.55
 22.3756  12397.9  110.741
 22.4176  12264.6  110.003
 22.4596  12108.2  109.872
 22.5016  12529.3  111.272
 22.5436  12487.5  110.959
 22.5856  12645  111.907
 22.6276  12536.6  111.563
 22.6696  12406.3  111.332
 22.7116  12311.2  110.426
 22.7536  12148.5  109.665
 22.7956  12223.4  109.348
 22.8376  12173.1  109.629
 22.8796  12321.9  110.103
 22.9216  12422.8  111.092
 22.9636  12268.2  109.566
 23.0056  12299.3  109.836
 23.0476  12495.1  111.275
 23.0896  12679.4  111.469
 23.1316  12491.3  111.076
 23.1736  12469.7  113.916
 23.2156  12626.5  111.998
 23.2576  12609.7  112.067
 23.2996  12378.4  110.804
 23.3416  12573.6  112.212
 23.3836  12569.4  111.421
 23.4256  12729  112.24
 23.4676  12637.5  111.53
 23.5096  12574.5  111.907
 23.5516  12548.1  111.097
 23.5936  12662.7  112.516
 23.6356  12971  113.536
 23.6776  12478  111.562
 23.7196  12515.3  111.305
 23.7616  12603.6  111.613
 23.8036  12667  111.956
 23.8456  12351.4  110.1
 23.8876  12471.9  111.007
 23.9296  12338.1  110.887
 23.9716  12469.6  110.677
 24.0136  12581.3  112.086
 24.0556  12233.3  110.238
 24.0976  12240.9  110.089
 24.1396  12147.7  112.284
 24.1816  12327.3  111.535
 24.2236  12203.3  110.603
 24.2656  12127.6  109.726
 24.3076  12109.4  109.917
 24.3496  12209  110.244
 24.3916  12226.2  110.374
 24.4336  12283.9  110.845
 24.4756  12141.2  110.079
 24.5176  11895.3  108.587
 24.5596  11818.9  108.359
 24.6016  11885.9  108.957
 24.6436  12087.7  109.387
 24.6856  11870.4  108.146
 24.7276  11861  108.423
 24.7696  11895.4  108.687
 24.8116  11840.5  108.617
 24.8536  11671.5  107.846
 24.8956  11747.3  107.922
 24.9376  11694.1  107.608
 24.9796  11595.9  107.518
 25.0216  11596.1  107.634
 25.0636  11767.5  108.075
 25.1056  11275.3  106.483
 25.1476  11387.8  108.673
 25.1896  11301.1  106.746
 25.2316  11232.4  105.698
 25.2736  11354.6  105.92
 25.3156  11154.4  105.051
 25.3576  11078.8  105.132
 25.3996  11277.4  106.056
 25.4416  11153.3  105.449
 25.4836  11036.2  105.411
 25.5256  11162.7  105.376
 25.5676  11220.4  105.374
 25.6096  11043.5  105.113
 25.6516  11011.9  104.469
 25.6936  11163.6  105.508
 25.7356  11096.5  105.319
 25.7776  11154.8  105.194
 25.8196  11049.8  104.941
 25.8616  10958.2  104.43
 25.9036  11265.5  105.335
 25.9456  10986.2  104.623
 25.9876  10882.8  104.186
 26.0296  11039.7  104.455
 26.0716  11113.9  105.233
 26.1136  11284.3  105.957
 26.1556  11203.9  104.965
 26.1976  10845.5  104.197
 26.2396  10932  103.766
 26.2816  11034.3  104.862
 26.3236  10932.1  104.53
 26.3656  10993.3  104.548
 26.4076  10848.7  104.064
 26.4496  11168.3  105.174
 26.4916  11082.8  104.664
 26.5336  11467.7  106.814
 26.5756  11744.3  107.975
 26.6176  11161.4  105.287
 26.6596  10859.1  104.145
 26.7016  10785.5  103.555
 26.7436  10752.1  103.534
 26.7856  10505.2  102.325
 26.8276  10596.3  102.733
 26.8696  10619  102.715
 26.9116  10648.5  102.793
 26.9536  10562.8  102.429
 26.9956  10432.6  101.824
 27.0376  10545.8  102.602
 27.0796  10554.3  102.371
 27.1216  10733.8  103.292
 27.1636  10487.7  102.27
 27.2056  10422.7  101.84
 27.2476  10551  102.458
 27.2896  10391.8  101.797
 27.3316  10313.7  101.136
 27.3736  10244.7  101.063
 27.4156  10324.8  101.296
 27.4576  10477.1  102.256
 27.4996  10551.6  102.229
 27.5416  10432.4  101.945
 27.5836  10348.5  101.383
 27.6256  10219.8  100.933
 27.6676  10251.5  101.073
 27.7096  10344.9  101.417
 27.7516  10651.6  103.06
 27.7936  10833.9  104.092
 27.8356  10758.7  103.325
 27.8776  10664.7  102.942
 27.9196  10375.5  101.399
 27.9616  10359  101.512
 28.0036  10383.8  101.597
 28.0456  10233.3  100.994
 28.0876  10192.2  100.88
 28.1296  10065.9  100.087
 28.1716  10197.8  100.762
 28.2136  10129.9  100.394
 28.2556  10169.5  100.702
 28.2976  10113.5  100.421
 28.3396  10190.3  100.543
 28.3816  10105.5  100.14
 28.4236  10069  100.123
 28.4656  10094.7  100.294
 28.5076  9880.74  98.8612
 28.5496  9919.64  99.3001
 28.5916  9973.69  99.3934
 28.6336  9870.87  99.2246
 28.6756  9947.93  98.8087
 28.7176  9929.3  99.2686
 28.7596  9834.83  98.6845
 28.8016  9914.96  99.1315
 28.8436  9786.11  98.7238
 28.8856  9869.39  98.99
 28.9276  9841.7  99.0973
 28.9696  9817.56  98.6289
 29.0116  9724.35  98.3405
 29.0536  9603.22  97.9374
 29.0956  9801.86  98.6419
 29.1376  9756.25  98.3823
 29.1796  9698.85  98.1505
 29.2216  9667.57  97.8305
 29.2636  9804.67  98.5985
 29.3056  9634.77  97.5213
 29.3476  9591.08  97.8265
 29.3896  9687.13  98.4244
 29.4316  9665.24  97.642
 29.4736  9531.46  97.0209
 29.5156  9536.13  96.9713
 29.5576  9479.24  97.4227
 29.5996  9455.01  96.5597
 29.6416  9483.12  96.8257
 29.6836  9457.01  96.6127
 29.7256  9487.79  97.3348
 29.7676  9419.39  96.6407
 29.8096  9476.4  96.8827
 29.8516  9306.21  96.3343
 29.8936  9362.18  96.7175
 29.9356  9445.9  96.9056
 29.9776  9248.25  96.0296
 30.0196  9351.73  95.9742
 30.0616  9487.26  97.0348
 30.1036  9378.82  96.308
 30.1456  9278.62  96.0156
 30.1876  9320.61  96.2199
 30.2296  9211.75  95.5962
 30.2716  9438.21  96.4055
 30.3136  9366.01  96.8904
 30.3556  9589.78  98.0492
 30.3976  9421.27  98.6591
 30.4396  9812.23  98.0209
 30.4816  9636.91  96.7454
 30.5236  9667.62  96.883
 30.5656  9588  97.1578
 30.6076  9675.77  97.0121
 30.6496  9689.07  97.4887
 30.6916  9313.81  95.6752
 30.7336  9369.9  96.1105
 30.7756  9511.27  96.9044
 30.8176  9436.75  96.4635
 30.8596  9467.22  96.3648
 30.9016  9321.5  95.9744
 30.9436  9501.75  96.639
 30.9856  9546.75  96.9937
 31.0276  9445.38  96.0958
 31.0696  9405.12  96.4532
 31.1116  9460.04  96.7051
 31.1536  9446.5  96.5162
 31.1956  9454.25  96.6551
 31.2376  9132.7  95.0086
 31.2796  9281.56  95.3197
 31.3216  9443.83  96.074
 31.3636  9408.83  96.6049
 31.4056  9349.93  97.621
 31.4476  9433.61  95.9532
 31.4896  9479.52  96.6934
 31.5316  9384.85  95.6111
 31.5736  9949.79  98.2716
 31.6156  9823.78  97.6548
 31.6576  9718.6  97.2008
 31.6996  9559.45  96.077
 31.7416  9479.62  96.7724
 31.7836  9506.23  95.8957
 31.8256  9443.17  95.8487
 31.8676  9369.62  95.4607
 31.9096  9093.32  94.4125
 31.9516  9134.58  94.7963
 31.9936  9142.9  94.6632
 32.0356  9360.16  95.8166
 32.0776  9441.71  96.1326
 32.1196  9303.48  95.5397
 32.1616  9417.56  95.5506
 32.2036  9256.43  95.2562
 32.2456  9273.05  95.7173
 32.2876  9170.79  94.6942
 32.3296  9218.75  94.8875
 32.3716  8950.53  93.6228
 32.4136  9042.29  94.2949
 32.4556  9192.17  94.4632
 32.4976  9099.04  93.885
 32.5396  9015.68  93.5173
 32.5816  9037.02  93.7627
 32.6236  9096.02  94.1284
 32.6656  9105.84  94.7252
 32.7076  8976.65  93.7081
 32.7496  9016.25  93.5841
 32.7916  9017.31  93.5522
 32.8336  8937.93  93.2354
 32.8756  9125.62  93.9228
 32.9176  8980.38  93.6576
 32.9596  8996.3  93.8107
 33.0016  9133.5  94.3007
 33.0436  9072.54  94.1494
 33.0856  8939.9  93.5633
 33.1276  8810.48  92.6154
 33.1696  8853.57  92.6741
 33.2116  8929.19  93.3048
 33.2536  9106.1  94.2164
 33.2956  8920.92  93.3281
 33.3376  8833.83  92.6123
 33.3796  8940.74  93.392
 33.4216  8918.61  92.867
 33.4636  8934  93.1087
 33.5056  8699.79  92.1213
 33.5476  8838.48  92.8273
 33.5896  8951.41  93.2154
 33.6316  8860.44  93.0459
 33.6736  8710.42  92.5037
 33.7156  8733.05  92.6456
 33.7576  8729.76  92.2796
 33.7996  8881.82  92.8341
 33.8416  8637.79  91.7376
 33.8836  8702.87  91.8576
 33.9256  8886  92.8827
 33.9676  8804.81  92.3529
 34.0096  8757.91  92.4206
 34.0516  8687.6  91.6808
 34.0936  8639.19  91.7026
 34.1356  8759.39  92.0747
 34.1776  8606.98  91.2619
 34.2196  8754.45  92.2306
 34.2616  8609.09  91.6045
 34.3036  8613.79  91.8756
 34.3456  8572.92  91.4067
 34.3876  8625.56  91.659
 34.4296  8588.11  91.1534
 34.4716  8713.76  91.9677
 34.5136  8625.03  91.6849
 34.5556  8603.54  91.8275
 34.5976  8705.17  92.1843
 34.6396  8562.86  91.1382
 34.6816  8724.42  92.0996
 34.7236  8840.25  92.4834
 34.7656  8627.38  91.5737
 34.8076  8553.37  91.514
 34.8496  8505.89  91.1067
 34.8916  8611.43  91.5335
 34.9336  8620.35  91.5632
 34.9756  8644.89  91.6139
 35.0176  8588.17  91.8393
 35.0596  8675.17  92.1316
 35.1016  8685.48  91.9354
 35.1436  8768.35  92.0625
 35.1856  8637.27  91.4762
 35.2276  8538.91  91.1438
 35.2696  8530.7  91.2883
 35.3116  8447.46  90.9421
 35.3536  8490.76  90.8788
 35.3956  8377.52  89.9883
 35.4376  8541.67  91.4334
 35.4796  8597.5  91.772
 35.5216  8508.07  91.259
 35.5636  8248.02  90.59
 35.6056  8378.76  90.3254
 35.6476  8534.27  91.0636
 35.6896  8482.8  90.8733
 35.7316  8418.72  90.5073
 35.7736  8442.35  90.8215
 35.8156  8447.1  90.8493
 35.8576  8456.82  91.1448
 35.8996  8545.47  91.5957
 35.9416  8489.59  90.7991
 35.9836  8452.12  90.9432
 36.0256  8579.24  91.6308
 36.0676  8544.45  91.1974
 36.1096  8484.17  91.021
 36.1516  8520.57  91.1171
 36.1936  8437.36  90.5049
 36.2356  8471.59  91.3546
 36.2776  8342.87  90.1359
 36.3196  8341.66  89.797
 36.3616  8318.53  89.7958
 36.4036  8359.79  90.0916
 36.4456  8368.16  90.3452
 36.4876  8245.15  89.6194
 36.5296  8374.18  90.3516
 36.5716  8371.04  91.1158
 36.6136  8348.45  89.7704
 36.6556  8309.06  89.7573
 36.6976  8078.33  88.9976
 36.7396  8080.58  88.7473
 36.7816  8170.05  89.605
 36.8236  8154.3  89.444
 36.8656  8087.4  89.1401
 36.9076  8138.22  89.3052
 36.9496  8039.97  88.7496
 36.9916  8170.75  89.1016
 37.0336  8172.46  89.4218
 37.0756  8151.03  89.1011
 37.1176  8003.27  88.5513
 37.1596  8071.53  88.9387
 37.2016  8056.35  89.0791
 37.2436  8128.05  88.7954
 37.2856  8032.68  88.5244
 37.3276  8047.9  87.9669
 37.3696  7898.63  88.0173
 37.4116  8088.55  88.9721
 37.4536  7999.63  88.3522
 37.4956  7948.5  88.1117
 37.5376  8182.65  91.0035
 37.5796  8088.03  90.3992
 37.6216  7990.49  88.1294
 37.6636  8169.49  89.0025
 37.7056  8230.61  89.5237
 37.7476  8200.38  88.9032
 37.7896  8008.51  88.356
 37.8316  8047.08  88.7198
 37.8736  8075.06  88.4019
 37.9156  8132.76  88.7199
 37.9576  8161.57  88.7856
 37.9996  8094.98  88.1271
 38.0416  8112.05  89.0267
 38.0836  8168.72  89.2476
 38.1256  7999.45  88.2936
 38.1676  8065.42  88.7733
 38.2096  8334.04  89.8556
 38.2516  8041.94  88.4703
 38.2936  8274.37  89.5499
 38.3356  8028.79  88.1327
 38.3776  8092.8  88.7367
 38.4196  8044.04  88.3256
 38.4616  8055.95  88.635
 38.5036  8164.76  89.0794
 38.5456  7979.55  88.8912
 38.5876  7967.57  88.8511
 38.6296  8158.64  88.862
 38.6716  8002.09  87.8148
 38.7136  8015.7  87.8378
 38.7556  7962.42  88.0556
 38.7976  7853.78  87.3771
 38.8396  8034.72  88.8366
 38.8816  8002.05  88.4556
 38.9236  8052.88  88.5376
 38.9656  7995.85  88.1218
 39.0076  8120.35  88.2098
 39.0496  8125.29  88.797
 39.0916  8103.52  88.3207
 39.1336  8013.21  88.2354
 39.1756  7957.48  87.9837
 39.2176  7889.39  88.1459
 39.2596  7941.94  88.3681
 39.3016  8016.26  88.3593
 39.3436  8045.64  88.9301
 39.3856  8052.67  88.4183
 39.4276  8173.39  89.5927
 39.4696  8035.98  88.4545
 39.5116  8048.71  89.0388
 39.5536  8024.5  89.3222
 39.5956  7963.06  88.0839
 39.6376  7963.46  88.0826
 39.6796  7856.62  87.2466
 39.7216  7945.09  87.8258
 39.7636  7973.83  88.5309
 39.8056  7973.32  88.3374
 39.8476  7808.52  87.67
 39.8896  8046.43  88.619
 39.9316  7911.32  88.124
 39.9736  8031.78  88.361
 40.0156  7916.92  87.5623
 40.0576  7942.22  88.0484
 40.0996  8105.96  88.1362
 40.1416  8035.13  88.5426
 40.1836  8009.54  88.2912
 40.2256  7999.75  88.2661
 40.2676  7894.45  87.7943
 40.3096  7958.65  88.0768
 40.3516  7970.21  88.2564
 40.3936  7973.83  87.8353
 40.4356  7876.69  87.5033
 40.4776  8050.95  88.87
 40.5196  7944.08  88.4078
 40.5616  8127.42  89.0563
 40.6036  7913.95  88.1308
 40.6456  7946.98  87.9247
 40.6876  8063.82  88.5661
 40.7296  7948.6  88.0495
 40.7716  8008.98  88.5197
 40.8136  7922.44  87.9767
 40.8556  8051.93  88.8365
 40.8976  7972.09  88.3104
 40.9396  8021.08  88.9348
 40.9816  8217.37  89.2972
 41.0236  7920.91  87.4523
 41.0656  8035.12  88.6169
 41.1076  8041.81  88.4313
 41.1496  8026.57  88.2497
 41.1916  7929.72  88.0243
 41.2336  7991.47  88.3815
 41.2756  7925.68  87.6163
 41.3176  8027.62  88.7924
 41.3596  7978.76  88.259
 41.4016  7856.29  87.8306
 41.4436  8029.75  88.5822
 41.4856  7952.08  88.3178
 41.5276  7925.09  88.1859
 41.5696  7970.91  88.0685
 41.6116  8109.56  89.2198
 41.6536  7994.21  88.4435
 41.6956  8096.95  89.0756
 41.7376  7965.89  88.3745
 41.7796  7869.27  87.7176
 41.8216  7983.99  88.5972
 41.8636  7999.18  88.621
 41.9056  7804.42  87.3259
 41.9476  7900.86  88.0965
 41.9896  7976.94  88.1912
 42.0316  7987.71  88.3349
 42.0736  8122.77  89.1824
 42.1156  7917.97  87.8875
 42.1576  7965.51  88.2559
 42.1996  8009.89  88.6247
 42.2416  7890.83  87.5504
 42.2836  7904.54  87.7541
 42.3256  7906.01  87.8527
 42.3676  8039.94  88.4092
 42.4096  7982.36  88.0624
 42.4516  8044.27  88.4786
 42.4936  7888.09  87.6894
 42.5356  7813.15  87.4163
 42.5776  8031.48  88.5593
 42.6196  7908.77  87.9486
 42.6616  7756.96  87.2675
 42.7036  7944.62  87.6906
 42.7456  7996.27  88.3337
 42.7876  7920.28  87.9867
 42.8296  8032.82  88.463
 42.8716  7825.17  87.4844
 42.9136  7856.93  87.4431
 42.9556  7882.33  87.7242
 42.9976  7910.51  87.844
 43.0396  7861.51  87.3012
 43.0816  7776.72  87.2116
 43.1236  7870.08  87.7825
 43.1656  7860.24  87.5444
 43.2076  7802.53  87.341
 43.2496  7736.56  86.7915
 43.2916  7840.4  87.7323
 43.3336  7890.54  87.8396
 43.3756  7837  87.3041
 43.4176  7677.55  86.4964
 43.4596  7773.44  86.886
 43.5016  7748.1  87.1419
 43.5436  7824.03  87.4792
 43.5856  7728.05  86.9643
 43.6276  7748.08  86.9719
 43.6696  7702.86  86.9704
 43.7116  7904.08  87.5935
 43.7536  7822.28  87.6452
 43.7956  7753  88.469
 43.8376  7638.3  86.3354
 43.8796  7524.83  85.7675
 43.9216  7583.86  86.0215
 43.9636  7749.98  87.0626
 44.0056  7477.12  85.7517
 44.0476  7660.75  86.4251
 44.0896  7522.06  85.9838
 44.1316  7535.26  85.5844
 44.1736  7593.23  86.0332
 44.2156  7646.5  86.1927
 44.2576  7583.53  86.1632
 44.2996  7682.37  86.6944
 44.3416  7593.29  85.9469
 44.3836  7422.04  85.3016
 44.4256  7441.13  85.0502
 44.4676  7531  85.723
 44.5096  7539.54  85.9172
 44.5516  7545.61  85.9103
 44.5936  7424.2  85.175
 44.6356  7393.99  84.7418
 44.6776  7615.33  86.3236
 44.7196  7506.89  86.0079
 44.7616  7713.99  88.5334
 44.8036  7623.8  86.4145
 44.8456  7694.39  87.034
 44.8876  7657.98  86.6697
 44.9296  7712.54  86.4258
 44.9716  7664.14  86.5827
 45.0136  7739.45  86.9341
 45.0556  7699.99  86.7023
 45.0976  7647.32  86.5578
 45.1396  7602.26  86.0567
 45.1816  7655.68  86.3028
 45.2236  7677.58  86.3315
 45.2656  7505.36  85.8432
 45.3076  7626.27  86.3333
 45.3496  7494.69  85.883
 45.3916  7623.14  86.8887
 45.4336  7676.57  87.0424
 45.4756  7574.62  86.3025
 45.5176  7667.33  86.4508
 45.5596  7614.36  86.264
 45.6016  7622.83  86.7442
 45.6436  7609.61  85.8328
 45.6856  7520.05  85.9851
 45.7276  7524.77  87.34
 45.7696  7612.88  87.5269
 45.8116  7543.34  86.5553
 45.8536  7481.88  86.1061
 45.8956  7612.46  86.196
 45.9376  7534.79  85.2165
 45.9796  7521.2  85.8224
 46.0216  7533.07  86.2309
 46.0636  7596.38  85.7269
 46.1056  7663.55  86.1044
 46.1476  7536.43  85.9823
 46.1896  7615.92  86.5883
 46.2316  7597.55  86.3414
 46.2736  7557.55  86.4949
 46.3156  7510.53  85.793
 46.3576  7539.89  86.1824
 46.3996  7475.68  85.9718
 46.4416  7528.22  85.8479
 46.4836  7543.63  86.2927
 46.5256  7473.96  85.8314
 46.5676  7449.36  85.8106
 46.6096  7675.96  87.0221
 46.6516  7661.99  85.9803
 46.6936  7564.51  85.9343
 46.7356  7676.99  86.6774
 46.7776  7620.84  87.2116
 46.8196  7459.89  85.8796
 46.8616  7368.24  85.2927
 46.9036  7383.81  85.0392
 46.9456  7416.74  84.8629
 46.9876  7522.3  85.544
 47.0296  7490.4  86.0659
 47.0716  7326.19  84.9448
 47.1136  7452.39  85.3496
 47.1556  7346.36  84.6065
 47.1976  7528.58  85.7197
 47.2396  7423.09  85.5291
 47.2816  7329.5  84.6888
 47.3236  7391.64  85.4144
 47.3656  7533.25  86.1515
 47.4076  7408.24  85.241
 47.4496  7407.39  85.3351
 47.4916  7458.22  85.8158
 47.5336  7421.14  85.4172
 47.5756  7511.63  86.0581
 47.6176  7374.72  85.1722
 47.6596  7448.45  85.3067
 47.7016  7502.62  85.4161
 47.7436  7489.81  85.6864
 47.7856  7460.54  85.5642
 47.8276  7374.69  85.1114
 47.8696  7447.53  85.6162
 47.9116  7499.04  85.6219
 47.9536  7393.5  84.9552
 47.9956  7411.62  85.7819
 48.0376  7287.97  84.8333
 48.0796  7395.31  85.5777
 48.1216  7403.45  85.4521
 48.1636  7500.6  85.5764
 48.2056  7435.87  85.4745
 48.2476  7562.49  86.5181
 48.2896  7463.23  85.8496
 48.3316  7426  85.5751
 48.3736  7388.17  85.3819
 48.4156  7386.37  85.22
 48.4576  7403.79  85.6206
 48.4996  7522.63  85.7534
 48.5416  7546.59  86.2207
 48.5836  7447.7  85.3188
 48.6256  7420.16  85.3668
 48.6676  7324.82  85.3438
 48.7096  7401.92  85.0427
 48.7516  7480.9  85.6507
 48.7936  7313.18  84.7528
 48.8356  7352.84  85.0344
 48.8776  7364.3  85.6814
 48.9196  7609.57  86.4443
 48.9616  7395.2  85.6029
 49.0036  7459.09  86.3263
 49.0456  7421.67  86.1
 49.0876  7459.66  85.8381
 49.1296  7256.18  84.8269
 49.1716  7330.39  85.1297
 49.2136  7439.18  85.687
 49.2556  7435.7  85.6908
 49.2976  7420.64  85.6788
 49.3396  7298.94  85.0298
 49.3816  7499.65  85.6009
 49.4236  7455.92  85.7881
 49.4656  7285.39  84.8189
 49.5076  7436.32  85.4391
 49.5496  7343.41  84.9694
 49.5916  7415.09  85.2924
 49.6336  7367.3  85.2236
 49.6756  7435.5  85.8527
 49.7176  7420.07  85.7134
 49.7596  7369.64  85.1815
 49.8016  7401.11  85.2705
 49.8436  7301.92  85.0089
 49.8856  7330.42  85.186
 49.9276  7283.86  85.0163
 49.9696  7261.79  84.856
 50.0116  7411.92  85.8756
 50.0536  7275.42  85.0299
 50.0956  7294.62  85.2089
 50.1376  7329.72  85.1014
 50.1796  7201.48  84.6317
 50.2216  7310.24  85.2611
 50.2636  7344.34  85.0648
 50.3056  7194.64  84.3761
 50.3476  7352.39  85.3215
 50.3896  7183.53  84.3066
 50.4316  7308.3  84.8626
 50.4736  7250.72  84.7537
 50.5156  7282.08  84.9215
 50.5576  7315.76  84.8763
 50.5996  7286.52  84.995
 50.6416  7247.17  84.6809
 50.6836  7281.82  84.9512
 50.7256  7275.89  84.8355
 50.7676  7334.76  85.5149
 50.8096  7258.6  84.5867
 50.8516  7197.38  84.6637
 50.8936  7187.36  84.3713
 50.9356  7377.68  85.6001
 50.9776  7297.85  85.2932
 51.0196  7041.32  83.9092
 51.0616  7054.34  83.3039
 51.1036  7114.2  84.0134
 51.1456  7185.42  84.3494
 51.1876  7136.19  83.3834
 51.2296  7205.31  84.4377
 51.2716  6947.37  82.6134
 51.3136  7186.54  84.5
 51.3556  7161.76  83.9567
 51.3976  6930.67  82.7511
 51.4396  7017.09  83.5825
 51.4816  7126.25  84.0791
 51.5236  7096.01  83.9897
 51.5656  6973.05  82.8508
 51.6076  7037.14  83.3172
 51.6496  7060.17  83.6416
 51.6916  7025.83  83.8089
 51.7336  7036.18  83.9551
 51.7756  7088.76  83.9532
 51.8176  7027.17  83.7099
 51.8596  7059.25  83.9157
 51.9016  7087.01  83.6641
 51.9436  7065.86  85.0833
 51.9856  7091.76  85.6568
 52.0276  7111.74  84.2283
 52.0696  7222.38  84.953
 52.1116  7094.64  84.3181
 52.1536  7215.69  84.9209
 52.1956  7126.61  83.8332
 52.2376  7175.81  84.2942
 52.2796  7129.97  83.8529
 52.3216  7033.49  83.979
 52.3636  7107.74  83.9817
 52.4056  7089.11  83.7303
 52.4476  6928.41  83.1427
 52.4896  7061.67  83.9813
 52.5316  7162.52  84.6463
 52.5736  6919.35  82.9009
 52.6156  7217.51  85.0838
 52.6576  7010.91  83.2803
 52.6996  6867.76  83.4241
 52.7416  6925.39  83.6241
 52.7836  7010.35  84.0247
 52.8256  6988.94  83.0955
 52.8676  6934.55  83.3525
 52.9096  7159.32  84.7682
 52.9516  6949.09  83.9161
 52.9936  6957.78  84.3414
 53.0356  6977.83  83.4564
 53.0776  7075.68  84.3176
 53.1196  6984.89  83.8988
 53.1616  7021.15  84.166
 53.2036  6981.59  83.8931
 53.2456  6973.41  83.952
 53.2876  7017.84  83.9052
 53.3296  6899.32  83.5201
 53.3716  7201.34  85.0688
 53.4136  7013.92  84.1105
 53.4556  6999.85  84.0601
 53.4976  6909.8  83.348
 53.5396  6858.99  83.4492
 53.5816  7028.74  84.0916
 53.6236  6935.06  83.8973
 53.6656  6878.93  83.1528
 53.7076  7093.64  84.3798
 53.7496  6983.03  83.8643
 53.7916  6885.14  83.4228
 53.8336  6985.48  83.9203
 53.8756  6862.55  83.748
 53.9176  6856.53  83.0204
 53.9596  6759.93  83.2058
 54.0016  6678.07  82.0241
 54.0436  6629.39  81.9518
 54.0856  6888.47  82.9481
 54.1276  6670.45  81.8232
 54.1696  6614.42  81.6406
 54.2116  6829.77  82.7141
 54.2536  6702.79  81.7441
 54.2956  6704.23  81.7988
 54.3376  6696.08  82.2369
 54.3796  6649.15  81.847
 54.4216  6719.82  82.3522
 54.4636  6640.72  81.826
 54.5056  6789.84  82.542
 54.5476  6688.27  82.2728
 54.5896  6679.62  82.0516
 54.6316  6673.98  81.8517
 54.6736  6634.74  81.704
 54.7156  6674.94  81.9819
 54.7576  6595.02  81.4528
 54.7996  6628.34  81.8139
 54.8416  6708.94  82.3756
 54.8836  6574.81  81.6281
 54.9256  6641.96  81.8057
 54.9676  6501.05  80.7902
 55.0096  6580.03  81.3272
 55.0516  6491.47  80.9914
 55.0936  6599.21  81.3441
 55.1356  6484.43  80.6697
 55.1776  6654.01  81.9681
 55.2196  6751.64  82.3479
 55.2616  6742.7  82.5137
 55.3036  6461.82  80.9655
 55.3456  6471.72  81.1569
 55.3876  6523.84  81.1948
 55.4296  6366.97  80.2303
 55.4716  6514.97  81.1652
 55.5136  6467.73  80.6483
 55.5556  6660.89  81.9001
 55.5976  6524.24  81.1231
 55.6396  6627  81.7148
 55.6816  6428.17  80.3571
 55.7236  6373.09  80.0482
 55.7656  6543.82  80.8454
 55.8076  6465.06  80.3616
 55.8496  6383.81  80.1496
 55.8916  6365.85  80.2751
 55.9336  6609.11  81.5872
 55.9756  6443.42  80.4499
 56.0176  6392.11  80.2657
 56.0596  6427.47  80.5003
 56.1016  6285.76  79.6273
 56.1436  6426.44  80.7661
 56.1856  6321.34  79.8499
 56.2276  6563.37  81.4223
 56.2696  6479.16  80.8727
 56.3116  6555.8  81.7186
 56.3536  6410.61  80.4772
 56.3956  6444.08  80.6754
 56.4376  6464.03  80.8606
 56.4796  6312.87  79.7064
 56.5216  6422.03  80.7831
 56.5636  6304.38  79.5993
 56.6056  6461.1  80.8342
 56.6476  6397.95  80.0502
 56.6896  6575.91  81.6263
 56.7316  6343.2  80.0775
 56.7736  6381.6  80.3145
 56.8156  6361.79  80.2022
 56.8576  6228.92  79.3027
 56.8996  6419.65  80.3923
 56.9416  6227.45  79.5172
 56.9836  6419.42  80.2336
 57.0256  6272.4  79.6327
 57.0676  6432.89  80.7754
 57.1096  6376.88  80.2002
 57.1516  6221  79.271
 57.1936  6337.62  79.7709
 57.2356  6201.84  79.2346
 57.2776  6352.86  80.16
 57.3196  6371.82  80.6343
 57.3616  6341.26  79.9019
 57.4036  6288.99  79.6615
 57.4456  6437.78  80.5754
 57.4876  6374.22  80.0348
 57.5296  6327.85  80.0794
 57.5716  6253.22  79.6089
 57.6136  6204.55  79.1327
 57.6556  6168.6  79.0237
 57.6976  6354.37  80.0418
 57.7396  6202  79.4388
 57.7816  6199.37  79.77
 57.8236  6195.54  79.5476
 57.8656  6250.14  79.5573
 57.9076  6257.97  79.6139
 57.9496  6216.85  79.7205
 57.9916  6229.06  79.3084
 58.0336  6236.82  79.6375
 58.0756  6260.32  79.436
 58.1176  6122.98  78.5392
 58.1596  6120.87  79.1117
 58.2016  6055.64  77.9049
 58.2436  6052.53  78.2963
 58.2856  5979.15  77.7435
 58.3276  5909.59  77.6568
 58.3696  5964.05  77.771
 58.4116  5974.08  77.7015
 58.4536  6003.19  77.7761
 58.4956  5943.89  77.5673
 58.5376  6045.39  77.8013
 58.5796  6015.02  78.0256
 58.6216  5976.07  77.594
 58.6636  5958.17  77.6845
 58.7056  5936.31  77.4024
 58.7476  5974.24  78.0877
 58.7896  6012.01  77.9843
 58.8316  6028.98  78.091
 58.8736  6034.07  78.1317
 58.9156  5931.9  77.5147
 58.9576  5983.57  78.166
 58.9996  6036.18  77.7647
 59.0416  5945.9  77.5362
 59.0836  5933.19  77.3731
 59.1256  5764.69  76.9507
 59.1676  5962.2  78.5694
 59.2096  5788.1  76.7242
 59.2516  5951.77  77.3855
 59.2936  5931.54  77.579
 59.3356  6023.21  78.0541
 59.3776  6014.96  78.1692
 59.4196  5851.74  77.0388
 59.4616  5824.93  76.7242
 59.5036  5979.64  77.7716
 59.5456  6007.97  77.6498
 59.5876  5995.44  77.7591
 59.6296  5872.06  77.0231
 59.6716  6111.25  78.6344
 59.7136  5929.33  77.4436
 59.7556  5903.76  77.4113
 59.7976  5893.29  77.088
 59.8396  5997.72  77.6627
 59.8816  5991.94  78.1685
 59.9236  5995.43  77.8362
 59.9656  5811.28  76.884
 60.0076  5892.71  76.7892
 60.0496  6041.69  78.2578
 60.0916  5966.59  77.1916
 60.1336  5993.6  78.4691
 60.1756  5873.09  78.8438
 60.1996  0.0000000E+00  0.0000000E+00