File: docs/examples/opeando_xrd/IS17_D/Data/IS17_D/17_Da_f00141.xye
# /beamlines/bl04/projects/cycle2025-II/20250340211-lsimonelli/DATA/IS17_D/17_Da_f00141.xye : mythproc.py merge -s 0.006 -l 0.5 -f /beamlines/bl04/inhouse/ff/FlatField/ff_20Nov2024rod8mm60s_17keV.raw -b True -c true -o xye /beamlines/bl04/projects/cycle2025-II/20250340211-lsimonelli/DATA/IS17_D/17_Da_00141.dat
# IsMon = [6751043, 6752466, 6750060]  IsPos = [-1.4999, -2.4883, -3.4988]
# Wave = 0.4962  CalPath /beamlines/bl04/projects/cycle2025-II/20250340211-lsimonelli/DATA/Align/Si_Pos1_25keV_f00001.cal
# Date = 2025-09-25_08:52:38 Dt = 4.8000  Bin = 0.0060  <imon> = 6751190 +/- 988 (Min/Max) 6750060 / 6752466
# icurr 249.5410  mocoIn 1.7022E-05  mocoOut 0.7987  i15 7.07043e+06  imon 6.75119e+06  i7 7.3333  iEMpd_timer 4.8000  iEMpd_1 3.4526E-08  iEMpd_2 7.9383E-08  iEMpd_3 1.8858E-08  iEMpd_4 4.8515E-08  iEMhp_timer 4.8000  iEMhp_1 4.8746E-06  iEMhp_2 -2.6877E-08  iEMhp_3 -2.3678E-08  iEMhp_4 -2.2471E-08
#      9776
 1.5856  40522.4  206.707
 1.6276  47323.3  219.547
 1.6696  53823.9  233.316
 1.7116  61996.8  250.894
 1.7536  71412.3  268.125
 1.7956  75782.4  276.898
 1.8376  72277.5  270.847
 1.8796  60861.3  246.713
 1.9216  49099.3  222.475
 1.9636  41371  203.38
 2.0056  37353.5  192.504
 2.0476  34489.4  187.004
 2.0896  33077.2  182.062
 2.1316  32286.1  179.007
 2.1736  30272.3  174.709
 2.2156  30820.6  174.869
 2.2576  29833.5  172.664
 2.2996  28811.7  170.303
 2.3416  29231.8  170.171
 2.3836  28324.7  167.613
 2.4256  27851.5  166.749
 2.4676  27234.5  164.658
 2.5096  27184.5  164.561
 2.5516  28610.8  172.75
 2.5936  55709.3  236.055
 2.6356  26705.9  164.194
 2.6776  25733.9  160.085
 2.7196  25493.1  159.47
 2.7616  25261.8  158.9
 2.8036  24930.9  158.023
 2.8456  25107.8  159.194
 2.8876  24618.1  157.51
 2.9296  24144.3  156.112
 2.9716  24005.3  155.162
 3.0136  23574.3  153.828
 3.0556  23579.3  154.234
 3.0976  23576.1  153.174
 3.1396  23432.8  153.415
 3.1816  23148.2  152.132
 3.2236  23074.1  152.165
 3.2656  23236.2  151.749
 3.3076  22840.4  151.883
 3.3496  23229.6  152.119
 3.3916  23562.1  153.035
 3.4336  23841.5  154.509
 3.4756  24372.9  156.153
 3.5176  25219.1  158.633
 3.5596  25046.1  160.498
 3.6016  25230.2  158.731
 3.6436  24451.4  157.349
 3.6856  24046.5  154.353
 3.7276  23225.6  152.775
 3.7696  22989.2  152.199
 3.8116  22535.1  150.564
 3.8536  22577.5  150.649
 3.8956  22443.6  150.027
 3.9376  22807.6  151.482
 3.9796  22566.3  150.199
 4.0216  22595.7  149.338
 4.0636  22366.5  150.033
 4.1056  22510.7  150.159
 4.1476  22516.6  150.494
 4.1896  22836.2  151.42
 4.2316  23030  151.891
 4.2736  23467.5  153.115
 4.3156  23708.3  154.129
 4.3576  24441.2  156.422
 4.3996  24767.8  157.711
 4.4416  25272.1  158.9
 4.4836  25969.1  161.223
 4.5256  26082.7  162.188
 4.5676  26039.3  162.306
 4.6096  26723.3  163.084
 4.6516  27118  163.997
 4.6936  27175.5  164.981
 4.7356  27510.5  165.821
 4.7776  27334.3  165.12
 4.8196  27125.8  165.134
 4.8616  26544.1  162.843
 4.9036  26334.3  161.941
 4.9456  26272.9  162.403
 4.9876  25850.5  160.995
 5.0296  25706.1  160.354
 5.0716  25834.3  161.538
 5.1136  25980.4  161.701
 5.1556  26348.1  162.304
 5.1976  28402.2  168.501
 5.2396  26874.6  163.613
 5.2816  26729.7  163.63
 5.3236  26843.1  163.681
 5.3656  26513.3  163.593
 5.4076  26015.1  162.197
 5.4496  26366.9  162.777
 5.4916  26282.3  162.275
 5.5336  26557.8  163.133
 5.5756  26281.6  162.307
 5.6176  26540.4  162.544
 5.6596  26607.9  163.72
 5.7016  27076.4  164.418
 5.7436  27080.1  164.698
 5.7856  26963.3  164.411
 5.8276  27523.5  165.828
 5.8696  27649.1  166.375
 5.9116  27326  165.701
 5.9536  27715.6  166.932
 5.9956  28046.7  167.296
 6.0376  28111  168.123
 6.0796  28325.4  168.594
 6.1216  28284.8  168.727
 6.1636  28621.2  168.731
 6.2056  28499.5  169.04
 6.2476  28479.3  168.857
 6.2896  28859  169.659
 6.3316  28753.3  169.521
 6.3736  28753.4  169.415
 6.4156  28922.8  169.808
 6.4576  29040.2  169.762
 6.4996  29240.2  170.829
 6.5416  29169.9  170.758
 6.5836  29438.2  171.775
 6.6256  29478.7  171.449
 6.6676  29652.8  171.527
 6.7096  29604.6  172.235
 6.7516  30005.6  173.053
 6.7936  30494.5  173.89
 6.8356  30873.7  175.041
 6.8776  30915  175.964
 6.9196  30610.3  175.494
 6.9616  31383.5  177.135
 7.0036  31758.2  177.844
 7.0456  31705  176.99
 7.0876  31537  178.204
 7.1296  31554.2  177.393
 7.1716  31517.2  176.828
 7.2136  31457.2  176.443
 7.2556  31576.7  176.937
 7.2976  31521.9  177.281
 7.3396  31561.5  177.601
 7.3816  31450.7  177.507
 7.4236  31778.5  177.722
 7.4656  31855.2  177.422
 7.5076  32264.7  178.693
 7.5496  32126.2  178.852
 7.5916  32159.1  178.972
 7.6336  32684.3  180.321
 7.6756  32598.6  179.932
 7.7176  33048.3  181.482
 7.7596  33092.9  182.855
 7.8016  34544.4  189.04
 7.8436  33999.1  184.207
 7.8856  34372.3  184.828
 7.9276  34736.5  186.203
 7.9696  34785.4  186.637
 8.0116  35877.9  188.079
 8.0536  36240.1  189.285
 8.0956  36873.7  192.114
 8.1376  36483.8  190.577
 8.1796  36765.5  191.853
 8.2216  37662.6  192.912
 8.2636  37854.4  193.673
 8.3056  37919.4  194.603
 8.3476  38733.4  195.995
 8.3896  38330.7  195.055
 8.4316  38304.6  195.151
 8.4736  38411.8  194.885
 8.5156  37948.4  193.981
 8.5576  37450.2  194.313
 8.5996  37750.3  193.319
 8.6416  37285.1  193.384
 8.6836  37613.9  194.077
 8.7256  37971.1  194.423
 8.7676  38645.9  199.112
 8.8096  38193.8  195.214
 8.8516  37297.4  192.524
 8.8936  37464.6  192.833
 8.9356  36482.4  190.643
 8.9776  37080.9  192.296
 9.0196  36613.3  190.75
 9.0616  36877.8  190.898
 9.1036  37037.2  192.534
 9.1456  36682.6  190.957
 9.1876  36207.8  189.664
 9.2296  36678.3  190.296
 9.2716  35871.5  188.249
 9.3136  35960.5  188.468
 9.3556  36160.5  188.971
 9.3976  34699.9  185.642
 9.4396  35160.4  186.764
 9.4816  34806  185.682
 9.5236  34810.5  185.605
 9.5656  34473.1  185.031
 9.6076  34457.9  185.53
 9.6496  34118.7  184.53
 9.6916  34055.9  184.338
 9.7336  34206.7  184.516
 9.7756  34401.1  186.307
 9.8176  33373.9  182.987
 9.8596  33351.4  181.366
 9.9016  32857.3  180.012
 9.9436  32737.5  179.595
 9.9856  32463  179.067
 10.0276  32031.3  178.952
 10.0696  32296.3  178.753
 10.1116  31601.2  177.082
 10.1536  31086.4  175.803
 10.1956  30881.6  174.823
 10.2376  30448.5  173.102
 10.2796  30617  173.701
 10.3216  30198.6  172.779
 10.3636  30320.2  173.156
 10.4056  30924.2  175.278
 10.4476  31151.3  175.538
 10.4896  33526.9  181.675
 10.5316  31240  175.964
 10.5736  29501.4  171.409
 10.6156  29104.2  170.018
 10.6576  32121.2  177.092
 10.6996  28954.9  168.807
 10.7416  28672.6  168.23
 10.7836  29265.4  170.663
 10.8256  28128.3  167.752
 10.8676  28232.1  167.588
 10.9096  28064.2  167.136
 10.9516  27699.9  164.968
 10.9936  28107.2  166.381
 11.0356  27950.6  166.557
 11.0776  28305.8  166.908
 11.1196  27969.8  166.685
 11.1616  26930  163.235
 11.2036  27555.8  164.975
 11.2456  27959.9  166.904
 11.2876  26910.8  163.471
 11.3296  26801  163.042
 11.3716  27233.1  164.041
 11.4136  26904.3  163.951
 11.4556  27354.9  164.979
 11.4976  28235.9  166.556
 11.5396  27879.1  165.667
 11.5816  26901  163.198
 11.6236  26239.7  161.382
 11.6656  26263.8  160.622
 11.7076  25715.5  159.781
 11.7496  25739  163.802
 11.7916  25846.2  159.44
 11.8336  25363.7  158.84
 11.8756  25377.7  158.408
 11.9176  25060.8  157.066
 11.9596  24722.4  156.199
 12.0016  24802.8  156.96
 12.0436  24663.4  156.221
 12.0856  24565.3  156.445
 12.1276  24641.3  156.596
 12.1696  24550.7  155.446
 12.2116  24845.9  156.369
 12.2536  25221.4  158.396
 12.2956  24685.4  156.033
 12.3376  24262.1  154.898
 12.3796  24564.4  156.316
 12.4216  24484.4  155.286
 12.4636  24459.2  156.124
 12.5056  24327.7  154.97
 12.5476  24411.8  154.769
 12.5896  24314.6  155.094
 12.6316  23854.3  153.777
 12.6736  23821.9  154.327
 12.7156  23944.3  154.417
 12.7576  24179.6  155.413
 12.7996  24331.4  154.539
 12.8416  24122.4  154.93
 12.8836  24594.5  156.18
 12.9256  24756.5  155.781
 12.9676  24830  156.446
 13.0096  24621.7  156.895
 13.0516  24660.4  156.047
 13.0936  24819.8  156.956
 13.1356  24867.6  156.087
 13.1776  24732.1  156.656
 13.2196  24887  156.796
 13.2616  24783.3  156.784
 13.3036  24671.8  156.396
 13.3456  24556.1  156.389
 13.3876  24645  155.962
 13.4296  24735  156.398
 13.4716  24696.7  155.88
 13.5136  24623.9  155.81
 13.5556  25043.8  157.745
 13.5976  24804.5  157.142
 13.6396  25023.9  157.2
 13.6816  24761.1  156.867
 13.7236  25361.2  158.399
 13.7656  24558.3  156.404
 13.8076  25060.2  156.765
 13.8496  24575.4  155.845
 13.8916  24520.2  156.673
 13.9336  24409.8  155.549
 13.9756  24244.1  154.371
 14.0176  24149.6  154.749
 14.0596  24338.7  155.32
 14.1016  23991.5  154.605
 14.1436  23588.3  152.43
 14.1856  23406.6  152.136
 14.2276  23239.5  152.075
 14.2696  23617.4  153.151
 14.3116  23164.9  151.584
 14.3536  22642.8  150.037
 14.3956  22822.5  150.361
 14.4376  22816  150.115
 14.4796  22744.1  149.872
 14.5216  22227.3  148.959
 14.5636  22390.5  149.058
 14.6056  22415.9  148.727
 14.6476  22225.5  147.322
 14.6896  21926.2  146.867
 14.7316  21602.7  146.802
 14.7736  21576.2  145.865
 14.8156  21303.7  144.974
 14.8576  21263.7  144.691
 14.8996  21033.1  145.116
 14.9416  20569.2  143.502
 14.9836  20685  143.867
 15.0256  20419.2  141.867
 15.0676  20451.1  142.436
 15.1096  20258.9  141.364
 15.1516  19818.6  140.371
 15.1936  19783.2  139.678
 15.2356  19805.6  139.909
 15.2776  19670.1  139.142
 15.3196  19364.5  139.062
 15.3616  19258.5  138.44
 15.4036  19174.4  137.992
 15.4456  19382.6  138.387
 15.4876  18974.3  136.601
 15.5296  18889.6  136.576
 15.5716  18612.6  135.174
 15.6136  18666.2  135.691
 15.6556  19048.2  136.307
 15.6976  18643  135.143
 15.7396  18448.3  134.838
 15.7816  18467.3  134.405
 15.8236  18166  134.017
 15.8656  18110.9  133.597
 15.9076  17674.2  131.805
 15.9496  17932.6  135.561
 15.9916  17623.9  134.845
 16.0336  17334.1  130.63
 16.0756  17611.6  131.986
 16.1176  17345.3  131.055
 16.1596  17002.9  130.931
 16.2016  17147.8  130.228
 16.2436  16755.5  129.108
 16.2856  16827.2  128.932
 16.3276  16646.1  128.654
 16.3696  16763.3  128.925
 16.4116  16528.9  128.482
 16.4536  16961.6  129.941
 16.4956  16817.6  129.119
 16.5376  16735.2  128.98
 16.5796  16632.2  127.946
 16.6216  16579  128.053
 16.6636  16548.5  128.09
 16.7056  16285.7  126.937
 16.7476  16676.3  127.966
 16.7896  16468.7  127.926
 16.8316  16478.6  127.93
 16.8736  16500  128.272
 16.9156  16576.3  128.906
 16.9576  16299.9  128.623
 16.9996  16477.6  129.819
 17.0416  16322.2  127.543
 17.0836  16190.9  126.785
 17.1256  16075.7  126.345
 17.1676  16162.9  126.684
 17.2096  16070.4  126.198
 17.2516  15933  125.439
 17.2936  15749.4  125.045
 17.3356  15474.9  123.954
 17.3776  15745.6  125.22
 17.4196  15660.9  124.576
 17.4616  15571.7  124.133
 17.5036  15463.8  124.071
 17.5456  15124.5  123.342
 17.5876  15178.3  122.611
 17.6296  15380.8  123.246
 17.6716  15209.8  123.133
 17.7136  15402.6  124.053
 17.7556  15007.1  122.737
 17.7976  15146.6  123.053
 17.8396  14988.2  121.901
 17.8816  15022  122.581
 17.9236  14857.4  121.723
 17.9656  15221.2  123.757
 18.0076  15279.2  123.567
 18.0496  15305.9  122.793
 18.0916  16646.6  128.606
 18.1336  15951  126.013
 18.1756  15396.2  123.326
 18.2176  15440.6  123.732
 18.2596  14909.1  121.315
 18.3016  15222.5  122.847
 18.3436  15310.1  123.201
 18.3856  14928.9  121.786
 18.4276  14843.1  121.12
 18.4696  14833  121.181
 18.5116  14920.4  121.825
 18.5536  14881.3  122.026
 18.5956  14709.8  120.869
 18.6376  14832  121.78
 18.6796  14604.5  120.159
 18.7216  14830.7  121.578
 18.7636  14533.3  120.347
 18.8056  14459.4  119.983
 18.8476  14330  120.076
 18.8896  14302.9  119.289
 18.9316  14620.4  120.599
 18.9736  14261.7  118.802
 19.0156  14352.8  119.581
 19.0576  14481.4  118.975
 19.0996  14529.3  120.025
 19.1416  14253.4  119.141
 19.1836  14346.8  119.131
 19.2256  14182.5  118.657
 19.2676  14233.7  118.966
 19.3096  14412.4  119.965
 19.3516  14227.1  119.141
 19.3936  14221.5  119.018
 19.4356  14207.1  118.827
 19.4776  14286  119.259
 19.5196  14205.3  118.768
 19.5616  14163.9  118.857
 19.6036  14188.3  118.449
 19.6456  14322.4  119.129
 19.6876  14464.8  119.364
 19.7296  14162.7  118.566
 19.7716  14181.4  118.81
 19.8136  14266.1  119.375
 19.8556  14695.8  120.626
 19.8976  14616.9  120.365
 19.9396  14733.8  120.419
 19.9816  14839.5  121.168
 20.0236  15022.3  122.06
 20.0656  14590.9  120.292
 20.1076  14108.1  118.746
 20.1496  14159.8  118.972
 20.1916  14010.4  117.851
 20.2336  13956.1  117.557
 20.2756  13710.2  116.948
 20.3176  13567.4  116.083
 20.3596  13668.7  116.495
 20.4016  13662  116.27
 20.4436  13640.9  116.732
 20.4856  13478.2  115.833
 20.5276  13445.6  116.15
 20.5696  13539.2  116.011
 20.6116  13535.9  116.267
 20.6536  13552.3  115.854
 20.6956  13228.8  114.584
 20.7376  13424.9  115.66
 20.7796  13333.5  114.948
 20.8216  13382.4  114.868
 20.8636  13376.9  115.219
 20.9056  13754.7  116.784
 20.9476  13200.7  114.24
 20.9896  13718.2  116.325
 21.0316  13477.8  115.199
 21.0736  13262  114.793
 21.1156  13463.8  115.827
 21.1576  13329.1  115.294
 21.1996  13387.3  115.526
 21.2416  13092.9  114.078
 21.2836  13235.6  114.665
 21.3256  13041.5  113.903
 21.3676  13211.2  114.189
 21.4096  13193.8  114.425
 21.4516  13091  113.859
 21.4936  12911.8  113.318
 21.5356  13157.9  114.349
 21.5776  13190.7  114.32
 21.6196  13033.2  113.675
 21.6616  13023.6  113.721
 21.7036  13152  114.057
 21.7456  13027.4  113.586
 21.7876  12906.6  112.811
 21.8296  12857.1  112.451
 21.8716  12893.5  112.84
 21.9136  13249.9  114.592
 21.9556  13039.8  113.354
 21.9976  12830.9  112.452
 22.0396  12895.9  112.995
 22.0816  12760.1  112.947
 22.1236  13023.9  113.55
 22.1656  12990.1  113.525
 22.2076  12771.5  112.048
 22.2496  12979.3  112.978
 22.2916  12984.8  112.881
 22.3336  12938.8  113.415
 22.3756  12871.5  112.843
 22.4176  12738.5  112.114
 22.4596  12617.5  112.172
 22.5016  12827.6  112.585
 22.5436  12921.6  112.883
 22.5856  13033.7  113.62
 22.6276  12570.1  111.753
 22.6696  12752.9  112.876
 22.7116  12812.6  112.65
 22.7536  12962.7  113.286
 22.7956  12870.1  112.203
 22.8376  12894  112.843
 22.8796  12675.2  111.676
 22.9216  12946.5  113.423
 22.9636  12783.5  111.848
 23.0056  12745.1  111.812
 23.0476  12915.1  113.132
 23.0896  13206.3  113.77
 23.1316  13035.3  113.469
 23.1736  12568.4  114.164
 23.2156  12758.8  112.593
 23.2576  12722.9  112.555
 23.2996  12812  112.751
 23.3416  12553.9  112.109
 23.3836  12521  111.215
 23.4256  12579.6  111.578
 23.4676  12653.3  111.612
 23.5096  12619.1  112.137
 23.5516  12648.7  111.545
 23.5936  12691.7  112.645
 23.6356  12989.9  113.61
 23.6776  12739.9  112.738
 23.7196  12573  111.572
 23.7616  12786.3  112.434
 23.8036  12691.2  112.052
 23.8456  12680.5  111.576
 23.8876  12304.8  110.259
 23.9296  12394  111.145
 23.9716  12540.8  110.994
 24.0136  12464.4  111.55
 24.0556  12461  111.276
 24.0976  12150.8  109.693
 24.1396  12271.9  112.895
 24.1816  12251.6  111.211
 24.2236  12093.7  110.098
 24.2656  12130.1  109.736
 24.3076  12117.2  109.927
 24.3496  12281.9  110.562
 24.3916  12040.3  109.519
 24.4336  12058.1  109.811
 24.4756  11983.4  109.34
 24.5176  11853.9  108.395
 24.5596  11636.8  107.522
 24.6016  11698.7  108.096
 24.6436  11871  108.367
 24.6856  11867.7  108.122
 24.7276  11800  108.13
 24.7696  11721.1  107.882
 24.8116  11640.5  107.688
 24.8536  11573.2  107.373
 24.8956  11524.9  106.888
 24.9376  11433.2  106.403
 24.9796  11355.2  106.39
 25.0216  11210.2  105.819
 25.0636  11528.5  106.959
 25.1056  11205.9  106.159
 25.1476  11580.8  109.623
 25.1896  11496.2  107.671
 25.2316  11428.5  106.619
 25.2736  11400.8  106.139
 25.3156  11294.7  105.727
 25.3576  11185.5  105.632
 25.3996  11293.3  106.128
 25.4416  11291.6  106.099
 25.4836  11238.7  106.375
 25.5256  11228.3  105.682
 25.5676  11266  105.59
 25.6096  11080.1  105.288
 25.6516  11219.6  105.446
 25.6936  11087.6  105.134
 25.7356  11033.6  105.018
 25.7776  11110.7  104.993
 25.8196  11056.3  104.967
 25.8616  11159.4  105.386
 25.9036  11312.8  105.565
 25.9456  11045.5  104.9
 25.9876  11083.5  105.15
 26.0296  11136.6  104.91
 26.0716  11071  105.017
 26.1136  11167.4  105.416
 26.1556  11247  105.17
 26.1976  10977.3  104.829
 26.2396  11073.6  104.436
 26.2816  10997.4  104.689
 26.3236  10969  104.712
 26.3656  10806.4  103.662
 26.4076  10976.7  104.662
 26.4496  11575.7  106.956
 26.4916  11123.7  104.871
 26.5336  11039.6  104.805
 26.5756  11475.8  106.654
 26.6176  11034.4  104.672
 26.6596  10836.4  104.061
 26.7016  10800.5  103.641
 26.7436  10740  103.485
 26.7856  10746.5  103.498
 26.8276  10596.8  102.733
 26.8696  10775.5  103.464
 26.9116  10584.7  102.484
 26.9536  10601  102.613
 26.9956  10631.3  102.791
 27.0376  10448.9  102.121
 27.0796  10732.5  103.228
 27.1216  10618.1  102.751
 27.1636  10422.4  101.967
 27.2056  10516.5  102.308
 27.2476  10612.3  102.768
 27.2896  10593.4  102.824
 27.3316  10447.2  101.794
 27.3736  10512.8  102.383
 27.4156  10352  101.435
 27.4576  10519  102.487
 27.4996  10486.6  101.92
 27.5416  10470.9  102.164
 27.5836  10362.5  101.452
 27.6256  10836.9  103.897
 27.6676  10654.2  103.052
 27.7096  10392.6  101.652
 27.7516  10567.7  102.655
 27.7936  10396.6  101.987
 27.8356  10418.7  101.713
 27.8776  10316.8  101.262
 27.9196  10317.9  101.117
 27.9616  10426.3  101.837
 28.0036  10406.2  101.71
 28.0456  10314.4  101.394
 28.0876  10088.9  100.376
 28.1296  10227  100.831
 28.1716  10104.7  100.301
 28.2136  10218.5  100.824
 28.2556  10065.8  100.182
 28.2976  10087.3  100.283
 28.3396  10253.7  100.858
 28.3816  10165.1  100.452
 28.4236  10172  100.642
 28.4656  9996.6  99.8031
 28.5076  10071.3  99.8124
 28.5496  10072.4  100.08
 28.5916  10123  100.135
 28.6336  9974.37  99.7428
 28.6756  10166  99.8892
 28.7176  9976.77  99.3929
 28.7596  9871.09  98.8753
 28.8016  10003.5  99.5667
 28.8436  9856.19  99.0735
 28.8856  9960.8  99.4954
 28.9276  9857.66  99.1821
 28.9696  9894.63  99.0142
 29.0116  9792.21  98.6995
 29.0536  9719.1  98.5197
 29.0956  9872.5  99.0167
 29.1376  9803.16  98.6306
 29.1796  9836.92  98.8429
 29.2216  9773.5  98.3689
 29.2636  9743  98.2856
 29.3056  9811.41  98.4239
 29.3476  9858.71  99.1883
 29.3896  9815.21  99.0669
 29.4316  9869.26  98.6751
 29.4736  9848.49  98.6387
 29.5156  9814.43  98.3859
 29.5576  9860.37  99.3596
 29.5996  9895.54  98.7882
 29.6416  9757.95  98.2154
 29.6836  9804.03  98.3745
 29.7256  9811.7  98.739
 29.7676  9802.43  98.5999
 29.8096  9748.24  98.2639
 29.8516  9539.78  97.5401
 29.8936  9782.08  98.8693
 29.9356  9843.22  98.928
 29.9776  9673.15  98.2251
 30.0196  9664.77  97.837
 30.0616  9723.51  98.241
 30.1036  9760.55  98.2468
 30.1456  9643.54  97.8987
 30.1876  9638.86  97.8453
 30.2296  9634.58  97.7779
 30.2716  9766.09  98.0736
 30.3136  9701.79  98.6148
 30.3556  9613.28  98.1747
 30.3976  9560.6  99.4417
 30.4396  9752.15  97.7294
 30.4816  9642.87  96.7847
 30.5236  9570.58  96.4349
 30.5656  9550.9  96.9925
 30.6076  9635.47  96.8486
 30.6496  9589.38  97.0023
 30.6916  9518  96.7359
 30.7336  9559.2  97.0962
 30.7756  9454.19  96.6538
 30.8176  9617.64  97.3993
 30.8596  9398.79  96.054
 30.9016  9449.3  96.6528
 30.9436  9534.42  96.8409
 30.9856  9440.8  96.4704
 31.0276  9422.54  95.9875
 31.0696  9366.36  96.2757
 31.1116  9490.83  96.8896
 31.1536  9591.11  97.2841
 31.1956  9395.28  96.3722
 31.2376  9269.22  95.7343
 31.2796  9313.6  95.4993
 31.3216  9311.37  95.4333
 31.3636  9442.46  96.7893
 31.4056  9428.01  98.0564
 31.4476  9250.95  95.0018
 31.4896  9237.97  95.4434
 31.5316  9386.28  95.603
 31.5736  9787.99  97.4479
 31.6156  9569.77  96.3694
 31.6576  9448.52  95.8538
 31.6996  9483.88  95.7023
 31.7416  9304.62  95.8586
 31.7836  9425.03  95.4835
 31.8256  9277.49  95.0079
 31.8676  9389.15  95.5683
 31.9096  9183.8  94.8765
 31.9516  9094.61  94.5757
 31.9936  9214.38  95.0202
 32.0356  9167.26  94.8367
 32.0776  9245.91  95.134
 32.1196  9371.54  95.8696
 32.1616  9201.39  94.4537
 32.2036  8983.52  93.8329
 32.2456  9236.03  95.5269
 32.2876  9289.96  95.2986
 32.3296  9028.49  93.9121
 32.3716  9165.97  94.7296
 32.4136  9195.19  95.0987
 32.4556  9266.01  94.8358
 32.4976  9265.07  94.7413
 32.5396  9172.85  94.3395
 32.5816  9005.63  93.5921
 32.6236  9179.75  94.5695
 32.6656  9178.95  95.1086
 32.7076  9035.09  94.014
 32.7496  9085.88  93.9422
 32.7916  9048.46  93.7109
 32.8336  9041.45  93.7696
 32.8756  9095.6  93.771
 32.9176  8978.3  93.6462
 32.9596  9042.62  94.0573
 33.0016  9053.57  93.91
 33.0436  9159.91  94.6347
 33.0856  8984.45  93.7899
 33.1276  8964.4  93.4192
 33.1696  8982.57  93.3533
 33.2116  9053.25  93.9497
 33.2536  8980.47  93.5724
 33.2956  9022.89  93.8759
 33.3376  8921.12  93.0892
 33.3796  8923.42  93.3056
 33.4216  8955.17  93.0683
 33.4636  9022.56  93.5627
 33.5056  8944.99  93.4002
 33.5476  8832.6  92.806
 33.5896  8871.03  92.7829
 33.6316  8866.86  93.0727
 33.6736  8839.03  93.1687
 33.7156  8869.16  93.3788
 33.7576  8869.26  93.0012
 33.7996  9041.07  93.6588
 33.8416  8743.25  92.2927
 33.8836  8917.06  92.9808
 33.9256  8834.07  92.6075
 33.9676  8971.48  93.2251
 34.0096  8714.12  92.1923
 34.0516  8784.33  92.1992
 34.0936  8694.44  91.9864
 34.1356  8929.9  92.9617
 34.1776  8735.41  91.959
 34.2196  8685.82  91.8788
 34.2616  8709.59  92.136
 34.3036  8717.22  92.4267
 34.3456  8707.3  92.1258
 34.3876  8758.58  92.3629
 34.4296  8754.95  92.0307
 34.4716  8803.08  92.4291
 34.5136  8700.89  92.1045
 34.5556  8657.75  92.1273
 34.5976  8742.26  92.3795
 34.6396  8649.67  91.7185
 34.6816  8682.81  91.8834
 34.7236  8702.99  91.7796
 34.7656  8666.73  91.78
 34.8076  8625.97  91.8914
 34.8496  8615.51  91.7702
 34.8916  8709.87  92.0659
 34.9336  8726.36  92.1137
 34.9756  8700.53  91.8949
 35.0176  8728.18  92.5828
 35.0596  8636.26  91.9104
 35.1016  8536.37  91.1486
 35.1436  8688.34  91.6414
 35.1856  8618.05  91.3998
 35.2276  8624.17  91.6077
 35.2696  8561.74  91.4647
 35.3116  8709.97  92.3498
 35.3536  8415.79  90.487
 35.3956  8623.83  91.306
 35.4376  8515.25  91.2711
 35.4796  8581.51  91.6988
 35.5216  8491.43  91.1753
 35.5636  8313.25  90.9537
 35.6056  8512.24  91.0492
 35.6476  8583.56  91.3238
 35.6896  8686.28  91.9497
 35.7316  8458.32  90.719
 35.7736  8487.34  91.0743
 35.8156  8393.79  90.564
 35.8576  8509.48  91.4449
 35.8996  8520.06  91.4636
 35.9416  8456.12  90.6294
 35.9836  8405.36  90.7045
 36.0256  8605.16  91.7902
 36.0676  8477.5  90.8651
 36.1096  8337.75  90.2513
 36.1516  8484.86  90.9364
 36.1936  8395.91  90.3022
 36.2356  8417.5  91.0524
 36.2776  8413.04  90.5217
 36.3196  8440.2  90.3275
 36.3616  8434.54  90.4368
 36.4036  8419.79  90.4068
 36.4456  8440.62  90.7405
 36.4876  8246.55  89.6207
 36.5296  8414.94  90.5696
 36.5716  8367.57  91.1062
 36.6136  8564.72  90.932
 36.6556  8577.73  91.2091
 36.6976  8515.1  91.3764
 36.7396  8251.95  89.8571
 36.7816  8275.78  90.1897
 36.8236  8408.58  90.825
 36.8656  8298.13  90.3068
 36.9076  8362.39  90.5286
 36.9496  8384.37  90.6406
 36.9916  8268.88  89.6402
 37.0336  8348.61  90.3854
 37.0756  8477.45  90.8724
 37.1176  8218.44  89.7431
 37.1596  8310.97  90.2386
 37.2016  8334.72  90.6102
 37.2436  8489.16  90.7525
 37.2856  8283.16  89.8934
 37.3276  8289.05  89.2768
 37.3696  8260.22  90.0111
 37.4116  8445.97  90.9263
 37.4536  8077.76  88.6366
 37.4956  8196  89.4864
 37.5376  8261.2  91.389
 37.5796  8241.72  91.2452
 37.6216  8091.31  88.6825
 37.6636  8109.7  88.6805
 37.7056  8175.43  89.2344
 37.7476  8128.18  88.5117
 37.7896  8178.5  89.2816
 37.8316  7924.01  88.0562
 37.8736  8239.05  89.3142
 37.9156  8160.62  88.8888
 37.9576  8204.13  88.9906
 37.9996  7990.62  87.5648
 38.0416  8088.13  88.9155
 38.0836  8140.14  89.1021
 38.1256  8106.47  88.881
 38.1676  7986.42  88.3535
 38.2096  8100.6  88.6014
 38.2516  8179.64  89.2363
 38.2936  8173.52  89.0046
 38.3356  8225.56  89.2003
 38.3776  7968.86  88.073
 38.4196  8256.34  89.5016
 38.4616  8083.85  88.793
 38.5036  8248.19  89.5329
 38.5456  8051.66  89.3003
 38.5876  8055.93  89.5255
 38.6296  8025.58  88.1485
 38.6716  7980.74  87.6996
 38.7136  7898.55  87.1886
 38.7556  7955.41  87.9957
 38.7976  8057.37  88.508
 38.8396  8072.89  88.8499
 38.8816  7809.13  87.3643
 38.9236  7988.14  88.1704
 38.9656  7989.73  88.0919
 39.0076  7913.43  87.0786
 39.0496  7946.89  87.799
 39.0916  8079.89  88.1742
 39.1336  7947.19  87.8654
 39.1756  8012.7  88.2956
 39.2176  7995.95  88.7362
 39.2596  7905.4  88.1516
 39.3016  7946.29  87.8877
 39.3436  7800.69  87.5655
 39.3856  7968.35  87.949
 39.4276  7944.15  88.3124
 39.4696  8004.4  88.2663
 39.5116  7961.65  88.5469
 39.5536  8075.03  89.614
 39.5956  8142.89  89.0731
 39.6376  8110.88  88.9071
 39.6796  8012.48  88.098
 39.7216  8044.45  88.3789
 39.7636  8005.84  88.7425
 39.8056  7975.71  88.349
 39.8476  7921.74  88.3011
 39.8896  7969.89  88.2032
 39.9316  7923.4  88.1957
 39.9736  8099.43  88.8114
 40.0156  7926.78  87.6062
 40.0576  8015.79  88.462
 40.0996  8097.04  88.0887
 40.1416  8112.53  88.9738
 40.1836  8132.16  88.9642
 40.2256  8136.57  89.0373
 40.2676  8006.36  88.4312
 40.3096  8005.73  88.3497
 40.3516  8077.36  88.8475
 40.3936  8211.49  89.1408
 40.4356  7989.05  88.1136
 40.4776  8058.91  88.9227
 40.5196  8176.57  89.6116
 40.5616  8107.39  88.9537
 40.6036  8054.77  88.9168
 40.6456  8101.39  88.7855
 40.6876  8094.59  88.7291
 40.7296  8140.05  89.0051
 40.7716  8103.21  89.0464
 40.8136  8034.78  88.6078
 40.8556  8089.99  89.0515
 40.8976  8045.96  88.7282
 40.9396  8019.2  88.9318
 40.9816  8017.32  88.2054
 41.0236  8065.2  88.2446
 41.0656  8110.35  89.0407
 41.1076  8010.51  88.2603
 41.1496  7988.38  88.0472
 41.1916  8013.03  88.5067
 41.2336  7991.92  88.3738
 41.2756  8069.74  88.4114
 41.3176  7963.11  88.4389
 41.3596  8123.13  89.046
 41.4016  8063.06  88.9847
 41.4436  8075.48  88.8331
 41.4856  8152.28  89.4193
 41.5276  7975.77  88.4692
 41.5696  7926.29  87.8266
 41.6116  7877.5  87.9471
 41.6536  7958.34  88.257
 41.6956  7941.09  88.2187
 41.7376  7999.68  88.5701
 41.7796  7907.04  87.9422
 41.8216  7985.53  88.6095
 41.8636  7999.58  88.6251
 41.9056  7904.69  87.8913
 41.9476  8014.47  88.6254
 41.9896  8019.42  88.4218
 42.0316  8009.2  88.4479
 42.0736  7883.85  87.8628
 42.1156  7963.01  88.1407
 42.1576  7935.32  88.0682
 42.1996  7920.35  88.1488
 42.2416  8059.68  88.4975
 42.2836  7911.89  87.7921
 42.3256  7840.34  87.5133
 42.3676  7959.51  87.9737
 42.4096  8029.23  88.3208
 42.4516  7980.19  88.1419
 42.4936  7957.32  88.087
 42.5356  7854.71  87.6508
 42.5776  8032.9  88.5776
 42.6196  7989.27  88.3925
 42.6616  7732.93  87.1303
 42.7036  7926.57  87.5924
 42.7456  7912.86  87.8737
 42.7876  7941.03  88.1406
 42.8296  7950.34  88.0182
 42.8716  7870.04  87.7344
 42.9136  7800.27  87.1351
 42.9556  7879.61  87.7098
 42.9976  7947.17  88.0402
 43.0396  7906.72  87.5521
 43.0816  7812.89  87.4104
 43.1236  7842.38  87.6342
 43.1656  7801.1  87.2297
 43.2076  7821.47  87.4543
 43.2496  7714.33  86.6649
 43.2916  7836.73  87.7152
 43.3336  7813.16  87.4211
 43.3756  7877.52  87.5272
 43.4176  7779.66  87.0708
 43.4596  7703.16  86.4979
 43.5016  7767.03  87.2619
 43.5436  7778.9  87.2258
 43.5856  7762.22  87.1625
 43.6276  7723.89  86.8428
 43.6696  7741.69  87.2019
 43.7116  7813.24  87.0926
 43.7536  7827.86  87.6633
 43.7956  7603.46  87.5943
 43.8376  7714.24  86.755
 43.8796  7680  86.6535
 43.9216  7624.73  86.2603
 43.9636  7690.22  86.7418
 44.0056  7710.34  87.081
 44.0476  7556.78  85.8449
 44.0896  7655.23  86.7457
 44.1316  7600.92  85.9613
 44.1736  7631.39  86.2539
 44.2156  7714.48  86.576
 44.2576  7644.65  86.5143
 44.2996  7642.26  86.4657
 44.3416  7564.87  85.796
 44.3836  7548.21  86.0206
 44.4256  7451.62  85.1187
 44.4676  7560.45  85.8961
 44.5096  7567.21  86.0765
 44.5516  7550.42  85.9455
 44.5936  7480.84  85.5025
 44.6356  7603.52  85.9381
 44.6776  7597.88  86.1462
 44.7196  7551.08  86.2711
 44.7616  7525.62  87.4412
 44.8036  7487.91  85.6655
 44.8456  7607.36  86.5479
 44.8876  7491.11  85.7288
 44.9296  7541.77  85.474
 44.9716  7474.17  85.514
 45.0136  7503.09  85.6148
 45.0556  7484.46  85.486
 45.0976  7481.46  85.6355
 45.1396  7365.81  84.7329
 45.1816  7460.54  85.2117
 45.2236  7476.38  85.1996
 45.2656  7412.32  85.3378
 45.3076  7430.66  85.2237
 45.3496  7316.25  84.8637
 45.3916  7312.61  85.1087
 45.4336  7365.58  85.2554
 45.4756  7345.06  85.0059
 45.5176  7476.74  85.3709
 45.5596  7505.87  85.6638
 45.6016  7199.17  84.3024
 45.6436  7403.04  84.6725
 45.6856  7344.38  84.9897
 45.7276  7272.53  85.8844
 45.7696  7351.7  86.0106
 45.8116  7381.29  85.6182
 45.8536  7267.89  84.8545
 45.8956  7395.56  84.9514
 45.9376  7322.03  83.9959
 45.9796  7392.63  85.0795
 46.0216  7491.89  85.9954
 46.0636  7545.97  85.4469
 46.1056  7351.91  84.3248
 46.1476  7383.52  85.0939
 46.1896  7451.86  85.6393
 46.2316  7341.84  84.8772
 46.2736  7291.69  84.9515
 46.3156  7434.07  85.362
 46.3576  7439.59  85.5985
 46.3996  7287.95  84.8805
 46.4416  7375.74  84.9633
 46.4836  7300.66  84.8864
 46.5256  7373.59  85.2484
 46.5676  7272.12  84.7652
 46.6096  7329.58  85.0355
 46.6516  7415.64  84.5791
 46.6936  7348.18  84.6801
 46.7356  7397.59  85.0694
 46.7776  7251.4  85.0714
 46.8196  7309.82  85.0013
 46.8616  7171.72  84.1531
 46.9036  7189.26  83.9129
 46.9456  7221.92  83.7413
 46.9876  7171.64  83.533
 47.0296  7215.79  84.482
 47.0716  7108.61  83.6729
 47.1136  7218.62  84.0012
 47.1556  7153.45  83.488
 47.1976  7190.01  83.7846
 47.2396  7154.58  83.9702
 47.2816  7080.03  83.2317
 47.3236  7076.78  83.5708
 47.3656  7242.52  84.4858
 47.4076  7071.98  83.2901
 47.4496  7070.79  83.3733
 47.4916  7089.14  83.6656
 47.5336  7237.24  84.3545
 47.5756  7217.39  84.356
 47.6176  7090.69  83.5125
 47.6596  7043.21  82.9494
 47.7016  7295.63  84.2358
 47.7436  7241.94  84.2709
 47.7856  7202.67  84.06
 47.8276  7147.12  83.7868
 47.8696  7117.64  83.6953
 47.9116  7110.79  83.3727
 47.9536  7119.54  83.3715
 47.9956  7063.76  83.743
 48.0376  7019.56  83.2506
 48.0796  7176.87  84.3157
 48.1216  7255.44  84.585
 48.1636  7280.26  84.3053
 48.2056  7190.19  84.0506
 48.2476  7229.4  84.5878
 48.2896  7144.65  83.9933
 48.3316  7050.52  83.3832
 48.3736  6935.23  82.7256
 48.4156  6963.39  82.7496
 48.4576  6940.17  82.8983
 48.4996  7126.57  83.4597
 48.5416  7107.47  83.6746
 48.5836  7037.62  82.9413
 48.6256  7108.66  83.5622
 48.6676  7003.74  83.4557
 48.7096  7058.8  83.0555
 48.7516  6972.46  82.6947
 48.7936  6963.49  82.6975
 48.8356  7039.02  83.1997
 48.8776  7067.38  83.9246
 48.9196  7182.13  83.9785
 48.9616  6977.44  83.1608
 49.0036  7021.72  83.7651
 49.0456  6948.43  83.3055
 49.0876  6988.62  83.0932
 49.1296  6851.27  82.4279
 49.1716  6865.58  82.3884
 49.2136  7049.6  83.4175
 49.2556  6937.8  82.8794
 49.2976  6977.83  83.0794
 49.3396  6856.64  82.4138
 49.3816  6999.7  82.6998
 49.4236  6927.25  82.6965
 49.4656  6830.39  82.0894
 49.5076  7002.09  82.9072
 49.5496  6810.65  81.8237
 49.5916  6969.34  82.6924
 49.6336  6884.51  82.3917
 49.6756  6948.14  82.9998
 49.7176  6945.34  82.9263
 49.7596  6881.35  82.3093
 49.8016  6990.55  82.8858
 49.8436  6831.63  82.2292
 49.8856  6886.95  82.5667
 49.9276  6825.05  82.2884
 49.9696  6913.29  82.8068
 50.0116  6893.41  82.8226
 50.0536  6824.09  82.3516
 50.0956  6757.47  82.0164
 50.1376  6831.94  82.1674
 50.1796  6757.53  81.9849
 50.2216  6867.55  82.6495
 50.2636  6774.01  81.6981
 50.3056  6794.1  81.9956
 50.3476  6817.2  82.1576
 50.3896  6870.11  82.4439
 50.4316  6821.11  81.9898
 50.4736  6757.48  81.8216
 50.5156  6855.15  82.4041
 50.5576  6718.2  81.3389
 50.5996  6752.25  81.937
 50.6416  6759.86  81.7965
 50.6836  6737.11  81.714
 50.7256  6797.2  82.0125
 50.7676  6735.83  81.9466
 50.8096  6763.86  81.6616
 50.8516  6779.81  82.1726
 50.8936  6691.15  81.4162
 50.9356  6677.74  81.4363
 50.9776  6790.98  82.2765
 51.0196  6564.48  81.0238
 51.0616  6606.03  80.608
 51.1036  6672.86  81.3694
 51.1456  6671.47  81.2715
 51.1876  6777.29  81.2631
 51.2296  6600.31  80.9361
 51.2716  6623.08  80.6623
 51.3136  6639.24  81.2191
 51.3556  6689.22  81.1538
 51.3976  6631.01  80.9496
 51.4396  6479.97  80.3204
 51.4816  6660.74  81.278
 51.5236  6662.51  81.388
 51.5656  6546.17  80.2786
 51.6076  6668.4  81.1046
 51.6496  6729.03  81.6681
 51.6916  6522.78  80.7487
 51.7336  6743.49  82.205
 51.7756  6647.46  81.3155
 51.8176  6579.25  80.9976
 51.8596  6597.99  81.1318
 51.9016  6725.38  81.5127
 51.9436  6558.31  81.9232
 51.9856  6491.2  81.9495
 52.0276  6617.24  81.2532
 52.0696  6524.34  80.7436
 52.1116  6541.16  80.9624
 52.1536  6565.3  81.0066
 52.1956  6596.21  80.6665
 52.2376  6722.32  81.6052
 52.2796  6510.35  80.1294
 52.3216  6559.11  81.1121
 52.3636  6469.61  80.1387
 52.4056  6558.37  80.5464
 52.4476  6490.27  80.4887
 52.4896  6463.54  80.3715
 52.5316  6553.52  80.9681
 52.5736  6569.67  80.8026
 52.6156  6496.25  80.721
 52.6576  6588.2  80.7403
 52.6996  6344.51  80.1879
 52.7416  6549.78  81.3271
 52.7836  6456.37  80.6107
 52.8256  6585.59  80.6594
 52.8676  6354.12  79.7929
 52.9096  6462.37  80.5509
 52.9516  6507.36  81.2012
 52.9936  6449.62  81.2277
 53.0356  6376.34  79.7737
 53.0776  6396.69  80.1618
 53.1196  6302.49  79.6927
 53.1616  6483.81  80.8787
 53.2036  6327.8  79.8507
 53.2456  6320.48  79.912
 53.2876  6241.22  79.1121
 53.3296  6410.86  80.5065
 53.3716  6351.95  79.8834
 53.4136  6387.71  80.2614
 53.4556  6316.6  79.8425
 53.4976  6318.77  79.704
 53.5396  6315.91  80.0748
 53.5816  6356.63  79.9682
 53.6236  6350.53  80.1996
 53.6656  6356.29  79.9401
 53.7076  6383.37  80.0667
 53.7496  6393.14  80.2468
 53.7916  6496.98  81.0245
 53.8336  6283.83  79.588
 53.8756  6254.87  79.9456
 53.9176  6340.47  79.8407
 53.9596  6388.51  80.916
 54.0016  6262.88  79.4507
 54.0436  6295.43  79.8679
 54.0856  6385.95  79.876
 54.1276  6352.87  79.868
 54.1696  6235.86  79.2941
 54.2116  6356.28  79.8105
 54.2536  6406.79  79.9422
 54.2956  6466.99  80.3076
 54.3376  6324.13  79.9554
 54.3796  6360.71  80.0857
 54.4216  6392.11  80.3337
 54.4636  6333.79  79.9767
 54.5056  6374.16  80.0001
 54.5476  6344.43  80.146
 54.5896  6369.05  80.139
 54.6316  6364.89  79.9658
 54.6736  6357.31  79.9901
 54.7156  6385.51  80.1935
 54.7576  6229.72  79.2026
 54.7996  6324.09  79.937
 54.8416  6332.12  79.9465
 54.8836  6162.05  79.0657
 54.9256  6322.71  79.8368
 54.9676  6318.67  79.671
 55.0096  6249.57  79.3049
 55.0516  6263.11  79.6246
 55.0936  6237.31  79.0847
 55.1356  6286.85  79.4461
 55.1776  6187.19  79.0718
 55.2196  6308.11  79.6868
 55.2616  6211.01  79.2252
 55.3036  6260.93  79.7072
 55.3456  6213.51  79.5536
 55.3876  6225.22  79.3719
 55.4296  6298.63  79.8519
 55.4716  6282.94  79.7494
 55.5136  6243.51  79.2541
 55.5556  6288.83  79.6127
 55.5976  6310.8  79.8071
 55.6396  6255.23  79.4085
 55.6816  6197.09  78.9145
 55.7236  6229.98  79.1685
 55.7656  6258.8  79.106
 55.8076  6308.75  79.4021
 55.8496  6179.08  78.8947
 55.8916  6230.4  79.4325
 55.9336  6146.09  78.7103
 55.9756  6263.94  79.3552
 56.0176  6179.09  78.9653
 56.0596  6201.68  79.0932
 56.1016  6200.05  79.0954
 56.1436  6166.04  79.1387
 56.1856  6212.03  79.1693
 56.2276  6202.33  79.1635
 56.2696  6252.78  79.4899
 56.3116  6188.56  79.4504
 56.3536  6160.65  78.9352
 56.3956  6154.95  78.8897
 56.4376  6197.08  79.1913
 56.4796  6250.45  79.3315
 56.5216  6176.37  79.236
 56.5636  6240.67  79.2363
 56.6056  6195.87  79.1819
 56.6476  6193.09  78.7946
 56.6896  6270.65  79.733
 56.7316  6187.72  79.1097
 56.7736  6302.96  79.8453
 56.8156  6218.35  79.3088
 56.8576  6150.35  78.8188
 56.8996  6229.44  79.253
 56.9416  6190.22  79.308
 56.9836  6199.02  78.8816
 57.0256  6183.27  79.095
 57.0676  6123.1  78.8336
 57.1096  6211.06  79.1857
 57.1516  6160.07  78.9292
 57.1936  6179.3  78.7959
 57.2356  6190.35  79.1884
 57.2776  6143.19  78.8373
 57.3196  6210.05  79.4244
 57.3616  6091.61  78.3708
 57.4036  6230.58  79.323
 57.4456  6110.83  78.5168
 57.4876  6165.74  78.7328
 57.5296  6098.79  78.6438
 57.5716  6163.44  79.0426
 57.6136  6150.45  78.7837
 57.6556  6121.14  78.7314
 57.6976  6172.61  78.7978
 57.7396  6068.89  78.595
 57.7816  6089.3  79.0854
 57.8236  6066.18  78.7279
 57.8656  6170.36  79.0579
 57.9076  6115.01  78.7284
 57.9496  6149.37  79.3047
 57.9916  6129.08  78.6839
 58.0336  6075.97  78.6159
 58.0756  6070.41  78.2106
 58.1176  6244.41  79.3259
 58.1596  6022.63  78.4758
 58.2016  6216.13  78.9423
 58.2436  6224.8  79.4139
 58.2856  6203.68  79.1974
 58.3276  6151.33  79.2357
 58.3696  6169.63  79.0963
 58.4116  6209.72  79.2231
 58.4536  6108.39  78.4556
 58.4956  6175.5  79.0605
 58.5376  6128.76  78.4603
 58.5796  6032.83  78.1486
 58.6216  6256.41  79.3895
 58.6636  6186.82  79.1715
 58.7056  6281.6  79.6256
 58.7476  6135.52  79.1443
 58.7896  6106.67  78.5993
 58.8316  6055.09  78.3702
 58.8736  6254.32  79.5479
 58.9156  6122.78  78.7446
 58.9576  6276.03  80.0532
 58.9996  6291.32  79.3717
 59.0416  6297.64  79.7958
 59.0836  6137.99  78.7054
 59.1256  6082.65  79.0498
 59.1676  6149.15  79.7931
 59.2096  6314.23  80.157
 59.2516  6317.68  79.7504
 59.2936  6277.65  79.8319
 59.3356  6098.63  78.5625
 59.3776  6200.29  79.3858
 59.4196  6209.24  79.3785
 59.4616  6194.13  79.1397
 59.5036  6104.43  78.6001
 59.5456  6426.65  80.3316
 59.5876  6287.17  79.65
 59.6296  6319.57  79.9258
 59.6716  6096.77  78.5625
 59.7136  6125.29  78.7342
 59.7556  6167  79.1397
 59.7976  6074.95  78.2883
 59.8396  6152.09  78.677
 59.8816  6287.03  80.0911
 59.9236  6232.17  79.3795
 59.9656  6199.17  79.432
 60.0076  6156.67  78.5115
 60.0496  6225.33  79.4597
 60.0916  6345.25  79.6249
 60.1336  6182.73  79.719
 60.1756  6083.13  80.263
 60.1996  0.0000000E+00  0.0000000E+00