File: docs/examples/opeando_xrd/IS17_D/Data/IS17_D/17_Db_f00136.xye
# /beamlines/bl04/projects/cycle2025-II/20250340211-lsimonelli/DATA/IS17_D/17_Db_f00136.xye : mythproc.py merge -s 0.006 -l 0.5 -f /beamlines/bl04/inhouse/ff/FlatField/ff_20Nov2024rod8mm60s_17keV.raw -b True -c true -o xye /beamlines/bl04/projects/cycle2025-II/20250340211-lsimonelli/DATA/IS17_D/17_Db_00136.dat
# IsMon = [6788602, 6787515, 6792258]  IsPos = [-1.5000, -2.4884, -3.4988]
# Wave = 0.4962  CalPath /beamlines/bl04/projects/cycle2025-II/20250340211-lsimonelli/DATA/Align/Si_Pos1_25keV_f00001.cal
# Date = 2025-09-25_07:38:05 Dt = 4.8000  Bin = 0.0060  <imon> = 6789458 +/- 2029 (Min/Max) 6787515 / 6792258
# icurr 252.9495  mocoIn 1.7256E-05  mocoOut 0.8093  i15 7.10995e+06  imon 6.78946e+06  i7 3.3333  iEMpd_timer 4.8000  iEMpd_1 3.6146E-08  iEMpd_2 7.9472E-08  iEMpd_3 1.8473E-08  iEMpd_4 4.8669E-08  iEMhp_timer 4.8000  iEMhp_1 4.9411E-06  iEMhp_2 -2.6137E-08  iEMhp_3 -2.4513E-08  iEMhp_4 -2.1898E-08
#      9776
 1.5856  44609.1  216.891
 1.6276  51390.5  228.799
 1.6696  57014.8  240.145
 1.7116  63913.3  254.756
 1.7536  71914.5  269.08
 1.7956  75750.7  276.854
 1.8376  72550.1  271.372
 1.8796  62413.1  249.846
 1.9216  51947  228.848
 1.9636  44783.2  212.147
 2.0056  41081.4  201.892
 2.0476  37843.7  195.897
 2.0896  36480  191.207
 2.1316  35686.6  188.207
 2.1736  33430.8  183.607
 2.2156  34243.1  184.333
 2.2576  32988.9  181.573
 2.2996  31877.9  179.145
 2.3416  32121.7  178.395
 2.3836  31470.7  176.686
 2.4256  30526.2  174.581
 2.4676  30291.5  173.662
 2.5096  30310.8  173.775
 2.5516  31276.4  180.553
 2.5936  81023.7  284.777
 2.6356  29718.9  173.221
 2.6776  27820.9  166.496
 2.7196  27343.6  165.542
 2.7616  27392.7  165.49
 2.8036  26851  164.005
 2.8456  26836.4  164.605
 2.8876  26176.7  162.432
 2.9296  25846.5  161.536
 2.9716  25456.5  159.801
 3.0136  25306  159.394
 3.0556  25308.8  159.8
 3.0976  25300.9  158.67
 3.1396  25118  158.828
 3.1816  24663.6  157.33
 3.2236  24536.6  156.926
 3.2656  24440.6  155.657
 3.3076  24231.6  156.451
 3.3496  24308.8  155.632
 3.3916  24857  157.184
 3.4336  25176.8  158.794
 3.4756  25679.6  160.304
 3.5176  26240.3  161.83
 3.5596  25865.7  163.649
 3.6016  26094.2  161.424
 3.6436  25257.7  159.924
 3.6856  25038.1  157.521
 3.7276  23976  155.223
 3.7696  23933.1  155.062
 3.8116  23432.4  153.539
 3.8536  23624.6  154.09
 3.8956  23602.9  153.834
 3.9376  23918.4  155.138
 3.9796  23339.3  152.73
 4.0216  23295.4  151.639
 4.0636  23457.8  153.63
 4.1056  23241.1  152.584
 4.1476  23570.5  153.963
 4.1896  23625.9  154.001
 4.2316  23897.1  154.71
 4.2736  24405.6  156.149
 4.3156  24350.3  156.189
 4.3576  25398.2  159.419
 4.3996  25369.6  159.619
 4.4416  26109.7  161.507
 4.4836  27000.4  164.407
 4.5256  27229.3  165.713
 4.5676  26844.4  164.783
 4.6096  27385.2  165.461
 4.6516  27776.3  165.959
 4.6936  27857.6  167.031
 4.7356  28510.3  168.807
 4.7776  27921.6  166.883
 4.8196  27788.8  167.141
 4.8616  27115.9  164.596
 4.9036  27026.6  164.046
 4.9456  26978.8  164.561
 4.9876  26448.3  162.841
 5.0296  26177.1  161.841
 5.0716  26091.7  162.315
 5.1136  26621.2  163.686
 5.1556  26563.4  162.967
 5.1976  30915.7  175.79
 5.2396  27368.7  165.096
 5.2816  27247.1  165.206
 5.3236  27212.3  164.786
 5.3656  26971.1  165
 5.4076  26477.1  163.62
 5.4496  26534.6  163.294
 5.4916  26879.9  164.107
 5.5336  26585.7  163.21
 5.5756  26811.2  163.91
 5.6176  26856.4  163.494
 5.6596  27168.9  165.278
 5.7016  27310  165.12
 5.7436  27388.3  165.638
 5.7856  27118.4  164.889
 5.8276  27429.8  165.541
 5.8696  27901.5  167.025
 5.9116  27598.8  166.83
 5.9536  28026.1  167.85
 5.9956  28135.4  167.574
 6.0376  28110.4  168.119
 6.0796  28249.6  168.366
 6.1216  28245.7  168.55
 6.1636  28722.4  169.009
 6.2056  28400.6  168.747
 6.2476  28969.6  170.114
 6.2896  28800.9  169.483
 6.3316  29065.5  170.43
 6.3736  28983.6  170.08
 6.4156  28807.8  169.51
 6.4576  29306.3  170.537
 6.4996  28925.4  169.897
 6.5416  29411.7  171.451
 6.5836  29321.2  171.426
 6.6256  29420.9  171.276
 6.6676  29857.6  172.103
 6.7096  29967.1  173.284
 6.7516  30091.5  173.303
 6.7936  30930  175.088
 6.8356  31470.4  176.709
 6.8776  31007.2  176.22
 6.9196  30574.9  175.385
 6.9616  31418.8  177.232
 7.0036  31735.6  177.775
 7.0456  31742.5  177.091
 7.0876  31945.4  179.261
 7.1296  31824.5  178.143
 7.1716  31608.6  177.066
 7.2136  31255.7  175.87
 7.2556  31616.5  177.032
 7.2976  31714.8  177.795
 7.3396  31364.6  177.046
 7.3816  31566.3  177.824
 7.4236  32034.6  178.431
 7.4656  32197.2  178.338
 7.5076  32337.2  178.88
 7.5496  32138.9  178.859
 7.5916  32237.4  179.188
 7.6336  33093.5  181.437
 7.6756  32983.2  180.979
 7.7176  33376.4  182.393
 7.7596  33275.7  183.349
 7.8016  36130.4  193.378
 7.8436  33490.6  182.816
 7.8856  33620.6  182.79
 7.9276  34280.2  184.951
 7.9696  34282.9  185.281
 8.0116  35372.5  186.746
 8.0536  35629.2  187.666
 8.0956  36714.6  191.719
 8.1376  36244.3  189.946
 8.1796  36287  190.595
 8.2216  37342.8  192.072
 8.2636  37831.5  193.588
 8.3056  37158.1  192.616
 8.3476  38580.8  195.593
 8.3896  37845.4  193.799
 8.4316  37778.8  193.803
 8.4736  37996.2  193.826
 8.5156  37518.5  192.879
 8.5576  37384.6  193.512
 8.5996  37322  192.221
 8.6416  37213.3  193.213
 8.6836  36863.5  192.115
 8.7256  37748.2  193.868
 8.7676  38869.5  199.709
 8.8096  39027.8  197.333
 8.8516  38282.3  195.069
 8.8936  38610.9  195.791
 8.9356  37782.7  194.02
 8.9776  37199.7  192.597
 9.0196  37393.9  192.773
 9.0616  37411.7  192.304
 9.1036  38299.2  195.772
 9.1456  36566.5  190.61
 9.1876  36743.8  191.019
 9.2296  36213.7  189.071
 9.2716  36143.1  188.927
 9.3136  36101.5  188.821
 9.3556  36498.2  189.826
 9.3976  35449  187.605
 9.4396  35176.6  186.785
 9.4816  35300.3  186.972
 9.5236  34815.9  185.574
 9.5656  34785.2  185.856
 9.6076  33983.7  184.224
 9.6496  34197.6  184.7
 9.6916  33895.5  183.825
 9.7336  34289.9  184.672
 9.7756  34057.2  185.196
 9.8176  33765.1  184.059
 9.8596  33698.1  182.305
 9.9016  33196.4  180.926
 9.9436  32884.4  179.821
 9.9856  33104.3  180.877
 10.0276  32410.5  180.055
 10.0696  32554.6  179.482
 10.1116  32085.6  178.447
 10.1536  31546.6  176.604
 10.1956  31193  175.718
 10.2376  31226.6  175.313
 10.2796  30846.4  174.354
 10.3216  30551.3  173.663
 10.3636  30741.4  174.378
 10.4056  31633.6  177.313
 10.4476  32409.5  179.069
 10.4896  34658.8  184.582
 10.5316  33674.4  182.33
 10.5736  30023.9  172.941
 10.6156  30172.5  173.121
 10.6576  33702.7  181.371
 10.6996  29707.3  171.044
 10.7416  28942.6  169.046
 10.7836  29049.4  170.026
 10.8256  27957.5  167.231
 10.8676  28132  167.292
 10.9096  28054  167.079
 10.9516  27710.8  164.995
 10.9936  28268.5  166.855
 11.0356  27863.8  166.274
 11.0776  28718.3  168.122
 11.1196  28393.5  167.959
 11.1616  27009.6  163.485
 11.2036  28019.4  166.351
 11.2456  28943.8  169.83
 11.2876  27417.2  165.005
 11.3296  26931.9  163.445
 11.3716  27273.5  164.195
 11.4136  27392  165.427
 11.4556  27645.8  165.825
 11.4976  28316.7  166.79
 11.5396  27815.2  165.488
 11.5816  26871.6  163.083
 11.6236  26023.1  160.74
 11.6656  26458.1  161.211
 11.7076  25552.5  159.266
 11.7496  25833.8  164.197
 11.7916  25895.4  159.566
 11.8336  25143.4  158.125
 11.8756  25318.5  158.233
 11.9176  25119.9  157.284
 11.9596  25078.1  157.32
 12.0016  24575.1  156.511
 12.0436  24872.3  156.897
 12.0856  24365.5  155.796
 12.1276  24616.8  156.541
 12.1696  24352.8  154.81
 12.2116  24629.1  155.689
 12.2536  26264.1  161.588
 12.2956  24449  155.271
 12.3376  24616.8  156.024
 12.3796  24493.8  156.118
 12.4216  24418.3  155.066
 12.4636  24783.7  157.178
 12.5056  24281.7  154.828
 12.5476  24397  154.706
 12.5896  24060.6  154.282
 12.6316  24066  154.454
 12.6736  23893  154.391
 12.7156  24475.6  156.093
 12.7576  24157.1  155.338
 12.7996  24318.4  154.484
 12.8416  24161  155.044
 12.8836  24739.3  156.713
 12.9256  24949.7  156.404
 12.9676  24651.2  155.861
 13.0096  24654.9  157.006
 13.0516  24544.4  155.68
 13.0936  24604.7  155.989
 13.1356  25004.6  156.49
 13.1776  24706  156.582
 13.2196  24490.2  155.536
 13.2616  24296.5  155.236
 13.3036  24630  156.435
 13.3456  24328.1  155.65
 13.3876  24990.5  157.016
 13.4296  24592.2  155.932
 13.4716  24730.6  155.993
 13.5136  24738.5  156.144
 13.5556  24637.2  156.472
 13.5976  24861.5  157.346
 13.6396  24784.1  156.452
 13.6816  24999.1  157.491
 13.7236  25284.7  158.111
 13.7656  26829  163.312
 13.8076  28053.7  165.614
 13.8496  26366.4  161.402
 13.8916  25083.3  158.423
 13.9336  24375.7  155.406
 13.9756  24304  154.559
 14.0176  24124  154.673
 14.0596  24571.8  156.033
 14.1016  23979.9  154.567
 14.1436  23975.7  153.685
 14.1856  23322.3  151.858
 14.2276  23526.8  153.011
 14.2696  23674  153.342
 14.3116  22857  150.581
 14.3536  22621.6  149.967
 14.3956  22505.5  149.313
 14.4376  22649.8  149.573
 14.4796  22519.1  149.134
 14.5216  22309.6  149.232
 14.5636  22464.6  149.312
 14.6056  22457.5  148.841
 14.6476  22142.8  147.038
 14.6896  21803.7  146.456
 14.7316  21449.9  146.304
 14.7736  21287.7  144.893
 14.8156  21180.8  144.543
 14.8576  21021.8  143.858
 14.8996  20825.3  144.389
 14.9416  20562.2  143.484
 14.9836  20342.3  142.693
 15.0256  20154.8  140.946
 15.0676  19777  139.929
 15.1096  19569.1  138.932
 15.1516  19280.6  138.466
 15.1936  19446.2  138.479
 15.2356  19234  137.998
 15.2776  19172.6  137.369
 15.3196  18805.5  137.034
 15.3616  18686.9  136.355
 15.4036  18467.4  135.424
 15.4456  19001.6  137.014
 15.4876  18437.7  134.651
 15.5296  18449.4  134.989
 15.5716  18148.6  133.481
 15.6136  18084.1  133.576
 15.6556  18851.7  135.603
 15.6976  18356  134.111
 15.7396  18018.5  133.246
 15.7816  17898.7  132.323
 15.8236  17507.9  131.547
 15.8656  17580  131.623
 15.9076  17397.1  130.76
 15.9496  18491.9  137.682
 15.9916  17851.8  135.67
 16.0336  17875.4  132.616
 16.0756  17729.9  132.396
 16.1176  17310.8  130.725
 16.1596  17148.7  131.453
 16.2016  17008.9  129.684
 16.2436  17200.6  130.795
 16.2856  17168.3  130.188
 16.3276  16678.6  128.761
 16.3696  17051.6  130.01
 16.4116  16831.9  129.62
 16.4536  16835.7  129.441
 16.4956  17366  131.196
 16.5376  16913.3  129.661
 16.5796  16575.2  127.716
 16.6216  16749.9  128.665
 16.6636  16437.6  127.649
 16.7056  16618.5  128.212
 16.7476  16854.1  128.642
 16.7896  16702.2  128.801
 16.8316  16727.9  128.887
 16.8736  16786.7  129.374
 16.9156  16634.9  129.111
 16.9576  16274.5  128.515
 16.9996  16337  129.23
 17.0416  16592  128.619
 17.0836  16426.1  127.731
 17.1256  16226.7  126.955
 17.1676  16473.5  127.884
 17.2096  16447.3  127.673
 17.2516  16303.9  127.207
 17.2936  15904  125.688
 17.3356  15791.4  125.223
 17.3776  15634.2  124.788
 17.4196  15675.5  124.656
 17.4616  15789.5  125.018
 17.5036  15855.2  125.646
 17.5456  15404  124.476
 17.5876  15428.9  123.62
 17.6296  15639.1  124.264
 17.6716  15298.5  123.511
 17.7136  15911.1  126.089
 17.7556  15434.4  124.482
 17.7976  15554.7  124.692
 17.8396  15331.9  123.302
 17.8816  14869.2  121.993
 17.9236  15176.8  123.027
 17.9656  15030.6  122.96
 18.0076  15363.2  123.873
 18.0496  15688.8  124.299
 18.0916  17823.9  133.091
 18.1336  17167.7  130.728
 18.1756  15683.5  124.489
 18.2176  15861.2  125.405
 18.2596  14878.2  121.188
 18.3016  15442  123.733
 18.3436  15692.8  124.74
 18.3856  15149.7  122.698
 18.4276  14872.5  121.249
 18.4696  14936.6  121.591
 18.5116  14965.8  121.981
 18.5536  14721  121.35
 18.5956  14605  120.433
 18.6376  14717.6  121.309
 18.6796  14705.4  120.568
 18.7216  14640.1  120.798
 18.7636  14710.1  121.085
 18.8056  14303.1  119.321
 18.8476  14108.2  119.133
 18.8896  14199.8  118.853
 18.9316  14443.4  119.846
 18.9736  14459.1  119.6
 19.0156  14420.9  119.88
 19.0576  14699.7  119.854
 19.0996  14476.3  119.667
 19.1416  14404.7  119.766
 19.1836  14209.8  118.559
 19.2256  13970.3  117.774
 19.2676  14203.2  118.831
 19.3096  14061.3  118.491
 19.3516  14386.2  119.606
 19.3936  14215.9  118.987
 19.4356  14360.7  119.475
 19.4776  14065.2  118.33
 19.5196  14192.7  118.715
 19.5616  14067  118.448
 19.6036  13952.9  117.458
 19.6456  14134.4  118.343
 19.6876  14454.2  119.301
 19.7296  14315  119.198
 19.7716  14247.3  119.092
 19.8136  14605.9  120.779
 19.8556  14888.8  121.402
 19.8976  15058.7  122.161
 19.9396  14783.3  120.621
 19.9816  14624.2  120.224
 20.0236  14760.1  120.979
 20.0656  14167.6  118.517
 20.1076  14067.9  118.584
 20.1496  13856.1  117.679
 20.1916  13918.2  117.419
 20.2336  13922.1  117.406
 20.2756  13629.2  116.593
 20.3176  13373.9  115.25
 20.3596  13430.9  115.478
 20.4016  13647.8  116.199
 20.4436  13497.3  116.121
 20.4856  13526.3  116.039
 20.5276  13301.4  115.533
 20.5696  13327.9  115.201
 20.6116  13466.1  115.971
 20.6536  13380.3  115.117
 20.6956  13405.3  115.349
 20.7376  13259.7  114.931
 20.7796  13222.8  114.47
 20.8216  13450.5  115.163
 20.8636  13499.7  115.752
 20.9056  13801.2  116.971
 20.9476  13400  115.106
 20.9896  13980.9  117.436
 21.0316  13361.5  114.7
 21.0736  13483.9  115.753
 21.1156  13575.2  116.303
 21.1576  13507.1  116.056
 21.1996  13120.3  114.368
 21.2416  13224  114.629
 21.2836  13258.5  114.767
 21.3256  13305.1  115.04
 21.3676  13216.2  114.18
 21.4096  13288.4  114.882
 21.4516  12977.3  113.343
 21.4936  12790.1  112.802
 21.5356  13042.4  113.847
 21.5776  13049.3  113.707
 21.6196  12947.6  113.306
 21.6616  12857.2  112.988
 21.7036  12972.2  113.262
 21.7456  12903.4  113.04
 21.7876  12739.5  112.08
 21.8296  12763.4  112.029
 21.8716  12924.9  112.977
 21.9136  13039.3  113.676
 21.9556  12949.9  112.955
 21.9976  12810.1  112.372
 22.0396  12794.2  112.559
 22.0816  12706  112.689
 22.1236  12999.4  113.447
 22.1656  12862.6  112.984
 22.2076  12635.9  111.445
 22.2496  12555.6  111.126
 22.2916  12497.5  110.746
 22.3336  12733.4  112.52
 22.3756  12471.2  111.068
 22.4176  12404.9  110.632
 22.4596  12296.8  110.725
 22.5016  12642.6  111.78
 22.5436  12720.9  111.99
 22.5856  12860.8  112.862
 22.6276  12702.7  112.302
 22.6696  12433.6  111.456
 22.7116  12482.3  111.191
 22.7536  12606.8  111.718
 22.7956  12521.3  110.677
 22.8376  12285.4  110.135
 22.8796  12461.3  110.726
 22.9216  12448.3  111.206
 22.9636  12467.9  110.45
 23.0056  12398.5  110.279
 23.0476  12552.6  111.529
 23.0896  12741.2  111.744
 23.1316  12740.4  112.181
 23.1736  12595.3  114.488
 23.2156  12804.8  112.786
 23.2576  12793.6  112.875
 23.2996  12580.2  111.698
 23.3416  12739.8  112.943
 23.3836  12572.9  111.43
 23.4256  12817.6  112.632
 23.4676  12810.9  112.285
 23.5096  12711.5  112.513
 23.5516  12637  111.484
 23.5936  12889.5  113.514
 23.6356  13068.2  113.957
 23.6776  12541.9  111.846
 23.7196  12753.9  112.584
 23.7616  12706.4  112.065
 23.8036  12923.4  113.083
 23.8456  12494.4  110.728
 23.8876  12522.2  111.214
 23.9296  12528.7  111.735
 23.9716  12587.9  111.2
 24.0136  12639.3  112.34
 24.0556  12369  110.838
 24.0976  12268.9  110.212
 24.1396  12163.7  112.384
 24.1816  12365.5  111.698
 24.2236  12291.2  111.003
 24.2656  12299.6  110.505
 24.3076  12245.7  110.536
 24.3496  12235.8  110.371
 24.3916  12486.9  111.546
 24.4336  12287.8  110.856
 24.4756  12309.8  110.842
 24.5176  12058.8  109.33
 24.5596  12080.5  109.756
 24.6016  11761.7  108.399
 24.6436  12074.2  109.324
 24.6856  11948.4  108.499
 24.7276  11822.3  108.254
 24.7696  12065.1  109.467
 24.8116  11696.9  107.961
 24.8536  11941.4  109.087
 24.8956  11725.6  107.827
 24.9376  11791.2  108.307
 24.9796  11599.5  107.532
 25.0216  11626.6  107.777
 25.0636  11763.5  108.061
 25.1056  11500  107.543
 25.1476  11441.6  108.889
 25.1896  11372.8  107.085
 25.2316  11384.1  106.401
 25.2736  11381.8  106.052
 25.3156  11355.8  105.997
 25.3576  11218.9  105.795
 25.3996  11326.8  106.287
 25.4416  11285.7  106.073
 25.4836  11080.5  105.623
 25.5256  11201.5  105.551
 25.5676  11283.8  105.673
 25.6096  11054.9  105.163
 25.6516  11136.2  105.061
 25.6936  11190.4  105.625
 25.7356  11167.7  105.66
 25.7776  11237.7  105.654
 25.8196  11157.7  105.442
 25.8616  10962.4  104.448
 25.9036  11324.6  105.61
 25.9456  11053.2  104.945
 25.9876  11147.8  105.308
 26.0296  11132.2  104.895
 26.0716  11223.9  105.752
 26.1136  11248.2  105.795
 26.1556  11041.8  104.198
 26.1976  11060.2  105.228
 26.2396  10921.4  103.709
 26.2816  11046.5  104.93
 26.3236  11072.3  105.201
 26.3656  11139.7  105.24
 26.4076  10890.1  104.259
 26.4496  11149.8  105.068
 26.4916  11253.9  105.477
 26.5336  11348.8  106.26
 26.5756  11689.7  107.722
 26.6176  11237  105.634
 26.6596  11086.2  105.232
 26.7016  10759.9  103.437
 26.7436  11027.8  104.852
 26.7856  10754.1  103.52
 26.8276  10767.6  103.557
 26.8696  10740  103.296
 26.9116  10755.4  103.304
 26.9536  10622  102.712
 26.9956  10589.6  102.589
 27.0376  10607.1  102.901
 27.0796  10630.4  102.739
 27.1216  10731.5  103.278
 27.1636  10404.7  101.872
 27.2056  10511.2  102.269
 27.2476  10673.1  103.043
 27.2896  10445.7  102.061
 27.3316  10379.8  101.459
 27.3736  10322.6  101.445
 27.4156  10500.3  102.157
 27.4576  10478.6  102.277
 27.4996  10607.3  102.499
 27.5416  10537.8  102.464
 27.5836  10319.3  101.239
 27.6256  10406.5  101.836
 27.6676  10436.3  101.985
 27.7096  10500  102.174
 27.7516  10603.6  102.825
 27.7936  10858  104.2
 27.8356  10806.8  103.558
 27.8776  10753.3  103.367
 27.9196  10414.2  101.585
 27.9616  10614.4  102.761
 28.0036  10427  101.81
 28.0456  10259.6  101.126
 28.0876  10119.8  100.526
 28.1296  10269.6  101.098
 28.1716  10394.6  101.73
 28.2136  10222.5  100.85
 28.2556  10157.9  100.649
 28.2976  10136.1  100.53
 28.3396  10190.3  100.552
 28.3816  10215.1  100.693
 28.4236  10214.5  100.841
 28.4656  9975.29  99.6898
 28.5076  9911.75  99.0203
 28.5496  9981.59  99.6233
 28.5916  10112.3  100.084
 28.6336  10059.9  100.163
 28.6756  10075.1  99.4299
 28.7176  10056  99.8992
 28.7596  9836.79  98.6962
 28.8016  9932.82  99.216
 28.8436  9927.96  99.4338
 28.8856  9919.85  99.2429
 28.9276  9983.08  99.8071
 28.9696  9852.79  98.8072
 29.0116  9809.69  98.7698
 29.0536  9847.17  99.1756
 29.0956  9884.96  99.056
 29.1376  9861.7  98.9214
 29.1796  9877.16  99.0533
 29.2216  9675.82  97.874
 29.2636  9839.98  98.7763
 29.3056  9720.16  97.9443
 29.3476  9772.89  98.7492
 29.3896  9759.92  98.7935
 29.4316  9645.71  97.5485
 29.4736  9663.18  97.6947
 29.5156  9584.85  97.2208
 29.5576  9622.68  98.157
 29.5996  9580.21  97.1997
 29.6416  9531.91  97.077
 29.6836  9647.98  97.5898
 29.7256  9495.73  97.3766
 29.7676  9487.31  96.9918
 29.8096  9492.41  96.9654
 29.8516  9359.82  96.6122
 29.8936  9388.68  96.8572
 29.9356  9544.25  97.4102
 29.9776  9458.17  97.1242
 30.0196  9556.33  97.0204
 30.0616  9426.85  96.7272
 30.1036  9509.18  96.9791
 30.1456  9373.64  96.5073
 30.1876  9405.8  96.6621
 30.2296  9332.68  96.2247
 30.2716  9511.18  96.7772
 30.3136  9417.38  97.1586
 30.3556  9596.03  98.0768
 30.3976  9491.62  99.0064
 30.4396  9865.73  98.2772
 30.4816  9735.78  97.2347
 30.5236  9648.7  96.7979
 30.5656  9624.61  97.336
 30.6076  9630.36  97.1166
 30.6496  9513.65  96.5961
 30.6916  9462.09  96.4256
 30.7336  9806.07  98.3153
 30.7756  9437.5  96.5394
 30.8176  9577.41  97.1633
 30.8596  9534.43  96.696
 30.9016  9571.57  96.7754
 30.9436  9626.7  97.2846
 30.9856  9715.53  97.8408
 31.0276  9651.05  97.138
 31.0696  9436.85  96.6084
 31.1116  9608.53  97.4507
 31.1536  9499.69  96.7638
 31.1956  9416.22  96.4537
 31.2376  9218.61  95.4497
 31.2796  9498.33  96.4229
 31.3216  9467.13  96.1804
 31.3636  9513.69  97.1472
 31.4056  9393.7  97.8339
 31.4476  9512.63  96.3558
 31.4896  9368.55  96.1252
 31.5316  9457.68  95.9821
 31.5736  9910.01  98.0757
 31.6156  9796.18  97.508
 31.6576  9690.1  97.07
 31.6996  9641.11  96.4778
 31.7416  9534.61  96.909
 31.7836  9520.49  95.9733
 31.8256  9469.9  95.9859
 31.8676  9530.36  96.2825
 31.9096  9329.37  95.4825
 31.9516  9380.29  96.064
 31.9936  9247.71  95.2027
 32.0356  9427.23  96.1639
 32.0776  9426.46  96.0666
 32.1196  9569.95  96.804
 32.1616  9505.84  96.0099
 32.2036  9393.03  95.9588
 32.2456  9205.01  95.3757
 32.2876  9418.43  95.9617
 32.3296  9287.56  95.2573
 32.3716  9053.09  94.1559
 32.4136  9200.85  95.1154
 32.4556  9304.03  95.0333
 32.4976  9294.88  94.9334
 32.5396  9105.92  93.9837
 32.5816  9093.61  94.0497
 32.6236  9189.4  94.6102
 32.6656  9228.18  95.3618
 32.7076  9028.98  93.9808
 32.7496  9074.26  93.8905
 32.7916  9169.44  94.3389
 32.8336  8993.99  93.5255
 32.8756  9169.83  94.1509
 32.9176  9020  93.8673
 32.9596  9092.42  94.31
 33.0016  9104.69  94.1548
 33.0436  9031  93.9381
 33.0856  9045.91  94.1121
 33.1276  8968.44  93.444
 33.1696  9088.2  93.8797
 33.2116  9154.08  94.4695
 33.2536  9089.71  94.1234
 33.2956  9035.22  93.9304
 33.3376  8835.13  92.7101
 33.3796  9050.44  93.9674
 33.4216  9000.34  93.2879
 33.4636  8895.38  92.9026
 33.5056  8760  92.4419
 33.5476  8890.27  93.0981
 33.5896  8941.52  93.1658
 33.6316  8944.48  93.4851
 33.6736  8706.12  92.4727
 33.7156  8929.13  93.6914
 33.7576  8871.77  93.0267
 33.7996  8964.78  93.2631
 33.8416  8796.34  92.5788
 33.8836  8837.49  92.5705
 33.9256  8941.2  93.1638
 33.9676  8993.31  93.3354
 34.0096  8855.78  92.9347
 34.0516  8806.52  92.3042
 34.0936  8747.05  92.2673
 34.1356  8843.38  92.5175
 34.1776  8672.1  91.6109
 34.2196  8769.01  92.3122
 34.2616  8620.3  91.6637
 34.3036  8856.17  93.1528
 34.3456  8678.5  91.9692
 34.3876  8814.61  92.7486
 34.4296  8734.05  91.9271
 34.4716  8877.18  92.8283
 34.5136  8763.23  92.427
 34.5556  8670.27  92.1901
 34.5976  8821.21  92.8271
 34.6396  8690.25  91.8146
 34.6816  8838.77  92.702
 34.7236  8731.7  91.9126
 34.7656  8678.86  91.8438
 34.8076  8623.37  91.8858
 34.8496  8611.82  91.6717
 34.8916  8699.16  91.9928
 34.9336  8692.2  91.9454
 34.9756  8869.21  92.8232
 35.0176  8770.58  92.8137
 35.0596  8799.9  92.7864
 35.1016  8775.56  92.4127
 35.1436  8932.83  92.9129
 35.1856  8644.22  91.5254
 35.2276  8614.19  91.5407
 35.2696  8687.21  92.1201
 35.3116  8561.34  91.5562
 35.3536  8697.29  92.0068
 35.3956  8483.38  90.561
 35.4376  8662.16  92.0797
 35.4796  8576.35  91.654
 35.5216  8625.97  91.887
 35.5636  8395.6  91.3902
 35.6056  8574.02  91.3759
 35.6476  8573.49  91.2726
 35.6896  8572.85  91.3635
 35.7316  8474.46  90.8062
 35.7736  8416.62  90.6866
 35.8156  8528.77  91.2864
 35.8576  8513.03  91.4447
 35.8996  8623.19  92.0155
 35.9416  8649.29  91.6419
 35.9836  8398.51  90.768
 36.0256  8790.31  92.7614
 36.0676  8663.67  91.8417
 36.1096  8565.15  91.4586
 36.1516  8525.24  91.1466
 36.1936  8577.48  91.2608
 36.2356  8630.15  92.2019
 36.2776  8497.06  90.9428
 36.3196  8413.69  90.1811
 36.3616  8521.91  90.8869
 36.4036  8454.06  90.5934
 36.4456  8542.01  91.2808
 36.4876  8363.02  90.2556
 36.5296  8459.81  90.8127
 36.5716  8355  91.0337
 36.6136  8466.8  90.4092
 36.6556  8276.64  89.582
 36.6976  8230.52  89.832
 36.7396  8353.36  90.2361
 36.7816  8085.9  89.1464
 36.8236  8198.34  89.6869
 36.8656  8045.4  88.9157
 36.9076  8210.9  89.7104
 36.9496  8095.16  89.0551
 36.9916  8123.17  88.845
 37.0336  8339.91  90.3337
 37.0756  8201.8  89.3806
 37.1176  8036.89  88.7417
 37.1596  8123.98  89.2294
 37.2016  8149.57  89.5933
 37.2436  8195.62  89.1655
 37.2856  8109.24  88.9518
 37.3276  8218.33  88.8959
 37.3696  7965.87  88.3941
 37.4116  8095.82  89.0127
 37.4536  8070.63  88.7441
 37.4956  7941.83  88.0697
 37.5376  8150.48  90.8177
 37.5796  8213.58  91.1017
 37.6216  8123.69  88.8577
 37.6636  8277.82  89.5841
 37.7056  8209.66  89.4034
 37.7476  8424.33  90.1016
 37.7896  8052.8  88.5932
 37.8316  8103.69  89.0395
 37.8736  8248.55  89.3497
 37.9156  8139.73  88.756
 37.9576  8171.76  88.8383
 37.9996  8079.21  88.0426
 38.0416  8186.16  89.4313
 38.0836  8239.28  89.6312
 38.1256  8187.98  89.3235
 38.1676  7931.13  88.0337
 38.2096  8305.89  89.7021
 38.2516  8199.31  89.3381
 38.2936  8292.13  89.6387
 38.3356  8185.72  88.9838
 38.3776  8075.2  88.6243
 38.4196  8162.83  88.9708
 38.4616  8153.03  89.17
 38.5036  8369.05  90.1805
 38.5456  8080.24  89.4536
 38.5876  8035.78  89.2278
 38.6296  8153.81  88.8546
 38.6716  8104.17  88.3834
 38.7136  7945.76  87.4591
 38.7556  8096.91  88.7995
 38.7976  8119.19  88.827
 38.8396  8122.1  89.328
 38.8816  7999.82  88.4433
 38.9236  8173.05  89.1817
 38.9656  8114.29  88.7797
 39.0076  8206.61  88.6748
 39.0496  8186.99  89.1306
 39.0916  8141.42  88.5278
 39.1336  8134.72  88.8997
 39.1756  8012.59  88.2853
 39.2176  8000.05  88.7558
 39.2596  8145.66  89.4878
 39.3016  8148.45  89.0882
 39.3436  8055.44  88.9848
 39.3856  8121.67  88.7898
 39.4276  8097.52  89.1754
 39.4696  8122.42  88.9303
 39.5116  8079.95  89.2131
 39.5536  8025.95  89.3269
 39.5956  7982.07  88.1905
 39.6376  8040.35  88.4995
 39.6796  8069.91  88.4157
 39.7216  7987.79  88.0629
 39.7636  7995.23  88.6625
 39.8056  8152.08  89.3168
 39.8476  7985.84  88.6557
 39.8896  8074.47  88.776
 39.9316  7942.52  88.2932
 39.9736  8089.79  88.6873
 40.0156  8033.54  88.2013
 40.0576  8060.39  88.7085
 40.0996  8150.53  88.375
 40.1416  8024.11  88.4849
 40.1836  8078.55  88.6687
 40.2256  8013.26  88.3533
 40.2676  7835.98  87.5431
 40.3096  8079.95  88.7483
 40.3516  8092.36  88.9304
 40.3936  8091.46  88.4819
 40.4356  8012.12  88.2549
 40.4776  8119.46  89.0757
 40.5196  8114.16  89.3503
 40.5616  8209.31  89.507
 40.6036  7986.06  88.5426
 40.6456  8001.54  88.2269
 40.6876  8220.29  89.4204
 40.7296  8056.11  88.6527
 40.7716  8113.86  89.0872
 40.8136  8009.11  88.466
 40.8556  8134.1  89.2826
 40.8976  8082.31  88.9226
 40.9396  8177.1  89.7973
 40.9816  8176.93  89.0719
 41.0236  8070.27  88.2735
 41.0656  8159.88  89.3092
 41.1076  8039.19  88.4161
 41.1496  8138.51  88.8535
 41.1916  7982.3  88.3272
 41.2336  8052.13  88.7088
 41.2756  8033.06  88.2051
 41.3176  8113.11  89.2573
 41.3596  8096.86  88.908
 41.4016  8059.12  88.9565
 41.4436  8066.91  88.7872
 41.4856  7954.23  88.3298
 41.5276  8048.85  88.8685
 41.5696  7996.88  88.2196
 41.6116  8031.15  88.7866
 41.6536  8069.74  88.8623
 41.6956  8121.3  89.1236
 41.7376  7998.11  88.5544
 41.7796  7960.64  88.2271
 41.8216  7971.68  88.5227
 41.8636  8047.17  88.8837
 41.9056  7932.96  88.0403
 41.9476  7988.24  88.5827
 41.9896  8170.33  89.2512
 42.0316  8092.13  88.9101
 42.0736  8224.69  89.7713
 42.1156  7916.79  87.8738
 42.1576  8025.53  88.5881
 42.1996  8058.11  88.8984
 42.2416  8049.87  88.4354
 42.2836  7888.63  87.6602
 42.3256  7968.96  88.2191
 42.3676  8075.78  88.6131
 42.4096  8037.12  88.3644
 42.4516  8127.69  88.9405
 42.4936  7950.94  88.0448
 42.5356  7922.95  88.0288
 42.5776  7980.05  88.2809
 42.6196  8064.05  88.8068
 42.6616  7817.6  87.6052
 42.7036  7973.09  87.8494
 42.7456  8016.54  88.4443
 42.7876  7945.97  88.1389
 42.8296  7976.05  88.1491
 42.8716  7903.68  87.9173
 42.9136  7836.83  87.2928
 42.9556  7983.72  88.2853
 42.9976  7922.27  87.9064
 43.0396  7908.57  87.5532
 43.0816  7895.21  87.8737
 43.1236  7922.55  88.074
 43.1656  7950.9  88.0448
 43.2076  7849.3  87.6037
 43.2496  7964.37  88.0606
 43.2916  7875.52  87.9246
 43.3336  8049.14  88.726
 43.3756  7941.48  87.8895
 43.4176  7893.37  87.6979
 43.4596  7831.55  87.21
 43.5016  7899.94  87.9903
 43.5436  7772.67  87.1943
 43.5856  7789.33  87.3118
 43.6276  7802.56  87.2722
 43.6696  7858.25  87.8462
 43.7116  7973.65  87.9773
 43.7536  7935.56  88.2744
 43.7956  7828.15  88.8888
 43.8376  7772.31  87.0955
 43.8796  7715.58  86.8507
 43.9216  7700.92  86.6821
 43.9636  7681.83  86.6837
 44.0056  7587.93  86.3876
 44.0476  7620.77  86.1987
 44.0896  7641.45  86.6657
 44.1316  7805.18  87.1063
 44.1736  7621.75  86.2007
 44.2156  7671.4  86.3287
 44.2576  7763.24  87.1805
 44.2996  7752.34  87.0941
 44.3416  7727.08  86.7014
 44.3836  7445.46  85.4294
 44.4256  7552.14  85.6851
 44.4676  7573.2  85.9654
 44.5096  7711.92  86.8946
 44.5516  7499.03  85.6513
 44.5936  7568.9  86.0032
 44.6356  7569.53  85.7437
 44.6776  7657.78  86.5684
 44.7196  7634.34  86.7365
 44.7616  7677.74  88.327
 44.8036  7744.27  87.3105
 44.8456  7768.98  87.4525
 44.8876  7748.86  87.1774
 44.9296  7891.57  87.4193
 44.9716  7807.98  87.3948
 45.0136  7665.84  86.5294
 45.0556  7848.58  87.6424
 45.0976  7717.09  86.9602
 45.1396  7614.78  86.0929
 45.1816  7672.24  86.3872
 45.2236  7760.5  86.7917
 45.2656  7575.43  86.2424
 45.3076  7741.4  86.9592
 45.3496  7502.9  85.9198
 45.3916  7630  86.9239
 45.4336  7705  87.1958
 45.4756  7670.6  86.8455
 45.5176  7771.2  87.0272
 45.5596  7724.73  86.8858
 45.6016  7749.89  87.461
 45.6436  7726.13  86.4827
 45.6856  7606.29  86.4614
 45.7276  7499.31  87.1813
 45.7696  7610.35  87.5145
 45.8116  7593.86  86.8484
 45.8536  7583.72  86.6757
 45.8956  7609.37  86.1762
 45.9376  7647.54  85.8523
 45.9796  7639.37  86.5015
 46.0216  7713.52  87.259
 46.0636  7754.75  86.6272
 46.1056  7621.81  85.8707
 46.1476  7716.17  86.9995
 46.1896  7658  86.8153
 46.2316  7674.97  86.7871
 46.2736  7685.02  87.0568
 46.3156  7696.61  86.8683
 46.3576  7649.24  86.8007
 46.3996  7641.23  86.9168
 46.4416  7667.38  86.6042
 46.4836  7619.96  86.7349
 46.5256  7727.99  87.2767
 46.5676  7526.44  86.2507
 46.6096  7721.87  87.2948
 46.6516  7640.48  85.8567
 46.6936  7644.43  86.3862
 46.7356  7818.66  87.4559
 46.7776  7603.09  87.1109
 46.8196  7508.26  86.3063
 46.8616  7564.88  86.4213
 46.9036  7481.33  85.6019
 46.9456  7572.19  85.748
 46.9876  7604.55  86.019
 47.0296  7595.55  86.6671
 47.0716  7514.47  86.0286
 47.1136  7574.9  86.0484
 47.1556  7560.88  85.8339
 47.1976  7592.33  86.1656
 47.2396  7356.91  85.148
 47.2816  7403.02  85.1124
 47.3236  7554.99  86.3564
 47.3656  7541.32  86.2012
 47.4076  7591.63  86.216
 47.4496  7374.11  85.1477
 47.4916  7486.32  85.9785
 47.5336  7591.91  86.391
 47.5756  7548.09  86.268
 47.6176  7483.17  85.79
 47.6596  7412.83  85.1041
 47.7016  7708.14  86.5902
 47.7436  7582.28  86.2238
 47.7856  7655.43  86.6573
 47.8276  7395.68  85.2385
 47.8696  7557.8  86.2418
 47.9116  7446.34  85.312
 47.9536  7448.83  85.2717
 47.9956  7336.35  85.3433
 48.0376  7430.5  85.6614
 48.0796  7430.2  85.784
 48.1216  7526.94  86.1637
 48.1636  7596  86.1118
 48.2056  7604.18  86.4334
 48.2476  7523.35  86.295
 48.2896  7524.7  86.1998
 48.3316  7452.47  85.7306
 48.3736  7521.04  86.1444
 48.4156  7538.15  86.0892
 48.4576  7416.38  85.6923
 48.4996  7576  86.0557
 48.5416  7527.48  86.112
 48.5836  7482.15  85.5178
 48.6256  7477.16  85.6995
 48.6676  7506.41  86.3975
 48.7096  7513.42  85.6826
 48.7516  7475.05  85.6223
 48.7936  7377.57  85.1262
 48.8356  7461.37  85.6596
 48.8776  7428.52  86.0485
 48.9196  7556.18  86.1429
 48.9616  7447.22  85.9008
 49.0036  7532.37  86.7579
 49.0456  7525.38  86.694
 49.0876  7571.94  86.4691
 49.1296  7439.21  85.8925
 49.1716  7374.83  85.3874
 49.2136  7530.34  86.2122
 49.2556  7452.41  85.7808
 49.2976  7371.58  85.3949
 49.3396  7290.2  84.9745
 49.3816  7567.33  85.9888
 49.4236  7428.54  85.6332
 49.4656  7297.78  84.8936
 49.5076  7501.23  85.8114
 49.5496  7388.77  85.2361
 49.5916  7418.71  85.3146
 49.6336  7391.88  85.3625
 49.6756  7540.14  86.4601
 49.7176  7363.5  85.3846
 49.7596  7412.73  85.4246
 49.8016  7434.53  85.4736
 49.8436  7373.51  85.4276
 49.8856  7294.88  84.971
 49.9276  7403.31  85.7085
 49.9696  7471.72  86.0851
 50.0116  7370.06  85.6185
 50.0536  7374.89  85.6041
 50.0956  7377.35  85.6895
 50.1376  7388.21  85.4357
 50.1796  7358.62  85.5534
 50.2216  7318.98  85.3136
 50.2636  7357.61  85.1492
 50.3056  7347.4  85.2682
 50.3476  7234.99  84.6382
 50.3896  7297.02  84.9717
 50.4316  7385.66  85.3063
 50.4736  7256.31  84.7832
 50.5156  7345.29  85.2876
 50.5576  7407.21  85.4024
 50.5996  7365.11  85.4537
 50.6416  7425.06  85.7113
 50.6836  7349.44  85.3434
 50.7256  7344.4  85.2324
 50.7676  7369.99  85.7168
 50.8096  7267.69  84.6415
 50.8516  7329.7  85.4295
 50.8936  7170.53  84.2802
 50.9356  7362.24  85.5077
 50.9776  7333.83  85.5038
 51.0196  7081.13  84.1493
 51.0616  7171.91  83.9984
 51.1036  7176.4  84.3862
 51.1456  7264.98  84.8195
 51.1876  7146.41  83.4446
 51.2296  7227.82  84.5748
 51.2716  7187.76  84.0292
 51.3136  7147.87  84.2737
 51.3556  7178.94  84.0624
 51.3976  7144.45  84.0213
 51.4396  7045.87  83.7554
 51.4816  7163.26  84.3007
 51.5236  7195.59  84.5833
 51.5656  7105  83.6317
 51.6076  7188.28  84.211
 51.6496  7067.95  83.6894
 51.6916  7084.41  84.1617
 51.7336  7078.29  84.2113
 51.7756  7147.86  84.3139
 51.8176  7132.91  84.3392
 51.8596  7069.68  83.9797
 51.9016  7230.68  84.52
 51.9436  7241.67  86.1269
 51.9856  7133.45  85.909
 52.0276  7205.9  84.7805
 52.0696  7249.76  85.1141
 52.1116  7007.73  83.7967
 52.1536  7153.1  84.497
 52.1956  7211.55  84.3341
 52.2376  7256.47  84.7775
 52.2796  7221.98  84.3891
 52.3216  6985.4  83.6917
 52.3636  7208.99  84.5766
 52.4056  7159.91  84.1355
 52.4476  7026.49  83.7276
 52.4896  7097.68  84.1943
 52.5316  7197.12  84.8456
 52.5736  7024.12  83.5135
 52.6156  7196.48  84.9579
 52.6576  7022.2  83.3417
 52.6996  6870.14  83.4349
 52.7416  6947.83  83.7531
 52.7836  7132.98  84.7536
 52.8256  7155.71  84.0727
 52.8676  6819.69  82.6482
 52.9096  7098.5  84.4032
 52.9516  7113.77  84.9049
 52.9936  7064.38  84.9895
 53.0356  7256.68  85.1115
 53.0776  7153.25  84.7814
 53.1196  7104.56  84.6146
 53.1616  7026.94  84.2063
 53.2036  7015.92  84.0969
 53.2456  7001.68  84.1226
 53.2876  6964.14  83.5797
 53.3296  7030.01  84.3091
 53.3716  7227.52  85.2248
 53.4136  7044.87  84.3
 53.4556  7054.17  84.3799
 53.4976  7024.66  84.0482
 53.5396  6971.93  84.1306
 53.5816  7138.55  84.7527
 53.6236  7000.23  84.2919
 53.6656  7080.3  84.3671
 53.7076  7181.23  84.9298
 53.7496  7125.1  84.7178
 53.7916  7075.21  84.5596
 53.8336  7085.12  84.503
 53.8756  6889.5  83.9028
 53.9176  6953.84  83.6182
 53.9596  6745.28  83.1137
 54.0016  6798.68  82.7596
 54.0436  6720.16  82.5075
 54.0856  6768.2  82.2061
 54.1276  6838.15  82.8423
 54.1696  6819.85  82.9074
 54.2116  6928.08  83.3021
 54.2536  6712.16  81.7963
 54.2956  6781.05  82.2691
 54.3376  6834.52  83.0917
 54.3796  6687.32  82.0884
 54.4216  6753.39  82.5479
 54.4636  6776.61  82.6551
 54.5056  6844.93  82.8651
 54.5476  6682.54  82.2204
 54.5896  6689.69  82.1048
 54.6316  6723.75  82.1519
 54.6736  6716.93  82.1969
 54.7156  6677.71  81.9913
 54.7576  6638  81.7244
 54.7996  6804.69  82.9122
 54.8416  6697.9  82.3031
 54.8836  6698.35  82.3914
 54.9256  6628.5  81.7179
 54.9676  6636.23  81.6209
 55.0096  6640.89  81.7076
 55.0516  6510.79  81.1078
 55.0936  6618.01  81.4553
 55.1356  6503.58  80.7888
 55.1776  6742.44  82.5119
 55.2196  6715.73  82.1442
 55.2616  6659.62  82.0116
 55.3036  6523.04  81.345
 55.3456  6489.72  81.2647
 55.3876  6586.99  81.6056
 55.4296  6452.28  80.7569
 55.4716  6530.84  81.2814
 55.5136  6646.02  81.7447
 55.5556  6684.35  82.0346
 55.5976  6655.37  81.9272
 55.6396  6550.76  81.1399
 55.6816  6531.44  80.9915
 55.7236  6513.05  80.9289
 55.7656  6630.9  81.3593
 55.8076  6472.93  80.4169
 55.8496  6697.54  82.2348
 55.8916  6445.21  80.7606
 55.9336  6644.49  81.8277
 55.9756  6508.8  80.8691
 56.0176  6462.53  80.7206
 56.0596  6492.85  80.9192
 56.1016  6375.25  80.1856
 56.1436  6442  80.8736
 56.1856  6393.81  80.3115
 56.2276  6688.7  82.1986
 56.2696  6452.25  80.6903
 56.3116  6696.36  82.6036
 56.3536  6495.16  80.9923
 56.3956  6478.96  80.8894
 56.4376  6447.46  80.7407
 56.4796  6371.78  80.0876
 56.5216  6408.38  80.6926
 56.5636  6387.67  80.1458
 56.6056  6566.57  81.4866
 56.6476  6412.73  80.1421
 56.6896  6678.14  82.2402
 56.7316  6367.57  80.2222
 56.7736  6520.21  81.1902
 56.8156  6371.49  80.2846
 56.8576  6268.61  79.5533
 56.8996  6447.26  80.5832
 56.9416  6376.85  80.4815
 56.9836  6462.91  80.5267
 57.0256  6270.96  79.6299
 57.0676  6486.2  81.1144
 57.1096  6456.96  80.7223
 57.1516  6334.34  79.9651
 57.1936  6458.7  80.518
 57.2356  6285.68  79.7699
 57.2776  6342.97  80.0861
 57.3196  6433.13  81.0102
 57.3616  6460.72  80.6661
 57.4036  6344.78  80.0048
 57.4456  6410.39  80.3881
 57.4876  6361.5  79.9539
 57.5296  6366.69  80.3097
 57.5716  6297.71  79.8928
 57.6136  6210.9  79.1741
 57.6556  6424.25  80.6421
 57.6976  6376.03  80.1679
 57.7396  6275.25  79.8877
 57.7816  6192.72  79.7337
 57.8236  6264.23  79.9937
 57.8656  6382.76  80.4012
 57.9076  6380.2  80.3966
 57.9496  6263.92  80.029
 57.9916  6342.95  80.0327
 58.0336  6160.07  79.1499
 58.0756  6249.85  79.3487
 58.1176  6269.18  79.4801
 58.1596  6216  79.7276
 58.2016  6080  78.0632
 58.2436  6130.51  78.8048
 58.2856  6107.08  78.5712
 58.3276  6081.75  78.7827
 58.3696  6070.23  78.4671
 58.4116  5969.93  77.6771
 58.4536  6106.79  78.4486
 58.4956  5975.12  77.7769
 58.5376  6179.37  78.6564
 58.5796  6030.94  78.1268
 58.6216  6126.19  78.5656
 58.6636  6063.42  78.3616
 58.7056  6096.17  78.4405
 58.7476  5991.08  78.1912
 58.7896  6024.54  78.0685
 58.8316  5993.63  77.8671
 58.8736  5996.08  77.8904
 58.9156  6024.95  78.1218
 58.9576  6019.32  78.3987
 58.9996  6107.95  78.2299
 59.0416  6067.36  78.3251
 59.0836  6058.77  78.1762
 59.1256  5976.74  78.3559
 59.1676  5952.03  78.4978
 59.2096  6116.04  78.8661
 59.2516  6231.59  79.1822
 59.2936  6099.71  78.6695
 59.3356  6094.11  78.5106
 59.3776  5998.01  78.0575
 59.4196  6055.42  78.3665
 59.4616  5929.52  77.4084
 59.5036  5892.95  77.2041
 59.5456  6193.93  78.8408
 59.5876  6000.16  77.7882
 59.6296  6032.06  78.0639
 59.6716  5861.16  77.0072
 59.7136  6075.31  78.3896
 59.7556  6012.81  78.1215
 59.7976  5930.72  77.3309
 59.8396  6006.43  77.7176
 59.8816  6025.51  78.3856
 59.9236  6227.57  79.3272
 59.9656  5949.5  77.7945
 60.0076  6074.22  77.9614
 60.0496  5881.08  77.2077
 60.0916  6207.5  78.733
 60.1336  5972.95  78.3322
 60.1756  5961.6  79.4342
 60.1996  0.0000000E+00  0.0000000E+00