File: docs/examples/opeando_xrd/IS17_D/Data/IS17_D/17_Da_f00028.xye
# /beamlines/bl04/projects/cycle2025-II/20250340211-lsimonelli/DATA/IS17_D/17_Da_f00028.xye : mythproc.py merge -s 0.006 -l 0.5 -f /beamlines/bl04/inhouse/ff/FlatField/ff_20Nov2024rod8mm60s_17keV.raw -b True -c true -o xye /beamlines/bl04/projects/cycle2025-II/20250340211-lsimonelli/DATA/IS17_D/17_Da_00028.dat
# IsMon = [6779836, 6779133, 6783403]  IsPos = [-1.5000, -2.4885, -3.4986]
# Wave = 0.4962  CalPath /beamlines/bl04/projects/cycle2025-II/20250340211-lsimonelli/DATA/Align/Si_Pos1_25keV_f00001.cal
# Date = 2025-09-24_01:20:56 Dt = 4.8000  Bin = 0.0060  <imon> = 6780791 +/- 1869 (Min/Max) 6779133 / 6783403
# icurr 252.4241  mocoIn 1.7211E-05  mocoOut 0.8080  i15 7.09665e+06  imon 6.78079e+06  i7 5.0000  iEMpd_timer 4.8000  iEMpd_1 3.5443E-08  iEMpd_2 7.7931E-08  iEMpd_3 1.6251E-08  iEMpd_4 4.7755E-08  iEMhp_timer 4.8000  iEMhp_1 4.9306E-06  iEMhp_2 -2.5086E-08  iEMhp_3 -2.3445E-08  iEMhp_4 -2.1312E-08
#      9776
 1.5856  40060.5  205.538
 1.6276  47481.1  219.926
 1.6696  54002.4  233.716
 1.7116  62653.4  252.234
 1.7536  71335.4  267.997
 1.7956  76974.2  279.082
 1.8376  72489.1  271.26
 1.8796  60772.1  246.547
 1.9216  48671.6  221.517
 1.9636  41386.9  203.945
 2.0056  36890.2  191.317
 2.0476  34146.3  186.083
 2.0896  32676.9  180.967
 2.1316  31730.7  177.471
 2.1736  29838.5  173.463
 2.2156  30489.6  173.938
 2.2576  29601.9  171.998
 2.2996  28313.4  168.834
 2.3416  28626.9  168.41
 2.3836  28196  167.242
 2.4256  27166.6  164.696
 2.4676  26805.7  163.366
 2.5096  26318.3  161.927
 2.5516  26271.3  165.535
 2.5936  26096.1  161.651
 2.6356  25689.4  161.063
 2.6776  25336  158.862
 2.7196  25275.8  159.183
 2.7616  25099.3  158.407
 2.8036  24675.2  157.234
 2.8456  24808.4  158.259
 2.8876  24440.9  156.941
 2.9296  23940.5  155.473
 2.9716  23918.4  154.901
 3.0136  23579.1  153.864
 3.0556  23596.6  154.312
 3.0976  23513.1  152.988
 3.1396  23229.8  152.771
 3.1816  22958.6  151.814
 3.2236  22698.7  150.944
 3.2656  22843.9  150.486
 3.3076  22582.6  151.044
 3.3496  23034.1  151.738
 3.3916  23209.5  151.899
 3.4336  23764.1  154.28
 3.4756  24173.5  155.529
 3.5176  24886.9  157.601
 3.5596  24746.6  160.075
 3.6016  25142.6  158.455
 3.6436  24166.7  156.438
 3.6856  23694.2  153.221
 3.7276  22853.9  151.559
 3.7696  22689.2  150.992
 3.8116  22110.1  149.144
 3.8536  22341.6  149.852
 3.8956  22333.5  149.659
 3.9376  21960.5  148.679
 3.9796  22168.9  148.87
 4.0216  22261.3  148.238
 4.0636  22240.4  149.614
 4.1056  22196.8  149.12
 4.1476  22392.6  150.08
 4.1896  22784.4  151.252
 4.2316  22829.4  151.221
 4.2736  23304.1  152.583
 4.3156  23544.3  153.587
 4.3576  24333.1  156.07
 4.3996  24527.7  156.748
 4.4416  25082  158.301
 4.4836  25722.2  160.462
 4.5256  26010.1  161.965
 4.5676  26143.4  162.631
 4.6096  26646.1  163.21
 4.6516  26832  163.127
 4.6936  27302.6  165.355
 4.7356  27360.4  165.368
 4.7776  27261.2  164.898
 4.8196  26950.4  164.607
 4.8616  26544.7  162.977
 4.9036  26330.4  161.93
 4.9456  26030.6  161.654
 4.9876  25636.5  160.324
 5.0296  25813.6  160.69
 5.0716  25854.2  161.451
 5.1136  25835.9  161.245
 5.1556  26230.2  161.944
 5.1976  26843.2  163.82
 5.2396  26817.5  163.436
 5.2816  26719.4  163.595
 5.3236  26893  163.835
 5.3656  26413.3  163.282
 5.4076  26308  163.108
 5.4496  26377  162.81
 5.4916  26434.3  162.743
 5.5336  26395  162.628
 5.5756  26317.2  162.419
 5.6176  26426.3  162.196
 5.6596  26668.6  163.757
 5.7016  26867.8  163.783
 5.7436  26867.7  164.056
 5.7856  26724.5  163.679
 5.8276  27078.3  164.479
 5.8696  27157.5  164.781
 5.9116  27074.8  165.206
 5.9536  27486.1  166.242
 5.9956  27558.5  165.836
 6.0376  27555.1  166.453
 6.0796  27898.4  167.312
 6.1216  27920.9  167.585
 6.1636  28269.1  167.696
 6.2056  28185.8  168.109
 6.2476  28328.1  168.23
 6.2896  28517.5  168.653
 6.3316  28537.4  168.888
 6.3736  28744.2  169.388
 6.4156  28670  169.124
 6.4576  28890.1  169.324
 6.4996  29059.9  170.298
 6.5416  28879.8  169.905
 6.5836  29013.3  170.526
 6.6256  29142.4  170.471
 6.6676  29682.2  171.612
 6.7096  29322.2  171.413
 6.7516  29640.2  171.997
 6.7936  30074.4  172.426
 6.8356  30155.2  172.99
 6.8776  30514.7  174.816
 6.9196  30410.3  174.919
 6.9616  30801.8  175.461
 7.0036  31157.9  176.157
 7.0456  31284.4  175.811
 7.0876  31296.2  177.444
 7.1296  31047.6  175.964
 7.1716  31116.5  175.693
 7.2136  30749.1  174.443
 7.2556  31171.2  175.8
 7.2976  30981.2  175.755
 7.3396  30929  175.822
 7.3816  31007.6  176.254
 7.4236  31233.6  176.191
 7.4656  31261.5  175.762
 7.5076  31487  176.526
 7.5496  31619.3  177.424
 7.5916  31419.2  176.899
 7.6336  31728.8  177.666
 7.6756  31793.3  177.7
 7.7176  32197.4  179.14
 7.7596  32275.9  180.588
 7.8016  32440.9  183.196
 7.8436  33040.5  181.585
 7.8856  33211.4  181.668
 7.9276  33839.8  183.763
 7.9696  34248.1  185.189
 8.0116  35013.3  186.147
 8.0536  34996.6  185.998
 8.0956  35073.8  187.379
 8.1376  35568.2  188.165
 8.1796  35949.4  189.716
 8.2216  36443.4  189.754
 8.2636  36438.5  189.988
 8.3056  36331.6  190.464
 8.3476  36899.1  191.29
 8.3896  36886.2  191.764
 8.4316  37103.3  192.062
 8.4736  37312.7  192.069
 8.5156  36624.3  190.566
 8.5576  36605.8  191.494
 8.5996  36436.9  189.925
 8.6416  36515.5  191.386
 8.6836  36090  190.085
 8.7256  36569.4  190.802
 8.7676  35967.3  192.08
 8.8096  35878.9  189.177
 8.8516  35504.3  187.873
 8.8936  35364.8  187.341
 8.9356  35395.5  187.757
 8.9776  35486.6  188.111
 9.0196  35199  187.029
 9.0616  35259.1  186.659
 9.1036  34489.5  185.765
 9.1456  35039.1  186.6
 9.1876  34954.6  186.333
 9.2296  34763.8  185.232
 9.2716  34480  184.543
 9.3136  34174.4  183.707
 9.3556  34560.5  184.727
 9.3976  33208.6  181.594
 9.4396  33764.6  183.003
 9.4816  33013  180.823
 9.5236  32976.4  180.629
 9.5656  32836.3  180.561
 9.6076  32657.7  180.579
 9.6496  32280.7  179.472
 9.6916  32821.2  180.932
 9.7336  32597.1  180.104
 9.7756  32514.1  181.073
 9.8176  31929.5  179.007
 9.8596  31907.6  177.42
 9.9016  31567.7  176.468
 9.9436  31342.8  175.593
 9.9856  30866.2  174.633
 10.0276  30412.9  174.422
 10.0696  30946.4  175.005
 10.1116  29931.9  172.365
 10.1536  29677.4  171.311
 10.1956  29348.3  170.452
 10.2376  29000.1  168.949
 10.2796  29412.7  170.272
 10.3216  29244.8  169.91
 10.3636  28879.2  169.016
 10.4056  28744.5  169.019
 10.4476  28943.8  169.228
 10.4896  29130.3  169.232
 10.5316  28452.4  167.621
 10.5736  28397.3  168.189
 10.6156  27971  166.692
 10.6576  28179  165.889
 10.6996  27934.8  165.83
 10.7416  27523.2  164.836
 10.7836  27463.9  165.336
 10.8256  27003.4  164.364
 10.8676  27363.4  164.999
 10.9096  26659.9  162.894
 10.9516  26569.7  161.561
 10.9936  26412.8  161.28
 11.0356  26397.1  161.864
 11.0776  26297  160.876
 11.1196  25886.6  160.358
 11.1616  25623  159.232
 11.2036  25574.5  158.934
 11.2456  25513.5  159.441
 11.2876  25285  158.463
 11.3296  25403.5  158.732
 11.3716  25690.5  159.349
 11.4136  25545.2  159.75
 11.4556  25748.7  160.053
 11.4976  25964.7  159.713
 11.5396  26381.4  161.161
 11.5816  25893.7  160.101
 11.6236  25496.4  159.311
 11.6656  25240  157.467
 11.7076  24848.5  157.059
 11.7496  24482.2  159.773
 11.7916  24552.8  155.401
 11.8336  24224  155.252
 11.8756  23928.7  153.823
 11.9176  24342.6  155.057
 11.9596  23916  153.622
 12.0016  23910.1  154.393
 12.0436  24072.9  154.343
 12.0856  23699  153.662
 12.1276  23571.3  153.162
 12.1696  23647.4  152.559
 12.2116  23869.3  153.265
 12.2536  23221.9  151.962
 12.2956  23527.9  152.33
 12.3376  23306  151.819
 12.3796  23433.9  152.677
 12.4216  23345.4  151.629
 12.4636  23083.9  151.678
 12.5056  23389.5  151.954
 12.5476  23463.7  151.735
 12.5896  23411.9  152.187
 12.6316  22969.5  150.898
 12.6736  23322.8  152.374
 12.7156  22916.8  151.063
 12.7576  23317.1  152.619
 12.7996  23256.9  151.09
 12.8416  23284.1  152.214
 12.8836  23697.9  153.372
 12.9256  23764.6  152.637
 12.9676  23751.3  153.007
 13.0096  23681.6  153.87
 13.0516  23861.8  153.497
 13.0936  23792.6  153.391
 13.1356  24197.4  153.968
 13.1776  23697  153.326
 13.2196  24152.3  154.467
 13.2616  23929.3  154.054
 13.3036  23858.3  153.964
 13.3456  23843.1  153.893
 13.3876  23963.6  153.792
 13.4296  23710.1  153.121
 13.4716  24038.7  153.797
 13.5136  23815.4  153.229
 13.5556  23876.3  154.029
 13.5976  23939.8  154.378
 13.6396  24031.5  154.046
 13.6816  23407.6  152.398
 13.7236  24422.3  155.42
 13.7656  23836.3  154.088
 13.8076  23813.6  152.817
 13.8496  23633.3  153.01
 13.8916  23598  153.704
 13.9336  23575.3  152.863
 13.9756  23544.2  152.124
 14.0176  23440.2  152.46
 14.0596  23447.3  152.449
 14.1016  23170.9  151.941
 14.1436  22745.8  149.692
 14.1856  22638.4  149.626
 14.2276  22562.3  149.846
 14.2696  22477.9  149.416
 14.3116  22284.4  148.664
 14.3536  22021.1  147.967
 14.3956  21949  147.462
 14.4376  22193.6  148.056
 14.4796  22032.5  147.505
 14.5216  21611.9  146.877
 14.5636  21640.7  146.541
 14.6056  21670  146.224
 14.6476  21584  145.179
 14.6896  21275.6  144.672
 14.7316  20950  144.582
 14.7736  20876.9  143.486
 14.8156  20658  142.76
 14.8576  20680.8  142.692
 14.8996  20253.8  142.403
 14.9416  19995  141.49
 14.9836  20016.2  141.52
 15.0256  19803.8  139.71
 15.0676  19759.6  139.868
 15.1096  19650.3  139.22
 15.1516  19341.3  138.676
 15.1936  19317.5  138.021
 15.2356  19022.4  137.236
 15.2776  19046.1  136.914
 15.3196  18704  136.667
 15.3616  18678.4  136.324
 15.4036  18281.5  134.733
 15.4456  18820.9  136.129
 15.4876  18554.2  135.076
 15.5296  18208.2  134.099
 15.5716  18108.7  133.329
 15.6136  17896.7  132.874
 15.6556  17970.9  132.395
 15.6976  18044.3  132.74
 15.7396  17555.8  131.519
 15.7816  17663  131.44
 15.8236  17411.5  131.187
 15.8656  17565.7  131.566
 15.9076  17181.9  129.952
 15.9496  17076.6  132.297
 15.9916  17058.3  132.67
 16.0336  16888.9  128.935
 16.0756  16904.5  129.294
 16.1176  16841.6  128.965
 16.1596  16416.5  128.639
 16.2016  16661.2  128.353
 16.2436  16330  127.455
 16.2856  16484.5  127.605
 16.3276  16326.2  127.402
 16.3696  16368.2  127.386
 16.4116  15941.2  126.171
 16.4536  16237  127.119
 16.4956  16123.3  126.419
 16.5376  16077.7  126.415
 16.5796  16120.7  125.948
 16.6216  15963.8  125.637
 16.6636  16050.3  126.129
 16.7056  16039.9  125.958
 16.7476  15934.7  125.222
 16.7896  16025.8  126.179
 16.8316  15941.4  125.814
 16.8736  15809  125.549
 16.9156  15864.7  126.092
 16.9576  15736.1  126.385
 16.9996  15779.7  127.038
 17.0416  15959.1  126.138
 17.0836  15753.8  125.085
 17.1256  15421.2  123.766
 17.1676  15567.8  124.351
 17.2096  15641.6  124.52
 17.2516  15335.4  123.37
 17.2936  15221.5  122.944
 17.3356  15051.6  122.259
 17.3776  15050.3  122.438
 17.4196  15175.4  122.648
 17.4616  14984.6  121.79
 17.5036  14837.1  121.555
 17.5456  14702.8  121.629
 17.5876  14806.2  121.115
 17.6296  14730.2  120.607
 17.6716  14581.2  120.573
 17.7136  14530.8  120.505
 17.7556  14609.1  121.118
 17.7976  14606.9  120.725
 17.8396  14335.6  119.235
 17.8816  14369.6  119.911
 17.9236  14286.4  119.378
 17.9656  14387.6  120.483
 18.0076  14366.6  119.814
 18.0496  14477  119.422
 18.0916  14433.3  119.768
 18.1336  14495.3  120.129
 18.1756  14619.5  120.18
 18.2176  14388.7  119.444
 18.2596  14500.6  119.651
 18.3016  14522.9  119.993
 18.3436  14488.6  120.091
 18.3856  14400.1  119.622
 18.4276  14446.3  119.485
 18.4696  14322.1  119.061
 18.5116  14371.7  119.561
 18.5536  14484.1  120.381
 18.5956  14113.9  118.391
 18.6376  14081.3  118.654
 18.6796  14004.7  117.662
 18.7216  14190.6  119.005
 18.7636  13964.4  117.971
 18.8056  13975.8  117.958
 18.8476  13651.5  116.896
 18.8896  13766.5  117.034
 18.9316  14038.2  118.003
 18.9736  13711.9  116.487
 19.0156  13912.6  117.719
 19.0576  13685.4  115.657
 19.0996  13898.2  117.257
 19.1416  13642.4  116.559
 19.1836  13620.7  116.075
 19.2256  13652.4  116.42
 19.2676  13621.6  116.384
 19.3096  13681.7  116.879
 19.3516  13641  116.491
 19.3936  13642.5  116.635
 19.4356  13482.2  115.755
 19.4776  13488.5  115.878
 19.5196  13648.6  116.422
 19.5616  13493.7  116.005
 19.6036  13663.5  116.102
 19.6456  13655.6  116.327
 19.6876  13784.7  116.52
 19.7296  13599.7  116.188
 19.7716  13644.2  116.391
 19.8136  13778  117.315
 19.8556  13963.2  117.575
 19.8976  13833.5  117.099
 19.9396  13908.6  116.994
 19.9816  14169.3  118.325
 20.0236  14254.2  118.898
 20.0656  14294.6  119.063
 20.1076  14005.1  118.313
 20.1496  13767.4  117.311
 20.1916  13771.6  116.808
 20.2336  13473.7  115.517
 20.2756  13326.3  115.3
 20.3176  13280.7  114.853
 20.3596  13376.5  115.243
 20.4016  13337.1  114.878
 20.4436  13300.8  115.281
 20.4856  13129.9  114.327
 20.5276  12997.2  114.197
 20.5696  13004.7  113.802
 20.6116  12963.5  113.787
 20.6536  13048.1  113.735
 20.6956  13004.5  113.61
 20.7376  12996.8  113.802
 20.7796  12942  113.256
 20.8216  13029.2  113.347
 20.8636  12749.2  112.481
 20.9056  12881.4  113.015
 20.9476  12779.5  112.41
 20.9896  12803.2  112.378
 21.0316  13107.7  113.607
 21.0736  12818.6  112.856
 21.1156  12779.4  112.843
 21.1576  12875.6  113.315
 21.1996  12856.4  113.214
 21.2416  12771.7  112.677
 21.2836  12890.4  113.162
 21.3256  12627.4  112.082
 21.3676  12854.3  112.637
 21.4096  12811.1  112.807
 21.4516  12649.8  111.924
 21.4936  12580.3  111.855
 21.5356  12741.6  112.521
 21.5776  12662.5  112.012
 21.6196  12579  111.674
 21.6616  12386.5  110.9
 21.7036  12570.5  111.504
 21.7456  12587.1  111.655
 21.7876  12418.1  110.655
 21.8296  12442.4  110.619
 21.8716  12370.8  110.536
 21.9136  12638.7  111.92
 21.9556  12454.8  110.781
 21.9976  12303.8  110.118
 22.0396  12275.7  110.247
 22.0816  12375.4  111.227
 22.1236  12532.1  111.388
 22.1656  12315.1  110.591
 22.2076  12440  110.578
 22.2496  12337.9  110.157
 22.2916  12537.3  110.924
 22.3336  12542.4  111.641
 22.3756  12328.8  110.434
 22.4176  12344.8  110.365
 22.4596  12155.9  110.089
 22.5016  12487.4  111.055
 22.5436  12505.6  111.038
 22.5856  12390.4  110.778
 22.6276  12349  110.734
 22.6696  12378.4  111.199
 22.7116  12235.5  110.088
 22.7536  12404.3  110.816
 22.7956  12283.7  109.619
 22.8376  12279.4  110.108
 22.8796  12334.7  110.159
 22.9216  12474.4  111.32
 22.9636  12523.7  110.704
 23.0056  12444  110.484
 23.0476  12462.4  111.135
 23.0896  12595.8  111.104
 23.1316  12570.2  111.423
 23.1736  12278.1  113.04
 23.2156  12728.9  112.362
 23.2576  12439.2  111.295
 23.2996  12466.1  111.196
 23.3416  12353  111.211
 23.3836  12457.6  110.891
 23.4256  12406.1  110.811
 23.4676  12330.1  110.16
 23.5096  12284.4  110.628
 23.5516  12184.6  109.471
 23.5936  12387.6  111.269
 23.6356  12520.9  111.535
 23.6776  12348.7  111.314
 23.7196  12121.9  109.752
 23.7616  12413.6  110.763
 23.8036  12313.5  110.37
 23.8456  12262.3  109.706
 23.8876  11994.2  108.847
 23.9296  12072.7  109.686
 23.9716  12204.8  109.49
 24.0136  12168  110.213
 24.0556  12147.4  109.854
 24.0976  11843.4  108.272
 24.1396  11821.8  110.776
 24.1816  11953.6  110.178
 24.2236  11928.1  109.357
 24.2656  11792.8  108.215
 24.3076  11593.5  107.542
 24.3496  11677.9  107.828
 24.3916  11795.6  108.418
 24.4336  11598.8  107.712
 24.4756  11795.4  108.491
 24.5176  11495.9  106.76
 24.5596  11366.4  106.469
 24.6016  11333.2  106.409
 24.6436  11389.7  106.168
 24.6856  11330.9  105.663
 24.7276  11487.7  106.702
 24.7696  11396.1  106.391
 24.8116  11295.8  106.102
 24.8536  11251.1  105.876
 24.8956  11133.7  105.073
 24.9376  11070.3  104.948
 24.9796  11025.7  104.851
 25.0216  10852.5  104.131
 25.0636  11004.8  104.521
 25.1056  10998.7  104.915
 25.1476  11107.2  107.335
 25.1896  11108  105.841
 25.2316  11078.7  104.859
 25.2736  11011.9  104.322
 25.3156  11023.9  104.448
 25.3576  10914.8  104.345
 25.3996  10933  104.407
 25.4416  10809.9  103.81
 25.4836  10834.4  104.444
 25.5256  10783.7  103.574
 25.5676  10997.5  104.332
 25.6096  10724.6  103.586
 25.6516  10901  103.945
 25.6936  10671.8  103.15
 25.7356  10792.5  103.862
 25.7776  10881.7  103.973
 25.8196  10659.9  103.075
 25.8616  10767.4  103.51
 25.9036  10796.9  103.128
 25.9456  10706.8  103.291
 25.9876  10736.5  103.355
 26.0296  10858.7  103.681
 26.0716  10605.7  102.794
 26.1136  10779.3  103.576
 26.1556  10752  102.739
 26.1976  10711.6  103.555
 26.2396  10700.3  102.913
 26.2816  10599.2  102.781
 26.3236  10682.5  103.259
 26.3656  10670.5  103.007
 26.4076  10775.1  103.711
 26.4496  11092.3  104.748
 26.4916  10701.6  102.864
 26.5336  10699.4  103.18
 26.5756  10987.5  104.412
 26.6176  10608.7  102.656
 26.6596  10522.1  102.541
 26.7016  10483.9  102.153
 26.7436  10337.2  101.522
 26.7856  10303.9  101.34
 26.8276  10423.2  101.885
 26.8696  10392.5  101.61
 26.9116  10352.7  101.353
 26.9536  10346.4  101.369
 26.9956  10373.2  101.535
 27.0376  10228.1  101.035
 27.0796  10296.3  101.145
 27.1216  10286  101.132
 27.1636  10063.8  100.197
 27.2056  10192.9  100.721
 27.2476  10147.6  100.497
 27.2896  10189.7  100.748
 27.3316  10142.6  100.298
 27.3736  10218.1  100.933
 27.4156  10037.2  99.8834
 27.4576  10144.4  100.644
 27.4996  9977.93  99.4177
 27.5416  10002.5  99.8525
 27.5836  9987.94  99.5991
 27.6256  10344.9  101.522
 27.6676  10301.5  101.335
 27.7096  9992.78  99.6764
 27.7516  9913.75  99.4265
 27.7936  9913.8  99.597
 27.8356  10033.2  99.8091
 27.8776  9921.77  99.3073
 27.9196  9858.44  98.8427
 27.9616  9961.51  99.5418
 28.0036  9930.54  99.3608
 28.0456  9984.05  99.7545
 28.0876  9934.27  99.6009
 28.1296  9884.28  99.1897
 28.1716  9897.03  99.2646
 28.2136  9955.34  99.5184
 28.2556  9728.24  98.4935
 28.2976  9697.54  98.3268
 28.3396  9828.84  98.7927
 28.3816  9858.44  98.9248
 28.4236  9763.39  98.5988
 28.4656  9686.18  98.2404
 28.5076  9771.35  98.3129
 28.5496  9703.3  98.2305
 28.5916  9758.85  98.3205
 28.6336  9578.94  97.7471
 28.6756  9774.72  97.9489
 28.7176  9631.18  97.7655
 28.7596  9624.43  97.6319
 28.8016  9646.78  97.8589
 28.8436  9458.36  97.0456
 28.8856  9669.98  97.9846
 28.9276  9546.97  97.6042
 28.9696  9638.09  97.7305
 29.0116  9483.26  97.1096
 29.0536  9432.97  97.0486
 29.0956  9494.43  97.104
 29.1376  9470.34  96.943
 29.1796  9420.69  96.7359
 29.2216  9460.14  96.7711
 29.2636  9452.74  96.7295
 29.3056  9395.61  96.3166
 29.3476  9519.27  97.4661
 29.3896  9494.84  97.4278
 29.4316  9485.43  96.7336
 29.4736  9459  96.6562
 29.5156  9507.13  96.8104
 29.5576  9503.33  97.5496
 29.5996  9475.7  96.6676
 29.6416  9381.51  96.3057
 29.6836  9407.06  96.3622
 29.7256  9390.7  96.8377
 29.7676  9384.55  96.4648
 29.8096  9445.31  96.7246
 29.8516  9301.4  96.3096
 29.8936  9378.27  96.8042
 29.9356  9482.14  97.0948
 29.9776  9347.3  96.5537
 30.0196  9291.61  95.6593
 30.0616  9304.81  96.0971
 30.1036  9408.32  96.4624
 30.1456  9233.14  95.8078
 30.1876  9260.73  95.9113
 30.2296  9368.32  96.4002
 30.2716  9284.81  95.6202
 30.3136  9311.49  96.3436
 30.3556  9318.81  96.6601
 30.3976  9352.28  98.3398
 30.4396  9421.11  96.056
 30.4816  9273.43  94.8999
 30.5236  9266.77  94.8911
 30.5656  9084.61  94.585
 30.6076  9285.5  95.4
 30.6496  9318.12  95.6099
 30.6916  9315.36  95.6841
 30.7336  9110.24  94.7781
 30.7756  9235.14  95.7299
 30.8176  9138.39  94.9318
 30.8596  9177.13  94.8974
 30.9016  9082.7  94.2921
 30.9436  9094.3  94.5694
 30.9856  9227.56  95.3685
 31.0276  9063.24  94.1254
 31.0696  9032.6  94.4085
 31.1116  8962.15  94.1426
 31.1536  9185.03  95.188
 31.1956  9048.69  94.5652
 31.2376  9106.55  94.8711
 31.2796  9036.96  94.06
 31.3216  9082.46  94.2427
 31.3636  9138.49  95.2236
 31.4056  9089.72  96.2822
 31.4476  9102.14  94.2487
 31.4896  9011.41  94.2784
 31.5316  9038.14  93.8685
 31.5736  9216.51  94.5551
 31.6156  8983.06  93.3814
 31.6576  9021.22  93.6742
 31.6996  9046.69  93.4845
 31.7416  8917.18  93.7197
 31.7836  9158.33  94.1367
 31.8256  8895.42  93.1143
 31.8676  9179.4  94.5116
 31.9096  9052.01  94.0682
 31.9516  8763.08  92.8411
 31.9936  8851.65  93.1466
 32.0356  8931.05  93.6209
 32.0776  9027.24  94.0151
 32.1196  8971.29  93.7277
 32.1616  8947.02  93.1475
 32.2036  8846.02  93.1243
 32.2456  8717.76  92.8214
 32.2876  8879.95  93.0197
 32.3296  8765.66  92.5475
 32.3716  8897.41  93.3361
 32.4136  8875.71  93.4318
 32.4556  8876.45  92.8784
 32.4976  8895.96  92.8721
 32.5396  8875.71  92.8012
 32.5816  8788.38  92.3499
 32.6236  8879.27  93.0098
 32.6656  8874.5  93.5186
 32.7076  8757.88  92.5579
 32.7496  8763.24  92.2625
 32.7916  8843.19  92.6392
 32.8336  8810.83  92.5681
 32.8756  8825.45  92.4587
 32.9176  8598.41  91.6409
 32.9596  8668.39  92.0879
 33.0016  8716.78  92.1455
 33.0436  8813.6  92.8212
 33.0856  8706.86  92.3279
 33.1276  8683.86  91.936
 33.1696  8727.23  92.0117
 33.2116  8779  92.5217
 33.2536  8686.76  92.0311
 33.2956  8793.29  92.6756
 33.3376  8537.2  91.119
 33.3796  8707.8  92.1727
 33.4216  8796.66  92.2387
 33.4636  8817.91  92.4932
 33.5056  8642.74  91.6528
 33.5476  8522.31  91.1616
 33.5896  8758.2  92.1706
 33.6316  8623.08  91.7868
 33.6736  8520.57  91.4871
 33.7156  8531.68  91.584
 33.7576  8622.37  91.6927
 33.7996  8771.59  92.2575
 33.8416  8457.73  90.7708
 33.8836  8606.22  91.3481
 33.9256  8610.99  91.4335
 33.9676  8589.43  91.208
 34.0096  8455.53  90.8114
 34.0516  8487.91  90.6293
 34.0936  8532.22  91.1299
 34.1356  8607.71  91.2725
 34.1776  8425.96  90.3092
 34.2196  8411.61  90.4163
 34.2616  8533.01  91.257
 34.3036  8393.6  90.6971
 34.3456  8468.4  90.8526
 34.3876  8480.89  90.9762
 34.4296  8487.51  90.6086
 34.4716  8507.7  90.8647
 34.5136  8412.45  90.566
 34.5556  8374.15  90.6045
 34.5976  8487.51  91.0513
 34.6396  8378.85  90.1552
 34.6816  8374.29  90.2381
 34.7236  8366.1  89.9853
 34.7656  8440.64  90.5795
 34.8076  8155.6  89.3487
 34.8496  8403.29  90.5509
 34.8916  8453.45  90.7008
 34.9336  8462.62  90.7095
 34.9756  8637.09  91.5682
 35.0176  8316.93  90.371
 35.0596  8353.43  90.3943
 35.1016  8457.15  90.7239
 35.1436  8421.63  90.2211
 35.1856  8260.2  89.4802
 35.2276  8432.71  90.5828
 35.2696  8455.67  90.8961
 35.3116  8328.44  90.3027
 35.3536  8147.12  89.0609
 35.3956  8302.55  89.5877
 35.4376  8289.5  90.0732
 35.4796  8286.52  90.1085
 35.5216  8192.78  89.4846
 35.5636  7989.92  89.1685
 35.6056  8315.35  89.9889
 35.6476  8235.33  89.448
 35.6896  8334.41  90.1594
 35.7316  8170.12  89.1628
 35.7736  8255.51  89.8227
 35.8156  8245.92  89.7701
 35.8576  8343.47  90.5461
 35.8996  8366.22  90.6277
 35.9416  8251.34  89.5204
 35.9836  8128.24  89.2883
 36.0256  8271.85  89.9997
 36.0676  8340.05  89.9107
 36.1096  8113.87  89.0361
 36.1516  8215.16  89.4753
 36.1936  8160.26  89.0309
 36.2356  8098.31  89.3212
 36.2776  8137.03  89.0086
 36.3196  8171.12  88.8835
 36.3616  8182.22  89.0735
 36.4036  8179.69  89.1175
 36.4456  8138.2  89.0914
 36.4876  8073.05  88.6783
 36.5296  8138.62  89.0665
 36.5716  8066.71  89.453
 36.6136  8341.81  89.7325
 36.6556  8260.82  89.4968
 36.6976  8131.92  89.2937
 36.7396  8207.07  89.5316
 36.7816  8259.24  90.0929
 36.8236  8064.86  88.9584
 36.8656  8076.55  89.0916
 36.9076  8190.82  89.7229
 36.9496  7993.53  88.6485
 36.9916  7988.07  88.1019
 37.0336  8201.11  89.5792
 37.0756  8164.16  89.1746
 37.1176  8025.25  88.768
 37.1596  7996.7  88.5178
 37.2016  7959.77  88.501
 37.2436  8045.87  88.3485
 37.2856  8112.57  88.9695
 37.3276  8174.14  88.6537
 37.3696  8055.19  88.891
 37.4116  8033.74  88.6707
 37.4536  8038.72  88.5706
 37.4956  7992.01  88.3491
 37.5376  7965.72  89.7392
 37.5796  7891.65  89.2807
 37.6216  7737.67  86.7139
 37.6636  7813.02  87.0398
 37.7056  7884.81  87.6256
 37.7476  7901.48  87.257
 37.7896  7851.26  87.4715
 37.8316  7713.47  86.877
 37.8736  7836.42  87.0911
 37.9156  7862.99  87.2432
 37.9576  7937.11  87.6909
 37.9996  7824.83  86.641
 38.0416  7944.39  88.1085
 38.0836  7980.67  88.2068
 38.1256  7847.34  87.4239
 38.1676  7696.53  86.7234
 38.2096  7850.13  87.2133
 38.2516  7938.06  87.8033
 38.2936  7862.19  87.285
 38.3356  7880.8  87.3103
 38.3776  7764.77  86.9286
 38.4196  7930.76  87.7054
 38.4616  7919.85  87.8675
 38.5036  7958.76  87.9372
 38.5456  7693.76  87.2959
 38.5876  7761.12  87.6986
 38.6296  7714.32  86.4371
 38.6716  7674.97  86.0135
 38.7136  7677.76  85.9742
 38.7556  7682.16  86.4884
 38.7976  7762.61  86.873
 38.8396  7718.17  87.0828
 38.8816  7629.23  86.3635
 38.9236  7626.19  86.1616
 38.9656  7762.37  86.8403
 39.0076  7832.22  86.6377
 39.0496  7717.93  86.5411
 39.0916  7800.8  86.6407
 39.1336  7663.84  86.2964
 39.1756  7665.98  86.376
 39.2176  7653.07  86.823
 39.2596  7754.22  87.3183
 39.3016  7629.01  86.1851
 39.3436  7584.42  86.3555
 39.3856  7715.44  86.552
 39.4276  7893.35  88.0343
 39.4696  7536.58  85.6586
 39.5116  7697.83  87.0787
 39.5536  7799.06  88.067
 39.5956  7785.58  87.1001
 39.6376  7826.45  87.1684
 39.6796  7666.39  86.182
 39.7216  7770.68  86.8516
 39.7636  7784.33  87.5039
 39.8056  7722.9  86.9329
 39.8476  7724.33  87.1977
 39.8896  7748.69  86.9683
 39.9316  7679.06  86.8286
 39.9736  7851.82  87.3733
 40.0156  7736.47  86.5456
 40.0576  7801.48  87.2735
 40.0996  7819.15  86.5503
 40.1416  7750.19  86.9514
 40.1836  7773.32  86.9777
 40.2256  7764.16  86.9766
 40.2676  7705.17  86.8101
 40.3096  7844.1  87.4505
 40.3516  7843.59  87.635
 40.3936  7776.52  86.7491
 40.4356  7803.39  87.0907
 40.4776  7785.12  87.2336
 40.5196  7922.11  88.2887
 40.5616  7778.04  87.1279
 40.6036  7694.58  86.9068
 40.6456  7786.02  87.0286
 40.6876  7817.45  87.1873
 40.7296  7817.08  87.3308
 40.7716  7848.13  87.6335
 40.8136  7764.78  87.1148
 40.8556  7748.41  87.1507
 40.8976  7866.01  87.724
 40.9396  7681.76  87.0426
 40.9816  7778.17  86.881
 41.0236  7925.99  87.4767
 41.0656  7906.16  87.9102
 41.1076  7897.5  87.6346
 41.1496  7736.68  86.6454
 41.1916  7750.25  87.046
 41.2336  7613.3  86.2608
 41.2756  7842.46  87.1552
 41.3176  7797.02  87.5122
 41.3596  7786.14  87.1868
 41.4016  7834.3  87.7016
 41.4436  7871.66  87.707
 41.4856  7844.1  87.7154
 41.5276  7746.24  87.185
 41.5696  7819.54  87.2071
 41.6116  7770.13  87.3463
 41.6536  7727.03  86.9652
 41.6956  7827.42  87.5079
 41.7376  7744.27  87.1446
 41.7796  7723.98  86.9545
 41.8216  7770.4  87.4081
 41.8636  7777.26  87.3826
 41.9056  7665.9  86.5511
 41.9476  7794.23  87.5071
 41.9896  7849.03  87.4802
 42.0316  7714.86  86.8061
 42.0736  7801.99  87.4386
 42.1156  7632.18  86.2929
 42.1576  7783.64  87.2429
 42.1996  7732.95  87.0958
 42.2416  7755.34  86.809
 42.2836  7611.41  86.1092
 42.3256  7624.47  86.3004
 42.3676  7760.56  86.8718
 42.4096  7617.52  86.0284
 42.4516  7656.27  86.3321
 42.4936  7634.26  86.2782
 42.5356  7708.26  86.8202
 42.5776  7803.93  87.2979
 42.6196  7743.11  86.9368
 42.6616  7659.69  86.7155
 42.7036  7680.25  86.2259
 42.7456  7724.45  86.8286
 42.7876  7683.2  86.6941
 42.8296  7585.15  86.0315
 42.8716  7548.79  85.9253
 42.9136  7594.91  85.9382
 42.9556  7574.9  85.9996
 42.9976  7727.64  86.826
 43.0396  7606  85.8689
 43.0816  7562.15  85.9936
 43.1236  7635.87  86.4729
 43.1656  7544.07  85.7846
 43.2076  7582.99  86.1062
 43.2496  7567.78  85.831
 43.2916  7514.33  85.8927
 43.3336  7545.21  85.9108
 43.3756  7609.7  86.0344
 43.4176  7494.03  85.4584
 43.4596  7533.52  85.5408
 43.5016  7461.33  85.5278
 43.5436  7527.93  85.8112
 43.5856  7447.31  85.3705
 43.6276  7548.75  85.8505
 43.6696  7544.52  85.9649
 43.7116  7565.59  85.7048
 43.7536  7567  86.187
 43.7956  7345.6  86.0901
 43.8376  7397.95  84.9711
 43.8796  7465.46  85.4314
 43.9216  7539.57  85.7676
 43.9636  7437.88  85.2934
 44.0056  7469.18  85.701
 44.0476  7441.28  85.1788
 44.0896  7460.37  85.6326
 44.1316  7446.74  85.2203
 44.1736  7507.99  85.5503
 44.2156  7517.11  85.4571
 44.2576  7436.15  85.3226
 44.2996  7426.59  85.2388
 44.3416  7380.82  84.7339
 44.3836  7283.24  84.4952
 44.4256  7337.33  84.4552
 44.4676  7390.32  84.9217
 44.5096  7374.96  84.9764
 44.5516  7292.54  84.4636
 44.5936  7325.34  84.6077
 44.6356  7433.91  84.9721
 44.6776  7405.46  85.1292
 44.7196  7260.74  84.5534
 44.7616  7268.76  85.9383
 44.8036  7268  84.5808
 44.8456  7390.67  85.296
 44.8876  7243.35  84.2932
 44.9296  7379.17  84.538
 44.9716  7407.97  85.125
 45.0136  7266.15  84.2484
 45.0556  7288.31  84.4556
 45.0976  7271.64  84.4189
 45.1396  7170.02  83.5882
 45.1816  7212.34  83.5985
 45.2236  7210.34  83.6607
 45.2656  7112.15  83.5675
 45.3076  7172.55  83.7256
 45.3496  7118.43  83.6916
 45.3916  7120.01  83.9707
 45.4336  7212.66  84.3673
 45.4756  7176.3  84.0126
 45.5176  7241.16  84.0119
 45.5596  7286.42  84.3928
 45.6016  7051.27  83.4252
 45.6436  7191.32  83.4425
 45.6856  7039.92  83.2009
 45.7276  7166.63  85.7669
 45.7696  7123.54  84.664
 45.8116  7172.82  84.4095
 45.8536  7095.87  83.8551
 45.8956  7236.08  84.0415
 45.9376  7279.92  83.7656
 45.9796  7143.03  83.6552
 46.0216  7233.84  84.5148
 46.0636  7230.19  83.6516
 46.1056  7205.85  83.491
 46.1476  7148.3  83.7415
 46.1896  7193.93  84.1588
 46.2316  7021.88  83.02
 46.2736  7081.72  83.5719
 46.3156  7064.44  83.2218
 46.3576  7097.14  83.6154
 46.3996  7061.36  83.5602
 46.4416  7114.21  83.4358
 46.4836  6984.25  83.0399
 46.5256  7176.16  84.1112
 46.5676  7165.68  84.1583
 46.6096  7132.44  83.9057
 46.6516  7121.68  82.8975
 46.6936  7158.27  83.5924
 46.7356  7126.55  83.5102
 46.7776  7025.14  83.7364
 46.8196  7032.34  83.5228
 46.8616  6882.15  82.4284
 46.9036  6851  81.9197
 46.9456  6943.39  82.1075
 46.9876  7037.32  82.7498
 47.0296  6922.62  82.7421
 47.0716  6982.09  82.9241
 47.1136  7020.89  82.8392
 47.1556  6991.79  82.5418
 47.1976  6991.28  82.6848
 47.2396  6936.14  82.6723
 47.2816  6957.81  82.5131
 47.3236  7068.23  83.5294
 47.3656  6993.09  83.0085
 47.4076  6978.95  82.6617
 47.4496  6862.96  82.1415
 47.4916  6900.16  82.5453
 47.5336  7012.48  83.0395
 47.5756  6947.94  82.7168
 47.6176  6824.59  81.9267
 47.6596  6950.06  82.4043
 47.7016  7084.94  83.0197
 47.7436  7094.59  83.3989
 47.7856  7027.02  83.0341
 47.8276  6829.85  81.9097
 47.8696  6873.67  82.2476
 47.9116  7016.74  82.8147
 47.9536  6897.03  82.0531
 47.9956  6786.62  82.0849
 48.0376  6747.75  81.6324
 48.0796  6953.07  82.9905
 48.1216  6935.97  82.7132
 48.1636  7017.6  82.7748
 48.2056  6930.18  82.5171
 48.2476  6905.04  82.6667
 48.2896  6827.65  82.1088
 48.3316  6800.4  81.8949
 48.3736  6792.11  81.8622
 48.4156  6764.03  81.5574
 48.4576  6720.33  81.5752
 48.4996  6874.04  81.9724
 48.5416  6922.89  82.5807
 48.5836  6822.74  81.6594
 48.6256  6891.31  82.2732
 48.6676  6894.11  82.7988
 48.7096  6840.14  81.7495
 48.7516  6754.56  81.3911
 48.7936  6682.38  81.0164
 48.8356  6808.31  81.8243
 48.8776  6809.48  82.3076
 48.9196  6914.47  82.4001
 48.9616  6724.43  81.6306
 49.0036  6777.96  82.2951
 49.0456  6633.43  81.3959
 49.0876  6746.19  81.7285
 49.1296  6650.81  81.2063
 49.1716  6590.38  80.7171
 49.2136  6805.48  81.9486
 49.2556  6772.68  81.7853
 49.2976  6724.89  81.5608
 49.3396  6610.38  80.9209
 49.3816  6799.94  81.5018
 49.4236  6738.91  81.5622
 49.4656  6680.85  81.2248
 49.5076  6726.9  81.2587
 49.5496  6697.15  81.0191
 49.5916  6722.73  81.2157
 49.6336  6721.38  81.4002
 49.6756  6813.13  82.185
 49.7176  6706.79  81.4878
 49.7596  6771.81  81.828
 49.8016  6761.04  81.5049
 49.8436  6636.28  81.0398
 49.8856  6675.79  81.2874
 49.9276  6580.43  80.8034
 49.9696  6601.57  80.9151
 50.0116  6694.03  81.6025
 50.0536  6593.55  80.9462
 50.0956  6628.19  81.2268
 50.1376  6575.22  80.6034
 50.1796  6618.44  81.1371
 50.2216  6571.01  80.8317
 50.2636  6565.44  80.4337
 50.3056  6409.04  79.6385
 50.3476  6540.94  80.4682
 50.3896  6534  80.3983
 50.4316  6618.15  80.756
 50.4736  6548.36  80.5465
 50.5156  6570.59  80.6701
 50.5576  6651.2  80.9295
 50.5996  6612.59  80.9711
 50.6416  6458.99  79.9574
 50.6836  6586.39  80.8002
 50.7256  6569.06  80.6061
 50.7676  6673.76  81.5308
 50.8096  6518.11  80.1665
 50.8516  6519.22  80.5766
 50.8936  6470.85  80.0429
 50.9356  6554.48  80.6808
 50.9776  6555.92  80.8404
 51.0196  6443.42  80.2707
 51.0616  6475.12  79.8139
 51.1036  6476.78  80.1655
 51.1456  6485.15  80.1373
 51.1876  6521.09  79.7125
 51.2296  6424.67  79.7345
 51.2716  6500.77  79.9171
 51.3136  6386.91  79.6622
 51.3556  6407.09  79.4121
 51.3976  6313.31  78.9842
 51.4396  6253.46  78.905
 51.4816  6394.86  79.6428
 51.5236  6449.56  80.0768
 51.5656  6398.5  79.3669
 51.6076  6481.32  79.9617
 51.6496  6393.66  79.5975
 51.6916  6372.36  79.8211
 51.7336  6419.38  80.1961
 51.7756  6382.12  79.6747
 51.8176  6411.99  79.9415
 51.8596  6295.41  79.2473
 51.9016  6492.15  80.084
 51.9436  6349.47  80.6415
 51.9856  6253.28  80.4354
 52.0276  6385.28  79.8111
 52.0696  6370.53  79.7856
 52.1116  6326.39  79.6155
 52.1536  6385.58  79.8367
 52.1956  6458.25  79.8061
 52.2376  6586.49  80.7696
 52.2796  6445.78  79.7105
 52.3216  6202.98  78.87
 52.3636  6332.56  79.2762
 52.4056  6274.62  78.7654
 52.4476  6245.09  78.9452
 52.4896  6209.54  78.766
 52.5316  6338.12  79.6213
 52.5736  6296.44  79.0948
 52.6156  6328.69  79.6697
 52.6576  6320.13  79.0653
 52.6996  6170.12  79.0678
 52.7416  6228.89  79.2955
 52.7836  6271.73  79.4526
 52.8256  6265.98  78.6595
 52.8676  6108.63  78.2336
 52.9096  6307.71  79.5766
 52.9516  6301.42  79.902
 52.9936  6143.74  79.2817
 53.0356  6200.67  78.6777
 53.0776  6121.73  78.4477
 53.1196  6145.78  78.7065
 53.1616  6138.61  78.7071
 53.2036  6165.02  78.8251
 53.2456  6075.7  78.3516
 53.2876  6065.88  78.0084
 53.3296  6111.74  78.618
 53.3716  6134.31  78.5146
 53.4136  6100.6  78.4403
 53.4556  6109.2  78.5274
 53.4976  6139.51  78.5767
 53.5396  6157.7  79.0772
 53.5816  6161.04  78.7423
 53.6236  6007.22  78.0825
 53.6656  6116.33  78.4273
 53.7076  6097.44  78.2679
 53.7496  6157.39  78.7654
 53.7916  6215.96  79.2659
 53.8336  6002.82  77.7968
 53.8756  6055.76  78.6758
 53.9176  6117.41  78.4399
 53.9596  6167.92  79.5035
 54.0016  6062.87  78.1757
 54.0436  6047.75  78.278
 54.0856  6081.25  77.943
 54.1276  6099.78  78.2582
 54.1696  6086.9  78.3425
 54.2116  6088.64  78.1146
 54.2536  6110.23  78.0722
 54.2956  6155.2  78.4042
 54.3376  6117.11  78.6347
 54.3796  6110.73  78.5007
 54.4216  6194.91  79.0816
 54.4636  6042.96  78.0617
 54.5056  6174.09  78.7343
 54.5476  6016.38  78.0453
 54.5896  6163.93  78.8195
 54.6316  6135.41  78.5104
 54.6736  6103.16  78.3267
 54.7156  6043.63  78.0117
 54.7576  5926.63  77.2522
 54.7996  6053  78.2208
 54.8416  6151.09  78.89
 54.8836  6038.08  78.2683
 54.9256  6007.95  77.8309
 54.9676  6154.23  78.6307
 55.0096  6104.14  78.3766
 55.0516  6092.03  78.464
 55.0936  6025.62  77.7352
 55.1356  5991.58  77.5611
 55.1776  6025.44  78.0355
 55.2196  6009.9  77.7244
 55.2616  6067.13  78.3051
 55.3036  6030.21  78.2239
 55.3456  6012.21  78.2468
 55.3876  6082.23  78.4504
 55.4296  6032.75  78.1107
 55.4716  6037.28  78.1727
 55.5136  6024.84  77.8568
 55.5556  6044.9  78.055
 55.5976  6028.29  78.0034
 55.6396  6074.59  78.1745
 55.6816  6022.14  77.7933
 55.7236  5968.26  77.5864
 55.7656  6092.32  78.0474
 55.8076  6123.52  78.2316
 55.8496  6009.46  77.9201
 55.8916  6040.63  78.1768
 55.9336  6045.94  78.0657
 55.9756  5968.44  77.4558
 56.0176  5971.37  77.6246
 56.0596  5965.6  77.5719
 56.1016  6079.5  78.3505
 56.1436  6039.59  78.3256
 56.1856  5999.5  77.81
 56.2276  5968.82  77.6644
 56.2696  6029.82  78.0361
 56.3116  5925  77.7437
 56.3536  5987.03  77.8133
 56.3956  5972.52  77.7127
 56.4376  5855.58  76.9802
 56.4796  6029.82  77.9221
 56.5216  5979.06  77.951
 56.5636  6098.8  78.3306
 56.6056  5899.04  77.2597
 56.6476  6001.31  77.5621
 56.6896  5961.38  77.7436
 56.7316  5972.53  77.7277
 56.7736  5995.8  77.8773
 56.8156  5994.06  77.8623
 56.8576  5983.54  77.7414
 56.8996  6008.91  77.8426
 56.9416  5937.51  77.5389
 56.9836  5934.48  77.1802
 57.0256  5926.9  77.4375
 57.0676  5911.13  77.4612
 57.1096  5987.87  77.751
 57.1516  6048.21  78.1692
 57.1936  5938.59  77.2431
 57.2356  5962.45  77.7122
 57.2776  5964.54  77.6854
 57.3196  5891.45  77.5696
 57.3616  5960.73  77.5258
 57.4036  6030.77  78.0404
 57.4456  5854.59  76.857
 57.4876  6007  77.7109
 57.5296  5935.47  77.4857
 57.5716  5843.09  76.9652
 57.6136  6010.07  77.8771
 57.6556  5975.66  77.79
 57.6976  5999.91  77.7737
 57.7396  5919.35  77.6217
 57.7816  5874.43  77.6738
 57.8236  5848.49  77.304
 57.8656  5963.44  77.7209
 57.9076  5936.91  77.5766
 57.9496  5853.67  77.3715
 57.9916  5949.66  77.479
 58.0336  5917.3  77.584
 58.0756  5962.55  77.4807
 58.1176  5962.36  77.5175
 58.1596  5954.25  78.0185
 58.2016  6053.41  77.9112
 58.2436  6040.12  78.2216
 58.2856  5966.17  77.6606
 58.3276  5926.81  77.7747
 58.3696  5970.68  77.8186
 58.4116  5832.9  76.7794
 58.4536  6012.06  77.8396
 58.4956  5913.15  77.3713
 58.5376  5983.94  77.4087
 58.5796  5958.39  77.6519
 58.6216  6052.7  78.0929
 58.6636  6007.51  78.007
 58.7056  5972.97  77.6444
 58.7476  5804.91  76.9797
 58.7896  5896.49  77.2341
 58.8316  5821.4  76.7379
 58.8736  5968.31  77.7055
 58.9156  5898.94  77.3014
 58.9576  6061.58  78.5543
 58.9996  5984.87  77.4293
 59.0416  6025.51  78.0509
 59.0836  5974.88  77.6496
 59.1256  5945.03  77.8352
 59.1676  5926.1  78.331
 59.2096  5970.79  77.9251
 59.2516  6026.19  77.8674
 59.2936  5923.6  77.5266
 59.3356  5985.61  77.8096
 59.3776  5926.37  77.591
 59.4196  6040.97  78.2737
 59.4616  5788.28  76.482
 59.5036  5806.15  76.6341
 59.5456  6145.31  78.5318
 59.5876  6063.73  78.2003
 59.6296  5843.31  76.8339
 59.6716  5899.84  77.2619
 59.7136  5943.1  77.533
 59.7556  5892.87  77.3394
 59.7976  5951.69  77.4685
 59.8396  5897.3  77.0093
 59.8816  5921.87  77.7099
 59.9236  6054.69  78.2195
 59.9656  5989.41  78.0564
 60.0076  5942.57  77.113
 60.0496  6003.66  78.0097
 60.0916  6003.54  77.4298
 60.1336  5821.38  77.333
 60.1756  5876.8  78.8683
 60.1996  0.0000000E+00  0.0000000E+00