File: docs/examples/opeando_xrd/IS17_D/Data/IS17_D/17_Db_f00141.xye
# /beamlines/bl04/projects/cycle2025-II/20250340211-lsimonelli/DATA/IS17_D/17_Db_f00141.xye : mythproc.py merge -s 0.006 -l 0.5 -f /beamlines/bl04/inhouse/ff/FlatField/ff_20Nov2024rod8mm60s_17keV.raw -b True -c true -o xye /beamlines/bl04/projects/cycle2025-II/20250340211-lsimonelli/DATA/IS17_D/17_Db_00141.dat
# IsMon = [6777735, 6778160, 6781229]  IsPos = [-1.5000, -2.4884, -3.4988]
# Wave = 0.4962  CalPath /beamlines/bl04/projects/cycle2025-II/20250340211-lsimonelli/DATA/Align/Si_Pos1_25keV_f00001.cal
# Date = 2025-09-25_09:00:53 Dt = 4.8000  Bin = 0.0060  <imon> = 6779041 +/- 1557 (Min/Max) 6777735 / 6781229
# icurr 252.3076  mocoIn 1.7211E-05  mocoOut 0.8077  i15 7.10161e+06  imon 6.77904e+06  i7 4.3333  iEMpd_timer 4.8000  iEMpd_1 3.5341E-08  iEMpd_2 7.7931E-08  iEMpd_3 1.9001E-08  iEMpd_4 4.7941E-08  iEMhp_timer 4.8000  iEMhp_1 4.9283E-06  iEMhp_2 -2.6863E-08  iEMhp_3 -2.3322E-08  iEMhp_4 -2.0531E-08
#      9776
 1.5856  45064.5  218.003
 1.6276  51667.9  229.424
 1.6696  56575.5  239.226
 1.7116  64420.9  255.774
 1.7536  71912.3  269.085
 1.7956  76023  277.361
 1.8376  72396.3  271.093
 1.8796  62792.7  250.614
 1.9216  51831.4  228.6
 1.9636  45156.5  213.036
 2.0056  40594.2  200.698
 2.0476  38300  197.081
 2.0896  36222  190.536
 2.1316  35725.2  188.315
 2.1736  33954.8  185.046
 2.2156  34340.1  184.6
 2.2576  33039.1  181.718
 2.2996  31805.5  178.948
 2.3416  32518.6  179.499
 2.3836  31675.5  177.266
 2.4256  30655.5  174.957
 2.4676  29942.9  172.666
 2.5096  30028.7  172.97
 2.5516  29941.3  176.639
 2.5936  52973.7  230.307
 2.6356  28971.5  171.016
 2.6776  27992.9  167.007
 2.7196  27630.1  166.411
 2.7616  27416.2  165.555
 2.8036  27040.7  164.585
 2.8456  26869.5  164.702
 2.8876  26204  162.509
 2.9296  25902.9  161.709
 2.9716  25962.2  161.376
 3.0136  25529.9  160.087
 3.0556  25619.4  160.761
 3.0976  25694.2  159.909
 3.1396  25078.9  158.71
 3.1816  24951.8  158.244
 3.2236  24837.2  157.875
 3.2656  24644.3  156.296
 3.3076  24662.4  157.829
 3.3496  24511.9  156.267
 3.3916  25198.1  158.265
 3.4336  25424.5  159.57
 3.4756  25796.9  160.671
 3.5176  26460  162.483
 3.5596  25933.6  163.867
 3.6016  26385.7  162.319
 3.6436  25541.1  160.819
 3.6856  24993.7  157.381
 3.7276  24241.1  156.076
 3.7696  24175.4  155.847
 3.8116  23680.5  154.35
 3.8536  23866.4  154.881
 3.8956  23777.1  154.409
 3.9376  23983.2  155.35
 3.9796  23545.2  153.41
 4.0216  23567.3  152.515
 4.0636  23478.5  153.702
 4.1056  23516.7  153.476
 4.1476  23960.6  155.237
 4.1896  23870  154.788
 4.2316  24051.2  155.205
 4.2736  24475.4  156.369
 4.3156  24535  156.784
 4.3576  25507.8  159.763
 4.3996  25704.2  160.666
 4.4416  26325.7  162.172
 4.4836  26725.5  163.565
 4.5256  27287.2  165.891
 4.5676  26819.1  164.714
 4.6096  27325.2  165.279
 4.6516  27960.1  166.514
 4.6936  27774.6  166.784
 4.7356  28175.1  167.808
 4.7776  28040.7  167.235
 4.8196  28027.1  167.854
 4.8616  27335.2  165.257
 4.9036  27203.8  164.58
 4.9456  27053.6  164.788
 4.9876  26420  162.751
 5.0296  26680.1  163.389
 5.0716  26471.4  163.5
 5.1136  26542.9  163.446
 5.1556  26795.6  163.674
 5.1976  29136.4  170.66
 5.2396  27559.9  165.679
 5.2816  27581.7  166.213
 5.3236  27487  165.624
 5.3656  27014.2  165.131
 5.4076  26701.4  164.314
 5.4496  26734.9  163.909
 5.4916  27086.6  164.737
 5.5336  26847.8  164.015
 5.5756  27061  164.684
 5.6176  27154.7  164.406
 5.6596  27402  165.986
 5.7016  27522.1  165.762
 5.7436  27550.5  166.129
 5.7856  27620  166.404
 5.8276  27875.7  166.883
 5.8696  28019.3  167.378
 5.9116  27971.9  167.956
 5.9536  28412  169.012
 5.9956  28318.2  168.111
 6.0376  28674.7  169.795
 6.0796  28648.1  169.548
 6.1216  28500.8  169.308
 6.1636  28794  169.227
 6.2056  28760.8  169.808
 6.2476  29105.5  170.507
 6.2896  29296.3  170.931
 6.3316  29083  170.482
 6.3736  29178.8  170.657
 6.4156  29147.7  170.508
 6.4576  29406.8  170.824
 6.4996  29341  171.115
 6.5416  29420.4  171.47
 6.5836  29584.1  172.185
 6.6256  29593  171.779
 6.6676  30131.6  172.901
 6.7096  30090  173.64
 6.7516  30404.6  174.2
 6.7936  30924.3  175.071
 6.8356  30994.7  175.38
 6.8776  31131.9  176.569
 6.9196  30908  176.34
 6.9616  31405  177.193
 7.0036  31831.3  178.038
 7.0456  32032.8  177.895
 7.0876  32144.3  179.82
 7.1296  31979.3  178.571
 7.1716  31846.8  177.739
 7.2136  31589.5  176.799
 7.2556  31860.5  177.709
 7.2976  32019.4  178.661
 7.3396  31596.1  177.692
 7.3816  31489.8  177.61
 7.4236  31941.6  178.171
 7.4656  32235.2  178.449
 7.5076  32484.7  179.287
 7.5496  32178.6  178.978
 7.5916  32386  179.598
 7.6336  32985.6  181.141
 7.6756  32858.3  180.646
 7.7176  33356.3  182.34
 7.7596  33069.1  182.775
 7.8016  34936.9  190.158
 7.8436  33446.9  182.694
 7.8856  33809.7  183.281
 7.9276  34210.4  184.766
 7.9696  34465.3  185.767
 8.0116  35442  186.927
 8.0536  35675  187.79
 8.0956  36204.2  190.373
 8.1376  36112  189.596
 8.1796  36195  190.358
 8.2216  36899.7  190.923
 8.2636  37474.6  192.67
 8.3056  37012.7  192.241
 8.3476  37886.4  193.828
 8.3896  37842.2  193.797
 8.4316  37750.3  193.726
 8.4736  37712.2  193.098
 8.5156  37271.8  192.24
 8.5576  37016  192.556
 8.5996  36817.1  190.911
 8.6416  37038.6  192.75
 8.6836  36645.9  191.548
 8.7256  37352.6  192.84
 8.7676  38226  198.054
 8.8096  38426.9  195.813
 8.8516  37855.7  193.984
 8.8936  37823.3  193.791
 8.9356  37463.6  193.206
 8.9776  37238.2  192.699
 9.0196  37303.7  192.549
 9.0616  37098.6  191.506
 9.1036  37401.4  193.469
 9.1456  36362.7  190.091
 9.1876  36249.4  189.741
 9.2296  36280.1  189.253
 9.2716  36309  189.364
 9.3136  35961.7  188.459
 9.3556  36548.8  189.967
 9.3976  35512.3  187.786
 9.4396  35109.6  186.616
 9.4816  35308.9  187.007
 9.5236  34700.1  185.268
 9.5656  34716.2  185.682
 9.6076  33779.6  183.678
 9.6496  34367.9  185.155
 9.6916  34023.5  184.179
 9.7336  34242.5  184.566
 9.7756  34047.4  185.173
 9.8176  33597.9  183.601
 9.8596  33757.4  182.462
 9.9016  33504.6  181.774
 9.9436  32817.8  179.635
 9.9856  32759.6  179.931
 10.0276  32097.2  179.178
 10.0696  32675.1  179.811
 10.1116  31618.8  177.148
 10.1536  31786.6  177.264
 10.1956  31312.8  176.056
 10.2376  31364.3  175.698
 10.2796  31118.6  175.127
 10.3216  30548.2  173.64
 10.3636  30473.4  173.616
 10.4056  31001.9  175.531
 10.4476  31204.3  175.698
 10.4896  32598.7  178.998
 10.5316  31768.9  177.117
 10.5736  29860.9  172.473
 10.6156  29866.1  172.236
 10.6576  31746.3  176.07
 10.6996  29577.8  170.666
 10.7416  29085.2  169.458
 10.7836  28974.6  169.807
 10.8256  28058.7  167.536
 10.8676  28163.8  167.379
 10.9096  27947.5  166.762
 10.9516  27526.3  164.438
 10.9936  28090.3  166.332
 11.0356  27629.2  165.582
 11.0776  27938.8  165.819
 11.1196  27705.7  165.914
 11.1616  26835.7  162.957
 11.2036  27356.9  164.371
 11.2456  27742.2  166.263
 11.2876  27080.4  163.987
 11.3296  26809.7  163.071
 11.3716  27123.8  163.742
 11.4136  26953.9  164.091
 11.4556  26987.9  163.844
 11.4976  27896.2  165.549
 11.5396  27876.6  165.668
 11.5816  27142.2  163.902
 11.6236  26180.7  161.222
 11.6656  26532.3  161.443
 11.7076  25784.2  159.984
 11.7496  25692.9  163.734
 11.7916  25642.9  158.788
 11.8336  25086.8  157.951
 11.8756  25246.5  158.005
 11.9176  25072  157.129
 11.9596  25107.6  157.417
 12.0016  24658.6  156.773
 12.0436  24737.1  156.466
 12.0856  24280.6  155.519
 12.1276  24507.5  156.194
 12.1696  24444.6  155.104
 12.2116  24498.4  155.277
 12.2536  25752  160.008
 12.2956  24266.2  154.693
 12.3376  24554  155.828
 12.3796  24196  155.166
 12.4216  24348.4  154.841
 12.4636  24434.4  156.062
 12.5056  24388.8  155.173
 12.5476  24266.2  154.29
 12.5896  23998.4  154.089
 12.6316  24132.3  154.674
 12.6736  23842.1  154.222
 12.7156  24242.2  155.367
 12.7576  24069  155.054
 12.7996  24206.8  154.121
 12.8416  24032.4  154.622
 12.8836  24577.2  156.2
 12.9256  24726.5  155.695
 12.9676  24459.2  155.258
 13.0096  24610.2  156.863
 13.0516  24714.1  156.213
 13.0936  24518.1  155.716
 13.1356  25009.8  156.511
 13.1776  24583.5  156.193
 13.2196  24763.6  156.403
 13.2616  24344.1  155.388
 13.3036  24844.5  157.116
 13.3456  24260.9  155.431
 13.3876  24881.2  156.679
 13.4296  24594.1  155.944
 13.4716  24951.9  156.696
 13.5136  24888.1  156.61
 13.5556  24565.1  156.234
 13.5976  24922.3  157.537
 13.6396  24752  156.351
 13.6816  24890.3  157.139
 13.7236  25114.1  157.555
 13.7656  26650.6  162.759
 13.8076  27696.5  164.544
 13.8496  26080.8  160.572
 13.8916  25076.8  158.385
 13.9336  24364.8  155.368
 13.9756  24496.7  155.173
 14.0176  24047.2  154.424
 14.0596  24377.5  155.408
 14.1016  24050.2  154.791
 14.1436  23799.6  153.109
 14.1856  23295.4  151.774
 14.2276  23473.6  152.841
 14.2696  23475.1  152.694
 14.3116  22904.2  150.734
 14.3536  22543.7  149.709
 14.3956  22688.9  149.912
 14.4376  22607.1  149.422
 14.4796  22710.9  149.77
 14.5216  22483.3  149.812
 14.5636  22407.9  149.125
 14.6056  22488.2  148.943
 14.6476  22119.1  146.961
 14.6896  21879.9  146.714
 14.7316  21548.8  146.639
 14.7736  21158.9  144.455
 14.8156  21240.1  144.741
 14.8576  21232  144.581
 14.8996  20843.7  144.442
 14.9416  20561.1  143.478
 14.9836  20389.3  142.86
 15.0256  19952.3  140.234
 15.0676  19860.5  140.222
 15.1096  19685.9  139.343
 15.1516  19502.1  139.25
 15.1936  19277.3  137.874
 15.2356  19114.4  137.567
 15.2776  19217.3  137.527
 15.3196  18702.6  136.66
 15.3616  18592.5  136.011
 15.4036  18538  135.681
 15.4456  18878.5  136.567
 15.4876  18382  134.446
 15.5296  18545.2  135.333
 15.5716  17912.7  132.608
 15.6136  18095.6  133.605
 15.6556  18582.6  134.629
 15.6976  18203.4  133.548
 15.7396  17802.7  132.442
 15.7816  17711.5  131.627
 15.8236  17451.5  131.336
 15.8656  17571  131.588
 15.9076  17492.8  131.115
 15.9496  18291.7  136.93
 15.9916  17875.9  135.772
 16.0336  17990.4  133.03
 16.0756  17636.9  132.049
 16.1176  17334.5  130.822
 16.1596  17203.5  131.679
 16.2016  17190.9  130.384
 16.2436  17215.4  130.862
 16.2856  17263.5  130.535
 16.3276  16810.7  129.274
 16.3696  16929.2  129.551
 16.4116  16836.4  129.644
 16.4536  16902.6  129.697
 16.4956  17248.8  130.753
 16.5376  16756.5  129.065
 16.5796  16815.7  128.65
 16.6216  16826.5  128.947
 16.6636  16455.8  127.72
 16.7056  16719.9  128.603
 16.7476  16773.5  128.326
 16.7896  16794.7  129.173
 16.8316  16543.1  128.174
 16.8736  16899.3  129.811
 16.9156  16761.9  129.608
 16.9576  16363.1  128.856
 16.9996  16316.3  129.152
 17.0416  16582.8  128.575
 17.0836  16566  128.272
 17.1256  16412.5  127.682
 17.1676  16403.7  127.607
 17.2096  16528.4  127.982
 17.2516  16375.3  127.473
 17.2936  15949.1  125.864
 17.3356  15950.2  125.851
 17.3776  15838.1  125.595
 17.4196  15658.2  124.584
 17.4616  15763.8  124.912
 17.5036  15714.1  125.079
 17.5456  15462.3  124.713
 17.5876  15307.7  123.133
 17.6296  15760.6  124.751
 17.6716  15463.4  124.174
 17.7136  15667.8  125.12
 17.7556  15335.2  124.088
 17.7976  15269  123.543
 17.8396  15440.9  123.735
 17.8816  15047.2  122.714
 17.9236  15163.2  122.97
 17.9656  15010.8  122.877
 18.0076  15245.9  123.413
 18.0496  15190  122.308
 18.0916  16717.2  128.894
 18.1336  16243.9  127.17
 18.1756  15318.6  123.033
 18.2176  15507.6  124.006
 18.2596  14705.2  120.484
 18.3016  15232.8  122.893
 18.3436  15293.9  123.144
 18.3856  15125.1  122.595
 18.4276  14829.1  121.072
 18.4696  14744.8  120.81
 18.5116  14922.3  121.809
 18.5536  14669  121.14
 18.5956  14766.2  121.093
 18.6376  14745.1  121.422
 18.6796  14682  120.483
 18.7216  14783.7  121.386
 18.7636  14547  120.414
 18.8056  14272.2  119.198
 18.8476  14302.5  119.948
 18.8896  14284.3  119.201
 18.9316  14425.9  119.777
 18.9736  14342.5  119.13
 19.0156  14398.1  119.78
 19.0576  14614.2  119.502
 19.0996  14542.9  119.936
 19.1416  14278.2  119.243
 19.1836  14269.1  118.797
 19.2256  14102.8  118.325
 19.2676  14262.3  119.081
 19.3096  14126.2  118.761
 19.3516  14382  119.594
 19.3936  14193.4  118.894
 19.4356  14340.1  119.391
 19.4776  14226.5  119.004
 19.5196  14161.9  118.59
 19.5616  14106.8  118.613
 19.6036  13993.3  117.631
 19.6456  14168.3  118.488
 19.6876  14405  119.096
 19.7296  14194.8  118.694
 19.7716  14205.7  118.914
 19.8136  14483.4  120.277
 19.8556  14582.9  120.162
 19.8976  14555.3  120.103
 19.9396  14790.6  120.65
 19.9816  14713.7  120.59
 20.0236  14957.4  121.779
 20.0656  14613.9  120.375
 20.1076  14336.6  119.712
 20.1496  13853.1  117.659
 20.1916  13986.4  117.707
 20.2336  13810.3  116.929
 20.2756  13532  116.178
 20.3176  13764.7  116.919
 20.3596  13545.4  115.971
 20.4016  13572.5  115.879
 20.4436  13493.2  116.098
 20.4856  13698.6  116.783
 20.5276  13396.5  115.941
 20.5696  13416.8  115.589
 20.6116  13503.5  116.118
 20.6536  13370.1  115.069
 20.6956  13332.8  115.039
 20.7376  13161.5  114.5
 20.7796  13191.2  114.328
 20.8216  13401  114.948
 20.8636  13467.5  115.615
 20.9056  13494.3  115.66
 20.9476  13411.8  115.154
 20.9896  13719  116.333
 21.0316  13338.7  114.598
 21.0736  13252.5  114.754
 21.1156  13312.8  115.174
 21.1576  13362.2  115.425
 21.1996  13108.9  114.316
 21.2416  13239.3  114.708
 21.2836  13182  114.43
 21.3256  13187  114.532
 21.3676  13219.6  114.202
 21.4096  13240  114.67
 21.4516  12857.7  112.83
 21.4936  12764.6  112.681
 21.5356  13163.5  114.372
 21.5776  13209.7  114.403
 21.6196  12929.8  113.22
 21.6616  13028.9  113.742
 21.7036  12973  113.262
 21.7456  12881.6  112.945
 21.7876  12865.3  112.635
 21.8296  12751.1  111.979
 21.8716  12781.1  112.341
 21.9136  12993.7  113.475
 21.9556  12844.1  112.492
 21.9976  12834.6  112.482
 22.0396  12795.1  112.563
 22.0816  12829.8  113.24
 22.1236  12909.1  113.053
 22.1656  12759.1  112.531
 22.2076  12671.6  111.601
 22.2496  12492.6  110.842
 22.2916  12683.9  111.566
 22.3336  12578.4  111.827
 22.3756  12429.7  110.885
 22.4176  12440.2  110.78
 22.4596  12298.7  110.735
 22.5016  12624.4  111.696
 22.5436  12576.8  111.357
 22.5856  12808.6  112.626
 22.6276  12838.1  112.9
 22.6696  12655.3  112.448
 22.7116  12406.9  110.852
 22.7536  12732.4  112.271
 22.7956  12469  110.439
 22.8376  12326.4  110.316
 22.8796  12461.9  110.729
 22.9216  12424.4  111.1
 22.9636  12497.1  110.576
 23.0056  12536  110.89
 23.0476  12469.2  111.164
 23.0896  12809.4  112.042
 23.1316  12544.9  111.315
 23.1736  12578.8  114.414
 23.2156  12677.4  112.219
 23.2576  12916  113.415
 23.2996  12688.8  112.182
 23.3416  12843.8  113.407
 23.3836  12744.4  112.194
 23.4256  12900.2  112.997
 23.4676  12892.1  112.65
 23.5096  12680.1  112.384
 23.5516  12749.2  111.976
 23.5936  12798.7  113.118
 23.6356  13134.8  114.248
 23.6776  12739.3  112.726
 23.7196  12733.6  112.498
 23.7616  12573.6  111.481
 23.8036  13046  113.621
 23.8456  12602.6  111.217
 23.8876  12582.5  111.494
 23.9296  12318.6  110.803
 23.9716  12495.4  110.794
 24.0136  12625.6  112.283
 24.0556  12415.7  111.051
 24.0976  12348.9  110.578
 24.1396  12074.7  111.951
 24.1816  12444  112.055
 24.2236  12423.9  111.592
 24.2656  12319.6  110.596
 24.3076  12208  110.363
 24.3496  12184.8  110.128
 24.3916  12242.7  110.441
 24.4336  12091.9  109.969
 24.4756  12195.9  110.326
 24.5176  12050.2  109.284
 24.5596  12071.3  109.703
 24.6016  11954.7  109.281
 24.6436  12089.2  109.392
 24.6856  12181.9  109.553
 24.7276  11832.3  108.293
 24.7696  11795.7  108.236
 24.8116  11749.1  108.2
 24.8536  11826.6  108.555
 24.8956  11603  107.26
 24.9376  11749  108.109
 24.9796  11652  107.783
 25.0216  11641.1  107.842
 25.0636  11643.7  107.51
 25.1056  11516.3  107.618
 25.1476  11514.2  109.256
 25.1896  11405.1  107.238
 25.2316  11370.1  106.342
 25.2736  11218.2  105.281
 25.3156  11292.3  105.7
 25.3576  11245.4  105.92
 25.3996  11348  106.387
 25.4416  11336.8  106.307
 25.4836  11078.1  105.606
 25.5256  11086.8  105.012
 25.5676  11283.2  105.658
 25.6096  11116.7  105.465
 25.6516  11109.6  104.929
 25.6936  11145  105.419
 25.7356  10987.5  104.804
 25.7776  11145.1  105.216
 25.8196  10969.6  104.556
 25.8616  11028.1  104.763
 25.9036  11121.5  104.648
 25.9456  10992.8  104.658
 25.9876  11218.8  105.643
 26.0296  11131.3  104.886
 26.0716  11150.6  105.408
 26.1136  11134.9  105.267
 26.1556  11197.9  104.934
 26.1976  11013.6  105.009
 26.2396  11093.6  104.528
 26.2816  11049.6  104.939
 26.3236  11087.1  105.268
 26.3656  11139.8  105.235
 26.4076  10876.5  104.191
 26.4496  11210.8  105.378
 26.4916  11226.4  105.338
 26.5336  11353.5  106.28
 26.5756  11875.3  108.563
 26.6176  11145.8  105.211
 26.6596  10892.5  104.312
 26.7016  10855.7  103.901
 26.7436  11026.5  104.85
 26.7856  10697.7  103.26
 26.8276  10692.6  103.199
 26.8696  10875.7  103.948
 26.9116  10733.9  103.205
 26.9536  10594.3  102.58
 26.9956  10582.9  102.56
 27.0376  10564  102.686
 27.0796  10699.2  103.067
 27.1216  10702.5  103.152
 27.1636  10435.1  102.012
 27.2056  10559  102.502
 27.2476  10483.2  102.126
 27.2896  10433.2  101.996
 27.3316  10455.5  101.828
 27.3736  10458.5  102.115
 27.4156  10501.2  102.159
 27.4576  10425  102.007
 27.4996  10475.2  101.863
 27.5416  10468  102.118
 27.5836  10458.7  101.923
 27.6256  10334  101.495
 27.6676  10408.5  101.842
 27.7096  10362.1  101.505
 27.7516  10604.9  102.832
 27.7936  10802.4  103.94
 27.8356  10592  102.529
 27.8776  10669.6  102.966
 27.9196  10348.7  101.268
 27.9616  10421.3  101.822
 28.0036  10426  101.803
 28.0456  10141.9  100.545
 28.0876  10358.6  101.695
 28.1296  10192.5  100.722
 28.1716  10376.5  101.644
 28.2136  10182.1  100.653
 28.2556  10169.8  100.7
 28.2976  10037.2  100.038
 28.3396  10175.1  100.473
 28.3816  10180  100.511
 28.4236  10210.9  100.824
 28.4656  10173.6  100.679
 28.5076  10001.1  99.4622
 28.5496  10112.4  100.262
 28.5916  10114.2  100.092
 28.6336  9954.24  99.6371
 28.6756  10088.5  99.5031
 28.7176  9981.53  99.5234
 28.7596  9813.5  98.5771
 28.8016  9982.34  99.4662
 28.8436  9785.22  98.706
 28.8856  10009.9  99.688
 28.9276  9880.46  99.2935
 28.9696  9866.92  98.8798
 29.0116  9822.59  98.8432
 29.0536  9807.71  98.976
 29.0956  9913.35  99.1934
 29.1376  9770.08  98.4489
 29.1796  9798.03  98.6531
 29.2216  9767.64  98.3362
 29.2636  9831.22  98.7352
 29.3056  9741.92  98.0633
 29.3476  9758.94  98.6745
 29.3896  9814.07  99.0699
 29.4316  9630.12  97.4611
 29.4736  9541.21  97.0762
 29.5156  9670.69  97.6583
 29.5576  9608.25  98.0836
 29.5996  9576.38  97.1784
 29.6416  9413.31  96.4623
 29.6836  9643.2  97.5636
 29.7256  9441.65  97.0985
 29.7676  9542.26  97.2743
 29.8096  9494.31  96.9746
 29.8516  9376.44  96.6965
 29.8936  9467.6  97.2601
 29.9356  9464.24  97.0019
 29.9776  9374.65  96.6925
 30.0196  9409.82  96.2699
 30.0616  9517.17  97.1889
 30.1036  9369.83  96.2581
 30.1456  9349.34  96.3831
 30.1876  9431.62  96.7918
 30.2296  9311.16  96.1145
 30.2716  9445.7  96.4456
 30.3136  9506.81  97.6166
 30.3556  9581.92  98.004
 30.3976  9493.28  99.028
 30.4396  9805.02  97.9773
 30.4816  9743.95  97.2769
 30.5236  9700.91  97.0659
 30.5656  9581.82  97.1336
 30.6076  9526.13  96.612
 30.6496  9647.58  97.2718
 30.6916  9363.53  95.9251
 30.7336  9611.52  97.327
 30.7756  9495.34  96.8338
 30.8176  9754.3  98.0589
 30.8596  9519  96.6295
 30.9016  9666.12  97.2606
 30.9436  9574.82  97.0124
 30.9856  9786.59  98.1986
 31.0276  9517.11  96.4672
 31.0696  9436.03  96.6103
 31.1116  9255.25  95.658
 31.1536  9313.54  95.822
 31.1956  9491.65  96.8413
 31.2376  9233.55  95.5296
 31.2796  9428.14  96.064
 31.3216  9455.73  96.1408
 31.3636  9474.21  96.9473
 31.4056  9384.67  97.7981
 31.4476  9492.16  96.2506
 31.4896  9361.34  96.0794
 31.5316  9557.42  96.4824
 31.5736  9766.69  97.3627
 31.6156  9727.36  97.1726
 31.6576  9577.85  96.5008
 31.6996  9572.98  96.1461
 31.7416  9479.58  96.6331
 31.7836  9666.4  96.7036
 31.8256  9473.64  96.0026
 31.8676  9575.22  96.4974
 31.9096  9256.07  95.1093
 31.9516  9249.15  95.3891
 31.9936  9301.18  95.4712
 32.0356  9471.02  96.3951
 32.0776  9412.88  95.9809
 32.1196  9556.37  96.7301
 32.1616  9418.79  95.5682
 32.2036  9371.08  95.8439
 32.2456  9244.08  95.5749
 32.2876  9372.34  95.7267
 32.3296  9234.16  94.9742
 32.3716  9102.92  94.4144
 32.4136  9150.66  94.8587
 32.4556  9245.84  94.7359
 32.4976  9160.54  94.2471
 32.5396  9085.35  93.8785
 32.5816  9013.01  93.6386
 32.6236  9091.7  94.0988
 32.6656  9182.17  95.1233
 32.7076  9087.59  94.2767
 32.7496  8968.31  93.3403
 32.7916  9113.09  94.0377
 32.8336  9104.37  94.0949
 32.8756  9177.31  94.1889
 32.9176  9066.64  94.1119
 32.9596  9001.83  93.8424
 33.0016  9100.2  94.115
 33.0436  9030.26  93.9272
 33.0856  9017.44  93.9686
 33.1276  8890.82  93.0364
 33.1696  9115.18  94.0297
 33.2116  9144.08  94.418
 33.2536  9120.98  94.2917
 33.2956  9035.97  93.9377
 33.3376  8896.37  93.0276
 33.3796  9043.15  93.9242
 33.4216  8962.73  93.0934
 33.4636  9001.98  93.4531
 33.5056  8817.77  92.7432
 33.5476  8969.08  93.5034
 33.5896  8963.27  93.2758
 33.6316  8955.94  93.5381
 33.6736  8804.44  92.9995
 33.7156  8800.75  93.0109
 33.7576  8908.33  93.2177
 33.7996  9004.97  93.4766
 33.8416  8688.7  92.0114
 33.8836  8822.28  92.4885
 33.9256  8995.42  93.4539
 33.9676  8942.49  93.0659
 34.0096  8803.57  92.6642
 34.0516  8828.06  92.4206
 34.0936  8687.62  91.9591
 34.1356  8899.65  92.8084
 34.1776  8689.86  91.7042
 34.2196  8779.25  92.3549
 34.2616  8626.75  91.6962
 34.3036  8838.5  93.0671
 34.3456  8711.01  92.1413
 34.3876  8838.34  92.8705
 34.4296  8747.36  91.9922
 34.4716  8711.16  91.9541
 34.5136  8697.24  92.0752
 34.5556  8556.53  91.5827
 34.5976  8849.96  92.9793
 34.6396  8641.21  91.5562
 34.6816  8698.87  91.9721
 34.7236  8690.71  91.7061
 34.7656  8840.87  92.7042
 34.8076  8621.25  91.875
 34.8496  8568.53  91.438
 34.8916  8722.55  92.1273
 34.9336  8750.32  92.2503
 34.9756  8825.42  92.5906
 35.0176  8638.62  92.1099
 35.0596  8845.61  93.0296
 35.1016  8706.86  92.056
 35.1436  8785.34  92.1471
 35.1856  8652.57  91.5642
 35.2276  8651.76  91.7407
 35.2696  8630.96  91.8235
 35.3116  8537.83  91.4337
 35.3536  8700.52  92.0338
 35.3956  8568.65  91.0122
 35.4376  8743.67  92.503
 35.4796  8560.58  91.5765
 35.5216  8479.27  91.1051
 35.5636  8379.34  91.3039
 35.6056  8483.57  90.8804
 35.6476  8592.23  91.3726
 35.6896  8580.36  91.4015
 35.7316  8487.34  90.8762
 35.7736  8427.12  90.7388
 35.8156  8592.71  91.6365
 35.8576  8554.34  91.6612
 35.8996  8544.1  91.585
 35.9416  8529.2  91.0145
 35.9836  8499.59  91.3121
 36.0256  8682.74  92.1886
 36.0676  8608.04  91.5509
 36.1096  8487.58  91.0406
 36.1516  8722.83  92.1947
 36.1936  8708.87  91.9444
 36.2356  8536.06  91.6977
 36.2776  8553.47  91.2393
 36.3196  8467.41  90.4698
 36.3616  8452.66  90.5173
 36.4036  8464.44  90.6557
 36.4456  8557.35  91.3641
 36.4876  8295.63  89.892
 36.5296  8409.7  90.5476
 36.5716  8450.21  91.5447
 36.6136  8300.99  89.5158
 36.6556  8388.31  90.1877
 36.6976  8278.64  90.0932
 36.7396  8128.66  88.9998
 36.7816  8200.83  89.7715
 36.8236  8172.2  89.5427
 36.8656  8123.72  89.3367
 36.9076  8140.64  89.3225
 36.9496  8103.05  89.0969
 36.9916  8055.61  88.4708
 37.0336  8262.72  89.9111
 37.0756  8287.89  89.8441
 37.1176  8076.9  88.9595
 37.1596  8193.14  89.608
 37.2016  8002.42  88.7805
 37.2436  8270.1  89.5592
 37.2856  8136.96  89.0927
 37.3276  8211.34  88.8565
 37.3696  8121.71  89.2565
 37.4116  8117.61  89.1331
 37.4536  8140.2  89.1274
 37.4956  7962.6  88.1888
 37.5376  8317.2  91.7376
 37.5796  8123.25  90.5936
 37.6216  8005.42  88.2118
 37.6636  8242.74  89.3954
 37.7056  8153.32  89.106
 37.7476  8284.34  89.3558
 37.7896  8148.65  89.1254
 37.8316  8112.72  89.0932
 37.8736  8180.62  88.9824
 37.9156  8134.27  88.7288
 37.9576  8155.21  88.7515
 37.9996  8029.99  87.7808
 38.0416  7893.33  87.8246
 38.0836  8232.76  89.5988
 38.1256  8107.66  88.8897
 38.1676  8059.4  88.7362
 38.2096  8207.04  89.1633
 38.2516  8051.32  88.5273
 38.2936  8320.78  89.7957
 38.3356  8086.43  88.452
 38.3776  7992.76  88.1841
 38.4196  8060.95  88.4125
 38.4616  8127.49  89.03
 38.5036  8180.85  89.1648
 38.5456  7976.61  88.8748
 38.5876  7973.7  88.8874
 38.6296  8093.68  88.5281
 38.6716  8050.58  88.0796
 38.7136  8088.32  88.225
 38.7556  8028.87  88.4253
 38.7976  8098.07  88.7185
 38.8396  8103.82  89.2211
 38.8816  8008.42  88.4899
 38.9236  8036.46  88.4437
 38.9656  7920.9  87.7128
 39.0076  8192.14  88.5991
 39.0496  8054.33  88.4076
 39.0916  8137.42  88.5035
 39.1336  8105.32  88.7393
 39.1756  8137.64  88.9788
 39.2176  8090.39  89.2574
 39.2596  7988.47  88.6207
 39.3016  8128.19  88.975
 39.3436  7979.08  88.5656
 39.3856  8087.66  88.5867
 39.4276  8252.9  90.0208
 39.4696  8165.75  89.1637
 39.5116  8149.81  89.5955
 39.5536  8098.58  89.7262
 39.5956  8045.94  88.535
 39.6376  8042.16  88.5227
 39.6796  8006.35  88.0614
 39.7216  8071.89  88.5259
 39.7636  8067.27  89.0667
 39.8056  8139.16  89.2472
 39.8476  7895.1  88.1532
 39.8896  7957.24  88.1299
 39.9316  7954.75  88.3629
 39.9736  8004.02  88.2085
 40.0156  8045.3  88.2658
 40.0576  7961.1  88.1542
 40.0996  8129.96  88.2676
 40.1416  7985.79  88.2699
 40.1836  8063.88  88.594
 40.2256  8079.89  88.717
 40.2676  7831.3  87.5135
 40.3096  8021.95  88.4348
 40.3516  8114.35  89.05
 40.3936  8128.13  88.6713
 40.4356  7963.15  87.9811
 40.4776  8188.42  89.4597
 40.5196  8094.69  89.2368
 40.5616  8202.76  89.4703
 40.6036  7986.21  88.5352
 40.6456  8022.31  88.3386
 40.6876  8042.04  88.4449
 40.7296  8089.52  88.8359
 40.7716  8172.99  89.4031
 40.8136  7934.69  88.053
 40.8556  8146.44  89.3544
 40.8976  8020.43  88.5848
 40.9396  7996.33  88.7954
 40.9816  8084.37  88.5712
 41.0236  8023.72  88.0199
 41.0656  8131.38  89.1473
 41.1076  8042.45  88.4314
 41.1496  8059.42  88.4325
 41.1916  7988.6  88.3574
 41.2336  8038.78  88.6357
 41.2756  7997.23  88.0132
 41.3176  8118.62  89.2883
 41.3596  8170.66  89.3029
 41.4016  7980.04  88.5203
 41.4436  8022.85  88.5372
 41.4856  8053.92  88.8812
 41.5276  8149.24  89.4238
 41.5696  7924.33  87.8088
 41.6116  8075.46  89.0306
 41.6536  8072.2  88.8632
 41.6956  8012.05  88.5254
 41.7376  7983.42  88.4675
 41.7796  7998.86  88.4424
 41.8216  7973.89  88.5306
 41.8636  8028.76  88.7827
 41.9056  8023.56  88.5454
 41.9476  8175.32  89.6136
 41.9896  8170.17  89.2494
 42.0316  8068.13  88.7764
 42.0736  8150.18  89.3629
 42.1156  7953.88  88.0854
 42.1576  8048.37  88.7145
 42.1996  8053.93  88.8708
 42.2416  8011.5  88.2225
 42.2836  7972.97  88.1351
 42.3256  7992.38  88.3427
 42.3676  8156.76  89.0505
 42.4096  8018.59  88.2649
 42.4516  8150.44  89.0744
 42.4936  7897.05  87.7499
 42.5356  7895.96  87.8803
 42.5776  8113.7  89.0221
 42.6196  8112.48  89.0669
 42.6616  7915.69  88.154
 42.7036  8008.4  88.0424
 42.7456  8035.59  88.5552
 42.7876  7956.03  88.2032
 42.8296  8013.31  88.3568
 42.8716  7864.98  87.6992
 42.9136  7806.89  87.1283
 42.9556  7919.43  87.9255
 42.9976  7880.42  87.6711
 43.0396  7821.63  87.08
 43.0816  7836.16  87.5436
 43.1236  7819.15  87.4981
 43.1656  7833.71  87.4035
 43.2076  7846.74  87.5868
 43.2496  7941.81  87.9356
 43.2916  7871.83  87.9126
 43.3336  7837.76  87.555
 43.3756  7884.6  87.5711
 43.4176  7716.67  86.7149
 43.4596  7842.55  87.2737
 43.5016  7807.39  87.4706
 43.5436  7779.77  87.2298
 43.5856  7769.3  87.1995
 43.6276  7843.87  87.4966
 43.6696  7750.52  87.2395
 43.7116  7876.49  87.4401
 43.7536  7883.43  87.9831
 43.7956  7758.81  88.5057
 43.8376  7645.32  86.3731
 43.8796  7646.13  86.4583
 43.9216  7678.77  86.5593
 43.9636  7703.25  86.8035
 44.0056  7593.38  86.4145
 44.0476  7566.17  85.8916
 44.0896  7630.2  86.5993
 44.1316  7713.89  86.594
 44.1736  7555.78  85.8271
 44.2156  7601.05  85.9454
 44.2576  7584.68  86.1681
 44.2996  7697.73  86.7818
 44.3416  7670.42  86.3834
 44.3836  7526.71  85.9039
 44.4256  7533.06  85.5777
 44.4676  7558.21  85.88
 44.5096  7524.21  85.826
 44.5516  7448.68  85.3576
 44.5936  7480.38  85.493
 44.6356  7630.16  86.0849
 44.6776  7625.92  86.3821
 44.7196  7589.1  86.475
 44.7616  7707.76  88.5002
 44.8036  7746.44  87.3291
 44.8456  7807.4  87.6705
 44.8876  7700.69  86.9089
 44.9296  7888.09  87.4017
 44.9716  7733.02  86.9661
 45.0136  7736.27  86.9217
 45.0556  7766.65  87.1854
 45.0976  7612.28  86.3678
 45.1396  7637.24  86.253
 45.1816  7613.14  86.0584
 45.2236  7782.53  86.9179
 45.2656  7579.35  86.2781
 45.3076  7687.94  86.658
 45.3496  7665.01  86.8512
 45.3916  7561.91  86.5401
 45.4336  7735.35  87.371
 45.4756  7678.82  86.8945
 45.5176  7766.3  87.0029
 45.5596  7698.04  86.746
 45.6016  7574.73  86.4693
 45.6436  7720.53  86.4544
 45.6856  7591.2  86.3885
 45.7276  7517.18  87.2977
 45.7696  7512.14  86.9463
 45.8116  7620.12  86.9983
 45.8536  7576.35  86.6448
 45.8956  7733.28  86.8721
 45.9376  7701.59  86.156
 45.9796  7623.96  86.4075
 46.0216  7683.54  87.1028
 46.0636  7824.56  86.9887
 46.1056  7722.75  86.4343
 46.1476  7598.5  86.3332
 46.1896  7656.71  86.8089
 46.2316  7539.57  86.0171
 46.2736  7612.05  86.6297
 46.3156  7600.38  86.3122
 46.3576  7718.96  87.194
 46.3996  7536.64  86.3236
 46.4416  7567.55  86.0459
 46.4836  7519.71  86.1523
 46.5256  7624.41  86.6904
 46.5676  7601.76  86.6763
 46.6096  7615.69  86.6898
 46.6516  7710.54  86.2506
 46.6936  7631.63  86.3146
 46.7356  7659.3  86.5736
 46.7776  7499.79  86.5104
 46.8196  7583.03  86.7301
 46.8616  7341.33  85.1315
 46.9036  7445.75  85.3996
 46.9456  7510.54  85.3996
 46.9876  7539.26  85.651
 47.0296  7531.62  86.3047
 47.0716  7454.26  85.6841
 47.1136  7453.33  85.3578
 47.1556  7464  85.2783
 47.1976  7578.42  86.0859
 47.2396  7476.09  85.833
 47.2816  7360.49  84.8642
 47.3236  7415.36  85.5521
 47.3656  7513.9  86.0502
 47.4076  7629.02  86.4329
 47.4496  7418.8  85.3955
 47.4916  7459.02  85.8249
 47.5336  7549.48  86.1486
 47.5756  7554.45  86.3047
 47.6176  7456.82  85.6435
 47.6596  7426.05  85.1768
 47.7016  7663.57  86.3396
 47.7436  7530.93  85.9232
 47.7856  7542.54  86.0223
 47.8276  7443.71  85.5023
 47.8696  7458.6  85.6769
 47.9116  7568.57  86.0186
 47.9536  7493.63  85.5271
 47.9956  7401  85.7205
 48.0376  7275.5  84.7634
 48.0796  7585.18  86.6801
 48.1216  7495.46  85.9833
 48.1636  7575.91  86.0062
 48.2056  7469.6  85.6653
 48.2476  7556.39  86.4795
 48.2896  7570.88  86.4701
 48.3316  7528.77  86.1641
 48.3736  7429.95  85.6206
 48.4156  7381.04  85.1921
 48.4576  7450.45  85.8917
 48.4996  7565.39  85.9945
 48.5416  7549.43  86.2364
 48.5836  7453.5  85.3565
 48.6256  7518.63  85.9286
 48.6676  7503.82  86.3748
 48.7096  7459.62  85.3685
 48.7516  7438.43  85.4137
 48.7936  7344.38  84.933
 48.8356  7448.37  85.581
 48.8776  7424.4  86.0281
 48.9196  7520.52  85.9415
 48.9616  7455.33  85.953
 49.0036  7511.38  86.6346
 49.0456  7484.71  86.4626
 49.0876  7469.35  85.8919
 49.1296  7347.32  85.3585
 49.1716  7293.02  84.91
 49.2136  7614.81  86.6861
 49.2556  7397.15  85.4702
 49.2976  7497.31  86.113
 49.3396  7368.49  85.4299
 49.3816  7482.96  85.5037
 49.4236  7411.35  85.5264
 49.4656  7387.62  85.4128
 49.5076  7545.11  86.0619
 49.5496  7422.66  85.4295
 49.5916  7469.75  85.603
 49.6336  7491.69  85.9422
 49.6756  7456.8  85.9756
 49.7176  7416.09  85.6893
 49.7596  7406.87  85.3984
 49.8016  7483.69  85.7521
 49.8436  7416.8  85.6772
 49.8856  7342.42  85.2384
 49.9276  7378.94  85.5694
 49.9696  7333.47  85.2821
 50.0116  7343.54  85.48
 50.0536  7412.23  85.8182
 50.0956  7339.7  85.4616
 50.1376  7355.65  85.2564
 50.1796  7220.16  84.7407
 50.2216  7355.64  85.5213
 50.2636  7285.5  84.7225
 50.3056  7270.86  84.8236
 50.3476  7393.54  85.5637
 50.3896  7332.16  85.1706
 50.4316  7361.6  85.1705
 50.4736  7316.85  85.1367
 50.5156  7358.91  85.3686
 50.5576  7370.08  85.1888
 50.5996  7315.64  85.1632
 50.6416  7251.31  84.7081
 50.6836  7331.69  85.2407
 50.7256  7367.25  85.3617
 50.7676  7452.87  86.2021
 50.8096  7257.91  84.5826
 50.8516  7311.16  85.3229
 50.8936  7219.91  84.5545
 50.9356  7375.47  85.5855
 50.9776  7338.24  85.5313
 51.0196  7108.36  84.3097
 51.0616  7109.27  83.6278
 51.1036  7270.49  84.9359
 51.1456  7297.62  85.0046
 51.1876  7151.01  83.4662
 51.2296  7356.18  85.3109
 51.2716  7068.75  83.3344
 51.3136  7099.86  83.9886
 51.3556  7037.94  83.2344
 51.3976  7098.88  83.749
 51.4396  7038.63  83.7116
 51.4816  6991.39  83.2828
 51.5236  7137.18  84.2365
 51.5656  7121.03  83.7224
 51.6076  7157.88  84.0239
 51.6496  7064.03  83.6637
 51.6916  7090.74  84.1902
 51.7336  7067.81  84.1467
 51.7756  7080.73  83.917
 51.8176  7044.38  83.8138
 51.8596  6991.16  83.5065
 51.9016  7252.8  84.6529
 51.9436  7178.2  85.7524
 51.9856  7163.29  86.0836
 52.0276  7161.88  84.5213
 52.0696  7250.74  85.1147
 52.1116  7096.88  84.323
 52.1536  7191.35  84.7157
 52.1956  7211.87  84.3409
 52.2376  7256.54  84.7814
 52.2796  7147.72  83.9574
 52.3216  7008.94  83.8303
 52.3636  7038.2  83.5675
 52.4056  7041.37  83.4513
 52.4476  7098.17  84.1473
 52.4896  6971.62  83.4433
 52.5316  7178.94  84.7338
 52.5736  6969.05  83.1949
 52.6156  7074.4  84.2362
 52.6576  7047.16  83.4962
 52.6996  6918.52  83.7349
 52.7416  7016.07  84.1692
 52.7836  6995.57  83.9346
 52.8256  7143.58  83.9994
 52.8676  6949.45  83.4413
 52.9096  7021.14  83.939
 52.9516  7046.33  84.501
 52.9936  7015.21  84.6991
 53.0356  7066.78  83.9861
 53.0776  7100.83  84.4693
 53.1196  7144.96  84.8531
 53.1616  7105.03  84.6723
 53.2036  7092.29  84.5554
 53.2456  7100.25  84.7046
 53.2876  7070.61  84.2153
 53.3296  7032.52  84.3174
 53.3716  7142.09  84.7206
 53.4136  7075.69  84.4783
 53.4556  6982.13  83.951
 53.4976  7099.16  84.4838
 53.5396  6924.97  83.8423
 53.5816  7087.66  84.4443
 53.6236  7030.01  84.4707
 53.6656  7033.94  84.0838
 53.7076  6958.01  83.5678
 53.7496  7072.28  84.4016
 53.7916  6903.62  83.5276
 53.8336  6977.62  83.8557
 53.8756  6931.08  84.1447
 53.9176  6944.04  83.5428
 53.9596  6693.22  82.7945
 54.0016  6748.86  82.4561
 54.0436  6712.62  82.4589
 54.0856  6845.03  82.6843
 54.1276  6811.5  82.683
 54.1696  6740.16  82.4248
 54.2116  6807.16  82.5608
 54.2536  6798.69  82.3087
 54.2956  6823.5  82.5308
 54.3376  6694.61  82.236
 54.3796  6690.31  82.1047
 54.4216  6792.19  82.7987
 54.4636  6643.51  81.841
 54.5056  6766.79  82.399
 54.5476  6634.58  81.9251
 54.5896  6646.05  81.8317
 54.6316  6771.04  82.4458
 54.6736  6784.56  82.6154
 54.7156  6705.69  82.1641
 54.7576  6590.49  81.4421
 54.7996  6804.08  82.9173
 54.8416  6703.29  82.3397
 54.8836  6660.87  82.1553
 54.9256  6690.35  82.1042
 54.9676  6554.79  81.1237
 55.0096  6648.33  81.7428
 55.0516  6634.26  81.8775
 55.0936  6585.02  81.2576
 55.1356  6523.82  80.9139
 55.1776  6701.65  82.2667
 55.2196  6687.74  81.9464
 55.2616  6770.9  82.6917
 55.3036  6634.24  82.0415
 55.3456  6428.6  80.8714
 55.3876  6515.17  81.148
 55.4296  6472.89  80.886
 55.4716  6503.72  81.1024
 55.5136  6507.01  80.8904
 55.5556  6732.39  82.3284
 55.5976  6550.57  81.2986
 55.6396  6634.66  81.6648
 55.6816  6563.32  81.1741
 55.7236  6437.69  80.4603
 55.7656  6574.04  81.0132
 55.8076  6557.42  80.9372
 55.8496  6660.68  82.0048
 55.8916  6453.45  80.815
 55.9336  6666.4  81.9477
 55.9756  6372.8  80.0134
 56.0176  6396.33  80.2871
 56.0596  6463.44  80.7132
 56.1016  6395.22  80.3101
 56.1436  6453.47  80.9421
 56.1856  6379.56  80.217
 56.2276  6647.51  81.9333
 56.2696  6473.82  80.8427
 56.3116  6517.52  81.4885
 56.3536  6428.09  80.5879
 56.3956  6514.06  81.1159
 56.4376  6473.33  80.9088
 56.4796  6350.36  79.9553
 56.5216  6369.56  80.4472
 56.5636  6338.84  79.833
 56.6056  6617.57  81.7839
 56.6476  6317.14  79.5222
 56.6896  6544.62  81.4204
 56.7316  6427.04  80.5904
 56.7736  6496.79  81.0169
 56.8156  6394.92  80.4212
 56.8576  6264.45  79.5397
 56.8996  6368.45  80.0877
 56.9416  6376.55  80.4515
 56.9836  6454.87  80.4788
 57.0256  6321.58  79.9415
 57.0676  6477.13  81.0445
 57.1096  6342.8  80.0033
 57.1516  6293.45  79.7438
 57.1936  6298.9  79.5351
 57.2356  6217.23  79.3316
 57.2776  6345.74  80.1172
 57.3196  6428.73  81.0022
 57.3616  6394.99  80.259
 57.4036  6356.88  80.0718
 57.4456  6442.97  80.6057
 57.4876  6414.94  80.2955
 57.5296  6304.5  79.9125
 57.5716  6229.54  79.4668
 57.6136  6267.39  79.5322
 57.6556  6341.35  80.1152
 57.6976  6326.33  79.8595
 57.7396  6178.83  79.2771
 57.7816  6193.48  79.7514
 57.8236  6244.3  79.8467
 57.8656  6354.65  80.2216
 57.9076  6312.29  79.9578
 57.9496  6296.33  80.2239
 57.9916  6356.8  80.114
 58.0336  6302.07  80.0622
 58.0756  6308.17  79.7074
 58.1176  6275.39  79.5184
 58.1596  6233.77  79.8434
 58.2016  6008.3  77.6047
 58.2436  6187.57  79.1691
 58.2856  6007.81  77.9309
 58.3276  6056.91  78.613
 58.3696  6004.43  78.0381
 58.4116  6054.81  78.2261
 58.4536  6117.82  78.5198
 58.4956  5959.65  77.6745
 58.5376  6059.03  77.8906
 58.5796  6074.56  78.4111
 58.6216  6040.19  78.0104
 58.6636  6011.94  78.0328
 58.7056  6072.17  78.2844
 58.7476  5991.33  78.2031
 58.7896  6024.27  78.0602
 58.8316  6063.05  78.3115
 58.8736  5995.71  77.8868
 58.9156  6020.52  78.0905
 58.9576  5999.49  78.2722
 58.9996  6062.81  77.9337
 59.0416  6047.74  78.1934
 59.0836  6054.58  78.1586
 59.1256  5940.03  78.1139
 59.1676  6060.97  79.2167
 59.2096  6117.57  78.8796
 59.2516  6025.57  77.8658
 59.2936  5929.88  77.5701
 59.3356  6066.99  78.3393
 59.3776  6035.93  78.3074
 59.4196  6138.6  78.9053
 59.4616  5940.92  77.4863
 59.5036  5783.88  76.49
 59.5456  6166.6  78.6702
 59.5876  6003.67  77.8145
 59.6296  5979.19  77.7245
 59.6716  5923.91  77.4218
 59.7136  5924.7  77.4153
 59.7556  5911.94  77.4669
 59.7976  5830.16  76.676
 59.8396  5951.33  77.3637
 59.8816  5917.93  77.6856
 59.9236  6034.3  78.0901
 59.9656  5960.82  77.8722
 60.0076  5899  76.8322
 60.0496  5947.11  77.645
 60.0916  6166.03  78.4731
 60.1336  5987.1  78.4285
 60.1756  5807.3  78.403
 60.1996  0.0000000E+00  0.0000000E+00