File: docs/examples/opeando_xrd/IS17_D/Data/IS17_D/17_Da_f00040.xye
# /beamlines/bl04/projects/cycle2025-II/20250340211-lsimonelli/DATA/IS17_D/17_Da_f00040.xye : mythproc.py merge -s 0.006 -l 0.5 -f /beamlines/bl04/inhouse/ff/FlatField/ff_20Nov2024rod8mm60s_17keV.raw -b True -c true -o xye /beamlines/bl04/projects/cycle2025-II/20250340211-lsimonelli/DATA/IS17_D/17_Da_00040.dat
# IsMon = [6781681, 6786601, 6787418]  IsPos = [-1.4999, -2.4885, -3.4988]
# Wave = 0.4962  CalPath /beamlines/bl04/projects/cycle2025-II/20250340211-lsimonelli/DATA/Align/Si_Pos1_25keV_f00001.cal
# Date = 2025-09-24_04:41:47 Dt = 4.8000  Bin = 0.0060  <imon> = 6785233 +/- 2534 (Min/Max) 6781681 / 6787418
# icurr 252.2233  mocoIn 1.7212E-05  mocoOut 0.8076  i15 7.10019e+06  imon 6.78523e+06  i7 6.0000  iEMpd_timer 4.8000  iEMpd_1 3.5356E-08  iEMpd_2 7.7865E-08  iEMpd_3 1.6639E-08  iEMpd_4 5.0230E-08  iEMhp_timer 4.8000  iEMhp_1 4.9287E-06  iEMhp_2 -2.6554E-08  iEMhp_3 -2.3001E-08  iEMhp_4 -2.1997E-08
#      9776
 1.5856  40802.7  207.473
 1.6276  47856.9  220.837
 1.6696  55031.2  235.977
 1.7116  63730.8  254.442
 1.7536  72980.7  271.122
 1.7956  78089.2  281.151
 1.8376  74029.1  274.178
 1.8796  62079  249.214
 1.9216  49932.9  224.412
 1.9636  42394.3  205.931
 2.0056  38386.8  195.197
 2.0476  35446.1  189.628
 2.0896  34159.2  185.062
 2.1316  32991.9  180.998
 2.1736  32004.3  179.682
 2.2156  32607.9  179.914
 2.2576  30957.6  175.93
 2.2996  29543.8  172.497
 2.3416  30023.5  172.498
 2.3836  29337.6  170.627
 2.4256  28827.6  169.688
 2.4676  28030.1  167.087
 2.5096  27784.7  166.409
 2.5516  27319  168.806
 2.5936  27459.4  165.817
 2.6356  26922.2  164.875
 2.6776  26723.5  163.16
 2.7196  26224.2  162.144
 2.7616  26432.7  162.561
 2.8036  25928.1  161.173
 2.8456  25948  161.856
 2.8876  25240.5  159.485
 2.9296  25100.5  159.193
 2.9716  24822.7  157.8
 3.0136  24641.8  157.291
 3.0556  24514.2  157.283
 3.0976  24295.2  155.521
 3.1396  24207.9  155.951
 3.1816  23985.5  155.169
 3.2236  23807.8  154.586
 3.2656  23801.2  153.592
 3.3076  23429.4  153.847
 3.3496  23966.3  154.781
 3.3916  24410.5  155.785
 3.4336  24693.6  157.265
 3.4756  24827.6  157.626
 3.5176  25889.5  160.737
 3.5596  25599.9  162.267
 3.6016  25763  160.398
 3.6436  24835.1  158.578
 3.6856  24396.3  155.476
 3.7276  23512.9  153.718
 3.7696  23442.7  153.684
 3.8116  22984.9  152.062
 3.8536  22948.3  151.877
 3.8956  22929  151.637
 3.9376  22922.9  151.875
 3.9796  22744.7  150.79
 4.0216  22934.9  150.453
 4.0636  22891.6  151.786
 4.1056  22771.3  151.027
 4.1476  23024.4  152.192
 4.1896  23182.4  152.566
 4.2316  23179.4  152.384
 4.2736  23699.5  153.868
 4.3156  24084.7  155.341
 4.3576  24658.8  157.114
 4.3996  25004.5  158.465
 4.4416  25575  159.849
 4.4836  26165.9  161.832
 4.5256  26303.6  162.884
 4.5676  26391  163.396
 4.6096  26932.7  163.731
 4.6516  27325.8  164.619
 4.6936  27354.4  165.514
 4.7356  27581.5  166.033
 4.7776  27628.7  166.002
 4.8196  27234.6  165.478
 4.8616  26807  163.781
 4.9036  26477.2  162.395
 4.9456  26385.7  162.753
 4.9876  25735.9  160.636
 5.0296  26156.9  161.764
 5.0716  25996.7  161.891
 5.1136  26099.4  162.072
 5.1556  26547.6  162.913
 5.1976  26937.6  164.112
 5.2396  26930.2  163.783
 5.2816  26867.2  164.059
 5.3236  27037.9  164.276
 5.3656  26536.8  163.665
 5.4076  26260  162.96
 5.4496  26464.6  163.071
 5.4916  26549.3  163.096
 5.5336  26447.9  162.786
 5.5756  26159.5  161.942
 5.6176  26211.1  161.533
 5.6596  26323.2  162.851
 5.7016  26805.1  163.593
 5.7436  26830.9  163.946
 5.7856  26749.5  163.754
 5.8276  27048.4  164.384
 5.8696  27166.8  164.921
 5.9116  27039.2  165.132
 5.9536  27416.4  166.036
 5.9956  27590.7  165.917
 6.0376  27880.7  167.433
 6.0796  27913.4  167.362
 6.1216  28005  167.832
 6.1636  28191.4  167.465
 6.2056  28075.1  167.771
 6.2476  28309.9  168.353
 6.2896  28545.9  168.738
 6.3316  28659.7  169.251
 6.3736  28804.5  169.568
 6.4156  28811.9  169.493
 6.4576  29075.5  169.867
 6.4996  29269.5  170.906
 6.5416  29195.8  170.831
 6.5836  29184.8  171.023
 6.6256  29251.3  170.792
 6.6676  29673.2  171.583
 6.7096  29541  172.058
 6.7516  30023  173.104
 6.7936  30264  173.233
 6.8356  30345.7  173.541
 6.8776  30751.3  175.489
 6.9196  30574  175.388
 6.9616  30967.8  175.933
 7.0036  31476.8  177.055
 7.0456  31419.7  176.194
 7.0876  31414.1  177.859
 7.1296  31269.4  176.592
 7.1716  31366.8  176.408
 7.2136  31009.9  175.182
 7.2556  31314.6  176.202
 7.2976  31221.4  176.435
 7.3396  31153.3  176.448
 7.3816  31208.4  176.822
 7.4236  31686.9  177.465
 7.4656  31549.2  176.57
 7.5076  31875.1  177.612
 7.5496  31761.5  177.823
 7.5916  31901.5  178.252
 7.6336  32156.6  178.862
 7.6756  32268.2  179.024
 7.7176  32494.6  179.956
 7.7596  32197.9  180.365
 7.8016  32763.9  184.116
 7.8436  33365.2  182.459
 7.8856  33513.5  182.479
 7.9276  34167  184.64
 7.9696  34322.5  185.371
 8.0116  34950.1  185.604
 8.0536  35502.1  187.323
 8.0956  34998.1  187.153
 8.1376  35736.3  188.59
 8.1796  35937.1  189.664
 8.2216  36701  190.41
 8.2636  36730.6  190.728
 8.3056  36925.9  192.006
 8.3476  37483.3  192.781
 8.3896  37309.8  192.41
 8.4316  37054  191.916
 8.4736  37446.2  192.395
 8.5156  37077.7  191.721
 8.5576  36689.4  191.684
 8.5996  36705.4  190.605
 8.6416  36634.7  191.677
 8.6836  36432.7  190.975
 8.7256  36775.1  191.321
 8.7676  36198  192.71
 8.8096  36017.9  189.573
 8.8516  35858.4  188.771
 8.8936  35626.1  188.053
 8.9356  35396.2  187.803
 8.9776  35638.2  188.528
 9.0196  35224.3  187.118
 9.0616  35426  187.107
 9.1036  34967.4  187.08
 9.1456  34949.4  186.38
 9.1876  34956.8  186.361
 9.2296  34746  185.2
 9.2716  34473  184.539
 9.3136  34510  184.628
 9.3556  34575.5  184.783
 9.3976  33315.6  181.917
 9.4396  33948.6  183.523
 9.4816  33066.6  180.996
 9.5236  33193.6  181.246
 9.5656  33117  181.346
 9.6076  32829.7  181.076
 9.6496  32885.1  181.164
 9.6916  32986.6  181.406
 9.7336  32496.7  179.847
 9.7756  32869.8  182.185
 9.8176  32002.2  179.207
 9.8596  31962.3  177.571
 9.9016  31406.2  176.013
 9.9436  31246.3  175.478
 9.9856  30861.8  174.612
 10.0276  30427.4  174.462
 10.0696  31127.5  175.513
 10.1116  30101  172.85
 10.1536  29902.5  172.444
 10.1956  29186.5  169.978
 10.2376  28968.9  168.866
 10.2796  29027.1  169.151
 10.3216  28892.7  169.011
 10.3636  28804.1  168.796
 10.4056  28492.7  168.261
 10.4476  28332.1  167.427
 10.4896  28241.8  166.626
 10.5316  27574.4  165.332
 10.5736  27448.7  165.354
 10.6156  27120.7  164.144
 10.6576  27255.5  163.149
 10.6996  27121.6  163.397
 10.7416  26789.8  162.634
 10.7836  26797.3  163.309
 10.8256  26568.8  163.032
 10.8676  26578.8  162.607
 10.9096  26201.5  161.495
 10.9516  26034.8  159.93
 10.9936  26022.3  160.088
 11.0356  25869.9  160.238
 11.0776  25861.3  159.537
 11.1196  25267.2  158.425
 11.1616  25085  157.546
 11.2036  25119.3  157.513
 11.2456  25285.3  158.721
 11.2876  25075.9  157.809
 11.3296  24777.2  156.761
 11.3716  24954.1  157.019
 11.4136  25033.4  158.142
 11.4556  24957.1  157.576
 11.4976  25313.6  157.697
 11.5396  25486.1  158.396
 11.5816  25888.2  160.096
 11.6236  26421.6  162.179
 11.6656  26123.4  160.203
 11.7076  25364.2  158.684
 11.7496  24913.7  161.144
 11.7916  24863.4  156.382
 11.8336  24402.4  155.817
 11.8756  24131.3  154.473
 11.9176  24357.2  154.85
 11.9596  23852.9  153.428
 12.0016  23937.5  154.482
 12.0436  23656.9  153.016
 12.0856  23678.7  153.595
 12.1276  23616  153.305
 12.1696  23697.4  152.721
 12.2116  23757.2  152.9
 12.2536  23725.3  153.625
 12.2956  23580.4  152.493
 12.3376  23252.8  151.649
 12.3796  23478.6  152.829
 12.4216  23504.6  152.146
 12.4636  23223.3  152.131
 12.5056  23359.6  151.863
 12.5476  23611.1  152.208
 12.5896  23566.2  152.685
 12.6316  23116.3  151.385
 12.6736  23384.9  152.731
 12.7156  23012.2  151.387
 12.7576  23285.3  152.513
 12.7996  23488.5  151.84
 12.8416  23214  151.986
 12.8836  23598.9  153.064
 12.9256  23806.3  152.772
 12.9676  23794.2  153.14
 13.0096  23616.4  153.666
 13.0516  23907.5  153.647
 13.0936  23810  153.742
 13.1356  24284.7  154.247
 13.1776  23843.2  153.812
 13.2196  24149.9  154.456
 13.2616  24126.5  154.684
 13.3036  24255.2  155.076
 13.3456  23985.6  154.353
 13.3876  24111.6  154.272
 13.4296  24055  154.235
 13.4716  23989.2  153.637
 13.5136  24162.5  154.343
 13.5556  24021.6  154.487
 13.5976  24123.2  154.963
 13.6396  24151  154.421
 13.6816  23932.1  154.215
 13.7236  24519.9  155.748
 13.7656  23952.9  154.473
 13.8076  24088.2  153.696
 13.8496  23753.7  153.226
 13.8916  23677.5  153.967
 13.9336  23713.1  153.304
 13.9756  23621.2  152.375
 14.0176  23421.5  152.392
 14.0596  23718.3  153.324
 14.1016  23242.6  152.173
 14.1436  23169.1  151.086
 14.1856  22740.5  149.96
 14.2276  22450.5  149.484
 14.2696  22732.5  150.258
 14.3116  22455.8  149.233
 14.3536  22258.1  148.757
 14.3956  22046.9  147.782
 14.4376  22227.5  148.17
 14.4796  22127.2  147.829
 14.5216  21687.1  147.124
 14.5636  21628.6  146.505
 14.6056  21843.4  146.818
 14.6476  21883.8  146.181
 14.6896  21393.2  145.067
 14.7316  20910.2  144.44
 14.7736  21013  143.945
 14.8156  20833  143.365
 14.8576  20629.4  142.513
 14.8996  20343.7  142.714
 14.9416  19910  141.187
 14.9836  20148.5  141.985
 15.0256  19943.9  140.193
 15.0676  20084.4  140.999
 15.1096  19632.6  139.144
 15.1516  19510.2  139.258
 15.1936  19354.6  138.137
 15.2356  19051.5  137.329
 15.2776  19036.9  136.865
 15.3196  18833.1  137.125
 15.3616  18844  136.918
 15.4036  18518  135.594
 15.4456  18885.2  136.582
 15.4876  18576  135.136
 15.5296  18263.4  134.28
 15.5716  18046.2  133.089
 15.6136  18055  133.448
 15.6556  18008.2  132.521
 15.6976  18149.2  133.115
 15.7396  17860.1  132.646
 15.7816  17640.1  131.343
 15.8236  17479.4  131.437
 15.8656  17248.5  130.363
 15.9076  17229.8  130.121
 15.9496  17204.6  132.804
 15.9916  17129.9  132.948
 16.0336  16800.9  128.614
 16.0756  16964.6  129.54
 16.1176  16978.9  129.662
 16.1596  16612.4  129.415
 16.2016  16733.1  128.634
 16.2436  16356.3  127.564
 16.2856  16514.7  127.733
 16.3276  16181.4  126.849
 16.3696  16564.6  128.164
 16.4116  16117.8  126.877
 16.4536  16418.3  127.833
 16.4956  16153.3  126.557
 16.5376  15967.3  125.99
 16.5796  15969.5  125.379
 16.6216  15943.8  125.575
 16.6636  15909.3  125.582
 16.7056  15726.1  124.735
 16.7476  16047  125.539
 16.7896  15907.6  125.726
 16.8316  16014.5  126.116
 16.8736  15871  125.813
 16.9156  15931  126.375
 16.9576  15805.1  126.658
 16.9996  15903.4  127.53
 17.0416  15945.3  126.073
 17.0836  15946.9  125.852
 17.1256  15736.2  125.02
 17.1676  15792.5  125.239
 17.2096  15474.2  123.85
 17.2516  15567.1  124.006
 17.2936  15491.8  124.037
 17.3356  15149.7  122.661
 17.3776  15171  122.924
 17.4196  15332.6  123.271
 17.4616  15159.6  122.501
 17.5036  14855.6  121.615
 17.5456  14702.6  121.627
 17.5876  14727.8  120.792
 17.6296  14708.7  120.534
 17.6716  14705.1  121.075
 17.7136  14417.3  120.042
 17.7556  14424.7  120.352
 17.7976  14432.2  119.99
 17.8396  14344.1  119.266
 17.8816  14301.2  119.619
 17.9236  14168.6  118.884
 17.9656  14153.3  119.498
 18.0076  14211.3  119.17
 18.0496  14140.5  118.025
 18.0916  14049.8  118.176
 18.1336  14164.5  118.749
 18.1756  14410.7  119.313
 18.2176  13889  117.35
 18.2596  13764.7  116.57
 18.3016  14241.6  118.824
 18.3436  13983.2  117.964
 18.3856  13787.6  117.056
 18.4276  13949.4  117.421
 18.4696  13768.2  116.75
 18.5116  13914.3  117.645
 18.5536  14082.1  118.694
 18.5956  13712.7  116.701
 18.6376  13716.7  117.11
 18.6796  13804.5  116.826
 18.7216  13749.8  117.142
 18.7636  13583.9  116.361
 18.8056  13609.1  116.401
 18.8476  13592.4  116.934
 18.8896  13664  116.594
 18.9316  13847  117.192
 18.9736  13544.4  115.773
 19.0156  13496.5  115.965
 19.0576  13648.3  115.508
 19.0996  13823.6  116.943
 19.1416  13366.4  115.381
 19.1836  13546.8  115.754
 19.2256  13463  115.608
 19.2676  13385.2  115.36
 19.3096  13714.5  117.011
 19.3516  13418.9  115.708
 19.3936  13455.6  115.769
 19.4356  13507  115.871
 19.4776  13390.7  115.462
 19.5196  13530.1  115.916
 19.5616  13389.7  115.56
 19.6036  13599.3  115.959
 19.6456  13437.3  115.388
 19.6876  13549.4  115.519
 19.7296  13479  115.673
 19.7716  13408.9  115.386
 19.8136  13546.7  116.332
 19.8556  13717.4  116.539
 19.8976  13466.3  115.535
 19.9396  13645.2  115.886
 19.9816  13925.9  117.303
 20.0236  13970.2  117.711
 20.0656  14162  118.506
 20.1076  14131.2  118.851
 20.1496  14516.5  120.461
 20.1916  14565.2  120.174
 20.2336  14551.9  120.044
 20.2756  14238.2  119.18
 20.3176  13681.6  116.574
 20.3596  13763.8  116.896
 20.4016  13643.4  116.192
 20.4436  13525.8  116.254
 20.4856  13383.6  115.429
 20.5276  13300.9  115.522
 20.5696  13287.7  114.934
 20.6116  13253.8  115.057
 20.6536  13040.8  113.696
 20.6956  13041  113.769
 20.7376  13028.9  113.939
 20.7796  12906.7  113.101
 20.8216  13117.7  113.728
 20.8636  12757.2  112.525
 20.9056  12878.9  113.002
 20.9476  12668.3  111.919
 20.9896  13004.2  113.26
 21.0316  13026.9  113.252
 21.0736  12830.2  112.915
 21.1156  12842.2  113.115
 21.1576  12923.8  113.53
 21.1996  12733.5  112.673
 21.2416  12738.8  112.535
 21.2836  12670.7  112.178
 21.3256  12592.6  111.934
 21.3676  12790.3  112.355
 21.4096  12684.7  112.192
 21.4516  12750.1  112.365
 21.4936  12461.5  111.33
 21.5356  12753.5  112.577
 21.5776  12743  112.365
 21.6196  12408.7  110.913
 21.6616  12413.9  111.026
 21.7036  12520.6  111.287
 21.7456  12665.4  112.001
 21.7876  12455.5  110.823
 21.8296  12477.4  110.778
 21.8716  12434.5  110.821
 21.9136  12638.7  111.921
 21.9556  12327.6  110.215
 21.9976  12402.9  110.564
 22.0396  12363  110.638
 22.0816  12345.6  111.09
 22.1236  12551  111.469
 22.1656  12480.4  111.327
 22.2076  12433  110.54
 22.2496  12439.9  110.596
 22.2916  12513.4  110.797
 22.3336  12417.2  111.076
 22.3756  12368.9  110.603
 22.4176  12217.7  109.784
 22.4596  12195.9  110.261
 22.5016  12405.5  110.707
 22.5436  12500.4  111.012
 22.5856  12308.3  110.399
 22.6276  12272.5  110.374
 22.6696  12412.7  111.35
 22.7116  12392.6  110.778
 22.7536  12320.8  110.431
 22.7956  12360.4  109.946
 22.8376  12244.2  109.945
 22.8796  12274.4  109.883
 22.9216  12528.6  111.559
 22.9636  12437.5  110.311
 23.0056  12232.6  109.532
 23.0476  12461.1  111.117
 23.0896  12394  110.199
 23.1316  12411.4  110.711
 23.1736  12229.7  112.818
 23.2156  12545.7  111.647
 23.2576  12379.1  111.043
 23.2996  12477.9  111.261
 23.3416  12379.7  111.342
 23.3836  12295.7  110.204
 23.4256  12528.3  111.367
 23.4676  12548.3  111.151
 23.5096  12380.9  111.074
 23.5516  12366.4  110.299
 23.5936  12560.6  112.061
 23.6356  12547.9  111.677
 23.6776  12384.4  111.149
 23.7196  12217.6  109.986
 23.7616  12408  110.748
 23.8036  12370.6  110.639
 23.8456  12402.1  110.338
 23.8876  12070.6  109.214
 23.9296  12170.1  110.142
 23.9716  12258.8  109.745
 24.0136  12168.5  110.229
 24.0556  11924.5  108.855
 24.0976  11976.4  108.905
 24.1396  11879.8  111.068
 24.1816  12065.9  110.697
 24.2236  11785.8  108.698
 24.2656  11665.9  107.629
 24.3076  11814.5  108.556
 24.3496  11738.5  108.093
 24.3916  11792.8  108.401
 24.4336  11668.4  108.033
 24.4756  11649  107.803
 24.5176  11650.1  107.472
 24.5596  11471.2  106.769
 24.6016  11421.6  106.821
 24.6436  11432.1  106.369
 24.6856  11472.4  106.318
 24.7276  11383.7  106.211
 24.7696  11284.2  105.864
 24.8116  11234.3  105.798
 24.8536  11254.4  105.899
 24.8956  11146.5  105.132
 24.9376  11270.4  105.653
 24.9796  10967.1  104.571
 25.0216  10922.5  104.469
 25.0636  11036.9  104.671
 25.1056  11102.7  105.402
 25.1476  11055.8  107.103
 25.1896  11115.1  105.87
 25.2316  11124.9  105.192
 25.2736  11096.9  104.722
 25.3156  10949.4  104.098
 25.3576  10817.5  103.885
 25.3996  10950.5  104.505
 25.4416  10913.7  104.309
 25.4836  10839.8  104.471
 25.5256  10888.1  104.074
 25.5676  10889  103.81
 25.6096  10786.2  103.888
 25.6516  10838.3  103.643
 25.6936  10844.6  103.987
 25.7356  10710.3  103.471
 25.7776  10788.2  103.457
 25.8196  10671.2  103.124
 25.8616  10655.3  102.971
 25.9036  10859.7  103.429
 25.9456  10651.4  103.016
 25.9876  10523.9  102.462
 26.0296  10846.1  103.619
 26.0716  10620.3  102.87
 26.1136  10678.5  103.088
 26.1556  10790.2  103.009
 26.1976  10480.9  102.434
 26.2396  10643.5  102.633
 26.2816  10613.2  102.846
 26.3236  10597.9  102.927
 26.3656  10562.5  102.491
 26.4076  10819.5  103.928
 26.4496  10990.4  104.261
 26.4916  10747.2  103.087
 26.5336  10831.2  103.813
 26.5756  10808.6  103.558
 26.6176  10624.1  102.724
 26.6596  10411.5  101.998
 26.7016  10569.1  102.524
 26.7436  10453.3  102.096
 26.7856  10396.9  101.802
 26.8276  10343.7  101.499
 26.8696  10527.9  102.271
 26.9116  10358  101.383
 26.9536  10310.1  101.197
 26.9956  10441.9  101.864
 27.0376  10172  100.763
 27.0796  10350.3  101.452
 27.1216  10271.3  101.065
 27.1636  10069.8  100.228
 27.2056  10215  100.829
 27.2476  10254.4  101.02
 27.2896  10124.6  100.487
 27.3316  10164.8  100.411
 27.3736  10126.8  100.48
 27.4156  10074.3  100.071
 27.4576  10107.1  100.458
 27.4996  10030.4  99.6836
 27.5416  10048.2  100.08
 27.5836  10085.3  100.083
 27.6256  10246.2  101.034
 27.6676  10160  100.636
 27.7096  10020.2  99.803
 27.7516  9976.74  99.7384
 27.7936  9988.78  99.9775
 27.8356  9920.66  99.2533
 27.8776  10011  99.7543
 27.9196  9846.5  98.7753
 27.9616  9916.42  99.3089
 28.0036  9966.43  99.541
 28.0456  9935.95  99.5151
 28.0876  9725.43  98.5502
 28.1296  9818.47  98.8603
 28.1716  9870.3  99.1331
 28.2136  9891.55  99.2047
 28.2556  9692.07  98.3183
 28.2976  9703.05  98.3614
 28.3396  9867.5  98.9826
 28.3816  9757.56  98.4175
 28.4236  9683.59  98.191
 28.4656  9660.63  98.1052
 28.5076  9687.38  97.8919
 28.5496  9816.36  98.8014
 28.5916  9804.43  98.5507
 28.6336  9540.56  97.5538
 28.6756  9793.04  98.0387
 28.7176  9615.47  97.684
 28.7596  9538.78  97.1948
 28.8016  9679.53  97.9428
 28.8436  9402.79  96.7704
 28.8856  9638.82  97.8305
 28.9276  9550.33  97.6185
 28.9696  9511.84  97.0882
 29.0116  9652.64  97.9838
 29.0536  9411.87  96.9549
 29.0956  9579.36  97.5367
 29.1376  9437.62  96.7732
 29.1796  9390.43  96.5739
 29.2216  9454.85  96.7495
 29.2636  9544.45  97.206
 29.3056  9438.32  96.5342
 29.3476  9456.93  97.146
 29.3896  9482.46  97.3668
 29.4316  9651.04  97.5653
 29.4736  9443.36  96.5718
 29.5156  9691.62  97.7543
 29.5576  9297.15  96.4722
 29.5996  9458.16  96.5676
 29.6416  9509.33  96.9406
 29.6836  9546.72  97.064
 29.7256  9427.56  97.018
 29.7676  9424.32  96.6626
 29.8096  9424.03  96.6054
 29.8516  9297.33  96.2791
 29.8936  9415.05  96.9845
 29.9356  9525.61  97.3071
 29.9776  9273.28  96.162
 30.0196  9353.36  95.974
 30.0616  9395.74  96.5587
 30.1036  9340.23  96.1009
 30.1456  9413.61  96.7078
 30.1876  9207.36  95.624
 30.2296  9288.88  95.9917
 30.2716  9223.63  95.2989
 30.3136  9435.59  97.2358
 30.3556  9260.17  96.3554
 30.3976  9181.81  97.4537
 30.4396  9278.48  95.3399
 30.4816  9295.42  95.0253
 30.5236  9226.4  94.6958
 30.5656  9198.01  95.1837
 30.6076  9317.84  95.243
 30.6496  9221.73  95.1226
 30.6916  9148.5  94.8278
 30.7336  9152.75  95.0096
 30.7756  9127.19  94.968
 30.8176  9084.55  94.6622
 30.8596  9293.05  95.5135
 30.9016  9217.39  95.4622
 30.9436  9448.81  96.406
 30.9856  9122.07  94.8343
 31.0276  9223.37  94.9712
 31.0696  9101.96  94.9082
 31.1116  9058.66  94.6588
 31.1536  9144.69  94.9851
 31.1956  9111.26  94.9043
 31.2376  8926.03  93.9328
 31.2796  9049.72  94.1369
 31.3216  9045.45  94.0573
 31.3636  9174.68  95.4113
 31.4056  8993.46  95.764
 31.4476  9046.27  93.9629
 31.4896  8981.24  94.1186
 31.5316  9101.28  94.1932
 31.5736  9077.07  93.8326
 31.6156  9192.26  94.4624
 31.6576  9054.61  93.8445
 31.6996  9059.66  93.5512
 31.7416  8950.22  94.0176
 31.7836  8949.2  93.0541
 31.8256  8936.84  93.3314
 31.8676  9083.96  94.0177
 31.9096  8799.25  92.884
 31.9516  8771.61  92.8935
 31.9936  8804.25  92.888
 32.0356  8755.71  92.7032
 32.0776  8952.96  93.6256
 32.1196  8994.64  93.9307
 32.1616  9013.3  93.4947
 32.2036  8813.87  92.9559
 32.2456  8880.04  93.6749
 32.2876  8908.2  93.1579
 32.3296  8815.23  92.8076
 32.3716  8893.53  93.3143
 32.4136  8874.76  93.4274
 32.4556  8772.44  92.3343
 32.4976  8855.68  92.6217
 32.5396  8889.99  92.8731
 32.5816  8703.86  92.022
 32.6236  8813.06  92.6619
 32.6656  8855.95  93.4199
 32.7076  8705.62  92.2842
 32.7496  8835.76  92.6396
 32.7916  8747.29  92.1374
 32.8336  8838.75  92.7094
 32.8756  8910.08  92.8101
 32.9176  8717.63  92.2716
 32.9596  8718.6  92.3559
 33.0016  8748.25  92.3106
 33.0436  8799.23  92.7475
 33.0856  8729.49  92.4499
 33.1276  8541.52  91.1861
 33.1696  8748.65  92.1351
 33.2116  8831.13  92.7909
 33.2536  8692.3  92.064
 33.2956  8622.42  91.7708
 33.3376  8645.67  91.6401
 33.3796  8728.25  92.2765
 33.4216  8757.47  92.035
 33.4636  8600.33  91.3474
 33.5056  8571.34  91.4316
 33.5476  8659.1  91.8955
 33.5896  8616.08  91.4141
 33.6316  8672.93  92.0596
 33.6736  8564.31  91.7073
 33.7156  8684  92.395
 33.7576  8712.92  92.185
 33.7996  8685.78  91.804
 33.8416  8547.49  91.2553
 33.8836  8654.37  91.599
 33.9256  8573.63  91.2386
 33.9676  8653.75  91.5462
 34.0096  8547.14  91.3065
 34.0516  8534.38  90.8789
 34.0936  8559  91.2714
 34.1356  8519.97  90.8036
 34.1776  8452.27  90.453
 34.2196  8548.18  91.1471
 34.2616  8466.04  90.8372
 34.3036  8341.95  90.4229
 34.3456  8454.31  90.7822
 34.3876  8433.98  90.6393
 34.4296  8435.15  90.3351
 34.4716  8628.78  91.5117
 34.5136  8518.6  91.1299
 34.5556  8504.67  91.3031
 34.5976  8511.43  91.1475
 34.6396  8540.46  91.0162
 34.6816  8377.08  90.2598
 34.7236  8486.75  90.6323
 34.7656  8407.85  90.3898
 34.8076  8322.7  90.258
 34.8496  8476.35  90.9421
 34.8916  8420.87  90.5279
 34.9336  8497.47  90.8992
 34.9756  8643.48  91.5633
 35.0176  8387.45  90.7551
 35.0596  8329.07  90.2715
 35.1016  8276.99  89.7553
 35.1436  8565.77  90.9907
 35.1856  8306.04  89.7303
 35.2276  8385.21  90.3254
 35.2696  8235.92  89.7098
 35.3116  8374.02  90.5429
 35.3536  8315.76  89.9513
 35.3956  8417.59  90.208
 35.4376  8269.74  89.9621
 35.4796  8308.25  90.2275
 35.5216  8262.74  89.9375
 35.5636  8165.55  90.1432
 35.6056  8370.09  90.2806
 35.6476  8383.46  90.2566
 35.6896  8365.36  90.321
 35.7316  8197.48  89.3096
 35.7736  8274.09  89.9234
 35.8156  8149.22  89.2444
 35.8576  8358.12  90.6203
 35.8996  8354.13  90.5659
 35.9416  8207.41  89.2807
 35.9836  8139.41  89.2561
 36.0256  8402.55  90.7097
 36.0676  8277.4  89.5724
 36.1096  8118.37  89.061
 36.1516  8155.58  89.1544
 36.1936  8109.63  88.7523
 36.2356  8204.51  89.9059
 36.2776  8138.07  89.0256
 36.3196  8204.2  89.0601
 36.3616  8140.43  88.844
 36.4036  8166.03  89.0431
 36.4456  8131.3  89.0603
 36.4876  8130.72  88.9935
 36.5296  8092.78  88.8224
 36.5716  8102.69  89.654
 36.6136  8309.58  89.5529
 36.6556  8205.06  89.1881
 36.6976  8195.78  89.6344
 36.7396  8184.71  89.3101
 36.7816  7968.37  88.4861
 36.8236  8107.2  89.1776
 36.8656  8047.18  88.9239
 36.9076  8029.75  88.8275
 36.9496  8042.33  88.7574
 36.9916  8013.86  88.2357
 37.0336  8192.34  89.5259
 37.0756  8193.38  89.3235
 37.1176  7926.65  88.1245
 37.1596  8074.97  88.9508
 37.2016  8025.51  88.8541
 37.2436  8016.36  88.1777
 37.2856  7967.04  88.1558
 37.3276  8194.39  88.7539
 37.3696  8041.17  88.8002
 37.4116  8029.54  88.6434
 37.4536  7925.18  87.9351
 37.4956  7897.62  87.8252
 37.5376  7987.71  89.8649
 37.5796  7940.97  89.5695
 37.6216  7970.41  88.0165
 37.6636  7797.62  86.9668
 37.7056  8005.07  88.3008
 37.7476  7989.87  87.7589
 37.7896  7865.39  87.5615
 37.8316  7666.62  86.6234
 37.8736  8013.44  88.078
 37.9156  7848.34  87.1712
 37.9576  7870.37  87.1765
 37.9996  7764.67  86.3213
 38.0416  7860.21  87.6496
 38.0836  7878.56  87.6572
 38.1256  7878.55  87.6136
 38.1676  7718.66  86.857
 38.2096  7764.83  86.7535
 38.2516  7917.33  87.7968
 38.2936  7791.43  86.9033
 38.3356  7877.68  87.2963
 38.3776  7778.56  87.0163
 38.4196  8023.97  88.2283
 38.4616  7742.14  86.8985
 38.5036  7911.31  87.6778
 38.5456  7827.89  88.0517
 38.5876  7862.99  88.2722
 38.6296  7721.96  86.48
 38.6716  7704.63  86.1729
 38.7136  7725.09  86.2371
 38.7556  7648.12  86.2988
 38.7976  7733.91  86.7233
 38.8396  7640.93  86.6443
 38.8816  7692.35  86.7067
 38.9236  7828.4  87.295
 38.9656  7635.32  86.1267
 39.0076  7849.54  86.7375
 39.0496  7771.69  86.8405
 39.0916  7893.55  87.1569
 39.1336  7776.33  86.927
 39.1756  7718.14  86.6684
 39.2176  7791.64  87.6025
 39.2596  7716.51  87.1048
 39.3016  7810.79  87.2086
 39.3436  7750.13  87.2922
 39.3856  7814.2  87.1044
 39.4276  7729.4  87.1201
 39.4696  7790.58  87.0909
 39.5116  7580.15  86.4144
 39.5536  7845.79  88.3309
 39.5956  7851.46  87.4655
 39.6376  7767  86.9971
 39.6796  7699.33  86.3597
 39.7216  7838.29  87.2271
 39.7636  7775.14  87.4482
 39.8056  7807.32  87.4056
 39.8476  7683.65  86.9689
 39.8896  7681.75  86.5902
 39.9316  7684.8  86.8562
 39.9736  7819.6  87.1845
 40.0156  7732.85  86.5258
 40.0576  7858.15  87.5808
 40.0996  7843.77  86.7016
 40.1416  7753.74  86.9787
 40.1836  7764.18  86.9271
 40.2256  7758.15  86.9384
 40.2676  7782.03  87.1815
 40.3096  7952.56  88.0569
 40.3516  7792.13  87.2645
 40.3936  7861.18  87.22
 40.4356  7796.48  87.0549
 40.4776  7735.78  87.114
 40.5196  7659.29  86.8088
 40.5616  7854.42  87.5605
 40.6036  7819.89  87.6114
 40.6456  7814.1  87.1899
 40.6876  7936.75  87.867
 40.7296  7895.48  87.7697
 40.7716  7757.13  87.1069
 40.8136  7676.03  86.611
 40.8556  7771.29  87.2813
 40.8976  7844.91  87.6158
 40.9396  7732.34  87.3335
 40.9816  7845.26  87.2493
 41.0236  7854.22  87.0813
 41.0656  7953.36  88.1721
 41.1076  7823.12  87.2163
 41.1496  7854.22  87.303
 41.1916  7792.67  87.2798
 41.2336  7709.48  86.81
 41.2756  7814.93  87.0047
 41.3176  7798.23  87.5234
 41.3596  7897.41  87.8063
 41.4016  7850.92  87.7998
 41.4436  7859.04  87.6371
 41.4856  7822.49  87.5949
 41.5276  7767.93  87.307
 41.5696  7871.1  87.5023
 41.6116  7763.3  87.3137
 41.6536  7884.22  87.8425
 41.6956  7769.3  87.258
 41.7376  7782.47  87.3553
 41.7796  7751.94  87.1114
 41.8216  7789.9  87.517
 41.8636  7852.77  87.8034
 41.9056  7674.41  86.5946
 41.9476  7744.22  87.2194
 41.9896  7723.73  86.7725
 42.0316  7769.22  87.1119
 42.0736  7737.29  87.0501
 42.1156  7753.99  86.9779
 42.1576  7672.11  86.6138
 42.1996  7816.71  87.5686
 42.2416  7798  87.0435
 42.2836  7652.65  86.3459
 42.3256  7721.11  86.8437
 42.3676  7666  86.3453
 42.4096  7772.92  86.906
 42.4516  7749.84  86.8682
 42.4936  7588.08  86.0189
 42.5356  7715.38  86.8625
 42.5776  7764.97  87.082
 42.6196  7748.91  87.048
 42.6616  7574.2  86.2273
 42.7036  7665.71  86.1442
 42.7456  7704.43  86.7173
 42.7876  7757.8  87.1167
 42.8296  7680.67  86.5155
 42.8716  7599.71  86.2103
 42.9136  7665.57  86.3745
 42.9556  7679.93  86.5895
 42.9976  7695.64  86.641
 43.0396  7643.29  86.082
 43.0816  7581.91  86.1065
 43.1236  7664.52  86.6351
 43.1656  7646.55  86.3631
 43.2076  7592.83  86.1652
 43.2496  7625.49  86.1663
 43.2916  7585.92  86.3
 43.3336  7614.89  86.3062
 43.3756  7649.07  86.257
 43.4176  7475.75  85.3535
 43.4596  7583.59  85.8215
 43.5016  7539.78  85.9767
 43.5436  7554.46  85.9548
 43.5856  7484.64  85.583
 43.6276  7535.41  85.7715
 43.6696  7638.36  86.4963
 43.7116  7675.98  86.3279
 43.7536  7595.6  86.3575
 43.7956  7427.08  86.5635
 43.8376  7546.24  85.8
 43.8796  7481.95  85.5175
 43.9216  7619.49  86.2206
 43.9636  7601.42  86.2251
 44.0056  7517.27  85.9758
 44.0476  7370.98  84.7633
 44.0896  7420.14  85.3916
 44.1316  7432.56  85.1353
 44.1736  7535.1  85.7005
 44.2156  7560.89  85.6859
 44.2576  7512.78  85.7534
 44.2996  7512.27  85.715
 44.3416  7512.46  85.4758
 44.3836  7302.19  84.5925
 44.4256  7353.22  84.5437
 44.4676  7317.98  84.4966
 44.5096  7495.48  85.6589
 44.5516  7410.62  85.1309
 44.5936  7348.96  84.7362
 44.6356  7495.02  85.3129
 44.6776  7362.26  84.869
 44.7196  7352.61  85.1155
 44.7616  7394.33  86.6715
 44.8036  7310.35  84.631
 44.8456  7426.61  85.5072
 44.8876  7323.08  84.7636
 44.9296  7392  84.6253
 44.9716  7344.51  84.7771
 45.0136  7232.96  84.0637
 45.0556  7338.17  84.6528
 45.0976  7295.18  84.5653
 45.1396  7266.96  84.168
 45.1816  7244.07  83.9556
 45.2236  7301.89  84.1999
 45.2656  7149.22  83.8037
 45.3076  7313.32  84.5455
 45.3496  7190.17  84.1235
 45.3916  7215.85  84.5443
 45.4336  7277.45  84.7536
 45.4756  7134.21  83.7724
 45.5176  7353.02  84.6691
 45.5596  7229.52  84.0726
 45.6016  7120.49  83.8447
 45.6436  7248.73  83.7896
 45.6856  7105.06  83.5938
 45.7276  7099.81  84.8434
 45.7696  7217.95  85.2213
 45.8116  7254.09  84.8868
 45.8536  7263.85  84.8426
 45.8956  7188.12  83.7615
 45.9376  7261.49  83.6578
 45.9796  7231.57  84.1763
 46.0216  7206.14  84.3522
 46.0636  7234.19  83.6727
 46.1056  7197.2  83.4428
 46.1476  7191.53  83.994
 46.1896  7191.62  84.1428
 46.2316  7142.52  83.7247
 46.2736  6959.52  83.0042
 46.3156  7136.6  83.6466
 46.3576  7124.86  83.7769
 46.3996  7044.91  83.4638
 46.4416  7146.08  83.6453
 46.4836  7218.98  84.4191
 46.5256  7220.51  84.369
 46.5676  7159.17  84.1226
 46.6096  7134.13  83.9113
 46.6516  7112.17  82.8406
 46.6936  7044.6  82.9283
 46.7356  7210.09  84.0055
 46.7776  6962.06  83.3599
 46.8196  7054.66  83.5123
 46.8616  6964.98  82.9295
 46.9036  6906.51  82.2476
 46.9456  7048.13  82.7323
 46.9876  7055.62  82.8562
 47.0296  7009.62  83.2611
 47.0716  6909.57  82.4942
 47.1136  7059.31  83.0707
 47.1556  7053.46  82.9
 47.1976  7010.78  82.7277
 47.2396  6960.32  82.8189
 47.2816  6872.12  81.9974
 47.3236  6855.82  82.2685
 47.3656  7040.13  83.2868
 47.4076  6954.91  82.5892
 47.4496  6784.75  81.6678
 47.4916  6879.11  82.4192
 47.5336  6990.46  82.9067
 47.5756  7040.8  83.3186
 47.6176  7020.28  83.0926
 47.6596  6987.35  82.6202
 47.7016  7102.01  83.1092
 47.7436  6941.41  82.4919
 47.7856  7036.12  83.0813
 47.8276  6878.14  82.1896
 47.8696  6903.52  82.4298
 47.9116  7044.13  82.9835
 47.9536  6986.58  82.5814
 47.9956  6877.33  82.6312
 48.0376  6804.15  81.968
 48.0796  6970.97  83.0945
 48.1216  6932.44  82.685
 48.1636  7099.57  83.2616
 48.2056  6895.24  82.3095
 48.2476  7004.51  83.2648
 48.2896  6894.64  82.5225
 48.3316  6958.38  82.8397
 48.3736  6833.17  82.1188
 48.4156  6830.8  81.9564
 48.4576  6749.3  81.752
 48.4996  6927.65  82.2841
 48.5416  6929.6  82.6256
 48.5836  6777.43  81.3923
 48.6256  6828.44  81.898
 48.6676  6839.54  82.4745
 48.7096  6828.57  81.6859
 48.7516  6838.44  81.8934
 48.7936  6741.29  81.3689
 48.8356  6911.1  82.4397
 48.8776  6776.98  82.1138
 48.9196  6903.91  82.3438
 48.9616  6766.6  81.8873
 49.0036  6768.07  82.2413
 49.0456  6750.53  82.1046
 49.0876  6715.19  81.5347
 49.1296  6698.83  81.4972
 49.1716  6684.56  81.2935
 49.2136  6784.93  81.8307
 49.2556  6791.63  81.9008
 49.2976  6880.43  82.5002
 49.3396  6672.88  81.2996
 49.3816  6904.73  82.1435
 49.4236  6753.06  81.6487
 49.4656  6660.45  81.0927
 49.5076  6739.83  81.3397
 49.5496  6703.68  81.1839
 49.5916  6738.37  81.311
 49.6336  6699.11  81.2599
 49.6756  6856.86  82.4596
 49.7176  6774.7  81.8986
 49.7596  6671.26  81.0469
 49.8016  6757.71  81.4922
 49.8436  6691.41  81.379
 49.8856  6656.18  81.1722
 49.9276  6654.08  81.2525
 49.9696  6705.07  81.549
 50.0116  6688.19  81.575
 50.0536  6706.93  81.6377
 50.0956  6710.61  81.7311
 50.1376  6688.23  81.2933
 50.1796  6594.2  80.9892
 50.2216  6704.22  81.6536
 50.2636  6606.36  80.6814
 50.3056  6600.78  80.8201
 50.3476  6627.71  81.0051
 50.3896  6681.84  81.3064
 50.4316  6549.47  80.3406
 50.4736  6574.75  80.7063
 50.5156  6694.99  81.4274
 50.5576  6706.59  81.2612
 50.5996  6567.11  80.6924
 50.6416  6558.41  80.5636
 50.6836  6576.17  80.7344
 50.7256  6554.71  80.524
 50.7676  6587.96  81.0141
 50.8096  6588.86  80.5908
 50.8516  6496.87  80.4306
 50.8936  6486.79  80.1561
 50.9356  6630.7  81.1483
 50.9776  6646.81  81.3969
 51.0196  6424.43  80.1444
 51.0616  6493.81  79.9176
 51.1036  6473.68  80.136
 51.1456  6495.61  80.1888
 51.1876  6492.27  79.5279
 51.2296  6460.64  79.9535
 51.2716  6395.29  79.2618
 51.3136  6509.88  80.4107
 51.3556  6482.44  79.8747
 51.3976  6397.25  79.4996
 51.4396  6332.02  79.3861
 51.4816  6446.34  79.9589
 51.5236  6530.19  80.5592
 51.5656  6330.7  78.9364
 51.6076  6389.53  79.3813
 51.6496  6480.79  80.1347
 51.6916  6424.83  80.1359
 51.7336  6513.48  80.7772
 51.7756  6398.13  79.762
 51.8176  6325.91  79.4133
 51.8596  6398.09  79.8791
 51.9016  6498.96  80.1244
 51.9436  6334.06  80.5251
 51.9856  6283.83  80.6288
 52.0276  6465.88  80.3249
 52.0696  6362.06  79.7464
 52.1116  6359.26  79.8306
 52.1536  6298.14  79.3436
 52.1956  6447.18  79.7478
 52.2376  6460.7  80.0043
 52.2796  6422.44  79.5799
 52.3216  6250.32  79.1787
 52.3636  6345.24  79.3648
 52.4056  6351.61  79.267
 52.4476  6246.68  78.96
 52.4896  6193.78  78.678
 52.5316  6281.24  79.2822
 52.5736  6297.43  79.1058
 52.6156  6304.91  79.5259
 52.6576  6410.11  79.6333
 52.6996  6232.01  79.468
 52.7416  6372.27  80.2038
 52.7836  6252.12  79.3386
 52.8256  6369.43  79.3249
 52.8676  6176.71  78.6781
 52.9096  6294.92  79.502
 52.9516  6364.73  80.3144
 52.9936  6128.66  79.18
 53.0356  6199.44  78.667
 53.0776  6161.13  78.7071
 53.1196  6080.39  78.2823
 53.1616  6179.58  78.9681
 53.2036  6095.73  78.3805
 53.2456  6073.56  78.3355
 53.2876  6085.66  78.1342
 53.3296  6100.51  78.546
 53.3716  6237.04  79.1763
 53.4136  6102.26  78.4543
 53.4556  6116.33  78.5752
 53.4976  6070.02  78.131
 53.5396  6206.27  79.3805
 53.5816  6132.53  78.5556
 53.6236  5982.35  77.917
 53.6656  6086.94  78.2392
 53.7076  6136.98  78.521
 53.7496  6165.29  78.8184
 53.7916  6312.16  79.8754
 53.8336  6102.14  78.44
 53.8756  5996.15  78.2834
 53.9176  6201.55  78.9681
 53.9596  6176.27  79.5535
 54.0016  6108.25  78.4632
 54.0436  6116.28  78.7295
 54.0856  6243.44  78.9746
 54.1276  6119.67  78.3819
 54.1696  6105.15  78.4592
 54.2116  6062.59  77.9517
 54.2536  6149.24  78.3236
 54.2956  6159.23  78.4268
 54.3376  5967.12  77.6671
 54.3796  6143.36  78.7052
 54.4216  6219.84  79.2398
 54.4636  6117.26  78.5467
 54.5056  6145.68  78.5549
 54.5476  6081.55  78.4681
 54.5896  6121.06  78.5605
 54.6316  6122.39  78.4265
 54.6736  6142.73  78.5774
 54.7156  6053.14  78.0731
 54.7576  6059.17  78.1108
 54.7996  6118.49  78.6261
 54.8416  6118.19  78.6778
 54.8836  6016.96  78.1362
 54.9256  6128.03  78.6061
 54.9676  6149.89  78.5904
 55.0096  6012.89  77.7883
 55.0516  6107.07  78.5522
 55.0936  6127.71  78.3938
 55.1356  6122.14  78.3984
 55.1776  6115.1  78.6207
 55.2196  6102.9  78.3238
 55.2616  6075.9  78.3663
 55.3036  6057.8  78.4052
 55.3456  6112.21  78.8933
 55.3876  6128.15  78.74
 55.4296  6083.99  78.44
 55.4716  6093.52  78.5385
 55.5136  6102.3  78.3533
 55.5556  6074.37  78.2478
 55.5976  6070.47  78.2721
 55.6396  6029.51  77.9627
 55.6816  5990.07  77.5851
 55.7236  6073.9  78.1642
 55.7656  6143.52  78.3749
 55.8076  6159.2  78.4553
 55.8496  5963.57  77.5139
 55.8916  5927.19  77.4443
 55.9336  5993.95  77.7326
 55.9756  6110.53  78.3773
 56.0176  6009.97  77.8751
 56.0596  5996.46  77.7754
 56.1016  6103.86  78.5048
 56.1436  5969.38  77.863
 56.1856  6070.63  78.2634
 56.2276  5978.13  77.7291
 56.2696  6029.86  78.0315
 56.3116  5990.05  78.1733
 56.3536  6089.66  78.4796
 56.3956  5994.83  77.8546
 56.4376  5954.04  77.6217
 56.4796  6016.29  77.8302
 56.5216  6046.53  78.394
 56.5636  6018.42  77.8098
 56.6056  5953.37  77.619
 56.6476  6067.08  77.9893
 56.6896  6003.74  78.0261
 56.7316  5991.57  77.8587
 56.7736  5960.94  77.6504
 56.8156  6065.63  78.3259
 56.8576  5995.21  77.7955
 56.8996  6014.64  77.8782
 56.9416  5962.48  77.8403
 56.9836  5917.2  77.0714
 57.0256  5976.53  77.7632
 57.0676  5980.81  77.918
 57.1096  5985.49  77.7364
 57.1516  6079.09  78.3631
 57.1936  6029  77.8277
 57.2356  5991.09  77.898
 57.2776  5959.08  77.6494
 57.3196  5985.24  78.1833
 57.3616  5986.19  77.6913
 57.4036  6046.72  78.143
 57.4456  5937.71  77.4048
 57.4876  6021.78  77.8071
 57.5296  5969.69  77.7089
 57.5716  5916.52  77.4494
 57.6136  6033.04  78.0274
 57.6556  5987.73  77.8759
 57.6976  6039.53  78.0337
 57.7396  5907.07  77.5308
 57.7816  5848.07  77.5025
 57.8236  5922.64  77.7926
 57.8656  5938.69  77.5603
 57.9076  6002.19  78.004
 57.9496  5978.74  78.196
 57.9916  5919.83  77.3276
 58.0336  5985.57  78.0265
 58.0756  5946.87  77.4104
 58.1176  6010.38  77.8208
 58.1596  5857.77  77.3903
 58.2016  6124.12  78.3418
 58.2436  5930.55  77.5
 58.2856  5974.9  77.7103
 58.3276  5920.73  77.7275
 58.3696  5906.36  77.3865
 58.4116  5956.58  77.5721
 58.4536  6019.31  77.875
 58.4956  5962.89  77.6886
 58.5376  5991.26  77.4486
 58.5796  5954.63  77.6297
 58.6216  6018.05  77.8563
 58.6636  6014.75  78.0503
 58.7056  5970.81  77.623
 58.7476  6040.05  78.516
 58.7896  5992.19  77.8509
 58.8316  6047.05  78.2017
 58.8736  5999.01  77.9012
 58.9156  5833.45  76.8608
 58.9576  6175.13  79.4016
 58.9996  6101.99  78.1687
 59.0416  6180.05  79.0357
 59.0836  5878.21  77.0114
 59.1256  5966.28  78.2732
 59.1676  6006.91  78.8544
 59.2096  5889.61  77.396
 59.2516  6147.74  78.6512
 59.2936  6031.32  78.2308
 59.3356  5893.12  77.2086
 59.3776  6129.38  78.9113
 59.4196  5921.31  77.4948
 59.4616  5937.96  77.467
 59.5036  5898.92  77.2468
 59.5456  6146.69  78.5432
 59.5876  6000.7  77.7953
 59.6296  5960.4  77.6023
 59.6716  6017.74  78.0325
 59.7136  6073.88  78.3839
 59.7556  6075.37  78.5304
 59.7976  5951.07  77.467
 59.8396  6067.59  78.1157
 59.8816  5915.32  77.669
 59.9236  5956.18  77.583
 59.9656  5984.93  78.0288
 60.0076  6049.8  77.8081
 60.0496  6036.57  78.2257
 60.0916  6158.02  78.4222
 60.1336  5922.91  78.0069
 60.1756  5947.98  79.347
 60.1996  0.0000000E+00  0.0000000E+00