File: docs/examples/opeando_xrd/IS17_D/Data/IS17_D/17_Db_f00115.xye
# /beamlines/bl04/projects/cycle2025-II/20250340211-lsimonelli/DATA/IS17_D/17_Db_f00115.xye : mythproc.py merge -s 0.006 -l 0.5 -f /beamlines/bl04/inhouse/ff/FlatField/ff_20Nov2024rod8mm60s_17keV.raw -b True -c true -o xye /beamlines/bl04/projects/cycle2025-II/20250340211-lsimonelli/DATA/IS17_D/17_Db_00115.dat
# IsMon = [6767032, 6767163, 6772044]  IsPos = [-1.4999, -2.4884, -3.4988]
# Wave = 0.4962  CalPath /beamlines/bl04/projects/cycle2025-II/20250340211-lsimonelli/DATA/Align/Si_Pos1_25keV_f00001.cal
# Date = 2025-09-25_01:45:18 Dt = 4.8000  Bin = 0.0060  <imon> = 6768746 +/- 2332 (Min/Max) 6767032 / 6772044
# icurr 251.3505  mocoIn 1.7143E-05  mocoOut 0.8051  i15 7.0944e+06  imon 6.76875e+06  i7 4.3333  iEMpd_timer 4.8000  iEMpd_1 3.4655E-08  iEMpd_2 7.9428E-08  iEMpd_3 1.7954E-08  iEMpd_4 4.8731E-08  iEMhp_timer 4.8000  iEMhp_1 4.9112E-06  iEMhp_2 -2.5398E-08  iEMhp_3 -2.3615E-08  iEMhp_4 -2.1593E-08
#      9776
 1.5856  45195.3  218.326
 1.6276  51844.8  229.823
 1.6696  57379.1  240.926
 1.7116  64502.7  255.944
 1.7536  71980.3  269.221
 1.7956  76741.2  278.676
 1.8376  73652.3  273.443
 1.8796  63229.5  251.502
 1.9216  52361.4  229.773
 1.9636  45479.3  213.264
 2.0056  41343.8  202.548
 2.0476  38841  198.474
 2.0896  37381  193.566
 2.1316  36297.8  189.824
 2.1736  34806.1  187.357
 2.2156  35620.6  188.016
 2.2576  34474.8  185.632
 2.2996  32590.4  181.148
 2.3416  33502.9  182.197
 2.3836  32742.3  180.232
 2.4256  32006  178.774
 2.4676  31144.4  176.101
 2.5096  31129  176.116
 2.5516  29715.9  176.022
 2.5936  29979.2  173.254
 2.6356  28917.5  170.875
 2.6776  28999.9  169.988
 2.7196  28758.5  169.771
 2.7616  28533.8  168.897
 2.8036  28277.5  168.311
 2.8456  28146  168.58
 2.8876  27580.1  166.737
 2.9296  27121.4  165.465
 2.9716  27184.6  165.142
 3.0136  26700.6  163.728
 3.0556  26837.7  164.55
 3.0976  26800.6  163.314
 3.1396  26375.7  162.751
 3.1816  26161.7  162.047
 3.2236  25844.7  161.038
 3.2656  25607.3  159.327
 3.3076  25619.7  160.878
 3.3496  25492.6  159.368
 3.3916  26062.7  160.969
 3.4336  26355  162.465
 3.4756  26712.7  163.503
 3.5176  27460.8  165.527
 3.5596  26912  166.35
 3.6016  27030  164.285
 3.6436  26314.9  163.237
 3.6856  25808.9  159.927
 3.7276  24916.3  158.238
 3.7696  24652.2  157.583
 3.8116  24265.9  156.237
 3.8536  24383  156.545
 3.8956  24328.5  156.183
 3.9376  24230.9  156.15
 3.9796  23999.7  154.882
 4.0216  24189.1  154.512
 4.0636  23879.5  155.015
 4.1056  24034.2  155.161
 4.1476  24319.7  156.395
 4.1896  24338.8  156.305
 4.2316  24630.8  157.065
 4.2736  25039.9  158.163
 4.3156  25046.3  158.406
 4.3576  26035.7  161.415
 4.3996  26100.3  161.905
 4.4416  26679.2  163.26
 4.4836  27102.9  164.721
 4.5256  27547.8  166.681
 4.5676  27489.7  166.761
 4.6096  28227.2  167.611
 4.6516  28222.6  167.292
 4.6936  28419  168.704
 4.7356  28606.7  169.091
 4.7776  28368.2  168.209
 4.8196  28372.5  168.879
 4.8616  27852.7  166.815
 4.9036  27663.7  165.974
 4.9456  27465.1  166.036
 4.9876  26668.1  163.513
 5.0296  27103.4  164.681
 5.0716  26859.5  164.685
 5.1136  27120.3  165.209
 5.1556  27274  165.128
 5.1976  28069  167.514
 5.2396  27871.6  166.608
 5.2816  27872.6  167.096
 5.3236  27941  166.985
 5.3656  27295.6  165.989
 5.4076  27202.3  165.849
 5.4496  27029.3  164.806
 5.4916  27433.2  165.788
 5.5336  27162.9  164.975
 5.5756  27266.6  165.308
 5.6176  27456.9  165.311
 5.6596  27700.4  167.048
 5.7016  27703.2  166.303
 5.7436  27702.3  166.584
 5.7856  27668.1  166.55
 5.8276  27792.5  166.628
 5.8696  28286.1  168.281
 5.9116  28113.7  168.379
 5.9536  28448.3  169.122
 5.9956  28406  168.375
 6.0376  28559.7  169.455
 6.0796  28775.8  169.926
 6.1216  28720.9  169.963
 6.1636  29096.1  170.115
 6.2056  28820.4  169.989
 6.2476  29245.4  171.106
 6.2896  29445.7  171.371
 6.3316  29504.1  171.712
 6.3736  29681.3  172.12
 6.4156  29785.9  172.307
 6.4576  29762.7  171.859
 6.4996  29758.8  172.323
 6.5416  29787.4  172.528
 6.5836  29872.2  173.026
 6.6256  30159.4  173.411
 6.6676  30657.1  174.39
 6.7096  30666.8  175.297
 6.7516  30830.6  175.414
 6.7936  31024.9  175.353
 6.8356  31126.2  175.737
 6.8776  31309.8  177.074
 6.9196  31405.5  177.754
 6.9616  31883.6  178.534
 7.0036  32252.3  179.207
 7.0456  32389.4  178.887
 7.0876  32073.1  179.711
 7.1296  32440.9  179.859
 7.1716  32127.3  178.52
 7.2136  32204.4  178.507
 7.2556  32324.4  179.011
 7.2976  32087.5  178.841
 7.3396  32123.5  179.168
 7.3816  32006.2  179.055
 7.4236  32539.6  179.831
 7.4656  32755.6  179.876
 7.5076  32932.7  180.515
 7.5496  32647.3  180.27
 7.5916  32840.6  180.856
 7.6336  33249.7  181.858
 7.6756  33277.4  181.793
 7.7176  33873.7  183.751
 7.7596  33674  184.435
 7.8016  34321.1  188.472
 7.8436  33741.5  183.495
 7.8856  33858.1  183.422
 7.9276  34550.9  185.677
 7.9696  34762.1  186.565
 8.0116  35746.8  187.724
 8.0536  35599.7  187.592
 8.0956  35803  189.317
 8.1376  36204.2  189.835
 8.1796  36712.5  191.709
 8.2216  37423.3  192.277
 8.2636  37380.1  192.424
 8.3056  37264.4  192.886
 8.3476  37970.5  194.039
 8.3896  37507.9  192.933
 8.4316  37843.8  193.963
 8.4736  37951.9  193.706
 8.5156  37455.6  192.712
 8.5576  37249  193.153
 8.5996  37220  191.951
 8.6416  37439.7  193.793
 8.6836  36911.4  192.232
 8.7256  37661.8  193.643
 8.7676  37203.7  195.385
 8.8096  37767.1  194.123
 8.8516  37638.4  193.354
 8.8936  37025.1  191.73
 8.9356  37516.3  193.342
 8.9776  37513.4  193.407
 9.0196  37434.4  192.874
 9.0616  37236.8  191.857
 9.1036  36808.2  191.923
 9.1456  36344.6  190.034
 9.1876  37075.9  191.879
 9.2296  36654.4  190.218
 9.2716  36244.9  189.195
 9.3136  35942.9  188.411
 9.3556  36515.2  189.878
 9.3976  35510.9  187.783
 9.4396  35621.6  187.961
 9.4816  35414.3  187.28
 9.5236  35088.9  186.3
 9.5656  34708.7  185.657
 9.6076  34047.4  184.397
 9.6496  34419.9  185.292
 9.6916  33992.2  184.087
 9.7336  34573.6  185.448
 9.7756  34121.3  185.502
 9.8176  33910.4  184.459
 9.8596  33933.8  182.952
 9.9016  33377.4  181.419
 9.9436  33168.5  180.783
 9.9856  32626  179.571
 10.0276  32402  180.037
 10.0696  32912.2  180.469
 10.1116  31929.4  178.025
 10.1536  31726.1  177.595
 10.1956  31112.6  175.493
 10.2376  31173.8  175.173
 10.2796  30952.2  174.655
 10.3216  30729.4  174.321
 10.3636  30530.8  173.786
 10.4056  29663.8  171.702
 10.4476  30013.3  172.322
 10.4896  30178.9  172.223
 10.5316  29210.7  170.178
 10.5736  29261.3  170.739
 10.6156  29279.1  170.535
 10.6576  28946.2  168.125
 10.6996  28802.2  168.421
 10.7416  28504.3  167.752
 10.7836  27992.2  166.901
 10.8256  27705.2  166.458
 10.8676  27813  166.332
 10.9096  27483.1  165.371
 10.9516  27370.5  163.975
 10.9936  27268  163.88
 11.0356  26965.1  163.576
 11.0776  26880.3  162.651
 11.1196  26435.9  162.065
 11.1616  26238  161.133
 11.2036  26294.8  161.15
 11.2456  26194.4  161.558
 11.2876  26643.9  162.658
 11.3296  26041.4  160.719
 11.3716  26484.9  161.76
 11.4136  26258.7  161.951
 11.4556  26230.5  161.523
 11.4976  26733.7  162.062
 11.5396  27077.6  163.276
 11.5816  27729.7  165.679
 11.6236  27414.5  164.976
 11.6656  27265.6  163.654
 11.7076  26265.6  161.468
 11.7496  25601  163.452
 11.7916  25730.9  159.066
 11.8336  25299.7  158.615
 11.8756  25162.6  157.74
 11.9176  25017.9  156.965
 11.9596  25254  157.877
 12.0016  24901.4  157.544
 12.0436  24953.9  157.152
 12.0856  24508.2  156.25
 12.1276  24576.8  156.417
 12.1696  24542.6  155.412
 12.2116  24459.5  155.146
 12.2536  24387.8  155.748
 12.2956  24260.4  154.672
 12.3376  24469.4  155.557
 12.3796  24360.9  155.695
 12.4216  24307.1  154.71
 12.4636  24158.7  155.184
 12.5056  24309.1  154.921
 12.5476  24385.7  154.669
 12.5896  24007.9  154.115
 12.6316  24375.8  155.45
 12.6736  23972.7  154.647
 12.7156  24212.6  155.261
 12.7576  24222.4  155.55
 12.7996  24305.2  154.435
 12.8416  23974.2  154.442
 12.8836  24270  155.218
 12.9256  24742.6  155.745
 12.9676  24491.8  155.358
 13.0096  24875.8  157.705
 13.0516  24761.6  156.364
 13.0936  25196.6  158.147
 13.1356  25184.6  157.057
 13.1776  24835.4  156.992
 13.2196  25028  157.234
 13.2616  24772.1  156.746
 13.3036  25058  157.609
 13.3456  24638.1  156.637
 13.3876  25183.5  157.628
 13.4296  24928.6  156.991
 13.4716  25025.4  156.924
 13.5136  24993.2  156.953
 13.5556  24806.8  157.011
 13.5976  24808.7  157.181
 13.6396  24882.7  156.762
 13.6816  24930  157.389
 13.7236  25293.4  158.094
 13.7656  26802.2  163.221
 13.8076  27494.7  163.907
 13.8496  27099.7  163.412
 13.8916  25298.5  159.059
 13.9336  24430.5  155.58
 13.9756  24513.8  155.224
 14.0176  24069.8  154.498
 14.0596  24297.5  155.145
 14.1016  24160  155.138
 14.1436  24280.8  154.654
 14.1856  23596.3  152.749
 14.2276  23671  153.479
 14.2696  23571.1  153.006
 14.3116  23113.1  151.419
 14.3536  22784.1  150.505
 14.3956  22908.6  150.639
 14.4376  23185.7  151.329
 14.4796  22917.8  150.449
 14.5216  22516.1  149.919
 14.5636  22455.9  149.286
 14.6056  22684.3  149.591
 14.6476  22304.6  147.572
 14.6896  22094  147.429
 14.7316  21697  147.144
 14.7736  21546.7  145.762
 14.8156  21533.7  145.739
 14.8576  21385.5  145.1
 14.8996  21001.5  144.987
 14.9416  20536.7  143.397
 14.9836  20720.9  144.014
 15.0256  19887.3  140.003
 15.0676  20035  140.834
 15.1096  20105.4  140.817
 15.1516  19476.8  139.158
 15.1936  19446.2  138.472
 15.2356  19300.7  138.233
 15.2776  19268.7  137.708
 15.3196  18903.3  137.388
 15.3616  18783.3  136.702
 15.4036  18769.9  136.52
 15.4456  18936.3  136.772
 15.4876  18667.5  135.484
 15.5296  18612.4  135.58
 15.5716  18278.3  133.949
 15.6136  18114.3  133.683
 15.6556  18179.9  133.16
 15.6976  18128.1  133.273
 15.7396  17970.9  133.06
 15.7816  18080.4  132.984
 15.8236  17580.6  131.814
 15.8656  17690.9  132.033
 15.9076  17244.3  130.177
 15.9496  18189.9  136.552
 15.9916  18040.4  136.39
 16.0336  18020.4  133.145
 16.0756  17847.3  132.83
 16.1176  17617.5  132.065
 16.1596  17130.9  131.395
 16.2016  17213.2  130.463
 16.2436  17309.6  131.211
 16.2856  17120.8  129.995
 16.3276  16872.7  129.503
 16.3696  17030.6  129.929
 16.4116  16787.1  129.439
 16.4536  17245  131.007
 16.4956  16953.7  129.63
 16.5376  16801.2  129.231
 16.5796  16745.1  128.375
 16.6216  16685.3  128.416
 16.6636  16410  127.534
 16.7056  16777.8  128.818
 16.7476  16870.6  128.7
 16.7896  16712.4  128.847
 16.8316  16691.2  128.746
 16.8736  16872  129.703
 16.9156  16707.7  129.396
 16.9576  16471.2  129.29
 16.9996  16488.9  129.828
 17.0416  16684.7  128.976
 17.0836  16677.3  128.707
 17.1256  16722.6  128.887
 17.1676  16628.2  128.49
 17.2096  16429.8  127.606
 17.2516  16143.5  126.28
 17.2936  16293  127.219
 17.3356  16197.4  126.832
 17.3776  16073.3  126.53
 17.4196  15815.5  125.212
 17.4616  15762.1  124.903
 17.5036  15361.6  123.681
 17.5456  15420.5  124.546
 17.5876  15666  124.573
 17.6296  15596.5  124.129
 17.6716  15342  123.685
 17.7136  15401.5  124.058
 17.7556  15199.2  123.537
 17.7976  15449.9  124.282
 17.8396  14917.5  121.625
 17.8816  14945.2  122.305
 17.9236  14886.5  121.856
 17.9656  14904.2  122.437
 18.0076  14858.3  121.835
 18.0496  14717.7  120.399
 18.0916  14731.3  120.998
 18.1336  14701.6  120.979
 18.1756  14787  120.879
 18.2176  14330.6  119.207
 18.2596  14554.8  119.869
 18.3016  14614.1  120.364
 18.3436  14616.6  120.385
 18.3856  14409.8  119.662
 18.4276  14453.4  119.53
 18.4696  14405.3  119.408
 18.5116  14521.6  120.161
 18.5536  14427.1  120.135
 18.5956  14301.9  119.179
 18.6376  14186.4  119.099
 18.6796  14117  118.118
 18.7216  14299.6  119.379
 18.7636  14511.7  120.267
 18.8056  14114  118.524
 18.8476  13943  118.431
 18.8896  14171.9  118.736
 18.9316  14197.3  118.815
 18.9736  14218.5  118.61
 19.0156  14056.4  118.354
 19.0576  14276  118.111
 19.0996  14147  118.291
 19.1416  14079.4  118.405
 19.1836  13990.6  117.64
 19.2256  13896.9  117.463
 19.2676  14151.4  118.617
 19.3096  13961.2  118.062
 19.3516  13978.7  118.1
 19.3936  13929  117.786
 19.4356  14161.7  118.648
 19.4776  13963.8  117.898
 19.5196  13989.5  117.856
 19.5616  13976.2  118.063
 19.6036  13950.9  117.449
 19.6456  14028.9  117.895
 19.6876  13994.8  117.388
 19.7296  14140.9  118.476
 19.7716  13892.4  117.596
 19.8136  14243.4  119.269
 19.8556  14392.8  119.372
 19.8976  14125.3  118.31
 19.9396  14300.6  118.631
 19.9816  14355.1  119.106
 20.0236  14640.3  120.483
 20.0656  14860.7  121.387
 20.1076  15149.1  123.055
 20.1496  15094.3  122.821
 20.1916  15093  122.322
 20.2336  14696.4  120.618
 20.2756  14265.5  119.283
 20.3176  14159.1  118.583
 20.3596  13907.7  117.51
 20.4016  13991.1  117.657
 20.4436  13727.4  117.104
 20.4856  13815.9  117.282
 20.5276  13630.2  116.953
 20.5696  13765.3  116.975
 20.6116  13535.8  116.269
 20.6536  13492.6  115.586
 20.6956  13420.6  115.418
 20.7376  13343.4  115.295
 20.7796  13453.7  115.46
 20.8216  13498.2  115.359
 20.8636  13408.7  115.363
 20.9056  13301.6  114.835
 20.9476  13371.2  114.981
 20.9896  13434  115.109
 21.0316  13284.5  114.366
 21.0736  13178.5  114.422
 21.1156  13125.6  114.36
 21.1576  13275.2  115.055
 21.1996  13156.1  114.523
 21.2416  13313.8  115.031
 21.2836  13145.2  114.274
 21.3256  13156.7  114.397
 21.3676  13120.9  113.762
 21.4096  13044.5  113.771
 21.4516  12943.5  113.205
 21.4936  12736.8  112.558
 21.5356  13109.8  114.141
 21.5776  13115.8  113.995
 21.6196  12816.5  112.727
 21.6616  12824.6  112.85
 21.7036  12994.6  113.35
 21.7456  12924.2  113.128
 21.7876  12918.2  112.865
 21.8296  12801.4  112.2
 21.8716  12829.1  112.557
 21.9136  12909.5  113.108
 21.9556  12902  112.742
 21.9976  12660.1  111.712
 22.0396  12828.7  112.711
 22.0816  12794.4  113.078
 22.1236  12841.9  112.756
 22.1656  12887.4  113.094
 22.2076  12535.8  111.001
 22.2496  12638.4  111.488
 22.2916  12601.7  111.207
 22.3336  12583.2  111.85
 22.3756  12600.9  111.644
 22.4176  12470.9  110.921
 22.4596  12336.4  110.895
 22.5016  12350.4  110.471
 22.5436  12544.4  111.209
 22.5856  12537  111.422
 22.6276  12758.3  112.549
 22.6696  12647.8  112.411
 22.7116  12536.9  111.433
 22.7536  12672.9  112.006
 22.7956  12573.3  110.907
 22.8376  12233.8  109.9
 22.8796  12503.5  110.911
 22.9216  12528.8  111.562
 22.9636  12350  109.928
 23.0056  12426.1  110.402
 23.0476  12490.5  111.257
 23.0896  12641.1  111.302
 23.1316  12533.7  111.264
 23.1736  12726.5  115.084
 23.2156  12873.7  113.087
 23.2576  13003.8  113.803
 23.2996  12853.3  112.905
 23.3416  13219.1  115.053
 23.3836  12923.5  112.972
 23.4256  13080.1  113.782
 23.4676  12835.2  112.399
 23.5096  12615.5  112.09
 23.5516  12762  112.034
 23.5936  12730.3  112.812
 23.6356  12888.8  113.172
 23.6776  12576  111.999
 23.7196  12544.8  111.437
 23.7616  12714.5  112.1
 23.8036  12959.6  113.245
 23.8456  12537.8  110.921
 23.8876  12685.7  111.947
 23.9296  12402.4  111.18
 23.9716  12672  111.569
 24.0136  12660.2  112.434
 24.0556  12414.6  111.043
 24.0976  12258.8  110.17
 24.1396  12256.7  112.799
 24.1816  12395.7  111.846
 24.2236  12546  112.151
 24.2656  12139  109.782
 24.3076  12228  110.458
 24.3496  12036  109.465
 24.3916  12270.3  110.581
 24.4336  12114.7  110.074
 24.4756  12159.6  110.164
 24.5176  12016.8  109.142
 24.5596  12000  109.177
 24.6016  11832.3  108.711
 24.6436  12029.3  109.125
 24.6856  11971.4  108.6
 24.7276  11795.2  108.126
 24.7696  11730.6  107.94
 24.8116  11550.8  107.286
 24.8536  11655.4  107.776
 24.8956  11700.8  107.716
 24.9376  11596  107.153
 24.9796  11494.8  107.052
 25.0216  11449.2  106.956
 25.0636  11642.9  107.509
 25.1056  11405.2  107.104
 25.1476  11424.4  108.814
 25.1896  11396.4  107.198
 25.2316  11314.1  106.074
 25.2736  11314.9  105.738
 25.3156  11336.9  105.902
 25.3576  11174.7  105.584
 25.3996  11191.2  105.649
 25.4416  11336.2  106.307
 25.4836  10968.2  105.084
 25.5256  11105.2  105.094
 25.5676  11114.1  104.876
 25.6096  11031.8  105.056
 25.6516  11161.6  105.177
 25.6936  11230.9  105.82
 25.7356  11066.3  105.176
 25.7776  11169.7  105.261
 25.8196  11035.9  104.869
 25.8616  10995.3  104.603
 25.9036  11027.9  104.208
 25.9456  10934.7  104.372
 25.9876  10947.6  104.499
 26.0296  11128.7  104.876
 26.0716  11069.2  105.023
 26.1136  11139.9  105.286
 26.1556  11003.9  104.021
 26.1976  10880.4  104.37
 26.2396  10887.4  103.553
 26.2816  10972.8  104.573
 26.3236  10937.1  104.557
 26.3656  11149.4  105.289
 26.4076  10867.2  104.151
 26.4496  11139.2  105.034
 26.4916  11213  105.281
 26.5336  11460.1  106.782
 26.5756  11649.3  107.538
 26.6176  11140  105.178
 26.6596  10980.2  104.727
 26.7016  10814.1  103.698
 26.7436  10941.5  104.437
 26.7856  10692  103.232
 26.8276  10724.2  103.35
 26.8696  10798.6  103.572
 26.9116  10677  102.921
 26.9536  10587.3  102.542
 26.9956  10440.9  101.862
 27.0376  10639.2  103.059
 27.0796  10552.4  102.354
 27.1216  10611.7  102.704
 27.1636  10420.2  101.952
 27.2056  10433.1  101.894
 27.2476  10465.7  102.042
 27.2896  10413.8  101.902
 27.3316  10491.5  102
 27.3736  10379.9  101.719
 27.4156  10457.2  101.944
 27.4576  10508.8  102.416
 27.4996  10452.9  101.751
 27.5416  10350  101.551
 27.5836  10436.6  101.811
 27.6256  10392.2  101.776
 27.6676  10357.3  101.598
 27.7096  10261.1  101.006
 27.7516  10350  101.589
 27.7936  10718.5  103.537
 27.8356  10468.5  101.929
 27.8776  10485.3  102.073
 27.9196  10172.2  100.397
 27.9616  10230.3  100.88
 28.0036  10219.2  100.79
 28.0456  10150.9  100.588
 28.0876  10051.9  100.188
 28.1296  10173.1  100.619
 28.1716  10162.3  100.588
 28.2136  10084.4  100.166
 28.2556  10181.5  100.756
 28.2976  10018.3  99.9455
 28.3396  10023.1  99.724
 28.3816  10102.1  100.133
 28.4236  9945.44  99.4984
 28.4656  9939.67  99.5178
 28.5076  10060.3  99.7521
 28.5496  10066.7  100.035
 28.5916  10104.8  100.037
 28.6336  9987.48  99.8054
 28.6756  10059.9  99.3555
 28.7176  9949.95  99.3719
 28.7596  9848.35  98.755
 28.8016  9953.12  99.3145
 28.8436  9867.03  99.1256
 28.8856  9876.32  99.0186
 28.9276  9835.63  99.0693
 28.9696  9875.13  98.9153
 29.0116  9860.9  99.0286
 29.0536  9659.85  98.2289
 29.0956  9867.03  98.964
 29.1376  9803.48  98.6304
 29.1796  9763.64  98.4742
 29.2216  9752.53  98.2576
 29.2636  9774.73  98.4487
 29.3056  9802.16  98.3564
 29.3476  9712.46  98.4432
 29.3896  9784.71  98.917
 29.4316  9605.27  97.3398
 29.4736  9506.35  96.8955
 29.5156  9631.6  97.4575
 29.5576  9482.79  97.4358
 29.5996  9599.37  97.2937
 29.6416  9588.22  97.3583
 29.6836  9687.97  97.7884
 29.7256  9561.73  97.7129
 29.7676  9549.54  97.306
 29.8096  9420.2  96.5943
 29.8516  9327.37  96.4425
 29.8936  9475.97  97.3031
 29.9356  9418.48  96.7633
 29.9776  9350.43  96.5594
 30.0196  9541.12  96.9383
 30.0616  9439.32  96.7891
 30.1036  9385.4  96.3429
 30.1456  9389.82  96.5873
 30.1876  9348.31  96.3642
 30.2296  9277.3  95.9358
 30.2716  9406.54  96.2445
 30.3136  9459.69  97.3731
 30.3556  9642.34  98.3158
 30.3976  9450.16  98.8174
 30.4396  9798.43  97.9514
 30.4816  9570.13  96.4068
 30.5236  9725.2  97.1806
 30.5656  9537.26  96.8985
 30.6076  9673.24  96.989
 30.6496  9611.66  97.0966
 30.6916  9472.43  96.4683
 30.7336  9445.95  96.4793
 30.7756  9499.3  96.8395
 30.8176  9554.4  97.0514
 30.8596  9534.07  96.7123
 30.9016  9638.79  97.5843
 30.9436  9746.77  97.8701
 30.9856  9784.04  98.1822
 31.0276  9595.64  96.8622
 31.0696  9513.44  96.9955
 31.1116  9526.46  97.0319
 31.1536  9371.94  96.1129
 31.1956  9363.24  96.1839
 31.2376  9261.12  95.671
 31.2796  9498.48  96.4285
 31.3216  9321.53  95.4419
 31.3636  9471.67  96.9289
 31.4056  9347.16  97.6025
 31.4476  9535.96  96.4766
 31.4896  9431.63  96.4454
 31.5316  9321.08  95.2875
 31.5736  9524.71  96.1481
 31.6156  9594.94  96.5043
 31.6576  9612.98  96.6886
 31.6996  9649.36  96.5268
 31.7416  9416.36  96.4492
 31.7836  9463.45  95.6806
 31.8256  9473.4  96.0003
 31.8676  9470.14  95.9692
 31.9096  9363.92  95.804
 31.9516  9302.14  95.6618
 31.9936  9196  94.9393
 32.0356  9261.68  95.3094
 32.0776  9446.82  96.1624
 32.1196  9317.32  95.6134
 32.1616  9406.13  95.5102
 32.2036  9405.37  96.0259
 32.2456  9195.65  95.322
 32.2876  9399.71  95.873
 32.3296  9211.02  94.8681
 32.3716  8958.61  93.6664
 32.4136  9160.03  94.9099
 32.4556  9151.33  94.2502
 32.4976  9096.86  93.8737
 32.5396  9102.81  93.9685
 32.5816  9117.84  94.1749
 32.6236  9216.48  94.7379
 32.6656  9090.38  94.6463
 32.7076  9075.99  94.2229
 32.7496  9059.52  93.8128
 32.7916  9197.84  94.4827
 32.8336  9109.28  94.1264
 32.8756  9132.03  93.9537
 32.9176  8884.46  93.1594
 32.9596  8931.78  93.4751
 33.0016  9074.83  93.9952
 33.0436  9000  93.7743
 33.0856  8933.26  93.5223
 33.1276  8858.65  92.8676
 33.1696  9102.12  93.9617
 33.2116  9041.93  93.8894
 33.2536  9155.67  94.4715
 33.2956  9056.46  94.034
 33.3376  8954.63  93.2449
 33.3796  8981.24  93.6074
 33.4216  9029.34  93.4384
 33.4636  8945.47  93.1662
 33.5056  8848.57  92.9055
 33.5476  8968.13  93.5107
 33.5896  9005.32  93.4967
 33.6316  8968.98  93.6105
 33.6736  8744.34  92.68
 33.7156  8906.81  93.5659
 33.7576  9057.84  93.9993
 33.7996  8942.75  93.1534
 33.8416  8783.58  92.5129
 33.8836  8805.63  92.4013
 33.9256  8905.55  92.9812
 33.9676  9031.98  93.5351
 34.0096  8850.27  92.9119
 34.0516  8812.52  92.3258
 34.0936  8708.34  92.0673
 34.1356  8960.06  93.1241
 34.1776  8675.99  91.6345
 34.2196  8731.95  92.1142
 34.2616  8669.5  91.9285
 34.3036  8746.45  92.5732
 34.3456  8663.45  91.8826
 34.3876  8766.51  92.4077
 34.4296  8770.59  92.1111
 34.4716  8803.66  92.4381
 34.5136  8690.18  92.031
 34.5556  8561.04  91.6075
 34.5976  8780.77  92.5834
 34.6396  8619.64  91.4412
 34.6816  8781.75  92.403
 34.7236  8561.91  91.0081
 34.7656  8689.62  91.9073
 34.8076  8618.15  91.8587
 34.8496  8639.08  91.8175
 34.8916  8776.86  92.4133
 34.9336  8632.68  91.6258
 34.9756  8544.5  91.0778
 35.0176  8638.64  92.111
 35.0596  8763.66  92.5958
 35.1016  8675.28  91.8815
 35.1436  8861.53  92.5445
 35.1856  8698.84  91.801
 35.2276  8636.64  91.656
 35.2696  8640.14  91.866
 35.3116  8600.51  91.7612
 35.3536  8599.11  91.4601
 35.3956  8642.31  91.3993
 35.4376  8705.74  92.3044
 35.4796  8563.62  91.5881
 35.5216  8555.31  91.5087
 35.5636  8381.35  91.3145
 35.6056  8462.76  90.7808
 35.6476  8637.14  91.6098
 35.6896  8568.4  91.3394
 35.7316  8486.34  90.8733
 35.7736  8473.97  90.9911
 35.8156  8638.62  91.8689
 35.8576  8614.13  91.9916
 35.8996  8532.41  91.5169
 35.9416  8565.17  91.2036
 35.9836  8488.75  91.1335
 36.0256  8634.46  91.9382
 36.0676  8680.83  91.9217
 36.1096  8546.54  91.3622
 36.1516  8653.62  91.8237
 36.1936  8457.4  90.6011
 36.2356  8557.16  91.8119
 36.2776  8386.08  90.364
 36.3196  8497.51  90.6314
 36.3616  8470.37  90.6114
 36.4036  8403.23  90.3215
 36.4456  8425.76  90.6554
 36.4876  8257.58  89.6861
 36.5296  8405.53  90.5293
 36.5716  8416.66  91.3662
 36.6136  8270.28  89.3531
 36.6556  8265.09  89.5104
 36.6976  8210.49  89.7215
 36.7396  8217.65  89.4908
 36.7816  8107.26  89.2602
 36.8236  8127.04  89.2889
 36.8656  8107.46  89.2551
 36.9076  8059.24  88.8746
 36.9496  8042.59  88.7586
 36.9916  8025.98  88.3066
 37.0336  8139.56  89.2386
 37.0756  8219.76  89.4756
 37.1176  8055.26  88.8421
 37.1596  8155.28  89.4006
 37.2016  8071.7  89.1627
 37.2436  8210.55  89.2355
 37.2856  8113.47  88.9669
 37.3276  8239.43  89.0069
 37.3696  8061.26  88.9156
 37.4116  8107.46  89.0727
 37.4536  8088.07  88.8369
 37.4956  8032.12  88.5653
 37.5376  8144.18  90.784
 37.5796  8239.15  91.2375
 37.6216  8111.44  88.7916
 37.6636  8201.8  89.1708
 37.7056  8190.48  89.2986
 37.7476  8289.65  89.3807
 37.7896  8107.93  88.8987
 37.8316  8132.55  89.1866
 37.8736  8135.17  88.7298
 37.9156  8141.86  88.7548
 37.9576  8201.86  89.0023
 37.9996  8023.61  87.7395
 38.0416  8203.06  89.5331
 38.0836  8153.59  89.1591
 38.1256  8168.52  89.2203
 38.1676  7965.4  88.2148
 38.2096  8204.79  89.139
 38.2516  8125.74  88.9349
 38.2936  8234.32  89.3281
 38.3356  8110.35  88.5783
 38.3776  8008.52  88.2747
 38.4196  8100.48  88.6319
 38.4616  8185.87  89.341
 38.5036  8263.7  89.6135
 38.5456  8022.98  89.1321
 38.5876  7975.41  88.8977
 38.6296  8156.27  88.8688
 38.6716  8056.92  88.1238
 38.7136  8000.59  87.7623
 38.7556  8013.15  88.3353
 38.7976  8130.04  88.914
 38.8396  8170.13  89.5878
 38.8816  7969.06  88.2762
 38.9236  8002.33  88.2568
 38.9656  7963.34  87.9445
 39.0076  7970.5  87.3942
 39.0496  8261.89  89.5434
 39.0916  8016.73  87.8476
 39.1336  8072.85  88.561
 39.1756  8205.67  89.3441
 39.2176  8030.11  88.932
 39.2596  8110.4  89.3019
 39.3016  8127.22  88.9736
 39.3436  8052.82  88.9809
 39.3856  8245.21  89.4692
 39.4276  8215.41  89.8242
 39.4696  8073.4  88.6638
 39.5116  8114.9  89.404
 39.5536  8075.86  89.5921
 39.5956  8071.07  88.6739
 39.6376  7947.98  88.0023
 39.6796  7974.43  87.8944
 39.7216  8000.93  88.1336
 39.7636  7957.37  88.4531
 39.8056  8097.28  89.0172
 39.8476  7899.17  88.1737
 39.8896  8141.6  89.1495
 39.9316  7943.91  88.3111
 39.9736  8031.5  88.3588
 40.0156  8009.05  88.0684
 40.0576  7991.74  88.3305
 40.0996  8064.33  87.9086
 40.1416  7989.18  88.2908
 40.1836  8108.62  88.8398
 40.2256  8037.67  88.4833
 40.2676  8025.12  88.5113
 40.3096  8089.6  88.8022
 40.3516  8084.58  88.8876
 40.3936  8123.9  88.649
 40.4356  7937.44  87.8439
 40.4776  8163.89  89.4855
 40.5196  8008.7  88.7631
 40.5616  8199.94  89.4601
 40.6036  8036.01  88.8152
 40.6456  7944.83  87.9063
 40.6876  8219.62  89.4061
 40.7296  7933.1  87.9746
 40.7716  8124.04  89.1434
 40.8136  8051.54  88.6947
 40.8556  8141.06  89.3299
 40.8976  8184.12  89.4835
 40.9396  8081.66  89.2659
 40.9816  7999.67  88.1077
 41.0236  8101.4  88.4412
 41.0656  8163.41  89.3267
 41.1076  8089.58  88.6926
 41.1496  8110.14  88.7083
 41.1916  7958.94  88.195
 41.2336  8062.79  88.7696
 41.2756  8030.54  88.1903
 41.3176  8043.98  88.8827
 41.3596  8175.75  89.338
 41.4016  7967.42  88.4511
 41.4436  8081.69  88.865
 41.4856  8044.12  88.8252
 41.5276  8001.39  88.6034
 41.5696  8002.35  88.2475
 41.6116  8036.45  88.8189
 41.6536  8040.29  88.6939
 41.6956  7996.81  88.5242
 41.7376  7970.47  88.397
 41.7796  7996.35  88.4218
 41.8216  8086.16  89.148
 41.8636  8064.71  88.9861
 41.9056  7862.86  87.6568
 41.9476  7973.04  88.5047
 41.9896  8068.99  88.6994
 42.0316  8108.31  88.9956
 42.0736  8170.67  89.4467
 42.1156  7984.88  88.2554
 42.1576  8002.35  88.4615
 42.1996  8160.57  89.4634
 42.2416  7986.9  88.0923
 42.2836  7941.76  87.9555
 42.3256  7978.4  88.268
 42.3676  8100.17  88.7411
 42.4096  8018.97  88.2664
 42.4516  8036.8  88.4457
 42.4936  7883.07  87.6668
 42.5356  7849.44  87.6167
 42.5776  8067.4  88.7661
 42.6196  8000.05  88.4539
 42.6616  7816.27  87.5953
 42.7036  8102.46  88.5541
 42.7456  8025.87  88.4954
 42.7876  8021.6  88.5732
 42.8296  7925.62  87.8681
 42.8716  7730.06  86.9437
 42.9136  7876.17  87.5476
 42.9556  8045.74  88.6178
 42.9976  7959.9  88.1184
 43.0396  7931.7  87.6888
 43.0816  7921.68  88.0191
 43.1236  7908.03  87.9933
 43.1656  7877.05  87.6377
 43.2076  7831.01  87.4983
 43.2496  7739.26  86.8063
 43.2916  7834.53  87.7023
 43.3336  7903.21  87.9125
 43.3756  7903.89  87.6756
 43.4176  7845.4  87.4278
 43.4596  7822.55  87.1608
 43.5016  7891.12  87.9512
 43.5436  7925.8  88.0415
 43.5856  7754.9  87.1176
 43.6276  7816.85  87.3557
 43.6696  7720.89  87.0702
 43.7116  7960.66  87.9079
 43.7536  7926.37  88.2244
 43.7956  7670.1  88.0008
 43.8376  7616.8  86.2169
 43.8796  7623.98  86.3307
 43.9216  7640.31  86.343
 43.9636  7728.15  86.9425
 44.0056  7627.57  86.61
 44.0476  7612.76  86.1526
 44.0896  7640.16  86.6538
 44.1316  7693.66  86.4784
 44.1736  7532.57  85.692
 44.2156  7690.22  86.4434
 44.2576  7606.85  86.2934
 44.2996  7629.56  86.3974
 44.3416  7715.15  86.6317
 44.3836  7524.51  85.8825
 44.4256  7542.03  85.6247
 44.4676  7514.21  85.6286
 44.5096  7676.19  86.6895
 44.5516  7562.94  86.0096
 44.5936  7574.11  86.0294
 44.6356  7692.93  86.4374
 44.6776  7718.74  86.9065
 44.7196  7639.95  86.7616
 44.7616  7586.14  87.7976
 44.8036  7712.62  86.9267
 44.8456  7819.2  87.7357
 44.8876  7702.29  86.9167
 44.9296  7912.03  87.5282
 44.9716  7811.89  87.3995
 45.0136  7794.49  87.2509
 45.0556  7808.77  87.3152
 45.0976  7638.79  86.5079
 45.1396  7714.22  86.6762
 45.1816  7659.73  86.3181
 45.2236  7679.74  86.34
 45.2656  7645.94  86.6457
 45.3076  7697.28  86.7089
 45.3496  7655.95  86.7981
 45.3916  7743.14  87.5692
 45.4336  7806.72  87.7689
 45.4756  7703.36  87.042
 45.5176  7829.1  87.3532
 45.5596  7814.85  87.397
 45.6016  7677.7  87.0538
 45.6436  7739.26  86.557
 45.6856  7626.96  86.5927
 45.7276  7465.56  86.9804
 45.7696  7584.95  87.3665
 45.8116  7561.48  86.6699
 45.8536  7443.72  85.8808
 45.8956  7627.57  86.2819
 45.9376  7737.69  86.3528
 45.9796  7705.62  86.875
 46.0216  7706.22  87.2033
 46.0636  7828  87.022
 46.1056  7731.12  86.4841
 46.1476  7670.87  86.7364
 46.1896  7624.29  86.6271
 46.2316  7640.83  86.5875
 46.2736  7455.44  85.9143
 46.3156  7630.26  86.4926
 46.3576  7621.76  86.6527
 46.3996  7629.91  86.8532
 46.4416  7706.93  86.8598
 46.4836  7567.55  86.4263
 46.5256  7599.67  86.5572
 46.5676  7585.15  86.5901
 46.6096  7703.86  87.1808
 46.6516  7666.11  86.0044
 46.6936  7706.16  86.7392
 46.7356  7644.69  86.4882
 46.7776  7530.09  86.6926
 46.8196  7557.69  86.4362
 46.8616  7444.83  85.7288
 46.9036  7518.94  85.8202
 46.9456  7521.63  85.4599
 46.9876  7569.58  85.8203
 47.0296  7503.47  86.1405
 47.0716  7372.96  85.2129
 47.1136  7485.97  85.5333
 47.1556  7530.05  85.6443
 47.1976  7631.16  86.2992
 47.2396  7442.7  85.6375
 47.2816  7475.2  85.5248
 47.3236  7517.73  86.1417
 47.3656  7571.75  86.3844
 47.4076  7527.13  85.9212
 47.4496  7587.57  86.3631
 47.4916  7402.13  85.4848
 47.5336  7572.01  86.2851
 47.5756  7576.74  86.422
 47.6176  7428.84  85.4752
 47.6596  7501.21  85.6054
 47.7016  7610.18  86.0255
 47.7436  7593.01  86.2873
 47.7856  7589.69  86.293
 47.8276  7535.48  86.0341
 47.8696  7423.83  85.4759
 47.9116  7465.89  85.4327
 47.9536  7512.18  85.6325
 47.9956  7414.34  85.7973
 48.0376  7413.17  85.5608
 48.0796  7590.81  86.7023
 48.1216  7439.76  85.6584
 48.1636  7590.66  86.0887
 48.2056  7510.72  85.9013
 48.2476  7588.37  86.6607
 48.2896  7534.53  86.2586
 48.3316  7506.85  86.0344
 48.3736  7514.55  86.1142
 48.4156  7361.31  85.0766
 48.4576  7474.45  86.0303
 48.4996  7585.24  86.1002
 48.5416  7573.74  86.3752
 48.5836  7501.71  85.6321
 48.6256  7501.42  85.8416
 48.6676  7497.79  86.3448
 48.7096  7544.89  85.8639
 48.7516  7454.14  85.5034
 48.7936  7318.96  84.785
 48.8356  7464.62  85.6775
 48.8776  7431.01  86.0593
 48.9196  7639.02  86.6161
 48.9616  7385.44  85.5522
 49.0036  7509.68  86.6221
 49.0456  7498.02  86.5145
 49.0876  7395.22  85.4687
 49.1296  7399.63  85.6574
 49.1716  7296.62  84.9287
 49.2136  7577.65  86.4733
 49.2556  7513.37  86.1455
 49.2976  7526.45  86.2925
 49.3396  7406.96  85.6535
 49.3816  7501.56  85.6178
 49.4236  7486.76  85.9622
 49.4656  7319.2  85.0181
 49.5076  7473.95  85.6551
 49.5496  7501.95  85.8865
 49.5916  7480.51  85.6732
 49.6336  7404.27  85.4418
 49.6756  7482.58  86.1207
 49.7176  7328.3  85.1781
 49.7596  7426.63  85.5107
 49.8016  7479.22  85.73
 49.8436  7336.47  85.2108
 49.8856  7337.59  85.2265
 49.9276  7345.85  85.3718
 49.9696  7399.08  85.6651
 50.0116  7468.49  86.1861
 50.0536  7408.46  85.7927
 50.0956  7271.83  85.078
 50.1376  7373.71  85.3531
 50.1796  7295.33  85.1834
 50.2216  7372.76  85.6207
 50.2636  7377.59  85.2536
 50.3056  7365.11  85.3746
 50.3476  7242.64  84.6738
 50.3896  7422.62  85.6913
 50.4316  7360.14  85.1631
 50.4736  7237.31  84.673
 50.5156  7289.42  84.9535
 50.5576  7464  85.7246
 50.5996  7290.27  85.0175
 50.6416  7238.66  84.6361
 50.6836  7338.86  85.2844
 50.7256  7366.45  85.3631
 50.7676  7385.59  85.8138
 50.8096  7348.01  85.108
 50.8516  7283.3  85.1652
 50.8936  7255.02  84.7661
 50.9356  7286.25  85.0676
 50.9776  7317.69  85.4077
 51.0196  7074.38  84.1036
 51.0616  7120.91  83.6971
 51.1036  7274  84.9526
 51.1456  7208.71  84.4866
 51.1876  7126.07  83.3214
 51.2296  7061.7  83.574
 51.2716  7122.44  83.6458
 51.3136  7172.67  84.4156
 51.3556  7009.38  83.0582
 51.3976  7166.73  84.1425
 51.4396  7058.45  83.8284
 51.4816  7143.79  84.1824
 51.5236  7122.48  84.1506
 51.5656  7136.14  83.8043
 51.6076  7149.97  83.9845
 51.6496  7138.33  84.1037
 51.6916  7045.26  83.9272
 51.7336  7058.42  84.0892
 51.7756  7009.81  83.4846
 51.8176  7096.93  84.1247
 51.8596  7053.32  83.879
 51.9016  7246.02  84.6119
 51.9436  7150.97  85.5868
 51.9856  7136.54  85.922
 52.0276  7143.52  84.402
 52.0696  7315.58  85.498
 52.1116  7089.01  84.2799
 52.1536  7204.59  84.8511
 52.1956  7208.09  84.3101
 52.2376  7315.74  85.1246
 52.2796  7272.22  84.6829
 52.3216  7060.32  84.14
 52.3636  7152.18  84.2391
 52.4056  7142.1  84.0462
 52.4476  7090.7  84.1033
 52.4896  7086.02  84.136
 52.5316  7196.66  84.8466
 52.5736  6998.43  83.3712
 52.6156  7194.95  84.9513
 52.6576  7072.53  83.6412
 52.6996  6968.11  84.0251
 52.7416  7023.85  84.2103
 52.7836  7148.37  84.8481
 52.8256  7216.39  84.4342
 52.8676  6971.84  83.5801
 52.9096  7127.97  84.587
 52.9516  7058.56  84.5682
 52.9936  7012.62  84.6875
 53.0356  6990.62  83.5252
 53.0776  7109.1  84.523
 53.1196  7103.13  84.599
 53.1616  7125.97  84.7903
 53.2036  7016.02  84.1012
 53.2456  6950.15  83.8145
 53.2876  6988.45  83.7283
 53.3296  7071.96  84.5649
 53.3716  7093.39  84.4355
 53.4136  7062.93  84.4076
 53.4556  6994.2  84.018
 53.4976  7033.76  84.085
 53.5396  6964.56  84.093
 53.5816  7108.93  84.5808
 53.6236  6987.18  84.2114
 53.6656  7085.57  84.3997
 53.7076  6947.57  83.5251
 53.7496  7089.98  84.5105
 53.7916  6902.18  83.5304
 53.8336  6975.87  83.8561
 53.8756  6876.42  83.8121
 53.9176  6963.85  83.6663
 53.9596  6801.07  83.4757
 54.0016  6746.09  82.4411
 54.0436  6705.92  82.4173
 54.0856  6928.6  83.1945
 54.1276  6794.56  82.58
 54.1696  6748.29  82.4695
 54.2116  6864.41  82.9019
 54.2536  6746.46  82.0052
 54.2956  6812.02  82.4528
 54.3376  6697.81  82.2754
 54.3796  6747.24  82.4442
 54.4216  6740.58  82.4692
 54.4636  6700.08  82.1885
 54.5056  6732.43  82.1845
 54.5476  6779.83  82.8192
 54.5896  6722.08  82.315
 54.6316  6673.96  81.864
 54.6736  6686.64  82.0147
 54.7156  6708.27  82.1857
 54.7576  6704.91  82.1296
 54.7996  6688.55  82.1804
 54.8416  6759.9  82.6872
 54.8836  6698.66  82.4073
 54.9256  6728.27  82.3446
 54.9676  6535.26  81.0075
 55.0096  6656.26  81.795
 55.0516  6553.06  81.3641
 55.0936  6638.46  81.5863
 55.1356  6588.34  81.3159
 55.1776  6835.98  83.0847
 55.2196  6625.68  81.5641
 55.2616  6762.59  82.6477
 55.3036  6651.89  82.1406
 55.3456  6367.3  80.4939
 55.3876  6613.28  81.7602
 55.4296  6538.15  81.3042
 55.4716  6501.33  81.1056
 55.5136  6575  81.3171
 55.5556  6697.92  82.113
 55.5976  6606.98  81.6498
 55.6396  6694.76  82.1332
 55.6816  6545.78  81.0842
 55.7236  6513.71  80.9366
 55.7656  6560.22  80.9357
 55.8076  6459.96  80.3286
 55.8496  6408.97  80.3247
 55.8916  6402.19  80.5
 55.9336  6653.69  81.8843
 55.9756  6489.32  80.7326
 56.0176  6482.72  80.8478
 56.0596  6400.62  80.3315
 56.1016  6393.51  80.2938
 56.1436  6514.52  81.3132
 56.1856  6395.64  80.3147
 56.2276  6614.99  81.7287
 56.2696  6464.55  80.7804
 56.3116  6561.04  81.7599
 56.3536  6489.02  80.9656
 56.3956  6511.48  81.0897
 56.4376  6355.85  80.1602
 56.4796  6349.37  79.9436
 56.5216  6522.3  81.4007
 56.5636  6408.95  80.262
 56.6056  6491.78  81.0184
 56.6476  6391.02  79.9901
 56.6896  6648.2  82.066
 56.7316  6407.92  80.4636
 56.7736  6485.98  80.9559
 56.8156  6435.19  80.6699
 56.8576  6227.46  79.2962
 56.8996  6337.81  79.8943
 56.9416  6330.5  80.1641
 56.9836  6478.51  80.6236
 57.0256  6349.18  80.1182
 57.0676  6493.27  81.1409
 57.1096  6389.64  80.2821
 57.1516  6370.63  80.2176
 57.1936  6439.81  80.4066
 57.2356  6236.44  79.4561
 57.2776  6349.94  80.1364
 57.3196  6416.48  80.9044
 57.3616  6371.08  80.1119
 57.4036  6379.84  80.2138
 57.4456  6485.97  80.875
 57.4876  6429.45  80.3874
 57.5296  6350.4  80.2095
 57.5716  6249.55  79.5796
 57.6136  6269.15  79.5415
 57.6556  6315.1  79.9495
 57.6976  6324.15  79.8463
 57.7396  6197.02  79.3775
 57.7816  6250.4  80.1031
 57.8236  6264.47  79.98
 57.8656  6355.38  80.2212
 57.9076  6409.35  80.5695
 57.9496  6264.11  80.0105
 57.9916  6330.14  79.9504
 58.0336  6258.06  79.7776
 58.0756  6371.03  80.1313
 58.1176  6340.31  79.9253
 58.1596  6277.44  80.1207
 58.2016  6056.08  77.9097
 58.2436  6185.11  79.1504
 58.2856  5998.08  77.8653
 58.3276  6092  78.8441
 58.3696  6023.55  78.16
 58.4116  6086.27  78.4279
 58.4536  6177.53  78.9014
 58.4956  5945.98  77.5845
 58.5376  6135.17  78.376
 58.5796  6039.16  78.1795
 58.6216  6053.77  78.0988
 58.6636  6039.15  78.2093
 58.7056  6009.21  77.8775
 58.7476  6004.85  78.2904
 58.7896  6001.44  77.9162
 58.8316  6128.24  78.733
 58.8736  6142.04  78.8283
 58.9156  6035.98  78.1937
 58.9576  5980.15  78.1394
 58.9996  6101.14  78.1809
 59.0416  6076.1  78.378
 59.0836  6164.13  78.8541
 59.1256  6033.78  78.7264
 59.1676  5925.39  78.3203
 59.2096  6099.86  78.7588
 59.2516  6043.45  77.9748
 59.2936  6000.78  78.0261
 59.3356  5844.73  76.8846
 59.3776  6089.03  78.6446
 59.4196  5944.09  77.6394
 59.4616  6039.8  78.122
 59.5036  5915.23  77.3472
 59.5456  6206.41  78.9172
 59.5876  6229.56  79.2583
 59.6296  5907  77.2476
 59.6716  5916.02  77.3639
 59.7136  5955.33  77.6088
 59.7556  5953.3  77.731
 59.7976  5913.43  77.2152
 59.8396  6114.28  78.4092
 59.8816  5986.87  78.1311
 59.9236  6043.2  78.1412
 59.9656  5889.64  77.3991
 60.0076  5972.92  77.3057
 60.0496  5946.02  77.6312
 60.0916  6122.99  78.1923
 60.1336  5899.56  77.8466
 60.1756  6014.02  79.7797
 60.1996  0.0000000E+00  0.0000000E+00