File: docs/examples/opeando_xrd/IS17_D/Data/IS17_D/17_Db_f00140.xye
# /beamlines/bl04/projects/cycle2025-II/20250340211-lsimonelli/DATA/IS17_D/17_Db_f00140.xye : mythproc.py merge -s 0.006 -l 0.5 -f /beamlines/bl04/inhouse/ff/FlatField/ff_20Nov2024rod8mm60s_17keV.raw -b True -c true -o xye /beamlines/bl04/projects/cycle2025-II/20250340211-lsimonelli/DATA/IS17_D/17_Db_00140.dat
# IsMon = [6767402, 6768545, 6770882]  IsPos = [-1.4999, -2.4884, -3.4988]
# Wave = 0.4962  CalPath /beamlines/bl04/projects/cycle2025-II/20250340211-lsimonelli/DATA/Align/Si_Pos1_25keV_f00001.cal
# Date = 2025-09-25_08:44:20 Dt = 4.8000  Bin = 0.0060  <imon> = 6768943 +/- 1448 (Min/Max) 6767402 / 6770882
# icurr 251.4777  mocoIn 1.7160E-05  mocoOut 0.8046  i15 7.09348e+06  imon 6.76894e+06  i7 6.3333  iEMpd_timer 4.8000  iEMpd_1 3.5325E-08  iEMpd_2 7.7504E-08  iEMpd_3 1.8711E-08  iEMpd_4 4.7423E-08  iEMhp_timer 4.8000  iEMhp_1 4.9132E-06  iEMhp_2 -2.7292E-08  iEMhp_3 -2.3899E-08  iEMhp_4 -2.3062E-08
#      9776
 1.5856  44693.3  217.107
 1.6276  51470.3  228.989
 1.6696  56328.3  238.707
 1.7116  63963.1  254.868
 1.7536  71737  268.762
 1.7956  75459.2  276.335
 1.8376  72458  271.213
 1.8796  62102.3  249.233
 1.9216  51957.2  228.882
 1.9636  44703.2  211.433
 2.0056  40553.3  200.6
 2.0476  37995.6  196.3
 2.0896  36242.2  190.593
 2.1316  35752.7  188.391
 2.1736  33839  184.734
 2.2156  34155.8  184.107
 2.2576  32871.8  181.262
 2.2996  31362.4  177.7
 2.3416  32236.9  178.719
 2.3836  31432.5  176.588
 2.4256  30338  174.051
 2.4676  29842.4  172.379
 2.5096  30011.6  172.924
 2.5516  30227.1  177.515
 2.5936  60584.2  246.294
 2.6356  28777.9  170.441
 2.6776  27795.6  166.411
 2.7196  27464.9  165.908
 2.7616  27349.2  165.352
 2.8036  26817.1  163.897
 2.8456  26818.8  164.548
 2.8876  26008.9  161.899
 2.9296  25649.4  160.898
 2.9716  25554.2  160.1
 3.0136  25405.8  159.708
 3.0556  25437  160.2
 3.0976  25426.8  159.077
 3.1396  25159.5  158.956
 3.1816  24649.2  157.281
 3.2236  24592  157.095
 3.2656  24410.5  155.552
 3.3076  24402.9  156.998
 3.3496  24536.8  156.343
 3.3916  25045.8  157.786
 3.4336  25134.5  158.656
 3.4756  25676.6  160.292
 3.5176  26338.3  162.125
 3.5596  26172.5  164.045
 3.6016  26017.7  161.184
 3.6436  25328.9  160.15
 3.6856  24966  157.292
 3.7276  24014.4  155.35
 3.7696  23780.8  154.773
 3.8116  23407.3  153.455
 3.8536  23571.1  153.92
 3.8956  23699.9  154.161
 3.9376  23808.5  154.78
 3.9796  23401.3  152.941
 4.0216  23421.2  152.042
 4.0636  23453.8  153.619
 4.1056  23363.2  152.975
 4.1476  23680.5  154.326
 4.1896  23815.8  154.619
 4.2316  24024.3  155.119
 4.2736  24364.9  156.016
 4.3156  24323.5  156.111
 4.3576  25205.8  158.832
 4.3996  25496.5  160.015
 4.4416  26011.9  161.204
 4.4836  26698.6  163.483
 4.5256  27182.9  165.574
 4.5676  26823.1  164.728
 4.6096  27516.6  165.489
 4.6516  27815.6  166.078
 4.6936  27715  166.607
 4.7356  28303.2  168.188
 4.7776  27887.2  166.778
 4.8196  27834.2  167.265
 4.8616  27207.1  164.868
 4.9036  26981.4  163.913
 4.9456  27151.7  165.091
 4.9876  26422.5  162.752
 5.0296  26530.3  162.932
 5.0716  26200.3  162.656
 5.1136  26499.9  163.313
 5.1556  26691.7  163.351
 5.1976  29520.6  171.792
 5.2396  27621.2  165.858
 5.2816  27344.4  165.506
 5.3236  27325.8  165.129
 5.3656  26608  163.885
 5.4076  26753.2  164.477
 5.4496  26591.7  163.464
 5.4916  26814  163.906
 5.5336  26811.4  163.898
 5.5756  26754.5  163.746
 5.6176  26986.7  163.893
 5.6596  27277.9  165.769
 5.7016  27245.4  164.929
 5.7436  27248.8  165.215
 5.7856  27486.9  166.005
 5.8276  27664.1  166.246
 5.8696  27802.8  166.841
 5.9116  27730.2  167.228
 5.9536  28154  168.234
 5.9956  28476  168.585
 6.0376  28142.1  168.215
 6.0796  28494.5  169.095
 6.1216  28354.9  168.874
 6.1636  28708.1  168.959
 6.2056  28415.4  168.787
 6.2476  28639.6  169.33
 6.2896  29089.5  170.324
 6.3316  28923.4  170.016
 6.3736  29165.8  170.621
 6.4156  29185.7  170.559
 6.4576  29323.9  170.585
 6.4996  29127.3  170.487
 6.5416  29267  171.018
 6.5836  29383  171.595
 6.6256  29486.4  171.47
 6.6676  29972.9  172.439
 6.7096  29727.1  172.591
 6.7516  30243.5  173.738
 6.7936  30745.2  174.563
 6.8356  31027.9  175.472
 6.8776  30855.1  175.787
 6.9196  31110  176.91
 6.9616  31208.8  176.637
 7.0036  31709.2  177.699
 7.0456  31816.5  177.295
 7.0876  31664.9  178.563
 7.1296  31725.3  177.867
 7.1716  31671.7  177.251
 7.2136  31428  176.353
 7.2556  31562.5  176.876
 7.2976  31626.7  177.561
 7.3396  31449.9  177.285
 7.3816  31490.6  177.612
 7.4236  31895.5  178.044
 7.4656  31778  177.174
 7.5076  32397.6  179.049
 7.5496  31900.9  178.197
 7.5916  32272.8  179.289
 7.6336  32777.4  180.565
 7.6756  32699.2  180.202
 7.7176  33319.6  182.239
 7.7596  33061.2  182.747
 7.8016  35485.7  191.648
 7.8436  33215.7  182.062
 7.8856  33740  183.096
 7.9276  33892  183.905
 7.9696  34131.7  184.864
 8.0116  35344.7  186.668
 8.0536  35584.3  187.546
 8.0956  36318.7  190.672
 8.1376  35842.7  188.886
 8.1796  36177.3  190.31
 8.2216  37165.1  191.614
 8.2636  37220.3  192.013
 8.3056  36985.4  192.169
 8.3476  38207.6  194.639
 8.3896  37646.7  193.293
 8.4316  37386.2  192.788
 8.4736  37443.3  192.405
 8.5156  37077.4  191.738
 8.5576  37005.6  192.518
 8.5996  36745.7  190.725
 8.6416  36963.2  192.553
 8.6836  36572.2  191.355
 8.7256  37036.9  192.02
 8.7676  38347.3  198.364
 8.8096  38344.9  195.608
 8.8516  37316.5  192.534
 8.8936  37986.9  194.214
 8.9356  37133.1  192.359
 8.9776  37117  192.392
 9.0196  37171.8  192.202
 9.0616  37019.3  191.303
 9.1036  38003.6  195.028
 9.1456  36074.8  189.337
 9.1876  36216.1  189.664
 9.2296  36358.2  189.458
 9.2716  36174.3  189.024
 9.3136  35795.3  188.029
 9.3556  35898.5  188.273
 9.3976  35109.5  186.712
 9.4396  35195.1  186.841
 9.4816  35286  186.943
 9.5236  34833.7  185.628
 9.5656  34477.9  185.045
 9.6076  33963.5  184.178
 9.6496  33939.4  183.991
 9.6916  33684.8  183.264
 9.7336  33899.4  183.64
 9.7756  33983.6  185.137
 9.8176  33715.5  183.92
 9.8596  33562.7  181.935
 9.9016  33156.6  180.828
 9.9436  33034.1  180.406
 9.9856  32625.4  179.561
 10.0276  32465.7  180.201
 10.0696  32717.2  179.933
 10.1116  31590  177.069
 10.1536  31465.2  176.853
 10.1956  31169.8  175.648
 10.2376  31045.9  174.808
 10.2796  30964.3  174.692
 10.3216  30405.1  173.395
 10.3636  30463.3  173.584
 10.4056  30980.7  175.462
 10.4476  31570.7  176.721
 10.4896  33415.3  181.23
 10.5316  31506.5  176.734
 10.5736  30219.8  173.505
 10.6156  29619.3  171.524
 10.6576  32338.7  177.691
 10.6996  29340.7  169.98
 10.7416  28866.2  168.815
 10.7836  29055  170.042
 10.8256  27793.9  166.743
 10.8676  27957.2  166.759
 10.9096  27886.2  166.584
 10.9516  27666.5  164.857
 10.9936  28103.1  166.37
 11.0356  27617.4  165.545
 11.0776  28027.8  166.092
 11.1196  27956.1  166.658
 11.1616  26770.7  162.76
 11.2036  27521.9  164.868
 11.2456  28014.2  167.076
 11.2876  26921.5  163.501
 11.3296  26587.9  162.4
 11.3716  27268.5  164.137
 11.4136  26831.9  163.727
 11.4556  27132.5  164.284
 11.4976  28101.3  166.154
 11.5396  27874.7  165.658
 11.5816  26808.5  162.906
 11.6236  26184.3  161.232
 11.6656  26552.9  161.502
 11.7076  25617.2  159.463
 11.7496  25662.1  163.64
 11.7916  25725.7  159.038
 11.8336  24908.1  157.389
 11.8756  25138.2  157.667
 11.9176  24980.6  156.844
 11.9596  25080.9  157.334
 12.0016  24560.1  156.458
 12.0436  24890.6  156.951
 12.0856  24308.4  155.61
 12.1276  24254.7  155.385
 12.1696  24297.2  154.633
 12.2116  24344.4  154.784
 12.2536  25567.5  159.467
 12.2956  24299.3  154.801
 12.3376  24532.1  155.748
 12.3796  24315.3  155.55
 12.4216  24247  154.517
 12.4636  24516.8  156.328
 12.5056  23955.2  153.787
 12.5476  24160.9  153.956
 12.5896  23944.5  153.909
 12.6316  24212  154.927
 12.6736  23841.9  154.221
 12.7156  24201.2  155.22
 12.7576  23993.7  154.798
 12.7996  24255.9  154.286
 12.8416  24094.2  154.823
 12.8836  24597.6  156.261
 12.9256  24603  155.31
 12.9676  24548.4  155.534
 13.0096  24689.5  157.116
 13.0516  24552.8  155.701
 13.0936  24855.1  157.073
 13.1356  25023.9  156.542
 13.1776  24761  156.756
 13.2196  24431.4  155.352
 13.2616  24396.7  155.553
 13.3036  24666.5  156.377
 13.3456  24167.4  155.13
 13.3876  24854.5  156.593
 13.4296  24376  155.25
 13.4716  24725.2  155.98
 13.5136  24745.4  156.177
 13.5556  24538.6  156.155
 13.5976  24609  156.545
 13.6396  24799.6  156.5
 13.6816  24827  157.059
 13.7236  25194.2  157.803
 13.7656  26830.4  163.295
 13.8076  27821  164.923
 13.8496  26973.8  163.062
 13.8916  24955.6  157.983
 13.9336  24198.1  154.852
 13.9756  24217.6  154.285
 14.0176  24003.8  154.283
 14.0596  24483  155.733
 14.1016  23919.8  154.369
 14.1436  23829.4  153.212
 14.1856  23372.4  152.028
 14.2276  23589.2  153.22
 14.2696  23444.4  152.596
 14.3116  22824.8  150.473
 14.3536  22496.1  149.551
 14.3956  22533.9  149.406
 14.4376  22786.4  150.02
 14.4796  22528.3  149.167
 14.5216  22212.8  148.909
 14.5636  22298.2  148.76
 14.6056  22229.5  148.089
 14.6476  22120  146.954
 14.6896  21845.3  146.591
 14.7316  21502.3  146.479
 14.7736  21212.8  144.638
 14.8156  21217  144.669
 14.8576  21115.5  144.182
 14.8996  20871.6  144.539
 14.9416  20547.3  143.431
 14.9836  20237.4  142.324
 15.0256  19761.9  139.561
 15.0676  19723.6  139.734
 15.1096  19630.9  139.148
 15.1516  19441.8  139.03
 15.1936  19416.3  138.368
 15.2356  19299.1  138.228
 15.2776  19092.4  137.078
 15.3196  18724.9  136.736
 15.3616  18652.7  136.231
 15.4036  18456.3  135.382
 15.4456  18861.8  136.507
 15.4876  18461.9  134.736
 15.5296  18354.6  134.634
 15.5716  18136.9  133.435
 15.6136  18218.5  134.066
 15.6556  18585.6  134.638
 15.6976  17943.5  132.59
 15.7396  17792.9  132.408
 15.7816  17877.4  132.238
 15.8236  17541.3  131.671
 15.8656  17573.9  131.597
 15.9076  17447.4  130.942
 15.9496  18304.7  136.981
 15.9916  17650.4  134.894
 16.0336  18057  133.303
 16.0756  17584.1  131.847
 16.1176  17458.8  131.467
 16.1596  16955  130.719
 16.2016  16906  129.297
 16.2436  17257.5  131.025
 16.2856  17027.2  129.664
 16.3276  16640.5  128.612
 16.3696  16874.7  129.338
 16.4116  16712.4  129.155
 16.4536  16801.4  129.311
 16.4956  17407.8  131.355
 16.5376  16591  128.431
 16.5796  16581.7  127.756
 16.6216  16680  128.403
 16.6636  16363  127.366
 16.7056  16567.3  128.022
 16.7476  16651.9  127.875
 16.7896  16522.6  128.122
 16.8316  16630.1  128.518
 16.8736  16947.5  129.998
 16.9156  16567.2  128.861
 16.9576  16324  128.712
 16.9996  16250.9  128.88
 17.0416  16553.7  128.462
 17.0836  16507.7  128.045
 17.1256  16141.1  126.624
 17.1676  16710.4  128.796
 17.2096  16224.3  126.801
 17.2516  16116.3  126.162
 17.2936  15937.2  125.816
 17.3356  15733.1  124.995
 17.3776  15581.3  124.58
 17.4196  15612.3  124.397
 17.4616  15592.2  124.229
 17.5036  15699.3  125.017
 17.5456  15380.2  124.376
 17.5876  15250.3  122.9
 17.6296  15361.2  123.17
 17.6716  15417.4  123.986
 17.7136  15817.4  125.72
 17.7556  15292.5  123.907
 17.7976  15372.8  123.961
 17.8396  15255.9  122.997
 17.8816  14973.1  122.409
 17.9236  14996.4  122.292
 17.9656  14958.7  122.663
 18.0076  15224.6  123.33
 18.0496  15304  122.772
 18.0916  17042.9  130.144
 18.1336  16118.7  126.676
 18.1756  15416.4  123.422
 18.2176  15384.9  123.514
 18.2596  14774.2  120.767
 18.3016  15158.5  122.588
 18.3436  15309.7  123.212
 18.3856  14968.6  121.959
 18.4276  14730.6  120.668
 18.4696  14871  121.326
 18.5116  14820  121.396
 18.5536  14742.2  121.441
 18.5956  14586.4  120.356
 18.6376  14588.2  120.778
 18.6796  14543.9  119.898
 18.7216  14731  121.168
 18.7636  14591.2  120.591
 18.8056  14314.1  119.366
 18.8476  14091.4  119.064
 18.8896  14375.9  119.589
 18.9316  14320.4  119.331
 18.9736  14242.4  118.712
 19.0156  14233.7  119.094
 19.0576  14662.3  119.702
 19.0996  14471.1  119.64
 19.1416  14426  119.862
 19.1836  14198.1  118.496
 19.2256  13902.9  117.488
 19.2676  14160.3  118.651
 19.3096  14103.1  118.659
 19.3516  14173.9  118.92
 19.3936  14133.9  118.642
 19.4356  14317.1  119.293
 19.4776  14067.8  118.341
 19.5196  14064  118.175
 19.5616  14057.8  118.403
 19.6036  13943.5  117.422
 19.6456  14105.3  118.226
 19.6876  14161  118.085
 19.7296  14396.8  119.543
 19.7716  14009.6  118.092
 19.8136  14468.6  120.211
 19.8556  14373.9  119.298
 19.8976  14712  120.75
 19.9396  14758.5  120.52
 19.9816  14776.6  120.847
 20.0236  15013.3  122.013
 20.0656  14382  119.412
 20.1076  14261.1  119.396
 20.1496  13858  117.687
 20.1916  14020.4  117.896
 20.2336  13837.1  117.041
 20.2756  13599.8  116.46
 20.3176  13489.4  115.74
 20.3596  13580.5  116.119
 20.4016  13569  115.86
 20.4436  13431  115.836
 20.4856  13457.7  115.75
 20.5276  13404.5  115.982
 20.5696  13440.3  115.579
 20.6116  13392.9  115.652
 20.6536  13392  115.163
 20.6956  13257.1  114.711
 20.7376  13242.9  114.86
 20.7796  13101.9  113.946
 20.8216  13346.4  114.713
 20.8636  13502  115.764
 20.9056  13791.7  116.932
 20.9476  13184.3  114.18
 20.9896  13812.9  116.728
 21.0316  13243.4  114.185
 21.0736  13370.9  115.269
 21.1156  13344.8  115.315
 21.1576  13249.8  114.944
 21.1996  13000.2  113.842
 21.2416  13230.6  114.675
 21.2836  13121.2  114.171
 21.3256  13098.7  114.144
 21.3676  13118  113.762
 21.4096  13205  114.465
 21.4516  12949.2  113.225
 21.4936  12806.6  112.853
 21.5356  12970.8  113.534
 21.5776  13153.9  114.157
 21.6196  12945.6  113.291
 21.6616  12750.8  112.517
 21.7036  12982.8  113.308
 21.7456  12833.2  112.739
 21.7876  12805.6  112.376
 21.8296  12801.4  112.196
 21.8716  12839.9  112.599
 21.9136  12893.4  113.03
 21.9556  12673.2  111.743
 21.9976  12772.8  112.207
 22.0396  12807.2  112.616
 22.0816  12687.7  112.615
 22.1236  13022.4  113.542
 22.1656  12859.4  112.972
 22.2076  12546.7  111.05
 22.2496  12625.2  111.427
 22.2916  12328.7  109.997
 22.3336  12596  111.904
 22.3756  12358.5  110.565
 22.4176  12370.9  110.467
 22.4596  12160.7  110.112
 22.5016  12459.6  110.96
 22.5436  12568.9  111.32
 22.5856  12722.8  112.251
 22.6276  12754.5  112.529
 22.6696  12473.6  111.636
 22.7116  12407.3  110.85
 22.7536  12371.7  110.668
 22.7956  12465.3  110.422
 22.8376  12270.4  110.065
 22.8796  12274.2  109.89
 22.9216  12322.5  110.641
 22.9636  12226.5  109.377
 23.0056  12304  109.855
 23.0476  12553.9  111.54
 23.0896  12751.1  111.786
 23.1316  12553.6  111.353
 23.1736  12587.1  114.452
 23.2156  12618  111.97
 23.2576  12862.6  113.184
 23.2996  12529.8  111.482
 23.3416  12740.1  112.95
 23.3836  12708.1  112.032
 23.4256  12761.2  112.389
 23.4676  12754.4  112.051
 23.5096  12575  111.923
 23.5516  12537.7  111.052
 23.5936  12701.2  112.689
 23.6356  12927.5  113.346
 23.6776  12473.4  111.545
 23.7196  12644.9  111.889
 23.7616  12592.5  111.57
 23.8036  12737.2  112.272
 23.8456  12485.1  110.701
 23.8876  12548.2  111.346
 23.9296  12456.9  111.423
 23.9716  12508.5  110.856
 24.0136  12566.6  112.022
 24.0556  12328.9  110.67
 24.0976  12284.6  110.29
 24.1396  12289.9  112.95
 24.1816  12390.2  111.812
 24.2236  12149.7  110.359
 24.2656  12240.9  110.241
 24.3076  12155.1  110.123
 24.3496  12300  110.654
 24.3916  12274.2  110.591
 24.4336  12293.7  110.882
 24.4756  11929.5  109.114
 24.5176  12104.5  109.529
 24.5596  11890.1  108.671
 24.6016  11834.6  108.724
 24.6436  12175.3  109.781
 24.6856  11845.8  108.026
 24.7276  11787.5  108.087
 24.7696  11904  108.725
 24.8116  11745.8  108.182
 24.8536  11643.3  107.715
 24.8956  11675.3  107.595
 24.9376  11655.5  107.422
 24.9796  11427.4  106.733
 25.0216  11534.9  107.354
 25.0636  11676.7  107.658
 25.1056  11427.5  107.211
 25.1476  11420.3  108.809
 25.1896  11498.7  107.674
 25.2316  11353.8  106.267
 25.2736  11370.2  105.994
 25.3156  11312.7  105.8
 25.3576  11262.3  105.996
 25.3996  11215.4  105.764
 25.4416  11214.9  105.726
 25.4836  11116.6  105.793
 25.5256  11147.9  105.297
 25.5676  11184  105.193
 25.6096  11173.1  105.729
 25.6516  11049.5  104.65
 25.6936  11218.3  105.765
 25.7356  11185  105.742
 25.7776  11236.2  105.574
 25.8196  11130.4  105.32
 25.8616  10975.9  104.516
 25.9036  11224.8  105.141
 25.9456  11029.5  104.827
 25.9876  10916.9  104.355
 26.0296  11038.5  104.451
 26.0716  11124.4  105.284
 26.1136  11191.6  105.526
 26.1556  11088.8  104.419
 26.1976  10828.3  104.12
 26.2396  11015.8  104.162
 26.2816  11135.2  105.346
 26.3236  11116.2  105.411
 26.3656  11112.4  105.11
 26.4076  10986.6  104.715
 26.4496  11081.8  104.767
 26.4916  11151.6  104.985
 26.5336  11312.9  106.09
 26.5756  11656.3  107.571
 26.6176  11045.6  104.728
 26.6596  10940  104.534
 26.7016  10746.1  103.377
 26.7436  10941.4  104.442
 26.7856  10656.8  103.054
 26.8276  10711.8  103.292
 26.8696  10748.3  103.334
 26.9116  10705  103.061
 26.9536  10519.1  102.214
 26.9956  10468.5  102
 27.0376  10637  103.043
 27.0796  10597.5  102.579
 27.1216  10674.7  103.013
 27.1636  10349.9  101.597
 27.2056  10562.2  102.523
 27.2476  10484.9  102.126
 27.2896  10425.8  101.959
 27.3316  10383.9  101.47
 27.3736  10302.3  101.349
 27.4156  10427.2  101.797
 27.4576  10363  101.709
 27.4996  10495  101.96
 27.5416  10357.4  101.588
 27.5836  10245.2  100.874
 27.6256  10368.3  101.667
 27.6676  10258.7  101.108
 27.7096  10336.2  101.377
 27.7516  10493.5  102.292
 27.7936  10749.7  103.679
 27.8356  10563  102.39
 27.8776  10636.6  102.817
 27.9196  10366.2  101.354
 27.9616  10425.8  101.844
 28.0036  10409.3  101.727
 28.0456  10117.9  100.426
 28.0876  10124.2  100.544
 28.1296  10302.6  101.257
 28.1716  10265.1  101.098
 28.2136  10184.1  100.656
 28.2556  10207.8  100.888
 28.2976  10075.1  100.229
 28.3396  10132.5  100.269
 28.3816  10114.6  100.19
 28.4236  10080.2  100.169
 28.4656  9938.71  99.5096
 28.5076  9928.99  99.0968
 28.5496  10061.8  100.018
 28.5916  10029.4  99.6673
 28.6336  10098.4  100.357
 28.6756  10085.4  99.4871
 28.7176  10032.1  99.7792
 28.7596  9908.95  99.054
 28.8016  9824.26  98.6742
 28.8436  9763.09  98.6046
 28.8856  9808.92  98.686
 28.9276  9906.17  99.4226
 28.9696  9808.61  98.582
 29.0116  9808.1  98.7679
 29.0536  9666.65  98.262
 29.0956  9836.57  98.8161
 29.1376  9824.48  98.7306
 29.1796  9829.22  98.8104
 29.2216  9641.6  97.6967
 29.2636  9776.49  98.4578
 29.3056  9776.45  98.2309
 29.3476  9768.75  98.726
 29.3896  9754.17  98.7657
 29.4316  9602.35  97.3255
 29.4736  9485.83  96.7931
 29.5156  9601.55  97.308
 29.5576  9613.28  98.1029
 29.5996  9499.19  96.783
 29.6416  9465.17  96.7307
 29.6836  9522.27  96.9471
 29.7256  9433.35  97.0553
 29.7676  9478.52  96.9485
 29.8096  9407.72  96.5308
 29.8516  9329.74  96.4562
 29.8936  9461.07  97.2269
 29.9356  9502.89  97.1988
 29.9776  9314.89  96.3793
 30.0196  9513.12  96.796
 30.0616  9436.92  96.7774
 30.1036  9505.59  96.9512
 30.1456  9319.72  96.2302
 30.1876  9355.63  96.3991
 30.2296  9249.67  95.7957
 30.2716  9472.76  96.584
 30.3136  9409.47  97.1141
 30.3556  9580.78  97.9955
 30.3976  9483.45  98.9944
 30.4396  9776.41  97.8431
 30.4816  9706.57  97.0937
 30.5236  9732.7  97.2365
 30.5656  9570.24  97.0602
 30.6076  9677  97.0278
 30.6496  9696.98  97.533
 30.6916  9361.58  95.9189
 30.7336  9524.2  96.8916
 30.7756  9486.54  96.7843
 30.8176  9543.55  96.9922
 30.8596  9380.65  95.9345
 30.9016  9455.89  96.6512
 30.9436  9461.77  96.4252
 30.9856  9640.25  97.4622
 31.0276  9564.72  96.708
 31.0696  9340.83  96.1229
 31.1116  9429.96  96.5603
 31.1536  9426.23  96.409
 31.1956  9389.13  96.2924
 31.2376  9247.06  95.6012
 31.2796  9348.74  95.6653
 31.3216  9410.34  95.9069
 31.3636  9323.26  96.1667
 31.4056  9374.69  97.7587
 31.4476  9429.32  95.9298
 31.4896  9433.83  96.4544
 31.5316  9406.53  95.7181
 31.5736  9789.56  97.4749
 31.6156  9573.55  96.3984
 31.6576  9612.05  96.6733
 31.6996  9521.79  95.885
 31.7416  9449.65  96.6164
 31.7836  9494.75  95.8385
 31.8256  9319.38  95.2291
 31.8676  9526.4  96.271
 31.9096  9374.85  95.8663
 31.9516  9304.08  95.6713
 31.9936  9251.07  95.2167
 32.0356  9349.89  95.777
 32.0776  9415.22  96.0002
 32.1196  9417.08  96.1192
 32.1616  9418.67  95.5613
 32.2036  9304.46  95.5065
 32.2456  9202.43  95.3584
 32.2876  9281.44  95.259
 32.3296  9229.78  94.955
 32.3716  9047.64  94.1284
 32.4136  9110.56  94.6519
 32.4556  9255.94  94.7894
 32.4976  9173.14  94.2673
 32.5396  9130.7  94.1154
 32.5816  9063.42  93.8968
 32.6236  9147.19  94.3941
 32.6656  9130.97  94.8543
 32.7076  8946.51  93.5494
 32.7496  9005.64  93.5289
 32.7916  9069.41  93.8179
 32.8336  9033.86  93.7295
 32.8756  9063.86  93.6024
 32.9176  8869.22  93.0756
 32.9596  8940.83  93.5281
 33.0016  9005.77  93.6277
 33.0436  9009.9  93.8379
 33.0856  8973.52  93.7332
 33.1276  8911.42  93.1422
 33.1696  9050.89  93.6869
 33.2116  8996  93.6515
 33.2536  9085.15  94.0994
 33.2956  9036.34  93.9399
 33.3376  8928  93.1057
 33.3796  9012.16  93.768
 33.4216  8968.91  93.1256
 33.4636  8991.52  93.4048
 33.5056  8764.28  92.4612
 33.5476  8932.81  93.3248
 33.5896  8969.72  93.3088
 33.6316  8906.63  93.2855
 33.6736  8747.42  92.6946
 33.7156  8864.81  93.3471
 33.7576  8873.83  93.0402
 33.7996  8891.63  92.8855
 33.8416  8695.35  92.0459
 33.8836  8755.65  92.1396
 33.9256  8887.93  92.8873
 33.9676  8951.62  93.1183
 34.0096  8816.46  92.7291
 34.0516  8658.56  91.5286
 34.0936  8674.65  91.89
 34.1356  8828.8  92.4409
 34.1776  8708.33  91.8017
 34.2196  8662.6  91.7479
 34.2616  8664.47  91.8995
 34.3036  8711.38  92.3962
 34.3456  8642.88  91.7702
 34.3876  8780.2  92.4809
 34.4296  8683.92  91.6632
 34.4716  8789.05  92.3606
 34.5136  8737.13  92.2799
 34.5556  8541.16  91.5039
 34.5976  8720.39  92.266
 34.6396  8790  92.3378
 34.6816  8815.21  92.5847
 34.7236  8687.97  91.6941
 34.7656  8598.53  91.4151
 34.8076  8459.98  91.0117
 34.8496  8589.27  91.5517
 34.8916  8614.2  91.5422
 34.9336  8715.65  92.0679
 34.9756  8803.55  92.4498
 35.0176  8607.45  91.9459
 35.0596  8721.74  92.3768
 35.1016  8688.51  91.9509
 35.1436  8669.35  91.5374
 35.1856  8667.32  91.643
 35.2276  8606.79  91.4998
 35.2696  8574.74  91.5287
 35.3116  8479.63  91.1184
 35.3536  8455.86  90.6963
 35.3956  8469.08  90.4828
 35.4376  8624.5  91.882
 35.4796  8545.41  91.488
 35.5216  8531.4  91.3871
 35.5636  8280.52  90.7625
 35.6056  8420.45  90.5456
 35.6476  8610  91.4697
 35.6896  8613.8  91.5812
 35.7316  8496.01  90.9196
 35.7736  8449.25  90.8477
 35.8156  8488.76  91.0732
 35.8576  8489.8  91.3279
 35.8996  8637.45  92.0866
 35.9416  8413.56  90.3968
 35.9836  8523.93  91.3301
 36.0256  8714.77  92.3627
 36.0676  8546.75  91.2199
 36.1096  8477.97  90.9845
 36.1516  8549.2  91.273
 36.1936  8479.07  90.7203
 36.2356  8555.6  91.8064
 36.2776  8447.02  90.6845
 36.3196  8480.47  90.5403
 36.3616  8399.06  90.2339
 36.4036  8294.77  89.7404
 36.4456  8521.88  91.1734
 36.4876  8337.09  90.1161
 36.5296  8396.35  90.4754
 36.5716  8331.19  90.8999
 36.6136  8455.15  90.3426
 36.6556  8383.71  90.1579
 36.6976  8296.4  90.1878
 36.7396  8272.54  89.7862
 36.7816  8222.54  89.8943
 36.8236  8205.04  89.7182
 36.8656  8209.77  89.8141
 36.9076  7983.94  88.4545
 36.9496  8131.83  89.2565
 36.9916  8277.63  89.6835
 37.0336  8138.75  89.2354
 37.0756  8116.86  88.9117
 37.1176  7978.3  88.4161
 37.1596  7997.69  88.5327
 37.2016  8180.98  89.7645
 37.2436  8176.04  89.054
 37.2856  8127.9  89.0475
 37.3276  8148.04  88.5125
 37.3696  8101.76  89.1445
 37.4116  8050.55  88.763
 37.4536  7892.89  87.7596
 37.4956  8010.64  88.4525
 37.5376  8087.39  90.4691
 37.5796  8120.35  90.5742
 37.6216  8122.25  88.8529
 37.6636  8217.89  89.2639
 37.7056  8218.64  89.4599
 37.7476  8232.98  89.0816
 37.7896  8121.64  88.9785
 37.8316  8122  89.1312
 37.8736  8186.06  89.0127
 37.9156  8244.3  89.3265
 37.9576  8212.94  89.0664
 37.9996  7958.47  87.3889
 38.0416  8070.18  88.8075
 38.0836  8184.47  89.3338
 38.1256  8109.63  88.9017
 38.1676  8140.14  89.1933
 38.2096  8227.61  89.2838
 38.2516  8221.22  89.4623
 38.2936  8261.75  89.483
 38.3356  8091.51  88.4771
 38.3776  8102.05  88.7949
 38.4196  8129.88  88.7987
 38.4616  8083.02  88.7865
 38.5036  8154.02  89.0184
 38.5456  8085.09  89.4836
 38.5876  8002.24  89.0456
 38.6296  8087.55  88.4861
 38.6716  8064.82  88.1633
 38.7136  8049.49  88.0161
 38.7556  8017.32  88.3586
 38.7976  8165.69  89.0926
 38.8396  7990.65  88.5933
 38.8816  8089.89  88.9395
 38.9236  8031.49  88.4177
 38.9656  8148.27  88.9649
 39.0076  8145.14  88.3339
 39.0496  8036.45  88.3095
 39.0916  7995.42  87.7274
 39.1336  8121.39  88.8331
 39.1756  8022.9  88.3486
 39.2176  7945.29  88.4576
 39.2596  8019.18  88.7925
 39.3016  8071.5  88.6635
 39.3436  7926.32  88.2642
 39.3856  8171.62  89.0548
 39.4276  8149.14  89.4574
 39.4696  8175.35  89.2164
 39.5116  8145.81  89.5753
 39.5536  8083.89  89.6497
 39.5956  8009.85  88.3415
 39.6376  8019.03  88.3912
 39.6796  8087.15  88.5087
 39.7216  7931.8  87.7502
 39.7636  8027.18  88.853
 39.8056  8140.15  89.2572
 39.8476  7941.68  88.417
 39.8896  7941.42  88.043
 39.9316  7963.7  88.4046
 39.9736  8030.05  88.3512
 40.0156  8026.46  88.166
 40.0576  7945.6  88.0752
 40.0996  8109.46  88.1541
 40.1416  8004.35  88.3783
 40.1836  8030.31  88.408
 40.2256  7908.44  87.768
 40.2676  7994.71  88.3492
 40.3096  8042.64  88.5507
 40.3516  8163.14  89.3105
 40.3936  8138.26  88.7288
 40.4356  8056.62  88.4968
 40.4776  8090.13  89.0865
 40.5196  8029.53  88.8843
 40.5616  8140.43  89.1286
 40.6036  8065.01  88.9777
 40.6456  7987.17  88.1507
 40.6876  8132.89  88.9428
 40.7296  8131.35  89.0713
 40.7716  8015.49  88.5583
 40.8136  7970.5  88.2428
 40.8556  8088.14  89.0368
 40.8976  8058.81  88.7926
 40.9396  8022.75  88.9351
 40.9816  8023.57  88.2375
 41.0236  7982.34  87.7911
 41.0656  8119.95  89.091
 41.1076  8027.23  88.346
 41.1496  8043.19  88.3449
 41.1916  7942.99  88.1068
 41.2336  8098.52  88.968
 41.2756  8055.07  88.3315
 41.3176  8098.68  89.1814
 41.3596  8089.97  88.8718
 41.4016  7876.25  87.9468
 41.4436  7884.56  87.7797
 41.4856  7984.25  88.4999
 41.5276  7936.45  88.2453
 41.5696  7959.47  88.0051
 41.6116  8038.81  88.8356
 41.6536  8044.27  88.7239
 41.6956  8135.5  89.2797
 41.7376  8025.71  88.7111
 41.7796  7916.49  87.984
 41.8216  7937.66  88.3337
 41.8636  7949.3  88.3452
 41.9056  7931.23  88.0347
 41.9476  8081.87  89.1022
 41.9896  8115.16  88.9533
 42.0316  8110.44  89.0103
 42.0736  8109.82  89.116
 42.1156  7960.57  88.118
 42.1576  7975.51  88.3075
 42.1996  8003.49  88.594
 42.2416  8037.56  88.3707
 42.2836  7978.43  88.1619
 42.3256  7918.82  87.9312
 42.3676  8101.25  88.7485
 42.4096  8100.01  88.7129
 42.4516  8025.86  88.3777
 42.4936  7936.7  87.9639
 42.5356  7858.07  87.6697
 42.5776  7989.5  88.3316
 42.6196  7982.71  88.3535
 42.6616  7803.11  87.5283
 42.7036  7929.66  87.6075
 42.7456  7972.5  88.2057
 42.7876  7912.02  87.9653
 42.8296  7895.86  87.7086
 42.8716  7806.18  87.3743
 42.9136  7871.74  87.5253
 42.9556  7931.3  87.9913
 42.9976  7896.11  87.7593
 43.0396  7905.33  87.5406
 43.0816  7838.4  87.5564
 43.1236  7899.05  87.9386
 43.1656  7953.36  88.0775
 43.2076  7917.5  87.9801
 43.2496  7763.59  86.9429
 43.2916  7856.82  87.8289
 43.3336  7904.08  87.9185
 43.3756  7953.34  87.9497
 43.4176  7835.97  87.3838
 43.4596  7795.57  87.0099
 43.5016  7673.78  86.7241
 43.5436  7916.11  87.992
 43.5856  7758.87  87.1417
 43.6276  7727.34  86.8599
 43.6696  7810.04  87.5683
 43.7116  7913.37  87.6477
 43.7536  7864.31  87.8784
 43.7956  7740.06  88.4011
 43.8376  7644.95  86.3708
 43.8796  7594.39  86.154
 43.9216  7676.87  86.5494
 43.9636  7672.38  86.6264
 44.0056  7733.06  87.2054
 44.0476  7557.7  85.841
 44.0896  7521.76  85.9804
 44.1316  7720.44  86.63
 44.1736  7525.5  85.651
 44.2156  7734.65  86.6877
 44.2576  7581.42  86.1496
 44.2996  7642.9  86.4697
 44.3416  7673.43  86.4006
 44.3836  7464.91  85.5422
 44.4256  7540.01  85.6171
 44.4676  7501.13  85.553
 44.5096  7579.97  86.1462
 44.5516  7727  86.9372
 44.5936  7502.94  85.6261
 44.6356  7536.8  85.5557
 44.6776  7560.2  86.0095
 44.7196  7592.25  86.497
 44.7616  7565.82  87.6778
 44.8036  7577.91  86.1697
 44.8456  7652.69  86.8001
 44.8876  7670.79  86.7451
 44.9296  7839.09  87.1099
 44.9716  7797.04  87.3325
 45.0136  7649.32  86.4348
 45.0556  7790.7  87.2112
 45.0976  7723.52  86.9922
 45.1396  7516.58  85.5777
 45.1816  7529.94  85.5954
 45.2236  7747.72  86.7263
 45.2656  7516.22  85.9167
 45.3076  7650.23  86.4498
 45.3496  7578.45  86.3652
 45.3916  7567.01  86.5702
 45.4336  7631.33  86.7804
 45.4756  7582.52  86.3396
 45.5176  7791.14  87.1466
 45.5596  7694.93  86.7225
 45.6016  7571.47  86.44
 45.6436  7644.81  86.0386
 45.6856  7635.26  86.6465
 45.7276  7547.14  87.4706
 45.7696  7563.98  87.2466
 45.8116  7603.52  86.9003
 45.8536  7509.92  86.253
 45.8956  7652.75  86.4208
 45.9376  7592.64  85.538
 45.9796  7570.26  86.1052
 46.0216  7801.28  87.7566
 46.0636  7676.85  86.1728
 46.1056  7716.98  86.4023
 46.1476  7580.2  86.2238
 46.1896  7590.1  86.4345
 46.2316  7508.4  85.837
 46.2736  7428.88  85.753
 46.3156  7498.42  85.7373
 46.3576  7581.98  86.4092
 46.3996  7593.2  86.6438
 46.4416  7634.38  86.4394
 46.4836  7510.68  86.1063
 46.5256  7542.53  86.2234
 46.5676  7587.74  86.6024
 46.6096  7670.36  87.0046
 46.6516  7629.14  85.7997
 46.6936  7600.56  86.1388
 46.7356  7686.19  86.7203
 46.7776  7507.43  86.5568
 46.8196  7519.52  86.217
 46.8616  7373.91  85.3214
 46.9036  7459.64  85.4778
 46.9456  7414.96  84.8527
 46.9876  7376.13  84.7155
 47.0296  7530.57  86.2963
 47.0716  7364.56  85.1659
 47.1136  7460.89  85.3974
 47.1556  7431.65  85.0925
 47.1976  7625.41  86.2815
 47.2396  7519.56  86.0847
 47.2816  7410.65  85.1547
 47.3236  7553.76  86.3499
 47.3656  7490.71  85.9173
 47.4076  7437.37  85.4106
 47.4496  7459.52  85.6397
 47.4916  7414.53  85.5711
 47.5336  7445.36  85.5568
 47.5756  7606.38  86.607
 47.6176  7350.43  85.031
 47.6596  7399.71  85.026
 47.7016  7583.21  85.8863
 47.7436  7583.43  86.2269
 47.7856  7629.37  86.518
 47.8276  7445.87  85.5191
 47.8696  7422.13  85.4657
 47.9116  7513.78  85.7024
 47.9536  7506.06  85.598
 47.9956  7256.2  84.8776
 48.0376  7401.5  85.4935
 48.0796  7488.14  86.1127
 48.1216  7465.64  85.8096
 48.1636  7542.83  85.8148
 48.2056  7523.56  85.9775
 48.2476  7489.15  86.0967
 48.2896  7562.96  86.4171
 48.3316  7421.87  85.5529
 48.3736  7509.48  86.0828
 48.4156  7397.06  85.2848
 48.4576  7375.11  85.4576
 48.4996  7639.49  86.4126
 48.5416  7524.81  86.093
 48.5836  7537.17  85.8345
 48.6256  7556.49  86.1565
 48.6676  7435.3  85.9769
 48.7096  7481.23  85.5016
 48.7516  7401.4  85.1979
 48.7936  7302.49  84.6895
 48.8356  7458.86  85.6455
 48.8776  7458.51  86.2223
 48.9196  7582.48  86.2862
 48.9616  7356.84  85.3893
 49.0036  7481.48  86.4664
 49.0456  7441.97  86.2107
 49.0876  7537.94  86.277
 49.1296  7439.16  85.8922
 49.1716  7381.57  85.4209
 49.2136  7528.7  86.2043
 49.2556  7408.39  85.5394
 49.2976  7453.07  85.8648
 49.3396  7263.86  84.8161
 49.3816  7574.79  86.035
 49.4236  7389.6  85.4073
 49.4656  7342.02  85.1525
 49.5076  7415.88  85.3216
 49.5496  7317.81  84.8194
 49.5916  7400.11  85.2077
 49.6336  7325.99  84.9801
 49.6756  7441.65  85.8871
 49.7176  7355.69  85.3347
 49.7596  7384.26  85.2647
 49.8016  7460.92  85.6131
 49.8436  7344.17  85.2524
 49.8856  7381.09  85.4691
 49.9276  7303.35  85.1242
 49.9696  7402.37  85.6841
 50.0116  7280.26  85.1191
 50.0536  7349.81  85.4578
 50.0956  7320.63  85.3604
 50.1376  7392.93  85.4634
 50.1796  7284.21  85.1172
 50.2216  7316.17  85.2992
 50.2636  7310.58  84.8757
 50.3056  7261.87  84.771
 50.3476  7384.37  85.5054
 50.3896  7297.51  84.9739
 50.4316  7352.67  85.1206
 50.4736  7293.71  85.0039
 50.5156  7343.36  85.2818
 50.5576  7477.12  85.8097
 50.5996  7275.17  84.9289
 50.6416  7138.63  84.0446
 50.6836  7294.72  85.0299
 50.7256  7406.64  85.6052
 50.7676  7389.54  85.8382
 50.8096  7271.46  84.661
 50.8516  7269.86  85.0887
 50.8936  7203.46  84.4731
 50.9356  7354.67  85.4541
 50.9776  7232.59  84.9093
 51.0196  7194.45  84.8143
 51.0616  7077.08  83.4242
 51.1036  7198.38  84.5125
 51.1456  7238.51  84.661
 51.1876  7211.6  83.8233
 51.2296  7191.11  84.3329
 51.2716  7021.79  83.058
 51.3136  7069.51  83.8086
 51.3556  7068.29  83.4124
 51.3976  6975.89  83.0182
 51.4396  7000.2  83.4823
 51.4816  7072.5  83.7636
 51.5236  7065.2  83.8082
 51.5656  6947.13  82.6979
 51.6076  7128.15  83.8478
 51.6496  7017.84  83.3937
 51.6916  7056.83  83.9944
 51.7336  7002.22  83.754
 51.7756  7120.39  84.1442
 51.8176  7003.31  83.5686
 51.8596  7010.67  83.6266
 51.9016  7136.28  83.9692
 51.9436  7085.99  85.2009
 51.9856  7055.72  85.4246
 52.0276  7120.05  84.2725
 52.0696  7180.58  84.7086
 52.1116  7040.66  83.9915
 52.1536  7177.55  84.6883
 52.1956  7103.9  83.7054
 52.2376  7222.69  84.5775
 52.2796  7152.98  83.9887
 52.3216  6873.66  83.0195
 52.3636  7028.6  83.4957
 52.4056  7039.89  83.446
 52.4476  7152  84.4775
 52.4896  7104.89  84.2336
 52.5316  7104.72  84.3093
 52.5736  6922.88  82.9277
 52.6156  7148.48  84.6806
 52.6576  6956.87  82.9612
 52.6996  6891.76  83.5672
 52.7416  7049.41  84.3673
 52.7836  6970.36  83.7861
 52.8256  7098.48  83.7459
 52.8676  6890.82  83.0946
 52.9096  6986.69  83.738
 52.9516  7004.29  84.2484
 52.9936  7006.79  84.6518
 53.0356  6986.19  83.5074
 53.0776  7049.78  84.1584
 53.1196  7133.77  84.7938
 53.1616  7033.95  84.2455
 53.2036  6983.79  83.9056
 53.2456  7139.59  84.9451
 53.2876  7056.85  84.1301
 53.3296  6959.56  83.8871
 53.3716  7094.12  84.434
 53.4136  7105.36  84.6562
 53.4556  6999.74  84.049
 53.4976  6948.44  83.5834
 53.5396  6963.18  84.068
 53.5816  6993.28  83.8889
 53.6236  6902.72  83.697
 53.6656  7052.37  84.1732
 53.7076  7085.05  84.3498
 53.7496  7082.92  84.4728
 53.7916  6879.79  83.3899
 53.8336  7012.24  84.0622
 53.8756  6850.68  83.6703
 53.9176  6935.22  83.4991
 53.9596  6708.66  82.8855
 54.0016  6697.66  82.1427
 54.0436  6608.63  81.8133
 54.0856  6683.04  81.6967
 54.1276  6750.61  82.3109
 54.1696  6685.11  82.0867
 54.2116  6837.3  82.7537
 54.2536  6684.72  81.6264
 54.2956  6764.53  82.1587
 54.3376  6677.18  82.1173
 54.3796  6704.08  82.1779
 54.4216  6718.9  82.3362
 54.4636  6667.34  81.9947
 54.5056  6704.98  82.0178
 54.5476  6661.87  82.11
 54.5896  6693.62  82.1353
 54.6316  6735.58  82.2188
 54.6736  6785.31  82.624
 54.7156  6697.06  82.0958
 54.7576  6621.35  81.6138
 54.7996  6693.13  82.2034
 54.8416  6668.82  82.1163
 54.8836  6629.05  81.9647
 54.9256  6648  81.8619
 54.9676  6489.8  80.7298
 55.0096  6572.4  81.2791
 55.0516  6472.06  80.8828
 55.0936  6598.12  81.3311
 55.1356  6637.03  81.6169
 55.1776  6724.78  82.3936
 55.2196  6623.65  81.5631
 55.2616  6691.78  82.206
 55.3036  6563.68  81.5909
 55.3456  6426.03  80.8817
 55.3876  6532.87  81.2466
 55.4296  6450.26  80.7457
 55.4716  6586.12  81.6167
 55.5136  6572.47  81.2964
 55.5556  6723.19  82.2925
 55.5976  6539.07  81.229
 55.6396  6670.18  81.9831
 55.6816  6540.07  81.0243
 55.7236  6420.26  80.3439
 55.7656  6522.01  80.7004
 55.8076  6501.83  80.582
 55.8496  6480.92  80.7825
 55.8916  6458.17  80.8436
 55.9336  6545.33  81.211
 55.9756  6430.49  80.365
 56.0176  6385.92  80.2439
 56.0596  6449.66  80.6342
 56.1016  6407.05  80.3796
 56.1436  6470.54  81.0383
 56.1856  6405.35  80.3829
 56.2276  6592.31  81.5936
 56.2696  6414.79  80.465
 56.3116  6521.62  81.5115
 56.3536  6395.48  80.3864
 56.3956  6431.48  80.5892
 56.4376  6396.81  80.4254
 56.4796  6305.89  79.6741
 56.5216  6399.22  80.6372
 56.5636  6319.1  79.6952
 56.6056  6493.16  81.0157
 56.6476  6563.36  81.0653
 56.6896  6626.31  81.9299
 56.7316  6364.03  80.1969
 56.7736  6484.51  80.9594
 56.8156  6313.28  79.9012
 56.8576  6275.04  79.6095
 56.8996  6318.06  79.7622
 56.9416  6299.27  79.969
 56.9836  6441.07  80.3969
 57.0256  6312.81  79.9028
 57.0676  6482.87  81.0836
 57.1096  6425.19  80.5085
 57.1516  6304.92  79.798
 57.1936  6325.95  79.6921
 57.2356  6178.01  79.077
 57.2776  6319.65  79.946
 57.3196  6349.04  80.4885
 57.3616  6340.64  79.9291
 57.4036  6339.03  79.975
 57.4456  6459.03  80.7001
 57.4876  6432  80.4036
 57.5296  6270.81  79.7184
 57.5716  6220.58  79.4021
 57.6136  6211.28  79.1754
 57.6556  6305.79  79.8996
 57.6976  6404.23  80.3562
 57.7396  6209.73  79.4759
 57.7816  6168.19  79.5769
 57.8236  6186.66  79.4958
 57.8656  6306.81  79.9166
 57.9076  6240.32  79.5113
 57.9496  6290.22  80.1893
 57.9916  6270.08  79.5623
 58.0336  6305.27  80.0838
 58.0756  6264.92  79.4519
 58.1176  6300.31  79.6647
 58.1596  6188.68  79.5508
 58.2016  6053.92  77.899
 58.2436  6035.51  78.183
 58.2856  6044.17  78.1669
 58.3276  6051.23  78.5775
 58.3696  6109.04  78.7122
 58.4116  6026.52  78.0423
 58.4536  6163.41  78.8078
 58.4956  5946.55  77.5887
 58.5376  6078.88  78.0173
 58.5796  6016.77  78.0356
 58.6216  6175.83  78.8834
 58.6636  5983.17  77.8497
 58.7056  6013.75  77.9074
 58.7476  6094.32  78.867
 58.7896  5989.33  77.8369
 58.8316  5944.69  77.5423
 58.8736  6006.92  77.9558
 58.9156  5915.4  77.4015
 58.9576  6000.58  78.2784
 58.9996  6044.49  77.8175
 59.0416  6087.86  78.4565
 59.0836  5996.13  77.7671
 59.1256  6002.7  78.5245
 59.1676  6021.47  78.9601
 59.2096  6026.4  78.291
 59.2516  5967.19  77.4891
 59.2936  6011.84  78.1057
 59.3356  5768.84  76.3915
 59.3776  5985.98  77.9841
 59.4196  5834.18  76.9259
 59.4616  5940.15  77.4826
 59.5036  5922.39  77.402
 59.5456  6012.48  77.6823
 59.5876  5819.58  76.6136
 59.6296  5869.61  77.0104
 59.6716  5801.65  76.6201
 59.7136  5916.02  77.36
 59.7556  5861.95  77.1401
 59.7976  6025.61  77.952
 59.8396  6016.13  77.7852
 59.8816  5979.32  78.0897
 59.9236  5922.77  77.3665
 59.9656  5940.01  77.7329
 60.0076  5972.12  77.3083
 60.0496  6044.49  78.2788
 60.0916  6039.16  77.663
 60.1336  5891.02  77.798
 60.1756  5968.02  79.4819
 60.1996  0.0000000E+00  0.0000000E+00