File: docs/examples/opeando_xrd/IS17_D/Data/IS17_D/17_Da_f00101.xye
# /beamlines/bl04/projects/cycle2025-II/20250340211-lsimonelli/DATA/IS17_D/17_Da_f00101.xye : mythproc.py merge -s 0.006 -l 0.5 -f /beamlines/bl04/inhouse/ff/FlatField/ff_20Nov2024rod8mm60s_17keV.raw -b True -c true -o xye /beamlines/bl04/projects/cycle2025-II/20250340211-lsimonelli/DATA/IS17_D/17_Da_00101.dat
# IsMon = [6781439, 6781588, 6781818]  IsPos = [-1.4999, -2.4883, -3.4988]
# Wave = 0.4962  CalPath /beamlines/bl04/projects/cycle2025-II/20250340211-lsimonelli/DATA/Align/Si_Pos1_25keV_f00001.cal
# Date = 2025-09-24_21:42:14 Dt = 4.8000  Bin = 0.0060  <imon> = 6781615 +/- 156 (Min/Max) 6781439 / 6781818
# icurr 251.9868  mocoIn 1.7198E-05  mocoOut 0.8073  i15 7.10116e+06  imon 6.78162e+06  i7 6.6667  iEMpd_timer 4.8000  iEMpd_1 3.4630E-08  iEMpd_2 7.8094E-08  iEMpd_3 1.7526E-08  iEMpd_4 4.9013E-08  iEMhp_timer 4.8000  iEMhp_1 4.9240E-06  iEMhp_2 -2.4218E-08  iEMhp_3 -2.3320E-08  iEMhp_4 -2.1541E-08
#      9776
 1.5856  40782.4  207.37
 1.6276  47911.6  220.908
 1.6696  54813.9  235.452
 1.7116  63811.4  254.54
 1.7536  73299  271.645
 1.7956  77684.7  280.352
 1.8376  73399.1  272.941
 1.8796  62169.6  249.347
 1.9216  50095.6  224.721
 1.9636  42258.9  205.552
 2.0056  38121.8  194.474
 2.0476  35504.4  189.736
 2.0896  34151.1  184.994
 2.1316  32905  180.714
 2.1736  31434.9  178.033
 2.2156  31846.8  177.757
 2.2576  30981.4  175.954
 2.2996  29718.9  172.964
 2.3416  30302.6  173.262
 2.3836  29872.5  172.132
 2.4256  28685  169.226
 2.4676  28382.8  168.094
 2.5096  28380.3  168.141
 2.5516  27457.8  169.22
 2.5936  27574.3  166.151
 2.6356  27025.7  165.184
 2.6776  27062  164.177
 2.7196  26582.6  162.846
 2.7616  26645.5  163.202
 2.8036  26242.4  162.136
 2.8456  26254.9  162.795
 2.8876  25761.3  161.134
 2.9296  25217.4  159.552
 2.9716  24910.6  158.068
 3.0136  24838.6  157.906
 3.0556  24936  158.618
 3.0976  24722  156.863
 3.1396  24468.1  156.771
 3.1816  24389.4  156.161
 3.2236  24165.5  155.736
 3.2656  24167.6  154.771
 3.3076  23831.8  155.152
 3.3496  24101  154.959
 3.3916  24346.5  155.569
 3.4336  24948  158.062
 3.4756  25181.3  158.726
 3.5176  26207.5  161.715
 3.5596  25862.9  163.11
 3.6016  26074.1  161.364
 3.6436  25206.4  159.76
 3.6856  24548.7  155.958
 3.7276  23850.6  154.824
 3.7696  23575.7  154.118
 3.8116  23172.5  152.681
 3.8536  23295  153.018
 3.8956  23316.7  152.917
 3.9376  22997.8  152.116
 3.9796  22837.3  151.098
 4.0216  23068.1  150.894
 4.0636  23045.5  152.295
 4.1056  23100.4  152.118
 4.1476  23205.4  152.78
 4.1896  23426  153.366
 4.2316  23572.8  153.671
 4.2736  24310.6  155.839
 4.3156  24214.5  155.763
 4.3576  25168.6  158.732
 4.3996  25327.5  159.487
 4.4416  25727.2  160.324
 4.4836  26284.4  162.2
 4.5256  26688  164.059
 4.5676  26413  163.467
 4.6096  27178.4  164.466
 4.6516  27778.5  165.983
 4.6936  27777.6  166.789
 4.7356  27925.9  167.067
 4.7776  28081  167.362
 4.8196  27606.3  166.593
 4.8616  27157.3  164.714
 4.9036  26949.4  163.823
 4.9456  26822.3  164.092
 4.9876  26327.1  162.468
 5.0296  26478  162.75
 5.0716  26427.4  163.376
 5.1136  26702.3  163.929
 5.1556  26918.1  164.053
 5.1976  27126.1  164.677
 5.2396  27423.1  165.276
 5.2816  27360.9  165.55
 5.3236  27494.4  165.653
 5.3656  26959.1  164.957
 5.4076  26681.8  164.264
 5.4496  26802.4  164.119
 5.4916  26972.6  164.393
 5.5336  26880.8  164.121
 5.5756  26513.7  163.023
 5.6176  27186.7  164.51
 5.6596  27008.2  164.942
 5.7016  27269.4  165.004
 5.7436  27473.6  165.892
 5.7856  27205.1  165.138
 5.8276  27673.6  166.28
 5.8696  27757.1  166.702
 5.9116  27810.7  167.168
 5.9536  28006.6  167.807
 5.9956  28182.7  167.696
 6.0376  28255.7  168.554
 6.0796  28339.6  168.636
 6.1216  28482.6  169.312
 6.1636  28643.5  168.801
 6.2056  28623.2  169.409
 6.2476  28730.6  169.6
 6.2896  29216.9  170.709
 6.3316  28955.1  170.115
 6.3736  29299.6  171.017
 6.4156  29099.7  170.33
 6.4576  29497.2  171.094
 6.4996  29468.4  171.488
 6.5416  29612.7  172.044
 6.5836  29562  172.13
 6.6256  29826.3  172.46
 6.6676  30391.1  173.65
 6.7096  30080  173.613
 6.7516  30524.5  174.546
 6.7936  30628.7  174.27
 6.8356  30725.9  174.623
 6.8776  31162.1  176.666
 6.9196  31144.6  177.018
 6.9616  31528.1  177.547
 7.0036  31914.8  178.281
 7.0456  31834.4  177.349
 7.0876  31846.8  179.079
 7.1296  32037.2  178.748
 7.1716  31728.1  177.417
 7.2136  31499.5  176.56
 7.2556  32000.3  178.121
 7.2976  31775  177.992
 7.3396  31805.2  178.289
 7.3816  31842.6  178.61
 7.4236  31930.6  178.146
 7.4656  32269.6  178.576
 7.5076  32313.5  178.828
 7.5496  32042.9  178.617
 7.5916  32409.4  179.666
 7.6336  32696.8  180.355
 7.6756  33006.6  181.059
 7.7176  33117.3  181.665
 7.7596  33063.3  182.777
 7.8016  33245.6  185.453
 7.8436  33650.2  183.257
 7.8856  34054.5  183.966
 7.9276  34921.7  186.693
 7.9696  35136.1  187.576
 8.0116  36066.2  188.569
 8.0536  35984.7  188.616
 8.0956  35716.6  189.089
 8.1376  36166.1  189.746
 8.1796  36713.8  191.717
 8.2216  37395.4  192.225
 8.2636  37157.3  191.888
 8.3056  37260.3  192.897
 8.3476  37992.8  194.107
 8.3896  37809.8  193.722
 8.4316  38010.1  194.4
 8.4736  38086.3  194.059
 8.5156  37918.1  193.91
 8.5576  37140.4  193.507
 8.5996  37199.8  191.903
 8.6416  37268.5  193.347
 8.6836  37187.5  192.971
 8.7256  37734.2  193.83
 8.7676  36859.3  194.466
 8.8096  36853.4  191.748
 8.8516  36603.7  190.716
 8.8936  36089.1  189.269
 8.9356  35958  189.254
 8.9776  36268.5  190.176
 9.0196  36200.8  189.669
 9.0616  36000.7  188.611
 9.1036  36153.5  190.212
 9.1456  36029.5  189.24
 9.1876  35745.8  188.441
 9.2296  36001.8  188.521
 9.2716  35363.5  186.905
 9.3136  35328.3  186.794
 9.3556  35348.2  186.822
 9.3976  34222.1  184.356
 9.4396  34428.5  184.804
 9.4816  33966.7  183.415
 9.5236  34021.6  183.482
 9.5656  33946.9  183.602
 9.6076  33786  183.704
 9.6496  33503.3  182.851
 9.6916  33369.5  182.455
 9.7336  33417.8  182.369
 9.7756  33771.9  184.591
 9.8176  32928.7  181.77
 9.8596  32674.5  179.526
 9.9016  32263.1  178.385
 9.9436  32146.1  177.972
 9.9856  31844.4  177.358
 10.0276  31665.2  177.935
 10.0696  31562.5  176.721
 10.1116  30776.1  174.763
 10.1536  30837.5  175.107
 10.1956  30220.1  172.948
 10.2376  29809.7  171.276
 10.2796  29839.7  171.49
 10.3216  29710.9  171.391
 10.3636  29471.2  170.726
 10.4056  29331.6  170.719
 10.4476  29225.3  170.033
 10.4896  29336.5  169.954
 10.5316  28578.7  168.306
 10.5736  28640.5  168.885
 10.6156  27939.7  166.585
 10.6576  28375.1  166.452
 10.6996  28000.9  166.014
 10.7416  27558  164.923
 10.7836  27732.6  166.138
 10.8256  27267.9  165.167
 10.8676  27577  165.636
 10.9096  27015.8  163.984
 10.9516  26828.5  162.349
 10.9936  26936.4  162.874
 11.0356  26850.6  163.248
 11.0776  26638.6  161.923
 11.1196  26258.8  161.491
 11.1616  26133.9  160.805
 11.2036  26161.3  160.749
 11.2456  26052.2  161.114
 11.2876  25923.8  160.443
 11.3296  25565.8  159.235
 11.3716  25974.2  160.198
 11.4136  25910.6  160.892
 11.4556  26054.9  161.01
 11.4976  26174.3  160.35
 11.5396  26573.4  161.743
 11.5816  27028.5  163.582
 11.6236  27208.4  164.347
 11.6656  26551.9  161.505
 11.7076  26077.6  160.901
 11.7496  25547.1  163.197
 11.7916  25298.8  157.745
 11.8336  25194.1  158.302
 11.8756  24691.9  156.256
 11.9176  24950.7  156.722
 11.9596  24448.6  155.328
 12.0016  24552.1  156.168
 12.0436  24431.4  155.491
 12.0856  24273.4  155.511
 12.1276  24265.7  155.405
 12.1696  24307.4  154.676
 12.2116  24393.5  154.943
 12.2536  23892.5  154.168
 12.2956  24103.5  154.186
 12.3376  23727.4  153.177
 12.3796  24067  154.74
 12.4216  24106.1  154.079
 12.4636  23701.4  153.692
 12.5056  24109.8  154.271
 12.5476  24243.4  154.235
 12.5896  23965.7  153.976
 12.6316  23621.8  153.025
 12.6736  23677.4  153.869
 12.7156  23579.1  153.229
 12.7576  23964.3  154.72
 12.7996  24018.9  153.545
 12.8416  23735.2  153.683
 12.8836  24126  154.68
 12.9256  24413.3  154.7
 12.9676  24453.3  155.255
 13.0096  24135.9  155.329
 13.0516  24327.1  154.985
 13.0936  24195.3  154.96
 13.1356  24884  156.137
 13.1776  24685  156.507
 13.2196  24747.2  156.359
 13.2616  24666.8  156.414
 13.3036  24629.9  156.266
 13.3456  24558.9  156.399
 13.3876  24448  155.339
 13.4296  24461.7  155.532
 13.4716  24750  156.053
 13.5136  24741.2  156.179
 13.5556  24880.3  157.234
 13.5976  24742.4  156.938
 13.6396  24708.8  156.208
 13.6816  24486.1  155.99
 13.7236  25203.5  157.911
 13.7656  24302.6  155.586
 13.8076  24631.1  155.42
 13.8496  24346.3  155.115
 13.8916  24202.3  155.66
 13.9336  24267.7  155.097
 13.9756  24039.6  153.714
 14.0176  23994.6  154.249
 14.0596  24118.6  154.614
 14.1016  23711.4  153.699
 14.1436  23634.3  152.578
 14.1856  23258.8  151.66
 14.2276  23006.1  151.315
 14.2696  23465.5  152.658
 14.3116  23090.7  151.337
 14.3536  22856.2  150.744
 14.3956  22761.7  150.162
 14.4376  22739.7  149.862
 14.4796  22676.6  149.649
 14.5216  22434.4  149.648
 14.5636  22163.8  148.297
 14.6056  22314  148.386
 14.6476  22332  147.672
 14.6896  21966.8  147
 14.7316  21663.1  147.006
 14.7736  21650.7  146.12
 14.8156  21322  145.039
 14.8576  21146.4  144.291
 14.8996  20703.6  143.976
 14.9416  20399.4  142.917
 14.9836  20649.5  143.749
 15.0256  20617.6  142.556
 15.0676  20465.7  142.479
 15.1096  20300.3  141.507
 15.1516  20018.8  141.084
 15.1936  19966  140.319
 15.2356  19636.8  139.315
 15.2776  19521.6  138.616
 15.3196  19020  137.821
 15.3616  19095.2  137.848
 15.4036  19059.9  137.58
 15.4456  19356.4  138.293
 15.4876  18942.9  136.488
 15.5296  18733.3  136.014
 15.5716  18450.5  134.587
 15.6136  18445.7  134.901
 15.6556  18480.6  134.262
 15.6976  18416.8  134.325
 15.7396  18432.7  134.778
 15.7816  18191.5  133.396
 15.8236  17855  132.856
 15.8656  18015.8  133.247
 15.9076  17906.9  132.667
 15.9496  17542.4  134.09
 15.9916  17591.1  134.723
 16.0336  17212.5  130.167
 16.0756  17381.2  131.112
 16.1176  17344.7  131.041
 16.1596  16936.5  130.67
 16.2016  17075.4  129.953
 16.2436  16871.8  129.55
 16.2856  16764.9  128.693
 16.3276  16555.2  128.301
 16.3696  16690.9  128.644
 16.4116  16499.2  128.361
 16.4536  16747.8  129.102
 16.4956  16562.6  128.126
 16.5376  16378.4  127.601
 16.5796  16445.1  127.224
 16.6216  16548.8  127.924
 16.6636  16238.3  126.881
 16.7056  16188  126.547
 16.7476  16365.1  126.771
 16.7896  16306.3  127.291
 16.8316  16247.4  127.025
 16.8736  16294.6  127.464
 16.9156  16248.1  127.619
 16.9576  16103  127.845
 16.9996  16262.2  128.968
 17.0416  16426.7  127.958
 17.0836  16299.4  127.22
 17.1256  16041  126.222
 17.1676  16071.6  126.333
 17.2096  15736.1  124.885
 17.2516  15946.7  125.499
 17.2936  15795.9  125.231
 17.3356  15552.1  124.266
 17.3776  15738.9  125.194
 17.4196  15696.7  124.726
 17.4616  15541.4  124.024
 17.5036  15199.9  123.017
 17.5456  15125.6  123.355
 17.5876  15062.6  122.149
 17.6296  15109.1  122.158
 17.6716  14980.7  122.207
 17.7136  14832.8  121.743
 17.7556  15081  123.041
 17.7976  14801.5  121.649
 17.8396  14832.5  121.273
 17.8816  14776.2  121.58
 17.9236  14694.5  121.062
 17.9656  14768.8  121.907
 18.0076  14692.6  121.168
 18.0496  14506.9  119.545
 18.0916  14573.9  120.358
 18.1336  14560.2  120.395
 18.1756  14657.1  120.325
 18.2176  14487.6  119.853
 18.2596  14444.2  119.413
 18.3016  14597.1  120.298
 18.3436  14608.5  120.351
 18.3856  14252.6  119.005
 18.4276  14513.8  119.759
 18.4696  14244.6  118.75
 18.5116  14462.7  119.938
 18.5536  14556.3  120.686
 18.5956  14219.2  118.837
 18.6376  14231  119.288
 18.6796  14071.8  117.948
 18.7216  14337.4  119.543
 18.7636  14082.9  118.465
 18.8056  14085.3  118.419
 18.8476  14021.5  118.774
 18.8896  14078.5  118.353
 18.9316  14227.7  118.964
 18.9736  13962.2  117.542
 19.0156  14001.4  118.111
 19.0576  13868  116.427
 19.0996  14135.9  118.395
 19.1416  13755.1  117.04
 19.1836  14073.6  117.99
 19.2256  13861.2  117.31
 19.2676  14052.8  118.205
 19.3096  14016.3  118.301
 19.3516  13883.1  117.696
 19.3936  13911  117.713
 19.4356  13995.3  117.937
 19.4776  13901.1  117.635
 19.5196  14054.1  118.137
 19.5616  13856.9  117.547
 19.6036  13892.9  117.209
 19.6456  13960.4  117.616
 19.6876  14007.1  117.46
 19.7296  13902.7  117.469
 19.7716  13778.3  117.107
 19.8136  13787  117.351
 19.8556  14054.8  117.965
 19.8976  13980.5  117.72
 19.9396  14147.9  117.994
 19.9816  14255.9  118.754
 20.0236  14490.4  119.882
 20.0656  14645.9  120.518
 20.1076  14731.5  121.339
 20.1496  14867.8  121.91
 20.1916  14762.6  120.979
 20.2336  14457  119.648
 20.2756  14168.9  118.888
 20.3176  13960.1  117.75
 20.3596  13873.3  117.364
 20.4016  13791.3  116.818
 20.4436  13785.4  117.356
 20.4856  13483.5  115.858
 20.5276  13636  116.969
 20.5696  13439.3  115.582
 20.6116  13263  115.098
 20.6536  13356.5  115.016
 20.6956  13355.2  115.128
 20.7376  13286.1  115.063
 20.7796  13179.9  114.291
 20.8216  13453.6  115.175
 20.8636  13176.2  114.354
 20.9056  13210.1  114.444
 20.9476  12931.5  113.072
 20.9896  13165.8  113.963
 21.0316  13278.9  114.347
 21.0736  13120.5  114.183
 21.1156  13077.9  114.15
 21.1576  13239.2  114.905
 21.1996  12966.5  113.697
 21.2416  12953.1  113.47
 21.2836  13084  113.999
 21.3256  12888.9  113.233
 21.3676  12952.7  113.068
 21.4096  12946.2  113.346
 21.4516  12802.1  112.594
 21.4936  12728.5  112.522
 21.5356  13016.3  113.729
 21.5776  13060  113.754
 21.6196  12888.9  113.039
 21.6616  12900.8  113.179
 21.7036  12846.5  112.721
 21.7456  12899.2  113.028
 21.7876  12748.4  112.115
 21.8296  12756.8  112.012
 21.8716  12746.3  112.199
 21.9136  12926.5  113.189
 21.9556  12755.4  112.109
 21.9976  12599  111.432
 22.0396  12747.7  112.339
 22.0816  12681.8  112.599
 22.1236  12922  113.107
 22.1656  12764.4  112.532
 22.2076  12701.5  111.729
 22.2496  12736.3  111.919
 22.2916  12787.2  112.021
 22.3336  12622.3  112.024
 22.3756  12695.1  112.067
 22.4176  12612.5  111.553
 22.4596  12468.4  111.504
 22.5016  12514.7  111.212
 22.5436  12774.9  112.237
 22.5856  12674.9  112.046
 22.6276  12556.9  111.694
 22.6696  12671.1  112.516
 22.7116  12644.1  111.91
 22.7536  12753.4  112.366
 22.7956  12755.4  111.703
 22.8376  12590.9  111.505
 22.8796  12576.6  111.241
 22.9216  12732.9  112.48
 22.9636  12651.7  111.27
 23.0056  12562.9  111.014
 23.0476  12670  112.059
 23.0896  12983.6  112.806
 23.1316  12710.4  112.051
 23.1736  12516.5  113.927
 23.2156  12735.4  112.488
 23.2576  12724.1  112.567
 23.2996  12768.4  112.552
 23.3416  12671.5  112.638
 23.3836  12719.8  112.082
 23.4256  12671.3  111.991
 23.4676  12733.6  111.959
 23.5096  12594.5  112.022
 23.5516  12492.2  110.85
 23.5936  12712.2  112.733
 23.6356  12713.3  112.404
 23.6776  12598  112.103
 23.7196  12373.6  110.68
 23.7616  12656.5  111.858
 23.8036  12524.6  111.315
 23.8456  12612.2  111.271
 23.8876  12352.2  110.465
 23.9296  12330  110.856
 23.9716  12366.2  110.217
 24.0136  12380.2  111.177
 24.0556  12150.2  109.871
 24.0976  12266.4  110.207
 24.1396  12127.1  112.22
 24.1816  12294.3  111.407
 24.2236  12052.5  109.915
 24.2656  11959.6  108.968
 24.3076  11948.7  109.163
 24.3496  11951.4  109.07
 24.3916  11974.6  109.224
 24.4336  11911.1  109.144
 24.4756  11997  109.408
 24.5176  11667.6  107.545
 24.5596  11648.6  107.584
 24.6016  11546.2  107.393
 24.6436  11669.7  107.46
 24.6856  11952.5  108.513
 24.7276  11568.1  107.065
 24.7696  11528.6  106.998
 24.8116  11640.5  107.698
 24.8536  11442.9  106.772
 24.8956  11353.2  106.095
 24.9376  11435.7  106.414
 24.9796  11260.5  105.952
 25.0216  11189.5  105.727
 25.0636  11328  106.032
 25.1056  11033.5  105.344
 25.1476  11376.7  108.637
 25.1896  11363.8  107.05
 25.2316  11317.4  106.099
 25.2736  11259.5  105.483
 25.3156  11224.9  105.398
 25.3576  11153.5  105.479
 25.3996  11083.9  105.137
 25.4416  11197.3  105.653
 25.4836  10989.1  105.19
 25.5256  11024.1  104.718
 25.5676  11200.5  105.287
 25.6096  10972.5  104.781
 25.6516  11137.9  105.067
 25.6936  11030.7  104.869
 25.7356  11041  105.056
 25.7776  10996.6  104.444
 25.8196  10840  103.94
 25.8616  10985.6  104.556
 25.9036  11016.6  104.172
 25.9456  10994.3  104.664
 25.9876  10935.7  104.448
 26.0296  11103.6  104.757
 26.0716  10882  104.122
 26.1136  10924.1  104.269
 26.1556  11096  104.46
 26.1976  10894.6  104.435
 26.2396  10921.7  103.721
 26.2816  10924.7  104.347
 26.3236  10900.8  104.392
 26.3656  10681.3  103.059
 26.4076  11033.3  104.93
 26.4496  11494.5  106.648
 26.4916  11063.2  104.598
 26.5336  10786.2  103.598
 26.5756  11152.2  105.202
 26.6176  10908.2  104.069
 26.6596  10733.3  103.567
 26.7016  10741.9  103.362
 26.7436  10662.1  103.097
 26.7856  10533.5  102.464
 26.8276  10726.6  103.358
 26.8696  10583.5  102.545
 26.9116  10575  102.442
 26.9536  10461.1  101.931
 26.9956  10532.8  102.315
 27.0376  10531  102.51
 27.0796  10554.2  102.37
 27.1216  10539.7  102.37
 27.1636  10460.1  102.15
 27.2056  10383  101.656
 27.2476  10411.9  101.795
 27.2896  10444.1  102.092
 27.3316  10341.4  101.277
 27.3736  10401.1  101.834
 27.4156  10298.3  101.171
 27.4576  10315.4  101.489
 27.4996  10235.1  100.688
 27.5416  10287.5  101.265
 27.5836  10270.2  100.989
 27.6256  10629.2  102.928
 27.6676  10576.1  102.678
 27.7096  10134.7  100.378
 27.7516  10260.8  101.15
 27.7936  10152.8  100.788
 27.8356  10264.7  100.955
 27.8776  10152.3  100.448
 27.9196  10022.3  99.6553
 27.9616  10259.7  101.027
 28.0036  10205.7  100.735
 28.0456  10162.7  100.648
 28.0876  9984.76  99.8546
 28.1296  10022.7  99.8209
 28.1716  10019.8  99.8802
 28.2136  10053.1  100.007
 28.2556  9887.34  99.2926
 28.2976  10000.8  99.8559
 28.3396  9923.34  99.226
 28.3816  9915.68  99.2127
 28.4236  9970.37  99.6332
 28.4656  9884.77  99.2469
 28.5076  9896.98  98.9409
 28.5496  10159.6  100.514
 28.5916  10046.6  99.7599
 28.6336  9776.89  98.747
 28.6756  9917.05  98.6592
 28.7176  9836.09  98.6913
 28.7596  9768.2  98.3585
 28.8016  9861.3  98.8611
 28.8436  9758.84  98.5864
 28.8856  9819.96  98.7929
 28.9276  9822.32  98.9984
 28.9696  9797.16  98.5357
 29.0116  9718.75  98.3241
 29.0536  9683.37  98.3456
 29.0956  9679.99  98.0467
 29.1376  9760.74  98.4153
 29.1796  9636.04  97.8289
 29.2216  9689.63  97.9398
 29.2636  9654.36  97.8388
 29.3056  9747.37  98.1034
 29.3476  9748.02  98.6283
 29.3896  9735.21  98.6591
 29.4316  9768.52  98.169
 29.4736  9657.05  97.6712
 29.5156  9739.42  97.9986
 29.5576  9713.81  98.6211
 29.5996  9687.63  97.7428
 29.6416  9673.73  97.7874
 29.6836  9658.56  97.6425
 29.7256  9684.81  98.1062
 29.7676  9641.27  97.7801
 29.8096  9600.22  97.5154
 29.8516  9390.43  96.7791
 29.8936  9686.05  98.3827
 29.9356  9626.64  97.8344
 29.9776  9413.47  96.8981
 30.0196  9398.1  96.4786
 30.0616  9552.22  97.3717
 30.1036  9474.53  96.8
 30.1456  9576.56  97.5531
 30.1876  9541.66  97.356
 30.2296  9433.27  96.7483
 30.2716  9613.76  97.3054
 30.3136  9657.38  98.3869
 30.3556  9587.36  98.0423
 30.3976  9402.87  98.6347
 30.4396  9464.77  96.2791
 30.4816  9517.52  96.1466
 30.5236  9324.01  95.1811
 30.5656  9445.14  96.4495
 30.6076  9503.14  96.1721
 30.6496  9430.46  96.1904
 30.6916  9321.63  95.7272
 30.7336  9572.88  97.16
 30.7756  9408.94  96.4094
 30.8176  9352.44  96.0426
 30.8596  9399.2  96.0527
 30.9016  9321.79  95.9957
 30.9436  9527.03  96.7982
 30.9856  9545.71  97.0019
 31.0276  9319.42  95.4549
 31.0696  9288.45  95.8712
 31.1116  9297.93  95.8954
 31.1536  9478.65  96.7068
 31.1956  9324.15  96.002
 31.2376  9194.15  95.3408
 31.2796  9281.82  95.3319
 31.3216  9259.75  95.1601
 31.3636  9329.65  96.2117
 31.4056  9250.77  97.1282
 31.4476  9253.87  95.0242
 31.4896  9240.68  95.4598
 31.5316  9335.58  95.3456
 31.5736  9318.08  95.0836
 31.6156  9189.06  94.4378
 31.6576  9295.79  95.0848
 31.6996  9242.6  94.4842
 31.7416  9167.49  95.1479
 31.7836  9250.16  94.5991
 31.8256  9117.99  94.1897
 31.8676  9219.3  94.7088
 31.9096  9069.44  94.2866
 31.9516  8986.03  94.004
 31.9936  9122.11  94.5469
 32.0356  9075.23  94.3722
 32.0776  9135.49  94.5687
 32.1196  9239.36  95.1879
 32.1616  9101.19  93.9423
 32.2036  9043.61  94.1482
 32.2456  9085.08  94.7484
 32.2876  9061.82  94.1209
 32.3296  8931.53  93.411
 32.3716  9000.75  93.873
 32.4136  9027.46  94.231
 32.4556  9215.63  94.5827
 32.4976  9132.17  94.0552
 32.5396  8943.99  93.1566
 32.5816  9001.43  93.5718
 32.6236  9000.01  93.6402
 32.6656  9075.39  94.5605
 32.7076  8972.78  93.6894
 32.7496  8881.87  92.8783
 32.7916  9024.45  93.5833
 32.8336  8946.63  93.2746
 32.8756  9069.27  93.6289
 32.9176  8851.48  92.9784
 32.9596  8918.93  93.4126
 33.0016  8991.11  93.5847
 33.0436  8987.42  93.7402
 33.0856  8803.92  92.8411
 33.1276  8827.58  92.7035
 33.1696  8971.95  93.3045
 33.2116  8926.03  93.284
 33.2536  8922.27  93.2673
 33.2956  8954.21  93.5176
 33.3376  8849.51  92.7095
 33.3796  9002.87  93.7225
 33.4216  8946.78  93.0199
 33.4636  8881.81  92.8308
 33.5056  8736.51  92.3081
 33.5476  8714.45  92.1824
 33.5896  8980.58  93.3477
 33.6316  8793.01  92.6921
 33.6736  8809.2  93.0143
 33.7156  8736.52  92.6764
 33.7576  8964.37  93.5007
 33.7996  8886.74  92.8616
 33.8416  8609.05  91.5874
 33.8836  8814.58  92.4362
 33.9256  8755.61  92.1981
 33.9676  8807.08  92.3648
 34.0096  8638.4  91.789
 34.0516  8650.46  91.4873
 34.0936  8702.14  92.033
 34.1356  8780.62  92.1847
 34.1776  8650.35  91.5076
 34.2196  8599.28  91.4195
 34.2616  8592.38  91.5148
 34.3036  8532.91  91.4456
 34.3456  8673.78  91.9521
 34.3876  8611.96  91.5879
 34.4296  8671.53  91.592
 34.4716  8722.83  92.011
 34.5136  8682.09  92.0043
 34.5556  8571.95  91.6689
 34.5976  8512.57  91.159
 34.6396  8624.6  91.5922
 34.6816  8507.15  90.9535
 34.7236  8518.41  90.8011
 34.7656  8597.29  91.4165
 34.8076  8546.62  91.4675
 34.8496  8471.43  90.995
 34.8916  8576.28  91.3533
 34.9336  8567.75  91.2725
 34.9756  8627.74  91.5083
 35.0176  8537.6  91.5657
 35.0596  8493.49  91.1513
 35.1016  8465.99  90.7703
 35.1436  8716.07  91.7856
 35.1856  8468.27  90.5957
 35.2276  8531.31  91.1143
 35.2696  8473.12  90.9894
 35.3116  8590.75  91.7125
 35.3536  8448.38  90.6585
 35.3956  8484.1  90.5595
 35.4376  8426.49  90.8109
 35.4796  8597.7  91.7817
 35.5216  8535.13  91.4016
 35.5636  8224.9  90.4671
 35.6056  8456.15  90.7496
 35.6476  8544.97  91.1243
 35.6896  8592.96  91.4666
 35.7316  8430.24  90.5685
 35.7736  8384.58  90.5203
 35.8156  8389.22  90.5387
 35.8576  8381.39  90.7596
 35.8996  8588.34  91.8288
 35.9416  8507.87  90.8977
 35.9836  8386.47  90.5996
 36.0256  8568.58  91.5993
 36.0676  8425.33  90.5898
 36.1096  8157.34  89.2719
 36.1516  8347.24  90.1924
 36.1936  8431.88  90.4961
 36.2356  8327.24  90.572
 36.2776  8388.84  90.3905
 36.3196  8419.47  90.2171
 36.3616  8380.69  90.1426
 36.4036  8291.41  89.7196
 36.4456  8436.51  90.7105
 36.4876  8165.15  89.1741
 36.5296  8280.01  89.8467
 36.5716  8256.59  90.5018
 36.6136  8454.23  90.3373
 36.6556  8367  90.0797
 36.6976  8344.03  90.4527
 36.7396  8142.03  89.2562
 36.7816  8234.74  89.9652
 36.8236  8275.84  90.1011
 36.8656  8301.53  90.3201
 36.9076  8277.01  90.0682
 36.9496  8196.42  89.6143
 36.9916  8126.13  88.8567
 37.0336  8325.49  90.2638
 37.0756  8247.65  89.6311
 37.1176  8101.58  89.1027
 37.1596  8248.89  89.9148
 37.2016  8292.97  90.3767
 37.2436  8289.68  89.6756
 37.2856  8153  89.1905
 37.3276  8200.56  88.802
 37.3696  8122.92  89.2616
 37.4116  8291.75  90.089
 37.4536  8089.74  88.7038
 37.4956  8156.53  89.2608
 37.5376  8121.74  90.6084
 37.5796  8045.42  90.1598
 37.6216  7902.76  87.6386
 37.6636  7994.75  88.0476
 37.7056  8042.56  88.5005
 37.7476  8044.44  88.0461
 37.7896  8030.95  88.4772
 37.8316  7845.38  87.6179
 37.8736  8027.68  88.1561
 37.9156  8001.93  88.016
 37.9576  8028.52  88.0482
 37.9996  7903.41  87.0857
 38.0416  7981.51  88.3227
 38.0836  8151.77  89.1636
 38.1256  7995.65  88.2508
 38.1676  7967.3  88.2437
 38.2096  7975.04  87.9086
 38.2516  8143.81  89.0404
 38.2936  8022.17  88.1733
 38.3356  8097.02  88.4912
 38.3776  7828.17  87.286
 38.4196  8023.91  88.2291
 38.4616  7890.71  87.7266
 38.5036  7956.03  87.9334
 38.5456  7957.23  88.7761
 38.5876  8004.69  89.2407
 38.6296  7772.78  86.7591
 38.6716  7933.42  87.4411
 38.7136  7691.95  86.0444
 38.7556  7958.01  88.0231
 38.7976  7946.04  87.8988
 38.8396  7920.5  88.0133
 38.8816  7805.93  87.3443
 38.9236  7771.56  86.9711
 38.9656  7911.23  87.6625
 39.0076  7976.28  87.4283
 39.0496  7879.23  87.4299
 39.0916  7976.1  87.601
 39.1336  7852.8  87.3468
 39.1756  7816.2  87.2108
 39.2176  7869.73  88.0367
 39.2596  7829.63  87.7194
 39.3016  7919.81  87.7352
 39.3436  7702.1  87.0106
 39.3856  8094.45  88.6466
 39.4276  8007.54  88.651
 39.4696  7860.92  87.4792
 39.5116  7827.33  87.8003
 39.5536  7934.94  88.8336
 39.5956  8028  88.4442
 39.6376  7965.32  88.1036
 39.6796  7826.16  87.0738
 39.7216  7943.41  87.8234
 39.7636  7939.99  88.3755
 39.8056  7878.78  87.8064
 39.8476  7943.64  88.4249
 39.8896  7889.57  87.743
 39.9316  7872.24  87.9072
 39.9736  8060.21  88.5985
 40.0156  7863.34  87.2571
 40.0576  8015.51  88.4599
 40.0996  7922.95  87.1352
 40.1416  7905.07  87.8323
 40.1836  8052.54  88.5256
 40.2256  7920.79  87.8481
 40.2676  7920.82  87.9538
 40.3096  8030.15  88.4853
 40.3516  8016.83  88.5174
 40.3936  7985.99  87.9071
 40.4356  7944.23  87.8704
 40.4776  8006.02  88.6265
 40.5196  8074.23  89.0531
 40.5616  8023.34  88.4894
 40.6036  7893.89  88.0279
 40.6456  7967.79  88.0501
 40.6876  8101.87  88.772
 40.7296  8046.96  88.4937
 40.7716  7946.42  88.1791
 40.8136  7975.81  88.2889
 40.8556  7965.17  88.3618
 40.8976  8004.95  88.5039
 40.9396  7919.49  88.3777
 40.9816  7959.07  87.8831
 41.0236  8044.47  88.1335
 41.0656  8081.61  88.8821
 41.1076  8049.82  88.4745
 41.1496  8010.84  88.169
 41.1916  7932.32  88.0618
 41.2336  7965.69  88.2253
 41.2756  8042.83  88.2644
 41.3176  7910.32  88.1458
 41.3596  7950.04  88.0942
 41.4016  7943.94  88.3231
 41.4436  7946.82  88.125
 41.4856  7915.13  88.111
 41.5276  7940.02  88.2714
 41.5696  8006.62  88.2692
 41.6116  7891.61  88.0243
 41.6536  7954.33  88.2318
 41.6956  7890.41  87.9304
 41.7376  7931.8  88.1925
 41.7796  7900.85  87.9059
 41.8216  8055.17  88.9935
 41.8636  7969.79  88.4611
 41.9056  7767.8  87.1132
 41.9476  7915.56  88.0776
 41.9896  7895.49  87.7312
 42.0316  7938.41  88.0599
 42.0736  7897.31  87.9402
 42.1156  7739.41  86.8971
 42.1576  7909.23  87.9203
 42.1996  7873.48  87.8876
 42.2416  7950.6  87.8914
 42.2836  7866.29  87.5427
 42.3256  7770.44  87.1228
 42.3676  7863.59  87.4471
 42.4096  7981.79  88.0673
 42.4516  7835.36  87.3413
 42.4936  7744.5  86.9016
 42.5356  7813.5  87.4196
 42.5776  7758.8  87.0545
 42.6196  7886.44  87.8236
 42.6616  7665.49  86.7495
 42.7036  7963.67  87.8005
 42.7456  7826.6  87.3959
 42.7876  7842.91  87.5954
 42.8296  7788.09  87.1168
 42.8716  7842.55  87.5821
 42.9136  7815.81  87.2206
 42.9556  7840.19  87.4909
 42.9976  7832.65  87.4082
 43.0396  7738.58  86.6174
 43.0816  7739.16  86.9953
 43.1236  7742.06  87.0718
 43.1656  7837.05  87.4341
 43.2076  7734.46  86.9607
 43.2496  7752.87  86.8709
 43.2916  7717.89  87.0508
 43.3336  7738.83  87.0041
 43.3756  7759.46  86.8746
 43.4176  7660.01  86.399
 43.4596  7693.99  86.4433
 43.5016  7703.05  86.9034
 43.5436  7690.6  86.7284
 43.5856  7586.67  86.1645
 43.6276  7577.98  86.0166
 43.6696  7619.56  86.5103
 43.7116  7661.7  86.2473
 43.7536  7749.38  87.2256
 43.7956  7588.94  87.4962
 43.8376  7645.03  86.3755
 43.8796  7589.2  86.1392
 43.9216  7720.12  86.7867
 43.9636  7575.24  86.0866
 44.0056  7624.77  86.6001
 44.0476  7571.43  85.9272
 44.0896  7551.55  86.1543
 44.1316  7654.33  86.2624
 44.1736  7517  85.607
 44.2156  7610.62  86.0004
 44.2576  7560.68  86.0291
 44.2996  7613.04  86.3056
 44.3416  7635.35  86.1894
 44.3836  7472.77  85.5942
 44.4256  7443.91  85.0737
 44.4676  7347.48  84.6772
 44.5096  7624.52  86.4044
 44.5516  7420.12  85.1954
 44.5936  7506.37  85.649
 44.6356  7477.09  85.2192
 44.6776  7475.25  85.4473
 44.7196  7530.55  86.1518
 44.7616  7500.47  87.3023
 44.8036  7352.99  84.88
 44.8456  7348.51  85.0497
 44.8876  7455.99  85.5261
 44.9296  7618.38  85.9062
 44.9716  7510.09  85.7214
 45.0136  7505.11  85.6275
 45.0556  7477.57  85.4403
 45.0976  7427.47  85.3169
 45.1396  7398.64  84.9214
 45.1816  7386.65  84.7822
 45.2236  7626.1  86.0405
 45.2656  7422.31  85.378
 45.3076  7302.69  84.488
 45.3496  7387.35  85.276
 45.3916  7378.91  85.4886
 45.4336  7377.93  85.3216
 45.4756  7324.01  84.8773
 45.5176  7434.14  85.1229
 45.5596  7433.1  85.2416
 45.6016  7219.62  84.4217
 45.6436  7304.14  84.1045
 45.6856  7349.78  85.0158
 45.7276  7225.55  85.5948
 45.7696  7340.57  85.9446
 45.8116  7293.25  85.1165
 45.8536  7249.57  84.7507
 45.8956  7379.06  84.8606
 45.9376  7455.65  84.7611
 45.9796  7296.18  84.5283
 46.0216  7367.41  85.283
 46.0636  7401.77  84.6328
 46.1056  7333.11  84.2212
 46.1476  7304.28  84.6441
 46.1896  7162.65  83.9678
 46.2316  7268.6  84.4443
 46.2736  7109.62  83.8881
 46.3156  7227.16  84.1697
 46.3576  7261.03  84.5665
 46.3996  7365.61  85.3321
 46.4416  7248.37  84.2329
 46.4836  7257.53  84.6357
 46.5256  7210.04  84.3069
 46.5676  7154.13  84.0856
 46.6096  7329.65  85.0417
 46.6516  7297.06  83.9056
 46.6936  7218.11  83.9375
 46.7356  7328.34  84.6717
 46.7776  7182.8  84.6693
 46.8196  7147.77  84.0586
 46.8616  7107.63  83.7759
 46.9036  7012.64  82.8778
 46.9456  7140.56  83.2757
 46.9876  7095.11  83.0918
 47.0296  7100.09  83.796
 47.0716  7051.5  83.3371
 47.1136  7134.59  83.506
 47.1556  7168.02  83.5712
 47.1976  7212.79  83.9097
 47.2396  6963.77  82.8371
 47.2816  7132.3  83.5394
 47.3236  7092.82  83.6728
 47.3656  7069  83.4624
 47.4076  7020.31  82.9791
 47.4496  7077  83.4061
 47.4916  7031.86  83.3311
 47.5336  7094.69  83.5181
 47.5756  7210.12  84.3043
 47.6176  7033.18  83.1706
 47.6596  7020.5  82.8162
 47.7016  7233.05  83.8641
 47.7436  7067.23  83.238
 47.7856  7100.63  83.4622
 47.8276  7074.82  83.3578
 47.8696  6968  82.8155
 47.9116  7073.16  83.1538
 47.9536  7069.02  83.0731
 47.9956  6897.43  82.7521
 48.0376  6915.68  82.6396
 48.0796  7008.49  83.3166
 48.1216  7153.35  83.9944
 48.1636  7137.4  83.4776
 48.2056  7106.6  83.5597
 48.2476  7058.43  83.5837
 48.2896  7042.06  83.3919
 48.3316  7000.41  83.0916
 48.3736  6906.62  82.5509
 48.4156  6963.27  82.7478
 48.4576  6950.38  82.961
 48.4996  7006.94  82.7612
 48.5416  7040.04  83.271
 48.5836  7013.39  82.7957
 48.6256  7006.55  82.9656
 48.6676  7043.23  83.6782
 48.7096  6866.79  81.9135
 48.7516  6939.18  82.4959
 48.7936  6887.87  82.2531
 48.8356  6930.44  82.5547
 48.8776  6936.93  83.1547
 48.9196  7005.63  82.9441
 48.9616  6918.7  82.7975
 49.0036  6893.25  82.9935
 49.0456  6910.47  83.0792
 49.0876  6895.17  82.5303
 49.1296  6837.91  82.3398
 49.1716  6740.13  81.6304
 49.2136  6898.51  82.5097
 49.2556  6870.74  82.4855
 49.2976  6965.31  83.0096
 49.3396  6840.53  82.3129
 49.3816  6950.83  82.4038
 49.4236  6900.37  82.531
 49.4656  6825.46  82.0584
 49.5076  6950.41  82.5947
 49.5496  6828.32  81.9234
 49.5916  6891.26  82.2276
 49.6336  6714.98  81.3627
 49.6756  6924.06  82.8544
 49.7176  6817.01  82.1554
 49.7596  6802.61  81.8306
 49.8016  6840.65  81.9854
 49.8436  6813.83  82.1204
 49.8856  6821.75  82.1704
 49.9276  6740.22  81.7798
 49.9696  6784.7  82.0347
 50.0116  6835.67  82.4686
 50.0536  6801.31  82.2074
 50.0956  6798.18  82.2628
 50.1376  6796.41  81.955
 50.1796  6775.37  82.0931
 50.2216  6734.92  81.8495
 50.2636  6679.91  81.1294
 50.3056  6733.02  81.628
 50.3476  6838.71  82.2791
 50.3896  6679.66  81.2905
 50.4316  6718.38  81.3681
 50.4736  6649.88  81.1661
 50.5156  6721.71  81.5924
 50.5576  6841.86  82.0745
 50.5996  6773.63  82.0653
 50.6416  6675.32  81.286
 50.6836  6637.28  81.1093
 50.7256  6761.15  81.7934
 50.7676  6711.64  81.7913
 50.8096  6566.15  80.4574
 50.8516  6692.08  81.6362
 50.8936  6636.01  81.081
 50.9356  6693.69  81.531
 50.9776  6642.69  81.3749
 51.0196  6476.04  80.4754
 51.0616  6591.99  80.5289
 51.1036  6662.14  81.3059
 51.1456  6724.01  81.5969
 51.1876  6680.62  80.6835
 51.2296  6571.66  80.7645
 51.2716  6478.17  79.7791
 51.3136  6579.41  80.85
 51.3556  6596.23  80.5877
 51.3976  6522.14  80.2779
 51.4396  6480.44  80.3194
 51.4816  6567.04  80.7118
 51.5236  6643.53  81.2824
 51.5656  6532.42  80.1956
 51.6076  6588.86  80.6216
 51.6496  6506.43  80.3041
 51.6916  6565.45  81.0197
 51.7336  6588.36  81.2506
 51.7756  6523.26  80.5533
 51.8176  6487.93  80.4338
 51.8596  6524.42  80.6789
 51.9016  6710.49  81.4299
 51.9436  6590.49  82.1329
 51.9856  6387.88  81.2912
 52.0276  6498.82  80.5254
 52.0696  6448.21  80.275
 52.1116  6532.55  80.9133
 52.1536  6419.21  80.092
 52.1956  6500.76  80.078
 52.2376  6612.41  80.9349
 52.2796  6614.29  80.7578
 52.3216  6270.27  79.3025
 52.3636  6446.26  79.9902
 52.4056  6422.9  79.7055
 52.4476  6470.43  80.3611
 52.4896  6402.4  79.9859
 52.5316  6448.53  80.3204
 52.5736  6447.03  80.0436
 52.6156  6498.49  80.7342
 52.6576  6423.89  79.7256
 52.6996  6251.23  79.5957
 52.7416  6406.5  80.4199
 52.7836  6454.19  80.6223
 52.8256  6450.49  79.8218
 52.8676  6315.64  79.5547
 52.9096  6367.85  79.9589
 52.9516  6458.75  80.894
 52.9936  6381.76  80.7954
 53.0356  6380.8  79.8062
 53.0776  6208.33  78.9739
 53.1196  6345.49  79.9667
 53.1616  6348.1  80.0317
 53.2036  6219.97  79.1688
 53.2456  6324.58  79.938
 53.2876  6246.1  79.1522
 53.3296  6262.22  79.5725
 53.3716  6317.13  79.674
 53.4136  6234.25  79.2931
 53.4556  6235.08  79.3307
 53.4976  6204.57  78.985
 53.5396  6250.64  79.6659
 53.5816  6379.7  80.119
 53.6236  6229.68  79.4386
 53.6656  6235.38  79.1766
 53.7076  6236.65  79.1498
 53.7496  6230.09  79.2162
 53.7916  6381.24  80.3006
 53.8336  6238.37  79.3007
 53.8756  6166.82  79.3861
 53.9176  6354.9  79.9389
 53.9596  6284.61  80.2524
 54.0016  6256.81  79.4148
 54.0436  6264.87  79.6799
 54.0856  6278.21  79.1932
 54.1276  6217.63  79.013
 54.1696  6203.96  79.0936
 54.2116  6236.62  79.0604
 54.2536  6229.02  78.8307
 54.2956  6333.52  79.4745
 54.3376  6197.37  79.1525
 54.3796  6327.09  79.8758
 54.4216  6276.96  79.6083
 54.4636  6281.36  79.6488
 54.5056  6257.54  79.2658
 54.5476  6202  79.2401
 54.5896  6284.95  79.6044
 54.6316  6147.85  78.5895
 54.6736  6313.55  79.7167
 54.7156  6227.33  79.188
 54.7576  6061.86  78.1297
 54.7996  6120.54  78.6397
 54.8416  6188.78  79.0354
 54.8836  6092.75  78.6186
 54.9256  6142.74  78.6939
 54.9676  6270.64  79.3685
 55.0096  6215.86  79.0894
 55.0516  6282.5  79.7449
 55.0936  6249.8  79.1669
 55.1356  6077.36  78.1098
 55.1776  6149.01  78.8331
 55.2196  6311.36  79.7067
 55.2616  6228.34  79.3308
 55.3036  6090.28  78.6065
 55.3456  6208.47  79.5179
 55.3876  6150.75  78.8908
 55.4296  6213.77  79.3101
 55.4716  6175.36  79.0637
 55.5136  6148.36  78.6499
 55.5556  6088.29  78.3324
 55.5976  6118.51  78.5862
 55.6396  6101.91  78.4265
 55.6816  6177.74  78.7919
 55.7236  6211.21  79.0454
 55.7656  6201.95  78.7464
 55.8076  6255.7  79.0703
 55.8496  6128.98  78.5809
 55.8916  6168.5  79.038
 55.9336  6190.36  78.9948
 55.9756  6191.96  78.8973
 56.0176  6115.02  78.5527
 56.0596  6107.23  78.4896
 56.1016  6227.03  79.2708
 56.1436  6131.85  78.916
 56.1856  6093.39  78.4142
 56.2276  6178.15  79.0136
 56.2696  6202.27  79.1671
 56.3116  6113.73  78.9686
 56.3536  6121.67  78.6866
 56.3956  6215.9  79.2797
 56.4376  6078.6  78.4297
 56.4796  6153.99  78.723
 56.5216  6137.56  78.9892
 56.5636  6161.16  78.7305
 56.6056  6074.83  78.4045
 56.6476  6117.14  78.3105
 56.6896  6144.16  78.9228
 56.7316  6153.91  78.8989
 56.7736  6042.5  78.1793
 56.8156  6179.34  79.0635
 56.8576  6072.92  78.3207
 56.8996  6124.53  78.5912
 56.9416  6101.94  78.7407
 56.9836  6041.17  77.8711
 57.0256  6063.44  78.3289
 57.0676  6072.8  78.5123
 57.1096  6100.94  78.4836
 57.1516  6071.69  78.3603
 57.1936  6164.35  78.6997
 57.2356  6102.53  78.6243
 57.2776  6208.43  79.2563
 57.3196  6151.81  79.0523
 57.3616  6095.43  78.3957
 57.4036  6244.84  79.4121
 57.4456  6105.35  78.4846
 57.4876  6159.66  78.6879
 57.5296  6062.91  78.4103
 57.5716  6012.69  78.078
 57.6136  6129.98  78.6513
 57.6556  6061.28  78.3473
 57.6976  6161.83  78.7301
 57.7396  5989.26  78.0754
 57.7816  6030.5  78.7031
 57.8236  5993.2  78.2549
 57.8656  6130.24  78.8008
 57.9076  6077.04  78.4796
 57.9496  6055.72  78.6957
 57.9916  6048.16  78.1644
 58.0336  6048.87  78.4434
 58.0756  6086.12  78.3248
 58.1176  6035.67  77.9881
 58.1596  6042.14  78.5884
 58.2016  6175.06  78.6762
 58.2436  6160.79  79.0021
 58.2856  6059.34  78.2704
 58.3276  6063.38  78.6681
 58.3696  5967.16  77.7874
 58.4116  6093.46  78.4775
 58.4536  6177.61  78.9006
 58.4956  6013.78  78.0295
 58.5376  6160.88  78.6709
 58.5796  6101.7  78.5928
 58.6216  6166.29  78.8229
 58.6636  6146.8  78.9141
 58.7056  6083.13  78.3592
 58.7476  5975.68  78.1062
 58.7896  6045.69  78.207
 58.8316  6077.54  78.516
 58.8736  6096  78.5356
 58.9156  6093.52  78.5638
 58.9576  6223.35  79.7162
 58.9996  6239.92  79.066
 59.0416  6208.13  79.2302
 59.0836  6151.28  78.7867
 59.1256  5906.94  77.8963
 59.1676  6075.7  79.3119
 59.2096  6076.11  78.6233
 59.2516  6262.79  79.3954
 59.2936  6105.98  78.725
 59.3356  6076.68  78.4132
 59.3776  6271.88  79.8349
 59.4196  6003.81  78.045
 59.4616  6073.23  78.3558
 59.5036  5883.1  77.1482
 59.5456  6169.4  78.6996
 59.5876  6146.17  78.7441
 59.6296  6026.45  78.0425
 59.6716  6118.29  78.6933
 59.7136  6167.56  78.9976
 59.7556  6122.45  78.8456
 59.7976  5962.72  77.5541
 59.8396  6096.2  78.3111
 59.8816  5986.63  78.1471
 59.9236  6024.2  78.0361
 59.9656  6113.3  78.8711
 60.0076  6103.52  78.1641
 60.0496  6078.82  78.5108
 60.0916  6386.04  79.8725
 60.1336  5956.75  78.2409
 60.1756  6012.05  79.7848
 60.1996  0.0000000E+00  0.0000000E+00