File: docs/examples/opeando_xrd/IS17_D/Data/IS17_D/17_Db_f00077.xye
# /beamlines/bl04/projects/cycle2025-II/20250340211-lsimonelli/DATA/IS17_D/17_Db_f00077.xye : mythproc.py merge -s 0.006 -l 0.5 -f /beamlines/bl04/inhouse/ff/FlatField/ff_20Nov2024rod8mm60s_17keV.raw -b True -c true -o xye /beamlines/bl04/projects/cycle2025-II/20250340211-lsimonelli/DATA/IS17_D/17_Db_00077.dat
# IsMon = [6759208, 6756389, 6756394]  IsPos = [-1.4999, -2.4884, -3.4988]
# Wave = 0.4962  CalPath /beamlines/bl04/projects/cycle2025-II/20250340211-lsimonelli/DATA/Align/Si_Pos1_25keV_f00001.cal
# Date = 2025-09-24_15:09:42 Dt = 4.8000  Bin = 0.0060  <imon> = 6757330 +/- 1328 (Min/Max) 6756389 / 6759208
# icurr 250.3141  mocoIn 1.7076E-05  mocoOut 0.8012  i15 7.08011e+06  imon 6.75733e+06  i7 5.6667  iEMpd_timer 4.8000  iEMpd_1 3.2190E-08  iEMpd_2 7.9203E-08  iEMpd_3 1.5711E-08  iEMpd_4 4.5973E-08  iEMhp_timer 4.8000  iEMhp_1 4.8890E-06  iEMhp_2 -2.4780E-08  iEMhp_3 -2.4508E-08  iEMhp_4 -2.1148E-08
#      9776
 1.5856  42684.3  212.118
 1.6276  49496  224.497
 1.6696  54971.3  235.754
 1.7116  62031.4  250.926
 1.7536  70609.3  266.574
 1.7956  74276.5  274.091
 1.8376  70920.2  268.252
 1.8796  60740.6  246.437
 1.9216  50033.7  224.548
 1.9636  43485.7  208.482
 2.0056  39369.8  197.601
 2.0476  36676.8  192.814
 2.0896  35092.5  187.498
 2.1316  34140  184.047
 2.1736  32551.7  181.14
 2.2156  33385.9  181.974
 2.2576  32039.9  178.908
 2.2996  30946.3  176.473
 2.3416  31001.5  175.219
 2.3836  30699  174.471
 2.4256  29646.7  172.013
 2.4676  29892.6  172.48
 2.5096  29486.7  171.361
 2.5516  34522.2  189.698
 2.5936  163039  403.082
 2.6356  30433.9  175.275
 2.6776  27639.7  165.928
 2.7196  26892.7  164.153
 2.7616  26753  163.518
 2.8036  26220.7  162.05
 2.8456  25972.7  161.915
 2.8876  25337.7  159.787
 2.9296  25105.5  159.184
 2.9716  24908  158.048
 3.0136  24554.1  156.984
 3.0556  24636  157.627
 3.0976  24527.4  156.187
 3.1396  24301.6  156.22
 3.1816  24068.8  155.395
 3.2236  23912.6  154.871
 3.2656  23899.5  153.902
 3.3076  23689.1  154.66
 3.3496  23840.1  154.099
 3.3916  24361.3  155.589
 3.4336  24655.3  157.116
 3.4756  24966.4  158.036
 3.5176  25205.8  158.577
 3.5596  25339.7  161.393
 3.6016  25459.9  159.448
 3.6436  24635.9  157.941
 3.6856  24259.2  155.045
 3.7276  23287.9  152.978
 3.7696  23198.5  152.874
 3.8116  22903.4  151.78
 3.8536  22904  151.724
 3.8956  23048.5  152.024
 3.9376  23418.4  153.507
 3.9796  22805.1  150.983
 4.0216  22920.1  150.404
 4.0636  22759.8  151.324
 4.1056  22785.5  151.076
 4.1476  23192.2  152.708
 4.1896  23078  152.206
 4.2316  23291.6  152.734
 4.2736  23695.3  153.858
 4.3156  23920.5  154.821
 4.3576  24632.4  157.004
 4.3996  24680.5  157.432
 4.4416  25503.7  159.625
 4.4836  26963  164.289
 4.5256  26685.7  164.043
 4.5676  26159.8  162.674
 4.6096  26899.9  163.611
 4.6516  27183.6  164.184
 4.6936  27287.1  165.322
 4.7356  28428.7  168.567
 4.7776  27407.5  165.338
 4.8196  27156  165.212
 4.8616  26424.4  162.482
 4.9036  26620.8  162.805
 4.9456  26687  163.671
 4.9876  25919.8  161.201
 5.0296  25968.9  161.193
 5.0716  25520.4  160.544
 5.1136  25856.9  161.309
 5.1556  26141.8  161.671
 5.1976  35194.1  187.547
 5.2396  26769  163.281
 5.2816  26705.1  163.541
 5.3236  26513.3  162.669
 5.3656  26092  162.288
 5.4076  25866  161.72
 5.4496  25840.9  161.151
 5.4916  26108.7  161.733
 5.5336  26128.8  161.81
 5.5756  26096.1  161.712
 5.6176  26262.3  161.67
 5.6596  26405.2  163.087
 5.7016  26595.4  162.946
 5.7436  26624.4  163.313
 5.7856  26594  163.283
 5.8276  26630.5  163.12
 5.8696  26939.7  164.225
 5.9116  26629.2  163.874
 5.9536  27270  165.568
 5.9956  27576.2  165.898
 6.0376  27244.7  165.51
 6.0796  27509.9  166.144
 6.1216  27549.8  166.471
 6.1636  27917  166.637
 6.2056  27786.8  166.916
 6.2476  27684.7  166.476
 6.2896  28323.4  168.068
 6.3316  28316.9  168.21
 6.3736  28093.8  167.441
 6.4156  28336.2  168.044
 6.4576  28552.9  168.326
 6.4996  28422  168.418
 6.5416  28569.5  168.971
 6.5836  29041.1  170.603
 6.6256  28697.3  169.156
 6.6676  29203.5  170.21
 6.7096  29267  171.239
 6.7516  29457.7  171.465
 6.7936  30599.2  174.145
 6.8356  31325.4  176.312
 6.8776  30523.8  174.842
 6.9196  30163.8  174.203
 6.9616  30464.8  174.519
 7.0036  30990.5  175.677
 7.0456  31143.8  175.416
 7.0876  30816.6  176.154
 7.1296  30741.2  175.081
 7.1716  30823  174.857
 7.2136  30333.4  173.249
 7.2556  30768.9  174.64
 7.2976  30644.1  174.772
 7.3396  30634.1  174.969
 7.3816  30821.1  175.714
 7.4236  31141.4  175.927
 7.4656  31397.9  176.113
 7.5076  31684.9  177.067
 7.5496  31160.1  176.13
 7.5916  31469.4  177.041
 7.6336  32211.7  179.004
 7.6756  31996.8  178.249
 7.7176  32517.4  180.023
 7.7596  32285.5  180.578
 7.8016  39090.7  201.126
 7.8436  32683.5  180.622
 7.8856  32641.6  180.115
 7.9276  33460.5  182.757
 7.9696  33434.8  182.991
 8.0116  34409.9  184.206
 8.0536  34844.7  185.611
 8.0956  37466.4  193.674
 8.1376  35499  188.002
 8.1796  35370.9  188.191
 8.2216  36582.2  190.135
 8.2636  37961.7  193.94
 8.3056  36247  190.271
 8.3476  39045  196.789
 8.3896  37588.4  193.168
 8.4316  36514.9  190.552
 8.4736  36818.3  190.815
 8.5156  36365.2  189.912
 8.5576  36249  190.564
 8.5996  35933  188.628
 8.6416  36040.6  190.152
 8.6836  35664.2  188.993
 8.7256  36649.9  191.034
 8.7676  39935.9  202.449
 8.8096  40633.2  201.356
 8.8516  37120.4  192.032
 8.8936  39277  197.479
 8.9356  36553.5  190.831
 8.9776  36683.6  191.259
 9.0196  36326  189.99
 9.0616  36606.7  190.23
 9.1036  39653.1  199.204
 9.1456  35665.6  188.269
 9.1876  35628.4  188.106
 9.2296  35130.5  186.242
 9.2716  35025.3  185.99
 9.3136  34730.2  185.208
 9.3556  35565.5  187.385
 9.3976  34164  184.17
 9.4396  34133.5  184.002
 9.4816  34167.7  183.942
 9.5236  33556  182.197
 9.5656  33673.3  182.867
 9.6076  32825.4  181.077
 9.6496  33206.9  181.993
 9.6916  32652.4  180.446
 9.7336  33406  182.291
 9.7756  32599.8  181.34
 9.8176  32451.9  180.425
 9.8596  32672.2  179.484
 9.9016  31963.8  177.531
 9.9436  32045.8  177.676
 9.9856  32496.1  179.185
 10.0276  31474.8  177.411
 10.0696  31501.9  176.529
 10.1116  31023.1  175.453
 10.1536  30917.1  175.303
 10.1956  30332.3  173.262
 10.2376  30066  171.997
 10.2796  30239.7  172.606
 10.3216  29417.1  170.53
 10.3636  29729.6  171.466
 10.4056  32377.8  179.364
 10.4476  33582.6  182.261
 10.4896  38536  194.555
 10.5316  32738.6  180.14
 10.5736  29460  171.293
 10.6156  29259.5  170.452
 10.6576  35561.4  186.278
 10.6996  29324.6  169.913
 10.7416  28336.4  167.244
 10.7836  29151.3  170.323
 10.8256  27108.3  164.667
 10.8676  27067  164.092
 10.9096  27190.4  164.489
 10.9516  26525.3  161.426
 10.9936  27882.2  165.712
 11.0356  27223.2  164.364
 11.0776  28646.3  167.908
 11.1196  28131.8  167.183
 11.1616  26327.6  161.403
 11.2036  27469.3  164.706
 11.2456  29100.4  170.279
 11.2876  26162.3  161.169
 11.3296  26216.7  161.259
 11.3716  26650.4  162.271
 11.4136  26078.4  161.405
 11.4556  26079.7  161.077
 11.4976  27474.3  164.29
 11.5396  27896.4  165.713
 11.5816  26054.9  160.603
 11.6236  25238.3  158.286
 11.6656  25697  158.863
 11.7076  24800.5  156.899
 11.7496  25492.4  163.111
 11.7916  25466.5  158.242
 11.8336  24148.8  154.979
 11.8756  24867.2  156.817
 11.9176  24374.9  154.93
 11.9596  24262.3  154.732
 12.0016  24119.4  155.043
 12.0436  24002.5  154.119
 12.0856  23712.6  153.686
 12.1276  23818.5  153.981
 12.1696  23802.4  153.054
 12.2116  24012.8  153.737
 12.2536  27288.2  164.757
 12.2956  24180.7  154.423
 12.3376  24314.4  155.05
 12.3796  23670.9  153.47
 12.4216  23710  152.803
 12.4636  25299.2  158.804
 12.5056  23526.2  152.401
 12.5476  23647.3  152.321
 12.5896  23238.5  151.633
 12.6316  23518.3  152.685
 12.6736  23302.4  152.466
 12.7156  23908.5  154.27
 12.7576  23344  152.699
 12.7996  23700.8  152.504
 12.8416  23670.2  153.46
 12.8836  24640.7  156.407
 12.9256  24127.9  153.797
 12.9676  23951.2  153.645
 13.0096  23837.4  154.369
 13.0516  24016  153.99
 13.0936  24070.4  154.567
 13.1356  24193  153.938
 13.1776  24250.1  155.13
 13.2196  23872.1  153.562
 13.2616  23700.2  153.325
 13.3036  23872.7  153.839
 13.3456  23662  153.511
 13.3876  24478.3  155.399
 13.4296  23879.3  153.652
 13.4716  24210.7  154.347
 13.5136  24150.5  154.289
 13.5556  24254.1  155.241
 13.5976  24058.3  154.785
 13.6396  24448.6  155.397
 13.6816  24335.9  155.503
 13.7236  24571.6  155.839
 13.7656  26447.4  162.093
 13.8076  28121.7  165.776
 13.8496  26737  162.32
 13.8916  24772.3  157.411
 13.9336  23603.3  152.941
 13.9756  23825.8  153.034
 14.0176  23392.5  152.313
 14.0596  24980.7  157.323
 14.1016  23346.6  152.514
 14.1436  23311.3  151.522
 14.1856  22945.6  150.627
 14.2276  23118.8  151.673
 14.2696  23273.6  152.037
 14.3116  22317.9  148.796
 14.3536  22052.5  148.063
 14.3956  22160.7  148.163
 14.4376  22394  148.72
 14.4796  21935.4  147.19
 14.5216  21556.8  146.694
 14.5636  22648.7  149.924
 14.6056  21884.6  146.929
 14.6476  21526.7  144.984
 14.6896  21176.4  144.336
 14.7316  20803.6  144.081
 14.7736  20690.9  142.842
 14.8156  20585.4  142.493
 14.8576  20566  142.295
 14.8996  20519.7  143.325
 14.9416  19979.7  141.434
 14.9836  19945.9  141.306
 15.0256  19346.1  138.101
 15.0676  19335.3  138.372
 15.1096  19117.2  137.332
 15.1516  18843.1  136.884
 15.1936  18885  136.481
 15.2356  18710.2  136.121
 15.2776  18505.5  134.971
 15.3196  18237.2  134.965
 15.3616  18271.6  134.853
 15.4036  18252.5  134.645
 15.4456  18596.6  135.556
 15.4876  18302  134.169
 15.5296  17967.3  133.219
 15.5716  17499.9  131.083
 15.6136  17632.6  131.9
 15.6556  19686.9  138.584
 15.6976  18012.8  132.858
 15.7396  17790.2  132.418
 15.7816  17608.7  131.258
 15.8236  17169.8  130.293
 15.8656  17236.2  130.343
 15.9076  17257  130.241
 15.9496  18523.5  137.787
 15.9916  17282.9  133.504
 16.0336  17524.3  131.298
 16.0756  17343.9  130.939
 16.1176  17070.7  129.996
 16.1596  16796.4  130.103
 16.2016  16741.4  128.675
 16.2436  16576.6  128.405
 16.2856  16939.7  129.314
 16.3276  16265.5  127.151
 16.3696  16460.8  127.749
 16.4116  16248.1  127.358
 16.4536  16554.4  128.363
 16.4956  17489.6  131.655
 16.5376  16565.3  128.322
 16.5796  16227  126.379
 16.6216  16319.4  126.991
 16.6636  16162.6  126.586
 16.7056  16214.8  126.65
 16.7476  16323.8  126.597
 16.7896  16267.6  127.119
 16.8316  16111.1  126.494
 16.8736  16530.1  128.373
 16.9156  16538.7  128.743
 16.9576  15901.3  127.014
 16.9996  16098.9  128.284
 17.0416  16030.7  126.409
 17.0836  15857.9  125.482
 17.1256  15909.1  125.697
 17.1676  16135.9  126.544
 17.2096  16185.9  126.636
 17.2516  15841.7  125.067
 17.2936  15515.1  124.126
 17.3356  15309.2  123.274
 17.3776  15245.2  123.209
 17.4196  15124.8  122.431
 17.4616  15501.1  123.85
 17.5036  16405.7  127.79
 17.5456  14840.2  122.157
 17.5876  15058.2  122.11
 17.6296  14925.6  121.41
 17.6716  15029.6  122.406
 17.7136  16460.1  128.195
 17.7556  14905.3  122.325
 17.7976  15254.8  123.469
 17.8396  15066.5  122.216
 17.8816  14542.2  120.629
 17.9236  14572.6  120.53
 17.9656  14795.9  122
 18.0076  15523.5  124.527
 18.0496  15949.7  125.348
 18.0916  21601.3  146.433
 18.1336  17920.2  133.567
 18.1756  15732.9  124.679
 18.2176  16434.5  127.658
 18.2596  14639.2  120.214
 18.3016  15295.3  123.145
 18.3436  15659.6  124.603
 18.3856  15217.1  122.957
 18.4276  14499.9  119.719
 18.4696  14891.4  121.411
 18.5116  14917.7  121.793
 18.5536  14461.8  120.288
 18.5956  14357.7  119.411
 18.6376  14641.4  120.991
 18.6796  14278  118.797
 18.7216  14559.7  120.455
 18.7636  14275.7  119.277
 18.8056  13892.5  117.594
 18.8476  13746.5  117.597
 18.8896  13894.4  117.56
 18.9316  14038.4  118.159
 18.9736  13955  117.503
 19.0156  14424.8  119.895
 19.0576  14532.4  119.15
 19.0996  14036.4  117.82
 19.1416  14134.3  118.623
 19.1836  13715.8  116.476
 19.2256  13548.7  115.979
 19.2676  13673.4  116.596
 19.3096  13563.4  116.373
 19.3516  13694.9  116.895
 19.3936  13730.2  116.939
 19.4356  13965  117.807
 19.4776  13788.1  117.156
 19.5196  13708.5  116.676
 19.5616  13854.9  117.555
 19.6036  13548.9  115.751
 19.6456  13924.9  117.456
 19.6876  14339.1  118.816
 19.7296  13903.1  117.465
 19.7716  13565.1  116.207
 19.8136  14033.8  118.388
 19.8556  14187.2  118.513
 19.8976  14515.1  119.937
 19.9396  14098.5  117.793
 19.9816  14274.3  118.782
 20.0236  15096.4  122.338
 20.0656  13898.5  117.394
 20.1076  13822.1  117.536
 20.1496  13473.1  116.041
 20.1916  13785  116.891
 20.2336  13616.7  116.102
 20.2756  13319.9  115.253
 20.3176  13198.6  114.488
 20.3596  13189.9  114.438
 20.4016  13306.6  114.743
 20.4436  13151.5  114.623
 20.4856  13206.5  114.656
 20.5276  13121.3  114.746
 20.5696  13219.6  114.621
 20.6116  13216  114.889
 20.6536  12974.8  113.351
 20.6956  12925.5  113.266
 20.7376  12901.9  113.382
 20.7796  12808.2  112.659
 20.8216  13143.2  113.832
 20.8636  13339.1  115.054
 20.9056  14382.8  119.397
 20.9476  13328.5  114.789
 20.9896  14362.3  119.018
 21.0316  12931.3  112.844
 21.0736  13183.6  114.456
 21.1156  13534.4  116.135
 21.1576  13058.3  114.115
 21.1996  12968.4  113.704
 21.2416  12808.5  112.823
 21.2836  13192.2  114.477
 21.3256  12997.5  113.699
 21.3676  12873  112.688
 21.4096  13431.1  115.442
 21.4516  12985.4  113.382
 21.4936  12441  111.246
 21.5356  12793.4  112.751
 21.5776  12775.5  112.503
 21.6196  13033  113.678
 21.6616  12961.2  113.442
 21.7036  12792.5  112.47
 21.7456  12555.8  111.51
 21.7876  12480.1  110.938
 21.8296  12475.8  110.752
 21.8716  12472.6  110.971
 21.9136  12757.8  112.435
 21.9556  12914.7  112.805
 21.9976  12505.4  111.029
 22.0396  12504.5  111.277
 22.0816  12459  111.597
 22.1236  12909.8  113.056
 22.1656  12553.8  111.63
 22.2076  12404.4  110.421
 22.2496  12320.4  110.082
 22.2916  12280.4  109.789
 22.3336  12458.1  111.3
 22.3756  12293  110.285
 22.4176  12059  109.076
 22.4596  11960.2  109.217
 22.5016  12279.3  110.173
 22.5436  12373  110.468
 22.5856  12528.6  111.402
 22.6276  12503.4  111.425
 22.6696  12179.2  110.324
 22.7116  12087.8  109.427
 22.7536  12278.1  110.262
 22.7956  12394.5  110.122
 22.8376  12064.7  109.155
 22.8796  12095.4  109.101
 22.9216  12204.4  110.13
 22.9636  12255  109.521
 23.0056  12240.8  109.588
 23.0476  12257.2  110.227
 23.0896  12399.2  110.247
 23.1316  12602.5  111.583
 23.1736  12331.4  113.276
 23.2156  12370.2  110.871
 23.2576  12740.5  112.635
 23.2996  12384.4  110.83
 23.3416  12622  112.417
 23.3836  12445.9  110.871
 23.4256  12500.3  111.223
 23.4676  12706.2  111.838
 23.5096  12502.6  111.583
 23.5516  12261.3  109.815
 23.5936  12563.3  112.073
 23.6356  12803.2  112.798
 23.6776  12353.8  111.012
 23.7196  12325  110.46
 23.7616  12401.8  110.724
 23.8036  12438.5  110.936
 23.8456  12184.4  109.363
 23.8876  12257.2  110.036
 23.9296  12143.5  110.015
 23.9716  12378.7  110.277
 24.0136  12317.2  110.902
 24.0556  12096.1  109.614
 24.0976  12168.1  109.761
 24.1396  11829.7  110.799
 24.1816  12061.4  110.311
 24.2236  12040.5  109.843
 24.2656  12247.5  110.244
 24.3076  11986.1  109.343
 24.3496  12222.9  110.3
 24.3916  12239.4  110.418
 24.4336  12161.2  110.276
 24.4756  11958.9  109.236
 24.5176  11819.9  108.226
 24.5596  11721.3  107.894
 24.6016  11815.6  108.627
 24.6436  12119.4  109.511
 24.6856  11684.7  107.264
 24.7276  11805.1  108.158
 24.7696  11870.2  108.563
 24.8116  11618  107.589
 24.8536  11683.1  107.884
 24.8956  11619.1  107.32
 24.9376  11653.6  107.416
 24.9796  11521.8  107.164
 25.0216  11549.4  107.403
 25.0636  11695.3  107.735
 25.1056  11170.5  105.979
 25.1476  11111  107.325
 25.1896  11279.1  106.645
 25.2316  11230.6  105.694
 25.2736  11188.2  105.147
 25.3156  11118.6  104.885
 25.3576  11074.1  105.106
 25.3996  11103.3  105.234
 25.4416  11065.8  105.027
 25.4836  11002.5  105.252
 25.5256  10907.8  104.158
 25.5676  11150  105.044
 25.6096  10895.1  104.401
 25.6516  11017.3  104.497
 25.6936  10978.7  104.622
 25.7356  10821.1  104.005
 25.7776  11100.5  104.937
 25.8196  10925.9  104.35
 25.8616  10845.2  103.896
 25.9036  11266.5  105.34
 25.9456  10839.8  103.919
 25.9876  10781.3  103.703
 26.0296  10850.3  103.552
 26.0716  10973.4  104.561
 26.1136  11114.3  105.169
 26.1556  11102.6  104.498
 26.1976  10697.7  103.487
 26.2396  10859.5  103.42
 26.2816  10681.7  103.175
 26.3236  10964.5  104.689
 26.3656  11041.8  104.768
 26.4076  10720.7  103.442
 26.4496  10904  103.92
 26.4916  11166.8  105.058
 26.5336  11407.8  106.541
 26.5756  11569.9  107.17
 26.6176  11182.1  105.371
 26.6596  10898.6  104.338
 26.7016  10664.3  102.979
 26.7436  10631.1  102.938
 26.7856  10455.3  102.081
 26.8276  10510.2  102.312
 26.8696  10481.2  102.045
 26.9116  10439  101.773
 26.9536  10448.8  101.875
 26.9956  10273  101.051
 27.0376  10460.4  102.181
 27.0796  10583.8  102.506
 27.1216  10712.9  103.188
 27.1636  10322.2  101.464
 27.2056  10432.2  101.887
 27.2476  10543.6  102.418
 27.2896  10161.3  100.665
 27.3316  10307.2  101.1
 27.3736  10056.5  100.139
 27.4156  10273.5  101.04
 27.4576  10400.6  101.896
 27.4996  10510.8  102.028
 27.5416  10261.3  101.123
 27.5836  10383.9  101.555
 27.6256  10229.1  100.974
 27.6676  10188.3  100.766
 27.7096  10338.5  101.39
 27.7516  10825.4  103.902
 27.7936  11020.7  104.981
 27.8356  10708.5  103.088
 27.8776  10691.4  103.064
 27.9196  10425.3  101.634
 27.9616  10397.9  101.708
 28.0036  10348.8  101.42
 28.0456  10080.6  100.244
 28.0876  10155.4  100.701
 28.1296  10110  100.308
 28.1716  10202.2  100.779
 28.2136  10064.1  100.067
 28.2556  10150  100.597
 28.2976  9962.52  99.668
 28.3396  10174.5  100.484
 28.3816  10085.8  100.054
 28.4236  10018.9  99.8766
 28.4656  9744.21  98.5308
 28.5076  9736.8  98.1335
 28.5496  9838.81  98.9037
 28.5916  9882.5  98.9325
 28.6336  9916.4  99.4441
 28.6756  9872.84  98.4315
 28.7176  9839.78  98.8197
 28.7596  9660.38  97.8045
 28.8016  9730.27  98.1985
 28.8436  9700.8  98.2816
 28.8856  9767.4  98.4781
 28.9276  9876.86  99.2738
 28.9696  9670.94  97.8914
 29.0116  9570.42  97.5667
 29.0536  9496.41  97.393
 29.0956  9738.1  98.3256
 29.1376  9674.47  97.9725
 29.1796  9621.03  97.753
 29.2216  9498.82  96.9716
 29.2636  9702.99  98.084
 29.3056  9522.53  96.9406
 29.3476  9653.71  98.1448
 29.3896  9575.45  97.8617
 29.4316  9431.97  96.4694
 29.4736  9381.91  96.2779
 29.5156  9460.33  96.5995
 29.5576  9344.72  96.7355
 29.5996  9402.68  96.304
 29.6416  9437.25  96.5978
 29.6836  9543.47  97.0669
 29.7256  9336.53  96.5664
 29.7676  9395.45  96.5375
 29.8096  9301.68  95.9965
 29.8516  9127.42  95.4169
 29.8936  9174.09  95.7547
 29.9356  9304.98  96.1935
 29.9776  9279.55  96.213
 30.0196  9414.97  96.3021
 30.0616  9306.8  96.1167
 30.1036  9237.06  95.586
 30.1456  9145.2  95.3395
 30.1876  9250.24  95.8621
 30.2296  9163.57  95.3645
 30.2716  9289.04  95.6553
 30.3136  9206.29  96.0732
 30.3556  9373.72  96.9332
 30.3976  9439.24  98.7716
 30.4396  9800.42  97.956
 30.4816  9697.13  97.0404
 30.5236  9617.65  96.6369
 30.5656  9412.63  96.2661
 30.6076  9511.82  96.19
 30.6496  9413.72  96.0947
 30.6916  9162.19  94.8829
 30.7336  9494.96  96.745
 30.7756  9391.95  96.2888
 30.8176  9362.59  96.0744
 30.8596  9478.28  96.4245
 30.9016  9230.84  95.5061
 30.9436  9362.19  95.9199
 30.9856  9432.62  96.4105
 31.0276  9313.69  95.428
 31.0696  9336.08  96.0888
 31.1116  9342.08  96.0981
 31.1536  9375.4  96.1383
 31.1956  9297.88  95.8469
 31.2376  9077.58  94.724
 31.2796  9270.57  95.2558
 31.3216  9274.42  95.2077
 31.3636  9271.01  95.8956
 31.4056  9205.08  96.8656
 31.4476  9261.44  95.0603
 31.4896  9307.17  95.7972
 31.5316  9350.9  95.428
 31.5736  10261.8  99.7884
 31.6156  9931.2  98.1714
 31.6576  9542.42  96.3196
 31.6996  9587.71  96.2035
 31.7416  9374.72  96.2224
 31.7836  9544.16  96.0728
 31.8256  9382.15  95.5111
 31.8676  9449.29  95.8548
 31.9096  9211.92  95.011
 31.9516  9113.76  94.6721
 31.9936  9074.49  94.2972
 32.0356  9188.42  94.9314
 32.0776  9357.98  95.6971
 32.1196  9334.85  95.6881
 32.1616  9235.59  94.6214
 32.2036  9154.21  94.7142
 32.2456  9157.31  95.109
 32.2876  9072.28  94.1691
 32.3296  9099.75  94.2752
 32.3716  8980.18  93.7759
 32.4136  8942.14  93.7777
 32.4556  9223.1  94.6182
 32.4976  9064.63  93.7147
 32.5396  8903.94  92.9346
 32.5816  8927.08  93.1805
 32.6236  8949.9  93.3722
 32.6656  9061.66  94.4954
 32.7076  8772.72  92.6304
 32.7496  8920.21  93.0903
 32.7916  8958.19  93.2422
 32.8336  8904.18  93.055
 32.8756  9068.89  93.6265
 32.9176  8813.99  92.7885
 32.9596  8921.42  93.4219
 33.0016  8871.16  92.9278
 33.0436  8861.83  93.0655
 33.0856  8929.74  93.5061
 33.1276  8727.89  92.1833
 33.1696  8855.63  92.6766
 33.2116  8879.75  93.0448
 33.2536  8907.41  93.1631
 33.2956  8829.79  92.8604
 33.3376  8754.83  92.2002
 33.3796  8924.17  93.3119
 33.4216  8738.27  91.9316
 33.4636  8855.64  92.6997
 33.5056  8678.54  92.0066
 33.5476  8747.1  92.3423
 33.5896  8813.34  92.4899
 33.6316  8802.87  92.7378
 33.6736  8583.31  91.825
 33.7156  8686.75  92.4104
 33.7576  8758.28  92.4277
 33.7996  8763.69  92.2222
 33.8416  8653.56  91.8235
 33.8836  8574.99  91.1878
 33.9256  8819.36  92.5274
 33.9676  8884.53  92.7658
 34.0096  8605.03  91.6065
 34.0516  8604.77  91.2384
 34.0936  8599.77  91.4914
 34.1356  8618.55  91.329
 34.1776  8454.22  90.4521
 34.2196  8479.27  90.7652
 34.2616  8491.58  90.9743
 34.3036  8589.48  91.7416
 34.3456  8493.29  90.9791
 34.3876  8631.48  91.6821
 34.4296  8446.14  90.3986
 34.4716  8714.15  91.9671
 34.5136  8594.61  91.5265
 34.5556  8392.99  90.7051
 34.5976  8675.23  92.0253
 34.6396  8575.06  91.2028
 34.6816  8597.66  91.4228
 34.7236  8650.64  91.49
 34.7656  8471.57  90.748
 34.8076  8509.13  91.2763
 34.8496  8387.67  90.4734
 34.8916  8483.57  90.8503
 34.9336  8546.56  91.1744
 34.9756  8665.38  91.7207
 35.0176  8623.25  92.026
 35.0596  8606.59  91.76
 35.1016  8589.3  91.4178
 35.1436  8727.39  91.8358
 35.1856  8417.36  90.3182
 35.2276  8433.46  90.5841
 35.2696  8576.98  91.5302
 35.3116  8421.76  90.8081
 35.3536  8440.5  90.6151
 35.3956  8481.02  90.5466
 35.4376  8558.36  91.5177
 35.4796  8513.03  91.325
 35.5216  8407.06  90.7113
 35.5636  8203.3  90.3489
 35.6056  8379.18  90.3303
 35.6476  8446.99  90.587
 35.6896  8409.97  90.4839
 35.7316  8402.47  90.4233
 35.7736  8355.57  90.3529
 35.8156  8494.41  91.104
 35.8576  8446.12  91.0957
 35.8996  8369.86  90.6492
 35.9416  8356.9  90.0838
 35.9836  8407.93  90.7042
 36.0256  8501.86  91.2218
 36.0676  8425.16  90.5457
 36.1096  8423  90.7035
 36.1516  8540.47  91.2237
 36.1936  8400.57  90.3007
 36.2356  8457.76  91.2808
 36.2776  8342.46  90.1249
 36.3196  8380.16  90.0006
 36.3616  8345.7  89.9423
 36.4036  8396.44  90.2893
 36.4456  8324.31  90.1045
 36.4876  8190.39  89.3234
 36.5296  8333.57  90.1315
 36.5716  8290.11  90.6768
 36.6136  8435.71  90.2539
 36.6556  8245.82  89.4296
 36.6976  8015.75  88.6633
 36.7396  8144.86  89.1072
 36.7816  8119.74  89.3417
 36.8236  8071.71  89.003
 36.8656  8096.77  89.2017
 36.9076  8065.64  88.9136
 36.9496  7893.46  87.9518
 36.9916  8005.61  88.2062
 37.0336  8139.41  89.2568
 37.0756  8183.52  89.2899
 37.1176  7919.12  88.1001
 37.1596  7876.32  87.87
 37.2016  8019.89  88.8885
 37.2436  8095.69  88.6127
 37.2856  7918.69  87.8981
 37.3276  8004.12  87.7387
 37.3696  7958.13  88.3578
 37.4116  7892.39  87.9014
 37.4536  7788.25  87.1899
 37.4956  7870.56  87.695
 37.5376  8102.89  90.5564
 37.5796  8015.44  89.9844
 37.6216  7862.62  87.4191
 37.6636  8223.84  89.283
 37.7056  7986.29  88.1828
 37.7476  8188.25  88.8209
 37.7896  8000.3  88.3146
 37.8316  7986.64  88.3813
 37.8736  7916.71  87.5301
 37.9156  8014.1  88.0728
 37.9576  8044.94  88.1494
 37.9996  7934.1  87.253
 38.0416  7973.86  88.2778
 38.0836  8199.66  89.4223
 38.1256  8155.31  89.1502
 38.1676  7771.09  87.142
 38.2096  8249.51  89.3888
 38.2516  8077.51  88.6769
 38.2936  8112.79  88.6579
 38.3356  7937.39  87.6377
 38.3776  7890.3  87.6187
 38.4196  7992.71  88.0501
 38.4616  7928.7  87.9373
 38.5036  8071.58  88.5694
 38.5456  7930.86  88.6237
 38.5876  7820.63  88.0294
 38.6296  7974.92  87.8399
 38.6716  7972.65  87.6469
 38.7136  7886.84  87.118
 38.7556  7975.47  88.1176
 38.7976  7894.32  87.5711
 38.8396  7940.02  88.3031
 38.8816  7779.43  87.2035
 38.9236  7869.46  87.5123
 38.9656  8014.34  88.2092
 39.0076  7896.48  86.9725
 39.0496  7948.35  87.81
 39.0916  8021.03  87.8585
 39.1336  7935.98  87.7959
 39.1756  7742.65  86.7659
 39.2176  7932.46  88.3822
 39.2596  7858.04  87.882
 39.3016  7937.7  87.9141
 39.3436  7873.34  87.9687
 39.3856  8012.94  88.188
 39.4276  7999.57  88.6195
 39.4696  7968.17  88.0663
 39.5116  7952.71  88.4945
 39.5536  7918.23  88.7235
 39.5956  7930.9  87.9043
 39.6376  7860.48  87.5123
 39.6796  7850.02  87.2064
 39.7216  7907.89  87.6252
 39.7636  7989.12  88.638
 39.8056  7973.32  88.3304
 39.8476  7846.53  87.8865
 39.8896  7896.31  87.7875
 39.9316  7752.81  87.2327
 39.9736  7893.56  87.6015
 40.0156  7830.06  87.0797
 40.0576  7922.12  87.9369
 40.0996  7966.58  87.3706
 40.1416  7872.39  87.6434
 40.1836  7913.92  87.765
 40.2256  7908.43  87.7669
 40.2676  7901.9  87.837
 40.3096  7926.16  87.8988
 40.3516  7909.98  87.9164
 40.3936  7960.83  87.753
 40.4356  7858.86  87.4053
 40.4776  7993.44  88.5525
 40.5196  7919.89  88.2707
 40.5616  8003.21  88.3566
 40.6036  7845.38  87.7544
 40.6456  7808.95  87.1613
 40.6876  7895.12  87.6329
 40.7296  7933.38  87.9812
 40.7716  7933.2  88.0957
 40.8136  7805.26  87.3237
 40.8556  7939.54  88.2131
 40.8976  7935.48  88.1105
 40.9396  7908.88  88.3052
 40.9816  8041.7  88.3266
 41.0236  7953.87  87.6396
 41.0656  7933.33  88.0419
 41.1076  8002.73  88.2162
 41.1496  7987.76  88.0411
 41.1916  7842.49  87.551
 41.2336  7884.05  87.7772
 41.2756  7861.19  87.2557
 41.3176  7859.03  87.8473
 41.3596  7993.99  88.3432
 41.4016  7836.44  87.7193
 41.4436  7924.14  87.9999
 41.4856  7864.95  87.8369
 41.5276  7856.63  87.7979
 41.5696  7802.29  87.1381
 41.6116  7916.52  88.1367
 41.6536  7949.68  88.1851
 41.6956  7933.81  88.164
 41.7376  7820.65  87.5652
 41.7796  7728.74  86.9357
 41.8216  7902.16  88.1314
 41.8636  7884.86  87.9904
 41.9056  7734.71  86.9296
 41.9476  7937.94  88.3084
 41.9896  7999.16  88.3089
 42.0316  7901.3  87.8566
 42.0736  7966.24  88.3147
 42.1156  7852.97  87.5161
 42.1576  7899.76  87.8936
 42.1996  7945.85  88.2695
 42.2416  7940.5  87.8407
 42.2836  7803.25  87.187
 42.3256  7776  87.1489
 42.3676  8063.12  88.5328
 42.4096  7895.25  87.586
 42.4516  7954  87.9812
 42.4936  7794.72  87.1651
 42.5356  7778.38  87.2292
 42.5776  7912.78  87.9028
 42.6196  7796.18  87.3166
 42.6616  7821.3  87.6263
 42.7036  7880.31  87.3305
 42.7456  7884.89  87.7136
 42.7876  7810.18  87.3894
 42.8296  7810.79  87.2374
 42.8716  7734.48  86.9736
 42.9136  7782.67  87.0272
 42.9556  7869.56  87.6433
 42.9976  7858.36  87.5534
 43.0396  7729.2  86.5607
 43.0816  7724.35  86.9155
 43.1236  7703.07  86.8455
 43.1656  7812.95  87.2849
 43.2076  7754.11  87.0684
 43.2496  7809.48  87.1998
 43.2916  7761.46  87.2859
 43.3336  7760.24  87.1065
 43.3756  7771.96  86.944
 43.4176  7675.07  86.4825
 43.4596  7633.39  86.1059
 43.5016  7585.36  86.222
 43.5436  7636.72  86.4188
 43.5856  7654.16  86.5543
 43.6276  7684.99  86.6128
 43.6696  7578.95  86.2679
 43.7116  7808.21  87.0619
 43.7536  7743.83  87.1993
 43.7956  7566.36  87.3896
 43.8376  7464.8  85.3579
 43.8796  7491.17  85.5878
 43.9216  7442.78  85.2318
 43.9636  7537.74  85.8764
 44.0056  7507.43  85.9376
 44.0476  7494.33  85.4942
 44.0896  7537.51  86.0789
 44.1316  7721.38  86.6463
 44.1736  7517.57  85.6187
 44.2156  7526.05  85.5237
 44.2576  7427.55  85.2831
 44.2996  7487.39  85.5999
 44.3416  7576.95  85.8683
 44.3836  7293.87  84.5677
 44.4256  7480.12  85.2871
 44.4676  7393.52  84.9471
 44.5096  7372.45  84.9706
 44.5516  7356.85  84.8386
 44.5936  7302.16  84.4834
 44.6356  7452.81  85.0893
 44.6776  7433.4  85.286
 44.7196  7415.65  85.4985
 44.7616  7485.85  87.2104
 44.8036  7467.02  85.5356
 44.8456  7658.35  86.8283
 44.8876  7556.07  86.0912
 44.9296  7759.39  86.6887
 44.9716  7645.17  86.4661
 45.0136  7614.06  86.2378
 45.0556  7764.94  87.0565
 45.0976  7545.72  85.9788
 45.1396  7551.5  85.7753
 45.1816  7480.12  85.3081
 45.2236  7708.83  86.5053
 45.2656  7483.76  85.7312
 45.3076  7490.01  85.5522
 45.3496  7440.9  85.5831
 45.3916  7495.39  86.1587
 45.4336  7574.72  86.4471
 45.4756  7400.64  85.3041
 45.5176  7531.84  85.6767
 45.5596  7614.23  86.2639
 45.6016  7449.75  85.7474
 45.6436  7545.59  85.4733
 45.6856  7442.41  85.5199
 45.7276  7336.36  86.2442
 45.7696  7449  86.5793
 45.8116  7517.31  86.4011
 45.8536  7425.08  85.7615
 45.8956  7484.09  85.4467
 45.9376  7525  85.1528
 45.9796  7468.29  85.5159
 46.0216  7466.31  85.8361
 46.0636  7620.04  85.8539
 46.1056  7489.15  85.0989
 46.1476  7513.41  85.8424
 46.1896  7500.47  85.9079
 46.2316  7402.82  85.2222
 46.2736  7392.73  85.5329
 46.3156  7603.05  86.3209
 46.3576  7526.21  86.0828
 46.3996  7422.68  85.6504
 46.4416  7489.62  85.6146
 46.4836  7262.1  84.6547
 46.5256  7522.81  86.1043
 46.5676  7350.43  85.2285
 46.6096  7397.81  85.427
 46.6516  7395.88  84.4575
 46.6936  7555.17  85.8709
 46.7356  7496.37  85.6302
 46.7776  7405.01  85.9686
 46.8196  7470.85  85.9386
 46.8616  7262.64  84.6857
 46.9036  7276.29  84.4196
 46.9456  7391.79  84.7255
 46.9876  7501.63  85.4276
 47.0296  7398.81  85.54
 47.0716  7320.18  84.9083
 47.1136  7368.75  84.8523
 47.1556  7346.79  84.6087
 47.1976  7532.31  85.7484
 47.2396  7306.56  84.8548
 47.2816  7231.57  84.1186
 47.3236  7296.65  84.8693
 47.3656  7352  85.1176
 47.4076  7274.34  84.4734
 47.4496  7422.99  85.4242
 47.4916  7295.64  84.8737
 47.5336  7424.85  85.4378
 47.5756  7431.1  85.5883
 47.6176  7221.11  84.2759
 47.6596  7277.66  84.3212
 47.7016  7424.9  84.9699
 47.7436  7391.84  85.1297
 47.7856  7469.58  85.5998
 47.8276  7322.48  84.807
 47.8696  7357.97  85.0978
 47.9116  7345.58  84.736
 47.9536  7361.73  84.7773
 47.9956  7249.87  84.8398
 48.0376  7266.13  84.7076
 48.0796  7323.27  85.1545
 48.1216  7336.03  85.0593
 48.1636  7468.36  85.3872
 48.2056  7447.83  85.5433
 48.2476  7386.07  85.494
 48.2896  7447.88  85.7641
 48.3316  7408.31  85.4764
 48.3736  7380.25  85.3419
 48.4156  7357.69  85.0567
 48.4576  7410.03  85.658
 48.4996  7458.48  85.3854
 48.5416  7456.03  85.6952
 48.5836  7276.06  84.3351
 48.6256  7393.46  85.2122
 48.6676  7382.95  85.6787
 48.7096  7397.29  85.0227
 48.7516  7354.64  84.9245
 48.7936  7253.23  84.408
 48.8356  7295.35  84.6977
 48.8776  7319.61  85.4179
 48.9196  7479.32  85.6895
 48.9616  7330.11  85.2245
 49.0036  7271.78  85.2405
 49.0456  7351.78  85.6806
 49.0876  7383.18  85.3968
 49.1296  7190.06  84.4284
 49.1716  7222.17  84.5019
 49.2136  7398.32  85.4301
 49.2556  7324.32  85.0466
 49.2976  7389.78  85.4838
 49.3396  7317.74  85.1274
 49.3816  7381.52  84.9241
 49.4236  7334  85.0838
 49.4656  7198.04  84.3076
 49.5076  7211.78  84.1349
 49.5496  7245.41  84.3964
 49.5916  7350.12  84.9175
 49.6336  7217.11  84.3478
 49.6756  7333.69  85.2628
 49.7176  7267.12  84.8199
 49.7596  7268.12  84.5887
 49.8016  7340.28  84.9357
 49.8436  7246.51  84.6891
 49.8856  7197.7  84.4021
 49.9276  7172.3  84.3576
 49.9696  7283.2  84.9963
 50.0116  7264.09  85.0063
 50.0536  7183.8  84.4862
 50.0956  7144.43  84.3271
 50.1376  7232.75  84.536
 50.1796  7165.16  84.4204
 50.2216  7168.97  84.4339
 50.2636  7269.66  84.6388
 50.3056  7179.95  84.2858
 50.3476  7224.46  84.5721
 50.3896  7221.56  84.527
 50.4316  7275.16  84.6672
 50.4736  7163.23  84.2365
 50.5156  7043.75  83.5222
 50.5576  7249.15  84.4791
 50.5996  7070.95  83.7268
 50.6416  7039.29  83.4655
 50.6836  7225.22  84.6115
 50.7256  7270.48  84.8075
 50.7676  7228.44  84.8705
 50.8096  7197.08  84.2276
 50.8516  7069.23  83.9015
 50.8936  7054.54  83.5951
 50.9356  7141.81  84.2192
 50.9776  7178.39  84.5957
 51.0196  6894.72  83.0392
 51.0616  7163.99  83.9565
 51.1036  6949.13  83.0476
 51.1456  7013.09  83.3401
 51.1876  7059.35  82.9373
 51.2296  7068.94  83.633
 51.2716  6994.34  82.9067
 51.3136  6929.58  82.9826
 51.3556  6965.98  82.8195
 51.3976  6908.74  82.6293
 51.4396  6846.51  82.5699
 51.4816  6890.82  82.6809
 51.5236  7107.15  84.0658
 51.5656  6971.3  82.8486
 51.6076  6967.91  82.9116
 51.6496  6872.39  82.5356
 51.6916  6848.22  82.7506
 51.7336  7014.76  83.8459
 51.7756  6933.05  83.0478
 51.8176  6825.46  82.505
 51.8596  6922.67  83.1109
 51.9016  7041.42  83.4198
 51.9436  7077.37  85.1422
 51.9856  6954.61  84.7987
 52.0276  7165.27  84.5473
 52.0696  7245.77  85.0872
 52.1116  6985.81  83.6746
 52.1536  7034.46  83.8412
 52.1956  7005.87  83.1333
 52.2376  7020.46  83.3842
 52.2796  7057.64  83.4263
 52.3216  6937.06  83.4055
 52.3636  7035.09  83.5513
 52.4056  6989.29  83.1424
 52.4476  6931.19  83.151
 52.4896  6797.93  82.4026
 52.5316  6999.1  83.6577
 52.5736  6857.62  82.5357
 52.6156  7078.94  84.2613
 52.6576  6967.62  83.0311
 52.6996  6824.72  83.165
 52.7416  6853.9  83.1981
 52.7836  7024.19  84.1079
 52.8256  6981.45  83.0503
 52.8676  6883.06  83.0492
 52.9096  6905.98  83.248
 52.9516  6950.78  83.9252
 52.9936  6831.57  83.5764
 53.0356  7015.69  83.6709
 53.0776  6974.85  83.7061
 53.1196  6927.7  83.5336
 53.1616  6920.18  83.5474
 53.2036  6903.42  83.4115
 53.2456  6886.19  83.4107
 53.2876  6884.61  83.0915
 53.3296  6962.89  83.8967
 53.3716  6989.47  83.7904
 53.4136  6960.63  83.7828
 53.4556  6800.68  82.8388
 53.4976  6904.23  83.2948
 53.5396  6731.05  82.6583
 53.5816  6781.75  82.5969
 53.6236  6838.15  83.2964
 53.6656  6936.47  83.4833
 53.7076  6857.29  82.949
 53.7496  6981.05  83.8367
 53.7916  6764.55  82.6703
 53.8336  6869.44  83.187
 53.8756  6763.84  83.1207
 53.9176  6803.49  82.7048
 53.9596  6655.68  82.5687
 54.0016  6653.54  81.874
 54.0436  6563.46  81.5344
 54.0856  6772.71  82.2457
 54.1276  6677.23  81.8572
 54.1696  6687.34  82.0938
 54.2116  6707.82  81.9645
 54.2536  6592.8  81.0717
 54.2956  6610.85  81.2301
 54.3376  6555.21  81.3747
 54.3796  6571.64  81.375
 54.4216  6667.75  82.0294
 54.4636  6542.37  81.2124
 54.5056  6638.23  81.613
 54.5476  6523.15  81.2354
 54.5896  6584.28  81.459
 54.6316  6533.31  80.9792
 54.6736  6611.19  81.5426
 54.7156  6611.52  81.5896
 54.7576  6463.46  80.6293
 54.7996  6533.94  81.2202
 54.8416  6448.06  80.7521
 54.8836  6645  82.0578
 54.9256  6463.02  80.6901
 54.9676  6479.58  80.6762
 55.0096  6599.69  81.4519
 55.0516  6423.72  80.5975
 55.0936  6496.5  80.6974
 55.1356  6390.2  80.0853
 55.1776  6669.16  82.0447
 55.2196  6622.23  81.5571
 55.2616  6666.34  82.0388
 55.3036  6353.41  80.2519
 55.3456  6402.49  80.7226
 55.3876  6500.2  81.0612
 55.4296  6381.7  80.3323
 55.4716  6471.12  80.9069
 55.5136  6484.29  80.7525
 55.5556  6612.91  81.583
 55.5976  6364.75  80.1396
 55.6396  6562.24  81.3183
 55.6816  6336.51  79.7688
 55.7236  6412.36  80.3129
 55.7656  6414.41  80.0329
 55.8076  6340.11  79.5771
 55.8496  6324.47  79.7785
 55.8916  6368.22  80.2573
 55.9336  6553.43  81.252
 55.9756  6350.66  79.8573
 56.0176  6302.83  79.7139
 56.0596  6303.31  79.6994
 56.1016  6251.96  79.4093
 56.1436  6342.39  80.2512
 56.1856  6243.44  79.3509
 56.2276  6504.07  81.0434
 56.2696  6362.02  80.1361
 56.3116  6457.75  81.1156
 56.3536  6414.11  80.5035
 56.3956  6285.26  79.6763
 56.4376  6308.38  79.8649
 56.4796  6168.17  78.797
 56.5216  6360.94  80.3741
 56.5636  6271.1  79.4046
 56.6056  6499.81  81.0614
 56.6476  6226.62  78.9564
 56.6896  6432.83  80.7204
 56.7316  6202.74  79.1714
 56.7736  6364.48  80.1812
 56.8156  6319.59  79.9451
 56.8576  6172.98  78.9443
 56.8996  6291.74  79.6097
 56.9416  6155.46  79.0685
 56.9836  6307.87  79.5405
 57.0256  6194.58  79.1505
 57.0676  6394.4  80.5232
 57.1096  6242.35  79.3691
 57.1516  6221.86  79.2745
 57.1936  6228.73  79.0691
 57.2356  6148.03  78.8974
 57.2776  6275.02  79.6705
 57.3196  6266.05  79.9311
 57.3616  6316.13  79.769
 57.4036  6295.12  79.6875
 57.4456  6354.42  80.0435
 57.4876  6210.65  79.0016
 57.5296  6253.26  79.5955
 57.5716  6087  78.5374
 57.6136  6100.72  78.4695
 57.6556  6219.43  79.3484
 57.6976  6218.65  79.1775
 57.7396  6099.91  78.7611
 57.7816  6112.95  79.2258
 57.8236  6137.5  79.1615
 57.8656  6224.71  79.3882
 57.9076  6196.79  79.2249
 57.9496  6071  78.7908
 57.9916  6201.21  79.1151
 58.0336  6124.3  78.9066
 58.0756  6157.52  78.7499
 58.1176  6152.51  78.7268
 58.1596  6146.47  79.2782
 58.2016  5918.83  77.0354
 58.2436  6021.97  78.1133
 58.2856  5930.77  77.4423
 58.3276  5894.91  77.5729
 58.3696  5901.89  77.3719
 58.4116  5918.77  77.3494
 58.4536  5931.49  77.3212
 58.4956  5932.43  77.5056
 58.5376  5974.11  77.3526
 58.5796  5867.42  77.0744
 58.6216  6051.4  78.0941
 58.6636  5958.17  77.6956
 58.7056  5904.45  77.2002
 58.7476  5922.67  77.763
 58.7896  5827.1  76.7863
 58.8316  5918.74  77.3829
 58.8736  5957.91  77.6494
 58.9156  5897.09  77.2921
 58.9576  5920.24  77.7641
 58.9996  5980.39  77.4118
 59.0416  5975.02  77.7366
 59.0836  5810.01  76.5774
 59.1256  5752.07  76.8774
 59.1676  5861.73  77.9065
 59.2096  5855.95  77.1923
 59.2516  5934.95  77.2959
 59.2936  5839.01  76.9912
 59.3356  5726.82  76.1289
 59.3776  5977.7  77.9467
 59.4196  5763.86  76.4758
 59.4616  6066.34  78.3179
 59.5036  5717.32  76.0661
 59.5456  6005.07  77.651
 59.5876  5989.59  77.7411
 59.6296  5894.86  77.1923
 59.6716  5866.37  77.0626
 59.7136  6038.13  78.1709
 59.7556  5944.22  77.696
 59.7976  5770.39  76.2995
 59.8396  5968.98  77.4962
 59.8816  5852.85  77.2755
 59.9236  5911.44  77.3088
 59.9656  5851.99  77.1758
 60.0076  6034.61  77.7282
 60.0496  5913.16  77.4396
 60.0916  5960.64  77.1729
 60.1336  5918.82  77.998
 60.1756  5877.05  78.8906
 60.1996  0.0000000E+00  0.0000000E+00