File: docs/examples/opeando_xrd/IS17_D/Data/IS17_D/17_Db_f00111.xye
# /beamlines/bl04/projects/cycle2025-II/20250340211-lsimonelli/DATA/IS17_D/17_Db_f00111.xye : mythproc.py merge -s 0.006 -l 0.5 -f /beamlines/bl04/inhouse/ff/FlatField/ff_20Nov2024rod8mm60s_17keV.raw -b True -c true -o xye /beamlines/bl04/projects/cycle2025-II/20250340211-lsimonelli/DATA/IS17_D/17_Db_00111.dat
# IsMon = [6786777, 6786691, 6786657]  IsPos = [-1.4999, -2.4884, -3.4989]
# Wave = 0.4962  CalPath /beamlines/bl04/projects/cycle2025-II/20250340211-lsimonelli/DATA/Align/Si_Pos1_25keV_f00001.cal
# Date = 2025-09-25_00:38:59 Dt = 4.8000  Bin = 0.0060  <imon> = 6786708 +/- 50 (Min/Max) 6786657 / 6786777
# icurr 252.8830  mocoIn 1.7246E-05  mocoOut 0.8098  i15 7.10888e+06  imon 6.78671e+06  i7 4.6667  iEMpd_timer 4.8000  iEMpd_1 3.5115E-08  iEMpd_2 7.9468E-08  iEMpd_3 1.7055E-08  iEMpd_4 4.7126E-08  iEMhp_timer 4.8000  iEMhp_1 4.9402E-06  iEMhp_2 -2.4656E-08  iEMhp_3 -2.4196E-08  iEMhp_4 -2.0466E-08
#      9776
 1.5856  45443.3  218.895
 1.6276  52087.4  230.33
 1.6696  57735.7  241.642
 1.7116  65449.9  257.782
 1.7536  73356  271.745
 1.7956  77235.6  279.536
 1.8376  74730.5  275.401
 1.8796  63879.5  252.757
 1.9216  53374.3  231.955
 1.9636  46297.1  215.145
 2.0056  42181.6  204.563
 2.0476  39406.7  199.888
 2.0896  38264.3  195.814
 2.1316  37168.9  192.063
 2.1736  35854.2  190.132
 2.2156  36367.1  189.951
 2.2576  34892.8  186.724
 2.2996  34048.1  185.131
 2.3416  34501.8  184.871
 2.3836  33299.3  181.734
 2.4256  32324.1  179.637
 2.4676  32377.8  179.531
 2.5096  31907.8  178.282
 2.5516  30747.7  179.02
 2.5936  30753.9  175.457
 2.6356  30289.7  174.858
 2.6776  30067.4  173.058
 2.7196  29654.5  172.391
 2.7616  29796.6  172.581
 2.8036  29188.7  170.984
 2.8456  29237.7  171.795
 2.8876  28273.1  168.794
 2.9296  27943.5  167.95
 2.9716  27789.8  166.949
 3.0136  27479.7  166.082
 3.0556  27688.4  167.13
 3.0976  27477.8  165.336
 3.1396  27024.2  164.727
 3.1816  26678.7  163.617
 3.2236  26534  163.16
 3.2656  26477.6  161.993
 3.3076  25874.4  161.653
 3.3496  26138.1  161.363
 3.3916  26485.1  162.246
 3.4336  26812.2  163.856
 3.4756  27420.9  165.635
 3.5176  27645.6  166.065
 3.5596  27558.1  168.343
 3.6016  27678.3  166.248
 3.6436  26831.3  164.824
 3.6856  26325.8  161.523
 3.7276  25331.1  159.548
 3.7696  24946.7  158.526
 3.8116  24799.5  157.948
 3.8536  24723.8  157.64
 3.8956  24749.4  157.535
 3.9376  24490.1  156.983
 3.9796  24464.5  156.378
 4.0216  24402.7  155.196
 4.0636  24354.1  156.543
 4.1056  24517.7  156.713
 4.1476  24749.3  157.767
 4.1896  24888.1  158.059
 4.2316  24873.5  157.834
 4.2736  25338.4  159.101
 4.3156  25425.1  159.607
 4.3576  26109.8  161.644
 4.3996  26179.8  162.142
 4.4416  26862.6  163.82
 4.4836  27417.9  165.67
 4.5256  27907.7  167.758
 4.5676  27631.8  167.191
 4.6096  28305.8  167.841
 4.6516  28702.3  168.709
 4.6936  28740.6  169.668
 4.7356  29280.2  171.07
 4.7776  28768.6  169.393
 4.8196  28669.3  169.767
 4.8616  28079.7  167.489
 4.9036  27923.9  166.748
 4.9456  27870.1  167.254
 4.9876  26955.6  164.392
 5.0296  27367.5  165.48
 5.0716  27052.9  165.289
 5.1136  27481.4  166.308
 5.1556  27572.3  166.035
 5.1976  28210.7  167.936
 5.2396  28140.6  167.418
 5.2816  28102.6  167.782
 5.3236  28099.9  167.463
 5.3656  27637.8  167.026
 5.4076  27374.5  166.367
 5.4496  27311.7  165.672
 5.4916  27649.8  166.437
 5.5336  27645.8  166.513
 5.5756  27622.5  166.379
 5.6176  27637.7  165.858
 5.6596  27975  167.869
 5.7016  27798.8  166.588
 5.7436  27957.6  166.968
 5.7856  27772.9  166.866
 5.8276  28198  167.844
 5.8696  28212  168.064
 5.9116  28235.9  168.739
 5.9536  28761.2  170.04
 5.9956  28782.8  169.486
 6.0376  29053.5  170.913
 6.0796  29122  170.94
 6.1216  29033.4  170.891
 6.1636  29461.5  171.176
 6.2056  29268.8  171.306
 6.2476  29494.1  171.831
 6.2896  29851.8  172.55
 6.3316  29760.9  172.452
 6.3736  29923.5  172.82
 6.4156  30088.5  173.173
 6.4576  30166.3  173.014
 6.4996  30285.3  173.846
 6.5416  30082.8  173.387
 6.5836  30256.1  173.988
 6.6256  30238  173.632
 6.6676  30848.6  174.937
 6.7096  30892.7  175.937
 6.7516  31102  176.189
 6.7936  31288.9  176.103
 6.8356  31377.5  176.454
 6.8776  31527.6  177.69
 6.9196  31853.3  179.01
 6.9616  32347.2  179.832
 7.0036  32621.5  180.233
 7.0456  32668.3  179.656
 7.0876  32388.3  180.591
 7.1296  32526.6  180.092
 7.1716  32640.8  179.944
 7.2136  32361.4  178.941
 7.2556  32555.6  179.647
 7.2976  32792  180.798
 7.3396  32285.2  179.613
 7.3816  32393.2  180.134
 7.4236  32889.7  180.797
 7.4656  32947.3  180.403
 7.5076  33306.4  181.543
 7.5496  32930.7  181.063
 7.5916  33134.9  181.665
 7.6336  33719.6  183.227
 7.6756  33713.7  182.981
 7.7176  34274.5  184.824
 7.7596  33711.6  184.544
 7.8016  34593.2  189.213
 7.8436  33832.1  183.908
 7.8856  34206.6  184.373
 7.9276  34781.9  186.32
 7.9696  34976.4  187.146
 8.0116  35922.6  188.199
 8.0536  36401.5  189.701
 8.0956  35877.7  189.517
 8.1376  36825.5  191.468
 8.1796  36994.3  192.45
 8.2216  37706.4  192.743
 8.2636  37719.9  193.309
 8.3056  37611.4  193.808
 8.3476  38234.3  194.727
 8.3896  38088.3  194.43
 8.4316  38132.1  194.712
 8.4736  38072.4  194.025
 8.5156  37904.3  193.876
 8.5576  37740.3  194.432
 8.5996  37640.3  193.045
 8.6416  37467.8  193.868
 8.6836  37201.6  193.013
 8.7256  37878.7  194.204
 8.7676  37518.6  196.219
 8.8096  37947.2  194.596
 8.8516  38035.7  194.382
 8.8936  37459.7  192.864
 8.9356  37772  193.995
 8.9776  37884.7  194.374
 9.0196  37814.8  193.857
 9.0616  37010.3  191.344
 9.1036  37065.6  192.606
 9.1456  36601.6  190.732
 9.1876  37039  191.804
 9.2296  36681.8  190.309
 9.2716  36471.2  189.8
 9.3136  36449.6  189.744
 9.3556  36714.7  190.407
 9.3976  35548.8  187.88
 9.4396  35630.6  187.999
 9.4816  35651.6  187.909
 9.5236  35273.9  186.791
 9.5656  34818.2  185.959
 9.6076  34312.4  185.135
 9.6496  34563.4  185.685
 9.6916  33984.8  184.084
 9.7336  34412.4  185.024
 9.7756  34398.8  186.259
 9.8176  33992.9  184.663
 9.8596  34146.6  183.508
 9.9016  33613.2  182.053
 9.9436  33447.6  181.514
 9.9856  33032.7  180.664
 10.0276  32692.5  180.825
 10.0696  32746.3  179.983
 10.1116  31932.7  178.007
 10.1536  31890.2  178.045
 10.1956  31250.1  175.865
 10.2376  31232.8  175.313
 10.2796  31136.7  175.166
 10.3216  30797.2  174.494
 10.3636  30419.1  173.449
 10.4056  29956.7  172.529
 10.4476  29973.9  172.189
 10.4896  30247.5  172.415
 10.5316  29415.9  170.756
 10.5736  29377.9  171.057
 10.6156  29129.5  170.08
 10.6576  29211.5  168.876
 10.6996  28670.8  168.016
 10.7416  28364.5  167.333
 10.7836  28075.9  167.148
 10.8256  27675.4  166.388
 10.8676  27796.7  166.28
 10.9096  27680.4  165.974
 10.9516  27282  163.705
 10.9936  27395.5  164.265
 11.0356  27092.7  163.959
 11.0776  27026.7  163.095
 11.1196  26554  162.425
 11.1616  26141.4  160.827
 11.2036  26349.4  161.318
 11.2456  26097.5  161.254
 11.2876  26580.4  162.458
 11.3296  25835.8  160.085
 11.3716  26438.5  161.624
 11.4136  26162  161.665
 11.4556  26102  161.14
 11.4976  26412.8  161.086
 11.5396  26597.2  161.818
 11.5816  27354.9  164.558
 11.6236  27690.3  165.801
 11.6656  27917.7  165.601
 11.7076  26601.7  162.502
 11.7496  25981.7  163.821
 11.7916  25999  159.895
 11.8336  25274.4  158.54
 11.8756  25264.8  158.061
 11.9176  25337.8  157.958
 11.9596  25297.4  158.006
 12.0016  25167  158.383
 12.0436  25339.1  158.354
 12.0856  24573.5  156.455
 12.1276  24643.2  156.514
 12.1696  24797.8  156.222
 12.2116  24813.5  156.273
 12.2536  24529.9  156.198
 12.2956  24383  154.943
 12.3376  24758.6  156.468
 12.3796  24507  156.162
 12.4216  24627.9  155.73
 12.4636  24282.7  155.579
 12.5056  24310.2  154.994
 12.5476  24434.5  154.826
 12.5896  24256.9  154.911
 12.6316  24384.4  155.477
 12.6736  24262.1  155.577
 12.7156  24406.3  155.877
 12.7576  24239.6  155.602
 12.7996  24493.6  155.039
 12.8416  24170.2  155.069
 12.8836  24537.8  156.077
 12.9256  25027.6  156.637
 12.9676  24798.4  156.322
 13.0096  24959.8  157.97
 13.0516  25017.7  157.171
 13.0936  25115.9  157.89
 13.1356  25496.9  158.016
 13.1776  24976.8  157.439
 13.2196  25317.6  158.143
 13.2616  24980.4  157.405
 13.3036  25373.2  158.599
 13.3456  25132  158.387
 13.3876  25454.8  158.472
 13.4296  25113.5  157.575
 13.4716  25093.1  157.132
 13.5136  25124.3  157.368
 13.5556  24860.9  156.888
 13.5976  25112.7  158.138
 13.6396  25045.7  157.28
 13.6816  25143.3  158.064
 13.7236  25548.6  158.912
 13.7656  27042.7  163.946
 13.8076  27810.3  164.871
 13.8496  27379.9  164.308
 13.8916  25486.3  159.661
 13.9336  24744  156.59
 13.9756  24818.2  156.19
 14.0176  24448.5  155.613
 14.0596  24734.3  156.54
 14.1016  24458.7  156.094
 14.1436  24471.2  155.256
 14.1856  23860.7  153.601
 14.2276  23658.8  153.398
 14.2696  23686.1  153.377
 14.3116  23261  151.902
 14.3536  23042  151.357
 14.3956  22956.2  150.788
 14.4376  23174.3  151.294
 14.4796  23160.7  151.245
 14.5216  22846.1  151.017
 14.5636  22614.2  149.81
 14.6056  22827.4  150.06
 14.6476  22667.2  148.773
 14.6896  22314.6  148.162
 14.7316  22012.7  148.209
 14.7736  21725.5  146.373
 14.8156  21797.6  146.632
 14.8576  21638.7  145.961
 14.8996  21150.7  145.51
 14.9416  20796.9  144.299
 14.9836  20797.9  144.287
 15.0256  20268  141.346
 15.0676  20380.2  141.958
 15.1096  20144.9  140.962
 15.1516  19645.9  139.768
 15.1936  19606.7  139.055
 15.2356  19364.7  138.471
 15.2776  19437.9  138.742
 15.3196  18981.3  137.68
 15.3616  18969.3  137.395
 15.4036  18935.6  137.127
 15.4456  19129.2  137.479
 15.4876  18959.7  136.549
 15.5296  18824.5  136.348
 15.5716  18439.6  134.552
 15.6136  18516.3  135.159
 15.6556  18511.4  134.748
 15.6976  18220  133.612
 15.7396  18112.9  133.602
 15.7816  18062  132.927
 15.8236  17838.5  132.738
 15.8656  17924.7  132.912
 15.9076  17531.5  131.263
 15.9496  18316.5  137.024
 15.9916  18059.4  136.456
 16.0336  18234.7  133.947
 16.0756  18040.5  133.552
 16.1176  17838  132.886
 16.1596  17370.5  132.329
 16.2016  17408.8  131.218
 16.2436  17391.9  131.536
 16.2856  16971.4  129.426
 16.3276  17122.4  130.465
 16.3696  17165.2  130.454
 16.4116  17051.7  130.453
 16.4536  17174.4  130.745
 16.4956  17114.6  130.248
 16.5376  16783.6  129.174
 16.5796  16716.3  128.277
 16.6216  16915.5  129.306
 16.6636  16570.5  128.171
 16.7056  16874  129.196
 16.7476  16957.1  129.041
 16.7896  16662.5  128.666
 16.8316  16722.9  128.875
 16.8736  16889.3  129.768
 16.9156  16808  129.785
 16.9576  16566.1  129.657
 16.9996  16577.7  130.182
 17.0416  16763.3  129.264
 17.0836  16875.1  129.452
 17.1256  16671.4  128.677
 17.1676  16679.3  128.663
 17.2096  16500.3  127.867
 17.2516  16485.5  127.593
 17.2936  16384.1  127.553
 17.3356  16218.8  126.896
 17.3776  16082.3  126.551
 17.4196  16036.4  126.07
 17.4616  15893.7  125.418
 17.5036  15612.6  124.67
 17.5456  15713.5  125.695
 17.5876  15535  124.029
 17.6296  15511.5  123.773
 17.6716  15416.3  123.975
 17.7136  15348.4  123.832
 17.7556  15318.4  124.005
 17.7976  15339.5  123.823
 17.8396  15339.9  123.326
 17.8816  14950.4  122.31
 17.9236  14984.2  122.236
 17.9656  14910.1  122.462
 18.0076  14983.7  122.348
 18.0496  14816.9  120.795
 18.0916  14889.3  121.555
 18.1336  14872.1  121.671
 18.1756  14955.4  121.564
 18.2176  14536.5  120.058
 18.2596  14586.6  119.997
 18.3016  14709.7  120.763
 18.3436  14616.9  120.389
 18.3856  14475.3  120.122
 18.4276  14664.6  120.397
 18.4696  14430.3  119.512
 18.5116  14499.9  120.076
 18.5536  14438.3  120.178
 18.5956  14312.9  119.224
 18.6376  14282.2  119.496
 18.6796  14317.1  118.955
 18.7216  14348.7  119.582
 18.7636  14334.9  119.53
 18.8056  14200.7  118.893
 18.8476  13998.7  118.668
 18.8896  14254.5  119.081
 18.9316  14277.9  119.147
 18.9736  14194.9  118.512
 19.0156  14157.5  118.774
 19.0576  14200.1  117.8
 19.0996  14217.8  118.572
 19.1416  14123.5  118.592
 19.1836  14012.8  117.729
 19.2256  13883  117.489
 19.2676  14144.2  118.587
 19.3096  13960.2  118.057
 19.3516  13847.5  117.541
 19.3936  13850.9  117.446
 19.4356  14159.6  118.635
 19.4776  14082  118.402
 19.5196  14080.6  118.247
 19.5616  14029.8  118.293
 19.6036  13969.5  117.534
 19.6456  14024.1  117.879
 19.6876  14035.1  117.564
 19.7296  14314.9  119.196
 19.7716  13831.2  117.336
 19.8136  14253.2  119.313
 19.8556  14223.7  118.668
 19.8976  14075  118.107
 19.9396  14181.2  118.138
 19.9816  14284.9  118.823
 20.0236  14527.5  120.01
 20.0656  14623.7  120.415
 20.1076  14995.1  122.423
 20.1496  15113.3  122.897
 20.1916  15343.1  123.33
 20.2336  15240.9  122.846
 20.2756  14837.7  121.65
 20.3176  14468  119.868
 20.3596  14219.4  118.823
 20.4016  14275.5  118.844
 20.4436  13968.5  118.036
 20.4856  13901.6  117.636
 20.5276  13813.4  117.736
 20.5696  13900  117.533
 20.6116  13716.3  117.041
 20.6536  13764.1  116.725
 20.6956  13592.7  116.153
 20.7376  13389.1  115.501
 20.7796  13529.1  115.781
 20.8216  13677  116.124
 20.8636  13574.3  116.064
 20.9056  13392.9  115.231
 20.9476  13436  115.258
 20.9896  13609  115.858
 21.0316  13387.3  114.81
 21.0736  13406.8  115.416
 21.1156  13154.1  114.49
 21.1576  13410.1  115.641
 21.1996  13237.4  114.869
 21.2416  13276.6  114.859
 21.2836  13299.1  114.94
 21.3256  13184.8  114.569
 21.3676  13282.7  114.471
 21.4096  13148.8  114.217
 21.4516  13078.9  113.794
 21.4936  12825.7  112.946
 21.5356  13159.7  114.357
 21.5776  13181.2  114.278
 21.6196  12989.4  113.489
 21.6616  12921.1  113.27
 21.7036  13068.9  113.686
 21.7456  13044.3  113.655
 21.7876  12872.2  112.669
 21.8296  12965.7  112.914
 21.8716  13029.8  113.428
 21.9136  13182.9  114.296
 21.9556  12960.6  112.999
 21.9976  12825.4  112.435
 22.0396  12820.5  112.671
 22.0816  12771  112.979
 22.1236  12925.1  113.124
 22.1656  12960.8  113.781
 22.2076  12638.2  111.46
 22.2496  12634.4  111.471
 22.2916  12620.1  111.292
 22.3336  12609.8  111.969
 22.3756  12481.3  111.12
 22.4176  12533.5  111.205
 22.4596  12347.9  110.964
 22.5016  12379.3  110.614
 22.5436  12878.5  112.798
 22.5856  12864.8  112.883
 22.6276  13036.3  113.764
 22.6696  12676.5  112.548
 22.7116  12676.2  112.05
 22.7536  12583  111.616
 22.7956  12573.8  110.904
 22.8376  12438.4  110.827
 22.8796  12413.8  110.52
 22.9216  12682.5  112.259
 22.9636  12526.3  110.716
 23.0056  12336.6  110.005
 23.0476  12577.9  111.65
 23.0896  12766.1  111.856
 23.1316  12634.9  111.719
 23.1736  12796.4  115.397
 23.2156  12899.7  113.217
 23.2576  13096.7  114.208
 23.2996  12872.8  112.996
 23.3416  13135.8  114.691
 23.3836  13200.5  114.181
 23.4256  13268  114.593
 23.4676  12952  112.917
 23.5096  12987.6  113.74
 23.5516  12937.8  112.804
 23.5936  12879.8  113.477
 23.6356  13259.6  114.79
 23.6776  12853.8  113.24
 23.7196  12911.9  113.064
 23.7616  12737  112.215
 23.8036  13017.9  113.497
 23.8456  12972  112.689
 23.8876  12772.5  112.329
 23.9296  12744.5  112.701
 23.9716  12711.9  111.755
 24.0136  12722.1  112.715
 24.0556  12580  111.797
 24.0976  12344.8  110.563
 24.1396  12431.5  113.594
 24.1816  12566.2  112.598
 24.2236  12541.8  112.115
 24.2656  12453.2  111.179
 24.3076  12149.3  110.089
 24.3496  12275.4  110.537
 24.3916  12330.5  110.839
 24.4336  12211.5  110.507
 24.4756  12228.1  110.462
 24.5176  12068.7  109.356
 24.5596  12088.9  109.563
 24.6016  11868.6  108.867
 24.6436  12127.3  109.554
 24.6856  12046  108.929
 24.7276  11887.2  108.537
 24.7696  11888.2  108.649
 24.8116  11747.4  108.18
 24.8536  11854.6  108.678
 24.8956  11743.9  107.899
 24.9376  11642  107.354
 24.9796  11633.3  107.682
 25.0216  11598.9  107.642
 25.0636  11656.9  107.56
 25.1056  11394.3  107.045
 25.1476  11514.4  109.261
 25.1896  11422  107.31
 25.2316  11503.1  106.967
 25.2736  11381.6  106.047
 25.3156  11420.7  106.302
 25.3576  11256.6  105.971
 25.3996  11347.1  106.386
 25.4416  11393.2  106.575
 25.4836  11249.6  106.427
 25.5256  11157  105.343
 25.5676  11277  105.637
 25.6096  11160.8  105.672
 25.6516  11109.4  104.931
 25.6936  11173.3  105.545
 25.7356  11140.2  105.526
 25.7776  11200.9  105.411
 25.8196  10946  104.449
 25.8616  11044.8  104.845
 25.9036  11226.7  105.149
 25.9456  11117.6  105.242
 25.9876  10996.8  104.732
 26.0296  11155.1  104.998
 26.0716  11087.3  105.102
 26.1136  11091  105.049
 26.1556  11124.8  104.593
 26.1976  10988.9  104.888
 26.2396  10991  104.048
 26.2816  11025.2  104.823
 26.3236  10986.8  104.798
 26.3656  11189.3  105.471
 26.4076  10981.7  104.701
 26.4496  11149.4  105.072
 26.4916  11443.5  106.338
 26.5336  11435.7  106.747
 26.5756  11767.1  108.077
 26.6176  11280.8  105.847
 26.6596  11078.9  105.201
 26.7016  11053.6  104.838
 26.7436  11016  104.796
 26.7856  10968.4  104.549
 26.8276  10772.7  103.583
 26.8696  10744.3  103.314
 26.9116  10811.3  103.58
 26.9536  10700.9  103.091
 26.9956  10572.4  102.509
 27.0376  10810.8  103.883
 27.0796  10730.7  103.223
 27.1216  10712.2  103.185
 27.1636  10544.8  102.558
 27.2056  10622.4  102.808
 27.2476  10500.9  102.209
 27.2896  10421.2  101.947
 27.3316  10573.4  102.397
 27.3736  10396.6  101.805
 27.4156  10491.3  102.105
 27.4576  10597.8  102.852
 27.4996  10646.6  102.688
 27.5416  10426.2  101.922
 27.5836  10409.3  101.682
 27.6256  10470.7  102.168
 27.6676  10394.7  101.784
 27.7096  10455.5  101.955
 27.7516  10401.4  101.75
 27.7936  10664.4  103.271
 27.8356  10452.2  101.86
 27.8776  10622.1  102.735
 27.9196  10319  101.119
 27.9616  10285.3  101.162
 28.0036  10342.8  101.396
 28.0456  10155  100.614
 28.0876  10166.8  100.756
 28.1296  10314.1  101.314
 28.1716  10316.1  101.344
 28.2136  10179.1  100.629
 28.2556  10234.7  101.021
 28.2976  10149.4  100.598
 28.3396  10000.5  99.6115
 28.3816  10126.9  100.248
 28.4236  10014.6  99.8476
 28.4656  9949.89  99.5609
 28.5076  9981.7  99.3634
 28.5496  10238.9  100.878
 28.5916  10092.3  99.9772
 28.6336  10115.8  100.444
 28.6756  10165.7  99.8807
 28.7176  9997.33  99.6052
 28.7596  9941.25  99.2215
 28.8016  10064.1  99.8688
 28.8436  9916.35  99.3722
 28.8856  10026.4  99.7747
 28.9276  9968.23  99.7348
 28.9696  9904.47  99.0702
 29.0116  9871.33  99.0954
 29.0536  9693.79  98.4
 29.0956  9962.89  99.4455
 29.1376  9898.59  99.1035
 29.1796  9874.15  99.0265
 29.2216  9851.14  98.7563
 29.2636  9873.77  98.9479
 29.3056  9758.33  98.1425
 29.3476  9811.18  98.9374
 29.3896  9785.92  98.9318
 29.4316  9724.84  97.9426
 29.4736  9648.08  97.6277
 29.5156  9673.51  97.6698
 29.5576  9632.04  98.2052
 29.5996  9500.28  96.7962
 29.6416  9648  97.6634
 29.6836  9523.94  96.9638
 29.7256  9588.06  97.8538
 29.7676  9654.05  97.8453
 29.8096  9664.17  97.8435
 29.8516  9369.91  96.6709
 29.8936  9469.16  97.2757
 29.9356  9723.84  98.328
 29.9776  9397.14  96.8126
 30.0196  9515.42  96.8106
 30.0616  9328.73  96.2267
 30.1036  9531.85  97.0928
 30.1456  9427.73  96.7899
 30.1876  9452.58  96.8999
 30.2296  9472.33  96.949
 30.2716  9454.07  96.4942
 30.3136  9524.75  97.7142
 30.3556  9729.12  98.7523
 30.3976  9649.6  99.8594
 30.4396  9950.1  98.709
 30.4816  9661.03  96.8665
 30.5236  9708.32  97.092
 30.5656  9682.12  97.6416
 30.6076  9692.81  97.0917
 30.6496  9800.34  98.0471
 30.6916  9414.04  96.1918
 30.7336  9581.84  97.176
 30.7756  9582.15  97.2755
 30.8176  9713.41  97.8504
 30.8596  9629.64  97.1807
 30.9016  9686.59  97.8417
 30.9436  9696.41  97.6291
 30.9856  9775.73  98.1378
 31.0276  9550.64  96.6382
 31.0696  9566.32  97.2807
 31.1116  9454.98  96.6851
 31.1536  9462.71  96.5962
 31.1956  9643.75  97.6091
 31.2376  9319.48  95.9859
 31.2796  9464.55  96.2597
 31.3216  9640.45  97.0585
 31.3636  9528.23  97.2172
 31.4056  9543.78  98.6086
 31.4476  9586.11  96.7193
 31.4896  9445.51  96.5041
 31.5316  9475.08  96.0587
 31.5736  9637.96  96.71
 31.6156  9457.69  95.8067
 31.6576  9680.28  97.0117
 31.6996  9672.84  96.6254
 31.7416  9550.51  97.1206
 31.7836  9618.32  96.4543
 31.8256  9533.54  96.2932
 31.8676  9543.15  96.3393
 31.9096  9415.63  96.0528
 31.9516  9350.95  95.903
 31.9936  9271.44  95.3121
 32.0356  9419.53  96.1245
 32.0776  9593.05  96.9007
 32.1196  9537.5  96.7247
 32.1616  9552.29  96.2395
 32.2036  9466.69  96.3225
 32.2456  9327.53  95.9961
 32.2876  9365.94  95.6846
 32.3296  9190.92  94.7508
 32.3716  9033.89  94.0551
 32.4136  9122.68  94.7246
 32.4556  9307.96  95.0538
 32.4976  9193.09  94.3725
 32.5396  9231.77  94.6382
 32.5816  9206.96  94.635
 32.6236  9164.8  94.4831
 32.6656  9301.27  95.7356
 32.7076  9108.6  94.3897
 32.7496  9036.14  93.6925
 32.7916  9239.48  94.6974
 32.8336  9196.66  94.5721
 32.8756  9355.23  95.0983
 32.9176  9052.86  94.0353
 32.9596  9044.85  94.0647
 33.0016  9125.61  94.2632
 33.0436  9116.56  94.1229
 33.0856  9128.56  94.5459
 33.1276  8841.22  92.7731
 33.1696  9110.8  94.0101
 33.2116  9041.55  93.8866
 33.2536  9157.47  94.4632
 33.2956  9111.32  94.324
 33.3376  8985.53  93.4035
 33.3796  9151.03  94.4897
 33.4216  8975.31  93.1535
 33.4636  9122.32  94.0835
 33.5056  8902.12  93.1845
 33.5476  9046.14  93.9053
 33.5896  9053.89  93.7461
 33.6316  9088.58  94.2312
 33.6736  8858.77  93.2877
 33.7156  8902.48  93.2741
 33.7576  8993.98  93.6679
 33.7996  8979.37  93.3458
 33.8416  8784.24  92.5138
 33.8836  8868.95  92.8673
 33.9256  8923.94  93.0726
 33.9676  9001.75  93.3808
 34.0096  8913.87  93.2379
 34.0516  8762.92  92.0819
 34.0936  8829.94  92.6142
 34.1356  8913.89  92.8865
 34.1776  8818.53  92.3901
 34.2196  8843.76  92.7018
 34.2616  8758.01  92.3909
 34.3036  8857.37  93.1584
 34.3456  8791  92.5513
 34.3876  8857.24  92.8842
 34.4296  8790.73  92.2227
 34.4716  8827.7  92.5203
 34.5136  8833.26  92.7929
 34.5556  8697.75  92.3372
 34.5976  8859.88  93.0002
 34.6396  8810.7  92.448
 34.6816  8852.04  92.7719
 34.7236  8786.94  92.2107
 34.7656  8754.97  92.2506
 34.8076  8572.76  91.6179
 34.8496  8598.04  91.5985
 34.8916  8755.38  92.2922
 34.9336  8703.09  92.0034
 34.9756  8778.54  92.3153
 35.0176  8694.05  92.4062
 35.0596  8827.94  92.9341
 35.1016  8759.92  92.325
 35.1436  8932.23  92.9108
 35.1856  8726.05  91.9431
 35.2276  8776.62  92.4048
 35.2696  8772.79  92.572
 35.3116  8705.41  92.3128
 35.3536  8756.81  92.2983
 35.3956  8671.29  91.5521
 35.4376  8681.25  92.1705
 35.4796  8870.08  93.2018
 35.5216  8626.9  91.8995
 35.5636  8530.94  92.1323
 35.6056  8632.06  91.6844
 35.6476  8610.83  91.468
 35.6896  8666.39  91.8534
 35.7316  8509.53  90.9929
 35.7736  8508.71  91.1773
 35.8156  8598.15  91.6575
 35.8576  8697.14  92.4299
 35.8996  8682.49  92.3256
 35.9416  8499.05  90.8476
 35.9836  8594.37  91.7058
 36.0256  8801.1  92.8115
 36.0676  8711.92  92.0862
 36.1096  8627.82  91.8037
 36.1516  8711.47  92.1391
 36.1936  8556.53  91.1367
 36.2356  8576.84  91.9183
 36.2776  8597.19  91.4966
 36.3196  8524.51  90.7694
 36.3616  8549.96  90.9827
 36.4036  8484.73  90.7627
 36.4456  8569.58  91.4247
 36.4876  8452.39  90.7395
 36.5296  8381.81  90.4032
 36.5716  8363.24  90.8418
 36.6136  8439.49  90.2689
 36.6556  8334.6  89.9024
 36.6976  8239.17  89.8829
 36.7396  8216.53  89.4851
 36.7816  8234.76  89.966
 36.8236  8183.69  89.6074
 36.8656  8170.32  89.6124
 36.9076  8148.06  89.3641
 36.9496  8206.7  89.6738
 36.9916  8179.04  89.1472
 37.0336  8256.35  89.8846
 37.0756  8224.34  89.5062
 37.1176  8120.02  89.1983
 37.1596  8182.19  89.5501
 37.2016  8246.78  90.1309
 37.2436  8215.83  89.2742
 37.2856  8191.08  89.3899
 37.3276  8067.39  88.2469
 37.3696  8113.75  89.2142
 37.4116  8097.11  89.0273
 37.4536  7932.27  87.9856
 37.4956  7860.34  87.8327
 37.5376  8294.86  91.6185
 37.5796  8236.39  91.2228
 37.6216  8278.21  89.7049
 37.6636  8364.06  90.054
 37.7056  8357.8  90.2094
 37.7476  8351.73  89.715
 37.7896  8246.97  89.6699
 37.8316  8175.17  89.4259
 37.8736  8256.44  89.4024
 37.9156  8286.07  89.5457
 37.9576  8234.94  89.1872
 37.9996  8051.67  87.8987
 38.0416  8209.48  89.5714
 38.0836  8354.41  90.2553
 38.1256  8225.38  89.5347
 38.1676  8108.76  89.0193
 38.2096  8245.04  89.3677
 38.2516  8195.76  89.3301
 38.2936  8337.5  89.8902
 38.3356  8091.94  88.4854
 38.3776  8026.21  88.3795
 38.4196  8071.02  88.4752
 38.4616  8141.31  89.1088
 38.5036  8308.15  89.8554
 38.5456  8095.1  89.5345
 38.5876  8043.82  89.2744
 38.6296  8137.01  88.7422
 38.6716  8158.33  88.6676
 38.7136  8069.39  88.1211
 38.7556  8068.49  88.6345
 38.7976  8225.36  89.4281
 38.8396  8153.49  89.4911
 38.8816  8061.54  88.7746
 38.9236  8066.85  88.605
 38.9656  8279.92  89.6704
 39.0076  8153.15  88.3857
 39.0496  8187  89.1255
 39.0916  8271.46  89.2217
 39.1336  8118.37  88.8001
 39.1756  8119.88  88.8634
 39.2176  8047.89  89.0187
 39.2596  8151.9  89.5159
 39.3016  8031.36  88.4367
 39.3436  7969.09  88.5032
 39.3856  8217.33  89.3023
 39.4276  8377.62  90.6958
 39.4696  8131.55  88.9668
 39.5116  8163.88  89.667
 39.5536  8078.86  89.6088
 39.5956  8014.42  88.3674
 39.6376  8075.56  88.7038
 39.6796  8032.04  88.2049
 39.7216  8064.15  88.484
 39.7636  8078.3  89.1159
 39.8056  8036.67  88.6823
 39.8476  7992.89  88.6938
 39.8896  8172.67  89.3178
 39.9316  8087.08  89.0903
 39.9736  8059.73  88.5144
 40.0156  7974.22  87.8777
 40.0576  8001.28  88.3796
 40.0996  8217.66  88.7424
 40.1416  8088.53  88.843
 40.1836  8167.62  89.1633
 40.2256  8138.63  89.0316
 40.2676  8091.1  88.8829
 40.3096  8196.31  89.3845
 40.3516  8103.01  88.9891
 40.3936  8062.9  88.2998
 40.4356  8011.86  88.2515
 40.4776  8167.18  89.5031
 40.5196  8189.93  89.7632
 40.5616  8201.65  89.4668
 40.6036  7963.45  88.4137
 40.6456  8059.07  88.5418
 40.6876  8185.95  89.231
 40.7296  8095.32  88.8755
 40.7716  8185.5  89.4899
 40.8136  8095.15  88.9419
 40.8556  8195.88  89.627
 40.8976  8119.13  89.1252
 40.9396  8226.08  90.0582
 40.9816  8104.63  88.6816
 41.0236  8064.5  88.2446
 41.0656  8252.18  89.8079
 41.1076  8116.01  88.8348
 41.1496  8056.96  88.4071
 41.1916  8078.49  88.8499
 41.2336  8057.34  88.7396
 41.2756  8064.3  88.3786
 41.3176  8140.82  89.4075
 41.3596  8183.73  89.3819
 41.4016  8106.5  89.2233
 41.4436  8109.01  89.0166
 41.4856  8083.76  89.051
 41.5276  8026.33  88.7467
 41.5696  8067.01  88.5979
 41.6116  8071.4  89.0175
 41.6536  8023.94  88.5995
 41.6956  8119.25  89.1994
 41.7376  8078.86  89.0019
 41.7796  8012.29  88.5143
 41.8216  8071.51  89.0668
 41.8636  7978.3  88.5058
 41.9056  8043.49  88.6585
 41.9476  8145.59  89.4495
 41.9896  8161  89.1975
 42.0316  8124.97  89.0918
 42.0736  8072.27  88.9077
 42.1156  7963.36  88.1343
 42.1576  8018.57  88.5505
 42.1996  8116.33  89.2204
 42.2416  8123.07  88.7497
 42.2836  7999.17  88.2761
 42.3256  7946.15  88.0837
 42.3676  8072.19  88.5836
 42.4096  8015.34  88.2441
 42.4516  7974.26  88.153
 42.4936  7962.51  88.1083
 42.5356  7920.77  88.0174
 42.5776  8112.71  89.0114
 42.6196  8021.33  88.5703
 42.6616  7930.27  88.2365
 42.7036  7995.78  87.9716
 42.7456  8148.93  89.1692
 42.7876  7955.23  88.1897
 42.8296  8061.67  88.6289
 42.8716  7908.21  87.9467
 42.9136  7905.97  87.715
 42.9556  8007.74  88.4143
 42.9976  8038.3  88.549
 43.0396  8001.14  88.0725
 43.0816  7967.52  88.2729
 43.1236  7978.42  88.3857
 43.1656  7985.8  88.2453
 43.2076  7972.83  88.2864
 43.2496  7913.33  87.7749
 43.2916  7959.99  88.3972
 43.3336  8018.08  88.5408
 43.3756  7973.55  88.0512
 43.4176  7832.47  87.3587
 43.4596  7991.65  88.0964
 43.5016  7888.36  87.9189
 43.5436  7945.67  88.1519
 43.5856  7725.95  86.96
 43.6276  7877.45  87.6976
 43.6696  7902.8  88.0374
 43.7116  7935.87  87.7683
 43.7536  7939.24  88.291
 43.7956  7776.2  88.5897
 43.8376  7718.7  86.7924
 43.8796  7646.9  86.4648
 43.9216  7639.19  86.3427
 43.9636  7791.4  87.3048
 44.0056  7757.73  87.352
 44.0476  7675.33  86.633
 44.0896  7689.57  86.938
 44.1316  7780.02  86.9688
 44.1736  7701.27  86.6492
 44.2156  7735.22  86.6964
 44.2576  7706.22  86.857
 44.2996  7691.49  86.7434
 44.3416  7714.89  86.6413
 44.3836  7531.54  85.9318
 44.4256  7646.14  86.2248
 44.4676  7606.13  86.156
 44.5096  7601.12  86.2716
 44.5516  7640.03  86.4588
 44.5936  7655.17  86.4955
 44.6356  7581.29  85.8135
 44.6776  7673  86.6527
 44.7196  7590.44  86.4927
 44.7616  7719.24  88.5578
 44.8036  7686.48  86.7843
 44.8456  7783.45  87.5399
 44.8876  7842.84  87.8136
 44.9296  7849.82  87.192
 44.9716  7833.27  87.5373
 45.0136  7772.46  87.1319
 45.0556  7899.35  87.8173
 45.0976  7892.96  87.9299
 45.1396  7723.07  86.7203
 45.1816  7754.16  86.8571
 45.2236  7736.74  86.665
 45.2656  7695.18  86.9388
 45.3076  7685.54  86.6634
 45.3496  7691.81  87.0078
 45.3916  7631.25  86.9359
 45.4336  7887.35  88.2237
 45.4756  7652.79  86.7466
 45.5176  7809.13  87.2435
 45.5596  7723.69  86.8881
 45.6016  7707.81  87.2294
 45.6436  7814.32  86.9794
 45.6856  7799.51  87.568
 45.7276  7590.8  87.7171
 45.7696  7612.45  87.5226
 45.8116  7699.11  87.4396
 45.8536  7663.45  87.134
 45.8956  7631.41  86.2977
 45.9376  7699.41  86.1326
 45.9796  7762.66  87.185
 46.0216  7690.74  87.1195
 46.0636  7763.04  86.6484
 46.1056  7676.19  86.1681
 46.1476  7867.17  87.8322
 46.1896  7671.86  86.8975
 46.2316  7650.37  86.6196
 46.2736  7618.72  86.8391
 46.3156  7641.13  86.5434
 46.3576  7653.9  86.8158
 46.3996  7657.86  87.0009
 46.4416  7761.82  87.1594
 46.4836  7710.05  87.237
 46.5256  7735.33  87.3109
 46.5676  7685.5  87.1506
 46.6096  7785.97  87.6427
 46.6516  7681.91  86.0801
 46.6936  7611.81  86.1913
 46.7356  7704.26  86.8147
 46.7776  7536.77  86.7976
 46.8196  7612.68  86.7509
 46.8616  7439.62  85.7046
 46.9036  7327.75  84.7173
 46.9456  7556.28  85.6606
 46.9876  7639.77  86.219
 47.0296  7565.43  86.4042
 47.0716  7586.84  86.442
 47.1136  7609.99  86.2375
 47.1556  7438.58  85.1276
 47.1976  7604.19  86.1489
 47.2396  7654.12  86.8474
 47.2816  7550.42  85.9565
 47.3236  7618.8  86.7186
 47.3656  7556.01  86.2958
 47.4076  7528.01  85.9324
 47.4496  7576.01  86.2978
 47.4916  7530.44  86.2278
 47.5336  7581.78  86.3382
 47.5756  7614.72  86.6452
 47.6176  7518  85.989
 47.6596  7504.64  85.6209
 47.7016  7693.51  86.5058
 47.7436  7567.05  86.1423
 47.7856  7578.52  86.2246
 47.8276  7571.05  86.2338
 47.8696  7490.08  85.8594
 47.9116  7537.53  85.8427
 47.9536  7492.1  85.519
 47.9956  7462.92  86.0778
 48.0376  7401.8  85.49
 48.0796  7508.71  86.2326
 48.1216  7452.97  85.7357
 48.1636  7663.06  86.4945
 48.2056  7574.79  86.2684
 48.2476  7546.97  86.4013
 48.2896  7601.83  86.6424
 48.3316  7542.6  86.2423
 48.3736  7436.01  85.6552
 48.4156  7442.92  85.6582
 48.4576  7537.55  86.3928
 48.4996  7635.03  86.3892
 48.5416  7618.71  86.6283
 48.5836  7486.43  85.547
 48.6256  7643.69  86.65
 48.6676  7445.05  86.0405
 48.7096  7519.15  85.7123
 48.7516  7484.47  85.6756
 48.7936  7492.98  85.8887
 48.8356  7554.02  86.1848
 48.8776  7581.05  86.9312
 48.9196  7721.83  87.074
 48.9616  7566.12  86.5869
 49.0036  7545.85  86.8319
 49.0456  7481.96  86.4458
 49.0876  7598.15  86.6331
 49.1296  7428.04  85.8222
 49.1716  7318.58  85.2878
 49.2136  7551.78  86.3161
 49.2556  7528.8  86.2159
 49.2976  7545.14  86.3874
 49.3396  7420.84  85.7365
 49.3816  7406.37  85.2298
 49.4236  7464.19  85.828
 49.4656  7399.3  85.4831
 49.5076  7497.89  85.7907
 49.5496  7441.29  85.534
 49.5916  7540.89  86.0219
 49.6336  7471.04  85.8229
 49.6756  7539.22  86.4479
 49.7176  7471.74  86.0108
 49.7596  7494.62  85.9001
 49.8016  7498.01  85.8399
 49.8436  7450.17  85.8669
 49.8856  7413.13  85.6632
 49.9276  7492.23  86.2137
 49.9696  7486.24  86.1631
 50.0116  7428.41  85.9647
 50.0536  7423.42  85.8827
 50.0956  7399.74  85.8199
 50.1376  7404.35  85.5372
 50.1796  7330.73  85.3916
 50.2216  7390.53  85.7278
 50.2636  7322.96  84.9385
 50.3056  7326.59  85.1488
 50.3476  7337.44  85.2291
 50.3896  7312.48  85.0596
 50.4316  7438.09  85.6044
 50.4736  7340.94  85.2782
 50.5156  7385.93  85.5276
 50.5576  7464.8  85.7414
 50.5996  7326.35  85.2236
 50.6416  7332.22  85.1797
 50.6836  7416.64  85.7385
 50.7256  7369.41  85.3873
 50.7676  7541.4  86.7046
 50.8096  7267.54  84.642
 50.8516  7409.1  85.8879
 50.8936  7205.71  84.4834
 50.9356  7382.99  85.6263
 50.9776  7315.05  85.3967
 51.0196  7201.19  84.8611
 51.0616  7242.68  84.3994
 51.1036  7277.39  84.9796
 51.1456  7273.6  84.8684
 51.1876  7289.15  84.2743
 51.2296  7187.15  84.3277
 51.2716  7194.03  84.0765
 51.3136  7171.1  84.4124
 51.3556  7108.92  83.6618
 51.3976  7030.94  83.348
 51.4396  7056.32  83.8212
 51.4816  7071.1  83.759
 51.5236  7164.05  84.3957
 51.5656  7131.37  83.7881
 51.6076  7189  84.2073
 51.6496  7161.61  84.2494
 51.6916  7146.92  84.531
 51.7336  7095.37  84.3208
 51.7756  7141.27  84.2763
 51.8176  7036.22  83.7696
 51.8596  7010.8  83.633
 51.9016  7198.39  84.339
 51.9436  7103.28  85.2992
 51.9856  7240.8  86.5385
 52.0276  7299.07  85.3305
 52.0696  7352.95  85.7116
 52.1116  7149.34  84.6481
 52.1536  7210.81  84.8812
 52.1956  7176.14  84.1272
 52.2376  7414.11  85.6926
 52.2796  7229.66  84.4366
 52.3216  7076.39  84.2323
 52.3636  7226.35  84.6755
 52.4056  7081.41  83.687
 52.4476  7026.69  83.7385
 52.4896  7035.68  83.8391
 52.5316  7242.86  85.113
 52.5736  7122.3  84.1171
 52.6156  7268.8  85.389
 52.6576  7053.11  83.5354
 52.6996  6907.16  83.6615
 52.7416  7046.77  84.4327
 52.7836  7283.59  85.6504
 52.8256  7092.64  83.6993
 52.8676  6933.31  83.351
 52.9096  7024.44  83.9603
 52.9516  7061.42  84.5899
 52.9936  7132.6  85.3986
 53.0356  7229.39  84.9293
 53.0776  7083.65  84.36
 53.1196  7158.08  84.9327
 53.1616  7134.99  84.8424
 53.2036  7174.95  85.0397
 53.2456  7119.92  84.8155
 53.2876  7095.48  84.3577
 53.3296  7052.52  84.4406
 53.3716  7111.12  84.5275
 53.4136  7140.49  84.8588
 53.4556  7102.84  84.6669
 53.4976  7075.54  84.3342
 53.5396  6907.7  83.7324
 53.5816  7051.93  84.2326
 53.6236  7002.17  84.2812
 53.6656  7154.58  84.7957
 53.7076  7052.89  84.1304
 53.7496  7118.8  84.6842
 53.7916  7132.78  84.9002
 53.8336  7094.3  84.5586
 53.8756  6936.27  84.1696
 53.9176  6963.63  83.66
 53.9596  6778.43  83.3194
 54.0016  6810.63  82.8294
 54.0436  6653.68  82.099
 54.0856  6871.26  82.8514
 54.1276  6936.84  83.4322
 54.1696  6805.76  82.8052
 54.2116  6892.46  83.0743
 54.2536  6892.14  82.8934
 54.2956  6905.62  83.0288
 54.3376  6780.43  82.7736
 54.3796  6744.73  82.4359
 54.4216  6701.64  82.062
 54.4636  6767.26  82.59
 54.5056  6804.51  82.6296
 54.5476  6744.38  82.5979
 54.5896  6779.38  82.6578
 54.6316  6762.19  82.3898
 54.6736  6793.22  82.6746
 54.7156  6759.5  82.4915
 54.7576  6627.33  81.668
 54.7996  6797.41  82.8287
 54.8416  6708.34  82.3659
 54.8836  6699.62  82.4161
 54.9256  6695.61  82.137
 54.9676  6607.93  81.4698
 55.0096  6728.88  82.224
 55.0516  6615.35  81.7688
 55.0936  6730.43  82.1464
 55.1356  6592.66  81.3383
 55.1776  6871.32  83.2827
 55.2196  6705.3  82.0394
 55.2616  6808.96  82.9192
 55.3036  6685.47  82.3414
 55.3456  6532.59  81.5458
 55.3876  6742.1  82.548
 55.4296  6553.86  81.3985
 55.4716  6622.42  81.8449
 55.5136  6648.49  81.7588
 55.5556  6749.67  82.4509
 55.5976  6509.42  81.0449
 55.6396  6731.28  82.3464
 55.6816  6649.2  81.7119
 55.7236  6487.61  80.7748
 55.7656  6688.99  81.7416
 55.8076  6555.71  80.9251
 55.8496  6538.65  81.1351
 55.8916  6571.88  81.5493
 55.9336  6660.95  81.9244
 55.9756  6595.75  81.4113
 56.0176  6632.21  81.774
 56.0596  6545.77  81.2292
 56.1016  6450.22  80.6631
 56.1436  6485.18  81.1431
 56.1856  6507.76  81.0195
 56.2276  6662.23  82.0325
 56.2696  6559.83  81.3747
 56.3116  6620.77  82.1338
 56.3536  6580.6  81.541
 56.3956  6438.33  80.6343
 56.4376  6493.4  81.0072
 56.4796  6469.29  80.694
 56.5216  6443.15  80.9024
 56.5636  6483.76  80.7259
 56.6056  6609.35  81.745
 56.6476  6413.17  80.1337
 56.6896  6659.5  82.1285
 56.7316  6526.65  81.2251
 56.7736  6429.09  80.591
 56.8156  6428.54  80.6306
 56.8576  6291.1  79.7013
 56.8996  6472.73  80.7417
 56.9416  6370.25  80.4122
 56.9836  6468.07  80.5477
 57.0256  6423.54  80.6048
 57.0676  6472.71  81.0115
 57.1096  6456.83  80.7011
 57.1516  6370.43  80.2157
 57.1936  6501.82  80.7742
 57.2356  6300.19  79.8527
 57.2776  6431.09  80.6505
 57.3196  6309.39  80.2251
 57.3616  6462.01  80.6833
 57.4036  6413.98  80.4224
 57.4456  6555.51  81.3097
 57.4876  6533.91  81.0379
 57.5296  6365.67  80.3085
 57.5716  6388.93  80.4556
 57.6136  6317.01  79.8473
 57.6556  6377.29  80.3507
 57.6976  6429.27  80.5101
 57.7396  6287.59  79.9588
 57.7816  6255.48  80.1412
 57.8236  6243.78  79.9003
 57.8656  6411.92  80.5778
 57.9076  6379.8  80.3722
 57.9496  6361  80.6316
 57.9916  6338.9  79.9878
 58.0336  6321.29  80.1801
 58.0756  6332.09  79.8809
 58.1176  6348.2  79.9737
 58.1596  6259.42  80.0052
 58.2016  6168.1  78.6356
 58.2436  6118.58  78.7307
 58.2856  5960.41  77.6285
 58.3276  6122.18  79.0444
 58.3696  6055.34  78.3663
 58.4116  6194.85  79.1291
 58.4536  6096.75  78.3859
 58.4956  6039.24  78.1956
 58.5376  6232.16  78.9946
 58.5796  6088.46  78.5068
 58.6216  6142.53  78.6727
 58.6636  6112.35  78.6893
 58.7056  6125.85  78.6346
 58.7476  6003.13  78.2848
 58.7896  5969.54  77.7139
 58.8316  6116.55  78.6597
 58.8736  6086.84  78.4765
 58.9156  6004.53  77.9869
 58.9576  6074.81  78.7671
 58.9996  6146.81  78.4714
 59.0416  6164.54  78.9513
 59.0836  6124.14  78.6095
 59.1256  5986.86  78.425
 59.1676  6187.46  80.0444
 59.2096  6149.07  79.0955
 59.2516  6121.94  78.499
 59.2936  6169.26  79.1334
 59.3356  5954.36  77.6215
 59.3776  6165.84  79.1587
 59.4196  5956.11  77.7373
 59.4616  6106.1  78.569
 59.5036  6024.96  78.0807
 59.5456  6068.04  78.0519
 59.5876  5962.04  77.557
 59.6296  5976.22  77.718
 59.6716  6100.74  78.5818
 59.7136  6060.07  78.3077
 59.7556  5882.38  77.2858
 59.7976  6071  78.2566
 59.8396  5942.36  77.3181
 59.8816  5987.7  78.1524
 59.9236  5971.01  77.6923
 59.9656  6074.3  78.623
 60.0076  5909.94  76.9161
 60.0496  6080.88  78.0454
 60.0916  6197.09  78.6835
 60.1336  6017.3  78.639
 60.1756  6106.72  80.412
 60.1996  6052.44  82.2928