File: docs/examples/opeando_xrd/IS17_D/Data/IS17_D/17_Da_f00034.xye
# /beamlines/bl04/projects/cycle2025-II/20250340211-lsimonelli/DATA/IS17_D/17_Da_f00034.xye : mythproc.py merge -s 0.006 -l 0.5 -f /beamlines/bl04/inhouse/ff/FlatField/ff_20Nov2024rod8mm60s_17keV.raw -b True -c true -o xye /beamlines/bl04/projects/cycle2025-II/20250340211-lsimonelli/DATA/IS17_D/17_Da_00034.dat
# IsMon = [6778679, 6781976, 6782622]  IsPos = [-1.5000, -2.4885, -3.4988]
# Wave = 0.4962  CalPath /beamlines/bl04/projects/cycle2025-II/20250340211-lsimonelli/DATA/Align/Si_Pos1_25keV_f00001.cal
# Date = 2025-09-24_03:02:35 Dt = 4.8000  Bin = 0.0060  <imon> = 6781092 +/- 1727 (Min/Max) 6778679 / 6782622
# icurr 251.8768  mocoIn 1.7185E-05  mocoOut 0.8066  i15 7.09734e+06  imon 6.78109e+06  i7 7.3333  iEMpd_timer 4.8000  iEMpd_1 3.4930E-08  iEMpd_2 7.8244E-08  iEMpd_3 1.5013E-08  iEMpd_4 4.7427E-08  iEMhp_timer 4.8000  iEMhp_1 4.9227E-06  iEMhp_2 -2.6639E-08  iEMhp_3 -2.3051E-08  iEMhp_4 -2.2451E-08
#      9776
 1.5856  40558.7  206.834
 1.6276  47084.7  219.03
 1.6696  54660.9  235.162
 1.7116  62865.9  252.688
 1.7536  72536.2  270.272
 1.7956  77547.4  280.15
 1.8376  72903.9  272.064
 1.8796  61444.8  247.925
 1.9216  49594.1  223.63
 1.9636  41476.4  204.188
 2.0056  37279.3  192.344
 2.0476  34677.5  187.545
 2.0896  33444.6  183.101
 2.1316  32232.4  178.888
 2.1736  30736.9  176.074
 2.2156  31249.3  176.111
 2.2576  30161.5  173.638
 2.2996  29114.5  171.225
 2.3416  29394.4  170.673
 2.3836  28852.6  169.196
 2.4256  27946  167.059
 2.4676  27489.8  165.455
 2.5096  27252.9  164.795
 2.5516  26863.4  167.377
 2.5936  26392.4  162.557
 2.6356  25916.6  161.767
 2.6776  25799.3  160.308
 2.7196  25476.5  159.808
 2.7616  25388.2  159.313
 2.8036  25054.8  158.432
 2.8456  25106.1  159.205
 2.8876  24602  157.447
 2.9296  24191.2  156.278
 2.9716  24060.9  155.355
 3.0136  23833.6  154.687
 3.0556  23886.9  155.249
 3.0976  23755.6  153.772
 3.1396  23516.6  153.704
 3.1816  23279.3  152.862
 3.2236  23167.1  152.483
 3.2656  23061.9  151.186
 3.3076  23040.5  152.56
 3.3496  23216.1  152.336
 3.3916  23583.2  153.119
 3.4336  24094.2  155.341
 3.4756  24463.2  156.457
 3.5176  25279.7  158.839
 3.5596  25211.8  161.594
 3.6016  25317.2  159.004
 3.6436  24424.4  157.264
 3.6856  24160.2  154.724
 3.7276  23190.3  152.66
 3.7696  22965.8  151.913
 3.8116  22624.6  150.866
 3.8536  22692.6  151.03
 3.8956  22701.9  150.887
 3.9376  22273.4  149.706
 3.9796  22348.5  149.473
 4.0216  22468.7  148.918
 4.0636  22457.4  150.34
 4.1056  22423.4  149.871
 4.1476  22671.7  151.016
 4.1896  22950.2  151.8
 4.2316  23109.7  152.151
 4.2736  23674.3  153.786
 4.3156  23775.4  154.343
 4.3576  24511.1  156.637
 4.3996  24937  158.25
 4.4416  25306  159.007
 4.4836  25755.3  160.559
 4.5256  26169.2  162.464
 4.5676  26141  162.622
 4.6096  26567.1  162.965
 4.6516  27162.4  164.131
 4.6936  27420.6  165.716
 4.7356  27522.8  165.859
 4.7776  27445.3  165.454
 4.8196  27065  164.958
 4.8616  26638  163.266
 4.9036  26252.4  161.7
 4.9456  26428  162.882
 4.9876  25658.6  160.396
 5.0296  25951.8  161.121
 5.0716  25887.6  161.554
 5.1136  25971  161.669
 5.1556  26301.2  162.158
 5.1976  26669.1  163.292
 5.2396  26841.3  163.511
 5.2816  26796.5  163.841
 5.3236  27033.4  164.261
 5.3656  26453.7  163.407
 5.4076  26104.3  162.474
 5.4496  26323.8  162.641
 5.4916  26300.2  162.33
 5.5336  26290.6  162.305
 5.5756  26113.3  161.794
 5.6176  26129.9  161.282
 5.6596  26496.8  163.229
 5.7016  26589.4  162.933
 5.7436  27010.9  164.493
 5.7856  26762.9  163.793
 5.8276  27015.5  164.286
 5.8696  27217.4  164.969
 5.9116  27112.2  165.349
 5.9536  27363.4  165.874
 5.9956  27872.4  166.768
 6.0376  27636.4  166.699
 6.0796  27900.3  167.325
 6.1216  28023.4  167.889
 6.1636  28281.6  167.732
 6.2056  28223.4  168.218
 6.2476  28494.7  168.727
 6.2896  28426.4  168.384
 6.3316  28475.5  168.708
 6.3736  28731  169.351
 6.4156  28558.5  168.795
 6.4576  29021.2  169.708
 6.4996  28968.6  170.025
 6.5416  29073.2  170.473
 6.5836  29081.5  170.723
 6.6256  28833.1  169.564
 6.6676  29523.3  171.151
 6.7096  29507.2  171.959
 6.7516  29748.4  172.309
 6.7936  29858.3  172.066
 6.8356  30332.9  173.504
 6.8776  30391.4  174.46
 6.9196  30382.6  174.839
 6.9616  30770  175.371
 7.0036  31274  176.482
 7.0456  31409.7  176.162
 7.0876  31292  177.435
 7.1296  31116.4  176.16
 7.1716  30978.5  175.313
 7.2136  30877  174.806
 7.2556  31172.2  175.801
 7.2976  31107.4  176.111
 7.3396  31179.4  176.52
 7.3816  31024.4  176.301
 7.4236  31155.9  175.97
 7.4656  31171.6  175.509
 7.5076  31475.5  176.494
 7.5496  31415.7  176.852
 7.5916  31441.6  176.959
 7.6336  31884.6  178.103
 7.6756  32074.1  178.482
 7.7176  32218.6  179.193
 7.7596  32083.2  180.043
 7.8016  32433  183.17
 7.8436  33064.2  181.641
 7.8856  33309.3  181.934
 7.9276  33719.4  183.434
 7.9696  33926.1  184.304
 8.0116  35067.6  185.928
 8.0536  35077  186.205
 8.0956  35128.7  187.506
 8.1376  35575  188.172
 8.1796  35715.7  189.082
 8.2216  36632.5  190.24
 8.2636  36535.6  190.23
 8.3056  36539.3  191.006
 8.3476  37086.5  191.758
 8.3896  36791.8  191.083
 8.4316  37043.3  191.895
 8.4736  37108.5  191.534
 8.5156  36536.3  190.326
 8.5576  36295.7  190.66
 8.5996  36165.2  189.198
 8.6416  36192.4  190.524
 8.6836  36069.5  190.03
 8.7256  36464.3  190.52
 8.7676  35880.7  191.863
 8.8096  35817.2  189.046
 8.8516  35566.3  188.057
 8.8936  35419.9  187.51
 8.9356  35065.5  186.911
 8.9776  35601.1  188.43
 9.0196  35039.7  186.623
 9.0616  35241  186.61
 9.1036  34597.8  186.088
 9.1456  34836.9  186.075
 9.1876  34754.5  185.817
 9.2296  34977.2  185.805
 9.2716  34324.3  184.147
 9.3136  34403.4  184.334
 9.3556  34779.8  185.327
 9.3976  33190.9  181.568
 9.4396  33727.4  182.921
 9.4816  32996.5  180.794
 9.5236  33072.9  180.912
 9.5656  32948.2  180.88
 9.6076  32451.7  180.03
 9.6496  32667.4  180.561
 9.6916  32586.2  180.301
 9.7336  32421.4  179.635
 9.7756  32576.6  181.249
 9.8176  31585.9  178.031
 9.8596  31879.4  177.335
 9.9016  31327.9  175.789
 9.9436  31038.3  174.721
 9.9856  30482  173.522
 10.0276  30557.1  174.832
 10.0696  30708.1  174.322
 10.1116  29730.1  171.775
 10.1536  29560.3  170.974
 10.1956  29259.4  170.184
 10.2376  28951.1  168.808
 10.2796  28928.3  168.86
 10.3216  29099.3  169.478
 10.3636  28701.3  168.49
 10.4056  28268.1  167.596
 10.4476  28343.3  167.456
 10.4896  28564  167.571
 10.5316  27864.3  165.884
 10.5736  27920.9  166.764
 10.6156  27416.3  165.032
 10.6576  27723.3  164.54
 10.6996  27390  164.194
 10.7416  26945  163.092
 10.7836  27114.5  164.27
 10.8256  26630.6  163.223
 10.8676  26853.7  163.446
 10.9096  26385.5  162.056
 10.9516  25974.1  159.747
 10.9936  26206.7  160.652
 11.0356  25947.3  160.477
 11.0776  25841.9  159.479
 11.1196  25626.6  159.536
 11.1616  25192.6  157.881
 11.2036  25269.7  157.987
 11.2456  25356.7  158.945
 11.2876  25156.3  158.056
 11.3296  25076.8  157.708
 11.3716  25423.1  158.523
 11.4136  25270.1  158.893
 11.4556  25402.5  158.975
 11.4976  25556.7  158.448
 11.5396  25939.8  159.797
 11.5816  26275.5  161.282
 11.6236  25869.9  160.476
 11.6656  25398.7  157.965
 11.7076  24893.9  157.203
 11.7496  24648.1  160.263
 11.7916  24610.3  155.583
 11.8336  24076.4  154.778
 11.8756  24045.5  154.199
 11.9176  24193.7  154.321
 11.9596  23759.5  153.133
 12.0016  23811.5  154.075
 12.0436  23924.3  153.868
 12.0856  23626  153.424
 12.1276  23413.3  152.647
 12.1696  23591  152.377
 12.2116  23752.5  152.891
 12.2536  23236.9  152.013
 12.2956  23400.1  151.91
 12.3376  23168  151.371
 12.3796  23385.2  152.521
 12.4216  23435.4  151.92
 12.4636  23071.6  151.619
 12.5056  23255.4  151.519
 12.5476  23488.9  151.815
 12.5896  23337.7  151.942
 12.6316  22933.2  150.784
 12.6736  23090.3  151.77
 12.7156  22943.5  151.162
 12.7576  23220.2  152.3
 12.7996  23338.4  151.353
 12.8416  23120.6  151.678
 12.8836  23515.6  152.796
 12.9256  23906  153.088
 12.9676  23889.6  153.449
 13.0096  23677.2  153.857
 13.0516  23858  153.488
 13.0936  23874.7  153.66
 13.1356  23889.7  152.984
 13.1776  23734.8  153.464
 13.2196  23965.6  153.871
 13.2616  23879.1  153.892
 13.3036  23911.6  154.145
 13.3456  23906  154.096
 13.3876  23839.1  153.395
 13.4296  23764.7  153.299
 13.4716  24006.6  153.693
 13.5136  23839.1  153.311
 13.5556  23800.8  153.782
 13.5976  24204.6  155.224
 13.6396  24050.6  154.104
 13.6816  23559.7  152.888
 13.7236  24527.5  155.753
 13.7656  23779.4  153.908
 13.8076  23873.7  153.011
 13.8496  23770.1  153.454
 13.8916  23674  153.946
 13.9336  23643.8  153.088
 13.9756  23368.2  151.556
 14.0176  23398  152.318
 14.0596  23620.7  153.009
 14.1016  23251  152.201
 14.1436  22883.6  150.15
 14.1856  22603.9  149.508
 14.2276  22314.3  149.03
 14.2696  22597.1  149.811
 14.3116  22435.6  149.167
 14.3536  21877.2  147.482
 14.3956  22019.2  147.686
 14.4376  22164.5  147.955
 14.4796  21930.3  147.166
 14.5216  21649.5  147.005
 14.5636  21601.3  146.412
 14.6056  21685.9  146.287
 14.6476  21517.2  144.954
 14.6896  21298.5  144.746
 14.7316  20828.6  144.155
 14.7736  20801.2  143.215
 14.8156  20670.2  142.804
 14.8576  20483.4  142.013
 14.8996  20325.6  142.655
 14.9416  19898.2  141.135
 14.9836  20019.9  141.53
 15.0256  19840.5  139.83
 15.0676  19721.2  139.724
 15.1096  19609.2  139.067
 15.1516  19294.8  138.497
 15.1936  19352.9  138.14
 15.2356  18874.2  136.694
 15.2776  18937.4  136.512
 15.3196  18588.8  136.238
 15.3616  18538.1  135.811
 15.4036  18487  135.487
 15.4456  18798.9  136.276
 15.4876  18561.6  135.094
 15.5296  18366.9  134.667
 15.5716  17964.2  132.792
 15.6136  17969.9  133.129
 15.6556  18032.6  132.616
 15.6976  17890.5  132.166
 15.7396  17718.3  132.122
 15.7816  17672.2  131.461
 15.8236  17288.5  130.722
 15.8656  17500  131.314
 15.9076  17192.3  129.984
 15.9496  17202.5  132.78
 15.9916  17097.2  132.81
 16.0336  16772.1  128.501
 16.0756  16980.8  129.598
 16.1176  17072.2  129.856
 16.1596  16515.1  129.037
 16.2016  16695.6  128.493
 16.2436  16386.2  127.686
 16.2856  16372.2  127.179
 16.3276  16194.9  126.901
 16.3696  16178.3  126.655
 16.4116  15920.9  126.105
 16.4536  16134.7  126.729
 16.4956  15919.6  125.631
 16.5376  16090.3  126.476
 16.5796  15945.6  125.278
 16.6216  15832  125.132
 16.6636  15883.6  125.491
 16.7056  15901.9  125.427
 16.7476  15932.5  125.086
 16.7896  15912.4  125.744
 16.8316  15829.9  125.391
 16.8736  15919.6  125.999
 16.9156  15880.1  126.163
 16.9576  15644.5  126.016
 16.9996  15861  127.365
 17.0416  16137.3  126.83
 17.0836  15789.4  125.217
 17.1256  15684.2  124.813
 17.1676  15556.6  124.297
 17.2096  15410.6  123.592
 17.2516  15383  123.56
 17.2936  15427.6  123.765
 17.3356  15087.8  122.409
 17.3776  15046.3  122.419
 17.4196  15229.8  122.856
 17.4616  14933.7  121.581
 17.5036  14841.3  121.555
 17.5456  14680.8  121.529
 17.5876  14705.7  120.699
 17.6296  14683.1  120.417
 17.6716  14543.3  120.412
 17.7136  14363.8  119.814
 17.7556  14429.1  120.365
 17.7976  14345.2  119.626
 17.8396  14335.7  119.232
 17.8816  14251.2  119.409
 17.9236  14147.5  118.792
 17.9656  14166.1  119.551
 18.0076  14270.5  119.413
 18.0496  14217  118.345
 18.0916  14231.8  118.933
 18.1336  14293.7  119.286
 18.1756  14377.4  119.17
 18.2176  14122.5  118.34
 18.2596  14206.7  118.426
 18.3016  14229.6  118.768
 18.3436  14351  119.512
 18.3856  13937.9  117.692
 18.4276  14127.7  118.166
 18.4696  14056.1  117.954
 18.5116  14038.3  118.166
 18.5536  14204.7  119.217
 18.5956  13918.9  117.576
 18.6376  13814.3  117.533
 18.6796  13835.9  116.962
 18.7216  13902.3  117.791
 18.7636  13695.4  116.833
 18.8056  13572.1  116.243
 18.8476  13759.2  117.656
 18.8896  13591.1  116.287
 18.9316  13792.1  116.961
 18.9736  13628  116.126
 19.0156  13535.6  116.133
 19.0576  13596.3  115.286
 19.0996  13686  116.362
 19.1416  13309.1  115.125
 19.1836  13525.1  115.666
 19.2256  13515.5  115.827
 19.2676  13626.6  116.403
 19.3096  13590.9  116.491
 19.3516  13489.2  115.843
 19.3936  13545.7  116.152
 19.4356  13572  116.146
 19.4776  13593.5  116.33
 19.5196  13555.2  116.008
 19.5616  13367.5  115.468
 19.6036  13539.5  115.708
 19.6456  13497.5  115.646
 19.6876  13594.4  115.714
 19.7296  13562.9  116.031
 19.7716  13430.6  115.478
 19.8136  13584.8  116.494
 19.8556  13774.5  116.785
 19.8976  13766.2  116.813
 19.9396  13795.5  116.515
 19.9816  14033.1  117.753
 20.0236  14136.8  118.408
 20.0656  14314.6  119.145
 20.1076  14188.6  119.088
 20.1496  14234.4  119.284
 20.1916  14153.2  118.414
 20.2336  13777.5  116.805
 20.2756  13604.1  116.495
 20.3176  13466.7  115.653
 20.3596  13429.4  115.466
 20.4016  13239.7  114.461
 20.4436  13252.6  115.075
 20.4856  12991.3  113.726
 20.5276  13084.8  114.581
 20.5696  13052.5  114.006
 20.6116  13003.1  113.962
 20.6536  12934.9  113.235
 20.6956  12948.4  113.362
 20.7376  12946.2  113.574
 20.7796  12825.4  112.737
 20.8216  13013  113.275
 20.8636  12922.9  113.246
 20.9056  12726.2  112.331
 20.9476  12695.4  112.044
 20.9896  12955.5  113.051
 21.0316  12982.9  113.058
 21.0736  12895.6  113.201
 21.1156  12736.8  112.653
 21.1576  12817.3  113.061
 21.1996  12791.6  112.929
 21.2416  12601.9  111.927
 21.2836  12766.4  112.615
 21.3256  12554  111.757
 21.3676  12724  112.064
 21.4096  12698.9  112.311
 21.4516  12572.4  111.576
 21.4936  12437.4  111.224
 21.5356  12497.2  111.442
 21.5776  12626.3  111.85
 21.6196  12513.7  111.376
 21.6616  12412.1  111.016
 21.7036  12486.4  111.133
 21.7456  12419.5  110.908
 21.7876  12369.3  110.436
 21.8296  12335.3  110.146
 21.8716  12340.7  110.397
 21.9136  12631.2  111.89
 21.9556  12464.5  110.823
 21.9976  12289.1  110.055
 22.0396  12290.2  110.306
 22.0816  12377.9  111.238
 22.1236  12408.7  110.83
 22.1656  12437.4  111.142
 22.2076  12463.5  110.677
 22.2496  12455.4  110.669
 22.2916  12269.1  109.718
 22.3336  12443.4  111.197
 22.3756  12269  110.161
 22.4176  12149.6  109.482
 22.4596  12156.1  110.089
 22.5016  12577.6  111.452
 22.5436  12370.2  110.437
 22.5856  12420.5  110.904
 22.6276  12223.4  110.156
 22.6696  12323.5  110.935
 22.7116  12230.4  110.054
 22.7536  12278.6  110.246
 22.7956  12251  109.461
 22.8376  12183.2  109.673
 22.8796  12310.3  110.048
 22.9216  12505.4  111.455
 22.9636  12277.7  109.604
 23.0056  12294.8  109.814
 23.0476  12279.9  110.305
 23.0896  12562.4  110.95
 23.1316  12521.5  111.2
 23.1736  12284.7  113.068
 23.2156  12411.7  111.045
 23.2576  12274.7  110.565
 23.2996  12479.2  111.268
 23.3416  12269.8  110.842
 23.3836  12425.2  110.786
 23.4256  12384.1  110.723
 23.4676  12312.9  110.096
 23.5096  12396.9  111.143
 23.5516  12258.1  109.81
 23.5936  12386.2  111.278
 23.6356  12390.6  110.956
 23.6776  12401.3  111.224
 23.7196  11948.8  108.98
 23.7616  12440.1  110.89
 23.8036  12275.9  110.207
 23.8456  12299.6  109.878
 23.8876  11874.5  108.312
 23.9296  11916.4  108.985
 23.9716  12024.4  108.687
 24.0136  12118.4  109.992
 24.0556  11898.1  108.731
 24.0976  12016.7  109.083
 24.1396  11880.4  111.083
 24.1816  11921.3  110.032
 24.2236  11935.6  109.387
 24.2656  11647.7  107.542
 24.3076  11607.2  107.6
 24.3496  11788.2  108.325
 24.3916  11737.6  108.146
 24.4336  11533.1  107.404
 24.4756  11590.3  107.542
 24.5176  11593.2  107.207
 24.5596  11432.1  106.782
 24.6016  11290.3  106.203
 24.6436  11416.8  106.288
 24.6856  11364  105.813
 24.7276  11270.5  105.679
 24.7696  11189.2  105.416
 24.8116  11245.5  105.853
 24.8536  11241.2  105.837
 24.8956  11121.5  105.013
 24.9376  10997.4  104.601
 24.9796  11010.1  104.773
 25.0216  11029.3  104.976
 25.0636  11121.7  105.071
 25.1056  10954.6  104.692
 25.1476  11009.8  106.879
 25.1896  11091.8  105.761
 25.2316  11004.1  104.62
 25.2736  11053.6  104.519
 25.3156  10929.9  104.006
 25.3576  10946.3  104.496
 25.3996  10884  104.186
 25.4416  10939.9  104.434
 25.4836  10764.2  104.108
 25.5256  10888  104.075
 25.5676  10859.7  103.665
 25.6096  10806.8  103.985
 25.6516  10711.2  103.027
 25.6936  10748.5  103.516
 25.7356  10726.4  103.547
 25.7776  10833.3  103.743
 25.8196  10577.8  102.669
 25.8616  10562.8  102.522
 25.9036  10836.3  103.317
 25.9456  10621.8  102.873
 25.9876  10586.3  102.633
 26.0296  10828  103.532
 26.0716  10567.6  102.616
 26.1136  10618.1  102.793
 26.1556  10708.2  102.618
 26.1976  10582.7  102.93
 26.2396  10731.8  103.061
 26.2816  10564.6  102.615
 26.3236  10639.6  103.133
 26.3656  10548.4  102.42
 26.4076  10809.1  103.878
 26.4496  11002.5  104.302
 26.4916  10782.1  103.252
 26.5336  10579.6  102.601
 26.5756  10882.7  103.897
 26.6176  10562.4  102.428
 26.6596  10440.3  102.141
 26.7016  10324.2  101.331
 26.7436  10425.6  101.958
 26.7856  10290.1  101.274
 26.8276  10378.7  101.67
 26.8696  10464.6  101.965
 26.9116  10374.9  101.471
 26.9536  10268.1  100.991
 26.9956  10286.3  101.11
 27.0376  10205.2  100.917
 27.0796  10348.7  101.443
 27.1216  10099.9  100.215
 27.1636  10071.5  100.237
 27.2056  10237.9  100.941
 27.2476  10189.7  100.705
 27.2896  10126.5  100.5
 27.3316  10145.2  100.308
 27.3736  10051.1  100.101
 27.4156  9957.32  99.4867
 27.4576  9994.56  99.8978
 27.4996  10076.4  99.909
 27.5416  10026.2  99.9708
 27.5836  10057.7  99.9458
 27.6256  10218.5  100.906
 27.6676  10183.3  100.751
 27.7096  9901.73  99.2171
 27.7516  9977.4  99.747
 27.7936  9908.63  99.5698
 27.8356  10019.3  99.7404
 27.8776  9920.77  99.3024
 27.9196  9874.52  98.9185
 27.9616  9914.1  99.3078
 28.0036  9929.48  99.3559
 28.0456  9996.15  99.8183
 28.0876  9852.8  99.1942
 28.1296  9834.94  98.9464
 28.1716  9812.47  98.846
 28.2136  9804.06  98.7624
 28.2556  9780.3  98.7648
 28.2976  9803.57  98.8667
 28.3396  9796.41  98.6262
 28.3816  9849.63  98.8818
 28.4236  9687.84  98.2161
 28.4656  9654.19  98.0772
 28.5076  9711.27  98.0101
 28.5496  9638.15  97.9001
 28.5916  9701.69  98.0322
 28.6336  9613.84  97.9288
 28.6756  9719.63  97.6717
 28.7176  9714.58  98.1872
 28.7596  9639.1  97.7061
 28.8016  9658.25  97.8341
 28.8436  9509.94  97.3211
 28.8856  9681.3  98.0455
 28.9276  9515.57  97.4406
 28.9696  9481.43  96.9278
 29.0116  9483.69  97.1265
 29.0536  9347.01  96.6219
 29.0956  9503.33  97.147
 29.1376  9420.63  96.6878
 29.1796  9443.25  96.8451
 29.2216  9498.8  96.977
 29.2636  9408.8  96.5122
 29.3056  9396.73  96.3189
 29.3476  9455.59  97.1402
 29.3896  9639.53  98.1601
 29.4316  9579.02  97.2019
 29.4736  9434.43  96.5291
 29.5156  9362.89  96.0868
 29.5576  9370.59  96.856
 29.5996  9447.3  96.5158
 29.6416  9389.36  96.3369
 29.6836  9540.14  97.032
 29.7256  9424.27  97.0048
 29.7676  9481.73  96.9629
 29.8096  9317.76  96.0635
 29.8516  9294.47  96.2702
 29.8936  9402.6  96.924
 29.9356  9433.35  96.8383
 29.9776  9331.67  96.4678
 30.0196  9344.55  95.9224
 30.0616  9413.14  96.6502
 30.1036  9349.97  96.1552
 30.1456  9298.14  96.1174
 30.1876  9287.05  96.0355
 30.2296  9309.61  96.1028
 30.2716  9162.71  94.9861
 30.3136  9304.16  96.5657
 30.3556  9210.3  96.0963
 30.3976  9245.53  97.7908
 30.4396  9271.76  95.2997
 30.4816  9279.55  94.9375
 30.5236  9137.94  94.229
 30.5656  9176.55  95.0699
 30.6076  9172.95  94.829
 30.6496  9310.64  95.5789
 30.6916  9131.86  94.7461
 30.7336  9192.77  95.2151
 30.7756  9044.49  94.5348
 30.8176  9074.46  94.6073
 30.8596  9141.19  94.7246
 30.9016  9236.96  95.096
 30.9436  9238.82  95.3212
 30.9856  9225.49  95.3699
 31.0276  9053.77  94.083
 31.0696  9082.38  94.8054
 31.1116  9205.87  95.4221
 31.1536  9275.71  95.6605
 31.1956  8928.75  93.9431
 31.2376  8944.3  94.0348
 31.2796  8990.71  93.8276
 31.3216  9090.62  94.2938
 31.3636  9096.88  95.0059
 31.4056  9124.89  96.4489
 31.4476  8986.38  93.6455
 31.4896  9018.57  94.3116
 31.5316  8973.98  93.5304
 31.5736  9129.78  94.1104
 31.6156  8905.21  92.9742
 31.6576  9038.19  93.7602
 31.6996  9146.78  93.9859
 31.7416  8838.55  93.3034
 31.7836  9076.24  93.71
 31.8256  8850.47  92.8767
 31.8676  9073.42  93.9624
 31.9096  8884.76  93.186
 31.9516  8781.96  92.9426
 31.9936  8931.98  93.5577
 32.0356  8924.2  93.5856
 32.0776  9013.24  93.9386
 32.1196  8967.41  93.7046
 32.1616  9057.68  93.7204
 32.2036  8796.88  92.8641
 32.2456  8790.97  93.2063
 32.2876  8911.18  93.173
 32.3296  8753.31  92.479
 32.3716  8843.03  93.0496
 32.4136  8796.74  93.0135
 32.4556  8880.53  92.9028
 32.4976  8838.91  92.5779
 32.5396  8718.15  91.9726
 32.5816  8735.63  92.1825
 32.6236  8907.7  93.1592
 32.6656  8903.5  93.6715
 32.7076  8805.97  92.814
 32.7496  8708.63  91.9779
 32.7916  8753.33  92.1652
 32.8336  8872.27  92.8813
 32.8756  8762.61  92.0386
 32.9176  8647.13  91.9015
 32.9596  8636.35  91.9187
 33.0016  8701.68  92.0636
 33.0436  8798.3  92.745
 33.0856  8606.26  91.7881
 33.1276  8639.69  91.707
 33.1696  8756.01  92.1571
 33.2116  8783.13  92.5294
 33.2536  8835.26  92.8167
 33.2956  8736.97  92.3791
 33.3376  8623.7  91.5972
 33.3796  8618.1  91.6949
 33.4216  8686.31  91.6533
 33.4636  8704.44  91.9003
 33.5056  8580.94  91.4781
 33.5476  8546.81  91.2947
 33.5896  8691.47  91.8076
 33.6316  8584.5  91.589
 33.6736  8531.92  91.5385
 33.7156  8571.72  91.7965
 33.7576  8666.37  91.9318
 33.7996  8673.32  91.7387
 33.8416  8487.65  90.928
 33.8836  8530.38  90.9357
 33.9256  8543  91.0698
 33.9676  8540.51  90.9567
 34.0096  8357.19  90.2834
 34.0516  8518.17  90.7893
 34.0936  8417.33  90.5091
 34.1356  8596.09  91.2023
 34.1776  8464.14  90.5169
 34.2196  8443.07  90.5813
 34.2616  8412.35  90.5469
 34.3036  8382.48  90.6406
 34.3456  8424.88  90.6201
 34.3876  8497.58  91.0674
 34.4296  8438.57  90.3551
 34.4716  8584.19  91.2732
 34.5136  8424.7  90.6293
 34.5556  8389.82  90.6915
 34.5976  8427.17  90.7323
 34.6396  8408.51  90.3067
 34.6816  8323.35  89.9698
 34.7236  8372.43  90.0202
 34.7656  8333.7  89.9971
 34.8076  8407.94  90.7281
 34.8496  8364.96  90.345
 34.8916  8390.79  90.3632
 34.9336  8476.1  90.7822
 34.9756  8584.03  91.2806
 35.0176  8360.76  90.6103
 35.0596  8381.68  90.5545
 35.1016  8299.34  89.8744
 35.1436  8516.51  90.7323
 35.1856  8280.02  89.5895
 35.2276  8367.11  90.2276
 35.2696  8313.39  90.1224
 35.3116  8329.24  90.3035
 35.3536  8295.42  89.8731
 35.3956  8288.41  89.511
 35.4376  8258.06  89.889
 35.4796  8327.46  90.3298
 35.5216  8206.46  89.6328
 35.5636  8018.95  89.3278
 35.6056  8335.67  90.1011
 35.6476  8257.05  89.5708
 35.6896  8338.08  90.1762
 35.7316  8151.72  89.0559
 35.7736  8101.35  88.9781
 35.8156  8129.91  89.1422
 35.8576  8186.11  89.6882
 35.8996  8453.16  91.0962
 35.9416  8230.44  89.4024
 35.9836  8200.73  89.6858
 36.0256  8297.4  90.1362
 36.0676  8270.4  89.5338
 36.1096  8065.32  88.7674
 36.1516  8212  89.4575
 36.1936  8277.56  89.6685
 36.2356  8179.47  89.7679
 36.2776  8162.02  89.1492
 36.3196  8179.1  88.9237
 36.3616  8187.11  89.094
 36.4036  8179.98  89.1124
 36.4456  8179.18  89.3211
 36.4876  8078.12  88.7033
 36.5296  8189.55  89.3606
 36.5716  8129.63  89.8004
 36.6136  8257.69  89.2808
 36.6556  8169.83  89.003
 36.6976  8076.85  88.9868
 36.7396  8155.46  89.1512
 36.7816  8091.92  89.1741
 36.8236  8164.78  89.4957
 36.8656  7956.79  88.4269
 36.9076  7966.37  88.4803
 36.9496  8033.28  88.7111
 36.9916  8088.21  88.6465
 37.0336  8216.94  89.6665
 37.0756  8085.84  88.7413
 37.1176  7864.59  87.7814
 37.1596  7855.85  87.7399
 37.2016  7908.21  88.2066
 37.2436  8076.12  88.5082
 37.2856  7976.75  88.2173
 37.3276  8049.1  87.9688
 37.3696  7967.04  88.3901
 37.4116  8019.03  88.5842
 37.4536  7837.06  87.4481
 37.4956  7781.42  87.179
 37.5376  7975.49  89.7954
 37.5796  7919.78  89.4483
 37.6216  7801.07  87.0692
 37.6636  7831.69  87.1533
 37.7056  7846.73  87.4218
 37.7476  7834.86  86.9035
 37.7896  7889.33  87.6898
 37.8316  7729.81  86.9724
 37.8736  7872  87.2934
 37.9156  7828.17  87.0579
 37.9576  7915.63  87.4286
 37.9996  7772.13  86.362
 38.0416  7769.66  87.1462
 38.0836  7966.35  88.1475
 38.1256  7860.05  87.5037
 38.1676  7677.53  86.625
 38.2096  7792.01  86.8996
 38.2516  7899.49  87.6854
 38.2936  7789.11  86.8875
 38.3356  7850.22  87.1332
 38.3776  7683.95  86.4825
 38.4196  7832.88  87.1693
 38.4616  7751.72  86.9438
 38.5036  7896.93  87.6099
 38.5456  7765.04  87.6932
 38.5876  7788.1  87.8579
 38.6296  7698.43  86.3458
 38.6716  7689.77  86.0938
 38.7136  7622.47  85.6587
 38.7556  7622.69  86.1528
 38.7976  7657.02  86.2893
 38.8396  7592.18  86.3651
 38.8816  7502.39  85.6316
 38.9236  7605.15  86.0388
 38.9656  7651.08  86.2123
 39.0076  7660.79  85.6863
 39.0496  7708.13  86.4843
 39.0916  7733.27  86.2679
 39.1336  7708.96  86.5433
 39.1756  7658.73  86.3306
 39.2176  7718.89  87.1891
 39.2596  7669.3  86.8358
 39.3016  7645.73  86.2645
 39.3436  7522.06  85.9949
 39.3856  7719.15  86.5718
 39.4276  7639.9  86.6162
 39.4696  7765.51  86.9434
 39.5116  7635.35  86.7204
 39.5536  7734.89  87.7026
 39.5956  7878.35  87.6125
 39.6376  7763.83  86.9756
 39.6796  7747.65  86.6309
 39.7216  7757.07  86.7801
 39.7636  7686.48  86.9499
 39.8056  7798.82  87.3637
 39.8476  7643.53  86.7391
 39.8896  7849.03  87.5243
 39.9316  7691.96  86.8952
 39.9736  7817.45  87.1759
 40.0156  7695.72  86.3114
 40.0576  7707.86  86.7471
 40.0996  7854.65  86.7591
 40.1416  7724.91  86.8118
 40.1836  7764.32  86.9275
 40.2256  7693.73  86.5796
 40.2676  7668.24  86.6032
 40.3096  7779.54  87.0886
 40.3516  7886.52  87.7979
 40.3936  7863.04  87.2306
 40.4356  7825.03  87.2071
 40.4776  7779.68  87.2031
 40.5196  7811.69  87.6707
 40.5616  7846.95  87.5159
 40.6036  7652.85  86.6745
 40.6456  7830.67  87.2816
 40.6876  8009.2  88.2566
 40.7296  7861.96  87.5833
 40.7716  7776.62  87.2332
 40.8136  7691.38  86.697
 40.8556  7828.1  87.6015
 40.8976  7745.67  87.0585
 40.9396  7706.86  87.1881
 40.9816  7800.28  87.0029
 41.0236  7886.47  87.2591
 41.0656  7937.74  88.0834
 41.1076  7865.38  87.4542
 41.1496  7900.81  87.5635
 41.1916  7805.44  87.3526
 41.2336  7629.26  86.3472
 41.2756  7690.61  86.3083
 41.3176  7779.16  87.4158
 41.3596  7790.65  87.2078
 41.4016  7772.69  87.3634
 41.4436  7744.82  86.9994
 41.4856  7828.3  87.6309
 41.5276  7744.83  87.1769
 41.5696  7769.42  86.9362
 41.6116  7706.17  86.9882
 41.6536  7631.6  86.4265
 41.6956  7790.07  87.3002
 41.7376  7660.52  86.6655
 41.7796  7662.86  86.6112
 41.8216  7784.14  87.4852
 41.8636  7801.99  87.521
 41.9056  7766.8  87.1124
 41.9476  7599.96  86.4057
 41.9896  7749.35  86.9257
 42.0316  7743.42  86.9728
 42.0736  7644.28  86.5512
 42.1156  7729.66  86.8422
 42.1576  7646.28  86.4665
 42.1996  7751.95  87.2017
 42.2416  7689.95  86.4329
 42.2836  7543.23  85.7247
 42.3256  7636.36  86.3648
 42.3676  7672.73  86.3777
 42.4096  7688.4  86.4297
 42.4516  7701.69  86.5973
 42.4936  7560.93  85.8649
 42.5356  7603.2  86.231
 42.5776  7681.96  86.6226
 42.6196  7759.85  87.1127
 42.6616  7526.54  85.9574
 42.7036  7695.88  86.309
 42.7456  7543.09  85.802
 42.7876  7665.91  86.5955
 42.8296  7690.84  86.5682
 42.8716  7751.94  87.0713
 42.9136  7543.2  85.6418
 42.9556  7714.26  86.7863
 42.9976  7582.24  85.9998
 43.0396  7693.43  86.3629
 43.0816  7649.28  86.4843
 43.1236  7576.12  86.1342
 43.1656  7601.82  86.1099
 43.2076  7445.77  85.3232
 43.2496  7571.35  85.8552
 43.2916  7519.55  85.9233
 43.3336  7578.07  86.0971
 43.3756  7565.21  85.7814
 43.4176  7524.07  85.6295
 43.4596  7470.58  85.1818
 43.5016  7467.14  85.5614
 43.5436  7461.22  85.4273
 43.5856  7526.27  85.8229
 43.6276  7473.04  85.4161
 43.6696  7457.96  85.471
 43.7116  7577.17  85.7706
 43.7536  7566.1  86.1925
 43.7956  7408.55  86.4502
 43.8376  7525.62  85.6889
 43.8796  7519.32  85.7339
 43.9216  7457  85.2989
 43.9636  7451.06  85.3698
 44.0056  7445.59  85.5677
 44.0476  7388.37  84.8753
 44.0896  7453.03  85.5856
 44.1316  7449.09  85.2317
 44.1736  7347.67  84.6276
 44.2156  7424.93  84.9325
 44.2576  7334.42  84.7308
 44.2996  7514.43  85.7322
 44.3416  7449.43  85.1289
 44.3836  7362.43  84.9548
 44.4256  7358.62  84.5793
 44.4676  7329.43  84.5669
 44.5096  7390.38  85.0586
 44.5516  7388.26  85.0074
 44.5936  7309.54  84.5126
 44.6356  7302.59  84.2108
 44.6776  7384.98  85.0033
 44.7196  7302.81  84.8315
 44.7616  7251.83  85.8374
 44.8036  7353.79  85.0871
 44.8456  7364.03  85.1487
 44.8876  7347.81  84.9056
 44.9296  7342.86  84.3382
 44.9716  7205.11  83.9694
 45.0136  7304.21  84.4757
 45.0556  7307.8  84.5749
 45.0976  7144.34  83.6784
 45.1396  7203.28  83.7882
 45.1816  7151.7  83.4216
 45.2236  7203.32  83.6265
 45.2656  7149.05  83.7949
 45.3076  7087.06  83.2313
 45.3496  7076.48  83.4539
 45.3916  7044.17  83.5279
 45.4336  7155.69  84.0379
 45.4756  7163.92  83.9461
 45.5176  7170.28  83.6048
 45.5596  7117.07  83.4102
 45.6016  7172.98  84.1506
 45.6436  7306.62  84.1137
 45.6856  7129.72  83.7389
 45.7276  7072.63  84.6959
 45.7696  7097.36  84.5041
 45.8116  7201.32  84.5764
 45.8536  7164.56  84.2588
 45.8956  7053.35  82.9703
 45.9376  7239.42  83.5289
 45.9796  7122.9  83.5352
 46.0216  7183.17  84.2182
 46.0636  7021.12  82.4265
 46.1056  7176.67  83.322
 46.1476  7185.84  83.9589
 46.1896  7236.44  84.4015
 46.2316  7014.57  82.9728
 46.2736  7146.62  83.952
 46.3156  7122.27  83.5608
 46.3576  7100.88  83.6283
 46.3996  6979.3  83.0726
 46.4416  7187.81  83.8564
 46.4836  6977.71  82.9973
 46.5256  7065.07  83.4536
 46.5676  6990.13  83.1212
 46.6096  7152.98  84.0205
 46.6516  7089.79  82.7106
 46.6936  7174.74  83.6842
 46.7356  7096.72  83.3364
 46.7776  6988.78  83.5184
 46.8196  6993.23  83.2858
 46.8616  6847.09  82.2232
 46.9036  6916.73  82.3055
 46.9456  6948.38  82.1426
 46.9876  6995.44  82.5057
 47.0296  6929.3  82.7819
 47.0716  6922.27  82.5699
 47.1136  6953.36  82.4429
 47.1556  6944.63  82.2591
 47.1976  6976.84  82.6012
 47.2396  6922.12  82.5931
 47.2816  6909.32  82.2213
 47.3236  7030.2  83.3048
 47.3656  6983.02  82.9478
 47.4076  6901.86  82.2089
 47.4496  6951.45  82.6687
 47.4916  6859.39  82.3042
 47.5336  6969.43  82.7756
 47.5756  7042.8  83.3277
 47.6176  6860.17  82.1455
 47.6596  6867.36  81.9064
 47.7016  6993.59  82.4775
 47.7436  6912.61  82.3318
 47.7856  6977.15  82.7374
 47.8276  6862.67  82.0959
 47.8696  6912.73  82.4888
 47.9116  6934.62  82.3381
 47.9536  6861.65  81.8442
 47.9956  6854.99  82.4979
 48.0376  6803.45  81.9617
 48.0796  6897.14  82.6556
 48.1216  6952.88  82.8087
 48.1636  7071.24  83.0933
 48.2056  6835.58  81.9522
 48.2476  6834.49  82.2435
 48.2896  6816.22  82.0508
 48.3316  6827  82.0546
 48.3736  6713.21  81.3952
 48.4156  6868.4  82.1817
 48.4576  6676.56  81.309
 48.4996  6931.21  82.3071
 48.5416  6941.27  82.6914
 48.5836  6849.67  81.829
 48.6256  6889.17  82.2657
 48.6676  6776.77  82.0846
 48.7096  6814.93  81.6063
 48.7516  6786.35  81.5836
 48.7936  6690.09  81.0609
 48.8356  6752.38  81.4875
 48.8776  6779.38  82.1246
 48.9196  6919.8  82.4411
 48.9616  6697.2  81.4665
 49.0036  6818.46  82.5437
 49.0456  6800.06  82.4125
 49.0876  6699.52  81.4477
 49.1296  6546.53  80.5736
 49.1716  6578.09  80.6371
 49.2136  6731.12  81.5063
 49.2556  6814.17  82.0339
 49.2976  6741.93  81.6711
 49.3396  6638.9  81.0904
 49.3816  6773.08  81.3626
 49.4236  6697.9  81.3143
 49.4656  6599.27  80.725
 49.5076  6719.88  81.2137
 49.5496  6643.9  80.8185
 49.5916  6697.29  81.0594
 49.6336  6747.1  81.553
 49.6756  6663.24  81.281
 49.7176  6607.35  80.8791
 49.7596  6634.91  80.824
 49.8016  6715.77  81.2329
 49.8436  6655.9  81.1512
 49.8856  6589.02  80.7616
 49.9276  6630.58  81.1094
 49.9696  6732  81.7086
 50.0116  6632.76  81.2318
 50.0536  6549.56  80.671
 50.0956  6524.78  80.5932
 50.1376  6594.95  80.7339
 50.1796  6626.97  81.1876
 50.2216  6562.6  80.7878
 50.2636  6581.94  80.533
 50.3056  6531.32  80.3937
 50.3476  6509.56  80.2819
 50.3896  6559.1  80.5569
 50.4316  6565.28  80.4299
 50.4736  6430.98  79.8151
 50.5156  6658.98  81.2015
 50.5576  6636.38  80.836
 50.5996  6562.52  80.6635
 50.6416  6556.34  80.5575
 50.6836  6519  80.3858
 50.7256  6636.55  81.0292
 50.7676  6610.22  81.1375
 50.8096  6466.3  79.8388
 50.8516  6535.18  80.6733
 50.8936  6535.89  80.4644
 50.9356  6591.16  80.9082
 50.9776  6571.41  80.9299
 51.0196  6437.53  80.2284
 51.0616  6394.74  79.3088
 51.1036  6487.28  80.2244
 51.1456  6487.26  80.1424
 51.1876  6323.79  78.4933
 51.2296  6426.52  79.7399
 51.2716  6450.98  79.6057
 51.3136  6490.08  80.297
 51.3556  6352.99  79.0806
 51.3976  6417.66  79.6286
 51.4396  6324.19  79.3452
 51.4816  6325.61  79.2073
 51.5236  6402.07  79.7687
 51.5656  6275.41  78.5957
 51.6076  6374.19  79.2891
 51.6496  6416.53  79.7399
 51.6916  6375.36  79.8296
 51.7336  6302.6  79.4618
 51.7756  6517.7  80.5114
 51.8176  6292.35  79.2057
 51.8596  6340.81  79.528
 51.9016  6516.19  80.2341
 51.9436  6382.18  80.8342
 51.9856  6273.61  80.5636
 52.0276  6457.64  80.2715
 52.0696  6364.73  79.7572
 52.1116  6340.31  79.7127
 52.1536  6463.07  80.3265
 52.1956  6355.46  79.1817
 52.2376  6419.08  79.7448
 52.2796  6428.66  79.6186
 52.3216  6273.67  79.3268
 52.3636  6320.88  79.2105
 52.4056  6241.85  78.5685
 52.4476  6303.94  79.318
 52.4896  6278.16  79.2101
 52.5316  6307.57  79.4376
 52.5736  6276.5  78.9695
 52.6156  6265.99  79.2742
 52.6576  6302.55  78.9638
 52.6996  6096.53  78.6102
 52.7416  6305.23  79.7948
 52.7836  6295.87  79.6259
 52.8256  6308.08  78.9392
 52.8676  6030.1  77.7219
 52.9096  6340.98  79.7915
 52.9516  6273.65  79.7262
 52.9936  6192.24  79.5894
 53.0356  6060.8  77.7817
 53.0776  6151.55  78.6431
 53.1196  6018.48  77.8836
 53.1616  6107.45  78.5039
 53.2036  6110.91  78.4859
 53.2456  6026.9  78.0408
 53.2876  6113.14  78.2981
 53.3296  6198.52  79.1732
 53.3716  6084.35  78.1959
 53.4136  6072.21  78.2596
 53.4556  6084.82  78.3676
 53.4976  6059.13  78.0588
 53.5396  6195.44  79.3128
 53.5816  6143.22  78.6231
 53.6236  6139.75  78.9387
 53.6656  6097.47  78.303
 53.7076  6075.71  78.1239
 53.7496  6097.43  78.3839
 53.7916  6243  79.4331
 53.8336  6064.72  78.1974
 53.8756  5990.45  78.2445
 53.9176  6169.18  78.7643
 53.9596  6136.05  79.2957
 54.0016  6074.07  78.2455
 54.0436  6114.28  78.7143
 54.0856  6136.76  78.2925
 54.1276  6090.96  78.1986
 54.1696  6138.59  78.6748
 54.2116  6024.62  77.7059
 54.2536  6083.97  77.9067
 54.2956  6132.01  78.2548
 54.3376  6042.83  78.1603
 54.3796  6018.78  77.9029
 54.4216  6079.65  78.3416
 54.4636  6135.71  78.6605
 54.5056  6077.99  78.1189
 54.5476  6002.46  77.9574
 54.5896  6117.49  78.5256
 54.6316  6079.57  78.1527
 54.6736  6105.65  78.342
 54.7156  6137.05  78.6123
 54.7576  6016.82  77.8347
 54.7996  6076.63  78.3755
 54.8416  6027.87  78.0845
 54.8836  6017.93  78.1408
 54.9256  5956.97  77.4889
 54.9676  6067.68  78.066
 55.0096  6038.38  77.9464
 55.0516  6071.85  78.3323
 55.0936  6003.26  77.5867
 55.1356  6036.71  77.8431
 55.1776  5964.62  77.646
 55.2196  6053.59  78.0059
 55.2616  5987.86  77.7944
 55.3036  6023.19  78.1769
 55.3456  5979.55  78.0284
 55.3876  6100.12  78.5679
 55.4296  6086.21  78.4531
 55.4716  6004.48  77.9587
 55.5136  6007.55  77.7427
 55.5556  5979.24  77.6297
 55.5976  6022.98  77.9679
 55.6396  6081.73  78.2197
 55.6816  6000.9  77.6555
 55.7236  6129.34  78.5227
 55.7656  5992  77.4011
 55.8076  6121.41  78.2147
 55.8496  5928.5  77.3951
 55.8916  6024.14  78.0697
 55.9336  5941.45  77.394
 55.9756  5975.13  77.5035
 56.0176  6015.9  77.9157
 56.0596  5971.46  77.6121
 56.1016  6052.9  78.1778
 56.1436  5966.37  77.8432
 56.1856  5996.8  77.7887
 56.2276  6024.12  78.024
 56.2696  6086.8  78.3973
 56.3116  5904.08  77.6085
 56.3536  6016.3  78.0059
 56.3956  5959.51  77.6266
 56.4376  6003.89  77.9484
 56.4796  6052.64  78.0657
 56.5216  6028.14  78.2739
 56.5636  6063.34  78.1008
 56.6056  5962.02  77.6783
 56.6476  5973.21  77.382
 56.6896  5953.89  77.698
 56.7316  5969.45  77.707
 56.7736  5954.16  77.6058
 56.8156  5965.71  77.6809
 56.8576  5908.77  77.2461
 56.8996  5950.55  77.4638
 56.9416  5992.79  78.0371
 56.9836  5882.3  76.8379
 57.0256  5914.05  77.3531
 57.0676  5917.7  77.5056
 57.1096  5970.81  77.6416
 57.1516  5953.55  77.5533
 57.1936  5992.42  77.5932
 57.2356  5943.27  77.5885
 57.2776  5924  77.4218
 57.3196  5944.81  77.9199
 57.3616  5973.56  77.6089
 57.4036  5981.2  77.719
 57.4456  5923.74  77.3115
 57.4876  5950.05  77.3362
 57.5296  5898.34  77.2423
 57.5716  5929.45  77.5339
 57.6136  6019.45  77.9398
 57.6556  5865.4  77.0711
 57.6976  5903.61  77.1376
 57.7396  5889.98  77.4253
 57.7816  5796.21  77.1589
 57.8236  5974.24  78.1299
 57.8656  5950.41  77.6358
 57.9076  5875.32  77.1755
 57.9496  5919.35  77.805
 57.9916  5958.64  77.5822
 58.0336  5947.5  77.7851
 58.0756  5947.15  77.3787
 58.1176  5966.43  77.5404
 58.1596  5912.57  77.7577
 58.2016  5957.64  77.2757
 58.2436  6008.52  78.0148
 58.2856  5921.84  77.3686
 58.3276  5838.93  77.1919
 58.3696  5928.66  77.5373
 58.4116  5967.86  77.6562
 58.4536  6008.07  77.8017
 58.4956  5929  77.4717
 58.5376  5949.75  77.1825
 58.5796  5910.35  77.3445
 58.6216  6014.18  77.8317
 58.6636  5946.41  77.6092
 58.7056  5949.62  77.4877
 58.7476  5844.57  77.2385
 58.7896  5891.74  77.1981
 58.8316  5878.88  77.1083
 58.8736  5969.47  77.7065
 58.9156  5881.31  77.1792
 58.9576  6179.2  79.4244
 58.9996  6035.96  77.7506
 59.0416  6126.32  78.6926
 59.0836  5965.96  77.5883
 59.1256  5833.46  77.4052
 59.1676  5942.25  78.4303
 59.2096  6036.6  78.3596
 59.2516  6022.18  77.8477
 59.2936  6086.07  78.5889
 59.3356  5907.52  77.3066
 59.3776  6042.42  78.3532
 59.4196  5943.75  77.6479
 59.4616  6032.48  78.0849
 59.5036  5918.76  77.3804
 59.5456  6019.82  77.7321
 59.5876  6095.42  78.4106
 59.6296  5946.14  77.5132
 59.6716  5882.01  77.1512
 59.7136  6148.57  78.8682
 59.7556  5832.76  76.9502
 59.7976  6015.08  77.8862
 59.8396  6093.02  78.283
 59.8816  5930.08  77.7694
 59.9236  5989.4  77.8028
 59.9656  5912.27  77.5583
 60.0076  6020.42  77.6227
 60.0496  5958.06  77.7198
 60.0916  6074.56  77.8926
 60.1336  5956.55  78.232
 60.1756  5973.1  79.5182
 60.1996  0.0000000E+00  0.0000000E+00