File: docs/examples/opeando_xrd/IS17_D/Data/IS17_D/17_Db_f00034.xye
# /beamlines/bl04/projects/cycle2025-II/20250340211-lsimonelli/DATA/IS17_D/17_Db_f00034.xye : mythproc.py merge -s 0.006 -l 0.5 -f /beamlines/bl04/inhouse/ff/FlatField/ff_20Nov2024rod8mm60s_17keV.raw -b True -c true -o xye /beamlines/bl04/projects/cycle2025-II/20250340211-lsimonelli/DATA/IS17_D/17_Db_00034.dat
# IsMon = [6752166, 6752235, 6754310]  IsPos = [-1.5000, -2.4885, -3.4988]
# Wave = 0.4962  CalPath /beamlines/bl04/projects/cycle2025-II/20250340211-lsimonelli/DATA/Align/Si_Pos1_25keV_f00001.cal
# Date = 2025-09-24_03:10:53 Dt = 4.8000  Bin = 0.0060  <imon> = 6752904 +/- 995 (Min/Max) 6752166 / 6754310
# icurr 249.9147  mocoIn 1.7052E-05  mocoOut 0.8004  i15 7.07116e+06  imon 6.7529e+06  i7 5.3333  iEMpd_timer 4.8000  iEMpd_1 3.5710E-08  iEMpd_2 7.8415E-08  iEMpd_3 1.5135E-08  iEMpd_4 4.6833E-08  iEMhp_timer 4.8000  iEMhp_1 4.8837E-06  iEMhp_2 -2.7472E-08  iEMhp_3 -2.3791E-08  iEMhp_4 -2.2847E-08
#      9776
 1.5856  44388.3  216.352
 1.6276  50964.5  227.847
 1.6696  56613.3  239.296
 1.7116  64227.4  255.379
 1.7536  72308.7  269.815
 1.7956  76000.3  277.306
 1.8376  72711.5  271.671
 1.8796  62303.6  249.63
 1.9216  51254.6  227.315
 1.9636  44169.4  210.686
 2.0056  40223.8  199.772
 2.0476  37364.7  194.652
 2.0896  36173  190.399
 2.1316  35174  186.849
 2.1736  33396.5  183.511
 2.2156  34341.3  184.595
 2.2576  33018.8  181.653
 2.2996  31521.6  178.14
 2.3416  32095.8  178.318
 2.3836  31451  176.629
 2.4256  30241.2  173.763
 2.4676  29652  171.818
 2.5096  29687.8  171.978
 2.5516  28149.8  171.299
 2.5936  28267.8  168.227
 2.6356  27636.3  167.029
 2.6776  27724.3  166.196
 2.7196  27245.8  165.249
 2.7616  27035.1  164.394
 2.8036  26724.7  163.618
 2.8456  26773.2  164.403
 2.8876  26238.2  162.59
 2.9296  25703.7  161.081
 2.9716  25254.5  159.16
 3.0136  25281  159.311
 3.0556  25242.3  159.573
 3.0976  25278.1  158.596
 3.1396  24854.2  157.986
 3.1816  24717.3  157.493
 3.2236  24587.5  157.062
 3.2656  24384  155.466
 3.3076  24388.9  156.942
 3.3496  24363.3  156.04
 3.3916  24770.1  156.903
 3.4336  24935.6  158.02
 3.4756  25418.8  159.484
 3.5176  26006.6  161.086
 3.5596  25653.8  162.975
 3.6016  26026.2  161.208
 3.6436  25051.9  159.269
 3.6856  24690.8  156.426
 3.7276  23794.5  154.635
 3.7696  23625.7  154.063
 3.8116  23242.2  152.913
 3.8536  23351.2  153.195
 3.8956  23451.3  153.343
 3.9376  23415.8  153.501
 3.9796  23041  151.749
 4.0216  23192.8  151.297
 4.0636  23045.1  152.27
 4.1056  23111  152.151
 4.1476  23532.2  153.829
 4.1896  23592.9  153.896
 4.2316  23721.1  154.129
 4.2736  23899.6  154.519
 4.3156  24114.2  155.44
 4.3576  24974.5  158.099
 4.3996  25113.1  158.809
 4.4416  25728  160.321
 4.4836  26085.8  161.595
 4.5256  26626.4  163.868
 4.5676  26367.1  163.325
 4.6096  27007.9  164.315
 4.6516  27357.1  164.705
 4.6936  27600.5  166.263
 4.7356  27807.4  166.711
 4.7776  27676.7  166.147
 4.8196  27490.2  166.234
 4.8616  27158.6  164.854
 4.9036  26757.5  163.226
 4.9456  26530  163.185
 4.9876  25931  161.237
 5.0296  26363.7  162.41
 5.0716  26151  162.359
 5.1136  26202.7  162.393
 5.1556  26264.1  162.046
 5.1976  26836.2  163.788
 5.2396  26886.7  163.647
 5.2816  27121.8  164.828
 5.3236  26982.8  164.097
 5.3656  26554  163.715
 5.4076  26476  163.607
 5.4496  26185.8  162.22
 5.4916  26337.6  162.439
 5.5336  26353.5  162.499
 5.5756  26376  162.585
 5.6176  26390.4  162.074
 5.6596  26635.5  163.641
 5.7016  26640.2  163.085
 5.7436  26783.9  163.802
 5.7856  26786.9  163.877
 5.8276  26782.4  163.577
 5.8696  27334.8  165.319
 5.9116  26979.6  164.947
 5.9536  27330.6  165.759
 5.9956  27362.9  165.256
 6.0376  27561.7  166.467
 6.0796  27772.3  166.933
 6.1216  27701.2  166.914
 6.1636  28055.4  167.031
 6.2056  27868  167.158
 6.2476  28377.3  168.362
 6.2896  28284.8  167.954
 6.3316  28554  168.923
 6.3736  28466.5  168.561
 6.4156  28316.3  168.059
 6.4576  28507.8  168.196
 6.4996  28545.5  168.783
 6.5416  28829.1  169.74
 6.5836  28584.1  169.254
 6.6256  28674.8  169.081
 6.6676  29511.1  171.105
 6.7096  29308.5  171.368
 6.7516  29621.4  171.944
 6.7936  29831.7  171.962
 6.8356  29768.8  171.867
 6.8776  29863  172.936
 6.9196  30127.3  174.092
 6.9616  30418.3  174.353
 7.0036  30841.9  175.254
 7.0456  30979.2  174.947
 7.0876  31201.2  177.159
 7.1296  30650  174.82
 7.1716  30783.4  174.747
 7.2136  30589.4  173.97
 7.2556  30758.8  174.614
 7.2976  30930  175.584
 7.3396  30679.9  175.096
 7.3816  30519.5  174.85
 7.4236  30866.1  175.146
 7.4656  30812.5  174.464
 7.5076  31375.7  176.204
 7.5496  30990.4  175.64
 7.5916  31287.3  176.529
 7.6336  31686.5  177.537
 7.6756  31681.8  177.379
 7.7176  32138.5  178.974
 7.7596  31783.1  179.172
 7.8016  32505.2  183.415
 7.8436  31954.9  178.573
 7.8856  32345.9  179.276
 7.9276  32611.4  180.403
 7.9696  32823.9  181.295
 8.0116  34063.4  183.259
 8.0536  34007  183.348
 8.0956  34047.2  184.617
 8.1376  34141.4  184.354
 8.1796  34414.1  185.61
 8.2216  35212.7  186.518
 8.2636  35537.3  187.627
 8.3056  35129.6  187.294
 8.3476  36008.9  188.967
 8.3896  35487.9  187.671
 8.4316  35474.3  187.798
 8.4736  35904.3  188.415
 8.5156  35357.8  187.245
 8.5576  35140.8  187.62
 8.5996  35066.9  186.323
 8.6416  35064.7  187.548
 8.6836  34640.6  186.236
 8.7256  35212.1  187.241
 8.7676  35180.7  190.006
 8.8096  35647.2  188.601
 8.8516  35684.6  188.323
 8.8936  35176.4  186.889
 8.9356  35276.3  187.475
 8.9776  34995.1  186.81
 9.0196  35194.1  187.021
 9.0616  35182  186.494
 9.1036  34128.2  184.81
 9.1456  33979.2  183.749
 9.1876  34537.2  185.201
 9.2296  34217.7  183.797
 9.2716  33878.7  182.927
 9.3136  33901.4  182.986
 9.3556  34352.4  184.167
 9.3976  33435.1  182.201
 9.4396  33377.1  181.953
 9.4816  33084.3  181.015
 9.5236  32925.1  180.474
 9.5656  32534.3  179.748
 9.6076  31756.7  178.097
 9.6496  32376.6  179.702
 9.6916  31631  177.597
 9.7336  31898.7  178.107
 9.7756  31865.6  179.236
 9.8176  31533.5  177.866
 9.8596  31642.5  176.642
 9.9016  31236.2  175.509
 9.9436  30820.8  174.085
 9.9856  30608  173.917
 10.0276  30142.1  173.633
 10.0696  30518.6  173.773
 10.1116  29464.6  171.001
 10.1536  29650.7  171.203
 10.1956  29215.8  170.045
 10.2376  29218.2  169.576
 10.2796  28637.3  167.98
 10.3216  28451.4  167.573
 10.3636  28316.2  167.352
 10.4056  27849.2  166.357
 10.4476  28175.6  166.936
 10.4896  28328.8  166.857
 10.5316  28151.1  166.705
 10.5736  27621.5  165.873
 10.6156  27457.6  165.139
 10.6576  27396.2  163.557
 10.6996  26821.1  162.514
 10.7416  26752.7  162.514
 10.7836  26416.8  162.137
 10.8256  25894.8  160.931
 10.8676  25989.1  160.786
 10.9096  25783.6  160.174
 10.9516  25615.7  158.628
 10.9936  25671.7  159.011
 11.0356  25400.4  158.765
 11.0776  25319.7  157.858
 11.1196  24797.5  156.963
 11.1616  24566.2  155.912
 11.2036  24705.9  156.201
 11.2456  24593.9  156.543
 11.2876  24790.9  156.896
 11.3296  24480.2  155.828
 11.3716  24693.6  156.236
 11.4136  24742.5  157.213
 11.4556  24546.4  156.261
 11.4976  25262.9  157.541
 11.5396  25358.7  158.011
 11.5816  26241.2  161.155
 11.6236  25593.1  159.613
 11.6656  25283.6  157.592
 11.7076  24637.8  156.39
 11.7496  24148.2  158.755
 11.7916  24032.4  153.716
 11.8336  23473.3  152.812
 11.8756  23597.9  152.759
 11.9176  23473.9  152.039
 11.9596  23546.3  152.437
 12.0016  23383.3  152.659
 12.0436  23530.4  152.602
 12.0856  23032.2  151.464
 12.1276  23101.3  151.648
 12.1696  23138.7  150.904
 12.2116  23030.6  150.549
 12.2536  23099.8  151.553
 12.2956  22760.2  149.822
 12.3376  23069.1  151.038
 12.3796  22859.4  150.819
 12.4216  22926.8  150.249
 12.4636  22613.8  150.139
 12.5056  22924.4  150.441
 12.5476  22994.7  150.186
 12.5896  22640.8  149.663
 12.6316  22754.5  150.185
 12.6736  22643.3  150.294
 12.7156  22881.1  150.926
 12.7576  22723.3  150.657
 12.7996  22683.2  149.199
 12.8416  22636.7  150.065
 12.8836  22851.1  150.612
 12.9256  23340  151.265
 12.9676  23248.4  151.362
 13.0096  23401  152.957
 13.0516  23355.2  151.857
 13.0936  23338.7  151.928
 13.1356  23689.8  152.325
 13.1776  23372.2  152.295
 13.2196  23698.6  152.996
 13.2616  23205.7  151.712
 13.3036  23716.2  153.506
 13.3456  23251.9  151.958
 13.3876  23759.6  153.098
 13.4296  23284.4  151.727
 13.4716  23532.6  152.17
 13.5136  23491.2  152.156
 13.5556  23223.9  151.911
 13.5976  23473.1  152.89
 13.6396  23478  152.269
 13.6816  23618.3  153.072
 13.7236  23857.6  153.538
 13.7656  25558.9  159.392
 13.8076  26295.4  160.318
 13.8496  25047.1  157.314
 13.8916  23829.1  154.362
 13.9336  23094.2  151.267
 13.9756  22972.9  150.264
 14.0176  22707.8  150.061
 14.0596  22912.3  150.665
 14.1016  22856.9  150.901
 14.1436  22944.8  150.335
 14.1856  22058  147.686
 14.2276  22145.8  148.458
 14.2696  22167.3  148.38
 14.3116  21798.8  147.053
 14.3536  21561.8  146.409
 14.3956  21389.5  145.559
 14.4376  21813.9  146.782
 14.4796  21614.8  146.113
 14.5216  21146.8  145.295
 14.5636  21136.5  144.83
 14.6056  21360.3  145.163
 14.6476  21244.7  144.028
 14.6896  20770  142.941
 14.7316  20438.1  142.809
 14.7736  20472.4  142.089
 14.8156  20349.3  141.668
 14.8576  20131.1  140.775
 14.8996  19781.3  140.72
 14.9416  19454.9  139.569
 14.9836  19296.1  138.978
 15.0256  18921.2  136.564
 15.0676  18920  136.864
 15.1096  18648.9  135.627
 15.1516  18684.6  136.302
 15.1936  18448.8  134.879
 15.2356  18093.6  133.846
 15.2776  18304.4  134.222
 15.3196  17760.6  133.177
 15.3616  17804.7  133.103
 15.4036  17631.8  132.325
 15.4456  17932.7  133.102
 15.4876  17537.6  131.325
 15.5296  17407.1  131.117
 15.5716  17218.9  130.017
 15.6136  17285.3  130.586
 15.6556  17192.3  129.497
 15.6976  17053.3  129.048
 15.7396  16866  128.918
 15.7816  16793  128.171
 15.8236  16606.3  128.119
 15.8656  16700  128.287
 15.9076  16664.5  127.979
 15.9496  17260.9  133.015
 15.9916  17027.7  132.511
 16.0336  16980.4  129.24
 16.0756  16990.4  129.602
 16.1176  16420.1  127.331
 16.1596  16143.2  127.559
 16.2016  16229.7  126.682
 16.2436  16272.8  127.225
 16.2856  16181.8  126.369
 16.3276  15903.8  125.732
 16.3696  16029.3  126.053
 16.4116  16028.2  126.503
 16.4536  16050  126.383
 16.4956  16134.7  126.453
 16.5376  15875.9  125.626
 16.5796  15781  124.635
 16.6216  15824.2  125.061
 16.6636  15575.8  124.263
 16.7056  15783.1  124.955
 16.7476  15754.2  124.374
 16.7896  15758  125.12
 16.8316  15802.7  125.278
 16.8736  15875.2  125.811
 16.9156  15604.4  125.055
 16.9576  15581.1  125.742
 16.9996  15515.5  125.937
 17.0416  15816  125.565
 17.0836  15746.3  125.053
 17.1256  15720.7  124.96
 17.1676  15560  124.268
 17.2096  15328.8  123.255
 17.2516  15570.4  124.309
 17.2936  15292  123.24
 17.3356  15099.1  122.442
 17.3776  15073.4  122.523
 17.4196  14968.6  121.806
 17.4616  14860.9  121.279
 17.5036  14559.3  120.391
 17.5456  14411  120.384
 17.5876  14590.7  120.206
 17.6296  14919.8  121.374
 17.6716  14406.8  119.853
 17.7136  14263.8  119.373
 17.7556  14289  119.77
 17.7976  14031.8  118.297
 17.8396  14255.3  118.886
 17.8816  13914.7  118.005
 17.9236  14072.3  118.465
 17.9656  13949.9  118.601
 18.0076  14060  118.515
 18.0496  13967.8  117.292
 18.0916  13935.5  117.689
 18.1336  13940.7  117.802
 18.1756  14100.1  118.038
 18.2176  13756.5  116.794
 18.2596  13645.2  116.061
 18.3016  13898.4  117.387
 18.3436  13940.6  117.787
 18.3856  13821.9  117.193
 18.4276  13734.5  116.515
 18.4696  13556.5  115.84
 18.5116  13797.6  117.136
 18.5536  13678.5  116.976
 18.5956  13642.4  116.398
 18.6376  13477.4  116.083
 18.6796  13512.3  115.57
 18.7216  13697.6  116.905
 18.7636  13536.6  116.154
 18.8056  13455.1  115.723
 18.8476  13148.7  115.004
 18.8896  13284.1  114.954
 18.9316  13315.4  114.911
 18.9736  13359.9  114.969
 19.0156  13310.1  115.168
 19.0576  13417.7  114.502
 19.0996  13429  115.253
 19.1416  13281.8  115.006
 19.1836  13146.5  114.032
 19.2256  13124  114.146
 19.2676  13224.4  114.673
 19.3096  13224.3  114.906
 19.3516  13423.1  115.545
 19.3936  13033.9  113.926
 19.4356  13415.1  115.473
 19.4776  13240.3  114.804
 19.5196  13171.7  114.364
 19.5616  13102.8  114.317
 19.6036  13129.6  113.941
 19.6456  13159.7  114.185
 19.6876  13187.9  113.958
 19.7296  13518.8  115.837
 19.7716  13342.5  115.104
 19.8136  13468.1  115.984
 19.8556  13500.9  115.611
 19.8976  13488.3  115.617
 19.9396  13563.7  115.535
 19.9816  13609.3  115.975
 20.0236  13824.1  117.076
 20.0656  13985.9  117.753
 20.1076  14197  119.125
 20.1496  14033.3  118.429
 20.1916  13867.2  117.205
 20.2336  13795.8  116.865
 20.2756  13462.5  115.881
 20.3176  13099.1  114.048
 20.3596  13136.7  114.206
 20.4016  13115.9  113.914
 20.4436  12931  113.672
 20.4856  12995.5  113.739
 20.5276  12692  112.858
 20.5696  12839.9  113.078
 20.6116  12665.3  112.473
 20.6536  12661.8  112.031
 20.6956  12673.3  112.158
 20.7376  12583.6  111.96
 20.7796  12534.3  111.439
 20.8216  12646  111.661
 20.8636  12721.7  112.365
 20.9056  12493.5  111.283
 20.9476  12517.2  111.247
 20.9896  12694.4  111.895
 21.0316  12554.9  111.186
 21.0736  12576.9  111.791
 21.1156  12435.8  111.318
 21.1576  12526  111.755
 21.1996  12494.8  111.601
 21.2416  12582.5  111.828
 21.2836  12486.9  111.374
 21.3256  12404.2  111.08
 21.3676  12404.6  110.621
 21.4096  12242.6  110.265
 21.4516  12286.3  110.28
 21.4936  12137.1  109.876
 21.5356  12346.7  110.766
 21.5776  12364.5  110.685
 21.6196  12197.6  109.975
 21.6616  12224.1  110.175
 21.7036  12197.9  109.827
 21.7456  12395.1  110.777
 21.7876  12152.4  109.468
 21.8296  12142.8  109.278
 21.8716  12220.7  109.847
 21.9136  12311.4  110.457
 21.9556  12062.8  109.009
 21.9976  12129.2  109.348
 22.0396  11966.9  108.859
 22.0816  12101.9  109.983
 22.1236  12196.5  109.884
 22.1656  11982.3  109.102
 22.2076  11879.4  108.055
 22.2496  11847.2  107.942
 22.2916  11654.1  106.945
 22.3336  11721.7  107.932
 22.3756  11794.7  108.017
 22.4176  11696.5  107.429
 22.4596  11662.3  107.835
 22.5016  11694  107.507
 22.5436  11809.6  107.909
 22.5856  11963.5  108.854
 22.6276  12212.8  110.109
 22.6696  11866.3  108.888
 22.7116  11781.9  108.026
 22.7536  11775  107.97
 22.7956  11833.9  107.591
 22.8376  11719.7  107.574
 22.8796  11716.1  107.366
 22.9216  11872.8  108.61
 22.9636  11752.5  107.241
 23.0056  11717  107.208
 23.0476  11860.8  108.419
 23.0896  12039.8  108.626
 23.1316  12035.6  109.034
 23.1736  11998.3  111.739
 23.2156  12193.8  110.068
 23.2576  12407.1  111.155
 23.2996  12191.5  109.963
 23.3416  12251.8  110.759
 23.3836  12068.3  109.178
 23.4256  12560.3  111.497
 23.4676  12128.5  109.264
 23.5096  12134.2  109.941
 23.5516  12081  109.002
 23.5936  12188.1  110.387
 23.6356  12298.8  110.552
 23.6776  12043.4  109.608
 23.7196  12043.5  109.408
 23.7616  12003.6  108.928
 23.8036  12315.3  110.388
 23.8456  11980.8  108.439
 23.8876  12058.8  109.145
 23.9296  11691.6  107.937
 23.9716  12002.8  108.588
 24.0136  12025.8  109.584
 24.0556  11935.8  108.892
 24.0976  11758.2  107.901
 24.1396  11660.2  110.027
 24.1816  11815.7  109.516
 24.2236  11774.9  108.638
 24.2656  11756.7  108.036
 24.3076  11527.5  107.239
 24.3496  11504  107.014
 24.3916  11699.8  107.97
 24.4336  11616.3  107.785
 24.4756  11571.8  107.462
 24.5176  11433.6  106.455
 24.5596  11471.9  106.949
 24.6016  11479.2  107.084
 24.6436  11456.2  106.485
 24.6856  11358.4  105.781
 24.7276  11202.8  105.367
 24.7696  11249.6  105.692
 24.8116  11061.9  104.985
 24.8536  11199.8  105.642
 24.8956  11073.8  104.782
 24.9376  11128.6  105.214
 24.9796  10814.2  103.834
 25.0216  10990.8  104.783
 25.0636  10909.6  104.057
 25.1056  10892.3  104.395
 25.1476  10848.2  106.043
 25.1896  10874.8  104.717
 25.2316  10825.3  103.766
 25.2736  10863.1  103.604
 25.3156  10750  103.127
 25.3576  10686.1  103.25
 25.3996  10779.2  103.688
 25.4416  10732.1  103.434
 25.4836  10517.1  102.904
 25.5256  10647.9  102.915
 25.5676  10604.8  102.437
 25.6096  10492.4  102.46
 25.6516  10552.7  102.268
 25.6936  10568.2  102.653
 25.7356  10452.5  102.215
 25.7776  10461.7  101.943
 25.8196  10380.5  101.712
 25.8616  10321.8  101.354
 25.9036  10526.7  101.822
 25.9456  10455.4  102.066
 25.9876  10564.7  102.511
 26.0296  10542.1  102.157
 26.0716  10519.8  102.385
 26.1136  10378.9  101.631
 26.1556  10453.7  101.39
 26.1976  10359.6  101.838
 26.2396  10398.7  101.448
 26.2816  10403.2  101.821
 26.3236  10414.8  102.032
 26.3656  10561.7  102.471
 26.4076  10296  101.376
 26.4496  10649.8  102.697
 26.4916  10669.5  102.687
 26.5336  11133.6  105.237
 26.5756  11175.2  105.322
 26.6176  10473.1  101.988
 26.6596  10473.4  102.267
 26.7016  10434.3  101.857
 26.7436  10394.5  101.795
 26.7856  10167  100.663
 26.8276  10164.6  100.614
 26.8696  10304.9  101.182
 26.9116  10205.3  100.631
 26.9536  10200.2  100.654
 26.9956  9993.4  99.6585
 27.0376  10050.5  100.165
 27.0796  10046.3  99.9493
 27.1216  10080.2  100.089
 27.1636  9840.16  99.0645
 27.2056  9983.46  99.6695
 27.2476  9972.99  99.6076
 27.2896  9835.93  99.0364
 27.3316  9910.47  99.1338
 27.3736  9777.6  98.7301
 27.4156  9938.31  99.3796
 27.4576  9857  99.1846
 27.4996  9983.72  99.4401
 27.5416  9845.25  99.0489
 27.5836  9807.84  98.7004
 27.6256  9811.41  98.8929
 27.6676  9840.26  99.0266
 27.7096  9819.42  98.8103
 27.7516  9780.38  98.754
 27.7936  10183.6  100.907
 27.8356  9859.43  98.9133
 27.8776  10054  99.9452
 27.9196  9682.68  97.9524
 27.9616  9722.28  98.3478
 28.0036  9829.24  98.8449
 28.0456  9660.48  98.1216
 28.0876  9567.69  97.741
 28.1296  9656.48  98.0365
 28.1716  9719.59  98.3632
 28.2136  9646.62  97.965
 28.2556  9699.56  98.3518
 28.2976  9615.54  97.9172
 28.3396  9604.61  97.6601
 28.3816  9577.51  97.4838
 28.4236  9430.16  96.8844
 28.4656  9480.11  97.1846
 28.5076  9470.33  96.7803
 28.5496  9603.56  97.714
 28.5916  9588.07  97.4542
 28.6336  9522.02  97.4492
 28.6756  9602.43  97.0776
 28.7176  9368.67  96.4235
 28.7596  9532.77  97.1608
 28.8016  9415.04  96.5946
 28.8436  9251.75  95.9878
 28.8856  9416.17  96.6869
 28.9276  9361.15  96.6466
 28.9696  9282.22  95.8989
 29.0116  9309.3  96.2212
 29.0536  9183.26  95.7683
 29.0956  9322.94  96.2032
 29.1376  9292.36  96.0211
 29.1796  9339.9  96.3174
 29.2216  9235.9  95.6218
 29.2636  9277.99  95.8312
 29.3056  9221.23  95.4121
 29.3476  9286.52  96.262
 29.3896  9265.76  96.2639
 29.4316  9119.97  94.852
 29.4736  9138.93  95.0113
 29.5156  9092.01  94.6953
 29.5576  8994.7  94.8998
 29.5996  9134.69  94.9132
 29.6416  8941.51  94.0177
 29.6836  9109.6  94.8253
 29.7256  8920.13  94.3811
 29.7676  8972.07  94.3237
 29.8096  8955.98  94.1881
 29.8516  8780.95  93.5815
 29.8936  8927.65  94.4506
 29.9356  9016.15  94.6787
 29.9776  8818.64  93.7831
 30.0196  8957.94  93.9321
 30.0616  8987.17  94.4459
 30.1036  8829.08  93.4429
 30.1456  8973.79  94.427
 30.1876  8831.57  93.6603
 30.2296  8861.83  93.7662
 30.2716  8820.5  93.2024
 30.3136  8937.58  94.6484
 30.3556  9151.76  95.7857
 30.3976  8875.69  95.7728
 30.4396  9247.29  95.1541
 30.4816  9164.42  94.3457
 30.5236  9204.64  94.5455
 30.5656  8969.07  93.9653
 30.6076  8969.14  93.7309
 30.6496  9136.61  94.674
 30.6916  8952.22  93.8012
 30.7336  8970.44  94.035
 30.7756  9021.64  94.3886
 30.8176  9014.67  94.2675
 30.8596  9041.02  94.1732
 30.9016  9222.09  94.9837
 30.9436  9104.44  94.5871
 30.9856  9228.04  95.3533
 31.0276  9015.47  93.8897
 31.0696  8973.52  94.2169
 31.1116  9029.42  94.4818
 31.1536  8945.12  93.9227
 31.1956  8890.94  93.7225
 31.2376  8818.51  93.3668
 31.2796  8820.39  92.9281
 31.3216  8936.83  93.4579
 31.3636  9008.38  94.5276
 31.4056  8884.31  95.1503
 31.4476  8948.03  93.4457
 31.4896  9024.67  94.3345
 31.5316  8909.35  93.1935
 31.5736  9081.06  93.8767
 31.6156  9024.39  93.5826
 31.6576  9200.57  94.5678
 31.6996  9010.05  93.267
 31.7416  8931.16  93.7872
 31.7836  8957.1  93.0855
 31.8256  8970.87  93.4968
 31.8676  8883.24  92.9416
 31.9096  8913.7  93.3348
 31.9516  8751.08  92.7828
 31.9936  8744.71  92.5764
 32.0356  8741.85  92.609
 32.0776  8937.7  93.5368
 32.1196  8989.07  93.8131
 32.1616  8932.98  93.0664
 32.2036  8835.6  93.0572
 32.2456  8830.03  93.4025
 32.2876  8776.72  92.468
 32.3296  8930.92  93.4045
 32.3716  8555.85  91.5305
 32.4136  8602.29  91.966
 32.4556  8652.49  91.698
 32.4976  8662.6  91.6529
 32.5396  8605.65  91.3687
 32.5816  8549.82  91.1951
 32.6236  8620.44  91.6338
 32.6656  8737.91  92.7912
 32.7076  8602.36  91.7303
 32.7496  8579.92  91.2933
 32.7916  8543.02  91.0577
 32.8336  8607.22  91.4941
 32.8756  8658.16  91.4868
 32.9176  8416.48  90.6684
 32.9596  8564.16  91.5303
 33.0016  8504.82  90.9955
 33.0436  8548.93  91.394
 33.0856  8425.72  90.8278
 33.1276  8413.08  90.503
 33.1696  8509.87  90.8462
 33.2116  8505.01  91.0568
 33.2536  8600.87  91.5411
 33.2956  8535.61  91.2902
 33.3376  8437.72  90.5977
 33.3796  8438.33  90.7346
 33.4216  8589.5  91.1439
 33.4636  8593.89  91.3188
 33.5056  8388.24  90.4566
 33.5476  8515.57  91.1108
 33.5896  8640.05  91.5525
 33.6316  8572.86  91.5283
 33.6736  8256  90.0546
 33.7156  8414.36  90.9417
 33.7576  8415.62  90.5977
 33.7996  8404.69  90.3096
 33.8416  8295.66  89.9049
 33.8836  8332.52  89.889
 33.9256  8381.76  90.2068
 33.9676  8379.74  90.093
 34.0096  8341.81  90.2001
 34.0516  8306  89.6486
 34.0936  8341.35  90.1061
 34.1356  8281.19  89.5216
 34.1776  8229.99  89.2522
 34.2196  8243.39  89.4973
 34.2616  8174.08  89.2571
 34.3036  8222.83  89.7491
 34.3456  8294.39  89.9055
 34.3876  8316.57  90.0925
 34.4296  8248.08  89.3301
 34.4716  8294.76  89.7269
 34.5136  8308.46  89.9791
 34.5556  8100.4  89.1066
 34.5976  8399.1  90.5792
 34.6396  8207.68  89.2331
 34.6816  8265.91  89.6482
 34.7236  8317.95  89.7105
 34.7656  8320.97  89.9376
 34.8076  8086.45  88.9813
 34.8496  8110.05  88.9631
 34.8916  8182.39  89.221
 34.9336  8166.61  89.1181
 34.9756  8314.5  89.8722
 35.0176  8185.82  89.6663
 35.0596  8300.57  90.1109
 35.1016  8285.79  89.7867
 35.1436  8347.79  89.8197
 35.1856  8221.57  89.244
 35.2276  8162.6  89.1121
 35.2696  8277.86  89.9177
 35.3116  8041.56  88.7348
 35.3536  8341.09  90.1046
 35.3956  8042.73  88.1732
 35.4376  8194.98  89.561
 35.4796  8297.16  90.1401
 35.5216  8087.52  88.9715
 35.5636  7864.45  88.457
 35.6056  8044.42  88.5027
 35.6476  8133.48  88.8885
 35.6896  8169.19  89.2568
 35.7316  8030.12  88.3982
 35.7736  8083.4  88.8724
 35.8156  8069.7  88.7911
 35.8576  8046.45  88.9121
 35.8996  8182.74  89.6326
 35.9416  7971.49  87.9795
 35.9836  7984.7  88.5016
 36.0256  8241.61  89.8199
 36.0676  8242.88  89.3409
 36.1096  8078.54  88.8259
 36.1516  8176.88  89.2653
 36.1936  8072.12  88.5219
 36.2356  8148.89  89.5944
 36.2776  8150.59  89.0745
 36.3196  8093.74  88.4402
 36.3616  8090.53  88.5557
 36.4036  7974.52  87.9903
 36.4456  8022.16  88.4583
 36.4876  7840.2  87.3918
 36.5296  7839.19  87.4218
 36.5716  7933.41  88.7023
 36.6136  7883.76  87.2415
 36.6556  7934.89  87.7168
 36.6976  7903.63  88.0319
 36.7396  7807.52  87.2363
 36.7816  7765.73  87.3641
 36.8236  7765.14  87.2847
 36.8656  7738.74  87.2047
 36.9076  7744.58  87.2415
 36.9496  7766.37  87.2274
 36.9916  7704.68  86.5224
 37.0336  7777.87  87.2372
 37.0756  7656.57  86.3578
 37.1176  7623.71  86.4331
 37.1596  7746.57  87.1307
 37.2016  7590.08  86.4198
 37.2436  7852.22  87.2762
 37.2856  7703.48  86.6899
 37.3276  7759.68  86.3801
 37.3696  7610.16  86.395
 37.4116  7674.88  86.6708
 37.4536  7672.4  86.5302
 37.4956  7565.77  85.9688
 37.5376  7855.5  89.1567
 37.5796  7737.57  88.4123
 37.6216  7758.52  86.8405
 37.6636  7827.89  87.121
 37.7056  7707.26  86.6354
 37.7476  7916.94  87.3433
 37.7896  7588.58  86.0074
 37.8316  7763.76  87.153
 37.8736  7694.73  86.2933
 37.9156  7869.68  87.2603
 37.9576  7887.08  87.2792
 37.9996  7728.78  86.1188
 38.0416  7658.07  86.5045
 38.0836  7933.01  87.9519
 38.1256  7640.1  86.2887
 38.1676  7574.58  86.023
 38.2096  7864.83  87.2741
 38.2516  7686.08  86.4958
 38.2936  7770.57  86.7745
 38.3356  7672.76  86.1565
 38.3776  7626.56  86.1408
 38.4196  7623.33  85.9752
 38.4616  7750.13  86.9408
 38.5036  7814.78  87.1468
 38.5456  7647.5  87.0109
 38.5876  7603.73  86.7953
 38.6296  7604.41  85.8051
 38.6716  7692.32  86.1035
 38.7136  7612.87  85.5988
 38.7556  7676.82  86.4592
 38.7976  7753.42  86.8102
 38.8396  7584.56  86.307
 38.8816  7630.16  86.3715
 38.9236  7729.2  86.7346
 38.9656  7673.25  86.3325
 39.0076  7701.63  85.9068
 39.0496  7813.79  87.0753
 39.0916  7674.77  85.9481
 39.1336  7616.83  86.0118
 39.1756  7549.25  85.7001
 39.2176  7629.35  86.686
 39.2596  7579.24  86.322
 39.3016  7656.4  86.3523
 39.3436  7498.76  85.8455
 39.3856  7657.36  86.2121
 39.4276  7793.02  87.4772
 39.4696  7575.06  85.8768
 39.5116  7593.38  86.4767
 39.5536  7649.74  87.2112
 39.5956  7628.43  86.2131
 39.6376  7639.49  86.2798
 39.6796  7544.53  85.4896
 39.7216  7591.61  85.8525
 39.7636  7638.65  86.6639
 39.8056  7630.85  86.4191
 39.8476  7528.38  86.0829
 39.8896  7615.05  86.2149
 39.9316  7457.67  85.5581
 39.9736  7633.09  86.1435
 40.0156  7598.59  85.784
 40.0576  7579.54  86.0191
 40.0996  7738.27  86.1069
 40.1416  7586.49  86.0411
 40.1836  7682.34  86.4692
 40.2256  7669.48  86.4364
 40.2676  7551.55  85.9333
 40.3096  7637.43  86.2921
 40.3516  7580.42  86.0773
 40.3936  7685.64  86.225
 40.4356  7629.77  86.1204
 40.4776  7792.46  87.2648
 40.5196  7726.21  87.1845
 40.5616  7800.82  87.2483
 40.6036  7591.07  86.3251
 40.6456  7704.59  86.5701
 40.6876  7713.55  86.6176
 40.7296  7671.55  86.5101
 40.7716  7660.85  86.5775
 40.8136  7589.5  86.1116
 40.8556  7754.85  87.1775
 40.8976  7593.77  86.1896
 40.9396  7713.36  87.2146
 40.9816  7686.79  86.3686
 41.0236  7552.08  85.3934
 41.0656  7740.11  86.9741
 41.1076  7687.85  86.4617
 41.1496  7680.14  86.3284
 41.1916  7621.61  86.3067
 41.2336  7738.45  86.9666
 41.2756  7603.64  85.8143
 41.3176  7728.06  87.1173
 41.3596  7708.56  86.745
 41.4016  7571.34  86.2202
 41.4436  7749.36  87.0216
 41.4856  7602.47  86.3566
 41.5276  7536.86  85.998
 41.5696  7694.95  86.5185
 41.6116  7691.98  86.8995
 41.6536  7619.97  86.3514
 41.6956  7746.21  87.0443
 41.7376  7496.15  85.7271
 41.7796  7519.92  85.7966
 41.8216  7621.97  86.5642
 41.8636  7557.42  86.137
 41.9056  7528.73  85.775
 41.9476  7627.12  86.5594
 41.9896  7594.51  86.0484
 42.0316  7661.24  86.5089
 42.0736  7616.88  86.3813
 42.1156  7579.82  85.985
 42.1576  7590.85  86.1537
 42.1996  7681.49  86.7894
 42.2416  7541.13  85.5922
 42.2836  7564.21  85.8436
 42.3256  7533.51  85.7737
 42.3676  7713.59  86.5946
 42.4096  7663.87  86.2884
 42.4516  7627.19  86.1465
 42.4936  7514.86  85.5955
 42.5356  7496.84  85.6291
 42.5776  7641.79  86.3807
 42.6196  7533.63  85.8303
 42.6616  7573.36  86.2284
 42.7036  7636.63  85.9757
 42.7456  7660.07  86.4568
 42.7876  7620.9  86.3098
 42.8296  7554.52  85.7884
 42.8716  7408.68  85.1214
 42.9136  7426.55  84.9799
 42.9556  7512.23  85.6322
 42.9976  7556.93  85.8532
 43.0396  7512.34  85.3353
 43.0816  7474.67  85.5009
 43.1236  7448.73  85.4046
 43.1656  7561.7  85.8776
 43.2076  7494.07  85.5976
 43.2496  7435.48  85.087
 43.2916  7474.84  85.6599
 43.3336  7437.13  85.2654
 43.3756  7446.6  85.0975
 43.4176  7382.73  84.8058
 43.4596  7379.27  84.6574
 43.5016  7388.94  85.0839
 43.5436  7521.66  85.7685
 43.5856  7438.24  85.3208
 43.6276  7351.59  84.7152
 43.6696  7352.98  84.8653
 43.7116  7514.41  85.4108
 43.7536  7504.18  85.839
 43.7956  7344.19  86.1042
 43.8376  7278.93  84.2823
 43.8796  7319.62  84.5909
 43.9216  7202.21  83.8345
 43.9636  7406.45  85.1181
 44.0056  7261.07  84.5076
 44.0476  7154.72  83.524
 44.0896  7293.04  84.6572
 44.1316  7228.27  83.9674
 44.1736  7296.71  84.3423
 44.2156  7314.92  84.3048
 44.2576  7246.17  84.2272
 44.2996  7300.89  84.5171
 44.3416  7250.36  83.9857
 44.3836  7174.2  83.863
 44.4256  7160.94  83.4377
 44.4676  7171  83.6493
 44.5096  7267.72  84.354
 44.5516  7333.49  84.6955
 44.5936  7207.61  83.9265
 44.6356  7241.75  83.8669
 44.6776  7214.54  84.0225
 44.7196  7122.67  83.7823
 44.7616  7246.25  85.8071
 44.8036  7332.4  84.9592
 44.8456  7363.23  85.141
 44.8876  7314.98  84.706
 44.9296  7479.54  85.0983
 44.9716  7333.23  84.6994
 45.0136  7487.71  85.5175
 45.0556  7334.57  84.7278
 45.0976  7255.38  84.3177
 45.1396  7173.64  83.5929
 45.1816  7164.81  83.4881
 45.2236  7400.22  84.757
 45.2656  7218.06  84.1975
 45.3076  7381.97  84.9198
 45.3496  7188.28  84.1141
 45.3916  7225.07  84.5916
 45.4336  7374.8  85.3066
 45.4756  7326.21  84.8815
 45.5176  7275.66  84.2127
 45.5596  7409.81  85.1033
 45.6016  7222.41  84.4319
 45.6436  7210.57  83.5496
 45.6856  7152.61  83.8561
 45.7276  7181.87  85.3252
 45.7696  7189.9  85.0615
 45.8116  7262.32  84.9304
 45.8536  7153.93  84.187
 45.8956  7209.38  83.8781
 45.9376  7144.38  82.9785
 45.9796  7507.38  85.7598
 46.0216  7281.69  84.776
 46.0636  7441.47  84.8361
 46.1056  7372.34  84.4485
 46.1476  7311.61  84.6835
 46.1896  7272.73  84.6008
 46.2316  7200.17  84.0386
 46.2736  7157.47  84.0132
 46.3156  7258.34  84.3521
 46.3576  7312.56  84.8618
 46.3996  7224.72  84.5097
 46.4416  7166.8  83.7288
 46.4836  7273.75  84.7364
 46.5256  7251  84.5389
 46.5676  7061.43  83.541
 46.6096  7252.69  84.584
 46.6516  7224.67  83.479
 46.6936  7299.85  84.4158
 46.7356  7274.4  84.3638
 46.7776  7123.09  84.313
 46.8196  7118.57  84.0303
 46.8616  7023.28  83.2708
 46.9036  7047.17  83.0805
 46.9456  7091.71  82.9838
 46.9876  7128.49  83.276
 47.0296  7183.76  84.2747
 47.0716  7038.22  83.2577
 47.1136  7104.35  83.33
 47.1556  7131.12  83.35
 47.1976  7196.77  83.8944
 47.2396  7178.19  84.1081
 47.2816  7002.9  82.7779
 47.3236  7125.7  83.8668
 47.3656  7169.96  84.0592
 47.4076  7156.04  83.7097
 47.4496  7077.09  83.4152
 47.4916  7082.82  83.6297
 47.5336  7230.48  84.3205
 47.5756  7200.46  84.2516
 47.6176  6995.02  82.9472
 47.6596  7060.18  83.0499
 47.7016  7239.92  83.9133
 47.7436  7147.6  83.7087
 47.7856  7258.77  84.3894
 47.8276  7178.65  83.9773
 47.8696  7100.82  83.5986
 47.9116  7176.61  83.7621
 47.9536  7119.37  83.3672
 47.9956  7070.16  83.7822
 48.0376  7072.23  83.5655
 48.0796  7034.39  83.4647
 48.1216  7111.88  83.754
 48.1636  7314.12  84.5031
 48.2056  7114.88  83.6086
 48.2476  7170.55  84.2375
 48.2896  7137.46  83.9524
 48.3316  7244.63  84.5228
 48.3736  7185.75  84.2043
 48.4156  7106  83.5885
 48.4576  7116.72  83.939
 48.4996  7186.37  83.811
 48.5416  7139.51  83.8632
 48.5836  7151.26  83.6072
 48.6256  7300.76  84.6802
 48.6676  7079.95  83.9094
 48.7096  7084.35  83.194
 48.7516  7145.88  83.7169
 48.7936  6985.48  82.8295
 48.8356  7067.19  83.3635
 48.8776  7104.34  84.0735
 48.9196  7257.7  84.416
 48.9616  7063.24  83.6626
 49.0036  7142.37  84.4796
 49.0456  6957.79  83.356
 49.0876  7015.14  83.3389
 49.1296  7011.14  83.3826
 49.1716  6902.16  82.5956
 49.2136  7135.26  83.9117
 49.2556  7161.81  84.1057
 49.2976  7083.36  83.7038
 49.3396  6985.67  83.1795
 49.3816  7191.92  83.8224
 49.4236  7060.31  83.4797
 49.4656  6950.11  82.8432
 49.5076  7071.09  83.3122
 49.5496  6959.87  82.7189
 49.5916  7092.07  83.413
 49.6336  7070.25  83.4907
 49.6756  7130.37  84.0833
 49.7176  7003.27  83.2677
 49.7596  7051.64  83.3267
 49.8016  7072.63  83.3749
 49.8436  7016.87  83.3382
 49.8856  6997.1  83.2197
 49.9276  7030.28  83.5225
 49.9696  7092  83.872
 50.0116  7071.66  83.8699
 50.0536  7019.15  83.5126
 50.0956  6997.58  83.4528
 50.1376  6999.23  83.1546
 50.1796  6933.4  83.0452
 50.2216  7045.84  83.7076
 50.2636  6974.43  82.9038
 50.3056  6931.18  82.8116
 50.3476  6946.79  82.9309
 50.3896  6893.51  82.5847
 50.4316  6965.95  82.8561
 50.4736  6855.87  82.4105
 50.5156  7022.46  83.3939
 50.5576  7061.82  83.3879
 50.5996  6990.85  83.2521
 50.6416  6917.87  82.7442
 50.6836  6926.47  82.859
 50.7256  7040.6  83.4616
 50.7676  7091.33  84.0409
 50.8096  7049.7  83.3572
 50.8516  6992.81  83.4474
 50.8936  6843.78  82.3367
 50.9356  7050.53  83.6772
 50.9776  7009.86  83.5945
 51.0196  6755.69  82.1934
 51.0616  6894.76  82.3547
 51.1036  6807.96  82.1894
 51.1456  6895.16  82.6277
 51.1876  6786.11  81.3072
 51.2296  6823.88  82.1734
 51.2716  6776.55  81.5966
 51.3136  6753.05  81.9122
 51.3556  6742.54  81.4727
 51.3976  6671.32  81.1929
 51.4396  6674.6  81.52
 51.4816  6768.58  81.9428
 51.5236  6721.07  81.7426
 51.5656  6632.31  80.797
 51.6076  6725.86  81.4524
 51.6496  6739.29  81.7232
 51.6916  6711.93  81.9177
 51.7336  6735.11  82.1463
 51.7756  6825.25  82.3854
 51.8176  6635.28  81.3455
 51.8596  6682.9  81.6503
 51.9016  6850.81  82.2746
 51.9436  6846.65  83.7502
 51.9856  6747.91  83.5435
 52.0276  6869.34  82.7697
 52.0696  6846.99  82.7073
 52.1116  6791.44  82.4943
 52.1536  6855.67  82.719
 52.1956  6790.72  81.8357
 52.2376  6875.3  82.5171
 52.2796  6808.36  81.9402
 52.3216  6627.86  81.5273
 52.3636  6945.82  83.0018
 52.4056  6592.23  80.7473
 52.4476  6764.14  82.1527
 52.4896  6754.14  82.137
 52.5316  6835.76  82.6909
 52.5736  6707.7  81.6262
 52.6156  6889.38  83.1286
 52.6576  6700.44  81.4123
 52.6996  6593.78  81.7447
 52.7416  6574.77  81.4758
 52.7836  6714.5  82.2325
 52.8256  6709.99  81.4185
 52.8676  6655.52  81.6608
 52.9096  6811.34  82.6909
 52.9516  6697.71  82.3755
 52.9936  6720.44  82.8921
 53.0356  6719.09  81.8921
 53.0776  6816.74  82.7838
 53.1196  6738.98  82.3968
 53.1616  6815.13  82.9235
 53.2036  6681.37  82.0629
 53.2456  6648.56  81.9704
 53.2876  6684.71  81.8802
 53.3296  6743.73  82.5617
 53.3716  6739.33  82.2901
 53.4136  6799.25  82.8134
 53.4556  6646.66  81.9043
 53.4976  6588.88  81.382
 53.5396  6596.19  81.8249
 53.5816  6743.16  82.3701
 53.6236  6582.66  81.7351
 53.6656  6731.09  82.2515
 53.7076  6728.47  82.2041
 53.7496  6783.03  82.6552
 53.7916  6572.27  81.4942
 53.8336  6582.14  81.4373
 53.8756  6526.81  81.656
 53.9176  6606.02  81.4702
 53.9596  6396.2  80.9298
 54.0016  6413.88  80.3791
 54.0436  6315.24  79.9756
 54.0856  6511.44  80.6429
 54.1276  6481.2  80.6473
 54.1696  6450.22  80.6232
 54.2116  6586.59  81.2091
 54.2536  6376.88  79.7365
 54.2956  6438.45  80.161
 54.3376  6437.34  80.6319
 54.3796  6359.32  80.0317
 54.4216  6495.99  80.9668
 54.4636  6457.99  80.6858
 54.5056  6454.83  80.45
 54.5476  6304.01  79.8548
 54.5896  6302.33  79.6879
 54.6316  6408.69  80.2137
 54.6736  6375.74  80.0467
 54.7156  6336.58  79.8773
 54.7576  6267.28  79.3918
 54.7996  6592.38  81.6137
 54.8416  6406.06  80.492
 54.8836  6348.25  80.2036
 54.9256  6294.18  79.6398
 54.9676  6328.5  79.7225
 55.0096  6283.69  79.4582
 55.0516  6258.02  79.4847
 55.0936  6319.78  79.5916
 55.1356  6217.82  78.9797
 55.1776  6382.26  80.2702
 55.2196  6311.77  79.6153
 55.2616  6399.23  80.379
 55.3036  6169.77  79.1
 55.3456  6128.77  78.9807
 55.3876  6260.63  79.5608
 55.4296  6214.58  79.2492
 55.4716  6287.99  79.7393
 55.5136  6257.36  79.3339
 55.5556  6470.19  80.7118
 55.5976  6230.78  79.292
 55.6396  6287.96  79.5025
 55.6816  6211.67  78.9719
 55.7236  6133.72  78.5334
 55.7656  6299.34  79.3224
 55.8076  6162.83  78.4533
 55.8496  6239.79  79.3603
 55.8916  6183.82  79.0436
 55.9336  6284.58  79.568
 55.9756  6200.75  78.9226
 56.0176  6181.55  78.9565
 56.0596  6154.5  78.7651
 56.1016  6070.65  78.2812
 56.1436  6146.81  78.9823
 56.1856  6104.99  78.4667
 56.2276  6341.23  80.0104
 56.2696  6219.98  79.224
 56.3116  6312.56  80.1774
 56.3536  6141.66  78.7679
 56.3956  6013.89  77.9357
 56.4376  6214.1  79.2552
 56.4796  6018.26  77.8318
 56.5216  6057.02  78.4507
 56.5636  6096.97  78.2822
 56.6056  6205.38  79.2004
 56.6476  6083.78  78.0401
 56.6896  6253.76  79.5873
 56.7316  6076.95  78.3781
 56.7736  6082.8  78.4156
 56.8156  6132  78.7501
 56.8576  5976.11  77.6835
 56.8996  6054.76  78.102
 56.9416  6079.42  78.5566
 56.9836  6187.2  78.7877
 57.0256  6021.16  78.0166
 57.0676  6128.34  78.8396
 57.1096  6058.84  78.1715
 57.1516  5944.79  77.451
 57.1936  6075.26  78.0995
 57.2356  5905.63  77.3193
 57.2776  6050.22  78.2193
 57.3196  6062.48  78.6417
 57.3616  6083.64  78.2834
 57.4036  5999.1  77.8085
 57.4456  6098.33  78.4205
 57.4876  6119.01  78.4205
 57.5296  5989.19  77.8022
 57.5716  5977.38  77.8193
 57.6136  5894.75  77.1317
 57.6556  5996.76  77.9171
 57.6976  6051.88  78.1082
 57.7396  5870.65  77.2615
 57.7816  5832.57  77.37
 57.8236  5904.62  77.6489
 57.8656  5860.09  77.0282
 57.9076  5920.73  77.4634
 57.9496  5995.14  78.2777
 57.9916  6051.73  78.1648
 58.0336  5926.35  77.6303
 58.0756  6008.81  77.7543
 58.1176  6050.21  78.0704
 58.1596  5850.49  77.347
 58.2016  5757.49  75.9677
 58.2436  5684.45  75.8836
 58.2856  5803.2  76.5881
 58.3276  5664.01  76.0316
 58.3696  5692.28  75.9814
 58.4116  5657.81  75.6194
 58.4536  5729.09  75.9801
 58.4956  5721.24  76.1069
 58.5376  5785.46  76.1067
 58.5796  5701.38  75.9664
 58.6216  5867.7  76.8913
 58.6636  5824.1  76.8069
 58.7056  5702.86  75.867
 58.7476  5683.42  76.1699
 58.7896  5660.95  75.6761
 58.8316  5704.17  75.9608
 58.8736  5718.04  76.0614
 58.9156  5667.39  75.7688
 58.9576  5679.9  76.1598
 58.9996  5749.14  75.8887
 59.0416  5856.02  76.951
 59.0836  5743.79  76.1306
 59.1256  5678.45  76.3762
 59.1676  5809.78  77.5591
 59.2096  5732.07  76.3582
 59.2516  5587.23  74.9844
 59.2936  5699.08  76.0499
 59.3356  5728.78  76.1287
 59.3776  5725.74  76.273
 59.4196  5616.37  75.4792
 59.4616  5658.77  75.6282
 59.5036  5576.97  75.1131
 59.5456  5649.47  75.3036
 59.5876  5639.68  75.423
 59.6296  5645.51  75.529
 59.6716  5621.34  75.423
 59.7136  5639.83  75.5356
 59.7556  5505.97  74.7641
 59.7976  5650.45  75.4892
 59.8396  5668.77  75.5091
 59.8816  5647.45  75.8943
 59.9236  5729.39  76.0959
 59.9656  5725.67  76.3246
 60.0076  5626.02  75.0377
 60.0496  5670.07  75.819
 60.0916  5832.47  76.3254
 60.1336  5603.52  75.8789
 60.1756  5666.33  77.45
 60.1996  0.0000000E+00  0.0000000E+00