File: docs/examples/opeando_xrd/IS17_D/Data/IS17_D/17_Da_f00086.xye
# /beamlines/bl04/projects/cycle2025-II/20250340211-lsimonelli/DATA/IS17_D/17_Da_f00086.xye : mythproc.py merge -s 0.006 -l 0.5 -f /beamlines/bl04/inhouse/ff/FlatField/ff_20Nov2024rod8mm60s_17keV.raw -b True -c true -o xye /beamlines/bl04/projects/cycle2025-II/20250340211-lsimonelli/DATA/IS17_D/17_Da_00086.dat
# IsMon = [6760185, 6760531, 6761465]  IsPos = [-1.4999, -2.4884, -3.4988]
# Wave = 0.4962  CalPath /beamlines/bl04/projects/cycle2025-II/20250340211-lsimonelli/DATA/Align/Si_Pos1_25keV_f00001.cal
# Date = 2025-09-24_17:30:41 Dt = 4.8000  Bin = 0.0060  <imon> = 6760727 +/- 541 (Min/Max) 6760185 / 6761465
# icurr 250.1205  mocoIn 1.7055E-05  mocoOut 0.8005  i15 7.07732e+06  imon 6.76073e+06  i7 5.6667  iEMpd_timer 4.8000  iEMpd_1 3.3867E-08  iEMpd_2 7.8129E-08  iEMpd_3 1.4952E-08  iEMpd_4 4.5270E-08  iEMhp_timer 4.8000  iEMhp_1 4.8848E-06  iEMhp_2 -2.6377E-08  iEMhp_3 -2.4668E-08  iEMhp_4 -2.2721E-08
#      9776
 1.5856  40416.6  206.443
 1.6276  47524.4  220.02
 1.6696  53786.5  233.242
 1.7116  62973.6  252.87
 1.7536  71252.6  267.833
 1.7956  76330.7  277.905
 1.8376  72569.5  271.402
 1.8796  60706.8  246.407
 1.9216  49171.7  222.645
 1.9636  41072.3  202.651
 2.0056  37243.8  192.226
 2.0476  34660.1  187.472
 2.0896  33020.2  181.91
 2.1316  32364.6  179.229
 2.1736  30727.4  176.023
 2.2156  30934.3  175.197
 2.2576  29873.2  172.783
 2.2996  28591.9  169.657
 2.3416  29022.1  169.565
 2.3836  28317.3  167.596
 2.4256  27512.5  165.736
 2.4676  27163.7  164.449
 2.5096  27079.7  164.248
 2.5516  26369  165.813
 2.5936  28235.3  168.123
 2.6356  26136.3  162.446
 2.6776  26024.1  160.995
 2.7196  25533.1  159.983
 2.7616  25422.2  159.414
 2.8036  24938.1  158.058
 2.8456  24829.1  158.319
 2.8876  24524.9  157.222
 2.9296  24076  155.902
 2.9716  24072.4  155.388
 3.0136  23572.8  153.834
 3.0556  23716.9  154.696
 3.0976  23722.6  153.653
 3.1396  23498  153.641
 3.1816  23312.9  152.963
 3.2236  23018.7  151.998
 3.2656  23253.7  151.815
 3.3076  22814.5  151.806
 3.3496  23275.5  152.284
 3.3916  23578.8  153.099
 3.4336  23875.1  154.628
 3.4756  24493  156.538
 3.5176  25354.6  159.068
 3.5596  25010.8  160.391
 3.6016  25349.8  159.107
 3.6436  24471.8  157.418
 3.6856  24107.4  154.543
 3.7276  23128.9  152.464
 3.7696  22938.2  152.024
 3.8116  22592.6  150.761
 3.8536  22736.6  151.173
 3.8956  22504.2  150.228
 3.9376  22477.7  150.392
 3.9796  22649.3  150.476
 4.0216  22610.5  149.389
 4.0636  22406.5  150.158
 4.1056  22626.6  150.551
 4.1476  22688.9  151.073
 4.1896  22917.5  151.693
 4.2316  23045.4  151.942
 4.2736  23612.2  153.582
 4.3156  23931  154.845
 4.3576  24539.2  156.731
 4.3996  25003.9  158.465
 4.4416  25214.8  158.719
 4.4836  25648.5  160.233
 4.5256  26181.5  162.495
 4.5676  26277.2  163.045
 4.6096  26707.9  163.039
 4.6516  27062.1  163.827
 4.6936  27320.6  165.416
 4.7356  27382.3  165.435
 4.7776  27548.9  165.769
 4.8196  27192.2  165.34
 4.8616  26880.1  163.873
 4.9036  26439.8  162.27
 4.9456  26418.1  162.848
 4.9876  25912.1  161.183
 5.0296  26156.4  161.752
 5.0716  26051.5  162.209
 5.1136  26241  162.503
 5.1556  26582.2  163.026
 5.1976  26976.3  164.224
 5.2396  27071  164.208
 5.2816  26905.9  164.167
 5.3236  27069.5  164.373
 5.3656  26699.2  164.164
 5.4076  26528.6  163.79
 5.4496  26604  163.508
 5.4916  26669.9  163.467
 5.5336  26723  163.637
 5.5756  26470.7  162.892
 5.6176  26581.8  162.667
 5.6596  26883  164.564
 5.7016  27176.5  164.724
 5.7436  27248  165.213
 5.7856  27147  164.967
 5.8276  27650.5  166.209
 5.8696  27445.6  165.763
 5.9116  27614.4  166.877
 5.9536  27723.6  166.957
 5.9956  28187  167.715
 6.0376  28213.9  168.43
 6.0796  28328.8  168.601
 6.1216  28523.5  169.384
 6.1636  28539.1  168.495
 6.2056  28581  169.285
 6.2476  28773.7  169.728
 6.2896  28972.8  169.994
 6.3316  29029.5  170.333
 6.3736  28987.1  170.103
 6.4156  28890.2  169.711
 6.4576  29197.8  170.221
 6.4996  29369.6  171.204
 6.5416  29365.5  171.328
 6.5836  29369.5  171.57
 6.6256  29538.9  171.627
 6.6676  29839.1  172.066
 6.7096  29807.8  172.824
 6.7516  30206.1  173.627
 6.7936  30403.6  173.625
 6.8356  30609.5  174.293
 6.8776  30762  175.528
 6.9196  30919.5  176.374
 6.9616  31143.8  176.46
 7.0036  31572.8  177.321
 7.0456  31523  176.48
 7.0876  31439.7  177.928
 7.1296  31634  177.62
 7.1716  31546.8  176.909
 7.2136  31272.9  175.923
 7.2556  31514.2  176.763
 7.2976  31599.2  177.498
 7.3396  31426.3  177.223
 7.3816  31164.6  176.699
 7.4236  31570.2  177.139
 7.4656  31909.3  177.575
 7.5076  32091.5  178.214
 7.5496  31992.1  178.472
 7.5916  32067.1  178.712
 7.6336  32345.9  179.387
 7.6756  32511.7  179.698
 7.7176  32930.5  181.16
 7.7596  32749.6  181.907
 7.8016  33048  184.887
 7.8436  33528.8  182.927
 7.8856  33901.4  183.551
 7.9276  34379.1  185.232
 7.9696  34542.4  185.984
 8.0116  35837.9  187.97
 8.0536  35841.1  188.236
 8.0956  35686.4  189.007
 8.1376  36137.8  189.663
 8.1796  36498.3  191.154
 8.2216  37146.1  191.58
 8.2636  37107  191.726
 8.3056  37257.9  192.888
 8.3476  37996.4  194.113
 8.3896  37667.8  193.355
 8.4316  37652.9  193.481
 8.4736  38029.6  193.912
 8.5156  37332.9  192.403
 8.5576  37038.1  192.62
 8.5996  36964.4  191.293
 8.6416  37146.3  193.03
 8.6836  36969.1  192.397
 8.7256  37496.4  193.208
 8.7676  36986.6  194.788
 8.8096  36673.3  191.272
 8.8516  36427  190.253
 8.8936  36192.7  189.526
 8.9356  35868.2  189.029
 8.9776  36302.4  190.263
 9.0196  36040.5  189.251
 9.0616  36343.1  189.512
 9.1036  35906.1  189.554
 9.1456  36083.3  189.379
 9.1876  35684.3  188.279
 9.2296  36109.5  188.8
 9.2716  35232.5  186.558
 9.3136  35258.9  186.605
 9.3556  35759.9  187.913
 9.3976  33966.7  183.662
 9.4396  34657  185.413
 9.4816  34167.9  183.966
 9.5236  34129.5  183.773
 9.5656  34102.6  184.025
 9.6076  33830.5  183.814
 9.6496  33782.5  183.606
 9.6916  33689.3  183.327
 9.7336  33551.2  182.731
 9.7756  33799.4  184.666
 9.8176  33298.9  182.792
 9.8596  32796.7  179.864
 9.9016  32404.6  178.78
 9.9436  32327.8  178.479
 9.9856  31837.9  177.347
 10.0276  31317.9  176.986
 10.0696  31954.7  177.817
 10.1116  30907.8  175.14
 10.1536  30783.4  174.956
 10.1956  30367.8  173.373
 10.2376  29989.9  171.794
 10.2796  30453.3  173.248
 10.3216  30134.2  172.604
 10.3636  29955.8  172.125
 10.4056  29836.8  172.171
 10.4476  29581.4  171.068
 10.4896  30266  172.487
 10.5316  29405.3  170.725
 10.5736  29510.5  171.447
 10.6156  29004.1  169.728
 10.6576  29201.2  168.864
 10.6996  28840.9  168.488
 10.7416  28336.8  167.244
 10.7836  28454.5  168.287
 10.8256  27963.4  167.26
 10.8676  28069.7  167.109
 10.9096  27716.1  166.089
 10.9516  27493.6  164.343
 10.9936  27400.3  164.274
 11.0356  27255.8  164.474
 11.0776  27134.7  163.414
 11.1196  26588.1  162.495
 11.1616  26603.4  162.251
 11.2036  26658  162.265
 11.2456  26423.3  162.256
 11.2876  26542.8  162.354
 11.3296  26153.5  161.046
 11.3716  26601.4  162.121
 11.4136  26641.9  163.146
 11.4556  26804.6  163.308
 11.4976  27072.5  163.083
 11.5396  27054.4  163.204
 11.5816  26690.1  162.557
 11.6236  26282.2  161.528
 11.6656  25951.4  159.668
 11.7076  25457  158.972
 11.7496  25141.6  161.912
 11.7916  25157  157.303
 11.8336  24998.8  157.689
 11.8756  24951.4  157.071
 11.9176  24954.1  156.736
 11.9596  24481.9  155.433
 12.0016  24583.7  156.553
 12.0436  24542.5  155.83
 12.0856  24136.2  155.071
 12.1276  24203.2  155.2
 12.1696  24102.4  154.018
 12.2116  24419  155.027
 12.2536  24138.6  154.962
 12.2956  24326.2  154.895
 12.3376  23897.1  153.725
 12.3796  24167.2  155.05
 12.4216  24266  154.592
 12.4636  23963.7  154.532
 12.5056  24036.9  154.045
 12.5476  24028.2  153.548
 12.5896  24161.4  154.605
 12.6316  23562.1  152.833
 12.6736  23840.6  154.211
 12.7156  23631.2  153.401
 12.7576  23743.3  154.007
 12.7996  24125.4  153.884
 12.8416  23626.2  153.328
 12.8836  24199.5  155.003
 12.9256  24491.1  154.941
 12.9676  24676.1  155.958
 13.0096  24257.7  155.73
 13.0516  24429.9  155.314
 13.0936  24478.6  155.866
 13.1356  24710.4  155.592
 13.1776  24508.6  155.946
 13.2196  24491.6  155.548
 13.2616  24436.7  155.679
 13.3036  24465.7  155.745
 13.3456  24462.6  156.09
 13.3876  24468.1  155.4
 13.4296  24414  155.379
 13.4716  24532.8  155.366
 13.5136  24608.6  155.75
 13.5556  24452.1  155.875
 13.5976  24651.6  156.647
 13.6396  24770.8  156.4
 13.6816  24432.9  155.827
 13.7236  24932.4  157.056
 13.7656  24159.3  155.129
 13.8076  24504.6  155.02
 13.8496  24086.5  154.288
 13.8916  24174.8  155.576
 13.9336  24346.5  155.346
 13.9756  23968.1  153.483
 14.0176  24038.9  154.398
 14.0596  23918.2  153.973
 14.1016  23516.2  153.063
 14.1436  23466.3  152.033
 14.1856  23298.8  151.791
 14.2276  22860.8  150.832
 14.2696  23178.4  151.725
 14.3116  22924.4  150.79
 14.3536  22635.6  150.015
 14.3956  22379.8  148.893
 14.4376  22624.7  149.481
 14.4796  22685.4  149.676
 14.5216  22126.6  148.623
 14.5636  22016.9  147.813
 14.6056  22214.5  148.054
 14.6476  22123.9  146.984
 14.6896  21676  146.029
 14.7316  21459.3  146.317
 14.7736  21537.4  145.739
 14.8156  21249.1  144.791
 14.8576  21122.6  144.206
 14.8996  20707.2  143.987
 14.9416  20346.1  142.72
 14.9836  20463.7  143.093
 15.0256  20346.2  141.607
 15.0676  20388.5  142.078
 15.1096  20200.7  141.159
 15.1516  19838.6  140.444
 15.1936  19812.1  139.778
 15.2356  19531.5  139.064
 15.2776  19489.8  138.501
 15.3196  19048  137.92
 15.3616  19094.7  137.843
 15.4036  18713.7  136.324
 15.4456  19510.7  138.841
 15.4876  18983.4  136.629
 15.5296  18864.3  136.491
 15.5716  18559  134.979
 15.6136  18326.8  134.46
 15.6556  18767.2  135.3
 15.6976  18290.6  133.866
 15.7396  18188.1  133.876
 15.7816  18303  133.81
 15.8236  17917.4  133.088
 15.8656  17867.6  132.696
 15.9076  17627.7  131.63
 15.9496  17436.1  133.68
 15.9916  17737.2  135.271
 16.0336  17273.8  130.4
 16.0756  17309.3  130.84
 16.1176  17218.7  130.565
 16.1596  16797.9  130.13
 16.2016  17173.8  130.321
 16.2436  16834.4  129.415
 16.2856  16929.5  129.321
 16.3276  16669.7  128.741
 16.3696  16985.6  129.777
 16.4116  16496.4  128.351
 16.4536  16801.7  129.321
 16.4956  16582.4  128.21
 16.5376  16315.5  127.358
 16.5796  16395.9  127.029
 16.6216  16521.6  127.824
 16.6636  16335  127.255
 16.7056  16561.2  127.994
 16.7476  16519.4  127.362
 16.7896  16247.1  127.058
 16.8316  16503.8  128.023
 16.8736  16288.8  127.446
 16.9156  16259.5  127.656
 16.9576  16032.9  127.568
 16.9996  16285.5  129.056
 17.0416  16441.3  128.011
 17.0836  16070.5  126.327
 17.1256  15794.9  125.252
 17.1676  16026.7  126.161
 17.2096  15770.7  125.025
 17.2516  15806.7  124.948
 17.2936  15696.3  124.824
 17.3356  15463.8  123.903
 17.3776  15530.3  124.371
 17.4196  15548  124.136
 17.4616  15277.5  122.96
 17.5036  15181.5  122.944
 17.5456  15069.2  123.128
 17.5876  15164.8  122.565
 17.6296  15125  122.216
 17.6716  14918.6  121.955
 17.7136  14917.4  122.093
 17.7556  14960.1  122.556
 17.7976  14883.7  121.988
 17.8396  14856.1  121.374
 17.8816  14995.8  122.482
 17.9236  14761.3  121.339
 17.9656  14972.4  122.742
 18.0076  14976.4  122.334
 18.0496  15031.2  121.686
 18.0916  14984.7  122.034
 18.1336  15177.3  122.916
 18.1756  15091.9  122.107
 18.2176  15009.9  121.996
 18.2596  14999.1  121.689
 18.3016  15129.3  122.474
 18.3436  15101.8  122.367
 18.3856  14865.1  121.533
 18.4276  14922.7  121.446
 18.4696  14805  121.061
 18.5116  14847  121.523
 18.5536  14834.5  121.829
 18.5956  14627.5  120.528
 18.6376  14469  120.279
 18.6796  14495.7  119.714
 18.7216  14600.5  120.637
 18.7636  14285.2  119.316
 18.8056  14338.8  119.481
 18.8476  14301.9  119.956
 18.8896  14250.1  119.07
 18.9316  14476.9  120.001
 18.9736  14359.6  119.205
 19.0156  14297  119.354
 19.0576  14216.9  117.883
 19.0996  14335.8  119.092
 19.1416  13986.5  118.02
 19.1836  14062.3  117.941
 19.2256  14086.1  118.259
 19.2676  14177.7  118.731
 19.3096  14108.7  118.688
 19.3516  14028  118.303
 19.3936  14017.2  118.158
 19.4356  13962.6  117.8
 19.4776  14113.8  118.537
 19.5196  14071.9  118.204
 19.5616  13969.9  118.036
 19.6036  14023  117.758
 19.6456  14105  118.226
 19.6876  14069.4  117.72
 19.7296  14010.2  117.927
 19.7716  13914.1  117.684
 19.8136  14123.1  118.774
 19.8556  14408.8  119.441
 19.8976  14311.7  119.106
 19.9396  14424.7  119.144
 19.9816  14598.7  120.105
 20.0236  14699.4  120.743
 20.0656  14583.3  120.259
 20.1076  14148.6  118.914
 20.1496  13898.6  117.87
 20.1916  13817.4  117.04
 20.2336  13799.3  116.898
 20.2756  13637.8  116.638
 20.3176  13556.1  116.039
 20.3596  13669.2  116.498
 20.4016  13576.1  115.904
 20.4436  13570.8  116.436
 20.4856  13257.7  114.877
 20.5276  13292.8  115.488
 20.5696  13370.7  115.288
 20.6116  13336.1  115.413
 20.6536  13157.3  114.15
 20.6956  13271.4  114.77
 20.7376  13299.8  115.119
 20.7796  13242.4  114.559
 20.8216  13418.2  115.024
 20.8636  13128.3  114.141
 20.9056  13130  114.099
 20.9476  12960.7  113.202
 20.9896  13470.7  115.27
 21.0316  13302.2  114.444
 21.0736  13203.7  114.541
 21.1156  13277.8  115.024
 21.1576  13180.8  114.656
 21.1996  13191.4  114.674
 21.2416  13062.2  113.947
 21.2836  13187  114.457
 21.3256  13068.8  114.022
 21.3676  13054  113.508
 21.4096  13061  113.849
 21.4516  12863.2  112.863
 21.4936  12819.8  112.925
 21.5356  12927  113.337
 21.5776  12991.3  113.453
 21.6196  12796.7  112.635
 21.6616  12863.4  113.019
 21.7036  12765.5  112.37
 21.7456  12914.4  113.095
 21.7876  12781.7  112.262
 21.8296  12762.3  112.037
 21.8716  12784.8  112.367
 21.9136  12920.3  113.162
 21.9556  12757.5  112.117
 21.9976  12752.2  112.105
 22.0396  12549.7  111.471
 22.0816  12799.8  113.116
 22.1236  12865.8  112.859
 22.1656  12796.6  112.677
 22.2076  12839.6  112.342
 22.2496  12640  111.495
 22.2916  12597.6  111.189
 22.3336  12706.2  112.394
 22.3756  12728.5  112.212
 22.4176  12695.7  111.919
 22.4596  12508.3  111.679
 22.5016  12832.6  112.595
 22.5436  12615.2  111.531
 22.5856  12620.4  111.803
 22.6276  12543  111.596
 22.6696  12556.4  112
 22.7116  12559.5  111.535
 22.7536  12707.1  112.162
 22.7956  12674.7  111.35
 22.8376  12582.7  111.464
 22.8796  12590  111.297
 22.9216  12901.2  113.218
 22.9636  12696.2  111.465
 23.0056  12640.9  111.351
 23.0476  12596.4  111.727
 23.0896  13047.9  113.084
 23.1316  12810.8  112.49
 23.1736  12619.6  114.606
 23.2156  12777.9  112.675
 23.2576  12688  112.403
 23.2996  12574.8  111.689
 23.3416  12619.4  112.404
 23.3836  12549.7  111.331
 23.4256  12718.8  112.196
 23.4676  12505.6  110.948
 23.5096  12535.4  111.758
 23.5516  12480.8  110.799
 23.5936  12468  111.635
 23.6356  12802.9  112.794
 23.6776  12705.4  112.574
 23.7196  12382.1  110.717
 23.7616  12670.8  111.916
 23.8036  12544.5  111.402
 23.8456  12578.8  111.123
 23.8876  12256.2  110.034
 23.9296  12315.8  110.789
 23.9716  12502.2  110.823
 24.0136  12363.6  111.099
 24.0556  12290.9  110.509
 24.0976  12236.4  110.063
 24.1396  12169  112.404
 24.1816  12188.1  110.924
 24.2236  12133.1  110.283
 24.2656  11970.4  109.018
 24.3076  11890.2  108.895
 24.3496  11891.5  108.799
 24.3916  11989.7  109.294
 24.4336  12012.1  109.607
 24.4756  11799.5  108.498
 24.5176  11854.7  108.406
 24.5596  11784.1  108.207
 24.6016  11569  107.499
 24.6436  11516.2  106.754
 24.6856  11683  107.285
 24.7276  11684.6  107.611
 24.7696  11569.3  107.189
 24.8116  11485.7  106.981
 24.8536  11472.8  106.911
 24.8956  11426.7  106.441
 24.9376  11436  106.422
 24.9796  11345.6  106.354
 25.0216  11160.6  105.59
 25.0636  11311.9  105.961
 25.1056  11129.2  105.802
 25.1476  11355.6  108.534
 25.1896  11329.2  106.888
 25.2316  11346.2  106.231
 25.2736  11207.5  105.24
 25.3156  11200.2  105.28
 25.3576  11163.6  105.529
 25.3996  11118.2  105.297
 25.4416  11283  106.057
 25.4836  11015.3  105.315
 25.5256  11051.8  104.854
 25.5676  11124  104.923
 25.6096  11069.5  105.24
 25.6516  11189.1  105.308
 25.6936  11085.8  105.131
 25.7356  11019.5  104.954
 25.7776  11057.9  104.738
 25.8196  10923.9  104.339
 25.8616  11134.5  105.259
 25.9036  11070.4  104.423
 25.9456  11037.1  104.868
 25.9876  10844.1  104.009
 26.0296  11012.7  104.325
 26.0716  10863.5  104.035
 26.1136  11007.5  104.669
 26.1556  11103.7  104.5
 26.1976  10796.5  103.968
 26.2396  10976  103.977
 26.2816  10937.8  104.407
 26.3236  10822  104.015
 26.3656  10832  103.786
 26.4076  10809.6  103.887
 26.4496  11442  106.355
 26.4916  10900  103.82
 26.5336  10759.8  103.471
 26.5756  11084.1  104.893
 26.6176  10836.6  103.754
 26.6596  10688.7  103.35
 26.7016  10640  102.869
 26.7436  10654  103.069
 26.7856  10488.7  102.246
 26.8276  10446.2  101.997
 26.8696  10723.8  103.217
 26.9116  10526.3  102.202
 26.9536  10531.5  102.275
 26.9956  10522.3  102.266
 27.0376  10461.5  102.178
 27.0796  10554.3  102.363
 27.1216  10472.7  102.046
 27.1636  10338.6  101.554
 27.2056  10483.1  102.145
 27.2476  10428.3  101.874
 27.2896  10478.1  102.231
 27.3316  10341.8  101.278
 27.3736  10418.8  101.923
 27.4156  10304.1  101.204
 27.4576  10366.3  101.74
 27.4996  10322.3  101.117
 27.5416  10342.4  101.534
 27.5836  10357.3  101.423
 27.6256  10686  103.184
 27.6676  10464.7  102.137
 27.7096  10195.1  100.676
 27.7516  10246.4  101.079
 27.7936  10167.3  100.86
 27.8356  10323.5  101.252
 27.8776  10263.3  100.99
 27.9196  10150.1  100.294
 27.9616  10169.9  100.574
 28.0036  10169.3  100.551
 28.0456  10172.1  100.697
 28.0876  10018.7  100.025
 28.1296  10081.4  100.179
 28.1716  10076.4  100.162
 28.2136  10126.3  100.373
 28.2556  10023.8  99.9785
 28.2976  10120.5  100.451
 28.3396  10059.7  99.9083
 28.3816  9937.03  99.3192
 28.4236  10060  100.084
 28.4656  9932.28  99.4853
 28.5076  9897.58  98.9447
 28.5496  10012.8  99.7832
 28.5916  9918.93  99.1191
 28.6336  9796.44  98.8493
 28.6756  10010  99.1179
 28.7176  9889.61  99.0672
 28.7596  9693.12  97.9765
 28.8016  9927.39  99.1918
 28.8436  9623.14  97.8983
 28.8856  9925.05  99.2689
 28.9276  9867.65  99.2279
 28.9696  9876.71  98.93
 29.0116  9772.96  98.5974
 29.0536  9638.5  98.1159
 29.0956  9735.81  98.3264
 29.1376  9761.38  98.4179
 29.1796  9690.61  98.1075
 29.2216  9597.39  97.479
 29.2636  9760.18  98.3772
 29.3056  9709.29  97.9116
 29.3476  9648.53  98.1253
 29.3896  9731.85  98.6448
 29.4316  9796.15  98.3061
 29.4736  9741.49  98.0954
 29.5156  9631.52  97.4549
 29.5576  9783.77  98.9755
 29.5996  9705.15  97.8327
 29.6416  9648.06  97.6644
 29.6836  9757.36  98.1349
 29.7256  9517.6  97.4903
 29.7676  9721.92  98.1909
 29.8096  9594.77  97.489
 29.8516  9557.09  97.6268
 29.8936  9635.33  98.1213
 29.9356  9644.26  97.9227
 29.9776  9653.8  98.1261
 30.0196  9579.91  97.1324
 30.0616  9551.45  97.3648
 30.1036  9510.48  96.9802
 30.1456  9550.93  97.422
 30.1876  9546.09  97.3775
 30.2296  9444.92  96.8068
 30.2716  9566.84  97.0665
 30.3136  9467.02  97.4148
 30.3556  9594.84  98.0808
 30.3976  9455.65  98.895
 30.4396  9589.37  96.912
 30.4816  9541.45  96.2692
 30.5236  9453.08  95.8396
 30.5656  9417.48  96.3072
 30.6076  9487.1  96.0921
 30.6496  9536.77  96.7298
 30.6916  9469.05  96.4788
 30.7336  9423.39  96.398
 30.7756  9363.04  96.1815
 30.8176  9306.02  95.8038
 30.8596  9438.12  96.2452
 30.9016  9376.59  96.2775
 30.9436  9400.86  96.1566
 30.9856  9358.03  96.0447
 31.0276  9305.72  95.379
 31.0696  9297.63  95.9161
 31.1116  9264.32  95.7211
 31.1536  9386.41  96.2284
 31.1956  9226.08  95.4949
 31.2376  9064.9  94.6651
 31.2796  9211.02  94.9667
 31.3216  9325.51  95.4973
 31.3636  9350.03  96.3178
 31.4056  9295.83  97.364
 31.4476  9240.49  94.9582
 31.4896  9245.87  95.4907
 31.5316  9308.79  95.2151
 31.5736  9347.1  95.2169
 31.6156  9209.98  94.5493
 31.6576  9272.35  94.9597
 31.6996  9283.2  94.6913
 31.7416  9048.92  94.5372
 31.7836  9155.6  94.116
 31.8256  9165.35  94.4322
 31.8676  9303.24  95.1392
 31.9096  9089.72  94.3996
 31.9516  8935.42  93.7472
 31.9936  9106.52  94.4705
 32.0356  9181.61  94.9207
 32.0776  9079.59  94.2796
 32.1196  9206.61  95.0205
 32.1616  8999.42  93.4159
 32.2036  9002.42  93.9389
 32.2456  9086.08  94.7528
 32.2876  8983.73  93.7142
 32.3296  9056.28  94.063
 32.3716  9047.6  94.1237
 32.4136  9052.22  94.3602
 32.4556  9102.44  93.9988
 32.4976  8991.47  93.3338
 32.5396  9062.92  93.7729
 32.5816  8966.34  93.3888
 32.6236  8962.66  93.4436
 32.6656  9080.13  94.5845
 32.7076  8886.73  93.238
 32.7496  8926.17  93.1151
 32.7916  8982.85  93.373
 32.8336  9070.79  93.9208
 32.8756  9063.98  93.6038
 32.9176  8909.74  93.29
 32.9596  8920.99  93.4171
 33.0016  8996.69  93.6098
 33.0436  9037.03  93.9958
 33.0856  8948.61  93.6006
 33.1276  8825.68  92.6957
 33.1696  8963.97  93.2609
 33.2116  8910.26  93.2064
 33.2536  8873.36  93.0127
 33.2956  8957.68  93.5385
 33.3376  8881.82  92.8799
 33.3796  9009.82  93.7559
 33.4216  8892.29  92.7407
 33.4636  8959.35  93.2379
 33.5056  8772.6  92.4998
 33.5476  8669.01  91.9434
 33.5896  8968.37  93.2899
 33.6316  8783.38  92.6411
 33.6736  8659.27  92.219
 33.7156  8681.91  92.3841
 33.7576  8923.34  93.2884
 33.7996  8994  93.4206
 33.8416  8669.82  91.9052
 33.8836  8781.6  92.2653
 33.9256  8712.05  91.9662
 33.9676  8781.37  92.2308
 34.0096  8572.66  91.4359
 34.0516  8657.76  91.5316
 34.0936  8574.77  91.3484
 34.1356  8768.48  92.1217
 34.1776  8628.05  91.3941
 34.2196  8594.17  91.3924
 34.2616  8627.76  91.7026
 34.3036  8666.72  92.1591
 34.3456  8601.84  91.5718
 34.3876  8628.63  91.6769
 34.4296  8622.67  91.3392
 34.4716  8837.96  92.6155
 34.5136  8678.88  91.9886
 34.5556  8538.82  91.4951
 34.5976  8564.98  91.4355
 34.6396  8672.11  91.7219
 34.6816  8532.23  91.0887
 34.7236  8554.73  90.9934
 34.7656  8511.14  90.9571
 34.8076  8591.65  91.7131
 34.8496  8502.8  91.09
 34.8916  8578.45  91.3617
 34.9336  8601.42  91.449
 34.9756  8569.81  91.2066
 35.0176  8682.76  92.3369
 35.0596  8509.46  91.2332
 35.1016  8472  90.801
 35.1436  8616.33  91.2618
 35.1856  8415.27  90.3173
 35.2276  8549.31  91.2051
 35.2696  8460.85  90.9199
 35.3116  8454.04  90.98
 35.3536  8392.29  90.3648
 35.3956  8404.64  90.1343
 35.4376  8399.98  90.6561
 35.4796  8464.88  91.0765
 35.5216  8398.26  90.6729
 35.5636  8275.71  90.7499
 35.6056  8531.92  91.155
 35.6476  8449.4  90.6126
 35.6896  8506.37  91.0061
 35.7316  8409.24  90.4546
 35.7736  8360.34  90.3895
 35.8156  8353.02  90.3515
 35.8576  8442  91.0693
 35.8996  8529.12  91.5132
 35.9416  8623.81  91.482
 35.9836  8334.13  90.3153
 36.0256  8368.59  90.5164
 36.0676  8361.15  90.2454
 36.1096  8203.36  89.5254
 36.1516  8501.88  91.0276
 36.1936  8429.6  90.4819
 36.2356  8315.44  90.5115
 36.2776  8326.91  90.0564
 36.3196  8398.82  90.1084
 36.3616  8323.81  89.8383
 36.4036  8281.21  89.6651
 36.4456  8402.76  90.5351
 36.4876  8263.79  89.7194
 36.5296  8253.77  89.7026
 36.5716  8338.15  90.9476
 36.6136  8332.47  89.689
 36.6556  8362.61  90.0533
 36.6976  8228.68  89.8239
 36.7396  8337.45  90.1404
 36.7816  8319.02  90.4235
 36.8236  8232.07  89.8725
 36.8656  8290.67  90.2626
 36.9076  8211.8  89.7119
 36.9496  8253.8  89.9272
 36.9916  8232.65  89.4433
 37.0336  8368.54  90.4955
 37.0756  8333.78  90.0976
 37.1176  8145.75  89.344
 37.1596  8285.36  90.1112
 37.2016  8198.35  89.8646
 37.2436  8264.06  89.5368
 37.2856  8124.51  89.0324
 37.3276  8252.09  89.079
 37.3696  8207.68  89.7234
 37.4116  8265.64  89.9459
 37.4536  8230.61  89.6234
 37.4956  8158.11  89.2664
 37.5376  8130.4  90.6802
 37.5796  8216.98  91.1079
 37.6216  8020.36  88.2899
 37.6636  7957.22  87.8378
 37.7056  8090.51  88.7661
 37.7476  8025.29  87.9463
 37.7896  8108.67  88.9017
 37.8316  7906.18  87.9575
 37.8736  8228.61  89.2492
 37.9156  8035.58  88.1993
 37.9576  8014.84  87.9775
 37.9996  7864.92  86.8654
 38.0416  7980.58  88.3134
 38.0836  8121.31  88.9946
 38.1256  7999.36  88.2772
 38.1676  7925.57  88.01
 38.2096  8000.81  88.0527
 38.2516  8125.11  88.9351
 38.2936  7967.35  87.8701
 38.3356  8163.1  88.8591
 38.3776  7933.94  87.8726
 38.4196  8001.67  88.1011
 38.4616  7916.83  87.8662
 38.5036  8083.85  88.6241
 38.5456  8020.95  89.1264
 38.5876  8038.94  89.2634
 38.6296  7924.13  87.6013
 38.6716  7829.32  86.8697
 38.7136  7788.52  86.5821
 38.7556  7865.11  87.5113
 38.7976  7882.35  87.5458
 38.8396  7824.89  87.6766
 38.8816  7850.7  87.5967
 38.9236  7733.02  86.757
 38.9656  7874.58  87.4592
 39.0076  7962.37  87.3526
 39.0496  7950.36  87.8225
 39.0916  7915.94  87.277
 39.1336  7814.5  87.1359
 39.1756  7846.86  87.3814
 39.2176  7781.74  87.5462
 39.2596  7875.73  87.9891
 39.3016  7799.95  87.1486
 39.3436  7773.58  87.4197
 39.3856  7896.88  87.5602
 39.4276  7876.6  87.9388
 39.4696  7972.65  88.0978
 39.5116  7763.54  87.4446
 39.5536  8053  89.4911
 39.5956  7962.1  88.0727
 39.6376  7911.13  87.7994
 39.6796  7899.22  87.4774
 39.7216  7906.45  87.6108
 39.7636  7952.78  88.4476
 39.8056  7970.14  88.3158
 39.8476  7793.51  87.5862
 39.8896  7950.92  88.0929
 39.9316  7740.15  87.1737
 39.9736  7963.71  87.987
 40.0156  7895.65  87.4374
 40.0576  7906.03  87.8574
 40.0996  7944.68  87.253
 40.1416  7905.65  87.8217
 40.1836  8018.5  88.3396
 40.2256  7977.3  88.1619
 40.2676  7867.36  87.657
 40.3096  7977.34  88.1871
 40.3516  8030.19  88.5947
 40.3936  7959.39  87.7635
 40.4356  7930.7  87.7952
 40.4776  7921.61  88.1599
 40.5196  7975.05  88.5791
 40.5616  7949.23  88.0823
 40.6036  7823.34  87.6363
 40.6456  8043.05  88.4613
 40.6876  7960.6  87.9962
 40.7296  7969.88  88.1845
 40.7716  7944.31  88.1702
 40.8136  7968.72  88.247
 40.8556  7945.79  88.2544
 40.8976  7932.22  88.0982
 40.9396  7866.47  88.0823
 40.9816  7982.58  88.0129
 41.0236  7944.95  87.5842
 41.0656  8092.94  88.9408
 41.1076  7931.97  87.8236
 41.1496  7940.21  87.7808
 41.1916  7927.36  88.0351
 41.2336  7857.76  87.6366
 41.2756  7952.83  87.7685
 41.3176  7836.87  87.7356
 41.3596  7979.21  88.2592
 41.4016  7943.8  88.3238
 41.4436  7938.81  88.0746
 41.4856  8033.42  88.7682
 41.5276  7849.24  87.7636
 41.5696  8055.02  88.5364
 41.6116  7838.06  87.7287
 41.6536  7963.18  88.2829
 41.6956  7897.42  87.9723
 41.7376  7900.78  88.0221
 41.7796  7941.86  88.1337
 41.8216  7904.48  88.1589
 41.8636  7973.78  88.4798
 41.9056  7836.16  87.5045
 41.9476  7871.75  87.9406
 41.9896  7931.04  87.9357
 42.0316  7917.89  87.9442
 42.0736  7949.29  88.2287
 42.1156  7894.23  87.7616
 42.1576  7863.68  87.6866
 42.1996  7913.25  88.103
 42.2416  7948.34  87.8837
 42.2836  7777.32  87.0463
 42.3256  7692.98  86.6857
 42.3676  7813.21  87.1633
 42.4096  7881.54  87.5072
 42.4516  7888.71  87.6383
 42.4936  7709.37  86.7006
 42.5356  7716.31  86.8748
 42.5776  7927.56  87.9903
 42.6196  7787.71  87.271
 42.6616  7690.52  86.8926
 42.7036  7923.95  87.5809
 42.7456  7827.55  87.4047
 42.7876  7821.08  87.4745
 42.8296  7803.97  87.2038
 42.8716  7789.09  87.2833
 42.9136  7752.25  86.8651
 42.9556  7706.02  86.7363
 42.9976  7850.47  87.5105
 43.0396  7804.59  86.9827
 43.0816  7745.86  87.033
 43.1236  7765.67  87.2028
 43.1656  7760.6  87.0053
 43.2076  7648.07  86.4699
 43.2496  7756.62  86.9012
 43.2916  7693.46  86.9093
 43.3336  7702.22  86.8
 43.3756  7732.66  86.7237
 43.4176  7676.21  86.4906
 43.4596  7667.07  86.2925
 43.5016  7688.97  86.8214
 43.5436  7757.43  87.105
 43.5856  7696.8  86.7914
 43.6276  7627.65  86.2968
 43.6696  7672.75  86.8094
 43.7116  7759.83  86.7983
 43.7536  7690.49  86.8997
 43.7956  7571.33  87.3989
 43.8376  7619.9  86.2344
 43.8796  7637.84  86.414
 43.9216  7622.33  86.2374
 43.9636  7727.55  86.939
 44.0056  7540.17  86.111
 44.0476  7588.67  86.0203
 44.0896  7541.12  86.0947
 44.1316  7749.74  86.796
 44.1736  7635.72  86.281
 44.2156  7702.68  86.5112
 44.2576  7512.2  85.7564
 44.2996  7557.05  85.987
 44.3416  7504.21  85.4475
 44.3836  7523.56  85.8841
 44.4256  7494.59  85.362
 44.4676  7394.25  84.9456
 44.5096  7431.34  85.3018
 44.5516  7543.07  85.8954
 44.5936  7302.42  84.4773
 44.6356  7498.75  85.3398
 44.6776  7612.24  86.3048
 44.7196  7448.46  85.6798
 44.7616  7522.52  87.4307
 44.8036  7435.57  85.3461
 44.8456  7497.39  85.9112
 44.8876  7517.53  85.879
 44.9296  7371.62  84.5018
 44.9716  7312.92  84.5819
 45.0136  7399.66  85.0164
 45.0556  7342.35  84.6671
 45.0976  7307.86  84.6296
 45.1396  7284.02  84.2621
 45.1816  7309.7  84.3351
 45.2236  7478.97  85.2073
 45.2656  7315.86  84.764
 45.3076  7363.43  84.8386
 45.3496  7252.09  84.4885
 45.3916  7360.54  85.3818
 45.4336  7273.97  84.7247
 45.4756  7314.28  84.8218
 45.5176  7310.55  84.4151
 45.5596  7412.48  85.1247
 45.6016  7285.29  84.8039
 45.6436  7321.01  84.2006
 45.6856  7190.98  84.0832
 45.7276  7263.31  85.8166
 45.7696  7345.19  85.9725
 45.8116  7278.11  85.0186
 45.8536  7256.92  84.7954
 45.8956  7362.59  84.7665
 45.9376  7283.65  83.7804
 45.9796  7337.2  84.7676
 46.0216  7213.17  84.3903
 46.0636  7333.75  84.2452
 46.1056  7383.09  84.5085
 46.1476  7258.33  84.3788
 46.1896  7314.28  84.8533
 46.2316  7241.28  84.3017
 46.2736  7178.72  84.2958
 46.3156  7249.96  84.3042
 46.3576  7280.67  84.6846
 46.3996  7179.15  84.2512
 46.4416  7299.51  84.5276
 46.4836  7300.86  84.8954
 46.5256  7232.46  84.4278
 46.5676  7147.48  84.0489
 46.6096  7234.64  84.4962
 46.6516  7173.1  83.1896
 46.6936  7298.38  84.4024
 46.7356  7363.23  84.8764
 46.7776  7055.31  83.9158
 46.8196  7157.81  84.123
 46.8616  7031.9  83.3255
 46.9036  7023.06  82.9366
 46.9456  7093.72  83.0014
 46.9876  7176.11  83.5648
 47.0296  7097.54  83.7811
 47.0716  7072.44  83.4582
 47.1136  7155.93  83.6332
 47.1556  7125.64  83.3242
 47.1976  7275.21  84.267
 47.2396  7090.98  83.5853
 47.2816  6951.95  82.4787
 47.3236  7070.25  83.541
 47.3656  7178.92  84.1111
 47.4076  7063.44  83.2372
 47.4496  7084.59  83.4582
 47.4916  7076.61  83.5971
 47.5336  7027.95  83.1251
 47.5756  7194.99  84.2227
 47.6176  6936.38  82.6009
 47.6596  7046.82  82.9719
 47.7016  7273.09  84.1108
 47.7436  7128.84  83.6026
 47.7856  7194.84  84.0192
 47.8276  6986.9  82.8451
 47.8696  6972.85  82.8404
 47.9116  7024.37  82.862
 47.9536  6991.92  82.617
 47.9956  6804.95  82.1943
 48.0376  7022.57  83.2721
 48.0796  7118.83  83.9749
 48.1216  7081.99  83.5723
 48.1636  7149.27  83.5477
 48.2056  7145.57  83.7896
 48.2476  7041.97  83.4857
 48.2896  7114.75  83.8241
 48.3316  6996.57  83.0711
 48.3736  6948.17  82.805
 48.4156  6939.55  82.6005
 48.4576  6985.49  83.1704
 48.4996  6994.98  82.6893
 48.5416  7019.63  83.1554
 48.5836  6923.29  82.264
 48.6256  6992.09  82.8814
 48.6676  6937.29  83.0505
 48.7096  7004.29  82.7378
 48.7516  6974.03  82.7055
 48.7936  6813.07  81.8023
 48.8356  6981.7  82.8603
 48.8776  6940.68  83.1867
 48.9196  7087.45  83.4227
 48.9616  6844.64  82.3613
 49.0036  6926.87  83.1968
 49.0456  6812.64  82.4844
 49.0876  6906.18  82.5931
 49.1296  6808.19  82.1701
 49.1716  6789.35  81.9243
 49.2136  7016.5  83.2135
 49.2556  6934.59  82.7561
 49.2976  6845.78  82.2898
 49.3396  6850.79  82.3704
 49.3816  6971.16  82.5338
 49.4236  6922.09  82.6667
 49.4656  6701.58  81.3525
 49.5076  6795.41  81.6732
 49.5496  6811.82  81.8358
 49.5916  6841.67  81.9309
 49.6336  6818.04  81.9832
 49.6756  6841.55  82.3562
 49.7176  6771.26  81.8715
 49.7596  6800.45  81.8272
 49.8016  6857.98  82.073
 49.8436  6739.07  81.6701
 49.8856  6756.97  81.7718
 49.9276  6646.47  81.211
 49.9696  6777.77  81.9846
 50.0116  6688.17  81.5743
 50.0536  6740.66  81.8343
 50.0956  6726.89  81.8285
 50.1376  6717.71  81.4778
 50.1796  6748.51  81.9301
 50.2216  6702.01  81.641
 50.2636  6721.18  81.3824
 50.3056  6711.37  81.4947
 50.3476  6727.77  81.6125
 50.3896  6757.77  81.7702
 50.4316  6711.92  81.3274
 50.4736  6712.38  81.5495
 50.5156  6738.74  81.6942
 50.5576  6756.8  81.5704
 50.5996  6666.76  81.3001
 50.6416  6716.2  81.5347
 50.6836  6652.94  81.2049
 50.7256  6768.2  81.8383
 50.7676  6696.51  81.7085
 50.8096  6559.14  80.4168
 50.8516  6565.31  80.8634
 50.8936  6715.44  81.5579
 50.9356  6717.97  81.6821
 50.9776  6715.78  81.8202
 51.0196  6536.25  80.8484
 51.0616  6619.98  80.699
 51.1036  6685.14  81.4449
 51.1456  6613.87  80.9261
 51.1876  6630.82  80.3797
 51.2296  6688.4  81.3593
 51.2716  6470.31  79.7246
 51.3136  6544.03  80.6305
 51.3556  6471.82  79.8164
 51.3976  6437.28  79.7555
 51.4396  6514.24  80.5242
 51.4816  6534.25  80.5135
 51.5236  6503.76  80.4064
 51.5656  6594.72  80.5757
 51.6076  6547.78  80.3691
 51.6496  6583.93  80.7772
 51.6916  6499.34  80.6077
 51.7336  6537.92  80.9359
 51.7756  6591.51  80.9705
 51.8176  6359.79  79.6394
 51.8596  6434.36  80.1178
 51.9016  6706.87  81.4036
 51.9436  6535.48  81.7835
 51.9856  6368.19  81.1727
 52.0276  6488.71  80.4628
 52.0696  6456.75  80.3288
 52.1116  6443.26  80.3553
 52.1536  6443.25  80.2464
 52.1956  6450.25  79.7589
 52.2376  6613.87  80.943
 52.2796  6467.03  79.8429
 52.3216  6446.02  80.404
 52.3636  6431.89  79.8989
 52.4056  6392.01  79.5052
 52.4476  6383.19  79.8129
 52.4896  6333.19  79.5536
 52.5316  6376.37  79.8656
 52.5736  6396.16  79.7224
 52.6156  6440.46  80.3724
 52.6576  6473.02  80.0292
 52.6996  6245.82  79.5601
 52.7416  6365.61  80.1703
 52.7836  6395.58  80.2318
 52.8256  6428.7  79.669
 52.8676  6217.91  78.9316
 52.9096  6440.11  80.4093
 52.9516  6365.86  80.3184
 52.9936  6299.7  80.2793
 53.0356  6300.42  79.3012
 53.0776  6308.29  79.6046
 53.1196  6289.64  79.6152
 53.1616  6283.44  79.6198
 53.2036  6183.05  78.9403
 53.2456  6240.01  79.405
 53.2876  6255.56  79.2136
 53.3296  6270.55  79.6289
 53.3716  6284.66  79.4686
 53.4136  6319.66  79.8385
 53.4556  6255.92  79.4647
 53.4976  6250.64  79.2784
 53.5396  6287.52  79.8984
 53.5816  6230.27  79.1739
 53.6236  6229.59  79.5086
 53.6656  6181.54  78.8396
 53.7076  6267.96  79.3484
 53.7496  6262.5  79.4304
 53.7916  6275.08  79.638
 53.8336  6164.08  78.83
 53.8756  6045.42  78.5997
 53.9176  6211.16  79.0265
 53.9596  6282.12  80.2407
 54.0016  6217.75  79.1646
 54.0436  6212.96  79.3463
 54.0856  6331.64  79.529
 54.1276  6320.13  79.6579
 54.1696  6241.89  79.3343
 54.2116  6238.66  79.0739
 54.2536  6230.9  78.8444
 54.2956  6308.05  79.3732
 54.3376  6210.55  79.2379
 54.3796  6240.58  79.3288
 54.4216  6428.8  80.557
 54.4636  6269.81  79.5153
 54.5056  6232.08  79.101
 54.5476  6247.34  79.5274
 54.5896  6170.06  78.8737
 54.6316  6201.93  78.9351
 54.6736  6299.56  79.6263
 54.7156  6280.05  79.5265
 54.7576  6139.48  78.6298
 54.7996  6204.1  79.1717
 54.8416  6264.37  79.6116
 54.8836  6056.08  78.3839
 54.9256  6155.34  78.7739
 54.9676  6211.54  78.9945
 55.0096  6205.73  79.0228
 55.0516  6223.59  79.3682
 55.0936  6174.21  78.6828
 55.1356  6079.15  78.1219
 55.1776  6111.93  78.598
 55.2196  6162.12  78.7028
 55.2616  6180.62  79.0309
 55.3036  6142.04  78.9422
 55.3456  6193.07  79.4182
 55.3876  6202.4  79.2244
 55.4296  6123.52  78.6958
 55.4716  6245.99  79.5126
 55.5136  6199.51  78.9752
 55.5556  6134.81  78.6325
 55.5976  6193.45  79.0627
 55.6396  6096.08  78.3892
 55.6816  6173.07  78.7628
 55.7236  6186.99  78.8939
 55.7656  6208.93  78.7893
 55.8076  6233.85  78.9323
 55.8496  6148.77  78.7094
 55.8916  6020.41  78.085
 55.9336  6038.8  78.02
 55.9756  6150.91  78.6351
 56.0176  6147  78.7611
 56.0596  6035.95  78.0316
 56.1016  6164.21  78.8602
 56.1436  6010.46  78.1362
 56.1856  6140.69  78.7212
 56.2276  6131.23  78.7119
 56.2696  6087.02  78.4016
 56.3116  6004.37  78.2633
 56.3536  6130.25  78.7419
 56.3956  6111.55  78.6105
 56.4376  6093.7  78.5277
 56.4796  6184.98  78.9173
 56.5216  6182.01  79.268
 56.5636  6165.48  78.758
 56.6056  5976.5  77.7642
 56.6476  6180.77  78.715
 56.6896  6062.69  78.4031
 56.7316  6149.08  78.8529
 56.7736  6063.25  78.3132
 56.8156  6054.78  78.2577
 56.8576  6110.15  78.5555
 56.8996  6135.91  78.6579
 56.9416  6094.45  78.6904
 56.9836  6142.42  78.52
 57.0256  6040.56  78.175
 57.0676  6081.29  78.5588
 57.1096  6131.7  78.6803
 57.1516  6068.96  78.3378
 57.1936  6148.17  78.5972
 57.2356  6018.6  78.0796
 57.2776  6079.77  78.427
 57.3196  6128.77  79.1179
 57.3616  6050.16  78.1052
 57.4036  6162.21  78.8861
 57.4456  6046.7  78.1088
 57.4876  6157.09  78.6732
 57.5296  6047.13  78.31
 57.5716  6098.28  78.6317
 57.6136  6108.87  78.5229
 57.6556  6070.89  78.4034
 57.6976  6165.79  78.8379
 57.7396  6030.18  78.3378
 57.7816  6061.07  78.9028
 57.8236  6089.96  78.8839
 57.8656  6068.37  78.4022
 57.9076  5963.4  77.7425
 57.9496  6039.21  78.5897
 57.9916  6044.87  78.1416
 58.0336  5977.98  77.9794
 58.0756  6106.72  78.456
 58.1176  6105.16  78.441
 58.1596  6058.67  78.7053
 58.2016  6128.33  78.3798
 58.2436  6148.65  78.9254
 58.2856  6095.04  78.4976
 58.3276  6031.46  78.4598
 58.3696  6037.23  78.248
 58.4116  6040.9  78.1355
 58.4536  6037.91  78.003
 58.4956  5956.7  77.6541
 58.5376  6039.64  77.769
 58.5796  6124.48  78.7376
 58.6216  6129.62  78.5807
 58.6636  6139.08  78.8575
 58.7056  6047.03  78.1248
 58.7476  6017.83  78.3803
 58.7896  5963.54  77.6724
 58.8316  5996.57  77.8824
 58.8736  6121.59  78.6951
 58.9156  6029.2  78.147
 58.9576  6131  79.1225
 58.9996  6227.08  78.9734
 59.0416  6214.07  79.2538
 59.0836  6045.86  78.1088
 59.1256  5981.24  78.3867
 59.1676  6084.32  79.3502
 59.2096  6110.03  78.8393
 59.2516  6327.85  79.8036
 59.2936  6115.35  78.7823
 59.3356  6138.45  78.8076
 59.3776  6300.9  80.0163
 59.4196  6150.68  78.9902
 59.4616  6100.44  78.528
 59.5036  5984.24  77.8118
 59.5456  6180.87  78.7696
 59.5876  6112.98  78.528
 59.6296  6206.03  79.1936
 59.6716  5999.26  77.9209
 59.7136  6221.42  79.3387
 59.7556  6167.26  79.1305
 59.7976  5962.25  77.548
 59.8396  6046.02  77.9851
 59.8816  6102.51  78.8958
 59.9236  6143.41  78.8013
 59.9656  6086.4  78.6963
 60.0076  5969.18  77.2962
 60.0496  6037.77  78.2428
 60.0916  6170.34  78.5089
 60.1336  6196.59  79.7973
 60.1756  5974.74  79.5338
 60.1996  0.0000000E+00  0.0000000E+00