File: docs/examples/opeando_xrd/IS17_D/Data/IS17_D/17_Da_f00064.xye
# /beamlines/bl04/projects/cycle2025-II/20250340211-lsimonelli/DATA/IS17_D/17_Da_f00064.xye : mythproc.py merge -s 0.006 -l 0.5 -f /beamlines/bl04/inhouse/ff/FlatField/ff_20Nov2024rod8mm60s_17keV.raw -b True -c true -o xye /beamlines/bl04/projects/cycle2025-II/20250340211-lsimonelli/DATA/IS17_D/17_Da_00064.dat
# IsMon = [6779231, 6784537, 6780691]  IsPos = [-1.4999, -2.4883, -3.4988]
# Wave = 0.4962  CalPath /beamlines/bl04/projects/cycle2025-II/20250340211-lsimonelli/DATA/Align/Si_Pos1_25keV_f00001.cal
# Date = 2025-09-24_11:23:44 Dt = 4.8000  Bin = 0.0060  <imon> = 6781486 +/- 2238 (Min/Max) 6779231 / 6784537
# icurr 251.6275  mocoIn 1.7171E-05  mocoOut 0.8058  i15 7.10005e+06  imon 6.78149e+06  i7 6.6667  iEMpd_timer 4.8000  iEMpd_1 3.4250E-08  iEMpd_2 7.9101E-08  iEMpd_3 1.7168E-08  iEMpd_4 4.7566E-08  iEMhp_timer 4.8000  iEMhp_1 4.9172E-06  iEMhp_2 -2.4559E-08  iEMhp_3 -2.4630E-08  iEMhp_4 -2.1557E-08
#      9776
 1.5856  40527.4  206.752
 1.6276  47504  220
 1.6696  54210.6  234.189
 1.7116  62935.3  252.825
 1.7536  71758.4  268.816
 1.7956  76476.9  278.207
 1.8376  72845  271.951
 1.8796  61439.5  247.904
 1.9216  49273.4  222.904
 1.9636  41636.6  204.063
 2.0056  37287.5  192.363
 2.0476  34853.3  188.017
 2.0896  33306.1  182.719
 2.1316  32271  178.992
 2.1736  30711.3  175.999
 2.2156  31452.3  176.68
 2.2576  30178.5  173.687
 2.2996  28917.1  170.641
 2.3416  29224.8  170.178
 2.3836  28486.8  168.118
 2.4256  28116.7  167.567
 2.4676  27316.3  164.931
 2.5096  27512.3  165.575
 2.5516  29301.8  174.783
 2.5936  59445.2  243.945
 2.6356  27787.1  167.487
 2.6776  26326.8  161.909
 2.7196  25597.3  159.804
 2.7616  25566  159.856
 2.8036  25222.4  158.947
 2.8456  25031.4  158.951
 2.8876  24559.5  157.315
 2.9296  24214.5  156.341
 2.9716  24078  155.398
 3.0136  23691.1  154.21
 3.0556  23701.5  154.636
 3.0976  23745.1  153.73
 3.1396  23536.4  153.758
 3.1816  23258.3  152.497
 3.2236  23395  153.225
 3.2656  23142.4  151.438
 3.3076  22859.1  151.947
 3.3496  23161.4  151.893
 3.3916  23616.5  153.213
 3.4336  23979.2  154.958
 3.4756  24489.2  156.534
 3.5176  25507.2  159.532
 3.5596  25242.3  161.143
 3.6016  25354  159.12
 3.6436  24627.4  157.911
 3.6856  24127.8  154.62
 3.7276  23179.7  152.622
 3.7696  23039.9  152.366
 3.8116  22683.6  151.067
 3.8536  22801.6  151.395
 3.8956  22559  150.412
 3.9376  22766.4  151.347
 3.9796  22468.1  149.872
 4.0216  22821.7  150.077
 4.0636  22636.9  150.944
 4.1056  22703.1  150.798
 4.1476  22723.1  151.19
 4.1896  22871.9  151.54
 4.2316  23107.1  152.148
 4.2736  23685.1  153.823
 4.3156  23988.7  155.037
 4.3576  24707  157.264
 4.3996  24887.3  158.088
 4.4416  25533.7  159.72
 4.4836  26127.4  161.708
 4.5256  26354.4  163.034
 4.5676  26342.5  163.246
 4.6096  26789.9  163.295
 4.6516  27464.9  165.038
 4.6936  27186.9  165.018
 4.7356  27833.9  166.794
 4.7776  27600.1  165.92
 4.8196  27066.3  164.964
 4.8616  26675.8  163.238
 4.9036  26432.1  162.251
 4.9456  26491.8  163.077
 4.9876  25936.9  161.261
 5.0296  26172.9  161.804
 5.0716  25967.6  161.955
 5.1136  25907.4  161.473
 5.1556  26567  162.975
 5.1976  29218.6  170.919
 5.2396  27116.3  164.347
 5.2816  26871.1  164.065
 5.3236  27137.1  164.577
 5.3656  26585.9  163.813
 5.4076  26415.4  163.442
 5.4496  26605.4  163.508
 5.4916  26506  162.965
 5.5336  26629.4  163.344
 5.5756  26310.8  162.404
 5.6176  26676.9  162.963
 5.6596  26770.1  164.218
 5.7016  26944.1  164.016
 5.7436  27000.8  164.463
 5.7856  26902.3  164.218
 5.8276  27331  165.244
 5.8696  27367.9  165.528
 5.9116  27505.6  166.237
 5.9536  27567.1  166.489
 5.9956  27845.4  166.697
 6.0376  27859.9  167.367
 6.0796  28282.4  168.465
 6.1216  28465.2  169.265
 6.1636  28564.4  168.567
 6.2056  28394.5  168.725
 6.2476  28806.5  169.825
 6.2896  29081.6  170.313
 6.3316  28649.8  169.224
 6.3736  28888.9  169.812
 6.4156  29048.7  170.186
 6.4576  29437  170.918
 6.4996  29403.2  171.295
 6.5416  29577.6  171.945
 6.5836  29524.1  172.018
 6.6256  29483.3  171.465
 6.6676  30192.4  173.082
 6.7096  29790.3  172.78
 6.7516  30382.6  174.136
 6.7936  30768.2  174.669
 6.8356  31083.9  175.638
 6.8776  31114.9  176.527
 6.9196  30833.7  176.133
 6.9616  31645  177.863
 7.0036  31990.6  178.493
 7.0456  31928.6  177.613
 7.0876  31707.4  178.687
 7.1296  31652.8  177.671
 7.1716  31842.4  177.745
 7.2136  31604.7  176.855
 7.2556  31823.7  177.629
 7.2976  31826.7  178.136
 7.3396  31665.5  177.89
 7.3816  31794.3  178.474
 7.4236  32015.9  178.384
 7.4656  32290  178.629
 7.5076  32443.9  179.189
 7.5496  32317.7  179.384
 7.5916  32345.8  179.489
 7.6336  32757.6  180.523
 7.6756  33143.8  181.434
 7.7176  33096.3  181.615
 7.7596  33058.9  182.76
 7.8016  34902  190.016
 7.8436  34093.2  184.448
 7.8856  34398.4  184.882
 7.9276  35001.8  186.9
 7.9696  35071.3  187.393
 8.0116  36035.9  188.476
 8.0536  36398.5  189.685
 8.0956  36738.9  191.746
 8.1376  37009  191.929
 8.1796  37018.2  192.492
 8.2216  38039.4  193.856
 8.2636  38108.1  194.301
 8.3056  37842.6  194.395
 8.3476  38985.9  196.616
 8.3896  38348.8  195.082
 8.4316  38446.6  195.498
 8.4736  38455.8  194.983
 8.5156  38293.1  194.85
 8.5576  37775.6  195.14
 8.5996  37784.7  193.392
 8.6416  37849.5  194.823
 8.6836  37662.1  194.19
 8.7256  38265.9  195.16
 8.7676  38457.7  198.632
 8.8096  38188.2  195.216
 8.8516  37490.4  193.034
 8.8936  37640  193.293
 8.9356  37143.1  192.373
 8.9776  37179.4  192.575
 9.0196  36924.5  191.575
 9.0616  36970  191.159
 9.1036  37313.7  193.25
 9.1456  36744.1  191.122
 9.1876  36523.4  190.504
 9.2296  36622.7  190.156
 9.2716  35901.5  188.334
 9.3136  36161.4  189.002
 9.3556  36324.1  189.411
 9.3976  34801.6  185.931
 9.4396  35144.5  186.737
 9.4816  34851.6  185.814
 9.5236  35061.2  186.287
 9.5656  34676.8  185.585
 9.6076  34332.7  185.192
 9.6496  33901.4  183.954
 9.6916  34081.2  184.412
 9.7336  34150.2  184.377
 9.7756  34335.7  186.125
 9.8176  33559.5  183.496
 9.8596  33361.1  181.391
 9.9016  33066  180.584
 9.9436  32784.2  179.728
 9.9856  32754.4  179.873
 10.0276  31984.1  178.812
 10.0696  32351.8  178.907
 10.1116  31476.4  176.734
 10.1536  31704.9  177.545
 10.1956  30906.9  174.895
 10.2376  30627.2  173.615
 10.2796  30719.2  173.994
 10.3216  30424.9  173.429
 10.3636  30262.9  172.996
 10.4056  31120.8  175.828
 10.4476  30946.8  174.963
 10.4896  32584.5  179.101
 10.5316  30826.6  174.796
 10.5736  29369  171.025
 10.6156  29299.3  170.59
 10.6576  30849  173.555
 10.6996  29244  169.663
 10.7416  28436.3  167.53
 10.7836  28946.6  169.726
 10.8256  28046.5  167.508
 10.8676  28311.6  167.81
 10.9096  27870.7  166.564
 10.9516  27662.7  164.859
 10.9936  27974.5  165.993
 11.0356  27698.2  165.804
 11.0776  28097.5  166.293
 11.1196  27552.3  165.425
 11.1616  27158.6  163.92
 11.2036  27363.2  164.401
 11.2456  27601.6  165.828
 11.2876  26856.8  163.305
 11.3296  26622.5  162.497
 11.3716  27074.8  163.564
 11.4136  27095.1  164.528
 11.4556  27494  165.397
 11.4976  28258.4  166.616
 11.5396  27742.6  165.247
 11.5816  26792.8  162.866
 11.6236  26458.7  162.063
 11.6656  26238.7  160.554
 11.7076  25759.4  159.914
 11.7496  25646.7  163.502
 11.7916  25873.7  159.527
 11.8336  25244.1  158.465
 11.8756  25194.1  157.841
 11.9176  25375.5  158.042
 11.9596  24765.4  156.338
 12.0016  24970.8  157.489
 12.0436  24770.6  156.568
 12.0856  24724.9  156.951
 12.1276  24572.3  156.378
 12.1696  24570.8  155.506
 12.2116  25103.1  157.175
 12.2536  25135.1  158.122
 12.2956  24646.6  155.907
 12.3376  24372.5  155.256
 12.3796  24515.8  156.177
 12.4216  24820.4  156.348
 12.4636  24650.1  156.737
 12.5056  24550.4  155.665
 12.5476  24502.7  155.058
 12.5896  24382.5  155.312
 12.6316  24139.1  154.702
 12.6736  24133.6  155.334
 12.7156  24026.3  154.684
 12.7576  24347.3  155.948
 12.7996  24398.7  154.754
 12.8416  24352.6  155.667
 12.8836  24874.9  157.066
 12.9256  24871.7  156.149
 12.9676  24901.5  156.665
 13.0096  24523.6  156.583
 13.0516  24842.8  156.618
 13.0936  24783.5  156.85
 13.1356  25312.2  157.474
 13.1776  24949.2  157.336
 13.2196  24946.8  156.988
 13.2616  24710.9  156.55
 13.3036  24683.9  156.438
 13.3456  24866.8  157.372
 13.3876  24767.3  156.354
 13.4296  24775.9  156.525
 13.4716  24762.6  156.095
 13.5136  24847.2  156.511
 13.5556  24929.1  157.387
 13.5976  24833.2  157.23
 13.6396  25078.6  157.369
 13.6816  24734.3  156.784
 13.7236  25479  158.759
 13.7656  24780.5  157.115
 13.8076  25070.5  156.795
 13.8496  24474.7  155.531
 13.8916  24584.4  156.879
 13.9336  24391.3  155.488
 13.9756  24228  154.32
 14.0176  24192.8  154.888
 14.0596  24313.4  155.243
 14.1016  23843.4  154.126
 14.1436  23721.2  152.866
 14.1856  23435.4  152.236
 14.2276  23215.1  152.003
 14.2696  23604.5  153.116
 14.3116  23064.7  151.249
 14.3536  22800  150.55
 14.3956  22609.7  149.648
 14.4376  22988.5  150.683
 14.4796  22905  150.403
 14.5216  22467.5  149.762
 14.5636  22398  149.09
 14.6056  22444.2  148.826
 14.6476  22532.4  148.338
 14.6896  21982.9  147.058
 14.7316  21802.4  147.489
 14.7736  21619.7  146.003
 14.8156  21499.3  145.633
 14.8576  21204.2  144.489
 14.8996  20939.5  144.792
 14.9416  20622.6  143.696
 14.9836  20703.2  143.933
 15.0256  20565.8  142.365
 15.0676  20564.5  142.82
 15.1096  20326.1  141.586
 15.1516  19982.2  140.934
 15.1936  19917  140.137
 15.2356  19917.6  140.292
 15.2776  19648  139.054
 15.3196  19157.7  138.308
 15.3616  19298.9  138.578
 15.4036  19173  137.978
 15.4456  19513.2  138.842
 15.4876  18991  136.65
 15.5296  18961.9  136.825
 15.5716  18730.9  135.596
 15.6136  18586  135.39
 15.6556  19462.6  137.774
 15.6976  18580.1  134.9
 15.7396  18572.8  135.28
 15.7816  18398.3  134.139
 15.8236  18193.6  134.109
 15.8656  18039.4  133.324
 15.9076  18099.7  133.37
 15.9496  18022.4  135.912
 15.9916  17638  134.907
 16.0336  17486.3  131.215
 16.0756  17650.9  132.141
 16.1176  17393.3  131.245
 16.1596  17116.4  131.377
 16.2016  17495.5  131.554
 16.2436  17214.9  130.88
 16.2856  16892.6  129.195
 16.3276  16631.4  128.609
 16.3696  16908.3  129.496
 16.4116  16815.8  129.603
 16.4536  16869.9  129.599
 16.4956  16928.5  129.553
 16.5376  16757.2  129.085
 16.5796  16683.7  128.157
 16.6216  16897.3  129.28
 16.6636  16641.8  128.458
 16.7056  16782.6  128.867
 16.7476  16707.6  128.104
 16.7896  16813.2  129.265
 16.8316  16670.6  128.673
 16.8736  16510.3  128.324
 16.9156  16628.3  129.116
 16.9576  16390.6  128.981
 16.9996  16455.3  129.721
 17.0416  16534.2  128.366
 17.0836  16303.5  127.236
 17.1256  16270.4  127.111
 17.1676  16379.8  127.532
 17.2096  16070.4  126.2
 17.2516  16017.7  125.773
 17.2936  15737.4  124.988
 17.3356  15573  124.356
 17.3776  15397.7  123.83
 17.4196  15648  124.515
 17.4616  15624.5  124.351
 17.5036  15490.7  124.179
 17.5456  15475.8  124.771
 17.5876  15266.4  122.968
 17.6296  15341  123.086
 17.6716  15335.1  123.639
 17.7136  15374.2  123.947
 17.7556  15221.9  123.617
 17.7976  15040.5  122.621
 17.8396  14946.9  121.737
 17.8816  15014  122.547
 17.9236  14899.1  121.896
 17.9656  15134.5  123.399
 18.0076  15158.5  123.08
 18.0496  15429.2  123.287
 18.0916  16810.7  129.263
 18.1336  16098  126.592
 18.1756  15654.2  124.355
 18.2176  15377.7  123.48
 18.2596  14986.3  121.626
 18.3016  15229.9  122.877
 18.3436  15339.5  123.313
 18.3856  14939.9  121.84
 18.4276  14910.6  121.393
 18.4696  14906.7  121.481
 18.5116  14861.4  121.584
 18.5536  14983.7  122.453
 18.5956  14746.5  121.018
 18.6376  14618.2  120.896
 18.6796  14600  120.139
 18.7216  14768.1  121.321
 18.7636  14355  119.61
 18.8056  14354.8  119.546
 18.8476  14157.9  119.352
 18.8896  14171.6  118.744
 18.9316  14550.5  120.31
 18.9736  14234.1  118.685
 19.0156  14582.2  120.536
 19.0576  14357.1  118.466
 19.0996  14424.5  119.591
 19.1416  14248.1  119.119
 19.1836  14176.7  118.42
 19.2256  14064.1  118.164
 19.2676  14192.3  118.795
 19.3096  14178.6  118.981
 19.3516  14013.4  118.246
 19.3936  14108.6  118.54
 19.4356  14158.1  118.624
 19.4776  14167.3  118.763
 19.5196  14076.6  118.219
 19.5616  14088.4  118.532
 19.6036  14169.2  118.373
 19.6456  14231.9  118.755
 19.6876  14391.8  119.06
 19.7296  14283.6  119.074
 19.7716  14230.7  119.012
 19.8136  14445.4  120.126
 19.8556  14843.9  121.233
 19.8976  14908.2  121.563
 19.9396  14904.9  121.112
 19.9816  14943.6  121.585
 20.0236  14872.4  121.45
 20.0656  14646.6  120.515
 20.1076  14142.1  118.896
 20.1496  14008  118.333
 20.1916  14034.7  117.961
 20.2336  14004.2  117.762
 20.2756  13657.3  116.721
 20.3176  13719.4  116.736
 20.3596  13856.6  117.292
 20.4016  13743.3  116.618
 20.4436  13726  117.095
 20.4856  13445.2  115.695
 20.5276  13544.3  116.58
 20.5696  13499  115.845
 20.6116  13531.8  116.26
 20.6536  13530.1  115.752
 20.6956  13396  115.295
 20.7376  13339.8  115.289
 20.7796  13396  115.221
 20.8216  13585.3  115.737
 20.8636  13359.3  115.145
 20.9056  13681.2  116.472
 20.9476  13442  115.29
 20.9896  13878.2  117.003
 21.0316  13511  115.339
 21.0736  13386.8  115.335
 21.1156  13541.3  116.159
 21.1576  13456.8  115.847
 21.1996  13219.8  114.797
 21.2416  13113.5  114.174
 21.2836  13346.6  115.144
 21.3256  13157.3  114.413
 21.3676  13193.5  114.113
 21.4096  13130.7  114.15
 21.4516  13235.8  114.487
 21.4936  12926.5  113.372
 21.5356  13147.8  114.304
 21.5776  13188.2  114.31
 21.6196  13012.3  113.577
 21.6616  12942  113.361
 21.7036  13100.8  113.84
 21.7456  13048.9  113.685
 21.7876  12916.4  112.855
 21.8296  12739.1  111.935
 21.8716  12909.9  112.914
 21.9136  12973.5  113.394
 21.9556  13033.4  113.324
 21.9976  12862.4  112.593
 22.0396  12791.4  112.54
 22.0816  12967.6  113.861
 22.1236  13030.1  113.58
 22.1656  13042.9  113.759
 22.2076  13055.9  113.279
 22.2496  12990.6  113.016
 22.2916  12962.8  112.782
 22.3336  12853.9  113.032
 22.3756  12814.7  112.584
 22.4176  12731  112.068
 22.4596  12509.1  111.683
 22.5016  12923.9  112.986
 22.5436  12895.9  112.765
 22.5856  12886.7  112.968
 22.6276  12659.1  112.139
 22.6696  12749.6  112.85
 22.7116  12852.4  112.814
 22.7536  12923  113.103
 22.7956  12868.4  112.177
 22.8376  12659.3  111.8
 22.8796  12742.8  111.966
 22.9216  12910.5  113.258
 22.9636  12908.2  112.384
 23.0056  12776.1  111.942
 23.0476  13039.8  113.665
 23.0896  13255.8  113.974
 23.1316  13137.2  113.904
 23.1736  12592.1  114.27
 23.2156  12854.6  113.019
 23.2576  12960.5  113.615
 23.2996  12760.7  112.525
 23.3416  12570.3  112.197
 23.3836  12651.9  111.799
 23.4256  12719.9  112.216
 23.4676  12793.6  112.232
 23.5096  12788.4  112.889
 23.5516  12490.9  110.857
 23.5936  12689.5  112.639
 23.6356  12953.5  113.467
 23.6776  12765.5  112.858
 23.7196  12619.5  111.786
 23.7616  12708.5  112.094
 23.8036  12747  112.308
 23.8456  12691  111.626
 23.8876  12463.1  110.973
 23.9296  12378  111.083
 23.9716  12541.3  111.004
 24.0136  12724.6  112.731
 24.0556  12285.1  110.493
 24.0976  12203.9  109.943
 24.1396  12311.5  113.079
 24.1816  12352.9  111.674
 24.2236  12095  110.105
 24.2656  12169.7  109.917
 24.3076  12201.1  110.314
 24.3496  12261.6  110.467
 24.3916  12258.6  110.51
 24.4336  11990  109.501
 24.4756  12030.5  109.551
 24.5176  11989.9  109.015
 24.5596  11885.9  108.671
 24.6016  11637.7  107.815
 24.6436  11846.1  108.267
 24.6856  11819  107.9
 24.7276  11885.5  108.515
 24.7696  11651  107.561
 24.8116  11773  108.292
 24.8536  11749.9  108.192
 24.8956  11713.1  107.761
 24.9376  11694.5  107.613
 24.9796  11435.1  106.767
 25.0216  11445.6  106.933
 25.0636  11514.6  106.9
 25.1056  11290  106.557
 25.1476  11519.6  109.313
 25.1896  11478.8  107.582
 25.2316  11591.8  107.383
 25.2736  11458.9  106.408
 25.3156  11368.2  106.069
 25.3576  11316.4  106.251
 25.3996  11224.5  105.804
 25.4416  11337.4  106.312
 25.4836  11185.4  106.126
 25.5256  11278.3  105.921
 25.5676  11374.8  106.097
 25.6096  11031.7  105.059
 25.6516  11213.8  105.416
 25.6936  11135.3  105.371
 25.7356  10965.9  104.694
 25.7776  11170.4  105.277
 25.8196  11096.5  105.16
 25.8616  11153.8  105.355
 25.9036  11151.5  104.806
 25.9456  11086  105.092
 25.9876  11037.6  104.931
 26.0296  11207.8  105.242
 26.0716  11011  104.747
 26.1136  11200.8  105.573
 26.1556  11223.1  105.064
 26.1976  10922.3  104.562
 26.2396  11118.4  104.661
 26.2816  11038.1  104.886
 26.3236  11149.8  105.573
 26.3656  10951.6  104.361
 26.4076  11033.7  104.927
 26.4496  11587.6  107.04
 26.4916  11199.9  105.234
 26.5336  10975.9  104.504
 26.5756  11087.1  104.903
 26.6176  11090.1  104.934
 26.6596  10870.5  104.222
 26.7016  10773.2  103.507
 26.7436  10829.5  103.917
 26.7856  10732.2  103.43
 26.8276  10665.4  103.056
 26.8696  10736.5  103.28
 26.9116  10795.3  103.5
 26.9536  10604.5  102.63
 26.9956  10731.3  103.274
 27.0376  10642.9  103.06
 27.0796  10822.7  103.655
 27.1216  10601.9  102.676
 27.1636  10561.4  102.644
 27.2056  10553.5  102.484
 27.2476  10551.2  102.475
 27.2896  10602.2  102.864
 27.3316  10475  101.926
 27.3736  10602.3  102.81
 27.4156  10378.2  101.567
 27.4576  10484.1  102.314
 27.4996  10513.7  102.05
 27.5416  10518.1  102.394
 27.5836  10470.6  101.976
 27.6256  10812.7  103.791
 27.6676  10698.9  103.271
 27.7096  10527  102.3
 27.7516  10593.2  102.771
 27.7936  10466.9  102.339
 27.8356  10484.6  102.036
 27.8776  10379.6  101.567
 27.9196  10253.7  100.803
 27.9616  10449  101.948
 28.0036  10371.5  101.54
 28.0456  10371.5  101.677
 28.0876  10211.9  100.982
 28.1296  10307.2  101.224
 28.1716  10218.8  100.866
 28.2136  10324.6  101.352
 28.2556  10026.5  99.9955
 28.2976  10163.2  100.665
 28.3396  10294.2  101.073
 28.3816  10160  100.426
 28.4236  10282.4  101.182
 28.4656  10011.4  99.8755
 28.5076  10091.6  99.9095
 28.5496  10029.5  99.8625
 28.5916  10089.8  99.9749
 28.6336  9957.65  99.6599
 28.6756  10118.1  99.6534
 28.7176  10065.3  99.8397
 28.7596  9956.19  99.2992
 28.8016  10109  100.09
 28.8436  9814.52  98.8668
 28.8856  9999.31  99.6834
 28.9276  9913.72  99.4623
 28.9696  9984.63  99.4672
 29.0116  9983.22  99.6515
 29.0536  9806.79  98.9631
 29.0956  9843.27  98.873
 29.1376  9818.88  98.7084
 29.1796  9821.31  98.7618
 29.2216  9854.47  98.7763
 29.2636  9899.86  99.0781
 29.3056  9826.33  98.4992
 29.3476  9779.06  98.7875
 29.3896  9929.3  99.6347
 29.4316  9938.17  99.0113
 29.4736  9835.07  98.5654
 29.5156  9986.9  99.2342
 29.5576  9776.1  98.9248
 29.5996  9685.68  97.7266
 29.6416  9795.9  98.396
 29.6836  9894.06  98.8187
 29.7256  9820.66  98.7809
 29.7676  9727.32  98.2157
 29.8096  9653.37  97.7791
 29.8516  9763.24  98.6775
 29.8936  9690.24  98.3948
 29.9356  9617.64  97.7811
 29.9776  9705.22  98.3805
 30.0196  9778.88  98.3987
 30.0616  9780.46  98.5184
 30.1036  9677.13  97.8188
 30.1456  9689.76  98.1251
 30.1876  9611.85  97.7006
 30.2296  9596.34  97.5778
 30.2716  9684.57  97.6559
 30.3136  9662.95  98.4069
 30.3556  9586.92  98.0404
 30.3976  9638.25  99.8212
 30.4396  9775.09  97.8591
 30.4816  9756.43  97.3595
 30.5236  9591.57  96.5462
 30.5656  9768.11  98.0947
 30.6076  9770.05  97.5305
 30.6496  9521.97  96.6677
 30.6916  9633.3  97.3235
 30.7336  9587.76  97.2471
 30.7756  9496.74  96.8775
 30.8176  9566.14  97.1444
 30.8596  9506.86  96.6128
 30.9016  9525.32  97.0447
 30.9436  9616.46  97.2586
 30.9856  9510.16  96.8304
 31.0276  9415.47  95.959
 31.0696  9441.9  96.6681
 31.1116  9446.65  96.6706
 31.1536  9528.83  96.9699
 31.1956  9561.04  97.2245
 31.2376  9309.17  95.9437
 31.2796  9326.99  95.5725
 31.3216  9345.57  95.6118
 31.3636  9405.21  96.5981
 31.4056  9490.75  98.3784
 31.4476  9455.69  96.0537
 31.4896  9323.32  95.8759
 31.5316  9529.19  96.3235
 31.5736  9752.88  97.2588
 31.6156  9486.4  95.9492
 31.6576  9434.37  95.7857
 31.6996  9459.85  95.5819
 31.7416  9098.38  94.7853
 31.7836  9399.04  95.3533
 31.8256  9263.16  94.9381
 31.8676  9546.48  96.3684
 31.9096  9164.02  94.7758
 31.9516  9155.37  94.888
 31.9936  9273.96  95.322
 32.0356  9172.51  94.8714
 32.0776  9287.98  95.3513
 32.1196  9298.29  95.4859
 32.1616  9353.71  95.2336
 32.2036  9098.35  94.4381
 32.2456  9261.95  95.662
 32.2876  9051.64  94.0663
 32.3296  9055.55  94.0527
 32.3716  9116.46  94.4737
 32.4136  9256.92  95.4238
 32.4556  9303.75  95.0292
 32.4976  9304.43  94.9424
 32.5396  9154.27  94.2454
 32.5816  9005.71  93.5952
 32.6236  9188.08  94.6111
 32.6656  9284.37  95.6521
 32.7076  9047.59  94.0791
 32.7496  9117.38  94.1019
 32.7916  9093.05  93.9366
 32.8336  9149.14  94.3211
 32.8756  9224.24  94.4374
 32.9176  9067.05  94.1044
 32.9596  9050.34  94.1006
 33.0016  9152.44  94.4181
 33.0436  9166.2  94.6679
 33.0856  9065.35  94.2073
 33.1276  8985.01  93.5217
 33.1696  9053.55  93.7274
 33.2116  9076.99  94.0686
 33.2536  9038.87  93.879
 33.2956  9074.73  94.1479
 33.3376  8963.43  93.3113
 33.3796  9087.61  94.1621
 33.4216  9058.5  93.602
 33.4636  9140.86  94.1725
 33.5056  8955.85  93.4557
 33.5476  8868.03  92.9934
 33.5896  9031.45  93.615
 33.6316  8872.62  93.1124
 33.6736  8652.23  92.1847
 33.7156  8792.55  92.974
 33.7576  9012.27  93.7439
 33.7996  8951.57  93.1977
 33.8416  8843.01  92.8199
 33.8836  8939.7  93.0984
 33.9256  8920.09  93.0652
 33.9676  8908.54  92.8881
 34.0096  8733.36  92.2963
 34.0516  8883.45  92.7104
 34.0936  8727.7  92.1673
 34.1356  8835.41  92.4714
 34.1776  8806.17  92.3303
 34.2196  8836.95  92.6743
 34.2616  8752  92.3555
 34.3036  8737.63  92.5408
 34.3456  8712.72  92.1534
 34.3876  8696.57  92.0368
 34.4296  8679.87  91.6417
 34.4716  8891.73  92.8988
 34.5136  8786.92  92.556
 34.5556  8764.62  92.6874
 34.5976  8747.77  92.4032
 34.6396  8823.61  92.6366
 34.6816  8691.07  91.935
 34.7236  8889.11  92.7536
 34.7656  8825.26  92.6119
 34.8076  8579  91.6368
 34.8496  8690.15  92.1651
 34.8916  8697.2  91.9992
 34.9336  8751.59  92.243
 34.9756  8739.8  92.1045
 35.0176  8677.05  92.3085
 35.0596  8529.37  91.3453
 35.1016  8644.11  91.7245
 35.1436  8635.98  91.3636
 35.1856  8630.88  91.4614
 35.2276  8663.22  91.8066
 35.2696  8581.18  91.5698
 35.3116  8573.06  91.6155
 35.3536  8445.05  90.6485
 35.3956  8546.9  90.8981
 35.4376  8566.19  91.5648
 35.4796  8582.21  91.7058
 35.5216  8522.06  91.3447
 35.5636  8336.18  91.0792
 35.6056  8562.53  91.3159
 35.6476  8521.02  90.9938
 35.6896  8672.89  91.8885
 35.7316  8427.45  90.554
 35.7736  8437.33  90.8059
 35.8156  8418.2  90.7044
 35.8576  8489.04  91.3337
 35.8996  8750.16  92.6923
 35.9416  8856.17  92.651
 35.9836  8493.29  91.1727
 36.0256  8553.7  91.522
 36.0676  8575.11  91.3868
 36.1096  8416.74  90.6781
 36.1516  8473.57  90.8726
 36.1936  8439.69  90.5357
 36.2356  8483.21  91.4165
 36.2776  8462.7  90.7896
 36.3196  8376.46  89.9923
 36.3616  8460.87  90.5767
 36.4036  8471.44  90.6933
 36.4456  8487.78  90.9857
 36.4876  8432.17  90.6298
 36.5296  8347.02  90.2081
 36.5716  8361.41  91.0765
 36.6136  8664.71  91.4494
 36.6556  8552.65  91.0652
 36.6976  8437.45  90.9519
 36.7396  8517.97  91.2864
 36.7816  8352.49  90.5993
 36.8236  8446.67  91.0194
 36.8656  8358.68  90.6239
 36.9076  8360.53  90.5097
 36.9496  8332.74  90.3566
 36.9916  8364.05  90.1486
 37.0336  8436.79  90.8622
 37.0756  8563.36  91.3246
 37.1176  8246.7  89.8895
 37.1596  8331.16  90.3434
 37.2016  8336.18  90.6111
 37.2436  8404.92  90.2928
 37.2856  8332.44  90.155
 37.3276  8316.33  89.4159
 37.3696  8181.63  89.5725
 37.4116  8343.95  90.3709
 37.4536  8236.23  89.492
 37.4956  8246.08  89.7499
 37.5376  8303.89  91.6472
 37.5796  8133.71  90.6491
 37.6216  8104.87  88.7689
 37.6636  8116.83  88.73
 37.7056  8173.11  89.2291
 37.7476  8121.04  88.4778
 37.7896  8131.32  89.031
 37.8316  8152.48  89.3241
 37.8736  8270.96  89.4926
 37.9156  8132.07  88.7388
 37.9576  8268.85  89.3738
 37.9996  8142.86  88.3925
 38.0416  8013.08  88.5059
 38.0836  8161.67  89.2253
 38.1256  8114.43  88.9147
 38.1676  8102.08  88.9969
 38.2096  8104.71  88.6299
 38.2516  8249.15  89.6265
 38.2936  8020.57  88.1723
 38.3356  8221.89  89.1876
 38.3776  8109.66  88.8535
 38.4196  8262.52  89.5396
 38.4616  8112.64  88.9561
 38.5036  8257.61  89.5924
 38.5456  7997.01  88.9924
 38.5876  8115.4  89.8489
 38.6296  8072.42  88.4054
 38.6716  7974.27  87.6637
 38.7136  8019.25  87.8542
 38.7556  7968.77  88.081
 38.7976  7983.87  88.1021
 38.8396  7932.69  88.0714
 38.8816  7813.12  87.3793
 38.9236  8061.49  88.5752
 38.9656  7986.32  88.0743
 39.0076  8093.77  88.0629
 39.0496  8065.99  88.4639
 39.0916  7981.78  87.6413
 39.1336  8029.77  88.3222
 39.1756  7918.43  87.7753
 39.2176  8016.16  88.8451
 39.2596  7999.39  88.6726
 39.3016  8054.61  88.4858
 39.3436  7861.19  87.906
 39.3856  8076.31  88.5442
 39.4276  7981.1  88.5207
 39.4696  8066.28  88.6115
 39.5116  7937.07  88.4173
 39.5536  8114.92  89.8358
 39.5956  8091.27  88.7872
 39.6376  8096.35  88.8255
 39.6796  8024.46  88.1646
 39.7216  8023.02  88.2603
 39.7636  8026.52  88.8509
 39.8056  8099.97  89.0372
 39.8476  7863.4  87.9797
 39.8896  8010.61  88.4198
 39.9316  8013.66  88.7018
 39.9736  8132.6  88.9936
 40.0156  8047.29  88.2708
 40.0576  8046.08  88.6265
 40.0996  8119.13  88.2002
 40.1416  8077.02  88.7798
 40.1836  8142.82  89.0176
 40.2256  8142.86  89.0725
 40.2676  8008.41  88.4374
 40.3096  8144.83  89.1111
 40.3516  8162.44  89.3189
 40.3936  8184.78  88.9947
 40.4356  8081.18  88.6248
 40.4776  8153.74  89.4397
 40.5196  8154.93  89.49
 40.5616  8156.87  89.2282
 40.6036  8064.16  88.9745
 40.6456  8134.56  88.9694
 40.6876  8125.63  88.9044
 40.7296  8089.59  88.7271
 40.7716  8059.65  88.8008
 40.8136  7999.49  88.4107
 40.8556  8117  89.2022
 40.8976  7988.2  88.4119
 40.9396  7987.9  88.763
 40.9816  8112.06  88.726
 41.0236  8173.57  88.8429
 41.0656  8137.86  89.1904
 41.1076  8182.26  89.1943
 41.1496  8020.05  88.2217
 41.1916  8075.43  88.8446
 41.2336  7960.77  88.2082
 41.2756  8068.56  88.406
 41.3176  8040.32  88.8713
 41.3596  8087.19  88.8501
 41.4016  8093.28  89.149
 41.4436  8104.86  88.9996
 41.4856  8048.57  88.8502
 41.5276  7999.25  88.6001
 41.5696  8079.44  88.6623
 41.6116  7940.85  88.3041
 41.6536  7975.44  88.3521
 41.6956  8032.3  88.7203
 41.7376  7926.96  88.1629
 41.7796  7979.94  88.3414
 41.8216  7988.74  88.6277
 41.8636  8112.6  89.2437
 41.9056  7912.78  87.9325
 41.9476  7982.94  88.4439
 41.9896  8021.06  88.4327
 42.0316  8050.21  88.6792
 42.0736  7955.85  88.265
 42.1156  7970.35  88.183
 42.1576  7988.59  88.3613
 42.1996  7942.8  88.272
 42.2416  8091.35  88.6685
 42.2836  7929.87  87.8972
 42.3256  7963.29  88.1897
 42.3676  8021.76  88.3203
 42.4096  8011.15  88.2235
 42.4516  7940.39  87.9256
 42.4936  7908.91  87.8156
 42.5356  7874.73  87.7593
 42.5776  7983.65  88.3001
 42.6196  8031.14  88.6193
 42.6616  7880.49  87.9527
 42.7036  7902.02  87.4621
 42.7456  7892.67  87.7676
 42.7876  7915.3  87.9958
 42.8296  7938.3  87.9539
 42.8716  7806.33  87.375
 42.9136  7829.11  87.2949
 42.9556  7907.81  87.8622
 42.9976  7974.48  88.1952
 43.0396  7882.25  87.417
 43.0816  7793.67  87.2936
 43.1236  7806.58  87.4321
 43.1656  7878.75  87.6649
 43.2076  7805.06  87.3613
 43.2496  7800.83  87.1454
 43.2916  7842.07  87.7441
 43.3336  7881.23  87.8009
 43.3756  7819.37  87.2117
 43.4176  7734.25  86.8172
 43.4596  7882.03  87.4965
 43.5016  7816.32  87.5396
 43.5436  7846.14  87.607
 43.5856  7745.49  87.0683
 43.6276  7800.55  87.2712
 43.6696  7699.23  86.9623
 43.7116  7910.84  87.639
 43.7536  7828.49  87.6748
 43.7956  7783.52  88.6152
 43.8376  7780.31  87.1224
 43.8796  7767.55  87.1391
 43.9216  7748.49  86.951
 43.9636  7789.2  87.2877
 44.0056  7712.2  87.0795
 44.0476  7729.32  86.8169
 44.0896  7603.2  86.4436
 44.1316  7750.74  86.7949
 44.1736  7701.31  86.647
 44.2156  7713.87  86.5627
 44.2576  7759.09  87.1465
 44.2996  7705.94  86.8111
 44.3416  7679.92  86.4382
 44.3836  7434.87  85.3717
 44.4256  7599.29  85.9565
 44.4676  7576.82  85.9799
 44.5096  7649.8  86.5396
 44.5516  7560.44  85.9917
 44.5936  7504.77  85.6316
 44.6356  7673.31  86.3249
 44.6776  7588.32  86.0854
 44.7196  7504.84  86.0023
 44.7616  7565.27  87.6735
 44.8036  7377.49  85.0349
 44.8456  7549.96  86.2197
 44.8876  7561.98  86.1428
 44.9296  7715.74  86.4594
 44.9716  7432.57  85.2909
 45.0136  7612  86.237
 45.0556  7608.38  86.1941
 45.0976  7418.4  85.2755
 45.1396  7331.39  84.5403
 45.1816  7426.87  85.0213
 45.2236  7628.6  86.0678
 45.2656  7505.19  85.8711
 45.3076  7505.86  85.6592
 45.3496  7468.7  85.7503
 45.3916  7420.66  85.7405
 45.4336  7519.72  86.154
 45.4756  7382.09  85.2159
 45.5176  7422.09  85.0681
 45.5596  7481.87  85.5301
 45.6016  7379.82  85.363
 45.6436  7323.36  84.219
 45.6856  7393.73  85.2826
 45.7276  7304.09  86.0682
 45.7696  7487.65  86.7973
 45.8116  7387.73  85.654
 45.8536  7334.62  85.241
 45.8956  7485.79  85.4667
 45.9376  7504.2  85.0339
 45.9796  7258.84  84.3093
 46.0216  7366.18  85.277
 46.0636  7562.03  85.5342
 46.1056  7325.23  84.1726
 46.1476  7392.79  85.1517
 46.1896  7521.7  86.0421
 46.2316  7369.17  85.0341
 46.2736  7127.95  83.992
 46.3156  7368.61  84.9862
 46.3576  7299.69  84.7885
 46.3996  7405.94  85.5665
 46.4416  7444.55  85.3643
 46.4836  7425.57  85.6093
 46.5256  7277.05  84.6863
 46.5676  7280.28  84.8215
 46.6096  7406.43  85.4902
 46.6516  7420.54  84.6077
 46.6936  7487.04  85.4786
 46.7356  7434.48  85.2922
 46.7776  7293.91  85.3208
 46.8196  7247.9  84.6505
 46.8616  7190.05  84.2575
 46.9036  7177.71  83.8342
 46.9456  7182.76  83.5206
 46.9876  7269.35  84.102
 47.0296  7231.31  84.5722
 47.0716  7135.72  83.8322
 47.1136  7204.82  83.9174
 47.1556  7297.49  84.32
 47.1976  7312.41  84.4925
 47.2396  7115.06  83.7368
 47.2816  7173.6  83.7747
 47.3236  7222.5  84.4359
 47.3656  7199.03  84.2255
 47.4076  7204.03  84.0534
 47.4496  7206.23  84.1735
 47.4916  7123.37  83.8776
 47.5336  7250.44  84.4234
 47.5756  7279.84  84.7223
 47.6176  7083.84  83.4734
 47.6596  7039.12  82.9179
 47.7016  7269.14  84.0726
 47.7436  7196.42  83.994
 47.7856  7274.37  84.4724
 47.8276  7026.28  83.0724
 47.8696  7116.25  83.6993
 47.9116  7221.8  84.0154
 47.9536  7066.2  83.0576
 47.9956  7084.52  83.8672
 48.0376  7031.92  83.3263
 48.0796  7223.31  84.5887
 48.1216  7234.29  84.4667
 48.1636  7357.37  84.7557
 48.2056  7150.99  83.8217
 48.2476  7195.02  84.3882
 48.2896  7211.77  84.399
 48.3316  7129.15  83.8553
 48.3736  7059.74  83.4653
 48.4156  6998.4  82.9541
 48.4576  7026.85  83.416
 48.4996  7171.83  83.7198
 48.5416  7187.16  84.1456
 48.5836  7067.42  83.1207
 48.6256  7104.54  83.5412
 48.6676  7076  83.8911
 48.7096  7095.27  83.277
 48.7516  7088.07  83.3727
 48.7936  6998.74  82.9098
 48.8356  7106.22  83.5947
 48.8776  6979.15  83.4016
 48.9196  7182.06  83.9873
 48.9616  7014.32  83.3722
 49.0036  7045.55  83.9121
 49.0456  6978.79  83.4886
 49.0876  7075.22  83.5982
 49.1296  6960.27  83.0715
 49.1716  6898.68  82.5833
 49.2136  7065.3  83.485
 49.2556  6835.24  82.2592
 49.2976  6988.7  83.1455
 49.3396  6862.89  82.4486
 49.3816  7124.37  83.4378
 49.4236  7025.02  83.2684
 49.4656  6865.7  82.301
 49.5076  7003.03  82.9129
 49.5496  6981.03  82.8415
 49.5916  7018.04  82.976
 49.6336  6914.48  82.564
 49.6756  7049.26  83.6064
 49.7176  6902.47  82.6669
 49.7596  6930.41  82.6041
 49.8016  7053.79  83.2618
 49.8436  6928.25  82.8009
 49.8856  6879.63  82.524
 49.9276  6879.49  82.615
 49.9696  6918.02  82.8298
 50.0116  6897.91  82.8455
 50.0536  6913.58  82.8861
 50.0956  6822.73  82.4125
 50.1376  6933.69  82.7759
 50.1796  6828.69  82.4166
 50.2216  6812.5  82.306
 50.2636  6930.67  82.6434
 50.3056  6843.52  82.2883
 50.3476  6775.85  81.9119
 50.3896  6731.13  81.608
 50.4316  6897.71  82.4493
 50.4736  6740.66  81.7175
 50.5156  6825.71  82.2271
 50.5576  6883.81  82.3282
 50.5996  6780.02  82.1082
 50.6416  6747.05  81.7167
 50.6836  6764.7  81.8792
 50.7256  6811.14  82.0936
 50.7676  6803.04  82.3541
 50.8096  6800.29  81.8843
 50.8516  6720.74  81.8147
 50.8936  6721.33  81.603
 50.9356  6852.31  82.4955
 50.9776  6768.41  82.1411
 51.0196  6601.59  81.2439
 51.0616  6602.18  80.5812
 51.1036  6858.02  82.4876
 51.1456  6795.45  82.0202
 51.1876  6848.81  81.6871
 51.2296  6706.45  81.5723
 51.2716  6747.85  81.4167
 51.3136  6700.35  81.5891
 51.3556  6597.66  80.5928
 51.3976  6679.99  81.2418
 51.4396  6612.3  81.1239
 51.4816  6593.37  80.8659
 51.5236  6663.18  81.3959
 51.5656  6582.2  80.4939
 51.6076  6666.16  81.0836
 51.6496  6733.51  81.6885
 51.6916  6629.51  81.3997
 51.7336  6689.64  81.8709
 51.7756  6556.99  80.7521
 51.8176  6615.65  81.2203
 51.8596  6587.41  81.0601
 51.9016  6805.76  81.9947
 51.9436  6542.27  81.8437
 51.9856  6509.4  82.0656
 52.0276  6601.53  81.1678
 52.0696  6662.43  81.6076
 52.1116  6587.03  81.2562
 52.1536  6518.06  80.7205
 52.1956  6718.84  81.414
 52.2376  6736.2  81.6967
 52.2796  6654.7  81.0096
 52.3216  6480.97  80.6266
 52.3636  6641.2  81.1998
 52.4056  6631.62  80.9997
 52.4476  6426.1  80.095
 52.4896  6454.16  80.3199
 52.5316  6545.83  80.9343
 52.5736  6553.31  80.7054
 52.6156  6535.08  80.9582
 52.6576  6656.61  81.1635
 52.6996  6347.42  80.2146
 52.7416  6453.87  80.7234
 52.7836  6499.21  80.9023
 52.8256  6602.63  80.7624
 52.8676  6354.46  79.7999
 52.9096  6540.94  81.0491
 52.9516  6470.11  80.9648
 52.9936  6463.98  81.3177
 53.0356  6478.88  80.4125
 53.0776  6444.32  80.4519
 53.1196  6334.29  79.8947
 53.1616  6211.15  79.1593
 53.2036  6257.49  79.3989
 53.2456  6253.37  79.4834
 53.2876  6362.58  79.8808
 53.3296  6270.87  79.6265
 53.3716  6403.44  80.2111
 53.4136  6437.43  80.5742
 53.4556  6324.25  79.8932
 53.4976  6300.02  79.586
 53.5396  6335.29  80.1947
 53.5816  6415.11  80.3399
 53.6236  6321.83  80.0205
 53.6656  6579.71  81.3357
 53.7076  6382.39  80.0668
 53.7496  6384.63  80.2024
 53.7916  6469.38  80.8583
 53.8336  6224.36  79.2152
 53.8756  6152.6  79.2923
 53.9176  6317.95  79.6976
 53.9596  6441.94  81.2518
 54.0016  6264.18  79.4568
 54.0436  6342.17  80.1699
 54.0856  6411.5  80.0209
 54.1276  6357.11  79.8944
 54.1696  6327.91  79.8797
 54.2116  6395.46  80.0598
 54.2536  6230.47  78.8365
 54.2956  6381.3  79.7732
 54.3376  6257.02  79.533
 54.3796  6323.99  79.8536
 54.4216  6432.59  80.5847
 54.4636  6355.33  80.1092
 54.5056  6335.55  79.7576
 54.5476  6285.74  79.7754
 54.5896  6384.21  80.2211
 54.6316  6332.81  79.7641
 54.6736  6464.27  80.6608
 54.7156  6268.72  79.4566
 54.7576  6197.28  78.9946
 54.7996  6322.8  79.9253
 54.8416  6368.2  80.1694
 54.8836  6156.61  79.0355
 54.9256  6368.87  80.1317
 54.9676  6353.09  79.8909
 55.0096  6354.32  79.9686
 55.0516  6358.25  80.2275
 55.0936  6250.09  79.1677
 55.1356  6253.01  79.2258
 55.1776  6239.39  79.4105
 55.2196  6367.76  80.0602
 55.2616  6329.55  79.9788
 55.3036  6243.09  79.5937
 55.3456  6281.92  79.9899
 55.3876  6379.06  80.3459
 55.4296  6327.24  80.0351
 55.4716  6296.38  79.8345
 55.5136  6288.05  79.5323
 55.5556  6247.61  79.3537
 55.5976  6251.64  79.4342
 55.6396  6169.92  78.8646
 55.6816  6259.23  79.3082
 55.7236  6329.9  79.7966
 55.7656  6287.69  79.2888
 55.8076  6342.12  79.6146
 55.8496  6155.53  78.7495
 55.8916  6229.37  79.4211
 55.9336  6251.4  79.3841
 55.9756  6295.03  79.5494
 56.0176  6116.26  78.5641
 56.0596  6242.43  79.3507
 56.1016  6261.82  79.4836
 56.1436  6162.72  79.106
 56.1856  6244.52  79.3799
 56.2276  6221.46  79.2977
 56.2696  6209.59  79.2065
 56.3116  6097.44  78.8684
 56.3536  6180.44  79.0626
 56.3956  6261.27  79.5687
 56.4376  6288.95  79.7766
 56.4796  6249.94  79.3289
 56.5216  6278.63  79.8907
 56.5636  6316.38  79.7141
 56.6056  6116.32  78.6754
 56.6476  6316.28  79.5654
 56.6896  6269.9  79.7336
 56.7316  6183.21  79.0902
 56.7736  6219.72  79.3165
 56.8156  6277.57  79.6839
 56.8576  6211.95  79.2042
 56.8996  6231.68  79.2676
 56.9416  6170.98  79.1818
 56.9836  6147  78.5478
 57.0256  6194.83  79.1721
 57.0676  6121.39  78.824
 57.1096  6231.49  79.3181
 57.1516  6307.25  79.8666
 57.1936  6249.89  79.2427
 57.2356  6232.78  79.4522
 57.2776  6189.38  79.1358
 57.3196  6203.3  79.378
 57.3616  6154.75  78.7772
 57.4036  6189.08  79.0579
 57.4456  6059.54  78.1921
 57.4876  6229.89  79.1352
 57.5296  6059.08  78.3896
 57.5716  6111.15  78.7112
 57.6136  6166.48  78.8851
 57.6556  6209.73  79.3009
 57.6976  6258.42  79.3396
 57.7396  6054.7  78.4975
 57.7816  6074.78  78.987
 57.8236  6097.5  78.9342
 57.8656  6295.06  79.8557
 57.9076  6157.58  79.0059
 57.9496  6244.48  79.9147
 57.9916  6094.96  78.467
 58.0336  6105.75  78.8119
 58.0756  6143.44  78.6904
 58.1176  6180.06  78.9181
 58.1596  6080.07  78.8392
 58.2016  6306.79  79.5073
 58.2436  6269.01  79.6889
 58.2856  6200.59  79.1723
 58.3276  6262.2  79.9397
 58.3696  6180.4  79.1605
 58.4116  6131.05  78.7143
 58.4536  6179.93  78.9072
 58.4956  6033.08  78.1477
 58.5376  6136.29  78.5042
 58.5796  6057.13  78.2976
 58.6216  6171.93  78.8506
 58.6636  6196.75  79.2318
 58.7056  6253.35  79.4408
 58.7476  6088.26  78.8313
 58.7896  6146.39  78.8498
 58.8316  6259.38  79.676
 58.8736  6269.59  79.6415
 58.9156  6104.92  78.6235
 58.9576  6278.33  80.0692
 58.9996  6338.03  79.657
 59.0416  6339.22  80.0464
 59.0836  6230.14  79.2865
 59.1256  6080.75  79.0302
 59.1676  6141.28  79.7207
 59.2096  6286.39  79.9781
 59.2516  6230.92  79.1989
 59.2936  6290.15  79.9093
 59.3356  6318.74  79.9656
 59.3776  6305.28  80.0531
 59.4196  6128.7  78.8602
 59.4616  6151.29  78.8635
 59.5036  6095.72  78.5419
 59.5456  6252.99  79.2368
 59.5876  6343.36  80.0031
 59.6296  6350.92  80.1218
 59.6716  6222.94  79.3692
 59.7136  6248.53  79.5203
 59.7556  6240.56  79.6083
 59.7976  6116.29  78.5522
 59.8396  5989.73  77.63
 59.8816  6244.93  79.8215
 59.9236  6154.69  78.8826
 59.9656  6112.9  78.8739
 60.0076  6351.19  79.7401
 60.0496  6211.83  79.367
 60.0916  6476.07  80.4395
 60.1336  6215.51  79.9281
 60.1756  6123.44  80.5265
 60.1996  0.0000000E+00  0.0000000E+00