File: docs/examples/opeando_xrd/IS17_D/Data/IS17_D/17_Da_f00030.xye
# /beamlines/bl04/projects/cycle2025-II/20250340211-lsimonelli/DATA/IS17_D/17_Da_f00030.xye : mythproc.py merge -s 0.006 -l 0.5 -f /beamlines/bl04/inhouse/ff/FlatField/ff_20Nov2024rod8mm60s_17keV.raw -b True -c true -o xye /beamlines/bl04/projects/cycle2025-II/20250340211-lsimonelli/DATA/IS17_D/17_Da_00030.dat
# IsMon = [6746994, 6748607, 6747893]  IsPos = [-1.4999, -2.4885, -3.4986]
# Wave = 0.4962  CalPath /beamlines/bl04/projects/cycle2025-II/20250340211-lsimonelli/DATA/Align/Si_Pos1_25keV_f00001.cal
# Date = 2025-09-24_01:53:56 Dt = 4.8000  Bin = 0.0060  <imon> = 6747831 +/- 660 (Min/Max) 6746994 / 6748607
# icurr 249.2411  mocoIn 1.7006E-05  mocoOut 0.7985  i15 7.06335e+06  imon 6.74783e+06  i7 7.0000  iEMpd_timer 4.8000  iEMpd_1 3.6432E-08  iEMpd_2 7.8578E-08  iEMpd_3 1.6694E-08  iEMpd_4 4.8136E-08  iEMhp_timer 4.8000  iEMhp_1 4.8708E-06  iEMhp_2 -2.5055E-08  iEMhp_3 -2.2443E-08  iEMhp_4 -2.1009E-08
#      9776
 1.5856  39945.1  205.24
 1.6276  46970.7  218.739
 1.6696  53181.7  231.932
 1.7116  61362.9  249.621
 1.7536  71000.4  267.364
 1.7956  75703.7  276.767
 1.8376  71738  269.848
 1.8796  59928  244.824
 1.9216  48632.1  221.425
 1.9636  40501.7  201.242
 2.0056  36204  189.528
 2.0476  34007.6  185.703
 2.0896  32398.9  180.195
 2.1316  31781.6  177.611
 2.1736  29775.5  173.279
 2.2156  30644.3  174.378
 2.2576  29081.3  170.483
 2.2996  28261.3  168.677
 2.3416  28680.9  168.566
 2.3836  28097.7  166.949
 2.4256  27196.2  164.784
 2.4676  26515.9  162.479
 2.5096  26561.8  162.673
 2.5516  25891.9  164.33
 2.5936  26063.3  161.535
 2.6356  25170.4  159.411
 2.6776  25215.5  158.472
 2.7196  25023.4  158.373
 2.7616  24877.2  157.691
 2.8036  24687.7  157.259
 2.8456  24419.2  157.004
 2.8876  24154.3  155.998
 2.9296  23611.7  154.388
 2.9716  23346.5  153.022
 3.0136  23392.2  153.24
 3.0556  23224.2  153.074
 3.0976  23162.6  151.833
 3.1396  22939.5  151.795
 3.1816  22742.1  151.079
 3.2236  22529.2  150.364
 3.2656  22655.5  149.847
 3.3076  22274.6  149.996
 3.3496  22787.3  150.914
 3.3916  23238.2  151.986
 3.4336  23629.9  153.83
 3.4756  24107  155.303
 3.5176  24859.9  157.5
 3.5596  24581.3  159.001
 3.6016  24787.9  157.333
 3.6436  23893.5  155.545
 3.6856  23480.8  152.536
 3.7276  22770.4  151.275
 3.7696  22678.4  151.164
 3.8116  22188.8  149.408
 3.8536  22152.7  149.222
 3.8956  22166.9  149.098
 3.9376  22038  148.943
 3.9796  21975.1  148.219
 4.0216  22114  147.738
 4.0636  22017.3  148.863
 4.1056  22031.9  148.558
 4.1476  22370.2  150.005
 4.1896  22402.1  149.972
 4.2316  22601.3  150.472
 4.2736  23062.4  151.784
 4.3156  23468.7  153.345
 4.3576  24010.5  155.035
 4.3996  24306.2  156.038
 4.4416  24882.4  157.67
 4.4836  25254.1  158.996
 4.5256  25873.2  161.535
 4.5676  25939.3  161.993
 4.6096  26278.3  161.724
 4.6516  26714.1  162.769
 4.6936  27093.4  164.73
 4.7356  27061.4  164.464
 4.7776  26990.4  164.08
 4.8196  26694.9  163.824
 4.8616  26315.8  162.276
 4.9036  25873.5  160.523
 4.9456  25768.1  160.834
 4.9876  25405  159.595
 5.0296  25635.5  160.142
 5.0716  25685.8  160.928
 5.1136  25671.2  160.73
 5.1556  26071.3  161.449
 5.1976  26453.1  162.624
 5.2396  26657.4  162.952
 5.2816  26408.6  162.643
 5.3236  26677.4  163.177
 5.3656  26061.3  162.19
 5.4076  26036.4  162.262
 5.4496  26000.8  161.645
 5.4916  26103.9  161.723
 5.5336  26020.3  161.47
 5.5756  25760.7  160.69
 5.6176  26071.8  161.103
 5.6596  26282.9  162.717
 5.7016  26491.5  162.631
 5.7436  26444.1  162.755
 5.7856  26682.5  163.55
 5.8276  26852.4  163.793
 5.8696  26884.2  164.062
 5.9116  26850.7  164.528
 5.9536  27016.3  164.815
 5.9956  27259.5  164.929
 6.0376  27450.7  166.136
 6.0796  27550.5  166.27
 6.1216  27635.9  166.729
 6.1636  27999.5  166.892
 6.2056  27871.4  167.168
 6.2476  27885.5  167.087
 6.2896  28227.6  167.795
 6.3316  28239.1  167.996
 6.3736  28360.9  168.257
 6.4156  28294.4  167.955
 6.4576  28476.9  168.11
 6.4996  28649  169.088
 6.5416  28677.1  169.309
 6.5836  28780.3  169.84
 6.6256  28740.4  169.291
 6.6676  29404.2  170.806
 6.7096  28998.7  170.465
 6.7516  29503.5  171.598
 6.7936  29721.1  171.419
 6.8356  29628.7  171.474
 6.8776  29990.6  173.312
 6.9196  30043.6  173.859
 6.9616  30655.7  175.044
 7.0036  30861.8  175.317
 7.0456  31011.5  175.041
 7.0876  30848.7  176.252
 7.1296  30824.7  175.331
 7.1716  30703.8  174.531
 7.2136  30468.4  173.648
 7.2556  30862.2  174.926
 7.2976  30614.5  174.708
 7.3396  30494  174.569
 7.3816  30363.6  174.409
 7.4236  30831.9  175.053
 7.4656  31026.4  175.099
 7.5076  31252.3  175.867
 7.5496  31242.1  176.37
 7.5916  31008.4  175.738
 7.6336  31494  177.008
 7.6756  31581.4  177.108
 7.7176  32040.4  178.693
 7.7596  31810.9  179.279
 7.8016  32016.4  181.987
 7.8436  32660.8  180.541
 7.8856  32601.1  179.992
 7.9276  33457  182.731
 7.9696  33595.2  183.415
 8.0116  34418.6  184.575
 8.0536  34609.7  184.975
 8.0956  34678.3  186.311
 8.1376  34928.9  186.465
 8.1796  35278.1  187.93
 8.2216  36100.8  188.865
 8.2636  36011.6  188.874
 8.3056  36106.5  189.886
 8.3476  36575.9  190.452
 8.3896  36411.3  190.542
 8.4316  36386.5  190.198
 8.4736  36627.8  190.302
 8.5156  36309.1  189.745
 8.5576  36066.6  190.068
 8.5996  36054.7  188.926
 8.6416  35919.2  189.81
 8.6836  35655.7  188.953
 8.7256  36282  190.047
 8.7676  35495.4  190.835
 8.8096  35246.8  187.527
 8.8516  35192.5  187.009
 8.8936  34866.2  186.041
 8.9356  34755.4  186.074
 8.9776  35113.9  187.121
 9.0196  34622.4  185.493
 9.0616  34671.7  185.118
 9.1036  34159.9  184.895
 9.1456  34636.9  185.548
 9.1876  34678.2  185.61
 9.2296  34395.9  184.262
 9.2716  33851.7  182.862
 9.3136  33710  182.472
 9.3556  33929.8  183.051
 9.3976  32698.4  180.206
 9.4396  33276  181.691
 9.4816  32728.2  180.052
 9.5236  32606.7  179.633
 9.5656  32603  179.944
 9.6076  32344  179.74
 9.6496  32293.7  179.524
 9.6916  32120.5  179.014
 9.7336  32286.6  179.261
 9.7756  32296.3  180.597
 9.8176  31763  178.522
 9.8596  31562.8  176.445
 9.9016  30967.6  174.766
 9.9436  30909.1  174.516
 9.9856  30430.5  173.359
 10.0276  30178.3  173.735
 10.0696  30468  173.629
 10.1116  29655  171.547
 10.1536  29632.4  171.649
 10.1956  29201.5  170.005
 10.2376  28794.5  168.34
 10.2796  28823.1  168.539
 10.3216  28715  168.49
 10.3636  28613.7  168.224
 10.4056  28139.5  167.206
 10.4476  28267.6  167.223
 10.4896  28363.9  166.972
 10.5316  27755.7  165.86
 10.5736  27900.2  166.698
 10.6156  27549.7  165.422
 10.6576  27823.8  164.83
 10.6996  27359  164.107
 10.7416  26869.6  162.862
 10.7836  27129  164.317
 10.8256  26531.1  162.919
 10.8676  26846.2  163.424
 10.9096  26311.6  161.831
 10.9516  26160.5  160.318
 10.9936  26159.8  160.511
 11.0356  25928.6  160.421
 11.0776  25677.8  158.974
 11.1196  25430.8  158.941
 11.1616  25077.1  157.522
 11.2036  25088  157.414
 11.2456  25227.8  158.543
 11.2876  25288  158.467
 11.3296  24773.7  156.741
 11.3716  25244.8  157.93
 11.4136  25119.9  158.42
 11.4556  25431.7  159.072
 11.4976  25415  158.014
 11.5396  25965.1  159.878
 11.5816  26008.1  160.467
 11.6236  25449.9  159.17
 11.6656  25103.2  157.036
 11.7076  24540.7  156.087
 11.7496  24109.1  158.554
 11.7916  24235.6  154.395
 11.8336  23838.8  154.013
 11.8756  23688.3  153.05
 11.9176  23820.7  153.382
 11.9596  23445.3  152.112
 12.0016  23644.9  153.533
 12.0436  23448.1  152.324
 12.0856  23236.7  152.154
 12.1276  23228.5  152.045
 12.1696  23398.3  151.747
 12.2116  23572.7  152.313
 12.2536  23000.8  151.265
 12.2956  23245.2  151.414
 12.3376  22767.3  150.05
 12.3796  23215  151.966
 12.4216  23161.3  151.025
 12.4636  22826.8  150.822
 12.5056  22882  150.299
 12.5476  23158.4  150.741
 12.5896  23094.4  151.153
 12.6316  22635.2  149.798
 12.6736  23042  151.467
 12.7156  22734.7  150.465
 12.7576  22824.7  150.994
 12.7996  23221.3  150.974
 12.8416  23063.6  151.493
 12.8836  23381.9  152.341
 12.9256  23457.6  151.649
 12.9676  23567.2  152.413
 13.0096  23374.6  152.866
 13.0516  23637.8  152.777
 13.0936  23435.4  152.514
 13.1356  23755.9  152.556
 13.1776  23606.5  153.048
 13.2196  23659.3  152.88
 13.2616  23708.3  153.342
 13.3036  23641.6  153.1
 13.3456  23468.9  152.69
 13.3876  23605.3  152.639
 13.4296  23562.2  152.647
 13.4716  23745.8  152.854
 13.5136  23539  152.343
 13.5556  23540.2  152.938
 13.5976  23622.7  153.35
 13.6396  23857.3  153.49
 13.6816  23489  152.78
 13.7236  24167.2  154.628
 13.7656  23581.6  153.262
 13.8076  23654.2  152.305
 13.8496  23343.1  151.89
 13.8916  23346.1  152.884
 13.9336  23338.5  152.1
 13.9756  23086.7  150.643
 14.0176  22893.7  150.674
 14.0596  23124.8  151.395
 14.1016  22988.3  151.337
 14.1436  22663.4  149.416
 14.1856  22358.2  148.696
 14.2276  22189.8  148.602
 14.2696  22360.5  149.023
 14.3116  22148.5  148.213
 14.3536  21642.5  146.689
 14.3956  21733.9  146.73
 14.4376  21779.6  146.669
 14.4796  21647.2  146.214
 14.5216  21433.3  146.272
 14.5636  21324.2  145.47
 14.6056  21468.3  145.55
 14.6476  21364.8  144.442
 14.6896  20884.9  143.339
 14.7316  20915.1  144.454
 14.7736  20519.1  142.242
 14.8156  20395.5  141.854
 14.8576  20455  141.911
 14.8996  20038.3  141.642
 14.9416  19607.7  140.11
 14.9836  19733.8  140.521
 15.0256  19376  138.19
 15.0676  19559  139.157
 15.1096  19228  137.716
 15.1516  19058.4  137.653
 15.1936  18985.8  136.831
 15.2356  18915  136.85
 15.2776  18812.5  136.07
 15.3196  18426.3  135.649
 15.3616  18432.9  135.434
 15.4036  18375.5  135.085
 15.4456  18384.5  134.551
 15.4876  18231.4  133.893
 15.5296  18023.9  133.41
 15.5716  17928.7  132.667
 15.6136  17714.5  132.193
 15.6556  17739.3  131.54
 15.6976  17937.6  132.351
 15.7396  17489.2  131.272
 15.7816  17419.9  130.539
 15.8236  17146.6  130.194
 15.8656  17282.9  130.502
 15.9076  16928  128.985
 15.9496  16899  131.602
 15.9916  17005  132.447
 16.0336  16629.3  127.948
 16.0756  16666.2  128.393
 16.1176  16674.2  128.488
 16.1596  16313.8  128.244
 16.2016  16395.4  127.338
 16.2436  16331.7  127.469
 16.2856  16320.9  126.98
 16.3276  15959.1  125.97
 16.3696  16066.2  126.218
 16.4116  15967.9  126.282
 16.4536  16297.9  127.367
 16.4956  15828.5  125.266
 16.5376  15768.5  125.209
 16.5796  15674.1  124.206
 16.6216  15846.4  125.189
 16.6636  15826.2  125.257
 16.7056  15901.3  125.412
 16.7476  15736.1  124.456
 16.7896  15770.4  125.184
 16.8316  15853.2  125.478
 16.8736  15576.3  124.626
 16.9156  15602.6  125.054
 16.9576  15568  125.705
 16.9996  15559.7  126.147
 17.0416  15689.7  125.055
 17.0836  15704.8  124.871
 17.1256  15383.8  123.608
 17.1676  15524.7  124.168
 17.2096  15349.2  123.339
 17.2516  15243.6  122.701
 17.2936  15147.1  122.622
 17.3356  14881.9  121.559
 17.3776  14929.8  121.938
 17.4196  14954.6  121.729
 17.4616  14788.5  120.983
 17.5036  14628.1  120.679
 17.5456  14466.8  120.639
 17.5876  14505  119.866
 17.6296  14444.6  119.433
 17.6716  14595.3  120.625
 17.7136  14250.8  119.333
 17.7556  14379.3  120.146
 17.7976  14235  119.163
 17.8396  14186.2  118.601
 17.8816  14145.1  118.96
 17.9236  14134.8  118.733
 17.9656  14355.5  120.349
 18.0076  14248.7  119.325
 18.0496  14316.9  118.76
 18.0916  14301  119.227
 18.1336  14121  118.566
 18.1756  14508.9  119.722
 18.2176  14323.5  119.175
 18.2596  14229.6  118.522
 18.3016  14424.2  119.584
 18.3436  14410.5  119.767
 18.3856  14142.3  118.54
 18.4276  14365.2  119.155
 18.4696  14097.2  118.132
 18.5116  14094.6  118.406
 18.5536  14242.8  119.383
 18.5956  13864.7  117.345
 18.6376  13929.8  118.021
 18.6796  13807.2  116.836
 18.7216  13840.2  117.525
 18.7636  13774.6  117.168
 18.8056  13558.6  116.186
 18.8476  13548.2  116.455
 18.8896  13549.5  116.107
 18.9316  13768.3  116.865
 18.9736  13556  115.822
 19.0156  13666.4  116.674
 19.0576  13569.8  115.17
 19.0996  13654.7  116.224
 19.1416  13410.4  115.564
 19.1836  13408.2  115.165
 19.2256  13361.7  115.173
 19.2676  13436.1  115.585
 19.3096  13376  115.562
 19.3516  13405.6  115.654
 19.3936  13387.5  115.54
 19.4356  13461.5  115.668
 19.4776  13444.1  115.69
 19.5196  13446.2  115.547
 19.5616  13410.5  115.648
 19.6036  13507.1  115.43
 19.6456  13420.6  115.317
 19.6876  13583.5  115.668
 19.7296  13459.6  115.586
 19.7716  13419.2  115.429
 19.8136  13586.1  116.496
 19.8556  13683.6  116.39
 19.8976  13711.5  116.581
 19.9396  13689.8  116.076
 19.9816  13909.4  117.237
 20.0236  13908.9  117.452
 20.0656  14124.4  118.352
 20.1076  13840.2  117.615
 20.1496  13748.3  117.23
 20.1916  13683.8  116.473
 20.2336  13426.7  115.314
 20.2756  13251.1  114.973
 20.3176  13136.3  114.228
 20.3596  13116.4  114.119
 20.4016  13062.7  113.694
 20.4436  13067.6  114.275
 20.4856  12990.4  113.708
 20.5276  12882.4  113.697
 20.5696  12882.3  113.159
 20.6116  12752.5  112.862
 20.6536  12816.2  112.714
 20.6956  12877  113.05
 20.7376  12756.2  112.745
 20.7796  12761  112.456
 20.8216  12827.4  112.468
 20.8636  12589.4  111.775
 20.9056  12769.6  112.522
 20.9476  12573.5  111.498
 20.9896  12913.2  112.86
 21.0316  12798.2  112.257
 21.0736  12691.5  112.298
 21.1156  12824  113.039
 21.1576  12807.2  113.016
 21.1996  12629.1  112.208
 21.2416  12585.7  111.853
 21.2836  12815.3  112.828
 21.3256  12620.7  112.05
 21.3676  12647.8  111.727
 21.4096  12514.7  111.441
 21.4516  12510.2  111.305
 21.4936  12482.9  111.421
 21.5356  12474.8  111.34
 21.5776  12473.9  111.172
 21.6196  12417.4  110.954
 21.6616  12269.9  110.38
 21.7036  12321.9  110.4
 21.7456  12383.2  110.743
 21.7876  12251.8  109.914
 21.8296  12334.9  110.143
 21.8716  12290.5  110.173
 21.9136  12514.3  111.371
 21.9556  12401.8  110.543
 21.9976  12217.4  109.732
 22.0396  12112.1  109.514
 22.0816  12279.8  110.8
 22.1236  12258.6  110.155
 22.1656  12222.9  110.181
 22.2076  12354.7  110.202
 22.2496  12222.5  109.635
 22.2916  12371  110.188
 22.3336  12146.2  109.864
 22.3756  12228.8  109.986
 22.4176  12127.9  109.386
 22.4596  11951  109.165
 22.5016  12411.3  110.739
 22.5436  12280.1  110.042
 22.5856  12243.5  110.118
 22.6276  12286.6  110.445
 22.6696  12279  110.762
 22.7116  12195.5  109.902
 22.7536  12341.3  110.534
 22.7956  12194.4  109.218
 22.8376  12173.8  109.642
 22.8796  12262.8  109.841
 22.9216  12377.9  110.899
 22.9636  12159.6  109.083
 23.0056  12179.5  109.305
 23.0476  12279.5  110.316
 23.0896  12543.4  110.874
 23.1316  12381.5  110.589
 23.1736  12134.6  112.366
 23.2156  12279.4  110.372
 23.2576  12292  110.646
 23.2996  12207.7  110.053
 23.3416  12153.7  110.313
 23.3836  12303.3  110.215
 23.4256  12178.9  109.794
 23.4676  12066.8  108.992
 23.5096  12239.2  110.433
 23.5516  12080.4  109.013
 23.5936  12243.6  110.635
 23.6356  12392.4  110.972
 23.6776  12057.9  110.006
 23.7196  11822.4  108.183
 23.7616  12180.7  109.739
 23.8036  12311.9  110.358
 23.8456  12271.4  109.754
 23.8876  11862  108.253
 23.9296  11959.4  109.184
 23.9716  11929.8  108.249
 24.0136  12083.8  109.845
 24.0556  12023.3  109.303
 24.0976  11746.6  107.848
 24.1396  11720.8  110.329
 24.1816  11824.7  109.582
 24.2236  11696.5  108.28
 24.2656  11588.7  107.264
 24.3076  11463.5  106.92
 24.3496  11475  106.872
 24.3916  11430.3  106.715
 24.4336  11572.8  107.583
 24.4756  11505.7  107.146
 24.5176  11420.7  106.4
 24.5596  11267.9  105.811
 24.6016  11199.2  105.767
 24.6436  11257  105.545
 24.6856  11262.9  105.336
 24.7276  11374.8  106.164
 24.7696  11225.3  105.58
 24.8116  11156.7  105.435
 24.8536  11055  104.948
 24.8956  10848.3  103.703
 24.9376  10988.4  104.317
 24.9796  10951  104.483
 25.0216  10762.9  103.694
 25.0636  10989.5  104.437
 25.1056  10819.1  104.044
 25.1476  10896.2  106.325
 25.1896  10929.4  104.984
 25.2316  10888.3  103.949
 25.2736  10940.6  103.984
 25.3156  10773.2  103.255
 25.3576  10740.2  103.511
 25.3996  10798.7  103.768
 25.4416  10701.6  103.289
 25.4836  10566.4  103.146
 25.5256  10637.3  102.868
 25.5676  10781.8  103.298
 25.6096  10646  103.208
 25.6516  10766.5  103.299
 25.6936  10535.8  102.492
 25.7356  10587.1  102.874
 25.7776  10681.6  102.944
 25.8196  10368  101.653
 25.8616  10554.6  102.483
 25.9036  10628.2  102.319
 25.9456  10593.6  102.734
 25.9876  10478.9  102.243
 26.0296  10708.9  102.96
 26.0716  10494.8  102.257
 26.1136  10551.2  102.474
 26.1556  10652.1  102.264
 26.1976  10417.1  102.121
 26.2396  10569  102.285
 26.2816  10424.9  101.933
 26.3236  10603.5  102.876
 26.3656  10440.9  101.895
 26.4076  10636.7  103.047
 26.4496  10964.3  104.165
 26.4916  10592.8  102.348
 26.5336  10541.6  102.417
 26.5756  10774.7  103.382
 26.6176  10388.3  101.584
 26.6596  10302  101.463
 26.7016  10443.1  101.958
 26.7436  10249.7  101.098
 26.7856  10109.5  100.386
 26.8276  10254.7  101.062
 26.8696  10316.6  101.241
 26.9116  10288.6  101.042
 26.9536  10183.2  100.571
 26.9956  10178  100.573
 27.0376  10211.2  100.955
 27.0796  10210.9  100.731
 27.1216  10057.4  99.9987
 27.1636  10039.4  100.076
 27.2056  10090.1  100.21
 27.2476  10150.3  100.513
 27.2896  10067.2  100.137
 27.3316  9966.89  99.4277
 27.3736  9976.69  99.7344
 27.4156  9985.48  99.623
 27.4576  10029.1  100.071
 27.4996  9904.02  99.0422
 27.5416  10003.2  99.8493
 27.5836  9943.71  99.3758
 27.6256  10219.6  100.922
 27.6676  10055.9  100.123
 27.7096  9917.97  99.2954
 27.7516  9870.98  99.2146
 27.7936  9885.15  99.452
 27.8356  9882.01  99.0632
 27.8776  9752.49  98.4527
 27.9196  9689.6  97.9839
 27.9616  9880.54  99.1398
 28.0036  9888.72  99.1607
 28.0456  9881.2  99.2451
 28.0876  9759.21  98.7189
 28.1296  9744.64  98.4884
 28.1716  9776.28  98.6609
 28.2136  9751.7  98.5024
 28.2556  9671.18  98.2083
 28.2976  9633  98
 28.3396  9622.31  97.7472
 28.3816  9672.42  97.9871
 28.4236  9699.56  98.2728
 28.4656  9556.06  97.5819
 28.5076  9606.08  97.48
 28.5496  9628.9  97.8535
 28.5916  9660.04  97.8225
 28.6336  9408.04  96.8705
 28.6756  9616.81  97.1524
 28.7176  9499.09  97.0944
 28.7596  9606.32  97.5356
 28.8016  9585.46  97.5499
 28.8436  9334.94  96.4213
 28.8856  9485.49  97.0415
 28.9276  9427.57  96.9927
 28.9696  9459.09  96.8152
 29.0116  9432.34  96.8533
 29.0536  9357.31  96.6722
 29.0956  9458.93  96.9218
 29.1376  9326.02  96.1945
 29.1796  9305.08  96.1375
 29.2216  9320.85  96.0622
 29.2636  9402.48  96.478
 29.3056  9262.82  95.6314
 29.3476  9385.55  96.7779
 29.3896  9371.5  96.8016
 29.4316  9372.77  96.1572
 29.4736  9301.66  95.8563
 29.5156  9485.22  96.7174
 29.5576  9303.98  96.515
 29.5996  9361.22  96.0823
 29.6416  9397.31  96.3813
 29.6836  9246.64  95.5371
 29.7256  9192.72  95.8117
 29.7676  9298.98  96.0293
 29.8096  9224.56  95.5895
 29.8516  9191.82  95.7465
 29.8936  9323.52  96.5202
 29.9356  9344.23  96.386
 29.9776  9229.03  95.9419
 30.0196  9234.67  95.369
 30.0616  9207.22  95.5935
 30.1036  9129.64  95.0201
 30.1456  9141.07  95.3303
 30.1876  9201.99  95.6015
 30.2296  9195.7  95.5214
 30.2716  9279.68  95.5965
 30.3136  9262.69  96.0979
 30.3556  9212.23  96.1066
 30.3976  9136.83  97.198
 30.4396  9163.06  94.7357
 30.4816  9310.98  95.0985
 30.5236  9193.66  94.5192
 30.5656  9080.91  94.574
 30.6076  9180.27  94.5333
 30.6496  9099.25  94.4889
 30.6916  9032.67  94.2334
 30.7336  8893.54  93.6527
 30.7756  9151.27  95.3046
 30.8176  9071.48  94.5923
 30.8596  9110.86  94.5664
 30.9016  9093.46  94.8164
 30.9436  9071.99  94.4613
 30.9856  9030.92  94.3532
 31.0276  8963.66  93.6153
 31.0696  8922.7  93.8369
 31.1116  9100.24  94.8737
 31.1536  9085.16  94.6758
 31.1956  8898.78  93.7894
 31.2376  8840.95  93.4943
 31.2796  8972.59  93.7271
 31.3216  9111.98  94.4032
 31.3636  9015.73  94.5794
 31.4056  8937.63  95.4531
 31.4476  9036.19  93.9009
 31.4896  8897.36  93.6684
 31.5316  8913.49  93.2096
 31.5736  8975.64  93.321
 31.6156  8908.21  92.9846
 31.6576  8934.89  93.2149
 31.6996  8958.3  93.0162
 31.7416  8752.76  92.9753
 31.7836  8977.24  93.1925
 31.8256  8825.54  92.7421
 31.8676  8958.08  93.3571
 31.9096  8821.52  92.9851
 31.9516  8796.46  93.0093
 31.9936  8732.38  92.5038
 32.0356  8807.91  92.9628
 32.0776  8955.56  93.6322
 32.1196  8909.05  93.4773
 32.1616  8861.87  92.6989
 32.2036  8731.61  92.5102
 32.2456  8761.13  93.0434
 32.2876  8726.51  92.2012
 32.3296  8716.58  92.2797
 32.3716  8651.4  92.0339
 32.4136  8717.19  92.5965
 32.4556  8793.97  92.4485
 32.4976  8810.61  92.3756
 32.5396  8700.26  91.8786
 32.5816  8758.64  92.1953
 32.6236  8818.65  92.6852
 32.6656  8831.23  93.2855
 32.7076  8572.57  91.5742
 32.7496  8700.75  91.9321
 32.7916  8646.67  91.6042
 32.8336  8802.98  92.5233
 32.8756  8650.2  91.5328
 32.9176  8533.42  91.2942
 32.9596  8490.84  91.1381
 33.0016  8630.8  91.6871
 33.0436  8616.46  91.785
 33.0856  8604.64  91.7909
 33.1276  8489.45  90.907
 33.1696  8646.69  91.5949
 33.2116  8603.48  91.5797
 33.2536  8708.06  92.1431
 33.2956  8756.73  92.4819
 33.3376  8525.86  90.9667
 33.3796  8600.52  91.6006
 33.4216  8683.15  91.6424
 33.4636  8630.25  91.5039
 33.5056  8588.44  91.3541
 33.5476  8489.61  90.9879
 33.5896  8715.16  91.9277
 33.6316  8468.08  90.9636
 33.6736  8390.44  90.7829
 33.7156  8402.06  90.8824
 33.7576  8568.85  91.4203
 33.7996  8583.58  91.2661
 33.8416  8258.73  89.7033
 33.8836  8529.97  90.9389
 33.9256  8447.45  90.5627
 33.9676  8598.94  91.2666
 34.0096  8302.62  89.9897
 34.0516  8400.02  90.1547
 34.0936  8371.92  90.2592
 34.1356  8509.14  90.7492
 34.1776  8404.7  90.2044
 34.2196  8273.17  89.6645
 34.2616  8347.97  90.267
 34.3036  8306.88  90.2272
 34.3456  8325.02  90.0843
 34.3876  8227.72  89.5176
 34.4296  8385.96  90.0591
 34.4716  8447.2  90.5489
 34.5136  8265.75  89.7702
 34.5556  8242.65  89.8866
 34.5976  8358.87  90.3252
 34.6396  8232.97  89.3609
 34.6816  8244.1  89.5359
 34.7236  8366.61  89.9883
 34.7656  8381.9  90.2582
 34.8076  8237.62  89.7936
 34.8496  8215.52  89.5325
 34.8916  8197.49  89.3186
 34.9336  8440.34  90.592
 34.9756  8613.66  91.4066
 35.0176  8347.78  90.5346
 35.0596  8213.73  89.6349
 35.1016  8128.19  88.9434
 35.1436  8262.51  89.366
 35.1856  8080.13  88.4967
 35.2276  8174.77  89.1884
 35.2696  8179.61  89.4011
 35.3116  8183.04  89.5096
 35.3536  8076.35  88.6397
 35.3956  8295.48  89.5475
 35.4376  8176.45  89.4391
 35.4796  8113.5  89.1611
 35.5216  8100.92  88.9832
 35.5636  7993.69  89.1892
 35.6056  8206.75  89.4008
 35.6476  8178.13  89.1404
 35.6896  8138.29  89.0923
 35.7316  8123.99  88.9114
 35.7736  8070.13  88.8082
 35.8156  7991.89  88.3698
 35.8576  8067.15  89.0369
 35.8996  8227.61  89.8813
 35.9416  8239.58  89.4498
 35.9836  8047.81  88.748
 36.0256  8298.4  90.1437
 36.0676  8188.12  89.0864
 36.1096  7917.47  87.9509
 36.1516  8166.3  89.2045
 36.1936  7982.92  88.0572
 36.2356  8050.75  89.0496
 36.2776  8017.15  88.368
 36.3196  8090  88.4394
 36.3616  8071.3  88.4638
 36.4036  8055.84  88.4262
 36.4456  8037.33  88.5377
 36.4876  7846.16  87.4165
 36.5296  8018.07  88.4189
 36.5716  8061.31  89.4243
 36.6136  8159.18  88.7443
 36.6556  8214.03  89.245
 36.6976  7995.21  88.541
 36.7396  8106.79  88.9788
 36.7816  8079.82  89.1119
 36.8236  8083.5  89.0542
 36.8656  7963.27  88.4646
 36.9076  7897.79  88.1039
 36.9496  7962.54  88.476
 36.9916  8011.45  88.2274
 37.0336  8045.41  88.7316
 37.0756  7980.17  88.1646
 37.1176  7894.52  88.0472
 37.1596  7959.21  88.3166
 37.2016  7802.28  87.6176
 37.2436  7978.56  87.9774
 37.2856  7930.44  87.9625
 37.3276  7979.62  87.5955
 37.3696  7880.86  87.9181
 37.4116  7939.61  88.1528
 37.4536  7787.41  87.1751
 37.4956  7785.55  87.2133
 37.5376  7993.45  89.903
 37.5796  7789.55  88.7124
 37.6216  7693.54  86.4671
 37.6636  7757.32  86.7307
 37.7056  7831.48  87.3376
 37.7476  7705.15  86.1762
 37.7896  7854.26  87.4987
 37.8316  7566.51  86.048
 37.8736  7874.07  87.3101
 37.9156  7693.69  86.3066
 37.9576  7883.34  87.4093
 37.9996  7628.82  85.5558
 38.0416  7738.52  86.9696
 38.0836  7838.37  87.4334
 38.1256  7865.54  87.5379
 38.1676  7528.02  85.7743
 38.2096  7739.11  86.5971
 38.2516  7823.03  87.1744
 38.2936  7744.91  86.6396
 38.3356  7762.8  86.6526
 38.3776  7729.49  86.7365
 38.4196  7821.29  87.1089
 38.4616  7722.03  86.7758
 38.5036  7969.94  88.0135
 38.5456  7720.61  87.442
 38.5876  7726.31  87.5007
 38.6296  7613.62  85.8635
 38.6716  7626.29  85.7307
 38.7136  7634.65  85.7243
 38.7556  7603.01  86.0368
 38.7976  7732.82  86.7093
 38.8396  7550.33  86.1222
 38.8816  7527.7  85.7712
 38.9236  7593.88  85.9709
 38.9656  7593.58  85.8838
 39.0076  7744.54  86.1484
 39.0496  7615.73  85.9452
 39.0916  7668.97  85.8917
 39.1336  7579.87  85.8155
 39.1756  7601.87  86.0056
 39.2176  7641.55  86.751
 39.2596  7601.34  86.4423
 39.3016  7624.67  86.1581
 39.3436  7549.05  86.1434
 39.3856  7632.33  86.0788
 39.4276  7606.99  86.4181
 39.4696  7552.09  85.7394
 39.5116  7570.28  86.343
 39.5536  7752.84  87.8084
 39.5956  7726.65  86.7679
 39.6376  7635.45  86.0972
 39.6796  7609.16  85.8523
 39.7216  7649.01  86.1794
 39.7636  7691.74  86.9783
 39.8056  7609.29  86.2958
 39.8476  7483.22  85.8229
 39.8896  7623.74  86.2615
 39.9316  7583.73  86.2873
 39.9736  7730.71  86.6888
 40.0156  7557.64  85.5432
 40.0576  7600.07  86.1358
 40.0996  7636.36  85.5449
 40.1416  7743.38  86.9126
 40.1836  7737.52  86.7839
 40.2256  7776.7  87.0467
 40.2676  7528.03  85.7453
 40.3096  7726.48  86.7963
 40.3516  7667.79  86.6482
 40.3936  7743.93  86.5652
 40.4356  7613.3  86.0232
 40.4776  7833.15  87.6641
 40.5196  7761.53  87.3895
 40.5616  7767.44  87.0698
 40.6036  7720.81  87.0585
 40.6456  7788.29  87.0492
 40.6876  7863.11  87.452
 40.7296  7689.21  86.6163
 40.7716  7650.58  86.521
 40.8136  7583.57  86.0868
 40.8556  7627.71  86.4656
 40.8976  7639.66  86.457
 40.9396  7614.46  86.6601
 40.9816  7762.26  86.7886
 41.0236  7773.63  86.6362
 41.0656  7808.83  87.3673
 41.1076  7823.91  87.2259
 41.1496  7744  86.6865
 41.1916  7659.65  86.5323
 41.2336  7600.95  86.19
 41.2756  7682.4  86.2648
 41.3176  7648.84  86.6788
 41.3596  7715.21  86.7854
 41.4016  7618.77  86.499
 41.4436  7730.67  86.9208
 41.4856  7731.76  87.0842
 41.5276  7621.3  86.4803
 41.5696  7725.58  86.6914
 41.6116  7678.32  86.831
 41.6536  7593.62  86.2119
 41.6956  7604.34  86.3242
 41.7376  7613.47  86.4055
 41.7796  7715.52  86.9149
 41.8216  7706.64  87.0478
 41.8636  7680.2  86.8359
 41.9056  7605.99  86.2131
 41.9476  7601.21  86.4047
 41.9896  7631.49  86.2545
 42.0316  7682.58  86.6255
 42.0736  7554.88  86.008
 42.1156  7531.54  85.721
 42.1576  7705.27  86.8025
 42.1996  7628.58  86.5095
 42.2416  7674.61  86.3553
 42.2836  7573.2  85.8897
 42.3256  7552.15  85.8852
 42.3676  7608.34  86.0146
 42.4096  7517.86  85.4598
 42.4516  7645.77  86.2757
 42.4936  7529.55  85.6838
 42.5356  7556.11  85.9648
 42.5776  7632.56  86.3421
 42.6196  7622.12  86.2528
 42.6616  7450.52  85.5227
 42.7036  7539.43  85.4301
 42.7456  7492.42  85.514
 42.7876  7621.2  86.3406
 42.8296  7513.23  85.6283
 42.8716  7523.7  85.7807
 42.9136  7467.62  85.2565
 42.9556  7562.65  85.9278
 42.9976  7576.37  85.9672
 43.0396  7501.67  85.2805
 43.0816  7386.8  84.9789
 43.1236  7544.26  85.9524
 43.1656  7495.01  85.5044
 43.2076  7406.56  85.1028
 43.2496  7377.29  84.7486
 43.2916  7481.11  85.7006
 43.3336  7495.26  85.6253
 43.3756  7392.96  84.8002
 43.4176  7366.82  84.7299
 43.4596  7419.98  84.8889
 43.5016  7445.94  85.4407
 43.5436  7424.2  85.2108
 43.5856  7452.91  85.408
 43.6276  7424.45  85.1377
 43.6696  7417.22  85.2375
 43.7116  7389.33  84.701
 43.7536  7452.28  85.5365
 43.7956  7325.88  85.968
 43.8376  7418.59  85.0811
 43.8796  7406.79  85.0957
 43.9216  7361.89  84.7589
 43.9636  7416.38  85.1782
 44.0056  7355.81  85.054
 44.0476  7432.02  85.1314
 44.0896  7155.44  83.8629
 44.1316  7387.54  84.882
 44.1736  7309.81  84.4216
 44.2156  7289.99  84.163
 44.2576  7362.32  84.8995
 44.2996  7292.38  84.4615
 44.3416  7404.81  84.8736
 44.3836  7174.61  83.862
 44.4256  7295.64  84.2234
 44.4676  7251.71  84.1221
 44.5096  7296.19  84.5172
 44.5516  7301.18  84.5041
 44.5936  7175.04  83.7347
 44.6356  7266.21  84.0087
 44.6776  7322.76  84.646
 44.7196  7152.52  83.9201
 44.7616  7231.87  85.7218
 44.8036  7127.55  83.5692
 44.8456  7205.25  84.2218
 44.8876  7197.36  84.0323
 44.9296  7313.29  84.1702
 44.9716  7210.26  83.9951
 45.0136  7186.6  83.7921
 45.0556  7207.17  83.8855
 45.0976  7152.9  83.7285
 45.1396  7029.06  82.7775
 45.1816  7115.63  83.0463
 45.2236  7197.06  83.587
 45.2656  7170.48  83.9292
 45.3076  7223.66  84.0279
 45.3496  7075.11  83.4418
 45.3916  7114.04  83.9393
 45.4336  7133.55  83.9062
 45.4756  7004.75  83.0116
 45.5176  7113.89  83.2756
 45.5596  7106.09  83.3503
 45.6016  7022.32  83.2622
 45.6436  7134.94  83.1248
 45.6856  7025.21  83.1085
 45.7276  7009.35  84.8173
 45.7696  7028.51  84.0968
 45.8116  7018.88  83.4962
 45.8536  6956.3  83.021
 45.8956  7061.32  83.0104
 45.9376  7111.91  82.783
 45.9796  7094.95  83.3671
 46.0216  7152.16  84.0225
 46.0636  7260.99  83.8204
 46.1056  7050.27  82.5806
 46.1476  7107.61  83.4959
 46.1896  7010.65  83.0704
 46.2316  7054.67  83.2035
 46.2736  6925.33  82.7938
 46.3156  7032.04  83.0243
 46.3576  7116.82  83.723
 46.3996  7123.81  83.9191
 46.4416  7011.72  82.8432
 46.4836  6930.57  82.7098
 46.5256  6986.7  82.9857
 46.5676  6920.52  82.6982
 46.6096  7017.54  83.2028
 46.6516  7119.82  82.879
 46.6936  7007.09  82.6986
 46.7356  7100.63  83.3549
 46.7776  6939.66  83.2243
 46.8196  6958.8  82.9419
 46.8616  6822.41  82.0665
 46.9036  6881.75  82.0887
 46.9456  6830.29  81.4383
 46.9876  6913.46  82.0198
 47.0296  6891.48  82.5566
 47.0716  6842.48  82.0922
 47.1136  6880.08  82.0002
 47.1556  6914.18  82.0727
 47.1976  6950.76  82.364
 47.2396  6748.92  81.5493
 47.2816  6905.44  82.1987
 47.3236  6805.42  81.9624
 47.3656  6880.28  82.3408
 47.4076  6821  81.7965
 47.4496  6800.87  81.7686
 47.4916  6781.15  81.8307
 47.5336  6921.84  82.4924
 47.5756  6868.93  82.258
 47.6176  6722.02  81.3083
 47.6596  6751.18  81.2103
 47.7016  6956.58  82.2566
 47.7436  6900.11  82.2521
 47.7856  6927.56  82.4354
 47.8276  6797.46  81.703
 47.8696  6838.15  82.039
 47.9116  6959.66  82.4855
 47.9536  6818.62  81.5868
 47.9956  6695.21  81.5258
 48.0376  6694.77  81.3098
 48.0796  6900.8  82.6664
 48.1216  6846.12  82.1725
 48.1636  6905.48  82.1108
 48.2056  6785.96  81.6532
 48.2476  6834.4  82.2453
 48.2896  6808.91  82.001
 48.3316  6760.54  81.6576
 48.3736  6782.08  81.8039
 48.4156  6680.38  81.0529
 48.4576  6756.9  81.7971
 48.4996  6795.46  81.5013
 48.5416  6864.06  82.2266
 48.5836  6810.92  81.5957
 48.6256  6722.49  81.2586
 48.6676  6799.39  82.225
 48.7096  6857.59  81.8658
 48.7516  6785.63  81.5771
 48.7936  6609.07  80.5667
 48.8356  6736.63  81.3897
 48.8776  6705.29  81.679
 48.9196  6848.23  81.9923
 48.9616  6602.87  80.8843
 49.0036  6730.58  82.0091
 49.0456  6679.72  81.6735
 49.0876  6599.88  80.8349
 49.1296  6630.44  81.0816
 49.1716  6552.55  80.472
 49.2136  6649.19  81.0097
 49.2556  6617.03  80.8385
 49.2976  6640.46  81.0514
 49.3396  6571.33  80.6777
 49.3816  6765.15  81.3083
 49.4236  6577.76  80.5818
 49.4656  6578.3  80.5971
 49.5076  6717.6  81.2022
 49.5496  6561.38  80.1944
 49.5916  6678.21  80.9479
 49.6336  6713.12  81.3592
 49.6756  6714.11  81.5841
 49.7176  6585.24  80.7477
 49.7596  6621.87  80.9156
 49.8016  6654.26  80.8518
 49.8436  6537.97  80.4366
 49.8856  6615.81  80.926
 49.9276  6647.03  81.2107
 49.9696  6540.93  80.5443
 50.0116  6592.64  80.9959
 50.0536  6529.71  80.5523
 50.0956  6550.63  80.748
 50.1376  6610.75  80.8269
 50.1796  6501.9  80.4207
 50.2216  6496.47  80.366
 50.2636  6570.13  80.4631
 50.3056  6456.73  79.9322
 50.3476  6496.41  80.1925
 50.3896  6502.96  80.2134
 50.4316  6540.83  80.2871
 50.4736  6466.4  80.0413
 50.5156  6436.06  79.8309
 50.5576  6549.59  80.3078
 50.5996  6442.58  79.924
 50.6416  6425.91  79.7515
 50.6836  6524.48  80.4188
 50.7256  6439.29  79.8124
 50.7676  6530.39  80.6504
 50.8096  6371.67  79.2555
 50.8516  6491.65  80.4089
 50.8936  6487.01  80.1697
 50.9356  6575.35  80.8098
 50.9776  6493.7  80.4589
 51.0196  6307.7  79.4211
 51.0616  6427.01  79.5118
 51.1036  6493.42  80.2694
 51.1456  6434.79  79.8195
 51.1876  6503.32  79.6034
 51.2296  6381.79  79.4663
 51.2716  6404.07  79.3247
 51.3136  6264.74  78.8867
 51.3556  6343.85  79.0266
 51.3976  6288.06  78.8222
 51.4396  6207.23  78.6112
 51.4816  6253.13  78.7591
 51.5236  6390  79.6992
 51.5656  6273.57  78.5877
 51.6076  6357.35  79.1899
 51.6496  6319.12  79.1378
 51.6916  6167.58  78.5202
 51.7336  6338.11  79.691
 51.7756  6342.47  79.427
 51.8176  6307.46  79.2997
 51.8596  6288.98  79.1994
 51.9016  6426.42  79.6828
 51.9436  6224.64  79.8279
 51.9856  6170.09  79.8767
 52.0276  6361.39  79.6724
 52.0696  6256.5  79.0754
 52.1116  6234.73  79.0492
 52.1536  6263.01  79.1163
 52.1956  6374.37  79.297
 52.2376  6381.11  79.5092
 52.2796  6330.23  79.0011
 52.3216  6197.92  78.8426
 52.3636  6368.5  79.5084
 52.4056  6213.02  78.3866
 52.4476  6208.13  78.7183
 52.4896  6141.47  78.3435
 52.5316  6150.96  78.4466
 52.5736  6244.64  78.7714
 52.6156  6204.94  78.8904
 52.6576  6275.69  78.8019
 52.6996  6071.58  78.4409
 52.7416  6223.02  79.2744
 52.7836  6222.77  79.1539
 52.8256  6210.87  78.3213
 52.8676  6124.29  78.3284
 52.9096  6169.5  78.7086
 52.9516  6223.25  79.4047
 52.9936  6100.56  78.9997
 53.0356  6191.7  78.614
 53.0776  6051.24  77.9927
 53.1196  6059.4  78.1443
 53.1616  6112.99  78.533
 53.2036  5952.57  77.4527
 53.2456  6045.72  78.157
 53.2876  6035.74  77.8067
 53.3296  6136.96  78.7697
 53.3716  6130.08  78.4776
 53.4136  6081.93  78.3195
 53.4556  6049.4  78.1372
 53.4976  5937.02  77.2631
 53.5396  6048.43  78.3623
 53.5816  6060.16  78.0869
 53.6236  6040.08  78.2837
 53.6656  6065.24  78.0886
 53.7076  6019.84  77.7592
 53.7496  6090.89  78.3293
 53.7916  6066.9  78.3062
 53.8336  5897.83  77.1056
 53.8756  5920.23  77.7816
 53.9176  6023.6  77.8227
 53.9596  6061.12  78.811
 54.0016  6005.59  77.8038
 54.0436  5983.13  77.8635
 54.0856  6111.96  78.1383
 54.1276  5938.3  77.2118
 54.1696  5991.45  77.725
 54.2116  6046.95  77.8467
 54.2536  6065.89  77.7915
 54.2956  6045.19  77.7019
 54.3376  6015.83  77.9847
 54.3796  5998.53  77.773
 54.4216  6132.19  78.6827
 54.4636  5999.5  77.7903
 54.5056  6110.16  78.3276
 54.5476  5976.64  77.789
 54.5896  5988.36  77.707
 54.6316  5955.08  77.3481
 54.6736  6004.05  77.689
 54.7156  5975.65  77.5789
 54.7576  5961.78  77.4822
 54.7996  6042.78  78.1387
 54.8416  6016.95  78.0131
 54.8836  5920.44  77.5028
 54.9256  6046.94  78.0805
 54.9676  6031.98  77.8402
 55.0096  5924.2  77.2093
 55.0516  5987.67  77.7881
 55.0936  5998.9  77.5542
 55.1356  6049.47  77.9317
 55.1776  5905.99  77.2623
 55.2196  6003.69  77.685
 55.2616  5983.63  77.7659
 55.3036  5813.57  76.8069
 55.3456  5991.82  78.1193
 55.3876  5911.53  77.3474
 55.4296  5992.96  77.8527
 55.4716  5990.43  77.8719
 55.5136  5962.65  77.4524
 55.5556  5937.12  77.3561
 55.5976  5957.46  77.5324
 55.6396  5933.37  77.3371
 55.6816  5926.81  77.1759
 55.7236  5961.03  77.538
 55.7656  6054.04  77.8022
 55.8076  5992.59  77.3917
 55.8496  5842.36  76.7223
 55.8916  5874.83  77.099
 55.9336  5871.07  76.9288
 55.9756  5891.68  76.9523
 56.0176  5864.46  76.9281
 56.0596  5881.93  77.0192
 56.1016  5973.78  77.6631
 56.1436  5878.94  77.2741
 56.1856  5913.86  77.2506
 56.2276  5917.73  77.3285
 56.2696  5939.06  77.4377
 56.3116  5824.68  77.0771
 56.3536  5894.47  77.21
 56.3956  5909.76  77.2997
 56.4376  5967.01  77.7052
 56.4796  5957.26  77.4479
 56.5216  5928.58  77.619
 56.5636  6035.33  77.9215
 56.6056  5853.88  76.9665
 56.6476  5952.43  77.2442
 56.6896  5869.03  77.1381
 56.7316  5940.82  77.5262
 56.7736  5965.85  77.6779
 56.8156  6021.51  78.0461
 56.8576  5883.85  77.0871
 56.8996  5942.05  77.4076
 56.9416  5937.53  77.5373
 56.9836  5793.43  76.2571
 57.0256  5879.03  77.1271
 57.0676  5800.11  76.7284
 57.1096  5964.46  77.5964
 57.1516  5905.99  77.2405
 57.1936  5823.06  76.4883
 57.2356  5889.25  77.2302
 57.2776  5984.87  77.8193
 57.3196  5894.17  77.5855
 57.3616  5868.22  76.9218
 57.4036  5943.98  77.4767
 57.4456  5829.76  76.6974
 57.4876  5895.8  76.9971
 57.5296  5835.06  76.8266
 57.5716  5816.1  76.7887
 57.6136  5876.8  77.0126
 57.6556  5887.5  77.2128
 57.6976  5928.56  77.3052
 57.7396  5792.64  76.7853
 57.7816  5746.53  76.8225
 57.8236  5782.02  76.864
 57.8656  6020.05  78.0838
 57.9076  5784.68  76.5753
 57.9496  5866.61  77.4523
 57.9916  5888.36  77.0788
 58.0336  5793.2  76.7682
 58.0756  5772.36  76.2606
 58.1176  5819.57  76.5838
 58.1596  5807.21  77.0559
 58.2016  5902.58  76.9396
 58.2436  5826.99  76.8322
 58.2856  5856.81  76.9505
 58.3276  5817.98  77.0579
 58.3696  5849.43  77.0198
 58.4116  5886.92  77.1334
 58.4536  5972.72  77.5789
 58.4956  5742.37  76.246
 58.5376  5964.9  77.2851
 58.5796  5853.26  76.9743
 58.6216  5975.93  77.5953
 58.6636  5897.63  77.2951
 58.7056  5905.75  77.2057
 58.7476  5916.01  77.7125
 58.7896  5848.64  76.9204
 58.8316  5917.4  77.3649
 58.8736  5886.54  77.1657
 58.9156  5877.93  77.1595
 58.9576  6023.42  78.3136
 58.9996  5969.33  77.3287
 59.0416  6000.23  77.886
 59.0836  5903.21  77.171
 59.1256  5887.32  77.4567
 59.1676  5813.37  77.5735
 59.2096  5930.77  77.6781
 59.2516  5971.83  77.5299
 59.2936  6031.24  78.2425
 59.3356  5871.24  77.0772
 59.3776  5959.1  77.8196
 59.4196  5860.09  77.1059
 59.4616  5857.72  76.9538
 59.5036  5870.69  77.0739
 59.5456  6011.16  77.6846
 59.5876  5978.79  77.6652
 59.6296  5802.97  76.5826
 59.6716  6000.85  77.9352
 59.7136  5935.45  77.4977
 59.7556  5936.45  77.6395
 59.7976  5895.44  77.1161
 59.8396  5888.58  76.9668
 59.8816  5775.52  76.7576
 59.9236  6049.06  78.1978
 59.9656  5815.82  76.9305
 60.0076  5958.79  77.2327
 60.0496  5925.89  77.5171
 60.0916  5880.68  76.6478
 60.1336  5732.1  76.7521
 60.1756  5879.01  78.8979
 60.1996  0.0000000E+00  0.0000000E+00