File: docs/examples/opeando_xrd/IS17_D/Data/IS17_D/17_Da_f00075.xye
# /beamlines/bl04/projects/cycle2025-II/20250340211-lsimonelli/DATA/IS17_D/17_Da_f00075.xye : mythproc.py merge -s 0.006 -l 0.5 -f /beamlines/bl04/inhouse/ff/FlatField/ff_20Nov2024rod8mm60s_17keV.raw -b True -c true -o xye /beamlines/bl04/projects/cycle2025-II/20250340211-lsimonelli/DATA/IS17_D/17_Da_00075.dat
# IsMon = [6771702, 6776264, 6776985]  IsPos = [-1.4999, -2.4884, -3.4988]
# Wave = 0.4962  CalPath /beamlines/bl04/projects/cycle2025-II/20250340211-lsimonelli/DATA/Align/Si_Pos1_25keV_f00001.cal
# Date = 2025-09-24_14:25:42 Dt = 4.8000  Bin = 0.0060  <imon> = 6774984 +/- 2339 (Min/Max) 6771702 / 6776985
# icurr 251.2859  mocoIn 1.7137E-05  mocoOut 0.8037  i15 7.09088e+06  imon 6.77498e+06  i7 6.6667  iEMpd_timer 4.8000  iEMpd_1 3.3349E-08  iEMpd_2 7.9008E-08  iEMpd_3 1.6702E-08  iEMpd_4 4.6793E-08  iEMhp_timer 4.8000  iEMhp_1 4.9082E-06  iEMhp_2 -2.5360E-08  iEMhp_3 -2.5340E-08  iEMhp_4 -2.1713E-08
#      9776
 1.5856  39417.7  203.917
 1.6276  46099.7  216.741
 1.6696  52333.3  230.116
 1.7116  60938.6  248.801
 1.7536  70235.8  265.969
 1.7956  74924  275.389
 1.8376  71080.7  268.658
 1.8796  59646.5  244.276
 1.9216  47877.5  219.74
 1.9636  40439.8  201.125
 2.0056  36350.2  189.945
 2.0476  33111.1  183.272
 2.0896  31871.4  178.754
 2.1316  31461.3  176.746
 2.1736  29749.5  173.234
 2.2156  30164.3  173.038
 2.2576  29068.3  170.475
 2.2996  27979.3  167.864
 2.3416  28448.4  167.915
 2.3836  27836.5  166.201
 2.4256  27270.1  165.038
 2.4676  26848.1  163.523
 2.5096  27062.5  164.229
 2.5516  34217.8  188.927
 2.5936  163541  404.658
 2.6356  29503.3  172.602
 2.6776  25939.4  160.746
 2.7196  25075.5  158.55
 2.7616  25028.7  158.184
 2.8036  24267.3  155.923
 2.8456  24361.6  156.827
 2.8876  23906.5  155.228
 2.9296  23437  153.824
 2.9716  23316.3  152.935
 3.0136  23118  152.349
 3.0556  22932.8  152.124
 3.0976  23045.1  151.462
 3.1396  22789.7  151.31
 3.1816  22516.9  150.338
 3.2236  22471.3  150.18
 3.2656  22546  149.486
 3.3076  22146.4  149.574
 3.3496  22599.6  150.052
 3.3916  22835.4  150.673
 3.4336  23333  152.871
 3.4756  23718  154.065
 3.5176  24532.2  156.47
 3.5596  24484.5  158.7
 3.6016  24628.6  156.826
 3.6436  23798.8  155.231
 3.6856  23375.6  152.184
 3.7276  22415.7  150.091
 3.7696  22198.9  149.551
 3.8116  21935.3  148.551
 3.8536  21996.4  148.695
 3.8956  22040.1  148.672
 3.9376  22989.8  152.094
 3.9796  21928.4  148.059
 4.0216  21913.2  147.062
 4.0636  21915.9  148.52
 4.1056  21962  148.318
 4.1476  22129.8  149.202
 4.1896  22253.8  149.48
 4.2316  22505  150.152
 4.2736  22943.1  151.393
 4.3156  23110.9  152.161
 4.3576  24026.7  155.082
 4.3996  24221.7  155.962
 4.4416  24891.9  157.699
 4.4836  26385.1  162.509
 4.5256  25960.7  161.818
 4.5676  25678.1  161.177
 4.6096  26086  161.138
 4.6516  26818.8  163.088
 4.6936  26703.1  163.531
 4.7356  28101.4  167.594
 4.7776  26915.3  163.844
 4.8196  26381.7  162.865
 4.8616  26031.4  161.262
 4.9036  25851.3  160.463
 4.9456  26244.9  162.315
 4.9876  25360.9  159.462
 5.0296  25350.9  159.248
 5.0716  25125.3  159.296
 5.1136  25476.3  160.122
 5.1556  25912.9  160.953
 5.1976  36850.2  191.942
 5.2396  26454.2  162.329
 5.2816  26258.7  162.189
 5.3236  26328.8  162.108
 5.3656  25805.9  161.395
 5.4076  25570.4  160.806
 5.4496  25704.8  160.715
 5.4916  25643.9  160.292
 5.5336  25823.2  160.851
 5.5756  25662.1  160.394
 5.6176  25794.8  160.242
 5.6596  25888.4  161.497
 5.7016  25978.3  161.05
 5.7436  26434.8  162.731
 5.7856  26052.9  161.61
 5.8276  26682.4  163.267
 5.8696  26845.8  163.941
 5.9116  26601.8  163.789
 5.9536  26864.2  164.358
 5.9956  27092.4  164.418
 6.0376  27174.3  165.296
 6.0796  27370.1  165.727
 6.1216  27475.1  166.236
 6.1636  27909  166.624
 6.2056  27871.6  167.163
 6.2476  27898.8  167.125
 6.2896  28162.5  167.599
 6.3316  27912.5  167.031
 6.3736  28083.4  167.429
 6.4156  28205.3  167.699
 6.4576  28508.6  168.198
 6.4996  28526  168.72
 6.5416  28455.7  168.653
 6.5836  29163.7  170.96
 6.6256  28646.4  169.015
 6.6676  29199  170.209
 6.7096  28951.7  170.334
 6.7516  29627.5  171.958
 6.7936  30742.7  174.585
 6.8356  31731.2  177.456
 6.8776  31009.6  176.226
 6.9196  30033.3  173.831
 6.9616  30699.2  175.191
 7.0036  31061  175.88
 7.0456  31040  175.126
 7.0876  30826.5  176.185
 7.1296  30890.9  175.52
 7.1716  30941.6  175.21
 7.2136  30850.2  174.731
 7.2556  31021.8  175.378
 7.2976  31406.7  176.958
 7.3396  30962.8  175.906
 7.3816  31058.7  176.399
 7.4236  31280.5  176.322
 7.4656  31485.5  176.392
 7.5076  31785.3  177.362
 7.5496  31705.4  177.668
 7.5916  31578.2  177.348
 7.6336  32476  179.748
 7.6756  32307.1  179.129
 7.7176  32565.4  180.156
 7.7596  32495.7  181.194
 7.8016  39010.6  200.913
 7.8436  33620.5  183.156
 7.8856  33754.7  183.137
 7.9276  34477.8  185.48
 7.9696  34369.1  185.5
 8.0116  35511.9  187.093
 8.0536  36118.5  188.944
 8.0956  39608.2  199.093
 8.1376  36318.5  190.121
 8.1796  36257.9  190.505
 8.2216  37621.5  192.782
 8.2636  39046.9  196.655
 8.3056  37795.1  194.254
 8.3476  40201.4  199.65
 8.3896  38870.4  196.4
 8.4316  37850.1  193.968
 8.4736  38145.6  194.184
 8.5156  37616.8  193.111
 8.5576  37516.7  193.838
 8.5996  37213  191.915
 8.6416  37391.1  193.646
 8.6836  37214  193.016
 8.7256  37839.6  194.069
 8.7676  40937.6  204.931
 8.8096  40752.4  201.668
 8.8516  37298.1  192.526
 8.8936  40450.1  200.378
 8.9356  36802.4  191.478
 8.9776  36984.6  192.053
 9.0196  36331.4  190.029
 9.0616  36995.6  191.208
 9.1036  40109.7  200.358
 9.1456  36734.5  191.079
 9.1876  35992.3  189.102
 9.2296  36030.5  188.599
 9.2716  34803.7  185.432
 9.3136  35669.8  187.695
 9.3556  35691.3  187.741
 9.3976  33991  183.75
 9.4396  34586.2  185.241
 9.4816  34046.7  183.658
 9.5236  34236.4  184.069
 9.5656  33947.5  183.612
 9.6076  33580  183.134
 9.6496  33353.2  182.449
 9.6916  33686.9  183.322
 9.7336  33564.8  182.777
 9.7756  33727.7  184.463
 9.8176  33015  182.021
 9.8596  32791.8  179.86
 9.9016  32382.5  178.727
 9.9436  32411.2  178.72
 9.9856  32642  179.581
 10.0276  31786.4  178.312
 10.0696  31744.1  177.242
 10.1116  31410.8  176.572
 10.1536  31079.4  175.804
 10.1956  30334.5  173.286
 10.2376  30021.1  171.907
 10.2796  29719.3  171.155
 10.3216  29785  171.609
 10.3636  29746.5  171.526
 10.4056  33660.1  182.885
 10.4476  33829.9  182.949
 10.4896  38655.1  194.94
 10.5316  36084.2  189.139
 10.5736  30230.2  173.532
 10.6156  29644.9  171.615
 10.6576  37085.9  190.312
 10.6996  29864.5  171.461
 10.7416  28491.4  167.71
 10.7836  30092.7  173.059
 10.8256  27874.4  166.993
 10.8676  28078.1  167.129
 10.9096  27972.6  166.864
 10.9516  27320.9  163.832
 10.9936  28360.8  167.123
 11.0356  28023.3  166.775
 11.0776  29823.7  171.33
 11.1196  29593  171.443
 11.1616  27005.5  163.466
 11.2036  28777.2  168.591
 11.2456  30876.4  175.4
 11.2876  26574.4  162.458
 11.3296  26820.5  163.086
 11.3716  27302.6  164.247
 11.4136  26494.8  162.696
 11.4556  27023.1  163.966
 11.4976  28575.9  167.55
 11.5396  28172.1  166.52
 11.5816  26392.3  161.647
 11.6236  25694.9  159.705
 11.6656  25863  159.405
 11.7076  25142.4  157.991
 11.7496  25894.8  164.292
 11.7916  26042.7  160.044
 11.8336  24903.3  157.382
 11.8756  25777.2  159.656
 11.9176  25011.8  156.92
 11.9596  24603.5  155.831
 12.0016  24545.5  156.43
 12.0436  24342.2  155.217
 12.0856  24083.9  154.903
 12.1276  24295.8  155.497
 12.1696  24316.7  154.703
 12.2116  24966  156.744
 12.2536  28211.2  167.525
 12.2956  25011.3  157.053
 12.3376  24508.4  155.691
 12.3796  24568.6  156.339
 12.4216  24355.4  154.872
 12.4636  25930.9  160.746
 12.5056  23971.5  153.837
 12.5476  24135.1  153.89
 12.5896  24017.7  154.129
 12.6316  23546.7  152.793
 12.6736  23655.5  153.618
 12.7156  24161.2  155.119
 12.7576  23855.7  154.368
 12.7996  24035  153.596
 12.8416  24463.1  156.02
 12.8836  25523.1  159.18
 12.9256  24778.7  155.851
 12.9676  24871.8  156.57
 13.0096  24314.4  155.912
 13.0516  24463.3  155.423
 13.0936  24276.5  155.23
 13.1356  24696  155.546
 13.1776  24773.9  156.775
 13.2196  24449.7  155.417
 13.2616  24329.7  155.333
 13.3036  24203.8  154.912
 13.3456  24355.4  155.74
 13.3876  24713.5  156.189
 13.4296  24573.6  155.885
 13.4716  24841.6  156.345
 13.5136  24482.5  155.356
 13.5556  24796.1  156.963
 13.5976  24381.2  155.789
 13.6396  24966.7  157.018
 13.6816  24346.8  155.549
 13.7236  25336.6  158.317
 13.7656  24562  156.424
 13.8076  25861.6  159.252
 13.8496  24409  155.324
 13.8916  24399.5  156.287
 13.9336  24091.2  154.527
 13.9756  23987  153.544
 14.0176  24250.8  155.072
 14.0596  25443.9  158.81
 14.1016  23716.7  153.715
 14.1436  23439.4  151.963
 14.1856  23296.7  151.784
 14.2276  23270  152.182
 14.2696  23731.5  153.521
 14.3116  23001.5  151.036
 14.3536  22429.1  149.327
 14.3956  22482.3  149.231
 14.4376  22667.7  149.63
 14.4796  22401.7  148.736
 14.5216  22252.4  149.037
 14.5636  22809.5  150.458
 14.6056  22152.1  147.85
 14.6476  21941.2  146.378
 14.6896  21676.9  146.03
 14.7316  21358.7  145.984
 14.7736  21113.9  144.291
 14.8156  21207.3  144.649
 14.8576  20912  143.485
 14.8996  20851  144.486
 14.9416  20252.9  142.394
 14.9836  20643.1  143.715
 15.0256  20522.5  142.213
 15.0676  20170.7  141.302
 15.1096  20101.7  140.798
 15.1516  19657.2  139.787
 15.1936  19612.3  139.056
 15.2356  19640.5  139.437
 15.2776  19462.2  138.387
 15.3196  19460.6  139.392
 15.3616  19066.5  137.727
 15.4036  18818.9  136.685
 15.4456  19476.9  138.707
 15.4876  19017.3  136.739
 15.5296  18844.1  136.402
 15.5716  18280.4  133.945
 15.6136  18263  134.211
 15.6556  21309.9  144.159
 15.6976  18873.1  135.967
 15.7396  18655.1  135.572
 15.7816  18397.4  134.139
 15.8236  17955.6  133.217
 15.8656  17983  133.109
 15.9076  17860.5  132.482
 15.9496  18767.2  138.697
 15.9916  17520.9  134.446
 16.0336  17263.2  130.373
 16.0756  17488.2  131.521
 16.1176  17154.2  130.328
 16.1596  16935.4  130.668
 16.2016  17042.1  129.826
 16.2436  16878.1  129.59
 16.2856  16964.5  129.463
 16.3276  16272.4  127.203
 16.3696  16602.7  128.305
 16.4116  16321.9  127.678
 16.4536  16603.7  128.561
 16.4956  17490.4  131.679
 16.5376  16794.8  129.219
 16.5796  16570.1  127.71
 16.6216  16375.3  127.265
 16.6636  16615.6  128.344
 16.7056  16336.1  127.133
 16.7476  16472.8  127.188
 16.7896  16498.9  128.045
 16.8316  16202  126.846
 16.8736  16745.1  129.229
 16.9156  16588.1  128.952
 16.9576  16076.7  127.744
 16.9996  16335.8  129.261
 17.0416  16007.7  126.318
 17.0836  15878.7  125.574
 17.1256  15846  125.459
 17.1676  16512  128.061
 17.2096  16051.4  126.138
 17.2516  15665.2  124.396
 17.2936  15512.1  124.091
 17.3356  15183.4  122.799
 17.3776  15184.8  122.98
 17.4196  15456.9  123.77
 17.4616  15431.3  123.591
 17.5036  16466.7  128.024
 17.5456  15016.6  122.918
 17.5876  15027.7  122.015
 17.6296  15017  121.789
 17.6716  15173.1  123
 17.7136  16093.6  126.826
 17.7556  15083  123.066
 17.7976  15424.7  124.192
 17.8396  15190.1  122.735
 17.8816  14661.5  121.123
 17.9236  14613.2  120.734
 17.9656  15045.9  123.04
 18.0076  15709.1  125.295
 18.0496  16486.7  127.442
 18.0916  22145.1  148.361
 18.1336  19041.8  137.678
 18.1756  16374.4  127.176
 18.2176  16469.3  127.795
 18.2596  14974.7  121.585
 18.3016  15789.7  125.114
 18.3436  16313  127.172
 18.3856  15181.9  122.826
 18.4276  15087.7  122.105
 18.4696  15209.8  122.705
 18.5116  15258.8  123.195
 18.5536  14852.2  121.905
 18.5956  14926  121.751
 18.6376  15017.7  122.541
 18.6796  14653.8  120.355
 18.7216  14925.6  121.967
 18.7636  14480.9  120.14
 18.8056  14168.8  118.771
 18.8476  14005.3  118.696
 18.8896  14003.4  118.035
 18.9316  14465.4  119.95
 18.9736  14139.6  118.286
 19.0156  14730.4  121.146
 19.0576  14670.7  119.756
 19.0996  14286.7  118.887
 19.1416  14252.4  119.142
 19.1836  13948.1  117.462
 19.2256  13722.3  116.717
 19.2676  13903.7  117.574
 19.3096  14091.3  118.607
 19.3516  13909.4  117.804
 19.3936  14158.3  118.753
 19.4356  13961.4  117.803
 19.4776  14158.5  118.725
 19.5196  13982.3  117.837
 19.5616  14052.7  118.388
 19.6036  13996.5  117.638
 19.6456  14139.4  118.367
 19.6876  14712.8  120.377
 19.7296  14106.1  118.336
 19.7716  14041.4  118.22
 19.8136  14298.7  119.517
 19.8556  14589.5  120.191
 19.8976  14980.2  121.856
 19.9396  14505.1  119.482
 19.9816  14603.7  120.124
 20.0236  14931.5  121.693
 20.0656  14107.3  118.275
 20.1076  13560.2  116.421
 20.1496  13549.6  116.381
 20.1916  13772.3  116.856
 20.2336  13705.7  116.501
 20.2756  13341.1  115.364
 20.3176  13329.9  115.067
 20.3596  13554.4  116.004
 20.4016  13477.6  115.482
 20.4436  13501  116.129
 20.4856  13243.9  114.827
 20.5276  13385.8  115.894
 20.5696  13275.2  114.882
 20.6116  13188.5  114.775
 20.6536  13319.8  114.852
 20.6956  13088.1  113.974
 20.7376  13162.1  114.518
 20.7796  13069.1  113.81
 20.8216  13357.8  114.763
 20.8636  13591.7  116.143
 20.9056  14902.4  121.559
 20.9476  13394.2  115.087
 20.9896  14553.5  119.819
 21.0316  13338  114.596
 21.0736  13848.2  117.306
 21.1156  13958.1  117.925
 21.1576  13528.7  116.152
 21.1996  13282.3  115.075
 21.2416  13107.3  114.15
 21.2836  13227.2  114.629
 21.3256  13052.1  113.957
 21.3676  13270.4  114.445
 21.4096  13549.4  115.959
 21.4516  12956.6  113.272
 21.4936  12903.1  113.29
 21.5356  13029.2  113.786
 21.5776  13104.5  113.949
 21.6196  13219.6  114.487
 21.6616  13168.1  114.346
 21.7036  12942.9  113.148
 21.7456  12841.6  112.778
 21.7876  12701.9  111.913
 21.8296  12515.6  110.946
 21.8716  12637  111.717
 21.9136  12897.9  113.059
 21.9556  13296.4  114.464
 21.9976  12920.7  112.852
 22.0396  12698.4  112.135
 22.0816  12937  113.715
 22.1236  13173.8  114.204
 22.1656  12834.9  112.833
 22.2076  12862.1  112.432
 22.2496  12875.9  112.518
 22.2916  12928.7  112.623
 22.3336  12846.5  113.002
 22.3756  12883.6  112.883
 22.4176  12731.1  112.068
 22.4596  12570.4  111.945
 22.5016  12962.8  113.163
 22.5436  12809.4  112.377
 22.5856  12704.3  112.163
 22.6276  12691.9  112.246
 22.6696  12551.9  111.968
 22.7116  12557.7  111.515
 22.7536  12687.8  112.064
 22.7956  12812.7  111.937
 22.8376  12670.6  111.842
 22.8796  12508.6  110.928
 22.9216  12691.7  112.285
 22.9636  12593.6  111.002
 23.0056  12650.6  111.389
 23.0476  12738.1  112.341
 23.0896  13067.5  113.156
 23.1316  12965.1  113.156
 23.1736  12520.5  114.147
 23.2156  12455.9  111.237
 23.2576  12758.4  112.724
 23.2996  12541.6  111.546
 23.3416  12541.5  112.072
 23.3836  12476.7  111.018
 23.4256  12550.1  111.46
 23.4676  12709  111.847
 23.5096  12738  112.663
 23.5516  12440.1  110.627
 23.5936  12600.8  112.234
 23.6356  12861.8  113.065
 23.6776  12701.2  112.555
 23.7196  12437.5  110.95
 23.7616  12642  111.788
 23.8036  12491.5  111.18
 23.8456  12476.1  110.669
 23.8876  12369.1  110.548
 23.9296  12232.7  110.426
 23.9716  12396.7  110.353
 24.0136  12438.8  111.438
 24.0556  12302.8  110.568
 24.0976  12144.6  109.644
 24.1396  12225.1  112.669
 24.1816  12135  110.687
 24.2236  12162.1  110.422
 24.2656  12205.9  110.091
 24.3076  12271.5  110.642
 24.3496  12445.9  111.307
 24.3916  12400.6  111.16
 24.4336  11968.6  109.415
 24.4756  12167.2  110.185
 24.5176  11887  108.559
 24.5596  11851.2  108.522
 24.6016  11865.7  108.876
 24.6436  11884  108.454
 24.6856  11937.9  108.454
 24.7276  11899.1  108.592
 24.7696  11740.1  107.983
 24.8116  12009.1  109.391
 24.8536  11601.8  107.519
 24.8956  11573.7  107.128
 24.9376  11639.1  107.368
 24.9796  11510.7  107.13
 25.0216  11485.3  107.128
 25.0636  11732.4  107.916
 25.1056  11475  107.438
 25.1476  11429.6  108.893
 25.1896  11470.2  107.545
 25.2316  11489.3  106.901
 25.2736  11551.9  106.842
 25.3156  11211.7  105.333
 25.3576  11204.9  105.716
 25.3996  11278.8  106.06
 25.4416  11317.4  106.22
 25.4836  11206.5  106.225
 25.5256  11264.6  105.857
 25.5676  11402.9  106.229
 25.6096  11130.1  105.53
 25.6516  11185  105.286
 25.6936  11149.1  105.437
 25.7356  11047.8  105.084
 25.7776  11151.5  105.18
 25.8196  11154.7  105.433
 25.8616  11215.5  105.634
 25.9036  11340  105.692
 25.9456  11018.5  104.773
 25.9876  10920.4  104.371
 26.0296  11175.5  105.09
 26.0716  10981.9  104.608
 26.1136  11316.3  106.123
 26.1556  11486.5  106.284
 26.1976  10974.2  104.817
 26.2396  11110.8  104.615
 26.2816  11013.1  104.766
 26.3236  11093  105.301
 26.3656  11126.7  105.192
 26.4076  10838.5  104.029
 26.4496  11583.5  106.975
 26.4916  11093.8  104.73
 26.5336  10980.9  104.528
 26.5756  11129.5  105.103
 26.6176  11159.3  105.281
 26.6596  10820.5  103.987
 26.7016  10799  103.636
 26.7436  10595.1  102.789
 26.7856  10617.9  102.876
 26.8276  10697.6  103.219
 26.8696  10670.9  102.962
 26.9116  10720.7  103.142
 26.9536  10540.4  102.319
 26.9956  10476.7  102.038
 27.0376  10527.4  102.506
 27.0796  10565.5  102.422
 27.1216  10696.5  103.136
 27.1636  10462.2  102.161
 27.2056  10677.9  103.086
 27.2476  10559  102.512
 27.2896  10498.6  102.328
 27.3316  10469.7  101.901
 27.3736  10406.9  101.86
 27.4156  10221.1  100.797
 27.4576  10549  102.628
 27.4996  10483  101.907
 27.5416  10456  102.092
 27.5836  10432.5  101.787
 27.6256  10672.6  103.111
 27.6676  10608.5  102.83
 27.7096  10559.1  102.459
 27.7516  11316.2  106.224
 27.7936  10935.4  104.606
 27.8356  10807.2  103.59
 27.8776  10598.1  102.638
 27.9196  10528.2  102.135
 27.9616  10572.4  102.545
 28.0036  10428.9  101.825
 28.0456  10279.1  101.222
 28.0876  10185.7  100.853
 28.1296  10251.8  101.018
 28.1716  10157.5  100.569
 28.2136  10254.8  101.007
 28.2556  10099.2  100.358
 28.2976  10253.3  101.109
 28.3396  10300.2  101.095
 28.3816  10162.2  100.439
 28.4236  10468.6  102.094
 28.4656  10125.6  100.445
 28.5076  9912.32  99.0219
 28.5496  10095.5  100.195
 28.5916  9878.4  98.9203
 28.6336  9962.63  99.6876
 28.6756  10164.8  99.8839
 28.7176  9906.72  99.155
 28.7596  9820.11  98.62
 28.8016  9871.18  98.9067
 28.8436  9843.01  99.0112
 28.8856  9840.34  98.8458
 28.9276  9926.4  99.5184
 28.9696  9963.9  99.3628
 29.0116  9852.98  98.9963
 29.0536  9818.56  99.0293
 29.0956  9901.16  99.1622
 29.1376  9804.6  98.6391
 29.1796  9738.45  98.3519
 29.2216  9698.11  97.9866
 29.2636  9777.87  98.4655
 29.3056  9772.77  98.2311
 29.3476  9765.53  98.7193
 29.3896  9903.94  99.5078
 29.4316  9861.94  98.627
 29.4736  9759.89  98.1762
 29.5156  9977.6  99.1876
 29.5576  9840.83  99.253
 29.5996  9788.33  98.2408
 29.6416  9676.65  97.7985
 29.6836  9771.85  98.2054
 29.7256  9711.97  98.4678
 29.7676  9918.39  99.1661
 29.8096  9637.89  97.6953
 29.8516  9588.98  97.7797
 29.8936  9707.39  98.4797
 29.9356  9750.79  98.4507
 29.9776  9728.55  98.495
 30.0196  9837.77  98.4252
 30.0616  9811.4  98.6718
 30.1036  9647.55  97.6675
 30.1456  9479.97  97.0473
 30.1876  9580.34  97.5412
 30.2296  9555.99  97.3626
 30.2716  9675.18  97.6046
 30.3136  9548.92  97.8236
 30.3556  9553.43  97.8704
 30.3976  9522.41  99.2164
 30.4396  9729.05  97.6268
 30.4816  9648.61  96.8138
 30.5236  9542.11  96.3006
 30.5656  9552.88  97.0025
 30.6076  9683.86  97.0922
 30.6496  9594.95  97.0305
 30.6916  9481.71  96.5438
 30.7336  9509.29  96.841
 30.7756  9445.61  96.6096
 30.8176  9524.15  96.9252
 30.8596  9490.03  96.5203
 30.9016  9360.99  96.2013
 30.9436  9420.51  96.2606
 30.9856  9458.45  96.5674
 31.0276  9497.36  96.3719
 31.0696  9443.25  96.668
 31.1116  9398.9  96.4197
 31.1536  9610.37  97.376
 31.1956  9348.4  96.1308
 31.2376  9202.84  95.3814
 31.2796  9335.79  95.6137
 31.3216  9299.85  95.3715
 31.3636  9468.47  96.9274
 31.4056  9402  97.9073
 31.4476  9356.07  95.5558
 31.4896  9335.55  95.9568
 31.5316  9532.92  96.3478
 31.5736  10197.3  99.4583
 31.6156  9989.31  98.4683
 31.6576  9609.78  96.6845
 31.6996  9553.84  96.0662
 31.7416  9472.84  96.7324
 31.7836  9358.08  95.1552
 31.8256  9334.94  95.3155
 31.8676  9374.51  95.5075
 31.9096  9159.14  94.7598
 31.9516  9302.98  95.6633
 31.9936  9232.1  95.1156
 32.0356  9283.9  95.4558
 32.0776  9427.4  96.0738
 32.1196  9259.4  95.2967
 32.1616  9395.8  95.4562
 32.2036  8990.18  93.8845
 32.2456  9304.39  95.8916
 32.2876  9102  94.3397
 32.3296  9100.46  94.2958
 32.3716  9221.44  95.021
 32.4136  9206.28  95.1463
 32.4556  9350.62  95.2673
 32.4976  9350.5  95.1707
 32.5396  9021.15  93.5556
 32.5816  8990.42  93.5213
 32.6236  9023.56  93.7591
 32.6656  9143.25  94.9211
 32.7076  9072.21  94.2021
 32.7496  9027.63  93.6326
 32.7916  9171.8  94.3437
 32.8336  9081.15  93.9748
 32.8756  9070.98  93.6428
 32.9176  9081.78  94.1883
 32.9596  9028.12  93.9806
 33.0016  9115.99  94.2318
 33.0436  9182.64  94.7487
 33.0856  8968.47  93.7006
 33.1276  9024.55  93.7334
 33.1696  9089.65  93.91
 33.2116  9116.4  94.2722
 33.2536  8948.21  93.4097
 33.2956  9063.8  94.0897
 33.3376  8893.33  92.9429
 33.3796  9055.46  93.9881
 33.4216  9018.56  93.3955
 33.4636  8979.75  93.3415
 33.5056  8827.38  92.7838
 33.5476  8897.74  93.1513
 33.5896  8928.46  93.0848
 33.6316  8824.06  92.8521
 33.6736  8782.28  92.8724
 33.7156  8759.6  92.7994
 33.7576  8759.17  92.4142
 33.7996  9011.54  93.5095
 33.8416  8638.55  91.7316
 33.8836  8889.32  92.835
 33.9256  8835.61  92.6181
 33.9676  8982.07  93.2793
 34.0096  8709.31  92.1698
 34.0516  8698.89  91.7503
 34.0936  8712.65  92.0843
 34.1356  8778.2  92.1656
 34.1776  8679.39  91.6624
 34.2196  8669.33  91.7908
 34.2616  8742.68  92.3083
 34.3036  8600.94  91.8161
 34.3456  8688.12  92.0296
 34.3876  8653.6  91.8128
 34.4296  8689.85  91.6906
 34.4716  8873.67  92.802
 34.5136  8722.61  92.2183
 34.5556  8612.55  91.8812
 34.5976  8720.04  92.2526
 34.6396  8770.39  92.2369
 34.6816  8779.31  92.4002
 34.7236  8712.3  91.8277
 34.7656  8680.46  91.8567
 34.8076  8627.87  91.8988
 34.8496  8616.98  91.6939
 34.8916  8651.82  91.7549
 34.9336  8732.37  92.1415
 34.9756  8784.15  92.3362
 35.0176  8635.57  92.077
 35.0596  8555.72  91.4937
 35.1016  8515.64  91.0403
 35.1436  8605.97  91.2049
 35.1856  8482.83  90.6778
 35.2276  8611.34  91.5334
 35.2696  8711.07  92.256
 35.3116  8562.07  91.558
 35.3536  8598.34  91.4672
 35.3956  8514.58  90.725
 35.4376  8602.1  91.7536
 35.4796  8655.62  92.097
 35.5216  8533.7  91.403
 35.5636  8217.1  90.4242
 35.6056  8523.1  91.1023
 35.6476  8520.51  90.9897
 35.6896  8705.71  92.063
 35.7316  8486.59  90.8713
 35.7736  8511.56  91.2048
 35.8156  8450.69  90.8771
 35.8576  8601.11  91.9398
 35.8996  8618.18  91.9821
 35.9416  8614.76  91.4461
 35.9836  8451.66  90.9486
 36.0256  8527.1  91.3799
 36.0676  8493.75  90.9549
 36.1096  8341.14  90.2684
 36.1516  8445.84  90.7263
 36.1936  8416.75  90.415
 36.2356  8376.74  90.8445
 36.2776  8442.64  90.6769
 36.3196  8345.96  89.8289
 36.3616  8427.44  90.3976
 36.4036  8326.75  89.9145
 36.4456  8415.28  90.6022
 36.4876  8345.43  90.1626
 36.5296  8491.4  90.9816
 36.5716  8453.7  91.5762
 36.6136  8520.84  90.6875
 36.6556  8651.49  91.587
 36.6976  8553.53  91.572
 36.7396  8458.21  90.7862
 36.7816  8453.3  91.1403
 36.8236  8315.82  90.3188
 36.8656  8227.42  89.9135
 36.9076  8323.78  90.3108
 36.9496  8382.66  90.6181
 36.9916  8259.86  89.582
 37.0336  8430.18  90.8184
 37.0756  8457.97  90.7576
 37.1176  8223.15  89.758
 37.1596  8161.83  89.4291
 37.2016  8209.87  89.9186
 37.2436  8382.81  90.1715
 37.2856  8279.43  89.8711
 37.3276  8446.82  90.1139
 37.3696  8169.86  89.5095
 37.4116  8320.89  90.2345
 37.4536  8133.12  89.0819
 37.4956  8167.37  89.3156
 37.5376  8273.32  91.4623
 37.5796  8168.2  90.8379
 37.6216  8006.38  88.2144
 37.6636  8047.81  88.3511
 37.7056  8211.4  89.4311
 37.7476  8158.24  88.6788
 37.7896  8203.57  89.4214
 37.8316  7950.54  88.2089
 37.8736  8160.85  88.8819
 37.9156  8118.84  88.6608
 37.9576  8130.11  88.6101
 37.9996  8013.6  87.6811
 38.0416  7978.17  88.3083
 38.0836  8266.02  89.7842
 38.1256  8192.99  89.3335
 38.1676  8058.46  88.7505
 38.2096  8224.93  89.2852
 38.2516  8238.36  89.5537
 38.2936  8175.27  89.0176
 38.3356  8127.23  88.6654
 38.3776  7957.21  88.0095
 38.4196  8215.23  89.2722
 38.4616  8074.36  88.7468
 38.5036  8208.57  89.3192
 38.5456  8009.23  89.0627
 38.5876  8081.73  89.4905
 38.6296  8132.52  88.7459
 38.6716  7934.07  87.4463
 38.7136  7957.53  87.5238
 38.7556  7811.41  87.2183
 38.7976  7987.81  88.1296
 38.8396  7956.77  88.4123
 38.8816  7834  87.5073
 38.9236  7893.86  87.6586
 38.9656  7931.78  87.7824
 39.0076  7993.98  87.5313
 39.0496  7996.67  88.0811
 39.0916  7983.46  87.6594
 39.1336  8020.28  88.279
 39.1756  7977.09  88.1094
 39.2176  7974.28  88.622
 39.2596  7921.09  88.2504
 39.3016  7998.46  88.2431
 39.3436  7826.18  87.7191
 39.3856  7941.3  87.8087
 39.4276  8028.98  88.7967
 39.4696  7982.08  88.1541
 39.5116  7848.65  87.9316
 39.5536  8065.17  89.5546
 39.5956  8060.73  88.6225
 39.6376  8059.35  88.6208
 39.6796  7987.29  87.9583
 39.7216  8090.19  88.627
 39.7636  8040.87  88.9359
 39.8056  8088.22  88.9732
 39.8476  7910.44  88.2429
 39.8896  7898.7  87.8038
 39.9316  7911.31  88.1317
 39.9736  8050.11  88.4595
 40.0156  8025.2  88.1419
 40.0576  8087.46  88.8561
 40.0996  8078.07  87.981
 40.1416  8024.45  88.4865
 40.1836  8083.66  88.6972
 40.2256  8068.5  88.6646
 40.2676  7924.71  87.9754
 40.3096  8066.33  88.6815
 40.3516  8099.38  88.9696
 40.3936  8098.1  88.5246
 40.4356  8044.65  88.4269
 40.4776  8058.96  88.9193
 40.5196  8173.05  89.673
 40.5616  8135.86  89.1121
 40.6036  8076.56  89.0428
 40.6456  8145.46  89.0218
 40.6876  8163.13  89.1085
 40.7296  8159.21  89.2192
 40.7716  8036.58  88.6852
 40.8136  7947.05  88.1275
 40.8556  8022.52  88.6836
 40.8976  8031.03  88.6491
 40.9396  7948.54  88.5446
 40.9816  8181.05  89.1021
 41.0236  8043.12  88.1205
 41.0656  8114.48  89.058
 41.1076  7982.88  88.1004
 41.1496  8034.51  88.3013
 41.1916  8030.45  88.5992
 41.2336  7995.05  88.3971
 41.2756  7993.62  87.9905
 41.3176  8025.67  88.7921
 41.3596  8002.92  88.3924
 41.4016  7975.11  88.4946
 41.4436  8059.36  88.75
 41.4856  8119.9  89.2394
 41.5276  8056.82  88.9176
 41.5696  8048.68  88.4989
 41.6116  7964.89  88.4391
 41.6536  8007.17  88.5255
 41.6956  8055.54  88.853
 41.7376  8034.32  88.7636
 41.7796  7991.81  88.4035
 41.8216  8070.16  89.0768
 41.8636  8002.66  88.6377
 41.9056  7925.64  88.0007
 41.9476  8049.71  88.922
 41.9896  8034.58  88.5127
 42.0316  8053.27  88.6946
 42.0736  8005.69  88.5478
 42.1156  7984.97  88.265
 42.1576  7993.87  88.4035
 42.1996  7974.63  88.4492
 42.2416  8013.05  88.2367
 42.2836  7864.84  87.5338
 42.3256  7980.77  88.2936
 42.3676  7981.76  88.1045
 42.4096  7958.49  87.9354
 42.4516  7899.26  87.6973
 42.4936  7909.86  87.8231
 42.5356  7985.24  88.3733
 42.5776  7970.12  88.2284
 42.6196  8035.86  88.645
 42.6616  7805.15  87.5391
 42.7036  7953.55  87.7465
 42.7456  7885.03  87.7294
 42.7876  7861.98  87.6921
 42.8296  7915.75  87.8279
 42.8716  7854.24  87.6466
 42.9136  7842.5  87.3683
 42.9556  7985.06  88.2967
 42.9976  7899.45  87.7816
 43.0396  7880.59  87.4086
 43.0816  7859.67  87.6677
 43.1236  7901.78  87.9634
 43.1656  7794.95  87.1989
 43.2076  7782.53  87.2298
 43.2496  7789.7  87.0871
 43.2916  7817.73  87.6103
 43.3336  7916.85  88.0009
 43.3756  7845.45  87.3555
 43.4176  7768.68  87.0103
 43.4596  7752.63  86.7755
 43.5016  7758.96  87.2178
 43.5436  7716.32  86.8725
 43.5856  7677.14  86.6798
 43.6276  7743.91  86.9537
 43.6696  7707.6  87.0054
 43.7116  7779.17  86.9029
 43.7536  7861.16  87.8584
 43.7956  7628.94  87.7474
 43.8376  7815.81  87.3277
 43.8796  7737.81  86.9688
 43.9216  7680.01  86.5613
 43.9636  7710.62  86.8435
 44.0056  7594.82  86.4167
 44.0476  7635.99  86.2819
 44.0896  7609.22  86.4745
 44.1316  7664.87  86.3107
 44.1736  7631.12  86.2455
 44.2156  7796.46  87.0268
 44.2576  7669.69  86.645
 44.2996  7675.54  86.6439
 44.3416  7674.4  86.3989
 44.3836  7439.46  85.3913
 44.4256  7501.95  85.3937
 44.4676  7504.83  85.565
 44.5096  7491.43  85.6327
 44.5516  7444.49  85.3284
 44.5936  7518.54  85.7073
 44.6356  7495.99  85.3189
 44.6776  7610.45  86.2886
 44.7196  7517.95  86.0695
 44.7616  7543.98  87.5536
 44.8036  7417.02  85.2481
 44.8456  7574.68  86.3563
 44.8876  7450.66  85.4996
 44.9296  7524.77  85.3788
 44.9716  7466.79  85.4608
 45.0136  7592.59  86.1295
 45.0556  7539.17  85.8034
 45.0976  7505.48  85.7732
 45.1396  7315.97  84.4408
 45.1816  7397.81  84.8458
 45.2236  7613.29  85.9755
 45.2656  7465.63  85.6264
 45.3076  7406.14  85.0836
 45.3496  7376.23  85.2078
 45.3916  7269.86  84.8593
 45.4336  7381.72  85.3599
 45.4756  7417.29  85.4228
 45.5176  7382.18  84.8343
 45.5596  7464.06  85.4221
 45.6016  7360.03  85.243
 45.6436  7395.76  84.6287
 45.6856  7380.02  85.1934
 45.7276  7276.5  85.9053
 45.7696  7435.62  86.4978
 45.8116  7511.07  86.3762
 45.8536  7352.99  85.3589
 45.8956  7398.04  84.9713
 45.9376  7336.64  84.089
 45.9796  7346.63  84.8248
 46.0216  7412.33  85.5455
 46.0636  7437.41  84.8363
 46.1056  7459.74  84.9504
 46.1476  7437.39  85.4174
 46.1896  7338.85  84.9992
 46.2316  7326.5  84.7928
 46.2736  7172.84  84.265
 46.3156  7427.45  85.333
 46.3576  7341.99  85.0442
 46.3996  7365.61  85.3383
 46.4416  7337.02  84.7437
 46.4836  7330.65  85.0713
 46.5256  7443.18  85.6594
 46.5676  7359.19  85.2853
 46.6096  7383.03  85.3603
 46.6516  7294.45  83.8958
 46.6936  7431.76  85.1663
 46.7356  7286.28  84.4485
 46.7776  7281.1  85.2481
 46.8196  7222.15  84.4996
 46.8616  7130.64  83.9004
 46.9036  7187.56  83.8941
 46.9456  7159.73  83.3823
 46.9876  7287.06  84.2027
 47.0296  7260.26  84.7363
 47.0716  7119.13  83.735
 47.1136  7112.76  83.3846
 47.1556  7169.12  83.5802
 47.1976  7289.29  84.3563
 47.2396  7179.21  84.1077
 47.2816  7093.25  83.31
 47.3236  7253.46  84.6137
 47.3656  7220.31  84.351
 47.4076  7051.3  83.1651
 47.4496  7172.7  83.9636
 47.4916  7095.26  83.709
 47.5336  7142.65  83.8063
 47.5756  7278.12  84.7061
 47.6176  7142.44  83.8179
 47.6596  7054.97  83.0156
 47.7016  7290.17  84.2133
 47.7436  7171.64  83.8542
 47.7856  7202.1  84.0585
 47.8276  7080.38  83.4002
 47.8696  7097.81  83.5874
 47.9116  7116.03  83.4058
 47.9536  7152.62  83.559
 47.9956  7048.43  83.6527
 48.0376  6949.2  82.8374
 48.0796  7065.5  83.6545
 48.1216  7172.62  84.1083
 48.1636  7249.65  84.1367
 48.2056  7144.32  83.7809
 48.2476  7119.82  83.9454
 48.2896  7134.89  83.9455
 48.3316  7104.69  83.7094
 48.3736  7020.57  83.2376
 48.4156  6976  82.8206
 48.4576  7006.26  83.2937
 48.4996  7102.95  83.3226
 48.5416  7157.6  83.9719
 48.5836  6969.75  82.5397
 48.6256  7084.17  83.4199
 48.6676  6963.43  83.2154
 48.7096  7077.89  83.1672
 48.7516  7022.44  82.9902
 48.7936  6911.33  82.3878
 48.8356  6980.11  82.8495
 48.8776  7036.99  83.7488
 48.9196  7153.81  83.8211
 48.9616  6992.1  83.2413
 49.0036  7011.98  83.7089
 49.0456  7022.22  83.7413
 49.0876  7048.51  83.4399
 49.1296  6896.21  82.6869
 49.1716  6843.84  82.2489
 49.2136  6998.98  83.1051
 49.2556  6930.28  82.7274
 49.2976  7002.15  83.2326
 49.3396  6913.56  82.7521
 49.3816  7026.44  82.8694
 49.4236  6953.68  82.846
 49.4656  6876.2  82.4029
 49.5076  6936.01  82.5105
 49.5496  6911.13  82.425
 49.5916  6968.43  82.6852
 49.6336  6965.68  82.8782
 49.6756  6961.28  83.0811
 49.7176  6847.69  82.3407
 49.7596  6906.65  82.4629
 49.8016  6927.18  82.5061
 49.8436  6846.79  82.316
 49.8856  6984.05  83.1464
 49.9276  6795.23  82.1106
 49.9696  6857.49  82.4714
 50.0116  6828.17  82.4256
 50.0536  6797.64  82.1857
 50.0956  6898.35  82.8659
 50.1376  6941.34  82.8252
 50.1796  6788.06  82.169
 50.2216  6822.35  82.3674
 50.2636  6770.85  81.6809
 50.3056  6810.89  82.0905
 50.3476  6790.54  81.9862
 50.3896  6750.2  81.7237
 50.4316  6869.38  82.2772
 50.4736  6661.81  81.2354
 50.5156  6886.55  82.5852
 50.5576  6827.14  81.9946
 50.5996  6735.98  81.7212
 50.6416  6779.02  81.9151
 50.6836  6692.55  81.4512
 50.7256  6905.89  82.6532
 50.7676  6759.43  82.0979
 50.8096  6697.41  81.2627
 50.8516  6630.8  81.2586
 50.8936  6714.58  81.5534
 50.9356  6901.81  82.7892
 50.9776  6818.12  82.4378
 51.0196  6534.05  80.8257
 51.0616  6666.25  80.9723
 51.1036  6727.62  81.695
 51.1456  6766.19  81.8449
 51.1876  6768.81  81.2053
 51.2296  6631.02  81.0007
 51.2716  6669.88  80.9451
 51.3136  6659.52  81.3273
 51.3556  6640.61  80.8482
 51.3976  6708.24  81.4101
 51.4396  6466.43  80.2297
 51.4816  6644.24  81.1804
 51.5236  6617.34  81.0965
 51.5656  6649.24  80.8999
 51.6076  6566.25  80.4742
 51.6496  6592.56  80.8225
 51.6916  6589.39  81.1583
 51.7336  6555.96  81.0402
 51.7756  6623.29  81.1591
 51.8176  6586.8  81.039
 51.8596  6733.18  81.9489
 51.9016  6685.77  81.2678
 51.9436  6585.43  82.1127
 51.9856  6532.79  82.2075
 52.0276  6492.39  80.4866
 52.0696  6620.56  81.3483
 52.1116  6573.11  81.1656
 52.1536  6617.24  81.3288
 52.1956  6586.58  80.5992
 52.2376  6660.77  81.2281
 52.2796  6556.9  80.3929
 52.3216  6374.78  79.9638
 52.3636  6563.8  80.7201
 52.4056  6461.72  79.9461
 52.4476  6557.51  80.9046
 52.4896  6468.32  80.4026
 52.5316  6547.51  80.941
 52.5736  6448.36  80.0378
 52.6156  6465.87  80.5287
 52.6576  6552.55  80.514
 52.6996  6395.82  80.5052
 52.7416  6520.06  81.1375
 52.7836  6566.65  81.287
 52.8256  6542.29  80.3962
 52.8676  6528.33  80.8709
 52.9096  6488.89  80.713
 52.9516  6476.11  80.9952
 52.9936  6420.46  81.0453
 53.0356  6446.31  80.2191
 53.0776  6353.6  79.8981
 53.1196  6414.76  80.4071
 53.1616  6440.05  80.6141
 53.2036  6305.88  79.7219
 53.2456  6262.76  79.5541
 53.2876  6294.52  79.4636
 53.3296  6293.31  79.777
 53.3716  6354.19  79.9146
 53.4136  6363.09  80.1059
 53.4556  6319.31  79.8693
 53.4976  6258.11  79.3299
 53.5396  6282.72  79.8667
 53.5816  6367.42  80.0428
 53.6236  6251.82  79.652
 53.6656  6306.04  79.6327
 53.7076  6318.96  79.6762
 53.7496  6274.87  79.5183
 53.7916  6376.26  80.2776
 53.8336  6216.37  79.1653
 53.8756  6273.54  80.073
 53.9176  6285.23  79.4991
 53.9596  6436.53  81.2168
 54.0016  6245.79  79.3433
 54.0436  6241.73  79.5264
 54.0856  6381.88  79.8501
 54.1276  6384.68  80.0638
 54.1696  6289.32  79.6359
 54.2116  6286.31  79.3784
 54.2536  6383.25  79.7993
 54.2956  6351.08  79.6402
 54.3376  6294.56  79.7709
 54.3796  6264.67  79.4796
 54.4216  6370.44  80.1936
 54.4636  6321  79.8381
 54.5056  6311.03  79.604
 54.5476  6258.33  79.6007
 54.5896  6296.96  79.6813
 54.6316  6365.71  79.9699
 54.6736  6280.59  79.4962
 54.7156  6305.2  79.6876
 54.7576  6238.6  79.2567
 54.7996  6290.96  79.7265
 54.8416  6356.44  80.193
 54.8836  6190.01  79.249
 54.9256  6260.65  79.4463
 54.9676  6272.13  79.373
 55.0096  6208.22  79.0431
 55.0516  6274.03  79.6884
 55.0936  6275.15  79.3342
 55.1356  6167.96  78.6909
 55.1776  6218.11  79.2782
 55.2196  6207.75  78.9957
 55.2616  6240.79  79.4197
 55.3036  6150.78  79.0014
 55.3456  6219.77  79.5879
 55.3876  6268.65  79.6467
 55.4296  6254.76  79.5318
 55.4716  6174.79  79.0527
 55.5136  6299.01  79.6077
 55.5556  6309.89  79.7512
 55.5976  6237.58  79.3383
 55.6396  6181.04  78.9308
 55.6816  6251.25  79.2566
 55.7236  6271.59  79.4271
 55.7656  6206.2  78.7731
 55.8076  6312.88  79.4297
 55.8496  6278.64  79.5332
 55.8916  6239.04  79.4842
 55.9336  6238.3  79.3021
 55.9756  6179.94  78.8201
 56.0176  6151.6  78.7861
 56.0596  6188.72  79.0106
 56.1016  6240.18  79.3408
 56.1436  6188.53  79.2792
 56.1856  6233.57  79.3062
 56.2276  6186.2  79.0707
 56.2696  6223.64  79.2768
 56.3116  6142.31  79.1593
 56.3536  6199.53  79.1827
 56.3956  6188.1  79.1015
 56.4376  6129.93  78.76
 56.4796  6233.59  79.2213
 56.5216  6286.59  79.9449
 56.5636  6188.76  78.9038
 56.6056  6130.08  78.7636
 56.6476  6165.94  78.6212
 56.6896  6143.4  78.9236
 56.7316  6154.31  78.9063
 56.7736  6195.58  79.165
 56.8156  6167.3  78.9787
 56.8576  6211.86  79.207
 56.8996  6204.57  79.0975
 56.9416  6227.69  79.5474
 56.9836  6116.68  78.359
 57.0256  6106.72  78.6036
 57.0676  6070.69  78.4973
 57.1096  6310.93  79.8232
 57.1516  6180.54  79.055
 57.1936  6141.68  78.555
 57.2356  6197  79.2252
 57.2776  6185.7  79.105
 57.3196  6226.63  79.7447
 57.3616  6187.67  78.9881
 57.4036  6150.8  78.8131
 57.4456  6137.4  78.6941
 57.4876  6235.11  79.1782
 57.5296  6154.66  79.0047
 57.5716  6107.32  78.682
 57.6136  6168.84  78.8987
 57.6556  6155.11  78.9482
 57.6976  6171.18  78.8648
 57.7396  6088.46  78.7157
 57.7816  6084.26  79.0489
 57.8236  6150.96  79.272
 57.8656  6157.88  78.9788
 57.9076  6069.56  78.4422
 57.9496  6080.02  78.8542
 57.9916  6061.31  78.251
 58.0336  6166.51  79.2015
 58.0756  6139.01  78.6618
 58.1176  6265  79.4612
 58.1596  6108.55  79.0329
 58.2016  6212.6  78.9082
 58.2436  6226.89  79.4163
 58.2856  6074.62  78.3598
 58.3276  6122.57  79.0421
 58.3696  6135.74  78.8765
 58.4116  6234.51  79.3711
 58.4536  6132.65  78.6035
 58.4956  6086.85  78.491
 58.5376  6177.54  78.644
 58.5796  6079.47  78.4393
 58.6216  6115.39  78.4846
 58.6636  6128.48  78.7849
 58.7056  6266.11  79.52
 58.7476  6181.5  79.431
 58.7896  6169.82  78.9967
 58.8316  6235.57  79.4125
 58.8736  6242.64  79.4634
 58.9156  6135.54  78.8233
 58.9576  6207.43  79.6086
 58.9996  6249.38  79.1024
 59.0416  6283.99  79.7055
 59.0836  6191.13  79.0314
 59.1256  6107.03  79.1988
 59.1676  6107.69  79.509
 59.2096  6291.66  79.9951
 59.2516  6301.84  79.632
 59.2936  6128  78.8564
 59.3356  6096.8  78.5325
 59.3776  6243.66  79.6445
 59.4196  6173.21  79.1272
 59.4616  6320.81  79.9264
 59.5036  6188.69  79.1211
 59.5456  6449.57  80.456
 59.5876  6270.39  79.5252
 59.6296  6091.12  78.4498
 59.6716  6112.72  78.647
 59.7136  6337.83  80.07
 59.7556  6139.53  78.945
 59.7976  6292.15  79.6571
 59.8396  6166.13  78.7486
 59.8816  6146.39  79.1725
 59.9236  6126.44  78.6851
 59.9656  6086.24  78.6882
 60.0076  6027.99  77.6688
 60.0496  6219.38  79.4035
 60.0916  6305.29  79.3554
 60.1336  6089.4  79.0968
 60.1756  6039.72  79.9576
 60.1996  0.0000000E+00  0.0000000E+00