File: docs/examples/opeando_xrd/IS17_D/Data/IS17_D/17_Da_f00110.xye
# /beamlines/bl04/projects/cycle2025-II/20250340211-lsimonelli/DATA/IS17_D/17_Da_f00110.xye : mythproc.py merge -s 0.006 -l 0.5 -f /beamlines/bl04/inhouse/ff/FlatField/ff_20Nov2024rod8mm60s_17keV.raw -b True -c true -o xye /beamlines/bl04/projects/cycle2025-II/20250340211-lsimonelli/DATA/IS17_D/17_Da_00110.dat
# IsMon = [6747337, 6748070, 6751350]  IsPos = [-1.4999, -2.4883, -3.4988]
# Wave = 0.4962  CalPath /beamlines/bl04/projects/cycle2025-II/20250340211-lsimonelli/DATA/Align/Si_Pos1_25keV_f00001.cal
# Date = 2025-09-25_00:14:08 Dt = 4.8000  Bin = 0.0060  <imon> = 6748919 +/- 1745 (Min/Max) 6747337 / 6751350
# icurr 249.2115  mocoIn 1.7004E-05  mocoOut 0.7982  i15 7.06879e+06  imon 6.74892e+06  i7 4.0000  iEMpd_timer 4.8000  iEMpd_1 3.4405E-08  iEMpd_2 7.8205E-08  iEMpd_3 1.6975E-08  iEMpd_4 4.7042E-08  iEMhp_timer 4.8000  iEMhp_1 4.8705E-06  iEMhp_2 -2.5736E-08  iEMhp_3 -2.3983E-08  iEMhp_4 -2.2249E-08
#      9776
 1.5856  40699.9  207.181
 1.6276  48097.4  221.359
 1.6696  54656.3  235.138
 1.7116  63576.4  254.097
 1.7536  72725.1  270.607
 1.7956  77204.8  279.513
 1.8376  73651.9  273.439
 1.8796  62184.4  249.409
 1.9216  50526.7  225.71
 1.9636  42528.8  206.228
 2.0056  38874.8  196.405
 2.0476  36132.3  191.427
 2.0896  34560.5  186.119
 2.1316  33896.5  183.436
 2.1736  32091.2  179.9
 2.2156  32677.1  180.078
 2.2576  31798.6  178.276
 2.2996  30808.2  176.124
 2.3416  31260.5  175.994
 2.3836  30775.2  174.732
 2.4256  29764.1  172.398
 2.4676  29052.9  170.084
 2.5096  29495.7  171.432
 2.5516  28441.4  172.23
 2.5936  28639  169.344
 2.6356  28163.9  168.641
 2.6776  28299.1  167.892
 2.7196  27841.2  166.67
 2.7616  28003.1  167.323
 2.8036  27288  165.348
 2.8456  27357.8  166.19
 2.8876  26808.8  164.391
 2.9296  26474.6  163.494
 2.9716  26266.7  162.327
 3.0136  25813.2  160.988
 3.0556  26002  161.987
 3.0976  25710.3  159.975
 3.1396  25378  159.677
 3.1816  24944.9  157.947
 3.2236  25170  158.953
 3.2656  24866.2  157.001
 3.3076  24884.4  158.554
 3.3496  24838.5  157.322
 3.3916  25205.4  158.303
 3.4336  25533.7  159.92
 3.4756  25823.1  160.746
 3.5176  26679.5  163.185
 3.5596  26419.4  164.851
 3.6016  26560  162.86
 3.6436  25778.1  161.564
 3.6856  25159.1  157.894
 3.7276  24224.8  156.037
 3.7696  23990.4  155.462
 3.8116  23768.3  154.637
 3.8536  23660.6  154.214
 3.8956  23580  153.777
 3.9376  23576.3  154.018
 3.9796  23574  153.516
 4.0216  23569.3  152.529
 4.0636  23463.3  153.677
 4.1056  23551.6  153.601
 4.1476  23656.3  154.26
 4.1896  23709.3  154.287
 4.2316  24051.3  155.222
 4.2736  24422.9  156.2
 4.3156  24679.4  157.242
 4.3576  25486.7  159.73
 4.3996  25613.8  160.388
 4.4416  26216.8  161.843
 4.4836  26530.1  162.959
 4.5256  27066.4  165.222
 4.5676  26877.7  164.898
 4.6096  27697  166.031
 4.6516  27900.1  166.346
 4.6936  27966  167.355
 4.7356  28186.9  167.848
 4.7776  28167.2  167.617
 4.8196  27913.7  167.515
 4.8616  27312.2  165.185
 4.9036  26933.9  163.785
 4.9456  27250.7  165.397
 4.9876  26408.7  162.722
 5.0296  26740.9  163.561
 5.0716  26620.6  163.967
 5.1136  26614.8  163.663
 5.1556  27072.2  164.52
 5.1976  27440.9  165.636
 5.2396  27589.5  165.775
 5.2816  27399.8  165.671
 5.3236  27643.4  166.106
 5.3656  27203.3  165.707
 5.4076  26959.7  165.116
 5.4496  27096.2  165.011
 5.4916  27146.5  164.918
 5.5336  27035.7  164.589
 5.5756  27000.3  164.515
 5.6176  27179.6  164.491
 5.6596  27293.2  165.818
 5.7016  27302.9  165.103
 5.7436  27737.8  166.691
 5.7856  27429.3  165.821
 5.8276  27984.5  167.208
 5.8696  27946.1  167.263
 5.9116  28037.9  167.849
 5.9536  27941.5  167.616
 5.9956  28464.3  168.532
 6.0376  28293.5  168.669
 6.0796  28677.3  169.636
 6.1216  28778.7  170.185
 6.1636  29124  170.211
 6.2056  28827.2  170.009
 6.2476  29222.6  171.047
 6.2896  29516.1  171.581
 6.3316  29189.9  170.808
 6.3736  29503  171.611
 6.4156  29663  171.972
 6.4576  29776.9  171.903
 6.4996  29837.9  172.56
 6.5416  29946.9  173.014
 6.5836  30056.7  173.561
 6.6256  30098.8  173.246
 6.6676  30556.6  174.121
 6.7096  30347.4  174.387
 6.7516  30869.4  175.524
 6.7936  31128.6  175.68
 6.8356  31096.6  175.673
 6.8776  31510.5  177.648
 6.9196  31604.5  178.32
 6.9616  32025.7  178.945
 7.0036  32486.6  179.869
 7.0456  32335.2  178.74
 7.0876  32385.6  180.589
 7.1296  32605.5  180.325
 7.1716  32348.8  179.141
 7.2136  32182.5  178.464
 7.2556  32500.3  179.508
 7.2976  32355.4  179.611
 7.3396  32266.8  179.582
 7.3816  32180.1  179.555
 7.4236  32567.3  179.914
 7.4656  32621  179.542
 7.5076  33012.3  180.752
 7.5496  33045.1  181.381
 7.5916  33224.9  181.913
 7.6336  33249  181.872
 7.6756  33351.6  182.004
 7.7176  33869.8  183.733
 7.7596  33590.2  184.221
 7.8016  34005.9  187.568
 7.8436  34710.3  186.112
 7.8856  35019.9  186.551
 7.9276  35297.4  187.677
 7.9696  35463.6  188.438
 8.0116  36490.8  189.667
 8.0536  36583.8  190.165
 8.0956  36666.6  191.579
 8.1376  36978.1  191.854
 8.1796  37274.1  193.172
 8.2216  37929.1  193.581
 8.2636  38125.4  194.368
 8.3056  38104.6  195.055
 8.3476  38793.3  196.134
 8.3896  38498.1  195.466
 8.4316  38499.4  195.637
 8.4736  38864.2  196.017
 8.5156  38233.4  194.701
 8.5576  38005.4  195.738
 8.5996  38167.6  194.375
 8.6416  38060.1  195.389
 8.6836  37984.6  195.01
 8.7256  38473.7  195.71
 8.7676  37826.1  196.99
 8.8096  37718.6  193.983
 8.8516  37625  193.352
 8.8936  36922  191.428
 8.9356  37046.8  192.108
 8.9776  37044.5  192.192
 9.0196  37009.5  191.78
 9.0616  37004.9  191.225
 9.1036  36592.5  191.359
 9.1456  36757.8  191.128
 9.1876  36830.8  191.273
 9.2296  36886.2  190.814
 9.2716  36271.7  189.277
 9.3136  36300.2  189.339
 9.3556  36166.5  188.975
 9.3976  34976.4  186.378
 9.4396  35548.9  187.781
 9.4816  34800.9  185.664
 9.5236  35015.9  186.14
 9.5656  34819.1  185.94
 9.6076  34473  185.546
 9.6496  34326.4  185.077
 9.6916  34397.8  185.234
 9.7336  34341.5  184.863
 9.7756  34678.2  187.045
 9.8176  33636.4  183.728
 9.8596  33655.1  182.215
 9.9016  32958.3  180.312
 9.9436  32834.9  179.887
 9.9856  32707.2  179.77
 10.0276  32259.3  179.611
 10.0696  32442.3  179.18
 10.1116  31571.6  177.027
 10.1536  31498.3  176.987
 10.1956  30890.8  174.872
 10.2376  30694.6  173.814
 10.2796  30870.7  174.443
 10.3216  30475.7  173.591
 10.3636  30148.3  172.69
 10.4056  29823.8  172.164
 10.4476  29556.7  171.009
 10.4896  29913.4  171.63
 10.5316  29279.7  170.369
 10.5736  28945.1  169.803
 10.6156  28563.6  168.447
 10.6576  28848.9  167.853
 10.6996  28209.4  166.647
 10.7416  27920.2  166.029
 10.7836  28210.2  167.566
 10.8256  27691.7  166.445
 10.8676  27946.8  166.745
 10.9096  27602.8  165.753
 10.9516  27284.8  163.726
 10.9936  27270.2  163.879
 11.0356  27347  164.75
 11.0776  27075.3  163.243
 11.1196  26641.5  162.674
 11.1616  26469.6  161.838
 11.2036  26371.6  161.393
 11.2456  26395.6  162.175
 11.2876  26216.1  161.349
 11.3296  25935.6  160.383
 11.3716  26179.7  160.824
 11.4136  25992.5  161.149
 11.4556  26151.2  161.298
 11.4976  26267.7  160.634
 11.5396  26425.7  161.294
 11.5816  26944.9  163.332
 11.6236  27467.2  165.133
 11.6656  27818.8  165.314
 11.7076  26726.6  162.886
 11.7496  26317.2  165.65
 11.7916  26055.2  160.087
 11.8336  25776.6  160.119
 11.8756  25424.5  158.561
 11.9176  25537.4  158.553
 11.9596  25034.7  157.183
 12.0016  25090.9  157.878
 12.0436  25121.6  157.678
 12.0856  24955.7  157.682
 12.1276  24935.8  157.533
 12.1696  24842.6  156.369
 12.2116  24875.2  156.463
 12.2536  24455.2  155.971
 12.2956  24639.5  155.884
 12.3376  24472.4  155.571
 12.3796  24727.5  156.846
 12.4216  24418.9  155.078
 12.4636  24262.2  155.5
 12.5056  24519.4  155.583
 12.5476  24746.2  155.825
 12.5896  24542.5  155.817
 12.6316  24291.5  155.183
 12.6736  24352.9  156.054
 12.7156  24117.8  154.975
 12.7576  24293.6  155.772
 12.7996  24567.9  155.29
 12.8416  24172.5  155.09
 12.8836  24705.5  156.52
 12.9256  25030.2  156.645
 12.9676  25038.7  157.1
 13.0096  24718  157.202
 13.0516  24949.7  156.962
 13.0936  24843.6  157.032
 13.1356  25557  158.236
 13.1776  25119.1  157.872
 13.2196  25328.9  158.185
 13.2616  25391.5  158.69
 13.3036  25427.8  158.78
 13.3456  25221.6  158.491
 13.3876  25303.9  158.035
 13.4296  25114.8  157.589
 13.4716  25071.4  157.057
 13.5136  25218.4  157.676
 13.5556  25169.3  158.143
 13.5976  25205.2  158.411
 13.6396  25341  158.186
 13.6816  25017.6  157.68
 13.7236  25741.3  159.579
 13.7656  24829.5  157.264
 13.8076  25050  156.735
 13.8496  24731.8  156.343
 13.8916  24817.1  157.622
 13.9336  24908.4  157.118
 13.9756  24666.1  155.71
 14.0176  24748  156.655
 14.0596  24513.3  155.877
 14.1016  24202.8  155.281
 14.1436  23887  153.399
 14.1856  23866.5  153.629
 14.2276  23507.2  152.957
 14.2696  23746.3  153.573
 14.3116  23616.3  153.04
 14.3536  23101.1  151.55
 14.3956  23197.6  151.592
 14.4376  23379.8  151.964
 14.4796  23278.9  151.626
 14.5216  22894.7  151.175
 14.5636  22653  149.937
 14.6056  22875.4  150.242
 14.6476  22908.4  149.571
 14.6896  22354.1  148.297
 14.7316  22024.2  148.224
 14.7736  22042.5  147.436
 14.8156  21708.6  146.348
 14.8576  21832  146.61
 14.8996  21451.6  146.55
 14.9416  21091.6  145.32
 14.9836  21051.3  145.125
 15.0256  20945.8  143.678
 15.0676  20969.5  144.209
 15.1096  20596.4  142.529
 15.1516  20313  142.113
 15.1936  20307.8  141.51
 15.2356  20077.9  140.868
 15.2776  20028.6  140.397
 15.3196  19541.6  139.69
 15.3616  19608.9  139.677
 15.4036  19591.7  139.474
 15.4456  19635.7  139.28
 15.4876  19509.5  138.505
 15.5296  19137.2  137.47
 15.5716  18945.6  136.37
 15.6136  18856.2  136.389
 15.6556  18875.9  135.686
 15.6976  18676.2  135.266
 15.7396  18682.9  135.677
 15.7816  18396.9  134.138
 15.8236  18169.8  134.011
 15.8656  18464.5  134.887
 15.9076  17896.4  132.621
 15.9496  17928.4  135.567
 15.9916  18061.1  136.501
 16.0336  17667.7  131.879
 16.0756  17739  132.451
 16.1176  17625.1  132.098
 16.1596  17171.7  131.569
 16.2016  17528.4  131.651
 16.2436  17198  130.802
 16.2856  17050.1  129.778
 16.3276  16859.8  129.469
 16.3696  17013.5  129.88
 16.4116  16775.5  129.429
 16.4536  17202.8  130.852
 16.4956  16876.8  129.343
 16.5376  16746.9  129.025
 16.5796  16725.4  128.302
 16.6216  16590.7  128.088
 16.6636  16693  128.632
 16.7056  16574  128.041
 16.7476  16515.2  127.348
 16.7896  16485.6  127.982
 16.8316  16406.2  127.632
 16.8736  16533.1  128.397
 16.9156  16582.1  128.919
 16.9576  16370.4  128.907
 16.9996  16580.5  130.22
 17.0416  16689.6  128.991
 17.0836  16667.2  128.661
 17.1256  16536.4  128.164
 17.1676  16574.6  128.303
 17.2096  16348.8  127.303
 17.2516  16307.7  126.922
 17.2936  16176.7  126.738
 17.3356  15908.2  125.685
 17.3776  15870.9  125.732
 17.4196  16178.2  126.633
 17.4616  15766.3  124.923
 17.5036  15867.8  125.7
 17.5456  15534.1  125.013
 17.5876  15348.4  123.312
 17.6296  15425.5  123.44
 17.6716  15497.3  124.307
 17.7136  15048.4  122.634
 17.7556  14956.3  122.545
 17.7976  15158.7  123.116
 17.8396  14849  121.352
 17.8816  14968.2  122.384
 17.9236  14769.6  121.381
 17.9656  15020.7  122.941
 18.0076  14916.3  122.089
 18.0496  14781.7  120.671
 18.0916  14927.3  121.804
 18.1336  14774  121.276
 18.1756  14919.9  121.399
 18.2176  14543.5  120.087
 18.2596  14582  119.986
 18.3016  14759.3  120.968
 18.3436  14679.1  120.64
 18.3856  14488.8  119.986
 18.4276  14633.4  120.257
 18.4696  14475.9  119.708
 18.5116  14591.4  120.472
 18.5536  14570.1  120.737
 18.5956  14293.6  119.148
 18.6376  14313.2  119.637
 18.6796  14455.7  119.55
 18.7216  14630.2  120.759
 18.7636  14228  119.082
 18.8056  14386.9  119.682
 18.8476  14098.3  119.091
 18.8896  14213.5  118.913
 18.9316  14412.2  119.728
 18.9736  14094.1  118.096
 19.0156  14285.6  119.301
 19.0576  14258.6  118.058
 19.0996  14283.3  119.013
 19.1416  14057.5  118.321
 19.1836  14209.1  118.556
 19.2256  14144.1  118.497
 19.2676  14071.7  118.291
 19.3096  14209.4  119.108
 19.3516  14060.7  118.446
 19.3936  14106.5  118.539
 19.4356  13907.7  117.567
 19.4776  14065.8  118.336
 19.5196  14157.5  118.567
 19.5616  13975.3  118.052
 19.6036  14134.7  118.219
 19.6456  13916.4  117.427
 19.6876  14174.4  118.158
 19.7296  14059.5  118.137
 19.7716  13965.3  117.904
 19.8136  14092.3  118.647
 19.8556  14347  119.187
 19.8976  14241.3  118.811
 19.9396  14134.3  117.944
 19.9816  14118.7  118.18
 20.0236  14363.6  119.356
 20.0656  14645.2  120.51
 20.1076  14689.6  121.171
 20.1496  14823.8  121.726
 20.1916  15079.1  122.268
 20.2336  15372  123.381
 20.2756  15090.6  122.696
 20.3176  14735.3  120.978
 20.3596  14544  120.168
 20.4016  14271.5  118.837
 20.4436  14165.6  118.958
 20.4856  13926.7  117.747
 20.5276  13979.9  118.433
 20.5696  13763.7  116.97
 20.6116  13873.4  117.719
 20.6536  13782.9  116.833
 20.6956  13754.3  116.84
 20.7376  13600  116.407
 20.7796  13514.6  115.732
 20.8216  13668  116.09
 20.8636  13514  115.802
 20.9056  13516.1  115.766
 20.9476  13297.3  114.665
 20.9896  13559  115.654
 21.0316  13472.6  115.179
 21.0736  13375.3  115.283
 21.1156  13327.4  115.235
 21.1576  13449.5  115.818
 21.1996  13252.7  114.942
 21.2416  13150.8  114.337
 21.2836  13364.3  115.222
 21.3256  13236.4  114.757
 21.3676  13337.8  114.735
 21.4096  13240.5  114.626
 21.4516  13201.2  114.337
 21.4936  13002.5  113.725
 21.5356  13183.8  114.463
 21.5776  13136.7  114.086
 21.6196  13171.6  114.271
 21.6616  12977.7  113.513
 21.7036  13097.3  113.818
 21.7456  13098.1  113.899
 21.7876  13038.4  113.382
 21.8296  12952.2  112.868
 21.8716  13009.6  113.355
 21.9136  13206  114.407
 21.9556  13097.6  113.605
 21.9976  12807.3  112.353
 22.0396  12842.2  112.763
 22.0816  12975.8  113.888
 22.1236  13096.3  113.867
 22.1656  13033  113.718
 22.2076  13124.5  113.576
 22.2496  13015.6  113.138
 22.2916  13029  113.066
 22.3336  13006  113.711
 22.3756  12800.2  112.523
 22.4176  12975.1  113.145
 22.4596  12796  112.949
 22.5016  12946.4  113.106
 22.5436  13038.3  113.379
 22.5856  12934  113.179
 22.6276  12871.6  113.08
 22.6696  12888.1  113.466
 22.7116  12865.5  112.884
 22.7536  12968.6  113.305
 22.7956  12981.2  112.687
 22.8376  12828.3  112.541
 22.8796  12723.5  111.88
 22.9216  12957.3  113.457
 22.9636  12972.2  112.665
 23.0056  12896.6  112.471
 23.0476  12890.5  113.02
 23.0896  13164.4  113.581
 23.1316  12950.2  113.097
 23.1736  12720.5  114.853
 23.2156  12941.5  113.386
 23.2576  12947.3  113.544
 23.2996  13082.9  113.918
 23.3416  12828.2  113.332
 23.3836  13056.4  113.556
 23.4256  13040.1  113.605
 23.4676  13039.2  113.289
 23.5096  12789.8  112.884
 23.5516  12838.7  112.376
 23.5936  12966.1  113.848
 23.6356  12821.5  112.88
 23.6776  12915.8  113.501
 23.7196  12592.3  111.646
 23.7616  12916.2  112.989
 23.8036  12914.3  113.031
 23.8456  12972.8  112.844
 23.8876  12707.4  112.049
 23.9296  12535.4  111.769
 23.9716  12735.9  111.841
 24.0136  12720.9  112.696
 24.0556  12414.5  111.061
 24.0976  12385.7  110.739
 24.1396  12373  113.344
 24.1816  12464.5  112.178
 24.2236  12422.9  111.6
 24.2656  12158  109.876
 24.3076  12237.9  110.479
 24.3496  12368  110.96
 24.3916  12105.6  109.828
 24.4336  12110.5  110.063
 24.4756  12031.3  109.57
 24.5176  11977.8  108.972
 24.5596  11873.2  108.626
 24.6016  11853.5  108.823
 24.6436  11865.4  108.367
 24.6856  11863.2  108.116
 24.7276  11755.1  107.934
 24.7696  11713.8  107.862
 24.8116  11628.5  107.651
 24.8536  11781.4  108.35
 24.8956  11620.4  107.346
 24.9376  11604.3  107.208
 24.9796  11360.1  106.429
 25.0216  11382.8  106.647
 25.0636  11553.4  107.087
 25.1056  11253.1  106.396
 25.1476  11423.5  108.854
 25.1896  11498.9  107.688
 25.2316  11613.7  107.476
 25.2736  11508.4  106.646
 25.3156  11396.4  106.197
 25.3576  11349.9  106.407
 25.3996  11443.6  106.823
 25.4416  11290.7  106.093
 25.4836  11223.9  106.306
 25.5256  11247.9  105.779
 25.5676  11234.3  105.446
 25.6096  11140.4  105.581
 25.6516  11265.3  105.665
 25.6936  11041.9  104.923
 25.7356  11326.4  106.406
 25.7776  11216.7  105.486
 25.8196  10971.6  104.565
 25.8616  11209.3  105.615
 25.9036  11157.7  104.838
 25.9456  11062.4  104.988
 25.9876  11093.6  105.197
 26.0296  11143.1  104.942
 26.0716  11018.3  104.776
 26.1136  11024.1  104.745
 26.1556  11163.8  104.775
 26.1976  10984  104.866
 26.2396  11058.4  104.366
 26.2816  11003.1  104.725
 26.3236  10996.9  104.852
 26.3656  10957.5  104.388
 26.4076  10951.7  104.545
 26.4496  11553.2  106.884
 26.4916  11193.1  105.205
 26.5336  10993.3  104.587
 26.5756  11505  106.825
 26.6176  11040.7  104.693
 26.6596  10931.2  104.517
 26.7016  10978.8  104.498
 26.7436  10821.7  103.877
 26.7856  10873.2  104.106
 26.8276  10818.7  103.796
 26.8696  10840  103.78
 26.9116  10802.8  103.537
 26.9536  10670.7  102.952
 26.9956  10786.3  103.539
 27.0376  10743.7  103.552
 27.0796  10781  103.458
 27.1216  10517.3  102.264
 27.1636  10564.6  102.657
 27.2056  10459.6  102.028
 27.2476  10548.3  102.458
 27.2896  10598.2  102.84
 27.3316  10549  102.29
 27.3736  10554.3  102.584
 27.4156  10505.1  102.191
 27.4576  10436.2  102.081
 27.4996  10544.1  102.2
 27.5416  10349.3  101.569
 27.5836  10381.9  101.538
 27.6256  10722.9  103.358
 27.6676  10655.2  103.056
 27.7096  10387.1  101.621
 27.7516  10338.6  101.527
 27.7936  10299.9  101.519
 27.8356  10367.9  101.469
 27.8776  10309.5  101.223
 27.9196  10169.8  100.386
 27.9616  10244  100.948
 28.0036  10203.3  100.717
 28.0456  10240.7  101.033
 28.0876  10263.5  101.24
 28.1296  10223.5  100.817
 28.1716  10108.6  100.326
 28.2136  10118.9  100.336
 28.2556  10060.9  100.162
 28.2976  10022.4  99.9633
 28.3396  10199  100.592
 28.3816  10136.9  100.314
 28.4236  10205.3  100.804
 28.4656  9975.58  99.7015
 28.5076  10069.5  99.8057
 28.5496  10183.9  100.634
 28.5916  10167.6  100.359
 28.6336  9965.65  99.6965
 28.6756  10104.4  99.5869
 28.7176  10040.6  99.7108
 28.7596  10038.8  99.7111
 28.8016  10121.3  100.157
 28.8436  9820.9  98.9013
 28.8856  9968.32  99.5369
 28.9276  9995.6  99.869
 28.9696  9869.79  98.8977
 29.0116  9980.95  99.6379
 29.0536  9845.76  99.1613
 29.0956  9777.22  98.5327
 29.1376  9872.2  98.9756
 29.1796  9930.6  99.3182
 29.2216  9798.63  98.4966
 29.2636  9885.3  99.0087
 29.3056  9837.76  98.5521
 29.3476  9814.13  98.9628
 29.3896  9917.4  99.5697
 29.4316  10006.6  99.3537
 29.4736  9942.84  99.0968
 29.5156  9898.2  98.7986
 29.5576  9872.55  99.4225
 29.5996  9863.64  98.6224
 29.6416  9756.82  98.205
 29.6836  9926.23  98.9832
 29.7256  9839.26  98.8834
 29.7676  9801.36  98.5843
 29.8096  9785.42  98.45
 29.8516  9720.34  98.4484
 29.8936  9770.95  98.8076
 29.9356  9744.81  98.428
 29.9776  9554.8  97.6179
 30.0196  9662.54  97.822
 30.0616  9703.31  98.1326
 30.1036  9670.73  97.7948
 30.1456  9656.92  97.9518
 30.1876  9620.4  97.7536
 30.2296  9627.48  97.7289
 30.2716  9664.53  97.5568
 30.3136  9773.03  98.9699
 30.3556  9678.58  98.5092
 30.3976  9500.69  99.1315
 30.4396  9713.1  97.5363
 30.4816  9693.84  97.029
 30.5236  9537.06  96.2683
 30.5656  9618.89  97.3292
 30.6076  9602.48  96.6731
 30.6496  9869.89  98.4036
 30.6916  9407.46  96.1592
 30.7336  9471.07  96.6392
 30.7756  9526.22  97.0117
 30.8176  9529.82  96.9465
 30.8596  9555.46  96.8356
 30.9016  9694.88  97.8954
 30.9436  9732.09  97.8321
 30.9856  9681.05  97.6892
 31.0276  9689.73  97.325
 31.0696  9528.24  97.0975
 31.1116  9412.07  96.4797
 31.1536  9593.92  97.2854
 31.1956  9436.23  96.5689
 31.2376  9395.53  96.3742
 31.2796  9554.41  96.7146
 31.3216  9570.45  96.7432
 31.3636  9554.74  97.3646
 31.4056  9434.2  98.0769
 31.4476  9365.22  95.6052
 31.4896  9260.41  95.5702
 31.5316  9525.13  96.3151
 31.5736  9630.49  96.6716
 31.6156  9424.31  95.6483
 31.6576  9421.96  95.733
 31.6996  9350.92  95.0403
 31.7416  9376.68  96.2399
 31.7836  9328.31  95.0056
 31.8256  9145.23  94.3345
 31.8676  9326.58  95.2666
 31.9096  9210.78  95.025
 31.9516  9087.38  94.5508
 31.9936  9244.72  95.1889
 32.0356  9439.51  96.2529
 32.0776  9488.97  96.389
 32.1196  9268.58  95.3526
 32.1616  9241.48  94.6714
 32.2036  9195.68  94.9483
 32.2456  9117.02  94.9217
 32.2876  9313.54  95.4318
 32.3296  9181.96  94.7192
 32.3716  9178.84  94.7997
 32.4136  9217.82  95.2085
 32.4556  9343.4  95.2337
 32.4976  9361.78  95.2349
 32.5396  9210.49  94.5301
 32.5816  9126.99  94.2251
 32.6236  9245.4  94.903
 32.6656  9281.31  95.638
 32.7076  9158.5  94.6547
 32.7496  9109.31  94.0676
 32.7916  9216.71  94.5728
 32.8336  9163.71  94.4012
 32.8756  9246.66  94.5467
 32.9176  9035.54  93.9452
 32.9596  9043.46  94.0596
 33.0016  9047.21  93.8756
 33.0436  9212.22  94.8982
 33.0856  9000  93.8737
 33.1276  8990.11  93.556
 33.1696  9021.75  93.5612
 33.2116  9082.52  94.1064
 33.2536  9141.8  94.4073
 33.2956  9075.53  94.1486
 33.3376  8938.91  93.177
 33.3796  9029.08  93.8539
 33.4216  9050.72  93.5554
 33.4636  9061.96  93.7668
 33.5056  8903.01  93.1902
 33.5476  8942.15  93.3812
 33.5896  9122.72  94.0894
 33.6316  8913.46  93.3253
 33.6736  8917.95  93.5915
 33.7156  9057.87  94.3609
 33.7576  9078.99  94.0942
 33.7996  9080.88  93.8626
 33.8416  8846.09  92.8331
 33.8836  8969.43  93.2552
 33.9256  8907.57  92.9968
 33.9676  9031.11  93.5278
 34.0096  8830.81  92.8078
 34.0516  8771.4  92.1272
 34.0936  8791.32  92.5013
 34.1356  8888.52  92.7464
 34.1776  8876.43  92.6938
 34.2196  8786.82  92.4115
 34.2616  8781.96  92.5212
 34.3036  8779.05  92.7577
 34.3456  8797.05  92.6021
 34.3876  8848.06  92.836
 34.4296  8840.57  92.4778
 34.4716  8846.11  92.6603
 34.5136  8784.2  92.5433
 34.5556  8756.65  92.6481
 34.5976  8838.76  92.887
 34.6396  8754.34  92.2757
 34.6816  8730.23  92.1374
 34.7236  8780.94  92.187
 34.7656  8809.37  92.5401
 34.8076  8553.27  91.5016
 34.8496  8685.21  92.1318
 34.8916  8695.4  91.991
 34.9336  8729.38  92.1352
 34.9756  8670.74  91.7457
 35.0176  8783.54  92.8639
 35.0596  8809.23  92.8262
 35.1016  8661.63  91.8132
 35.1436  8807.53  92.2691
 35.1856  8709.86  91.8831
 35.2276  8774.68  92.3945
 35.2696  8696.83  92.1827
 35.3116  8726.51  92.4343
 35.3536  8653.05  91.7477
 35.3956  8746.06  91.9484
 35.4376  8669.23  92.1071
 35.4796  8636.56  91.9895
 35.5216  8609.73  91.8022
 35.5636  8420.46  91.5399
 35.6056  8651.67  91.7896
 35.6476  8681.78  91.8453
 35.6896  8723.24  92.1552
 35.7316  8543.31  91.1753
 35.7736  8588.19  91.6072
 35.8156  8558.46  91.4556
 35.8576  8593.65  91.902
 35.8996  8685  92.3468
 35.9416  8452.81  90.6136
 35.9836  8435.45  90.8617
 36.0256  8605.15  91.7921
 36.0676  8571.65  91.3757
 36.1096  8535.01  91.3138
 36.1516  8557.56  91.3236
 36.1936  8549.65  91.1253
 36.2356  8602.23  92.0581
 36.2776  8485.65  90.9081
 36.3196  8469.04  90.4867
 36.3616  8508.93  90.8336
 36.4036  8533.78  91.0229
 36.4456  8524.85  91.1886
 36.4876  8335.35  90.1063
 36.5296  8446.02  90.7444
 36.5716  8434.63  91.4738
 36.6136  8512.62  90.6485
 36.6556  8652.75  91.5925
 36.6976  8479.8  91.1811
 36.7396  8476.95  91.0689
 36.7816  8461.17  91.1889
 36.8236  8336.03  90.4339
 36.8656  8361.41  90.6475
 36.9076  8385.62  90.655
 36.9496  8404.06  90.7368
 36.9916  8381.87  90.2398
 37.0336  8558.9  91.5101
 37.0756  8477.09  90.8588
 37.1176  8100.74  89.0932
 37.1596  8340.58  90.3966
 37.2016  8291.76  90.3714
 37.2436  8410.78  90.3249
 37.2856  8351.44  90.2689
 37.3276  8405.62  89.8979
 37.3696  8296.17  90.2069
 37.4116  8415.78  90.7543
 37.4536  8249.77  89.5752
 37.4956  8379.82  90.4709
 37.5376  8376.48  92.0316
 37.5796  8310.62  91.636
 37.6216  8092.3  88.6862
 37.6636  8063.75  88.4283
 37.7056  8251.64  89.6426
 37.7476  8218.45  88.9996
 37.7896  8205.62  89.4232
 37.8316  8031.83  88.6536
 37.8736  8202.42  89.1009
 37.9156  8186.38  89.0218
 37.9576  8176.93  88.8609
 37.9996  8005.25  87.634
 38.0416  8139.44  89.1801
 38.0836  8382.15  90.4065
 38.1256  8233.29  89.5588
 38.1676  8065.7  88.7791
 38.2096  8051.38  88.3296
 38.2516  8336.47  90.0778
 38.2936  8201.19  89.1527
 38.3356  8249.04  89.3129
 38.3776  8142.11  89.0192
 38.4196  8214.52  89.2627
 38.4616  8265.57  89.7782
 38.5036  8174.01  89.126
 38.5456  7894.6  88.4248
 38.5876  8101.14  89.7727
 38.6296  8169.12  88.9456
 38.6716  8150.78  88.6413
 38.7136  8087.74  88.2391
 38.7556  7958.26  88.0324
 38.7976  7954.13  87.9505
 38.8396  8080.83  88.907
 38.8816  7961.48  88.1991
 38.9236  8065.01  88.6043
 38.9656  8132.94  88.889
 39.0076  7985.42  87.4857
 39.0496  8006.46  88.1439
 39.0916  8008.26  87.7873
 39.1336  8042.34  88.4001
 39.1756  7957.29  88.0015
 39.2176  8038.36  88.9798
 39.2596  7892.09  88.0896
 39.3016  7915.88  87.723
 39.3436  7971.41  88.5307
 39.3856  8005.95  88.1674
 39.4276  8011.79  88.6966
 39.4696  7963.92  88.0575
 39.5116  7986.47  88.6987
 39.5536  8041.28  89.4226
 39.5956  8086.83  88.7689
 39.6376  8069.69  88.6737
 39.6796  7987.6  87.9705
 39.7216  8015.6  88.2166
 39.7636  8134.93  89.4513
 39.8056  7992.6  88.439
 39.8476  7900.16  88.1861
 39.8896  8015.03  88.4467
 39.9316  7918.64  88.1688
 39.9736  8164.24  89.1735
 40.0156  8043.59  88.253
 40.0576  7978.52  88.2611
 40.0996  8092.25  88.0617
 40.1416  8117.21  89.0032
 40.1836  8145.6  89.0426
 40.2256  8086.77  88.7635
 40.2676  7998.5  88.382
 40.3096  7997.26  88.3025
 40.3516  8079.77  88.8628
 40.3936  8165.06  88.8899
 40.4356  8009.22  88.2318
 40.4776  8115.3  89.2341
 40.5196  8184.88  89.6608
 40.5616  8147.96  89.1786
 40.6036  7890.14  88.0083
 40.6456  8055.95  88.5222
 40.6876  8159.1  89.086
 40.7296  8181.96  89.2287
 40.7716  8054.93  88.7837
 40.8136  8048.6  88.6908
 40.8556  8132.13  89.2843
 40.8976  8089.95  88.9677
 40.9396  8120.15  89.491
 40.9816  8109.75  88.7056
 41.0236  8110.25  88.491
 41.0656  8190.51  89.4796
 41.1076  8177.86  89.1725
 41.1496  8298.82  89.7417
 41.1916  8116.8  89.0766
 41.2336  8059.59  88.7557
 41.2756  8074.83  88.4399
 41.3176  8021.75  88.7678
 41.3596  8193.62  89.4362
 41.4016  8030.21  88.7998
 41.4436  8141.45  89.1981
 41.4856  8206.98  89.7198
 41.5276  8107.15  89.1957
 41.5696  8084.69  88.6979
 41.6116  8062.32  88.9756
 41.6536  8127.8  89.1917
 41.6956  8044.25  88.7884
 41.7376  8074.27  88.9819
 41.7796  7933.98  88.0866
 41.8216  8012.74  88.7594
 41.8636  8039.79  88.8478
 41.9056  7906.16  87.8826
 41.9476  8027.64  88.6996
 41.9896  8072.16  88.7142
 42.0316  8052.69  88.6906
 42.0736  8118.01  89.1594
 42.1156  7964.89  88.1535
 42.1576  8016.37  88.5051
 42.1996  7957.25  88.3515
 42.2416  7993.47  88.1307
 42.2836  7841.46  87.4068
 42.3256  7962.33  88.1914
 42.3676  8012.4  88.2727
 42.4096  8005.85  88.196
 42.4516  7958.36  88.0233
 42.4936  7840.34  87.4375
 42.5356  8009.24  88.508
 42.5776  7966.18  88.2064
 42.6196  8063.89  88.8079
 42.6616  7737  87.1547
 42.7036  7971.34  87.8427
 42.7456  8027.35  88.5114
 42.7876  8003.13  88.4806
 42.8296  7904.55  87.7626
 42.8716  7792.71  87.3018
 42.9136  7900  87.6859
 42.9556  7878.06  87.7014
 42.9976  7967.24  88.1609
 43.0396  7964.31  87.8697
 43.0816  7853.24  87.6332
 43.1236  7811.41  87.4609
 43.1656  7837.91  87.4335
 43.2076  7864.64  87.6937
 43.2496  7886.94  87.6213
 43.2916  7827.04  87.6621
 43.3336  7895.08  87.8795
 43.3756  7832.35  87.2895
 43.4176  7784.02  87.095
 43.4596  7752.14  86.7723
 43.5016  7854.51  87.7532
 43.5436  7806.93  87.3888
 43.5856  7728.48  86.9616
 43.6276  7848.7  87.5374
 43.6696  7716.33  87.0541
 43.7116  7810.3  87.0804
 43.7536  7834.65  87.709
 43.7956  7647.2  87.8528
 43.8376  7775.2  87.1056
 43.8796  7731.84  86.9408
 43.9216  7763.62  87.0305
 43.9636  7685.91  86.703
 44.0056  7774.97  87.4312
 44.0476  7744.4  86.8937
 44.0896  7601.82  86.4378
 44.1316  7776.53  86.9434
 44.1736  7692.2  86.5917
 44.2156  7738.15  86.7064
 44.2576  7601.37  86.262
 44.2996  7644.23  86.4742
 44.3416  7800.99  87.1128
 44.3836  7575.58  86.1613
 44.4256  7619.66  86.067
 44.4676  7528.74  85.7117
 44.5096  7628.72  86.4195
 44.5516  7551.23  85.9438
 44.5936  7492.27  85.5644
 44.6356  7623.66  86.048
 44.6776  7648.32  86.4269
 44.7196  7504.82  85.9972
 44.7616  7552.67  87.6069
 44.8036  7527.69  85.8791
 44.8456  7576.21  86.3572
 44.8876  7547  86.039
 44.9296  7684.22  86.2662
 44.9716  7625.14  86.3711
 45.0136  7560.11  85.9374
 45.0556  7613.43  86.2132
 45.0976  7474.54  85.5837
 45.1396  7407.04  84.951
 45.1816  7377.63  84.7251
 45.2236  7593.29  85.8548
 45.2656  7375.69  85.1117
 45.3076  7540.07  85.8416
 45.3496  7393.67  85.302
 45.3916  7561.37  86.5359
 45.4336  7521.44  86.1516
 45.4756  7429.32  85.4833
 45.5176  7520.83  85.6208
 45.5596  7533.04  85.8053
 45.6016  7474.7  85.8977
 45.6436  7450.57  84.9292
 45.6856  7317.3  84.8207
 45.7276  7372.33  86.4736
 45.7696  7334.89  85.9099
 45.8116  7480.61  86.1988
 45.8536  7345.83  85.3172
 45.8956  7518.06  85.6614
 45.9376  7563.67  85.3816
 45.9796  7388.8  85.0677
 46.0216  7456.1  85.7993
 46.0636  7679.42  86.208
 46.1056  7483.23  85.0858
 46.1476  7372.17  85.0432
 46.1896  7461.05  85.7064
 46.2316  7339.64  84.8765
 46.2736  7354.76  85.3255
 46.3156  7503.52  85.7709
 46.3576  7437.64  85.5963
 46.3996  7414.88  85.6246
 46.4416  7412.06  85.1801
 46.4836  7370.12  85.3024
 46.5256  7354.52  85.1484
 46.5676  7283.67  84.8516
 46.6096  7509.01  86.0859
 46.6516  7475.85  84.929
 46.6936  7397.17  84.977
 46.7356  7459.22  85.4355
 46.7776  7219.27  84.8856
 46.8196  7348.79  85.2359
 46.8616  7117.04  83.8281
 46.9036  7203.09  83.991
 46.9456  7275.08  84.052
 46.9876  7325.61  84.4348
 47.0296  7280.92  84.8508
 47.0716  7125.85  83.7735
 47.1136  7389.24  84.984
 47.1556  7331.47  84.5226
 47.1976  7371.16  84.8288
 47.2396  7176.96  84.1004
 47.2816  7295.27  84.4915
 47.3236  7241.91  84.5518
 47.3656  7224.73  84.38
 47.4076  7110.04  83.5072
 47.4496  7098.99  83.5355
 47.4916  7163.04  84.103
 47.5336  7152.82  83.8572
 47.5756  7401.68  85.4277
 47.6176  7110.78  83.6296
 47.6596  7157.19  83.6133
 47.7016  7264.39  84.0545
 47.7436  7270.29  84.4335
 47.7856  7305.2  84.6631
 47.8276  7104.9  83.5377
 47.8696  7160.44  83.9478
 47.9116  7336.52  84.6889
 47.9536  7172.79  83.673
 47.9956  7089  83.8913
 48.0376  7027.95  83.3071
 48.0796  7205.53  84.4775
 48.1216  7193.16  84.2275
 48.1636  7300.49  84.4262
 48.2056  7229.85  84.2824
 48.2476  7213.2  84.491
 48.2896  7158.47  84.083
 48.3316  7105.02  83.7084
 48.3736  7106.5  83.7361
 48.4156  7053.45  83.2768
 48.4576  7018.68  83.3674
 48.4996  7154.68  83.6287
 48.5416  7133.89  83.8303
 48.5836  7196.61  83.8746
 48.6256  7173.73  83.9424
 48.6676  7010.91  83.4942
 48.7096  7079.4  83.1754
 48.7516  7107.64  83.4912
 48.7936  7052.41  83.2281
 48.8356  7115.27  83.648
 48.8776  7001.03  83.544
 48.9196  7132.82  83.6924
 48.9616  6943.08  82.9494
 49.0036  7090.94  84.1798
 49.0456  7032.88  83.8083
 49.0876  7095.63  83.718
 49.1296  6834.87  82.3267
 49.1716  6897.46  82.5751
 49.2136  6997.89  83.0973
 49.2556  7002.34  83.2683
 49.2976  6993.72  83.1819
 49.3396  6888.3  82.6036
 49.3816  7080.05  83.1715
 49.4236  7018.28  83.2385
 49.4656  6936.25  82.7236
 49.5076  7050.57  83.194
 49.5496  6883.47  82.2646
 49.5916  7080.16  83.3403
 49.6336  6949.35  82.7781
 49.6756  6943.98  82.9791
 49.7176  6998.8  83.2449
 49.7596  6888.77  82.3506
 49.8016  6979.79  82.8175
 49.8436  6928.62  82.809
 49.8856  6849.01  82.3363
 49.9276  6841.97  82.3949
 49.9696  6958.71  83.0776
 50.0116  6857.99  82.6085
 50.0536  6903.47  82.826
 50.0956  6811.42  82.3434
 50.1376  6884.47  82.477
 50.1796  6791.82  82.1922
 50.2216  6932.63  83.0372
 50.2636  6872.15  82.2906
 50.3056  6796.39  82.0117
 50.3476  6853.71  82.3738
 50.3896  6822.69  82.1605
 50.4316  6843.01  82.1212
 50.4736  6814.56  82.1679
 50.5156  6857.97  82.4169
 50.5576  6948.8  82.7209
 50.5996  6861.01  82.5916
 50.6416  6831.06  82.2265
 50.6836  6816.53  82.2017
 50.7256  6919.35  82.7388
 50.7676  6901.08  82.9531
 50.8096  6832.83  82.0808
 50.8516  6730.41  81.8747
 50.8936  6753.17  81.7877
 50.9356  6862.75  82.5602
 50.9776  6858.92  82.6782
 51.0196  6639.62  81.4819
 51.0616  6691.79  81.1327
 51.1036  6768.7  81.9501
 51.1456  6697.54  81.4351
 51.1876  6796.36  81.3753
 51.2296  6697.9  81.5335
 51.2716  6669.27  80.9434
 51.3136  6712.55  81.659
 51.3556  6671.69  81.0362
 51.3976  6637.73  80.9862
 51.4396  6532.51  80.637
 51.4816  6633.88  81.123
 51.5236  6693.78  81.5897
 51.5656  6528.68  80.1685
 51.6076  6662.07  81.0667
 51.6496  6664.46  81.2628
 51.6916  6691.11  81.7892
 51.7336  6685.41  81.8385
 51.7756  6745.82  81.9094
 51.8176  6615.57  81.217
 51.8596  6603.46  81.162
 51.9016  6833.92  82.158
 51.9436  6665.89  82.6111
 51.9856  6519.01  82.1232
 52.0276  6648.74  81.4471
 52.0696  6651.62  81.5322
 52.1116  6599.3  81.3211
 52.1536  6597.72  81.2039
 52.1956  6723.01  81.4276
 52.2376  6702.42  81.4803
 52.2796  6581.63  80.5536
 52.3216  6552.07  81.0593
 52.3636  6492.26  80.2726
 52.4056  6499.36  80.1678
 52.4476  6503.99  80.5672
 52.4896  6505.18  80.6172
 52.5316  6510.1  80.7034
 52.5736  6602.68  80.9922
 52.6156  6503.84  80.7667
 52.6576  6671.65  81.2413
 52.6996  6421.66  80.6652
 52.7416  6526.37  81.171
 52.7836  6552.76  81.2085
 52.8256  6501.44  80.1304
 52.8676  6372.83  79.9063
 52.9096  6562.47  81.1706
 52.9516  6471.62  80.9668
 52.9936  6439.99  81.1684
 53.0356  6373.08  79.762
 53.0776  6430.13  80.3803
 53.1196  6378.19  80.1797
 53.1616  6316.65  79.8392
 53.2036  6439.09  80.561
 53.2456  6414.67  80.5124
 53.2876  6463.51  80.5246
 53.3296  6365.69  80.2346
 53.3716  6436.12  80.4267
 53.4136  6430.07  80.5375
 53.4556  6310.03  79.8104
 53.4976  6371.48  80.0485
 53.5396  6381.22  80.4987
 53.5816  6320.77  79.7567
 53.6236  6372.98  80.3591
 53.6656  6309.86  79.6567
 53.7076  6518.93  80.9238
 53.7496  6397.9  80.2895
 53.7916  6489.15  80.9906
 53.8336  6341.19  79.9589
 53.8756  6243.94  79.889
 53.9176  6455.36  80.5702
 53.9596  6499.38  81.6089
 54.0016  6353.21  80.026
 54.0436  6503.04  81.1769
 54.0856  6413.71  80.041
 54.1276  6424.86  80.3133
 54.1696  6348.16  80.0049
 54.2116  6380.88  79.9683
 54.2536  6288.31  79.2015
 54.2956  6431.6  80.0878
 54.3376  6341.21  80.0666
 54.3796  6346.45  80.0016
 54.4216  6389.11  80.3074
 54.4636  6415.2  80.4933
 54.5056  6400.63  80.1644
 54.5476  6369.1  80.2997
 54.5896  6422.62  80.4703
 54.6316  6403.01  80.2035
 54.6736  6457.31  80.6188
 54.7156  6378.72  80.1464
 54.7576  6297.37  79.633
 54.7996  6420.92  80.54
 54.8416  6407.56  80.4253
 54.8836  6240.42  79.5695
 54.9256  6357.62  80.0588
 54.9676  6378.26  80.0449
 55.0096  6431.77  80.4548
 55.0516  6401.11  80.4925
 55.0936  6365.81  79.9014
 55.1356  6305.91  79.5656
 55.1776  6331.34  79.9956
 55.2196  6343.47  79.9136
 55.2616  6313.17  79.8734
 55.3036  6220.53  79.4451
 55.3456  6399.69  80.7305
 55.3876  6297.56  79.8295
 55.4296  6323.31  80.0054
 55.4716  6243.66  79.4984
 55.5136  6308.45  79.6666
 55.5556  6372.02  80.1408
 55.5976  6269.96  79.5503
 55.6396  6290.47  79.6252
 55.6816  6241.89  79.1975
 55.7236  6314.88  79.7006
 55.7656  6294.16  79.3301
 55.8076  6433.6  80.185
 55.8496  6281.6  79.5528
 55.8916  6344.65  80.1614
 55.9336  6216.01  79.1554
 55.9756  6315.2  79.6786
 56.0176  6239.77  79.3535
 56.0596  6368.49  80.1472
 56.1016  6325.86  79.8822
 56.1436  6289.75  79.9257
 56.1856  6288.23  79.6589
 56.2276  6257.25  79.5184
 56.2696  6262.8  79.5548
 56.3116  6240.79  79.7877
 56.3536  6304.61  79.8537
 56.3956  6232.37  79.3851
 56.4376  6228.96  79.3956
 56.4796  6310.92  79.7102
 56.5216  6287.09  79.9453
 56.5636  6267.79  79.4083
 56.6056  6231.33  79.4074
 56.6476  6246.93  79.1272
 56.6896  6295.04  79.8926
 56.7316  6188.81  79.1117
 56.7736  6285.88  79.74
 56.8156  6233.93  79.4014
 56.8576  6289.78  79.7025
 56.8996  6154.12  78.7751
 56.9416  6219.7  79.4997
 56.9836  6103.08  78.2696
 57.0256  6202.62  79.2164
 57.0676  6128.06  78.8614
 57.1096  6291.66  79.6955
 57.1516  6327.62  79.989
 57.1936  6192.09  78.8747
 57.2356  6270.93  79.7008
 57.2776  6215.66  79.3046
 57.3196  6245.96  79.656
 57.3616  6194.42  79.0305
 57.4036  6215.03  79.2203
 57.4456  6174.93  78.9351
 57.4876  6321.36  79.7213
 57.5296  6159.08  79.028
 57.5716  6205.16  79.3114
 57.6136  6216.72  79.2023
 57.6556  6173.38  79.0639
 57.6976  6222.18  79.1101
 57.7396  6137.81  79.0335
 57.7816  6130.47  79.3447
 57.8236  6145.55  79.2415
 57.8656  6265.99  79.6665
 57.9076  6237.02  79.5121
 57.9496  6117.72  79.1005
 57.9916  6135.55  78.7277
 58.0336  6297.69  80.0322
 58.0756  6183.27  78.9473
 58.1176  6195.05  79.0165
 58.1596  6147.43  79.2797
 58.2016  6291.33  79.4091
 58.2436  6315.21  79.9838
 58.2856  6225.91  79.332
 58.3276  6178.73  79.404
 58.3696  6190.65  79.2357
 58.4116  6209.54  79.2175
 58.4536  6317.88  79.7923
 58.4956  6165.72  79.0049
 58.5376  6201.66  78.9287
 58.5796  6193.68  79.175
 58.6216  6212.44  79.108
 58.6636  6223.66  79.3982
 58.7056  6133.19  78.6769
 58.7476  6243.25  79.8303
 58.7896  6116.52  78.6599
 58.8316  6264.65  79.7085
 58.8736  6296.7  79.8123
 58.9156  6100.58  78.6099
 58.9576  6272.14  80.0137
 58.9996  6309.81  79.4986
 59.0416  6386.59  80.3314
 59.0836  6238.97  79.344
 59.1256  6070.78  78.9663
 59.1676  6107.8  79.5079
 59.2096  6216.57  79.5138
 59.2516  6301.44  79.6268
 59.2936  6282.22  79.8399
 59.3356  6369.07  80.2643
 59.3776  6392.77  80.5873
 59.4196  6207.05  79.3438
 59.4616  6193.83  79.1169
 59.5036  6192.7  79.1451
 59.5456  6260.96  79.2684
 59.5876  6279.89  79.5829
 59.6296  6092.71  78.4574
 59.6716  6369.1  80.2768
 59.7136  6302.84  79.8461
 59.7556  6132.24  78.8956
 59.7976  6279.85  79.5766
 59.8396  6158.78  78.699
 59.8816  6262.04  79.9116
 59.9236  6333.7  80.0024
 59.9656  6200.75  79.4225
 60.0076  6150.43  78.451
 60.0496  6254.35  79.6174
 60.0916  6373.92  79.7835
 60.1336  6060.8  78.9083
 60.1756  6195.1  80.977
 60.1996  0.0000000E+00  0.0000000E+00