File: docs/examples/opeando_xrd/IS17_D/Data/IS17_D/17_Db_f00093.xye
# /beamlines/bl04/projects/cycle2025-II/20250340211-lsimonelli/DATA/IS17_D/17_Db_f00093.xye : mythproc.py merge -s 0.006 -l 0.5 -f /beamlines/bl04/inhouse/ff/FlatField/ff_20Nov2024rod8mm60s_17keV.raw -b True -c true -o xye /beamlines/bl04/projects/cycle2025-II/20250340211-lsimonelli/DATA/IS17_D/17_Db_00093.dat
# IsMon = [6795624, 6795091, 6789616]  IsPos = [-1.5000, -2.4884, -3.4989]
# Wave = 0.4962  CalPath /beamlines/bl04/projects/cycle2025-II/20250340211-lsimonelli/DATA/Align/Si_Pos1_25keV_f00001.cal
# Date = 2025-09-24_19:37:33 Dt = 4.8000  Bin = 0.0060  <imon> = 6793444 +/- 2715 (Min/Max) 6789616 / 6795624
# icurr 253.1827  mocoIn 1.7265E-05  mocoOut 0.8101  i15 7.11607e+06  imon 6.79344e+06  i7 7.3333  iEMpd_timer 4.8000  iEMpd_1 3.3530E-08  iEMpd_2 7.7555E-08  iEMpd_3 1.6519E-08  iEMpd_4 4.7171E-08  iEMhp_timer 4.8000  iEMhp_1 4.9445E-06  iEMhp_2 -2.5373E-08  iEMhp_3 -2.4305E-08  iEMhp_4 -2.1520E-08
#      9776
 1.5856  44343.6  216.197
 1.6276  50600  226.982
 1.6696  57735.6  241.604
 1.7116  63887.7  254.648
 1.7536  72678.8  270.446
 1.7956  76393.9  277.965
 1.8376  73758.8  273.562
 1.8796  63021.9  251.011
 1.9216  52302.6  229.578
 1.9636  45348.2  213.433
 2.0056  40810.1  201.179
 2.0476  38383.9  197.246
 2.0896  36609.4  191.503
 2.1316  35934.5  188.818
 2.1736  34084.1  185.351
 2.2156  34682.2  185.469
 2.2576  33400.1  182.663
 2.2996  31998.7  179.445
 2.3416  32459.3  179.29
 2.3836  31615.9  177.053
 2.4256  31013.3  175.929
 2.4676  30418.5  173.987
 2.5096  30174.8  173.346
 2.5516  28649.4  172.796
 2.5936  28952.8  170.208
 2.6356  28252.3  168.851
 2.6776  28380.3  168.121
 2.7196  27742.5  166.715
 2.7616  27706.7  166.391
 2.8036  27209  165.049
 2.8456  27336.7  166.093
 2.8876  26601.9  163.702
 2.9296  26155  162.448
 2.9716  26002.4  161.465
 3.0136  25933.6  161.32
 3.0556  25921.3  161.678
 3.0976  25730.6  159.977
 3.1396  25403.3  159.705
 3.1816  25039.2  158.494
 3.2236  25158.9  158.834
 3.2656  24890.4  157.043
 3.3076  24621  157.668
 3.3496  24841.6  157.286
 3.3916  25396.3  158.856
 3.4336  25717  160.449
 3.4756  26299.7  162.19
 3.5176  26591  162.847
 3.5596  26163.2  164.597
 3.6016  26609.2  163.005
 3.6436  25748.6  161.461
 3.6856  25283.8  158.293
 3.7276  24369.7  156.488
 3.7696  24258.8  156.116
 3.8116  23786.3  154.692
 3.8536  23942.2  155.129
 3.8956  23805.5  154.498
 3.9376  23582.8  154.046
 3.9796  23613.5  153.632
 4.0216  23714.2  152.983
 4.0636  23588.9  154.058
 4.1056  23676.4  153.994
 4.1476  23943.5  155.175
 4.1896  24164.5  155.745
 4.2316  24226.9  155.772
 4.2736  24764.7  157.291
 4.3156  24705.9  157.342
 4.3576  25699.4  160.369
 4.3996  25921.4  161.337
 4.4416  26264.3  161.982
 4.4836  26630.6  163.269
 4.5256  27298.9  165.908
 4.5676  27261.5  166.067
 4.6096  27866.2  166.906
 4.6516  28088.6  166.891
 4.6936  27948.2  167.324
 4.7356  28387.5  168.442
 4.7776  28198.4  167.713
 4.8196  28301.5  168.663
 4.8616  27557.4  165.921
 4.9036  27372.9  165.087
 4.9456  27420.7  165.902
 4.9876  26699.4  163.608
 5.0296  26922.9  164.126
 5.0716  26750.4  164.38
 5.1136  26853  164.392
 5.1556  27132.1  164.704
 5.1976  27678.3  166.33
 5.2396  27753.2  166.256
 5.2816  27761.9  166.752
 5.3236  27739.3  166.375
 5.3656  27154  165.558
 5.4076  27180.1  165.774
 5.4496  26954.7  164.589
 5.4916  27343.8  165.517
 5.5336  27218.3  165.217
 5.5756  27142.3  164.92
 5.6176  27519  165.5
 5.6596  27493.1  166.253
 5.7016  27463.6  165.586
 5.7436  27602.2  165.915
 5.7856  27768.2  166.852
 5.8276  27853.4  166.824
 5.8696  28145.7  167.744
 5.9116  28029.3  168.124
 5.9536  28358  168.841
 5.9956  28561.7  168.834
 6.0376  28524.7  169.352
 6.0796  28778.8  169.927
 6.1216  28592.9  169.591
 6.1636  29002.3  169.841
 6.2056  28708.3  169.665
 6.2476  29135.6  170.593
 6.2896  29372.6  171.159
 6.3316  29146.5  170.657
 6.3736  29312.3  171.038
 6.4156  29309.4  170.976
 6.4576  29576.7  171.319
 6.4996  29496  171.569
 6.5416  29730.6  172.366
 6.5836  29750.6  172.52
 6.6256  29692  172.056
 6.6676  30309.9  173.405
 6.7096  30271.4  174.149
 6.7516  30445.1  174.311
 6.7936  30789.6  174.704
 6.8356  30708.5  174.559
 6.8776  30829  175.714
 6.9196  31102.2  176.891
 6.9616  31331.7  176.979
 7.0036  31912.1  178.261
 7.0456  31678.4  176.908
 7.0876  31945.1  179.253
 7.1296  31726.4  177.862
 7.1716  31803.4  177.626
 7.2136  31423.4  176.337
 7.2556  31795.5  177.537
 7.2976  31643.2  177.593
 7.3396  31533.5  177.509
 7.3816  31492.3  177.613
 7.4236  31860.7  177.949
 7.4656  31988.4  177.755
 7.5076  32266  178.691
 7.5496  31878.1  178.151
 7.5916  32203.2  179.091
 7.6336  32635.1  180.242
 7.6756  32574.2  179.854
 7.7176  33064  181.518
 7.7596  32894.1  182.275
 7.8016  33563.2  186.362
 7.8436  33022.3  181.717
 7.8856  33054.7  181.258
 7.9276  33679.8  183.371
 7.9696  34079.5  184.752
 8.0116  35007.2  185.798
 8.0536  35235.5  186.653
 8.0956  35305.2  187.997
 8.1376  35612.8  188.304
 8.1796  35953.5  189.724
 8.2216  36409.6  189.426
 8.2636  36682.6  190.647
 8.3056  36414.8  190.724
 8.3476  37295.5  192.332
 8.3896  36809.4  191.156
 8.4316  37151.3  192.207
 8.4736  37232.3  191.888
 8.5156  36673.7  190.718
 8.5576  36370  190.876
 8.5996  36475.6  190.048
 8.6416  36396.6  191.078
 8.6836  35867.6  189.545
 8.7256  36556.9  190.787
 8.7676  36534.8  193.64
 8.8096  36908.1  191.924
 8.8516  37123.6  192.098
 8.8936  36207.1  189.623
 8.9356  36442.7  190.55
 8.9776  36319.7  190.328
 9.0196  36616.3  190.759
 9.0616  36075.2  188.934
 9.1036  35607.2  188.796
 9.1456  35744.8  188.507
 9.1876  35836  188.675
 9.2296  35596.5  187.498
 9.2716  35266.9  186.656
 9.3136  35397.4  186.994
 9.3556  35660.9  187.664
 9.3976  34632.8  185.439
 9.4396  34491.6  184.979
 9.4816  34418.5  184.629
 9.5236  34065.1  183.59
 9.5656  33805.9  183.243
 9.6076  33297.7  182.399
 9.6496  33654.3  183.243
 9.6916  33015.9  181.457
 9.7336  33450.9  182.41
 9.7756  33292.6  183.114
 9.8176  32985.5  181.881
 9.8596  33007.5  180.388
 9.9016  32507.8  179.004
 9.9436  32137.7  177.731
 9.9856  32049.6  177.931
 10.0276  31709.8  178.046
 10.0696  31914.8  177.67
 10.1116  30964  175.269
 10.1536  31175.5  175.527
 10.1956  30541.7  173.833
 10.2376  30732.2  173.885
 10.2796  30055.9  172.065
 10.3216  29691.5  171.159
 10.3636  29807.4  171.668
 10.4056  29306  170.623
 10.4476  29445.9  170.635
 10.4896  29859.1  171.275
 10.5316  29348.9  170.188
 10.5736  29200.8  170.511
 10.6156  29016.3  169.734
 10.6576  29133.7  168.629
 10.6996  28751.6  168.228
 10.7416  28133.7  166.625
 10.7836  27578.4  165.655
 10.8256  27350.5  165.419
 10.8676  27358.6  164.964
 10.9096  27123.3  164.293
 10.9516  26786.4  162.211
 10.9936  27058.2  163.254
 11.0356  26673  162.69
 11.0776  26533.6  161.59
 11.1196  26155.2  161.204
 11.1616  25791.2  159.748
 11.2036  26211  160.891
 11.2456  26050.2  161.101
 11.2876  26296.2  161.575
 11.3296  25714.6  159.71
 11.3716  26096.1  160.628
 11.4136  26084.8  161.424
 11.4556  25965.1  160.729
 11.4976  26567  161.554
 11.5396  26692.6  162.105
 11.5816  27111.7  163.808
 11.6236  26146.4  161.104
 11.6656  26276.9  160.649
 11.7076  25384.5  158.733
 11.7496  24812.2  160.109
 11.7916  24918.2  156.531
 11.8336  24574.2  156.337
 11.8756  24430.5  155.432
 11.9176  24481.1  155.259
 11.9596  24531.9  155.593
 12.0016  24159.8  155.173
 12.0436  24245.2  154.904
 12.0856  24010.4  154.656
 12.1276  23809.2  153.853
 12.1696  24045.8  153.83
 12.2116  23906.3  153.392
 12.2536  23957.6  154.332
 12.2956  23769.1  152.978
 12.3376  23960.2  153.918
 12.3796  23802  153.896
 12.4216  23832.7  153.19
 12.4636  23641.6  153.509
 12.5056  23784.6  153.323
 12.5476  23866.8  153.013
 12.5896  23603.5  152.819
 12.6316  23610.3  152.978
 12.6736  23535.4  153.228
 12.7156  23706.3  153.62
 12.7576  23534.1  153.31
 12.7996  23866.7  153.036
 12.8416  23486.1  152.858
 12.8836  23736.8  153.511
 12.9256  24294.2  154.33
 12.9676  24016.7  153.852
 13.0096  24302.5  155.864
 13.0516  24131.1  154.356
 13.0936  24265.5  154.911
 13.1356  24743.5  155.676
 13.1776  24097.6  154.641
 13.2196  24309.9  154.959
 13.2616  24110.3  154.648
 13.3036  24668  156.546
 13.3456  24229.4  155.506
 13.3876  24522.4  155.542
 13.4296  24065.1  154.25
 13.4716  24491.7  155.235
 13.5136  24238.2  154.561
 13.5556  24197  154.786
 13.5976  24435.5  155.993
 13.6396  24246.3  154.753
 13.6816  24535  156.008
 13.7236  24836.9  156.69
 13.7656  26397.9  161.971
 13.8076  27115.1  162.81
 13.8496  25644.1  159.203
 13.8916  24722.7  157.251
 13.9336  23821.4  153.646
 13.9756  23966.7  153.485
 14.0176  23700  153.204
 14.0596  23826.2  153.644
 14.1016  23513.6  153.056
 14.1436  23551.5  152.307
 14.1856  22969.8  150.715
 14.2276  22824  150.668
 14.2696  22977.1  151.064
 14.3116  22434.7  149.187
 14.3536  22324.1  148.972
 14.3956  22212.8  148.331
 14.4376  22662.7  149.609
 14.4796  22512.8  149.116
 14.5216  21988.3  148.152
 14.5636  21857.9  147.282
 14.6056  22126.3  147.737
 14.6476  22120.5  146.97
 14.6896  21582.4  145.716
 14.7316  21371.1  146.028
 14.7736  21181.6  144.523
 14.8156  20781.1  143.172
 14.8576  21000.5  143.79
 14.8996  20552.8  143.434
 14.9416  20260.2  142.431
 14.9836  20272.9  142.466
 15.0256  19682.9  139.301
 15.0676  19583.1  139.153
 15.1096  19523.2  138.785
 15.1516  19212  138.21
 15.1936  19232.7  137.729
 15.2356  18926.7  136.908
 15.2776  18973.3  137.094
 15.3196  18492  135.906
 15.3616  18381.2  135.268
 15.4036  18376.9  135.11
 15.4456  18540.3  135.358
 15.4876  18363.8  134.397
 15.5296  18146.2  133.872
 15.5716  17889.9  132.541
 15.6136  17788.2  132.478
 15.6556  18055.9  133.101
 15.6976  17782  131.996
 15.7396  17595.5  131.696
 15.7816  17468.9  130.738
 15.8236  17410.2  131.151
 15.8656  17373.4  130.862
 15.9076  16917.3  128.955
 15.9496  17844  135.228
 15.9916  17640.8  134.877
 16.0336  17782.5  132.263
 16.0756  17534.9  131.667
 16.1176  17309.6  130.754
 16.1596  16903.6  130.542
 16.2016  16849.4  129.107
 16.2436  16940.4  129.816
 16.2856  16937.8  129.315
 16.3276  16464.1  127.946
 16.3696  16818.1  129.137
 16.4116  16737.4  129.269
 16.4536  16922.6  129.793
 16.4956  16695.6  128.637
 16.5376  16340.5  127.465
 16.5796  16441.8  127.223
 16.6216  16479.8  127.637
 16.6636  16185.2  126.692
 16.7056  16528.7  127.874
 16.7476  16466.5  127.166
 16.7896  16320.5  127.342
 16.8316  16277.9  127.157
 16.8736  16548.8  128.449
 16.9156  16582.2  128.922
 16.9576  16192.2  128.177
 16.9996  16045  128.067
 17.0416  16359.5  127.682
 17.0836  16274.3  127.109
 17.1256  16108.5  126.462
 17.1676  16128  126.512
 17.2096  16035  126.039
 17.2516  16133.6  126.502
 17.2936  15743.3  125.02
 17.3356  15780.7  125.154
 17.3776  15638.9  124.777
 17.4196  15525.9  124.031
 17.4616  15604.3  124.243
 17.5036  15363.1  123.657
 17.5456  15180.8  123.551
 17.5876  15263.8  122.932
 17.6296  15411.3  123.328
 17.6716  15063.5  122.53
 17.7136  15021.5  122.492
 17.7556  14928.8  122.403
 17.7976  15118.7  122.907
 17.8396  14888.1  121.472
 17.8816  14783.3  121.607
 17.9236  14814.1  121.525
 17.9656  14731.3  121.725
 18.0076  14746.1  121.384
 18.0496  14672.6  120.201
 18.0916  14743.2  120.962
 18.1336  14595.3  120.54
 18.1756  14807.6  120.963
 18.2176  14565.6  120.183
 18.2596  14609.4  120.088
 18.3016  14683.9  120.654
 18.3436  14757.1  120.96
 18.3856  14631.8  120.773
 18.4276  14675.1  120.444
 18.4696  14397.9  119.389
 18.5116  14472  119.958
 18.5536  14350.8  119.826
 18.5956  14290.2  119.128
 18.6376  14156.9  118.967
 18.6796  14269  118.761
 18.7216  14322.7  119.473
 18.7636  14364.5  119.648
 18.8056  14084.3  118.405
 18.8476  13981.6  118.605
 18.8896  13959.7  117.845
 18.9316  14216.4  118.913
 18.9736  14094.7  118.095
 19.0156  13924.1  117.791
 19.0576  14220.3  117.875
 19.0996  14213.4  118.57
 19.1416  14027.5  118.179
 19.1836  13912.7  117.298
 19.2256  13833.6  117.295
 19.2676  13964.5  117.835
 19.3096  13811.5  117.434
 19.3516  13918.9  117.654
 19.3936  13785.1  117.169
 19.4356  14106.1  118.406
 19.4776  13862.6  117.477
 19.5196  13863  117.329
 19.5616  13776.4  117.221
 19.6036  13785  116.76
 19.6456  13892.1  117.329
 19.6876  13862.7  116.844
 19.7296  14072.4  118.177
 19.7716  13818.2  117.278
 19.8136  14122.9  118.758
 19.8556  14154.5  118.382
 19.8976  14134.6  118.346
 19.9396  14170.9  118.089
 19.9816  14093  118.025
 20.0236  14530.2  120.028
 20.0656  14451.9  119.71
 20.1076  14550.1  120.584
 20.1496  14245.5  119.315
 20.1916  14119.5  118.27
 20.2336  14040.1  117.897
 20.2756  13721.1  116.988
 20.3176  13655.1  116.455
 20.3596  13408.8  115.389
 20.4016  13526.9  115.683
 20.4436  13272.4  115.053
 20.4856  13468.1  115.775
 20.5276  13307.9  115.56
 20.5696  13314.6  115.147
 20.6116  13227  114.939
 20.6536  13275.9  114.64
 20.6956  13221.5  114.554
 20.7376  13042.5  113.995
 20.7796  12896.7  113.048
 20.8216  13311  114.561
 20.8636  13171.6  114.326
 20.9056  12983.7  113.451
 20.9476  13114.8  113.866
 20.9896  13190.9  114.058
 21.0316  13102  113.587
 21.0736  13000.6  113.657
 21.1156  12890.2  113.337
 21.1576  13037.7  114.014
 21.1996  12999.6  113.833
 21.2416  13007.4  113.687
 21.2836  13069.8  113.945
 21.3256  12909.4  113.371
 21.3676  12995.8  113.225
 21.4096  12771.3  112.622
 21.4516  12766.1  112.416
 21.4936  12630.9  112.084
 21.5356  12797.9  112.771
 21.5776  12871  112.925
 21.6196  12669.4  112.08
 21.6616  12686.9  112.243
 21.7036  12725.2  112.18
 21.7456  12584.8  111.636
 21.7876  12693  111.877
 21.8296  12645.8  111.512
 21.8716  12774.9  112.31
 21.9136  12858.9  112.886
 21.9556  12615.9  111.484
 21.9976  12572  111.324
 22.0396  12620  111.79
 22.0816  12563.8  112.079
 22.1236  12559.5  111.508
 22.1656  12695.8  112.613
 22.2076  12533.3  111.005
 22.2496  12465.9  110.725
 22.2916  12240.9  109.619
 22.3336  12300.3  110.587
 22.3756  12335.5  110.478
 22.4176  12143.8  109.47
 22.4596  11941.7  109.141
 22.5016  12156.5  109.617
 22.5436  12366.8  110.555
 22.5856  12542.2  111.465
 22.6276  12471.9  111.279
 22.6696  12327.5  110.995
 22.7116  12154.9  109.725
 22.7536  12320.8  110.455
 22.7956  12287.4  109.64
 22.8376  12069.9  109.191
 22.8796  12255.6  109.822
 22.9216  12458.4  111.278
 22.9636  12335  109.878
 23.0056  12076.8  108.854
 23.0476  12424.1  110.977
 23.0896  12584.6  111.069
 23.1316  12449.3  110.904
 23.1736  12488.5  113.997
 23.2156  12624.6  112.012
 23.2576  12982.4  113.704
 23.2996  12544.9  111.567
 23.3416  12786.7  113.149
 23.3836  12579.2  111.467
 23.4256  12883.9  112.927
 23.4676  12671.7  111.678
 23.5096  12425.5  111.252
 23.5516  12552.4  111.122
 23.5936  12581.2  112.16
 23.6356  12814.6  112.858
 23.6776  12549.6  111.907
 23.7196  12532.8  111.603
 23.7616  12475.9  111.073
 23.8036  12761  112.368
 23.8456  12625.7  111.181
 23.8876  12413.1  110.73
 23.9296  12239.5  110.457
 23.9716  12365.1  110.226
 24.0136  12312.2  110.89
 24.0556  12262.6  110.382
 24.0976  12144.9  109.665
 24.1396  12101.9  112.061
 24.1816  12194.1  110.922
 24.2236  12184.4  110.488
 24.2656  12138.3  109.748
 24.3076  11993.2  109.363
 24.3496  12007.2  109.302
 24.3916  12287.8  110.619
 24.4336  11946.9  109.279
 24.4756  12097.4  109.855
 24.5176  11905.8  108.61
 24.5596  11969.2  109.218
 24.6016  11643.3  107.818
 24.6436  11923.5  108.615
 24.6856  11638.4  107.049
 24.7276  11597  107.186
 24.7696  11656.7  107.569
 24.8116  11492.1  106.977
 24.8536  11474.2  106.904
 24.8956  11644.1  107.419
 24.9376  11469.6  106.789
 24.9796  11352.5  106.367
 25.0216  11364.3  106.518
 25.0636  11351.5  106.126
 25.1056  11184.1  106.032
 25.1476  11257.9  108.033
 25.1896  11128.4  105.93
 25.2316  11199.4  105.554
 25.2736  11124.3  104.84
 25.3156  11125.2  104.922
 25.3576  11112.3  105.291
 25.3996  11083.1  105.141
 25.4416  11081.5  105.103
 25.4836  10868.5  104.599
 25.5256  10929.9  104.268
 25.5676  11098.1  104.795
 25.6096  10830.1  104.09
 25.6516  11026.4  104.536
 25.6936  10963.7  104.552
 25.7356  10836.7  104.082
 25.7776  11006  104.568
 25.8196  10662.2  103.08
 25.8616  10785.5  103.614
 25.9036  10921.5  103.705
 25.9456  10752  103.498
 25.9876  10932.5  104.281
 26.0296  11013.2  104.327
 26.0716  10866.3  104.049
 26.1136  10910.4  104.192
 26.1556  10893  103.505
 26.1976  10808.6  104.023
 26.2396  10755  102.933
 26.2816  10949  104.46
 26.3236  10764.8  103.724
 26.3656  11004.1  104.587
 26.4076  10768.7  103.671
 26.4496  10969.8  104.233
 26.4916  10964.8  104.11
 26.5336  11244.6  105.863
 26.5756  11624  107.421
 26.6176  10920.9  104.142
 26.6596  10922.2  104.454
 26.7016  10686.3  103.083
 26.7436  10825.5  103.881
 26.7856  10630  102.926
 26.8276  10499.9  102.265
 26.8696  10529  102.264
 26.9116  10556.4  102.357
 26.9536  10580.7  102.51
 26.9956  10409.8  101.722
 27.0376  10523.6  102.489
 27.0796  10464  101.93
 27.1216  10617  102.727
 27.1636  10287.8  101.294
 27.2056  10304.5  101.268
 27.2476  10392.7  101.684
 27.2896  10198.5  100.853
 27.3316  10445.6  101.777
 27.3736  10229.1  100.994
 27.4156  10326.6  101.298
 27.4576  10299.3  101.388
 27.4996  10307  101.031
 27.5416  10264.4  101.124
 27.5836  10289.2  101.095
 27.6256  10201.2  100.842
 27.6676  10130.3  100.487
 27.7096  10289.2  101.147
 27.7516  10216.7  100.839
 27.7936  10483  102.375
 27.8356  10230  100.761
 27.8776  10425.3  101.774
 27.9196  10108  100.073
 27.9616  10081.3  100.157
 28.0036  10122.2  100.312
 28.0456  10066.4  100.175
 28.0876  9979.5  99.8262
 28.1296  9976.97  99.644
 28.1716  10215.3  100.842
 28.2136  10023  99.8614
 28.2556  9954.15  99.6281
 28.2976  9899.54  99.3466
 28.3396  9924.03  99.2427
 28.3816  9881.21  99.0281
 28.4236  9820.3  98.8793
 28.4656  9844.02  99.0348
 28.5076  9914.2  99.0248
 28.5496  10001.6  99.7161
 28.5916  9976.05  99.4072
 28.6336  9843.03  99.0632
 28.6756  9829.3  98.2153
 28.7176  9800.93  98.621
 28.7596  9739.12  98.2098
 28.8016  9717.23  98.1312
 28.8436  9685.75  98.2147
 28.8856  9839.69  98.8381
 28.9276  9718.91  98.4744
 28.9696  9642.08  97.7448
 29.0116  9708.04  98.2744
 29.0536  9589.97  97.8706
 29.0956  9673.86  98.0012
 29.1376  9533.82  97.2603
 29.1796  9605.56  97.6709
 29.2216  9586.24  97.4126
 29.2636  9681.43  97.9657
 29.3056  9562.9  97.1503
 29.3476  9608.59  97.9114
 29.3896  9698.95  98.4953
 29.4316  9548.13  97.0644
 29.4736  9452.27  96.6442
 29.5156  9459.97  96.5994
 29.5576  9353.04  96.7716
 29.5996  9402.38  96.3026
 29.6416  9357.28  96.1821
 29.6836  9444.89  96.5661
 29.7256  9413.07  96.964
 29.7676  9389.57  96.5117
 29.8096  9320.17  96.0916
 29.8516  9223.8  95.9295
 29.8936  9317.67  96.501
 29.9356  9486.52  97.128
 29.9776  9189.98  95.7483
 30.0196  9428.45  96.3656
 30.0616  9330.68  96.2443
 30.1036  9265.95  95.7286
 30.1456  9169.77  95.4722
 30.1876  9264.17  95.931
 30.2296  9189.06  95.5044
 30.2716  9332.26  95.8785
 30.3136  9238.98  96.2439
 30.3556  9499.31  97.5813
 30.3976  9442.19  98.7735
 30.4396  9672.38  97.3179
 30.4816  9587.1  96.5052
 30.5236  9630.83  96.7101
 30.5656  9420.1  96.3115
 30.6076  9397.9  95.9661
 30.6496  9273.3  95.3834
 30.6916  9334.24  95.7995
 30.7336  9461.21  96.575
 30.7756  9394.7  96.3199
 30.8176  9358.74  96.0679
 30.8596  9403.84  96.0406
 30.9016  9469.3  96.2637
 30.9436  9524.74  96.7769
 30.9856  9599.67  97.2574
 31.0276  9502.12  96.3981
 31.0696  9256.76  95.7053
 31.1116  9280.45  95.8054
 31.1536  9290.48  95.7225
 31.1956  9241.95  95.537
 31.2376  9126.51  94.9963
 31.2796  9327.94  95.5597
 31.3216  9224.91  94.9717
 31.3636  9279.63  95.9344
 31.4056  9232.67  96.9987
 31.4476  9256.16  95.0231
 31.4896  9212.35  95.2948
 31.5316  9288.14  95.0877
 31.5736  9354.6  95.2651
 31.6156  9418.84  95.5899
 31.6576  9349  95.312
 31.6996  9428.78  95.3869
 31.7416  9298.94  95.6805
 31.7836  9388.86  95.2653
 31.8256  9329.61  95.2532
 31.8676  9355.78  95.3494
 31.9096  9179.37  94.6899
 31.9516  9090.95  94.5354
 31.9936  9134.53  94.5937
 32.0356  9303.8  95.5188
 32.0776  9234.49  95.0578
 32.1196  9355.79  95.6962
 32.1616  9405.28  95.4833
 32.2036  9296.18  95.4407
 32.2456  9035.51  94.463
 32.2876  9255.68  95.1042
 32.3296  9039  93.9501
 32.3716  8877.41  93.2351
 32.4136  8943.55  93.7831
 32.4556  9095.42  93.9553
 32.4976  9105.66  93.9673
 32.5396  8950.22  93.1786
 32.5816  8962.37  93.3668
 32.6236  8974.37  93.4869
 32.6656  9086.39  94.623
 32.7076  8868.6  93.1427
 32.7496  8936.61  93.1634
 32.7916  8952.84  93.2146
 32.8336  8875.21  92.8995
 32.8756  9069.59  93.6342
 32.9176  8725.58  92.3234
 32.9596  8879.91  93.2097
 33.0016  8799.77  92.5529
 33.0436  9150.83  94.2893
 33.0856  8784.44  92.7424
 33.1276  8706.85  92.0689
 33.1696  8959.22  93.2285
 33.2116  8887.38  93.0804
 33.2536  8963.83  93.4646
 33.2956  8882.1  93.1227
 33.3376  8735.72  92.1955
 33.3796  8854.31  92.9395
 33.4216  8832.24  92.4189
 33.4636  8883.53  92.8437
 33.5056  8737.12  92.3126
 33.5476  8830.13  92.7722
 33.5896  8898.12  92.933
 33.6316  8845.99  92.9656
 33.6736  8651.2  92.1882
 33.7156  8669.85  92.045
 33.7576  8839.95  92.8575
 33.7996  8799.73  92.4183
 33.8416  8617.94  91.6363
 33.8836  8683.46  91.8912
 33.9256  8749.85  92.1554
 33.9676  8785.51  92.2466
 34.0096  8649.83  91.8435
 34.0516  8580.76  91.1199
 34.0936  8618.36  91.5038
 34.1356  8746.55  92.0045
 34.1776  8512.39  90.7682
 34.2196  8608.41  91.4625
 34.2616  8539.56  91.2244
 34.3036  8583.01  91.6923
 34.3456  8574.78  91.4178
 34.3876  8587.73  91.5453
 34.4296  8517.57  90.7686
 34.4716  8647.6  91.5729
 34.5136  8596.74  91.5325
 34.5556  8490.48  91.2321
 34.5976  8628.83  91.8039
 34.6396  8473.35  90.6643
 34.6816  8583.29  91.3536
 34.7236  8565.77  91.0372
 34.7656  8549.44  91.1602
 34.8076  8474.63  91.0904
 34.8496  8469.98  90.918
 34.8916  8580.69  91.3497
 34.9336  8529.88  91.0854
 34.9756  8599.65  91.393
 35.0176  8588.31  91.8405
 35.0596  8728.44  92.4025
 35.1016  8596.19  91.4555
 35.1436  8645.28  91.4055
 35.1856  8590.06  91.2454
 35.2276  8432.7  90.5855
 35.2696  8532.33  91.2989
 35.3116  8449.79  90.9445
 35.3536  8574.88  91.3658
 35.3956  8469.03  90.4741
 35.4376  8470.86  91.0461
 35.4796  8449.42  90.983
 35.5216  8482.94  91.1234
 35.5636  8170.32  90.1559
 35.6056  8401.16  90.455
 35.6476  8438.65  90.5423
 35.6896  8508.8  91.0076
 35.7316  8329.04  90.0252
 35.7736  8393.82  90.5563
 35.8156  8452.57  90.8639
 35.8576  8351.88  90.5843
 35.8996  8424.03  90.9435
 35.9416  8387.36  90.2528
 35.9836  8231.62  89.8601
 36.0256  8451.12  90.9504
 36.0676  8552.98  91.2465
 36.1096  8404.39  90.6016
 36.1516  8441.74  90.6959
 36.1936  8501.62  90.8442
 36.2356  8242.54  90.1069
 36.2776  8508.61  91.0138
 36.3196  8330.85  89.7413
 36.3616  8335.95  89.8422
 36.4036  8284.13  89.68
 36.4456  8309.27  90.0188
 36.4876  8181.31  89.2672
 36.5296  8271.51  89.7895
 36.5716  8181.31  89.8545
 36.6136  8125.4  88.58
 36.6556  8087.99  88.5738
 36.6976  8091.96  89.0841
 36.7396  8168.4  89.2321
 36.7816  7932.13  88.3047
 36.8236  8023.26  88.7266
 36.8656  7961.35  88.4645
 36.9076  8065.7  88.9101
 36.9496  7903.15  88.0137
 36.9916  7974.64  88.0373
 37.0336  8052.15  88.7803
 37.0756  8118.75  88.9364
 37.1176  7874.82  87.8534
 37.1596  7935.08  88.1957
 37.2016  7984.76  88.6933
 37.2436  8133.11  88.8298
 37.2856  7985.26  88.2708
 37.3276  7982.57  87.7924
 37.3696  7985.84  88.4996
 37.4116  8042.84  88.7426
 37.4536  7981.73  88.2638
 37.4956  7810.18  87.5579
 37.5376  8101.63  90.5496
 37.5796  8128.01  90.625
 37.6216  7931.09  87.8006
 37.6636  8106.64  88.6596
 37.7056  8002.27  88.2851
 37.7476  8179.19  88.7838
 37.7896  7886.83  87.6973
 37.8316  7976.64  88.3314
 37.8736  8122.44  88.6787
 37.9156  7961.16  87.7872
 37.9576  8005.76  87.9424
 37.9996  7819.4  86.6283
 38.0416  7971.79  88.2657
 38.0836  8200.2  89.4336
 38.1256  8092.22  88.8111
 38.1676  7844.24  87.5554
 38.2096  8060.94  88.3502
 38.2516  7965.07  88.0701
 38.2936  8274.32  89.5424
 38.3356  8016.96  88.0883
 38.3776  7921.02  87.7981
 38.4196  7934.76  87.7373
 38.4616  7864.88  87.5878
 38.5036  8059.74  88.512
 38.5456  7903.11  88.4632
 38.5876  7897.41  88.4496
 38.6296  7844.77  87.126
 38.6716  7953.23  87.5361
 38.7136  7897.59  87.1616
 38.7556  7877.66  87.5644
 38.7976  7975.76  88.0236
 38.8396  7882.33  87.968
 38.8816  7811.86  87.3786
 38.9236  7799.48  87.1056
 38.9656  7859.2  87.3526
 39.0076  7991.34  87.4854
 39.0496  7939.85  87.7572
 39.0916  7947.22  87.4432
 39.1336  7942.75  87.826
 39.1756  7913.12  87.724
 39.2176  7953.64  88.486
 39.2596  7981.69  88.5659
 39.3016  7959.28  88.0266
 39.3436  7862.84  87.8937
 39.3856  7975.46  87.9539
 39.4276  8076.17  89.0355
 39.4696  8082.02  88.6863
 39.5116  7944.18  88.4389
 39.5536  8026.49  89.3354
 39.5956  7927.14  87.8792
 39.6376  7936.58  87.932
 39.6796  7855.71  87.2205
 39.7216  7876.19  87.4537
 39.7636  8026.1  88.8341
 39.8056  7902.26  87.9425
 39.8476  7696.35  87.0348
 39.8896  7911.6  87.8751
 39.9316  7776.47  87.3613
 39.9736  7934.64  87.8237
 40.0156  7867.63  87.2886
 40.0576  7815.94  87.3466
 40.0996  7854.87  86.7594
 40.1416  7887.65  87.7202
 40.1836  8010.26  88.3016
 40.2256  7974.61  88.1228
 40.2676  7774.09  87.2022
 40.3096  7884.04  87.6645
 40.3516  7916.93  87.9619
 40.3936  8011.32  88.0368
 40.4356  7849.37  87.3486
 40.4776  8014.38  88.4907
 40.5196  7943.59  88.4026
 40.5616  8036.75  88.5532
 40.6036  7872.61  87.9069
 40.6456  7883.19  87.5803
 40.6876  7981.08  88.0984
 40.7296  7878.44  87.6774
 40.7716  7916.14  87.9841
 40.8136  7862.16  87.6497
 40.8556  7992.72  88.4962
 40.8976  7879.62  87.8024
 40.9396  7919.83  88.3656
 40.9816  7946.36  87.8083
 41.0236  7957.16  87.6622
 41.0656  8015.42  88.5141
 41.1076  7877.26  87.5243
 41.1496  7804.41  87.0139
 41.1916  7844.89  87.5607
 41.2336  7963.22  88.2142
 41.2756  7902.23  87.4864
 41.3176  8047.65  88.8929
 41.3596  7882.36  87.724
 41.4016  7832.99  87.71
 41.4436  7915.28  87.9459
 41.4856  7839.7  87.695
 41.5276  7914.8  88.1236
 41.5696  7796.67  87.0956
 41.6116  8013.53  88.6879
 41.6536  7855.68  87.6752
 41.6956  8025.19  88.5924
 41.7376  7738.98  87.0975
 41.7796  7821.41  87.4617
 41.8216  7978.16  88.5575
 41.8636  7877.9  87.9523
 41.9056  7757.2  87.0666
 41.9476  7839.05  87.756
 41.9896  7983.57  88.2189
 42.0316  7817.46  87.3895
 42.0736  7793.67  87.3804
 42.1156  7818.02  87.3334
 42.1576  7882.42  87.7954
 42.1996  7817.54  87.5585
 42.2416  7878.42  87.4016
 42.2836  7825.56  87.3081
 42.3256  7845.07  87.527
 42.3676  8008.17  88.2293
 42.4096  7911.14  87.6617
 42.4516  7859.79  87.5251
 42.4936  7728.98  86.8042
 42.5356  7766.4  87.1588
 42.5776  7921.33  87.9611
 42.6196  7838.52  87.5492
 42.6616  7702.13  86.9576
 42.7036  7945.2  87.6988
 42.7456  7931.28  87.9626
 42.7876  7795.11  87.3012
 42.8296  7837.26  87.3794
 42.8716  7639.12  86.4345
 42.9136  7677.67  86.4087
 42.9556  7790.61  87.2008
 42.9976  7877.64  87.655
 43.0396  7879.16  87.3946
 43.0816  7748.48  87.0508
 43.1236  7704.16  86.8504
 43.1656  7749.18  86.9295
 43.2076  7771.39  87.1684
 43.2496  7744.68  86.8346
 43.2916  7684.46  86.8544
 43.3336  7784.1  87.2439
 43.3756  7743.11  86.7719
 43.4176  7637.47  86.2672
 43.4596  7755.29  86.7865
 43.5016  7722.1  87.0042
 43.5436  7723.18  86.9175
 43.5856  7644.19  86.5028
 43.6276  7632.62  86.3161
 43.6696  7692.73  86.869
 43.7116  7804.92  87.0371
 43.7536  7748.45  87.2212
 43.7956  7581.21  87.4836
 43.8376  7568.77  85.9476
 43.8796  7591.25  86.1589
 43.9216  7606.01  86.1581
 43.9636  7516.14  85.7597
 44.0056  7550.35  86.1827
 44.0476  7526.22  85.7946
 44.0896  7369.23  85.1156
 44.1316  7552.75  85.6955
 44.1736  7438.68  85.1701
 44.2156  7560.51  85.7117
 44.2576  7519.73  85.8097
 44.2996  7514.39  85.745
 44.3416  7584.86  85.9207
 44.3836  7354.67  84.9248
 44.4256  7371.16  84.673
 44.4676  7583.29  86.0312
 44.5096  7493.13  85.6642
 44.5516  7408.55  85.139
 44.5936  7529.51  85.7895
 44.6356  7478.55  85.2371
 44.6776  7453.14  85.3971
 44.7196  7338.87  85.0621
 44.7616  7506.33  87.3282
 44.8036  7614.58  86.5822
 44.8456  7664.05  86.871
 44.8876  7586.45  86.3669
 44.9296  7679.37  86.236
 44.9716  7628.41  86.3823
 45.0136  7498.87  85.5907
 45.0556  7636.51  86.462
 45.0976  7671.85  86.6933
 45.1396  7433.5  85.0808
 45.1816  7525.6  85.5766
 45.2236  7632.28  86.0845
 45.2656  7430.05  85.4391
 45.3076  7623  86.3023
 45.3496  7503.9  85.955
 45.3916  7463.83  85.9852
 45.4336  7627.01  86.7526
 45.4756  7523.56  86.0287
 45.5176  7537.22  85.7108
 45.5596  7631.95  86.3774
 45.6016  7612.87  86.6957
 45.6436  7462.57  85.0135
 45.6856  7406.29  85.3346
 45.7276  7365.5  86.4166
 45.7696  7404.93  86.3247
 45.8116  7467.99  86.1062
 45.8536  7439.9  85.8349
 45.8956  7494.56  85.5025
 45.9376  7432.17  84.615
 45.9796  7462.94  85.4712
 46.0216  7669.19  86.9935
 46.0636  7633.82  85.9257
 46.1056  7461.38  84.9378
 46.1476  7543.2  85.998
 46.1896  7625.13  86.623
 46.2316  7383.19  85.0897
 46.2736  7610.35  86.6149
 46.3156  7548.16  86.0044
 46.3576  7451.56  85.6572
 46.3996  7520.72  86.2077
 46.4416  7575.94  86.0691
 46.4836  7371.44  85.2636
 46.5256  7333.44  85.0014
 46.5676  7439  85.7316
 46.6096  7373.54  85.2836
 46.6516  7549.7  85.3247
 46.6936  7498.68  85.5357
 46.7356  7632.47  86.3938
 46.7776  7336.69  85.6416
 46.8196  7406.89  85.7073
 46.8616  7354.98  85.2245
 46.9036  7270.23  84.3802
 46.9456  7333.52  84.3973
 46.9876  7433.29  85.0442
 47.0296  7333.37  85.072
 47.0716  7363.05  85.1578
 47.1136  7388.14  84.9744
 47.1556  7399.96  84.9143
 47.1976  7464.44  85.4432
 47.2396  7290.3  84.7596
 47.2816  7310.04  84.5691
 47.3236  7374.69  85.3138
 47.3656  7387.13  85.3156
 47.4076  7466.18  85.5022
 47.4496  7312.87  84.7846
 47.4916  7306.79  84.942
 47.5336  7426.88  85.454
 47.5756  7444.85  85.6766
 47.6176  7386.05  85.235
 47.6596  7371.05  84.8549
 47.7016  7536.46  85.6069
 47.7436  7397.17  85.1553
 47.7856  7442.45  85.447
 47.8276  7394.46  85.2271
 47.8696  7415.71  85.4288
 47.9116  7397.94  85.0383
 47.9536  7388.6  84.9331
 47.9956  7277.08  84.9992
 48.0376  7256.59  84.6515
 48.0796  7322.39  85.1572
 48.1216  7392.51  85.3872
 48.1636  7378.11  84.8637
 48.2056  7400.54  85.2697
 48.2476  7347.54  85.2649
 48.2896  7438.64  85.7089
 48.3316  7384.07  85.34
 48.3736  7418.88  85.5595
 48.4156  7412.64  85.4847
 48.4576  7336.91  85.2328
 48.4996  7495.69  85.5908
 48.5416  7433.81  85.569
 48.5836  7407.41  85.0947
 48.6256  7407.13  85.3023
 48.6676  7348.36  85.4804
 48.7096  7357.56  84.79
 48.7516  7388.21  85.1211
 48.7936  7262.07  84.554
 48.8356  7427.2  85.461
 48.8776  7304.72  85.335
 48.9196  7488.6  85.7519
 48.9616  7322.07  85.1752
 49.0036  7393.87  85.9517
 49.0456  7319.68  85.5023
 49.0876  7361.39  85.2746
 49.1296  7177.01  84.369
 49.1716  7160.83  84.3604
 49.2136  7353.19  85.1765
 49.2556  7349.96  85.1965
 49.2976  7346.16  85.2361
 49.3396  7245.78  84.7216
 49.3816  7253.78  84.3371
 49.4236  7371.64  85.2926
 49.4656  7217.73  84.4278
 49.5076  7290.73  84.5992
 49.5496  7344.04  84.9726
 49.5916  7245.92  84.3007
 49.6336  7233.52  84.4532
 49.6756  7355.35  85.3835
 49.7176  7272.67  84.8552
 49.7596  7224.85  84.3434
 49.8016  7288.05  84.6107
 49.8436  7258.7  84.7657
 49.8856  7271.26  84.8318
 49.9276  7185.25  84.4334
 49.9696  7274.76  84.9418
 50.0116  7190.51  84.5769
 50.0536  7287.52  85.0996
 50.0956  7283.97  85.1511
 50.1376  7294.28  84.8874
 50.1796  7286.95  85.1358
 50.2216  7200.14  84.6137
 50.2636  7233.97  84.4318
 50.3056  7121.29  83.9438
 50.3476  7222.34  84.5604
 50.3896  7209  84.4535
 50.4316  7277.94  84.69
 50.4736  7169.01  84.2726
 50.5156  7287.21  84.9631
 50.5576  7223.95  84.3397
 50.5996  7205.8  84.5179
 50.6416  7259  84.7573
 50.6836  7168.63  84.2815
 50.7256  7203.66  84.4183
 50.7676  7303.17  85.3085
 50.8096  7165.29  84.0414
 50.8516  7231.27  84.8539
 50.8936  7117.58  83.9698
 50.9356  7211.21  84.6267
 50.9776  7110.51  84.2006
 51.0196  7029.49  83.842
 51.0616  7047.08  83.2635
 51.1036  7180.5  84.4154
 51.1456  7158.48  84.1936
 51.1876  7072.23  83.0147
 51.2296  7016.89  83.3291
 51.2716  7036.65  83.1648
 51.3136  7085.5  83.9152
 51.3556  7030.81  83.2088
 51.3976  7097.67  83.7511
 51.4396  6987.9  83.4198
 51.4816  6979.71  83.2235
 51.5236  7065.55  83.8075
 51.5656  6934.84  82.6279
 51.6076  7055.9  83.4299
 51.6496  7041.64  83.5474
 51.6916  6944.1  83.3176
 51.7336  6981.8  83.6517
 51.7756  7025.71  83.59
 51.8176  6824  82.5027
 51.8596  7012.16  83.6464
 51.9016  7107.74  83.81
 51.9436  7058.3  85.0307
 51.9856  6999.09  85.0856
 52.0276  7100.44  84.1707
 52.0696  7045.01  83.8936
 52.1116  6983.37  83.6712
 52.1536  6949.69  83.2983
 52.1956  7035.49  83.3164
 52.2376  7120.68  83.9854
 52.2796  7112.63  83.7586
 52.3216  6871.93  83.0197
 52.3636  7079.46  83.8131
 52.4056  6988.46  83.1445
 52.4476  6992.66  83.5367
 52.4896  6867.42  82.8395
 52.5316  6962  83.4437
 52.5736  6851.74  82.5079
 52.6156  7029.68  83.9699
 52.6576  6975.16  83.0808
 52.6996  6760.74  82.7835
 52.7416  6814.21  83.0322
 52.7836  6980.91  83.8578
 52.8256  6892.12  82.5226
 52.8676  6722.96  82.0811
 52.9096  6978.52  83.6946
 52.9516  6874.5  83.4583
 52.9936  6916.08  84.0923
 53.0356  7024.91  83.7152
 53.0776  6866.04  83.0366
 53.1196  6785.4  82.6778
 53.1616  6998.74  84.0165
 53.2036  6876.43  83.2402
 53.2456  6889.67  83.4256
 53.2876  7049.53  84.0711
 53.3296  6898.75  83.4884
 53.3716  6961.75  83.6173
 53.4136  7007.17  84.0513
 53.4556  6946.16  83.7083
 53.4976  6861.37  83.0378
 53.5396  6916.76  83.7826
 53.5816  6972.71  83.7498
 53.6236  6817.49  83.1572
 53.6656  6882.45  83.1455
 53.7076  6976.49  83.6702
 53.7496  6947.79  83.6402
 53.7916  6948.79  83.7757
 53.8336  6893.78  83.3322
 53.8756  6830.47  83.5194
 53.9176  6830.08  82.8496
 53.9596  6683.73  82.7243
 54.0016  6687.04  82.0805
 54.0436  6563.98  81.5545
 54.0856  6802.06  82.4235
 54.1276  6779.16  82.4754
 54.1696  6548.83  81.2319
 54.2116  6708.1  81.9584
 54.2536  6628.22  81.281
 54.2956  6656.73  81.5141
 54.3376  6533.17  81.2378
 54.3796  6621.22  81.679
 54.4216  6506.9  80.8648
 54.4636  6674.97  82.0292
 54.5056  6687.7  81.9129
 54.5476  6544.43  81.3673
 54.5896  6532.69  81.1403
 54.6316  6595.03  81.377
 54.6736  6634.07  81.6975
 54.7156  6597.98  81.5043
 54.7576  6526.98  81.0089
 54.7996  6699.22  82.2716
 54.8416  6624.5  81.8588
 54.8836  6532.41  81.3592
 54.9256  6559.5  81.3028
 54.9676  6420.4  80.3079
 55.0096  6537.72  81.0669
 55.0516  6404.32  80.4609
 55.0936  6367.98  79.9037
 55.1356  6487.89  80.7022
 55.1776  6641.56  81.8794
 55.2196  6466.02  80.5863
 55.2616  6677.75  82.1256
 55.3036  6425.46  80.7175
 55.3456  6333.16  80.2992
 55.3876  6500.11  81.0551
 55.4296  6384.05  80.3369
 55.4716  6479.63  80.9483
 55.5136  6407.2  80.27
 55.5556  6703.59  82.1569
 55.5976  6396.65  80.3275
 55.6396  6398.26  80.2036
 55.6816  6416.53  80.2783
 55.7236  6432.84  80.4358
 55.7656  6472.93  80.4044
 55.8076  6383.09  79.8517
 55.8496  6499.7  80.9932
 55.8916  6329.53  80.0322
 55.9336  6487.19  80.8372
 55.9756  6331.98  79.758
 56.0176  6384.02  80.2245
 56.0596  6390.86  80.2619
 56.1016  6339.98  79.9721
 56.1436  6410.15  80.6699
 56.1856  6256.78  79.4422
 56.2276  6508.58  81.063
 56.2696  6321.24  79.8785
 56.3116  6454.89  81.09
 56.3536  6311.01  79.8598
 56.3956  6285.56  79.6773
 56.4376  6335.16  80.0259
 56.4796  6230.73  79.1833
 56.5216  6258.92  79.736
 56.5636  6269.28  79.3792
 56.6056  6436.32  80.6578
 56.6476  6333.01  79.6218
 56.6896  6445.97  80.7988
 56.7316  6278.58  79.6507
 56.7736  6179.11  79.0088
 56.8156  6301.17  79.8273
 56.8576  6155.73  78.8393
 56.8996  6246.53  79.3241
 56.9416  6207.8  79.3908
 56.9836  6390.84  80.0555
 57.0256  6213.5  79.2521
 57.0676  6396.03  80.5164
 57.1096  6246.49  79.3854
 57.1516  6159.79  78.8859
 57.1936  6281.55  79.3994
 57.2356  6210.73  79.2951
 57.2776  6248.7  79.4954
 57.3196  6259.44  79.9246
 57.3616  6259.4  79.4122
 57.4036  6172.71  78.9053
 57.4456  6376.64  80.1669
 57.4876  6286.96  79.485
 57.5296  6231.41  79.4554
 57.5716  6293.79  79.8677
 57.6136  6100.06  78.4606
 57.6556  6247.32  79.5264
 57.6976  6143.56  78.6859
 57.7396  6165.52  79.1757
 57.7816  6066.78  78.9109
 57.8236  6036.5  78.5616
 57.8656  6099.34  78.5824
 57.9076  6210.47  79.3129
 57.9496  6257.48  79.9819
 57.9916  6186.4  79.0259
 58.0336  6202.87  79.4208
 58.0756  6121.39  78.5103
 58.1176  6147.41  78.6825
 58.1596  6019.5  78.4563
 58.2016  5906.11  76.9592
 58.2436  5961.03  77.7168
 58.2856  5949.06  77.5657
 58.3276  5830.69  77.1486
 58.3696  5916.78  77.4683
 58.4116  5849.05  76.8954
 58.4536  6006.3  77.8018
 58.4956  5950.39  77.6216
 58.5376  5951.03  77.2005
 58.5796  5883.14  77.1804
 58.6216  5966.86  77.5452
 58.6636  5943.52  77.6066
 58.7056  5972.59  77.6496
 58.7476  5776.6  76.801
 58.7896  5791.17  76.5499
 58.8316  5942.52  77.5318
 58.8736  6063.11  78.3317
 58.9156  5814.8  76.7456
 58.9576  5935.68  77.8727
 58.9996  6033.95  77.7531
 59.0416  6004.87  77.9353
 59.0836  5906.81  77.2099
 59.1256  5783.81  77.0888
 59.1676  5835.59  77.7393
 59.2096  5944  77.787
 59.2516  6044.83  78.0247
 59.2936  5864.16  77.1732
 59.3356  5873.62  77.1148
 59.3776  5703.58  76.1547
 59.4196  5744.36  76.3645
 59.4616  5685.9  75.8385
 59.5036  5832.48  76.8448
 59.5456  6057.46  78.0055
 59.5876  5873.12  76.9979
 59.6296  5735.01  76.1547
 59.6716  5813.5  76.7309
 59.7136  5932.92  77.5033
 59.7556  5795.98  76.7374
 59.7976  5734.16  76.0758
 59.8396  5892.95  77.0174
 59.8816  5830.34  77.1434
 59.9236  5749.65  76.2598
 59.9656  5809.76  76.9133
 60.0076  5791.29  76.1612
 60.0496  5797.58  76.2269
 60.0916  5907.09  76.8417
 60.1336  5658.47  76.2795
 60.1756  5868.2  78.848
 60.1996  5861.76  81.0086