File: docs/examples/opeando_xrd/IS17_D/Data/IS17_D/17_Db_f00082.xye
# /beamlines/bl04/projects/cycle2025-II/20250340211-lsimonelli/DATA/IS17_D/17_Db_f00082.xye : mythproc.py merge -s 0.006 -l 0.5 -f /beamlines/bl04/inhouse/ff/FlatField/ff_20Nov2024rod8mm60s_17keV.raw -b True -c true -o xye /beamlines/bl04/projects/cycle2025-II/20250340211-lsimonelli/DATA/IS17_D/17_Db_00082.dat
# IsMon = [6750521, 6748251, 6751856]  IsPos = [-1.4999, -2.4883, -3.4988]
# Wave = 0.4962  CalPath /beamlines/bl04/projects/cycle2025-II/20250340211-lsimonelli/DATA/Align/Si_Pos1_25keV_f00001.cal
# Date = 2025-09-24_16:32:44 Dt = 4.8000  Bin = 0.0060  <imon> = 6750209 +/- 1488 (Min/Max) 6748251 / 6751856
# icurr 249.6408  mocoIn 1.7023E-05  mocoOut 0.7991  i15 7.07322e+06  imon 6.75021e+06  i7 5.0000  iEMpd_timer 4.8000  iEMpd_1 3.3112E-08  iEMpd_2 7.6959E-08  iEMpd_3 1.6850E-08  iEMpd_4 4.7469E-08  iEMhp_timer 4.8000  iEMhp_1 4.8757E-06  iEMhp_2 -2.5645E-08  iEMhp_3 -2.3769E-08  iEMhp_4 -2.0515E-08
#      9776
 1.5856  43561  214.31
 1.6276  50031.7  225.735
 1.6696  55854.1  237.667
 1.7116  63130.2  253.168
 1.7536  71058.8  267.452
 1.7956  74885.5  275.244
 1.8376  71738.6  269.826
 1.8796  61555.1  248.117
 1.9216  50719.9  226.109
 1.9636  43506.4  208.556
 2.0056  40248.8  199.818
 2.0476  37359.9  194.624
 2.0896  35451.9  188.477
 2.1316  35169.6  186.823
 2.1736  33102.7  182.688
 2.2156  33764.5  183.024
 2.2576  32416.2  179.976
 2.2996  31283.3  177.452
 2.3416  31776.9  177.419
 2.3836  30941  175.178
 2.4256  30097.3  173.336
 2.4676  29335  170.884
 2.5096  29294.7  170.822
 2.5516  29703.6  175.974
 2.5936  68732.1  262.242
 2.6356  28891.2  170.783
 2.6776  27622.3  165.895
 2.7196  27517.3  165.666
 2.7616  26995.5  164.277
 2.8036  26428.4  162.705
 2.8456  26546.6  163.708
 2.8876  25748.6  161.099
 2.9296  25472.1  160.352
 2.9716  25380.5  159.555
 3.0136  24998  158.415
 3.0556  25091.8  159.099
 3.0976  25109.2  158.05
 3.1396  24843.4  157.956
 3.1816  24782.5  157.407
 3.2236  24219.3  155.892
 3.2656  24203  154.895
 3.3076  24155.3  156.197
 3.3496  24186.5  155.239
 3.3916  24403.1  155.752
 3.4336  25082.1  158.487
 3.4756  25339.4  159.231
 3.5176  26041.7  161.191
 3.5596  25699  162.559
 3.6016  25839.4  160.634
 3.6436  25023.4  159.181
 3.6856  24688.4  156.417
 3.7276  23716.8  154.384
 3.7696  23461.7  153.733
 3.8116  23393  153.405
 3.8536  23415.3  153.402
 3.8956  23152.7  152.367
 3.9376  23378.9  153.379
 3.9796  23181  152.211
 4.0216  23169.4  151.226
 4.0636  23214.7  152.838
 4.1056  23061.3  151.99
 4.1476  23436.4  153.523
 4.1896  23557.7  153.782
 4.2316  23750.1  154.227
 4.2736  24023.8  154.916
 4.3156  24329  156.127
 4.3576  24917  157.904
 4.3996  25319.9  159.463
 4.4416  25709.5  160.262
 4.4836  26416.1  162.621
 4.5256  26807.9  164.421
 4.5676  26491.8  163.707
 4.6096  27108.5  164.249
 4.6516  27630  165.524
 4.6936  27564.6  166.155
 4.7356  27998.1  167.285
 4.7776  27734.8  166.324
 4.8196  27528.1  166.337
 4.8616  26881.6  163.884
 4.9036  26860.5  163.536
 4.9456  26651.1  163.554
 4.9876  25992.4  161.422
 5.0296  26300.1  162.218
 5.0716  25992.6  162.01
 5.1136  26273.8  162.611
 5.1556  26563.5  162.969
 5.1976  30163.1  173.628
 5.2396  27254.1  164.751
 5.2816  27213.8  165.102
 5.3236  27087  164.415
 5.3656  26768.1  164.376
 5.4076  26336.2  163.186
 5.4496  26447.4  163.03
 5.4916  26674.7  163.476
 5.5336  26554.5  163.121
 5.5756  26614.2  163.317
 5.6176  26657.2  162.892
 5.6596  27026.5  164.997
 5.7016  26997.1  164.174
 5.7436  27238.9  165.188
 5.7856  27054  164.692
 5.8276  27304.4  165.169
 5.8696  27447.7  165.769
 5.9116  27433.8  166.041
 5.9536  27732.8  166.97
 5.9956  27857.4  166.741
 6.0376  27917.3  167.538
 6.0796  28277.3  168.444
 6.1216  28243.8  168.589
 6.1636  28418.6  168.125
 6.2056  28336.2  168.556
 6.2476  28526.3  168.988
 6.2896  28813.7  169.522
 6.3316  28715  169.396
 6.3736  28801.9  169.549
 6.4156  29012.1  170.047
 6.4576  28927.6  169.425
 6.4996  28910.9  169.86
 6.5416  29044.3  170.368
 6.5836  29034.5  170.583
 6.6256  29357.8  171.081
 6.6676  29606.6  171.375
 6.7096  29748.4  172.645
 6.7516  29742.5  172.287
 6.7936  30435.8  173.683
 6.8356  30780.1  174.762
 6.8776  30486.6  174.733
 6.9196  30463.2  175.065
 6.9616  30698.5  175.188
 7.0036  31268.5  176.459
 7.0456  31433.1  176.227
 7.0876  31120.9  177.021
 7.1296  31099.8  176.101
 7.1716  31279.3  176.14
 7.2136  30964.7  175.034
 7.2556  31193.8  175.846
 7.2976  31150.5  176.216
 7.3396  30960.7  175.904
 7.3816  31088.8  176.477
 7.4236  31371.2  176.576
 7.4656  31601.6  176.682
 7.5076  31756  177.268
 7.5496  31519.4  177.134
 7.5916  31671.2  177.611
 7.6336  32236  179.077
 7.6756  32385.6  179.33
 7.7176  32771  180.724
 7.7596  32454.8  181.062
 7.8016  35308.3  191.159
 7.8436  32562.6  180.273
 7.8856  32748.9  180.406
 7.9276  33618.9  183.172
 7.9696  33723.2  183.769
 8.0116  34416  184.21
 8.0536  34846.1  185.604
 8.0956  35768.9  189.239
 8.1376  35335.2  187.557
 8.1796  35418.7  188.317
 8.2216  36463.6  189.816
 8.2636  36790.8  190.95
 8.3056  36327.3  190.46
 8.3476  37418.5  192.639
 8.3896  36871.5  191.302
 8.4316  36626.8  190.833
 8.4736  36415.8  189.76
 8.5156  36423.5  190.052
 8.5576  36208.3  191.064
 8.5996  35972.7  188.722
 8.6416  35929.5  189.857
 8.6836  35693.6  189.052
 8.7256  36511.3  190.676
 8.7676  37664.8  196.592
 8.8096  37985.3  194.681
 8.8516  36635.5  190.761
 8.8936  37184.6  192.137
 8.9356  36398.7  190.427
 8.9776  36467  190.689
 9.0196  36407.6  190.205
 9.0616  36333  189.511
 9.1036  36989.7  192.399
 9.1456  35508.3  187.836
 9.1876  35666.3  188.203
 9.2296  35318.9  186.726
 9.2716  35164  186.354
 9.3136  35059.7  186.077
 9.3556  35454.6  187.091
 9.3976  34476.7  185.017
 9.4396  34327.2  184.511
 9.4816  34285.7  184.265
 9.5236  33940.4  183.229
 9.5656  33790.4  183.178
 9.6076  32943.1  181.386
 9.6496  33153.9  181.859
 9.6916  32994.5  181.379
 9.7336  33437.6  182.379
 9.7756  32708.8  181.632
 9.8176  32810.1  181.439
 9.8596  33026.5  180.482
 9.9016  32276.3  178.403
 9.9436  32308.9  178.415
 9.9856  32232.2  178.473
 10.0276  31105.2  176.363
 10.0696  31627.6  176.895
 10.1116  30878.3  175.058
 10.1536  30588.1  174.39
 10.1956  30167.6  172.806
 10.2376  30076.4  172.046
 10.2796  30126.8  172.304
 10.3216  29905.6  171.96
 10.3636  29786.2  171.645
 10.4056  30537.8  174.214
 10.4476  30635.5  174.084
 10.4896  32353.8  178.457
 10.5316  30673.3  174.381
 10.5736  29438.4  171.245
 10.6156  29075  169.936
 10.6576  31000.5  173.995
 10.6996  28887.5  168.66
 10.7416  28171.2  166.768
 10.7836  28207.3  167.548
 10.8256  27417  165.604
 10.8676  27341.3  164.923
 10.9096  27319.9  164.879
 10.9516  26787  162.217
 10.9936  27221.2  163.736
 11.0356  27067.2  163.884
 11.0776  27212.1  163.655
 11.1196  26579.5  162.506
 11.1616  26084.6  160.657
 11.2036  26534.6  161.88
 11.2456  27528.1  165.626
 11.2876  26304.4  161.617
 11.3296  25878.4  160.211
 11.3716  26410.4  161.537
 11.4136  26133.1  161.576
 11.4556  26173.8  161.36
 11.4976  26982.9  162.816
 11.5396  27121.4  163.41
 11.5816  26290.6  161.329
 11.6236  25555.6  159.288
 11.6656  25742.1  159.015
 11.7076  24985.3  157.487
 11.7496  25062  161.721
 11.7916  25093.6  157.078
 11.8336  24354.9  155.628
 11.8756  24486.4  155.609
 11.9176  24449.2  155.171
 11.9596  24409.2  155.21
 12.0016  24190.6  155.008
 12.0436  24277.7  155.004
 12.0856  23769.4  153.879
 12.1276  23879.9  154.184
 12.1696  23829.4  153.142
 12.2116  23877  153.299
 12.2536  25085.6  157.965
 12.2956  23728.2  152.973
 12.3376  23820.8  153.476
 12.3796  23733.4  153.677
 12.4216  23735.6  152.88
 12.4636  24258.4  155.501
 12.5056  23487.7  152.281
 12.5476  23708.4  152.512
 12.5896  23240.9  151.637
 12.6316  23579.3  152.886
 12.6736  23267.9  152.542
 12.7156  23590.4  153.248
 12.7576  23326.6  152.643
 12.7996  23545  152.006
 12.8416  23605.8  153.25
 12.8836  24106.5  154.601
 12.9256  23893.8  153.048
 12.9676  24052.7  153.968
 13.0096  23985.4  154.857
 13.0516  24039.3  154.061
 13.0936  24167.7  154.885
 13.1356  24376.6  154.514
 13.1776  23985.2  154.283
 13.2196  23990  153.94
 13.2616  23647.1  153.148
 13.3036  23889.6  153.894
 13.3456  23792.9  153.925
 13.3876  24503.5  155.486
 13.4296  23991.2  154.013
 13.4716  24268.8  154.534
 13.5136  24081.4  154.052
 13.5556  24178.6  155.005
 13.5976  24051.3  154.764
 13.6396  24335.9  155.035
 13.6816  24375.1  155.63
 13.7236  24643.6  156.057
 13.7656  26076.3  160.998
 13.8076  27249.6  163.188
 13.8496  26360.5  161.199
 13.8916  24646.9  157.013
 13.9336  23698.4  153.237
 13.9756  23771.6  152.856
 14.0176  23309.8  152.045
 14.0596  24013.8  154.244
 14.1016  23321  152.427
 14.1436  23342  151.631
 14.1856  22900.6  150.48
 14.2276  22957.9  151.142
 14.2696  23042.9  151.285
 14.3116  22408.7  149.093
 14.3536  22048  148.046
 14.3956  22064  147.837
 14.4376  22315.2  148.463
 14.4796  22244.9  148.227
 14.5216  21718.2  147.237
 14.5636  22108.2  148.125
 14.6056  21873.2  146.892
 14.6476  21714.4  145.609
 14.6896  21355.5  144.943
 14.7316  21079.3  145.033
 14.7736  20986.4  143.862
 14.8156  20637.9  142.684
 14.8576  20913.3  143.491
 14.8996  20381  142.836
 14.9416  19910.9  141.198
 14.9836  19877.3  141.054
 15.0256  19585.8  138.944
 15.0676  19290.4  138.326
 15.1096  19338.1  138.115
 15.1516  19020.7  137.526
 15.1936  18828.7  136.269
 15.2356  18821.6  136.4
 15.2776  18642.8  135.461
 15.3196  18393  135.528
 15.3616  18304.7  134.961
 15.4036  18218.6  134.509
 15.4456  18561.1  135.425
 15.4876  18189.9  133.75
 15.5296  17938.2  133.108
 15.5716  17778.4  132.114
 15.6136  17717.1  132.213
 15.6556  18543.9  134.497
 15.6976  17959.1  132.657
 15.7396  17439.2  131.092
 15.7816  17701.6  131.6
 15.8236  17106.4  130.04
 15.8656  17109.6  129.856
 15.9076  17100.6  129.649
 15.9496  18010.2  135.867
 15.9916  17585.7  134.669
 16.0336  17627.8  131.692
 16.0756  17277.8  130.688
 16.1176  17221.1  130.561
 16.1596  16791.7  130.092
 16.2016  16690  128.464
 16.2436  16822.8  129.351
 16.2856  16769.1  128.658
 16.3276  16466.5  127.93
 16.3696  16569.8  128.163
 16.4116  16381.2  127.876
 16.4536  16689.2  128.878
 16.4956  16850.1  129.226
 16.5376  16523.6  128.163
 16.5796  16346.2  126.844
 16.6216  16222.6  126.619
 16.6636  16163.6  126.577
 16.7056  16405.8  127.378
 16.7476  16385.3  126.828
 16.7896  16489.3  127.99
 16.8316  16339  127.377
 16.8736  16651.3  128.843
 16.9156  16429.1  128.316
 16.9576  16030.9  127.548
 16.9996  16030.5  128.018
 17.0416  16168.2  126.964
 17.0836  16031  126.181
 17.1256  15867  125.541
 17.1676  16071  126.301
 17.2096  15909  125.559
 17.2516  15761.6  124.773
 17.2936  15488.4  124.029
 17.3356  15629.4  124.578
 17.3776  15532.6  124.379
 17.4196  15325.6  123.254
 17.4616  15569.4  124.133
 17.5036  15543.6  124.406
 17.5456  15286.7  123.987
 17.5876  15200.4  122.696
 17.6296  14944.1  121.495
 17.6716  15080.7  122.625
 17.7136  15339  123.799
 17.7556  14907.7  122.338
 17.7976  14904.2  122.055
 17.8396  15025.4  122.058
 17.8816  14630.3  121.006
 17.9236  14709.2  121.116
 17.9656  14811.3  122.065
 18.0076  15064.5  122.673
 18.0496  14968.8  121.425
 18.0916  17084.5  130.298
 18.1336  15996.2  126.197
 18.1756  15068.7  122.022
 18.2176  15676.2  124.677
 18.2596  14756.4  120.691
 18.3016  15021.9  122.039
 18.3436  15008.7  121.99
 18.3856  14893.1  121.649
 18.4276  14689  120.497
 18.4696  14794.9  121.013
 18.5116  14717.8  120.974
 18.5536  14473.4  120.321
 18.5956  14454.2  119.808
 18.6376  14351.1  119.791
 18.6796  14251.7  118.684
 18.7216  14328.3  119.506
 18.7636  14302.6  119.387
 18.8056  13957.5  117.868
 18.8476  13809.6  117.867
 18.8896  14082.4  118.345
 18.9316  14092.2  118.384
 18.9736  13974.5  117.589
 19.0156  13998  118.108
 19.0576  14190.9  117.753
 19.0996  14061.5  118.075
 19.1416  14006  118.091
 19.1836  13797.2  116.822
 19.2256  13759.7  116.884
 19.2676  13802.4  117.15
 19.3096  13779.3  117.298
 19.3516  13769.6  117.214
 19.3936  13897.7  117.658
 19.4356  13992.7  117.928
 19.4776  13780.4  117.121
 19.5196  13761.3  116.893
 19.5616  13600.8  116.468
 19.6036  13562.9  115.808
 19.6456  13826.5  117.05
 19.6876  14068.5  117.71
 19.7296  14047  118.073
 19.7716  13804.6  117.227
 19.8136  14188.6  119.043
 19.8556  14242.5  118.75
 19.8976  14128.8  118.326
 19.9396  14174.9  118.113
 19.9816  14266.6  118.809
 20.0236  14689.9  120.686
 20.0656  14169.5  118.535
 20.1076  13993.1  118.263
 20.1496  13682.8  116.936
 20.1916  13847.1  117.162
 20.2336  13687.8  116.414
 20.2756  13481.5  115.955
 20.3176  13263.8  114.774
 20.3596  13235.7  114.636
 20.4016  13413.7  115.196
 20.4436  13188.8  114.788
 20.4856  13195.9  114.615
 20.5276  13145.6  114.853
 20.5696  13331.1  115.109
 20.6116  13212.6  114.872
 20.6536  13037.2  113.631
 20.6956  13008  113.63
 20.7376  12938  113.537
 20.7796  12876.8  112.962
 20.8216  13106.2  113.674
 20.8636  13219.9  114.544
 20.9056  13320.8  114.918
 20.9476  13069.8  113.671
 20.9896  13169.4  113.97
 21.0316  13025  113.249
 21.0736  12978.8  113.565
 21.1156  13082.2  114.173
 21.1576  13062  114.128
 21.1996  12953.5  113.635
 21.2416  12946.5  113.426
 21.2836  12925.8  113.31
 21.3256  12814.3  112.899
 21.3676  12916.5  112.882
 21.4096  12923.1  113.24
 21.4516  12740.9  112.305
 21.4936  12549.1  111.73
 21.5356  12770.9  112.652
 21.5776  12824.2  112.72
 21.6196  12691.5  112.181
 21.6616  12827.1  112.857
 21.7036  12706.4  112.09
 21.7456  12712.6  112.2
 21.7876  12516.6  111.095
 21.8296  12486.5  110.805
 21.8716  12591.4  111.501
 21.9136  12773.5  112.509
 21.9556  12805.9  112.322
 21.9976  12512.4  111.055
 22.0396  12460.9  111.082
 22.0816  12454.4  111.577
 22.1236  12680.7  112.045
 22.1656  12526.8  111.503
 22.2076  12187.4  109.454
 22.2496  12229.3  109.675
 22.2916  12196.5  109.41
 22.3336  12246.4  110.349
 22.3756  12193.7  109.834
 22.4176  12201.1  109.725
 22.4596  11949.1  109.153
 22.5016  12253.4  110.048
 22.5436  12325.9  110.245
 22.5856  12448.7  111.041
 22.6276  12285.8  110.484
 22.6696  12293.2  110.833
 22.7116  12192.8  109.901
 22.7536  12157.2  109.712
 22.7956  12255.1  109.498
 22.8376  12006.9  108.884
 22.8796  12240.2  109.745
 22.9216  12302.7  110.562
 22.9636  12121  108.906
 23.0056  12250.6  109.625
 23.0476  12371.3  110.733
 23.0896  12467.6  110.544
 23.1316  12299.6  110.228
 23.1736  12229.7  112.611
 23.2156  12473.2  111.316
 23.2576  12746.6  112.659
 23.2996  12402  110.915
 23.3416  12512.7  111.927
 23.3836  12476  111.001
 23.4256  12613.6  111.731
 23.4676  12623.4  111.465
 23.5096  12562  111.845
 23.5516  12365.8  110.28
 23.5936  12515  111.853
 23.6356  12566.8  111.749
 23.6776  12366.6  111.054
 23.7196  12296.6  110.328
 23.7616  12431.1  110.85
 23.8036  12513.3  111.269
 23.8456  12322.6  109.976
 23.8876  12285.8  110.166
 23.9296  12209.7  110.305
 23.9716  12229.9  109.607
 24.0136  12225.2  110.484
 24.0556  12206.8  110.106
 24.0976  12061.8  109.277
 24.1396  11817.6  110.745
 24.1816  12115.7  110.568
 24.2236  12023.9  109.769
 24.2656  12037.9  109.32
 24.3076  11798.2  108.493
 24.3496  11972.2  109.172
 24.3916  12087.9  109.744
 24.4336  11750.9  108.408
 24.4756  12018.7  109.519
 24.5176  11719.4  107.784
 24.5596  11621.3  107.437
 24.6016  11564.1  107.477
 24.6436  11893.5  108.497
 24.6856  11776.8  107.714
 24.7276  11563.9  107.06
 24.7696  11508.8  106.902
 24.8116  11519.7  107.141
 24.8536  11526.5  107.171
 24.8956  11399.3  106.311
 24.9376  11447.2  106.454
 24.9796  11245.5  105.877
 25.0216  11375.5  106.599
 25.0636  11580.4  107.214
 25.1056  11222.6  106.238
 25.1476  11137.9  107.457
 25.1896  11132.9  105.952
 25.2316  11171.7  105.411
 25.2736  11106.4  104.764
 25.3156  11002  104.327
 25.3576  10957.8  104.552
 25.3996  11110  105.265
 25.4416  10970.8  104.582
 25.4836  10896.6  104.739
 25.5256  10941  104.322
 25.5676  10951.8  104.103
 25.6096  10863.4  104.251
 25.6516  10949.4  104.176
 25.6936  10990.6  104.68
 25.7356  10761.8  103.721
 25.7776  11053  104.703
 25.8196  10713.9  103.336
 25.8616  10742.7  103.4
 25.9036  10987  104.024
 25.9456  10846  103.954
 25.9876  10725.4  103.433
 26.0296  10886.5  103.731
 26.0716  10805  103.757
 26.1136  10842.8  103.875
 26.1556  10944.3  103.738
 26.1976  10722  103.609
 26.2396  10679  102.561
 26.2816  10826.1  103.87
 26.3236  10732.5  103.576
 26.3656  10786.9  103.559
 26.4076  10694.7  103.299
 26.4496  10931.2  104.05
 26.4916  11071.4  104.62
 26.5336  11381.4  106.414
 26.5756  11605.6  107.335
 26.6176  11004.9  104.501
 26.6596  10837  104.055
 26.7016  10664.6  102.983
 26.7436  10651.7  103.041
 26.7856  10372.5  101.676
 26.8276  10495.6  102.239
 26.8696  10500.4  102.134
 26.9116  10405.1  101.608
 26.9536  10399.1  101.627
 26.9956  10301.6  101.187
 27.0376  10468  102.222
 27.0796  10373  101.493
 27.1216  10467.7  102.014
 27.1636  10222.9  100.974
 27.2056  10361.7  101.547
 27.2476  10283  101.138
 27.2896  10181.8  100.791
 27.3316  10193.9  100.541
 27.3736  10054.7  100.123
 27.4156  10270.3  101.027
 27.4576  10250.5  101.146
 27.4996  10415.6  101.567
 27.5416  10305  101.329
 27.5836  10183.4  100.572
 27.6256  10126  100.467
 27.6676  10141.4  100.541
 27.7096  10097.5  100.199
 27.7516  10282.3  101.26
 27.7936  10553.3  102.735
 27.8356  10456.8  101.864
 27.8776  10526.8  102.276
 27.9196  10214.9  100.603
 27.9616  10311.1  101.282
 28.0036  10115.8  100.28
 28.0456  9977.32  99.7299
 28.0876  9983.73  99.8408
 28.1296  10026.6  99.8309
 28.1716  10103.2  100.292
 28.2136  10016.2  99.8262
 28.2556  9890.88  99.3057
 28.2976  9880.17  99.2556
 28.3396  9898.22  99.1042
 28.3816  9932.47  99.2827
 28.4236  9874.66  99.1496
 28.4656  9703.91  98.325
 28.5076  9788.92  98.4026
 28.5496  9864.11  99.0306
 28.5916  9838.68  98.7215
 28.6336  9833.28  99.0286
 28.6756  9699.46  97.5611
 28.7176  9750.56  98.2571
 28.7596  9651.41  97.7561
 28.8016  9647.85  97.7828
 28.8436  9633.23  97.9413
 28.8856  9630.66  97.8383
 28.9276  9733.95  98.55
 28.9696  9612.83  97.5921
 29.0116  9593.9  97.685
 29.0536  9468.24  97.2495
 29.0956  9648.96  97.87
 29.1376  9564.9  97.4205
 29.1796  9710.45  98.2075
 29.2216  9515.53  97.0545
 29.2636  9550.33  97.3115
 29.3056  9680.34  97.7452
 29.3476  9566.13  97.7004
 29.3896  9626.07  98.1161
 29.4316  9597.68  97.3068
 29.4736  9377.98  96.2454
 29.5156  9463.26  96.6122
 29.5576  9303.88  96.5231
 29.5996  9429.49  96.4358
 29.6416  9311.5  95.9516
 29.6836  9350.66  96.0777
 29.7256  9280.75  96.0416
 29.7676  9420.51  96.6567
 29.8096  9213.54  95.5363
 29.8516  9176.24  95.6667
 29.8936  9305.22  96.4292
 29.9356  9296.58  96.1427
 29.9776  9117.14  95.359
 30.0196  9154.27  95.2183
 30.0616  9277.48  95.961
 30.1036  9233.65  95.5592
 30.1456  9175.47  95.487
 30.1876  9209.72  95.6529
 30.2296  9193.76  95.5046
 30.2716  9418.93  96.3155
 30.3136  9246.1  96.2751
 30.3556  9471.35  97.4421
 30.3976  9374.79  98.4197
 30.4396  9781.04  97.8562
 30.4816  9489.74  96.0016
 30.5236  9607.93  96.5905
 30.5656  9305.01  95.7088
 30.6076  9509.72  96.1691
 30.6496  9380.99  95.9234
 30.6916  9298.51  95.5909
 30.7336  9255.03  95.5163
 30.7756  9292.76  95.7892
 30.8176  9405.38  96.2979
 30.8596  9518.32  96.6188
 30.9016  9285.52  95.7828
 30.9436  9386.06  96.0514
 30.9856  9442.12  96.46
 31.0276  9185.48  94.7673
 31.0696  9246.88  95.6395
 31.1116  9262.18  95.6776
 31.1536  9306.46  95.7941
 31.1956  9218.81  95.4155
 31.2376  9070.34  94.6774
 31.2796  9294.34  95.3876
 31.3216  9344.61  95.5757
 31.3636  9195.16  95.5018
 31.4056  9319.53  97.449
 31.4476  9323.3  95.3887
 31.4896  9253.59  95.528
 31.5316  9404.64  95.7115
 31.5736  9667.94  96.8648
 31.6156  9434.41  95.696
 31.6576  9390.65  95.5453
 31.6996  9399.44  95.2704
 31.7416  9217.04  95.4188
 31.7836  9234.1  94.5109
 31.8256  9235.45  94.7828
 31.8676  9404.33  95.6252
 31.9096  9211.95  95.0228
 31.9516  9032.95  94.266
 31.9936  8861.61  93.1882
 32.0356  9125.2  94.6008
 32.0776  9314.34  95.4779
 32.1196  9172.64  94.8614
 32.1616  9367.82  95.3111
 32.2036  9117.53  94.5324
 32.2456  9098.46  94.8183
 32.2876  9242.41  95.0609
 32.3296  9090.92  94.2328
 32.3716  8895.72  93.3349
 32.4136  8915.07  93.6338
 32.4556  9047.25  93.7124
 32.4976  8988.38  93.316
 32.5396  8896.11  92.8993
 32.5816  8937.21  93.2405
 32.6236  8917.73  93.2008
 32.6656  9004.67  94.1994
 32.7076  8828.28  92.9299
 32.7496  8821.11  92.5697
 32.7916  8841.81  92.6384
 32.8336  8782.4  92.4185
 32.8756  8939.21  92.9582
 32.9176  8891.54  93.1998
 32.9596  8792.87  92.7439
 33.0016  8960.96  93.4072
 33.0436  8902.14  93.2771
 33.0856  8912.24  93.4141
 33.1276  8670.4  91.8768
 33.1696  8793.97  92.3502
 33.2116  8860.76  92.9425
 33.2536  8941.06  93.3465
 33.2956  8858.61  93.0032
 33.3376  8751.8  92.1772
 33.3796  8897.56  93.1676
 33.4216  8737.61  91.9122
 33.4636  8643.23  91.5755
 33.5056  8643.65  91.8253
 33.5476  8717.15  92.1913
 33.5896  8798.98  92.4193
 33.6316  8798.22  92.7127
 33.6736  8562.24  91.7118
 33.7156  8637.98  92.1506
 33.7576  8750.95  92.3941
 33.7996  8823.76  92.5344
 33.8416  8533.59  91.1866
 33.8836  8576.5  91.1963
 33.9256  8761.36  92.2209
 33.9676  8647.01  91.5179
 34.0096  8599.85  91.5815
 34.0516  8527.35  90.8358
 34.0936  8458.11  90.7334
 34.1356  8647.66  91.4851
 34.1776  8434.9  90.3531
 34.2196  8500.55  90.8824
 34.2616  8426.97  90.6297
 34.3036  8566.59  91.6174
 34.3456  8602.6  91.5611
 34.3876  8621.34  91.6357
 34.4296  8526.18  90.8251
 34.4716  8545.66  91.0789
 34.5136  8480.45  90.9199
 34.5556  8469.98  91.1192
 34.5976  8500.4  91.0965
 34.6396  8421.82  90.5129
 34.6816  8598.73  91.4292
 34.7236  8509.57  90.7378
 34.7656  8421.33  90.4769
 34.8076  8382.87  90.595
 34.8496  8480.99  91.0474
 34.8916  8489.53  90.8823
 34.9336  8485.93  90.8486
 34.9756  8526.65  90.9844
 35.0176  8469.21  91.2009
 35.0596  8530.03  91.352
 35.1016  8499.38  90.9491
 35.1436  8727.03  91.8341
 35.1856  8510.11  90.7976
 35.2276  8445.12  90.6401
 35.2696  8553.82  91.4116
 35.3116  8308.12  90.1918
 35.3536  8336.86  90.0612
 35.3956  8437.6  90.3155
 35.4376  8373.26  90.5266
 35.4796  8386.83  90.6402
 35.5216  8450.67  90.9502
 35.5636  8060.53  89.5573
 35.6056  8274.03  89.7597
 35.6476  8432.19  90.5111
 35.6896  8354.08  90.1909
 35.7316  8292.17  89.8283
 35.7736  8226.26  89.6589
 35.8156  8366.08  90.4075
 35.8576  8412.22  90.9073
 35.8996  8402.71  90.8244
 35.9416  8333.17  89.9639
 35.9836  8363.39  90.4663
 36.0256  8537.11  91.4253
 36.0676  8520.53  91.0777
 36.1096  8361.92  90.3746
 36.1516  8502.53  91.0214
 36.1936  8380.05  90.1952
 36.2356  8272.96  90.2742
 36.2776  8372.24  90.29
 36.3196  8225.54  89.1698
 36.3616  8272.1  89.552
 36.4036  8181.13  89.125
 36.4456  8275.02  89.8437
 36.4876  8115.41  88.9137
 36.5296  8304.72  89.9762
 36.5716  8229.65  90.3451
 36.6136  8339.83  89.735
 36.6556  8164.36  88.9742
 36.6976  8065.07  88.9265
 36.7396  8012.07  88.543
 36.7816  7852.21  87.8524
 36.8236  8063.95  88.9519
 36.8656  7891.89  88.064
 36.9076  7911.99  88.0612
 36.9496  8002.13  88.5435
 36.9916  7963.64  87.9719
 37.0336  8061.38  88.8175
 37.0756  8008.56  88.3252
 37.1176  7806.95  87.467
 37.1596  8065.98  88.9124
 37.2016  8012.02  88.839
 37.2436  7954.38  87.8409
 37.2856  7931.22  87.9639
 37.3276  7988.77  87.6491
 37.3696  7952.25  88.3266
 37.4116  7956.82  88.2504
 37.4536  7866.02  87.4738
 37.4956  7814.2  87.3673
 37.5376  8143.46  90.7667
 37.5796  7991.55  89.8577
 37.6216  7907.19  87.6611
 37.6636  8133.74  88.7953
 37.7056  8036.49  88.4573
 37.7476  8102.99  88.3618
 37.7896  8002.73  88.3244
 37.8316  7937.07  88.1153
 37.8736  8024.55  88.1252
 37.9156  8002.65  87.9909
 37.9576  7909.74  87.402
 37.9996  7871.04  86.9024
 38.0416  7955.26  88.1696
 38.0836  8094.92  88.8339
 38.1256  7968.96  88.1205
 38.1676  7845.32  87.5503
 38.2096  8106.58  88.6004
 38.2516  7924.39  87.8304
 38.2936  8044.47  88.2902
 38.3356  8033.89  88.1624
 38.3776  7829.35  87.2714
 38.4196  7942.58  87.7653
 38.4616  8008.38  88.3714
 38.5036  8104.22  88.7407
 38.5456  7918.67  88.5583
 38.5876  7883.63  88.5448
 38.6296  7920.22  87.5617
 38.6716  8005.9  87.8409
 38.7136  7869.72  87.0308
 38.7556  7842.38  87.3823
 38.7976  8025.93  88.3299
 38.8396  7872.65  87.7508
 38.8816  7850.64  87.6133
 38.9236  7753.84  86.8667
 38.9656  7957.55  87.9174
 39.0076  7897.45  86.9895
 39.0496  7937.4  87.7572
 39.0916  7867.42  87.0216
 39.1336  7888.69  87.5469
 39.1756  7987.18  88.1565
 39.2176  7880.22  88.0977
 39.2596  7876.39  87.9992
 39.3016  7846.53  87.3545
 39.3436  7788.08  87.4945
 39.3856  7981.47  88.0207
 39.4276  7949.2  88.3497
 39.4696  7879.82  87.5834
 39.5116  7837.21  87.8559
 39.5536  8042.89  89.424
 39.5956  7815.57  87.2666
 39.6376  7814.27  87.2582
 39.6796  7852.42  87.2191
 39.7216  7810.99  87.0803
 39.7636  7726.57  87.1688
 39.8056  7965.17  88.2884
 39.8476  7800.18  87.6266
 39.8896  7880.8  87.7037
 39.9316  7657.47  86.6998
 39.9736  7920.92  87.8334
 40.0156  7874.03  87.322
 40.0576  7750.12  86.9813
 40.0996  7896.81  86.9887
 40.1416  7925.65  87.9548
 40.1836  7927.59  87.8384
 40.2256  7830.2  87.3303
 40.2676  7775.69  87.1362
 40.3096  7927.1  87.91
 40.3516  7909.48  87.9148
 40.3936  7971.48  87.8165
 40.4356  7796.26  87.0568
 40.4776  7927.83  88.1838
 40.5196  7888.54  88.0241
 40.5616  8005.23  88.3876
 40.6036  7789  87.4404
 40.6456  7886.35  87.5902
 40.6876  7981.82  88.113
 40.7296  7925.64  87.8194
 40.7716  7848.72  87.6168
 40.8136  7722.17  86.8657
 40.8556  7937.32  88.1868
 40.8976  7894.91  87.8872
 40.9396  7853.05  87.9974
 40.9816  7881.09  87.4419
 41.0236  7936.18  87.5394
 41.0656  7939.31  88.088
 41.1076  7863.13  87.4393
 41.1496  7958.53  87.8794
 41.1916  7817.14  87.4118
 41.2336  7875.55  87.7353
 41.2756  7729.08  86.522
 41.3176  7950.27  88.363
 41.3596  7935.82  88.0211
 41.4016  7818.79  87.6193
 41.4436  7869.01  87.6906
 41.4856  7861.19  87.8127
 41.5276  7901.07  88.0482
 41.5696  7726.46  86.7134
 41.6116  7976.37  88.488
 41.6536  7903.47  87.9268
 41.6956  7982.54  88.442
 41.7376  7766.91  87.2654
 41.7796  7748.69  87.0415
 41.8216  7873.46  87.9718
 41.8636  7718.48  87.0521
 41.9056  7792.93  87.2669
 41.9476  7797.02  87.4163
 41.9896  7914.39  87.8274
 42.0316  7831.23  87.4579
 42.0736  7982.69  88.408
 42.1156  7806.69  87.265
 42.1576  7784.5  87.22
 42.1996  7865.79  87.8195
 42.2416  7818.97  87.1647
 42.2836  7742.76  86.8469
 42.3256  7685  86.6294
 42.3676  7920.39  87.754
 42.4096  7978.37  88.046
 42.4516  7852.73  87.4119
 42.4936  7736.33  86.8481
 42.5356  7652.81  86.5203
 42.5776  7822.32  87.409
 42.6196  7850.91  87.6245
 42.6616  7680.65  86.8371
 42.7036  7726.14  86.478
 42.7456  7821.34  87.3618
 42.7876  7848.31  87.6037
 42.8296  7830.83  87.3437
 42.8716  7716.25  86.8745
 42.9136  7719.75  86.6758
 42.9556  7853.07  87.5564
 42.9976  7876.73  87.6511
 43.0396  7803.78  86.9795
 43.0816  7722.95  86.91
 43.1236  7628.91  86.426
 43.1656  7714.88  86.7347
 43.2076  7671.3  86.5953
 43.2496  7746.92  86.8449
 43.2916  7663.85  86.7407
 43.3336  7641.34  86.4443
 43.3756  7747.01  86.7977
 43.4176  7650.33  86.3421
 43.4596  7561.36  85.6926
 43.5016  7642.76  86.5494
 43.5436  7616.86  86.3139
 43.5856  7546.25  85.9385
 43.6276  7655.57  86.4467
 43.6696  7529.92  85.9853
 43.7116  7759.2  86.7909
 43.7536  7743.78  87.1959
 43.7956  7446.99  86.7109
 43.8376  7549.94  85.8376
 43.8796  7462.01  85.4152
 43.9216  7406.2  85.0176
 43.9636  7455  85.3927
 44.0056  7451.89  85.6098
 44.0476  7468.1  85.3376
 44.0896  7443.38  85.5381
 44.1316  7572.35  85.8011
 44.1736  7393.71  84.9042
 44.2156  7532.11  85.5483
 44.2576  7394.43  85.0871
 44.2996  7493.34  85.626
 44.3416  7527.21  85.5775
 44.3836  7369.04  85.0021
 44.4256  7333.82  84.4431
 44.4676  7403.41  84.999
 44.5096  7450.26  85.4124
 44.5516  7455.21  85.4075
 44.5936  7360.87  84.8159
 44.6356  7580.97  85.8128
 44.6776  7460.54  85.3653
 44.7196  7451.45  85.695
 44.7616  7430.93  86.8988
 44.8036  7456.67  85.4724
 44.8456  7554.61  86.2354
 44.8876  7548  86.0426
 44.9296  7559.7  85.5597
 44.9716  7539.36  85.8784
 45.0136  7520.67  85.7021
 45.0556  7564.41  85.925
 45.0976  7463.71  85.5048
 45.1396  7513.7  85.5547
 45.1816  7332.71  84.4627
 45.2236  7563.03  85.6818
 45.2656  7542.19  86.0602
 45.3076  7373.95  84.8728
 45.3496  7484.79  85.8222
 45.3916  7418.03  85.708
 45.4336  7439.9  85.6802
 45.4756  7467.82  85.703
 45.5176  7551  85.7835
 45.5596  7657.06  86.5097
 45.6016  7434.17  85.6603
 45.6436  7466.25  85.0106
 45.6856  7383.73  85.2006
 45.7276  7385.94  86.5355
 45.7696  7472.11  86.7168
 45.8116  7533.52  86.4925
 45.8536  7427.32  85.7849
 45.8956  7517.04  85.6486
 45.9376  7472.49  84.8629
 45.9796  7424.54  85.2727
 46.0216  7502.91  86.0513
 46.0636  7606.22  85.7777
 46.1056  7455.68  84.925
 46.1476  7509.95  85.8275
 46.1896  7486.74  85.8417
 46.2316  7417.02  85.3107
 46.2736  7331.87  85.1861
 46.3156  7456.52  85.4942
 46.3576  7380.78  85.2655
 46.3996  7490.88  86.0503
 46.4416  7398.83  85.106
 46.4836  7357.29  85.2139
 46.5256  7329.93  85.0069
 46.5676  7313.32  85.0011
 46.6096  7382.41  85.3477
 46.6516  7386.26  84.4153
 46.6936  7484.46  85.4772
 46.7356  7441.47  85.3284
 46.7776  7390.15  85.8829
 46.8196  7387.31  85.4608
 46.8616  7251.35  84.6122
 46.9036  7201  83.9861
 46.9456  7314.84  84.2794
 46.9876  7235.44  83.9056
 47.0296  7387.1  85.4702
 47.0716  7261.1  84.5661
 47.1136  7340.17  84.7015
 47.1556  7308.37  84.382
 47.1976  7409.84  85.0463
 47.2396  7323.45  84.954
 47.2816  7301.29  84.5242
 47.3236  7384.56  85.3762
 47.3656  7311.96  84.8873
 47.4076  7270.81  84.4479
 47.4496  7167  83.9384
 47.4916  7285.42  84.8136
 47.5336  7414.61  85.3877
 47.5756  7491.67  85.948
 47.6176  7290.14  84.6779
 47.6596  7294.29  84.4203
 47.7016  7570.83  85.7974
 47.7436  7393.49  85.1463
 47.7856  7301.69  84.6369
 47.8276  7252.21  84.4072
 47.8696  7411.72  85.4034
 47.9116  7290.68  84.4173
 47.9536  7404.52  85.0161
 47.9956  7224.8  84.6932
 48.0376  7239.44  84.5486
 48.0796  7326.6  85.1845
 48.1216  7310.58  84.9155
 48.1636  7402.35  85.0064
 48.2056  7389.78  85.2092
 48.2476  7455.47  85.8964
 48.2896  7347.65  85.1807
 48.3316  7353.13  85.1535
 48.3736  7307.69  84.9197
 48.4156  7310.19  84.7858
 48.4576  7303.22  85.0379
 48.4996  7393.13  85.0067
 48.5416  7481.19  85.8404
 48.5836  7294.04  84.434
 48.6256  7457.52  85.5907
 48.6676  7286.47  85.1177
 48.7096  7227.07  84.0297
 48.7516  7314.07  84.6961
 48.7936  7184.25  84.0022
 48.8356  7246.31  84.415
 48.8776  7238.83  84.9468
 48.9196  7411.18  85.3081
 48.9616  7238.26  84.691
 49.0036  7317.94  85.5123
 49.0456  7253.75  85.1184
 49.0876  7287.62  84.8431
 49.1296  7174.6  84.3396
 49.1716  7090.36  83.7224
 49.2136  7218.2  84.3979
 49.2556  7258.82  84.7862
 49.2976  7300.49  84.9758
 49.3396  7190.73  84.3926
 49.3816  7336.02  84.6686
 49.4236  7203.52  84.3099
 49.4656  7207.12  84.3222
 49.5076  7231.73  84.2558
 49.5496  7179.3  84.017
 49.5916  7308.89  84.6859
 49.6336  7224.49  84.4035
 49.6756  7213.12  84.5624
 49.7176  7226.02  84.5753
 49.7596  7242.42  84.4431
 49.8016  7306.68  84.7411
 49.8436  7282.94  84.9022
 49.8856  7211.22  84.4866
 49.9276  7152.6  84.2484
 49.9696  7208.09  84.5529
 50.0116  7282.37  85.1186
 50.0536  7160.54  84.3512
 50.0956  7173.1  84.4915
 50.1376  7231.96  84.5338
 50.1796  7160.1  84.3888
 50.2216  7191.74  84.568
 50.2636  7193.42  84.193
 50.3056  7094.81  83.7941
 50.3476  7091.04  83.7863
 50.3896  7149.5  84.106
 50.4316  7196.1  84.2041
 50.4736  7075.63  83.7253
 50.5156  7190.4  84.384
 50.5576  7193.9  84.1594
 50.5996  7156.91  84.3511
 50.6416  7089.72  83.7489
 50.6836  7137.68  84.1072
 50.7256  7200.26  84.4054
 50.7676  7262.35  85.0919
 50.8096  7060.55  83.4195
 50.8516  7135.53  84.2985
 50.8936  7041.88  83.5159
 50.9356  7131.78  84.1529
 50.9776  7112.33  84.2029
 51.0196  6870.77  82.8933
 51.0616  7009.13  83.0394
 51.1036  7050.92  83.6481
 51.1456  7081.18  83.741
 51.1876  7055.53  82.9174
 51.2296  6944.54  83.0228
 51.2716  6906.38  82.3768
 51.3136  6990  83.3413
 51.3556  6976.69  82.8758
 51.3976  6953.36  82.8929
 51.4396  6790.97  82.2235
 51.4816  6885.83  82.6547
 51.5236  6935.6  83.061
 51.5656  6841  82.0672
 51.6076  6961.89  82.8782
 51.6496  6946.43  82.9689
 51.6916  6925.98  83.2185
 51.7336  6897.55  83.1324
 51.7756  6907.77  82.8824
 51.8176  6803.83  82.3754
 51.8596  6827.78  82.5337
 51.9016  6940.92  82.8174
 51.9436  7034.8  84.8858
 51.9856  6983.25  84.9862
 52.0276  6906.24  82.9975
 52.0696  7117.26  84.3256
 52.1116  6979.51  83.632
 52.1536  7066.21  84.0267
 52.1956  7001.61  83.0916
 52.2376  7105.83  83.8878
 52.2796  7066.26  83.4742
 52.3216  6892.11  83.1304
 52.3636  6935.83  82.9529
 52.4056  6930.1  82.7858
 52.4476  6813.08  82.4348
 52.4896  6900.99  83.0167
 52.5316  6909.27  83.1299
 52.5736  6810.03  82.2484
 52.6156  7120.09  84.5041
 52.6576  6885.88  82.5369
 52.6996  6680.5  82.2771
 52.7416  6779.94  82.7377
 52.7836  6887.43  83.2833
 52.8256  6965.91  82.9532
 52.8676  6764.22  82.3222
 52.9096  7033.98  84.0237
 52.9516  6827.37  83.1683
 52.9936  6849.65  83.6878
 53.0356  6895.04  82.9534
 53.0776  6927  83.4283
 53.1196  6849.97  83.0831
 53.1616  6966.4  83.828
 53.2036  6870.17  83.2166
 53.2456  6883.53  83.4024
 53.2876  6884.17  83.0847
 53.3296  6928.79  83.6901
 53.3716  7000.99  83.8716
 53.4136  6961.81  83.7924
 53.4556  6858.12  83.2001
 53.4976  6845.37  82.9618
 53.5396  6842.43  83.3516
 53.5816  6871.45  83.1517
 53.6236  6768.48  82.8092
 53.6656  6984.22  83.7734
 53.7076  6842.26  82.8801
 53.7496  6982.19  83.8681
 53.7916  6998.44  84.1042
 53.8336  6887.35  83.3179
 53.8756  6738.44  82.9807
 53.9176  6799.8  82.6769
 53.9596  6525.95  81.7551
 54.0016  6563.06  81.3089
 54.0436  6547.11  81.442
 54.0856  6660.1  81.5667
 54.1276  6621.54  81.5192
 54.1696  6528.11  81.1089
 54.2116  6747.73  82.2048
 54.2536  6609.44  81.1682
 54.2956  6704.84  81.7476
 54.3376  6526.92  81.1963
 54.3796  6462.47  80.6944
 54.4216  6528.09  81.1659
 54.4636  6612.48  81.716
 54.5056  6625.8  81.5294
 54.5476  6512.47  81.1771
 54.5896  6638.3  81.792
 54.6316  6631.68  81.6011
 54.6736  6592.08  81.4423
 54.7156  6554.63  81.2318
 54.7576  6440.96  80.4997
 54.7996  6603.47  81.6585
 54.8416  6498.26  80.9778
 54.8836  6542.16  81.4233
 54.9256  6507.22  80.9768
 54.9676  6424.55  80.3208
 55.0096  6610.45  81.5096
 55.0516  6381.68  80.3188
 55.0936  6493.57  80.694
 55.1356  6393.75  80.1074
 55.1776  6582.31  81.5158
 55.2196  6510.8  80.9486
 55.2616  6573.03  81.4649
 55.3036  6460.42  80.9548
 55.3456  6256.08  79.7899
 55.3876  6466.18  80.836
 55.4296  6359.36  80.2185
 55.4716  6451.33  80.7772
 55.5136  6452.8  80.5564
 55.5556  6500.92  80.9026
 55.5976  6359.95  80.1107
 55.6396  6510.19  80.9898
 55.6816  6430.28  80.3507
 55.7236  6268.28  79.3806
 55.7656  6518.13  80.684
 55.8076  6358.27  79.6824
 55.8496  6355.77  79.9862
 55.8916  6289.78  79.7826
 55.9336  6514.85  81.0187
 55.9756  6337.83  79.7817
 56.0176  6356.8  80.0566
 56.0596  6348.27  79.9946
 56.1016  6245.97  79.3665
 56.1436  6285.06  79.8771
 56.1856  6188.57  79.0189
 56.2276  6379.43  80.2621
 56.2696  6280.12  79.6487
 56.3116  6447.28  81.0434
 56.3536  6301.59  79.8009
 56.3956  6336.2  79.9917
 56.4376  6347.72  80.1001
 56.4796  6203.39  79.0211
 56.5216  6275.27  79.8592
 56.5636  6247.12  79.2411
 56.6056  6419.63  80.568
 56.6476  6304.96  79.4715
 56.6896  6460.94  80.8897
 56.7316  6319.09  79.9384
 56.7736  6326.85  79.9633
 56.8156  6235.73  79.4097
 56.8576  6152.56  78.8114
 56.8996  6231.21  79.2299
 56.9416  6182.25  79.2302
 56.9836  6300.03  79.5014
 57.0256  6176.3  79.0296
 57.0676  6301.6  79.9218
 57.1096  6344.8  80.007
 57.1516  6197.18  79.1206
 57.1936  6224.58  79.0524
 57.2356  6070.71  78.3842
 57.2776  6238.62  79.4266
 57.3196  6126.78  78.8582
 57.3616  6318.7  79.7846
 57.4036  6229.73  79.259
 57.4456  6280.64  79.5739
 57.4876  6170.44  78.7397
 57.5296  6153.79  78.9644
 57.5716  6129.29  78.8199
 57.6136  6065.4  78.2441
 57.6556  6168.08  79.0248
 57.6976  6217.64  79.0839
 57.7396  6073.77  78.5909
 57.7816  6044.88  78.7761
 57.8236  6108.68  78.9901
 57.8656  6120.56  78.73
 57.9076  6212.22  79.3305
 57.9496  6143.8  79.2495
 57.9916  6177.21  78.9701
 58.0336  6087.68  78.6844
 58.0756  6141.91  78.6672
 58.1176  6093.49  78.3494
 58.1596  6049.89  78.6545
 58.2016  5967.19  77.3414
 58.2436  5864.94  77.0853
 58.2856  5896.6  77.2086
 58.3276  5760.67  76.6806
 58.3696  5905.56  77.3949
 58.4116  5872.42  77.0423
 58.4536  5988.58  77.6916
 58.4956  5775.04  76.467
 58.5376  5968.77  77.4413
 58.5796  5882.04  77.1614
 58.6216  5889.9  77.0407
 58.6636  5849.87  76.9797
 58.7056  5852.19  76.8588
 58.7476  5950.21  77.9409
 58.7896  5844.98  76.8966
 58.8316  5919.52  77.4861
 58.8736  5911.58  77.3415
 58.9156  5908.12  77.3637
 58.9576  5847.57  77.2778
 58.9996  5938.62  77.1403
 59.0416  5939.17  77.4977
 59.0836  5974.72  77.616
 59.1256  5821.51  77.3345
 59.1676  5915.59  78.2634
 59.2096  5923.48  77.6213
 59.2516  6032.01  77.9104
 59.2936  5883.06  77.2663
 59.3356  5879.75  77.1239
 59.3776  5847.52  77.0785
 59.4196  5865.56  77.1329
 59.4616  5783.17  76.4536
 59.5036  5846.05  76.903
 59.5456  5962.95  77.3633
 59.5876  5941.71  77.415
 59.6296  5853.04  76.9033
 59.6716  5892.77  77.221
 59.7136  5820.43  76.7341
 59.7556  5904.53  77.4214
 59.7976  5690.88  75.7575
 59.8396  5843.47  76.6625
 59.8816  5741.81  76.5241
 59.9236  5950.71  77.5504
 59.9656  5772.18  76.6331
 60.0076  6014.32  77.5826
 60.0496  5765.13  76.4504
 60.0916  6019.4  77.5375
 60.1336  5790.1  77.1304
 60.1756  5790.76  78.2944
 60.1996  0.0000000E+00  0.0000000E+00