File: docs/examples/opeando_xrd/IS17_D/Data/IS17_D/17_Da_f00076.xye
# /beamlines/bl04/projects/cycle2025-II/20250340211-lsimonelli/DATA/IS17_D/17_Da_f00076.xye : mythproc.py merge -s 0.006 -l 0.5 -f /beamlines/bl04/inhouse/ff/FlatField/ff_20Nov2024rod8mm60s_17keV.raw -b True -c true -o xye /beamlines/bl04/projects/cycle2025-II/20250340211-lsimonelli/DATA/IS17_D/17_Da_00076.dat
# IsMon = [6785253, 6787277, 6785219]  IsPos = [-1.4999, -2.4884, -3.4988]
# Wave = 0.4962  CalPath /beamlines/bl04/projects/cycle2025-II/20250340211-lsimonelli/DATA/Align/Si_Pos1_25keV_f00001.cal
# Date = 2025-09-24_14:42:23 Dt = 4.8000  Bin = 0.0060  <imon> = 6785916 +/- 962 (Min/Max) 6785219 / 6787277
# icurr 252.0352  mocoIn 1.7193E-05  mocoOut 0.8064  i15 7.10086e+06  imon 6.78592e+06  i7 7.3333  iEMpd_timer 4.8000  iEMpd_1 3.4176E-08  iEMpd_2 7.8306E-08  iEMpd_3 1.6148E-08  iEMpd_4 4.6979E-08  iEMhp_timer 4.8000  iEMhp_1 4.9244E-06  iEMhp_2 -2.5325E-08  iEMhp_3 -2.3557E-08  iEMhp_4 -2.1476E-08
#      9776
 1.5856  39161.5  203.214
 1.6276  45713.6  215.789
 1.6696  52702.7  230.882
 1.7116  61185  249.255
 1.7536  70744.2  266.878
 1.7956  75336.2  276.092
 1.8376  71426.7  269.259
 1.8796  60002.9  244.974
 1.9216  47838.1  219.607
 1.9636  40648.5  201.604
 2.0056  36612.4  190.591
 2.0476  33458.3  184.195
 2.0896  32265.3  179.82
 2.1316  31688  177.348
 2.1736  30101.1  174.221
 2.2156  30158.7  172.988
 2.2576  29244.1  170.954
 2.2996  28335.1  168.895
 2.3416  28536.4  168.14
 2.3836  27967.9  166.561
 2.4256  27327.7  165.18
 2.4676  27244.6  164.695
 2.5096  26759.9  163.276
 2.5516  34427.9  189.49
 2.5936  164801  406.082
 2.6356  29636.3  172.969
 2.6776  25963.4  160.796
 2.7196  25114.4  158.655
 2.7616  25076.9  158.321
 2.8036  24294.4  155.999
 2.8456  24610.8  157.614
 2.8876  23906.5  155.215
 2.9296  23731  154.772
 2.9716  23415.7  153.245
 3.0136  22995  151.928
 3.0556  23130.2  152.758
 3.0976  23163.7  151.829
 3.1396  22839.7  151.466
 3.1816  22612.7  150.644
 3.2236  22604.2  150.609
 3.2656  22631.6  149.763
 3.3076  22322.6  150.154
 3.3496  22615.6  150.096
 3.3916  22911  150.908
 3.4336  23357.6  152.936
 3.4756  23743.9  154.126
 3.5176  24557.2  156.539
 3.5596  24506.8  158.765
 3.6016  24685.9  157.01
 3.6436  23840.5  155.373
 3.6856  23413.9  152.311
 3.7276  22496.7  150.361
 3.7696  22443.6  150.381
 3.8116  22016  148.823
 3.8536  22048.7  148.87
 3.8956  22195.6  149.196
 3.9376  23056.9  152.314
 3.9796  21940.1  148.098
 4.0216  22051.1  147.528
 4.0636  21888.2  148.425
 4.1056  22026.5  148.535
 4.1476  22113.6  149.141
 4.1896  22491.1  150.27
 4.2316  22555  150.318
 4.2736  22942.5  151.392
 4.3156  23268.3  152.69
 4.3576  23910.5  154.71
 4.3996  24242.5  156.032
 4.4416  24967.8  157.94
 4.4836  26598.3  163.16
 4.5256  26042.5  162.065
 4.5676  25785.6  161.513
 4.6096  26291.7  161.764
 4.6516  26995.2  163.623
 4.6936  26955  164.31
 4.7356  28072  167.506
 4.7776  27076.4  164.341
 4.8196  26491.6  163.196
 4.8616  26207.9  161.807
 4.9036  25882.2  160.549
 4.9456  26213.3  162.219
 4.9876  25422.8  159.654
 5.0296  25195.7  158.75
 5.0716  25272.5  159.771
 5.1136  25504.7  160.215
 5.1556  25913  160.96
 5.1976  37520.7  193.656
 5.2396  26708.5  163.108
 5.2816  26333.6  162.411
 5.3236  26328.9  162.109
 5.3656  25659  160.934
 5.4076  25790.3  161.496
 5.4496  25742.4  160.838
 5.4916  25808.3  160.804
 5.5336  25788.1  160.747
 5.5756  25638.7  160.314
 5.6176  25805.6  160.275
 5.6596  26117.8  162.206
 5.7016  26197.4  161.728
 5.7436  26434.3  162.724
 5.7856  26341  162.492
 5.8276  26669.9  163.234
 5.8696  26718.5  163.549
 5.9116  26761.9  164.279
 5.9536  26896.6  164.45
 5.9956  27194.8  164.736
 6.0376  27482.8  166.233
 6.0796  27583.2  166.37
 6.1216  27556.4  166.49
 6.1636  27799.3  166.296
 6.2056  27950.3  167.406
 6.2476  27923.5  167.202
 6.2896  28062.7  167.302
 6.3316  28008.3  167.313
 6.3736  28252.7  167.935
 6.4156  28383  168.22
 6.4576  28613.5  168.512
 6.4996  28600.4  168.945
 6.5416  28783.2  169.621
 6.5836  29365.2  171.557
 6.6256  28941.7  169.883
 6.6676  29187  170.175
 6.7096  29167.1  170.96
 6.7516  29507.8  171.612
 6.7936  30878.3  174.977
 6.8356  31850.3  177.79
 6.8776  31038.8  176.316
 6.9196  30200.7  174.316
 6.9616  30774.9  175.408
 7.0036  31128.1  176.071
 7.0456  31348  175.989
 7.0876  30993.1  176.663
 7.1296  30980  175.771
 7.1716  31039  175.481
 7.2136  30815.9  174.635
 7.2556  31156.1  175.755
 7.2976  31173.4  176.3
 7.3396  31010.1  176.043
 7.3816  30977.2  176.167
 7.4236  31365.2  176.563
 7.4656  31661.8  176.872
 7.5076  31828.2  177.481
 7.5496  31587.3  177.345
 7.5916  31816.3  178.016
 7.6336  32630.1  180.171
 7.6756  32259  178.998
 7.7176  32513.6  179.999
 7.7596  32746.2  181.896
 7.8016  39293.7  201.613
 7.8436  33885.1  183.894
 7.8856  33724.9  183.076
 7.9276  34499.7  185.561
 7.9696  34487.1  185.835
 8.0116  35398.7  186.815
 8.0536  36374.5  189.631
 8.0956  40471.7  201.26
 8.1376  36224.4  189.891
 8.1796  36406  190.906
 8.2216  37581.3  192.695
 8.2636  39531  197.887
 8.3056  37717.8  194.08
 8.3476  40864.9  201.306
 8.3896  38765.2  196.153
 8.4316  37985.2  194.333
 8.4736  37867  193.491
 8.5156  37381.7  192.523
 8.5576  37498.3  193.803
 8.5996  37206.6  191.921
 8.6416  37286.5  193.386
 8.6836  37377.3  193.46
 8.7256  38104.9  194.762
 8.7676  41293.1  205.803
 8.8096  41119.8  202.565
 8.8516  37459.4  192.941
 8.8936  40469.7  200.429
 8.9356  36979.3  191.938
 8.9776  36793.4  191.559
 9.0196  36597.7  190.715
 9.0616  37162.4  191.643
 9.1036  40544.9  201.456
 9.1456  36708.8  191.028
 9.1876  36007.6  189.142
 9.2296  36158.2  188.936
 9.2716  35387.4  186.978
 9.3136  35407.9  187.018
 9.3556  35885  188.245
 9.3976  33920.4  183.549
 9.4396  34625.9  185.345
 9.4816  34210.2  184.086
 9.5236  34069  183.615
 9.5656  34203.8  184.304
 9.6076  33493.3  182.915
 9.6496  33609.9  183.151
 9.6916  33677.5  183.308
 9.7336  33693.1  183.128
 9.7756  33918.9  184.997
 9.8176  32928.4  181.764
 9.8596  32919.8  180.193
 9.9016  32215.9  178.249
 9.9436  32272.4  178.317
 9.9856  32713.1  179.752
 10.0276  31526.4  177.569
 10.0696  31692.4  177.077
 10.1116  31320.6  176.3
 10.1536  30885.4  175.236
 10.1956  30523.6  173.808
 10.2376  29916.2  171.58
 10.2796  30098.5  172.228
 10.3216  29868.2  171.833
 10.3636  30089.7  172.502
 10.4056  33858.2  183.412
 10.4476  33978.1  183.333
 10.4896  39505.1  197.051
 10.5316  35875.5  188.571
 10.5736  29892.7  172.536
 10.6156  29516.4  171.22
 10.6576  38522.4  193.936
 10.6996  29629.7  170.766
 10.7416  28451.9  167.582
 10.7836  30153  173.233
 10.8256  27781.6  166.713
 10.8676  27871.1  166.515
 10.9096  27853.5  166.508
 10.9516  27416.2  164.121
 10.9936  28696.8  168.118
 11.0356  27961.4  166.591
 11.0776  29819.5  171.314
 11.1196  29622.2  171.535
 11.1616  27173.9  163.974
 11.2036  28778.2  168.593
 11.2456  30887.2  175.43
 11.2876  26541.3  162.347
 11.3296  26858.8  163.208
 11.3716  27540.1  164.96
 11.4136  26540.8  162.838
 11.4556  26873.5  163.521
 11.4976  28564.7  167.516
 11.5396  28667.7  167.979
 11.5816  26369.5  161.581
 11.6236  25825.7  160.111
 11.6656  25891.1  159.483
 11.7076  25120.5  157.921
 11.7496  25967.7  164.524
 11.7916  26601  161.753
 11.8336  25029.6  157.787
 11.8756  25762.1  159.605
 11.9176  25148  157.344
 11.9596  24583  155.75
 12.0016  24585  156.555
 12.0436  24146.1  154.567
 12.0856  24222.4  155.348
 12.1276  24294.6  155.488
 12.1696  24272.5  154.562
 12.2116  24912.8  156.586
 12.2536  28329  167.873
 12.2956  25209.1  157.68
 12.3376  24516.5  155.705
 12.3796  24387.2  155.76
 12.4216  24678  155.897
 12.4636  26177.6  161.519
 12.5056  24058.9  154.117
 12.5476  24004.2  153.473
 12.5896  24080.8  154.347
 12.6316  23768.1  153.502
 12.6736  23874.4  154.327
 12.7156  24238.9  155.358
 12.7576  23956.6  154.7
 12.7996  24320.4  154.505
 12.8416  24653.5  156.626
 12.8836  25615.7  159.477
 12.9256  24904  156.251
 12.9676  24767.6  156.247
 13.0096  24309.8  155.89
 13.0516  24555  155.715
 13.0936  24196.2  154.973
 13.1356  24614.5  155.289
 13.1776  24777.5  156.796
 13.2196  24435.9  155.366
 13.2616  24514.3  155.929
 13.3036  24227.2  154.982
 13.3456  24275.9  155.493
 13.3876  24744.9  156.276
 13.4296  24505.5  155.67
 13.4716  24820.4  156.275
 13.5136  24831.5  156.462
 13.5556  24883.2  157.236
 13.5976  24661.1  156.68
 13.6396  25154.9  157.61
 13.6816  24571.7  156.266
 13.7236  25100  157.586
 13.7656  24631  156.636
 13.8076  26057.1  159.852
 13.8496  24454.1  155.456
 13.8916  24686.2  157.202
 13.9336  24324.7  155.278
 13.9756  24103.8  153.922
 14.0176  24368.3  155.45
 14.0596  25389.9  158.641
 14.1016  23693.5  153.642
 14.1436  23363.2  151.705
 14.1856  23379.1  152.048
 14.2276  23558.4  153.119
 14.2696  23787.6  153.7
 14.3116  23121.1  151.432
 14.3536  22420.1  149.291
 14.3956  22520.5  149.362
 14.4376  22608  149.433
 14.4796  22505.5  149.085
 14.5216  22109.3  148.559
 14.5636  23008.2  151.104
 14.6056  22246.7  148.166
 14.6476  22053.2  146.749
 14.6896  21683.9  146.053
 14.7316  21169  145.317
 14.7736  21341.4  145.065
 14.8156  21113.3  144.328
 14.8576  20980.8  143.724
 14.8996  20948  144.823
 14.9416  20320.9  142.638
 14.9836  20516.2  143.289
 15.0256  20361.3  141.666
 15.0676  20048.5  140.886
 15.1096  19975.4  140.368
 15.1516  19738.3  140.081
 15.1936  19736.3  139.51
 15.2356  19697.9  139.654
 15.2776  19679.4  139.161
 15.3196  19434.4  139.311
 15.3616  19086.4  137.818
 15.4036  19032  137.474
 15.4456  19629.8  139.264
 15.4876  19192.2  137.379
 15.5296  18617.1  135.584
 15.5716  18485.5  134.713
 15.6136  18391.6  134.697
 15.6556  21715.9  145.54
 15.6976  18869.9  135.962
 15.7396  18770.4  136.01
 15.7816  18564.7  134.762
 15.8236  17914.3  133.082
 15.8656  18034  133.311
 15.9076  17828.2  132.373
 15.9496  18643.8  138.239
 15.9916  17462.1  134.216
 16.0336  17246.6  130.299
 16.0756  17612.5  131.989
 16.1176  17233.9  130.628
 16.1596  16936.2  130.675
 16.2016  17058.2  129.895
 16.2436  16875  129.569
 16.2856  16848.2  129.016
 16.3276  16454.5  127.916
 16.3696  16661.8  128.538
 16.4116  16388.1  127.937
 16.4536  16602.6  128.555
 16.4956  17495.7  131.693
 16.5376  16870.7  129.508
 16.5796  16501.5  127.439
 16.6216  16570.2  128.02
 16.6636  16697.8  128.659
 16.7056  16463.1  127.627
 16.7476  16419.8  126.988
 16.7896  16315.6  127.327
 16.8316  16126.4  126.555
 16.8736  16684.1  128.987
 16.9156  16576.1  128.902
 16.9576  16157.6  128.062
 16.9996  16371.6  129.398
 17.0416  16184.7  127.006
 17.0836  16021.3  126.128
 17.1256  15828.4  125.379
 17.1676  16659.9  128.619
 17.2096  16240.8  126.866
 17.2516  16098.2  126.087
 17.2936  15460.9  123.883
 17.3356  15120.6  122.532
 17.3776  15143.8  122.805
 17.4196  15389.5  123.49
 17.4616  15568.1  124.127
 17.5036  16603.8  128.552
 17.5456  15101.6  123.246
 17.5876  15132.6  122.428
 17.6296  15180.6  122.444
 17.6716  15275.2  123.394
 17.7136  16206  127.251
 17.7556  15023.7  122.812
 17.7976  15430.2  124.2
 17.8396  15158.9  122.597
 17.8816  14761.4  121.519
 17.9236  14580.7  120.588
 17.9656  15188.1  123.62
 18.0076  15857  125.884
 18.0496  16375.1  127.005
 18.0916  23720.4  153.465
 18.1336  18823.4  136.895
 18.1756  16362.5  127.134
 18.2176  16534  128.046
 18.2596  15014.4  121.746
 18.3016  15844.6  125.334
 18.3436  16344.4  127.294
 18.3856  15273.2  123.193
 18.4276  14958.6  121.586
 18.4696  15179.2  122.586
 18.5116  15314.6  123.425
 18.5536  14796  121.677
 18.5956  14869.2  121.522
 18.6376  15143.6  123.05
 18.6796  14647.8  120.338
 18.7216  15141.1  122.844
 18.7636  14514.5  120.267
 18.8056  14198.6  118.895
 18.8476  14051.8  118.902
 18.8896  14070.9  118.322
 18.9316  14564.5  120.365
 18.9736  14149.1  118.331
 19.0156  14699  121.013
 19.0576  14594.2  119.439
 19.0996  14418.8  119.434
 19.1416  14244.8  119.106
 19.1836  13950.9  117.473
 19.2256  13869.7  117.343
 19.2676  13914.7  117.625
 19.3096  13954.9  118.039
 19.3516  13990.3  118.149
 19.3936  14078.4  118.417
 19.4356  14070.6  118.257
 19.4776  14084.6  118.415
 19.5196  14093  118.299
 19.5616  14089.5  118.539
 19.6036  14018.5  117.745
 19.6456  14084.8  118.132
 19.6876  14702.9  120.334
 19.7296  14064.7  118.146
 19.7716  13950.7  117.837
 19.8136  14125.6  118.781
 19.8556  14682.7  120.573
 19.8976  14804  121.137
 19.9396  14628.6  119.979
 19.9816  14683.4  120.458
 20.0236  14908.8  121.601
 20.0656  14043  118.008
 20.1076  13628  116.71
 20.1496  13605  116.618
 20.1916  13706.9  116.571
 20.2336  13866.3  117.179
 20.2756  13472  115.929
 20.3176  13526.8  115.911
 20.3596  13549.2  115.988
 20.4016  13591.5  115.969
 20.4436  13628.3  116.684
 20.4856  13286.1  115.006
 20.5276  13336.9  115.676
 20.5696  13321.1  115.075
 20.6116  13466.1  115.977
 20.6536  13213.5  114.39
 20.6956  13236.7  114.618
 20.7376  13333.4  115.268
 20.7796  13120.4  114.029
 20.8216  13407.5  114.978
 20.8636  13683.7  116.525
 20.9056  15002.7  121.966
 20.9476  13419.3  115.189
 20.9896  14660.8  120.261
 21.0316  13552.1  115.519
 21.0736  13698.1  116.666
 21.1156  14102.7  118.544
 21.1576  13664.7  116.74
 21.1996  13151.2  114.505
 21.2416  13055.8  113.922
 21.2836  13409.1  115.409
 21.3256  13129.3  114.284
 21.3676  13336.1  114.728
 21.4096  13590.5  116.135
 21.4516  13051.3  113.686
 21.4936  12958.2  113.529
 21.5356  13107  114.12
 21.5776  13251.9  114.582
 21.6196  13094.7  113.937
 21.6616  13381.6  115.271
 21.7036  12963.5  113.239
 21.7456  12908.6  113.07
 21.7876  12775.4  112.238
 21.8296  12659.9  111.587
 21.8716  12778.7  112.334
 21.9136  13046  113.712
 21.9556  13287.4  114.424
 21.9976  13012.2  113.251
 22.0396  12861.7  112.845
 22.0816  12958.3  113.819
 22.1236  13237.2  114.48
 22.1656  12908.9  113.174
 22.2076  12961.9  112.877
 22.2496  12848.9  112.407
 22.2916  13080.8  113.3
 22.3336  13005  113.705
 22.3756  12803.2  112.541
 22.4176  12854.9  112.622
 22.4596  12528.2  111.773
 22.5016  12883.8  112.832
 22.5436  12894  112.758
 22.5856  12781.2  112.511
 22.6276  12609.9  111.889
 22.6696  12739.6  112.82
 22.7116  12594.9  111.686
 22.7536  12731.1  112.266
 22.7956  12746.7  111.661
 22.8376  12556.3  111.349
 22.8796  12565.7  111.191
 22.9216  12745.4  112.537
 22.9636  12572.5  110.92
 23.0056  12661.4  111.445
 23.0476  12922.3  113.168
 23.0896  13109.5  113.35
 23.1316  13036.1  113.475
 23.1736  12620.2  114.599
 23.2156  12660  112.164
 23.2576  12694.7  112.437
 23.2996  12667.7  112.111
 23.3416  12512.8  111.931
 23.3836  12598  111.544
 23.4256  12636.5  111.838
 23.4676  12756.3  112.067
 23.5096  12704.3  112.515
 23.5516  12583.5  111.259
 23.5936  12926  113.676
 23.6356  13176.8  114.434
 23.6776  12642.8  112.31
 23.7196  12517.3  111.326
 23.7616  12804.4  112.51
 23.8036  12623.3  111.755
 23.8456  12588.8  111.171
 23.8876  12325.9  110.351
 23.9296  12330.2  110.864
 23.9716  12262.6  109.744
 24.0136  12369  111.135
 24.0556  12316.1  110.623
 24.0976  12268  110.221
 24.1396  12072  111.973
 24.1816  12342  111.62
 24.2236  12154.4  110.373
 24.2656  12265.6  110.349
 24.3076  12140.8  110.028
 24.3496  12531.8  111.68
 24.3916  12292.4  110.663
 24.4336  12145  110.207
 24.4756  12097.2  109.856
 24.5176  11890  108.562
 24.5596  11789.9  108.23
 24.6016  11599.5  107.639
 24.6436  11939.1  108.685
 24.6856  11889.5  108.223
 24.7276  12063.5  109.333
 24.7696  11947.4  108.921
 24.8116  11902.6  108.895
 24.8536  11765.5  108.262
 24.8956  11716.8  107.778
 24.9376  11733.8  107.793
 24.9796  11640.5  107.719
 25.0216  11575.5  107.533
 25.0636  11624.9  107.404
 25.1056  11405.2  107.1
 25.1476  11594.4  109.669
 25.1896  11454.5  107.475
 25.2316  11575  107.301
 25.2736  11464.9  106.44
 25.3156  11279.7  105.655
 25.3576  11225.9  105.82
 25.3996  11224.9  105.799
 25.4416  11318.8  106.223
 25.4836  11318.1  106.753
 25.5256  11214.8  105.625
 25.5676  11413.3  106.278
 25.6096  11117.8  105.473
 25.6516  11281.1  105.733
 25.6936  11119.3  105.286
 25.7356  11101.2  105.34
 25.7776  11192.6  105.378
 25.8196  11209  105.686
 25.8616  11201  105.578
 25.9036  11445.7  106.183
 25.9456  11019.2  104.777
 25.9876  11049.5  104.989
 26.0296  11162.8  105.031
 26.0716  10990.3  104.645
 26.1136  11424.2  106.625
 26.1556  11461.6  106.17
 26.1976  10919.5  104.554
 26.2396  11198.4  105.032
 26.2816  10970  104.557
 26.3236  11141.1  105.532
 26.3656  10968.5  104.436
 26.4076  10993.5  104.77
 26.4496  11521.9  106.706
 26.4916  11181.6  105.153
 26.5336  11012.1  104.675
 26.5756  11200.6  105.437
 26.6176  11274.2  105.823
 26.6596  10944.3  104.578
 26.7016  10744.1  103.369
 26.7436  10636.5  102.982
 26.7856  10606.3  102.821
 26.8276  10741.3  103.423
 26.8696  10677.1  102.997
 26.9116  10710.9  103.092
 26.9536  10598.5  102.6
 26.9956  10574.6  102.514
 27.0376  10508.2  102.411
 27.0796  10711.5  103.125
 27.1216  10735.6  103.319
 27.1636  10444.3  102.073
 27.2056  10732  103.35
 27.2476  10630.6  102.861
 27.2896  10522.9  102.451
 27.3316  10408.5  101.602
 27.3736  10397.3  101.817
 27.4156  10340.9  101.385
 27.4576  10580.4  102.784
 27.4996  10586.3  102.404
 27.5416  10611.7  102.848
 27.5836  10539.8  102.313
 27.6256  10783.2  103.65
 27.6676  10643.5  103.006
 27.7096  10384  101.608
 27.7516  11233.8  105.839
 27.7936  11022.4  105.017
 27.8356  10733.5  103.244
 27.8776  10654.3  102.904
 27.9196  10424.8  101.634
 27.9616  10824.5  103.762
 28.0036  10404.2  101.708
 28.0456  10335.4  101.502
 28.0876  10345.6  101.644
 28.1296  10218.2  100.855
 28.1716  10334.6  101.439
 28.2136  10222.3  100.852
 28.2556  10166.9  100.69
 28.2976  10270.2  101.193
 28.3396  10384.8  101.512
 28.3816  10254.5  100.893
 28.4236  10485.3  102.181
 28.4656  10029.5  99.9699
 28.5076  10149.5  100.198
 28.5496  9979.83  99.6208
 28.5916  10051.3  99.7805
 28.6336  9984.21  99.7948
 28.6756  10124.2  99.682
 28.7176  9997.84  99.6055
 28.7596  9959.06  99.3142
 28.8016  10009.2  99.5933
 28.8436  9957.76  99.5879
 28.8856  10019.7  99.7443
 28.9276  9983.94  99.8129
 28.9696  9950.68  99.2963
 29.0116  9801.92  98.7472
 29.0536  9707.34  98.4699
 29.0956  9937.52  99.3416
 29.1376  9856.23  98.8975
 29.1796  9781.5  98.5642
 29.2216  9746.06  98.2293
 29.2636  9847.54  98.8125
 29.3056  9754.67  98.1375
 29.3476  9788.09  98.8313
 29.3896  9914.41  99.5628
 29.4316  9878.56  98.7195
 29.4736  9887.31  98.8297
 29.5156  9789.2  98.2484
 29.5576  9757.95  98.8409
 29.5996  9880.47  98.7117
 29.6416  9719.21  98.016
 29.6836  9933.11  99.0139
 29.7256  9716.07  98.5021
 29.7676  9911.03  99.1436
 29.8096  9728.48  98.1653
 29.8516  9591.8  97.8095
 29.8936  9755.36  98.7303
 29.9356  9773.24  98.5733
 29.9776  9725.92  98.491
 30.0196  9851.67  98.5031
 30.0616  9860.16  98.9261
 30.1036  9563.37  97.2499
 30.1456  9590.62  97.6267
 30.1876  9606.59  97.6773
 30.2296  9560.06  97.394
 30.2716  9600.19  97.235
 30.3136  9660.45  98.4049
 30.3556  9620.66  98.2137
 30.3976  9492.43  99.0723
 30.4396  9792.45  97.936
 30.4816  9633.52  96.7323
 30.5236  9612.69  96.6497
 30.5656  9513.11  96.8009
 30.6076  9528.02  96.3112
 30.6496  9527.05  96.6844
 30.6916  9504.09  96.6635
 30.7336  9507.33  96.8325
 30.7756  9447.08  96.6166
 30.8176  9608.59  97.3545
 30.8596  9490.59  96.5239
 30.9016  9446.48  96.6401
 30.9436  9436.86  96.3444
 30.9856  9604.27  97.3031
 31.0276  9427.35  96.0092
 31.0696  9327.77  96.0773
 31.1116  9513.6  97.0054
 31.1536  9631.77  97.4897
 31.1956  9442.14  96.6105
 31.2376  9213.56  95.4454
 31.2796  9438.98  96.1396
 31.3216  9372.63  95.747
 31.3636  9360.75  96.3707
 31.4056  9461.92  98.2197
 31.4476  9321.69  95.3714
 31.4896  9355.85  96.0449
 31.5316  9580.51  96.5834
 31.5736  10267  99.8053
 31.6156  10037.3  98.6992
 31.6576  9725.93  97.2549
 31.6996  9718.23  96.8816
 31.7416  9371.84  96.205
 31.7836  9352.14  95.1156
 31.8256  9341.84  95.3383
 31.8676  9380.23  95.5243
 31.9096  9164.52  94.7782
 31.9516  9299.68  95.6372
 31.9936  9167.26  94.7779
 32.0356  9293.74  95.4991
 32.0776  9311.15  95.4685
 32.1196  9281.86  95.4071
 32.1616  9348.53  95.2036
 32.2036  9073.97  94.3076
 32.2456  9098.6  94.8157
 32.2876  9130.35  94.4753
 32.3296  9094.83  94.2538
 32.3716  9196.32  94.889
 32.4136  9285.31  95.5652
 32.4556  9403.49  95.5391
 32.4976  9346.38  95.1595
 32.5396  8993.96  93.4144
 32.5816  9000.37  93.57
 32.6236  9071.89  94.0102
 32.6656  9175.72  95.0869
 32.7076  9018.29  93.9259
 32.7496  9118.9  94.1086
 32.7916  9069.7  93.8239
 32.8336  9112.39  94.131
 32.8756  9135.55  93.975
 32.9176  9075.39  94.1561
 32.9596  9017.33  93.9271
 33.0016  9101.62  94.1571
 33.0436  9111.15  94.3829
 33.0856  8958.65  93.655
 33.1276  8995.38  93.5805
 33.1696  8995.12  93.4227
 33.2116  9088.55  94.1292
 33.2536  9010.01  93.7275
 33.2956  8981.63  93.6625
 33.3376  8965.06  93.3183
 33.3796  9080.79  94.1195
 33.4216  8965.98  93.1249
 33.4636  9002.69  93.4552
 33.5056  8758.59  92.4244
 33.5476  8871.61  93.0099
 33.5896  9064.71  93.7749
 33.6316  8842.1  92.9488
 33.6736  8744.29  92.673
 33.7156  8809.53  93.0634
 33.7576  8961.96  93.4863
 33.7996  9038.7  93.6475
 33.8416  8840.36  92.8021
 33.8836  8915.23  92.9637
 33.9256  8852.46  92.7051
 33.9676  8946.36  93.089
 34.0096  8770.74  92.4905
 34.0516  8791.38  92.2368
 34.0936  8776.33  92.4205
 34.1356  8901.91  92.822
 34.1776  8708.17  91.8133
 34.2196  8525.23  91.0235
 34.2616  8580.97  91.4537
 34.3036  8665.6  92.1503
 34.3456  8793.04  92.583
 34.3876  8642.53  91.7514
 34.4296  8772.83  92.1288
 34.4716  8793.8  92.3797
 34.5136  8678.58  91.9828
 34.5556  8682.51  92.2601
 34.5976  8753.85  92.4415
 34.6396  8739.68  92.0732
 34.6816  8756.53  92.2788
 34.7236  8701.03  91.767
 34.7656  8622.29  91.5494
 34.8076  8636.59  91.9502
 34.8496  8606.55  91.6341
 34.8916  8670.55  91.8547
 34.9336  8715.23  92.0588
 34.9756  8697.75  91.8838
 35.0176  8622.41  92.0183
 35.0596  8550.76  91.4556
 35.1016  8509.58  91.0083
 35.1436  8617.59  91.2691
 35.1856  8562.75  91.1058
 35.2276  8689.06  91.9477
 35.2696  8611.85  91.7342
 35.3116  8594.59  91.7321
 35.3536  8579.94  91.3687
 35.3956  8533.88  90.8215
 35.4376  8487.74  91.1263
 35.4796  8637.13  91.9985
 35.5216  8619.72  91.8638
 35.5636  8357.35  91.1965
 35.6056  8588.57  91.4582
 35.6476  8530.91  91.0473
 35.6896  8551.35  91.2455
 35.7316  8554.91  91.235
 35.7736  8314.35  90.1425
 35.8156  8374.01  90.4618
 35.8576  8461.36  91.1854
 35.8996  8580.06  91.789
 35.9416  8711.16  91.9578
 35.9836  8471.64  91.0629
 36.0256  8591.55  91.7213
 36.0676  8578.86  91.4075
 36.1096  8462.78  90.9277
 36.1516  8454.86  90.7718
 36.1936  8459.19  90.6494
 36.2356  8436.91  91.1674
 36.2776  8503.28  91.0082
 36.3196  8438.05  90.3191
 36.3616  8542.2  91.0114
 36.4036  8400.43  90.3041
 36.4456  8404.65  90.5314
 36.4876  8311.35  89.9698
 36.5296  8449.3  90.7635
 36.5716  8526.02  91.9684
 36.6136  8631.17  91.2827
 36.6556  8599.39  91.3208
 36.6976  8422.41  90.8752
 36.7396  8409.32  90.5312
 36.7816  8566.96  91.7554
 36.8236  8446.33  91.029
 36.8656  8274.81  90.1786
 36.9076  8265.55  90.0018
 36.9496  8265.23  89.9936
 36.9916  8297.52  89.7948
 37.0336  8553.36  91.4919
 37.0756  8489.14  90.9322
 37.1176  8376.75  90.6007
 37.1596  8350.11  90.4624
 37.2016  8356.24  90.7247
 37.2436  8541.01  91.0222
 37.2856  8222.98  89.5708
 37.3276  8370.81  89.7129
 37.3696  8171.1  89.5243
 37.4116  8293.61  90.0966
 37.4536  8137.63  89.1153
 37.4956  8186.48  89.4273
 37.5376  8236.3  91.2474
 37.5796  8153.44  90.7659
 37.6216  8146.41  88.9836
 37.6636  8102.61  88.646
 37.7056  8367.3  90.274
 37.7476  8172.42  88.754
 37.7896  8207.7  89.4492
 37.8316  7989.1  88.4177
 37.8736  8210.65  89.1619
 37.9156  8069.02  88.3887
 37.9576  8200.56  88.9975
 37.9996  8113.89  88.2407
 38.0416  8031.5  88.6026
 38.0836  8274.48  89.8342
 38.1256  8164.99  89.2017
 38.1676  8111.26  89.0413
 38.2096  8170.31  88.9832
 38.2516  8294.22  89.8649
 38.2936  8168.58  88.9715
 38.3356  8197.02  89.0498
 38.3776  7960.11  88.0257
 38.4196  8291.47  89.6924
 38.4616  8066.32  88.7045
 38.5036  8202.48  89.2855
 38.5456  8062.46  89.3573
 38.5876  8088.77  89.5297
 38.6296  7937.02  87.6582
 38.6716  7971.47  87.6472
 38.7136  7818.54  86.7477
 38.7556  7942.72  87.939
 38.7976  7980.1  88.0835
 38.8396  7928.01  88.2479
 38.8816  7955.29  88.1782
 38.9236  7953.71  87.9806
 38.9656  7987.4  88.0806
 39.0076  8059.78  87.8814
 39.0496  7987.89  88.0327
 39.0916  7984.19  87.6397
 39.1336  8012.65  88.2296
 39.1756  7891.75  87.6278
 39.2176  7969.57  88.5908
 39.2596  8030.57  88.8492
 39.3016  8060.15  88.5826
 39.3436  7993.86  88.6446
 39.3856  7936.78  87.7765
 39.4276  7987.22  88.5524
 39.4696  7964.12  88.0481
 39.5116  7907.23  88.2457
 39.5536  8066.3  89.5626
 39.5956  8066.17  88.652
 39.6376  8071.68  88.6921
 39.6796  8064.47  88.3878
 39.7216  8071.86  88.5296
 39.7636  7977.19  88.5856
 39.8056  8072.53  88.8831
 39.8476  8067.2  89.1043
 39.8896  7949.63  88.0842
 39.9316  7898.34  88.0556
 39.9736  8033.06  88.3705
 40.0156  7997.82  87.9957
 40.0576  8068.42  88.7514
 40.0996  8200.06  88.6434
 40.1416  8093.83  88.8573
 40.1836  8047.81  88.4992
 40.2256  7992.95  88.2491
 40.2676  8083.81  88.8569
 40.3096  8124.43  88.9944
 40.3516  8149.21  89.243
 40.3936  8070.22  88.372
 40.4356  8056.31  88.4871
 40.4776  8009.26  88.6451
 40.5196  8165.51  89.6348
 40.5616  8055.38  88.668
 40.6036  8031.77  88.7895
 40.6456  8084.82  88.6866
 40.6876  8286.88  89.7745
 40.7296  8120.17  89.0105
 40.7716  8092.46  88.9908
 40.8136  8049  88.6892
 40.8556  8031.01  88.7277
 40.8976  8021.92  88.5969
 40.9396  8025.71  88.9676
 40.9816  8127.68  88.8093
 41.0236  8212.18  89.0511
 41.0656  8193.84  89.4967
 41.1076  8170.09  89.1339
 41.1496  8108.67  88.7055
 41.1916  8092.79  88.9447
 41.2336  8103.68  88.9916
 41.2756  8055.73  88.3312
 41.3176  7940.27  88.3131
 41.3596  8027.81  88.5239
 41.4016  8088.57  89.1205
 41.4436  8107.47  89.0136
 41.4856  8130.85  89.3041
 41.5276  7955.57  88.3544
 41.5696  7997.24  88.2126
 41.6116  7966.69  88.446
 41.6536  7970.44  88.3229
 41.6956  8071.55  88.9383
 41.7376  8011.24  88.6316
 41.7796  8084.45  88.921
 41.8216  8002.58  88.701
 41.8636  8087.08  89.1075
 41.9056  8020.58  88.5301
 41.9476  8019.32  88.758
 41.9896  8033.93  88.5044
 42.0316  8069.41  88.7773
 42.0736  7996.74  88.4939
 42.1156  7906.47  87.8301
 42.1576  7970.74  88.2839
 42.1996  8011.88  88.6577
 42.2416  8013.28  88.2416
 42.2836  7987.84  88.2098
 42.3256  7843.8  87.5331
 42.3676  7992.02  88.1605
 42.4096  7976.31  88.0303
 42.4516  7924.63  87.8378
 42.4936  7960.49  88.1022
 42.5356  8001.51  88.4639
 42.5776  7971.59  88.2395
 42.6196  8058.23  88.7706
 42.6616  7788.87  87.4468
 42.7036  7957.33  87.7672
 42.7456  8028.84  88.5203
 42.7876  7886.32  87.8363
 42.8296  7939.71  87.9604
 42.8716  7850.72  87.6242
 42.9136  7838.5  87.345
 42.9556  7844.53  87.511
 42.9976  7927.32  87.9345
 43.0396  7967.88  87.8871
 43.0816  7906.64  87.926
 43.1236  7864.92  87.7598
 43.1656  7955.76  88.0943
 43.2076  7812.41  87.4041
 43.2496  7830.31  87.306
 43.2916  7838.05  87.7257
 43.3336  7931.97  88.0829
 43.3756  7812.2  87.1679
 43.4176  7680.03  86.5049
 43.4596  7726.33  86.6263
 43.5016  7719.32  86.9942
 43.5436  7806.97  87.3882
 43.5856  7792.55  87.3322
 43.6276  7758.86  87.0385
 43.6696  7669.14  86.7909
 43.7116  7819.26  87.1299
 43.7536  7825.51  87.6536
 43.7956  7691.52  88.0683
 43.8376  7797.91  87.2334
 43.8796  7709.59  86.8181
 43.9216  7715.9  86.7712
 43.9636  7765.08  87.1601
 44.0056  7714.92  87.1074
 44.0476  7652.36  86.3867
 44.0896  7629.16  86.5935
 44.1316  7838.19  87.291
 44.1736  7717.07  86.7413
 44.2156  7671.6  86.3381
 44.2576  7627.75  86.4163
 44.2996  7683.89  86.6959
 44.3416  7689.57  86.4969
 44.3836  7425.04  85.3141
 44.4256  7476.51  85.2627
 44.4676  7613.87  86.1975
 44.5096  7588.44  86.1973
 44.5516  7687.03  86.71
 44.5936  7511.66  85.6783
 44.6356  7540.58  85.5808
 44.6776  7596.2  86.2126
 44.7196  7491.73  85.9224
 44.7616  7542.61  87.5465
 44.8036  7508.42  85.7741
 44.8456  7513.98  86.0145
 44.8876  7465.05  85.5791
 44.9296  7579.44  85.69
 44.9716  7544.36  85.9187
 45.0136  7621.95  86.2948
 45.0556  7581.7  86.04
 45.0976  7534.41  85.9319
 45.1396  7351.98  84.654
 45.1816  7526.81  85.589
 45.2236  7430.64  84.9349
 45.2656  7448.89  85.5426
 45.3076  7417.52  85.1372
 45.3496  7386.54  85.2744
 45.3916  7474.71  86.0403
 45.4336  7410.83  85.5234
 45.4756  7447.74  85.5913
 45.5176  7402.44  84.9486
 45.5596  7625.6  86.3448
 45.6016  7403.11  85.4915
 45.6436  7498.27  85.2098
 45.6856  7393.66  85.2691
 45.7276  7368.62  86.4456
 45.7696  7369.41  86.1174
 45.8116  7446.31  85.9967
 45.8536  7332.89  85.236
 45.8956  7470.85  85.3822
 45.9376  7386.01  84.3626
 45.9796  7457.58  85.454
 46.0216  7297.63  84.8778
 46.0636  7464.97  84.9826
 46.1056  7520.68  85.2888
 46.1476  7413.91  85.2688
 46.1896  7381.51  85.2355
 46.2316  7293.62  84.5872
 46.2736  7315.53  85.0893
 46.3156  7366.83  84.9745
 46.3576  7372.72  85.2127
 46.3996  7211.87  84.4363
 46.4416  7312.65  84.6012
 46.4836  7301.69  84.8955
 46.5256  7421.81  85.5281
 46.5676  7262.92  84.7196
 46.6096  7378.85  85.3237
 46.6516  7334.67  84.1148
 46.6936  7383.52  84.8895
 46.7356  7407.09  85.1299
 46.7776  7315.21  85.4418
 46.8196  7353.45  85.2624
 46.8616  7162.48  84.092
 46.9036  7199.13  83.9701
 46.9456  7227.07  83.7742
 46.9876  7244.19  83.9574
 47.0296  7196.85  84.3678
 47.0716  7177.95  84.0768
 47.1136  7244.86  84.1504
 47.1556  7179.6  83.6415
 47.1976  7292.43  84.3731
 47.2396  7206.47  84.2731
 47.2816  7160.09  83.6977
 47.3236  7102.23  83.7324
 47.3656  7234.28  84.4297
 47.4076  7120  83.5706
 47.4496  7217.63  84.2324
 47.4916  7089.22  83.6686
 47.5336  7201.95  84.1487
 47.5756  7275.81  84.6985
 47.6176  7144.14  83.8275
 47.6596  7088.25  83.2147
 47.7016  7272.01  84.1089
 47.7436  7266.07  84.402
 47.7856  7195.24  84.0207
 47.8276  7066.7  83.3154
 47.8696  7068.41  83.4099
 47.9116  7142.62  83.5604
 47.9536  7105.41  83.2891
 47.9956  7026.99  83.5244
 48.0376  6962.43  82.9116
 48.0796  7036.35  83.482
 48.1216  7113.59  83.7592
 48.1636  7307.57  84.4667
 48.2056  7182.1  84.0032
 48.2476  7206.96  84.457
 48.2896  7118.51  83.8504
 48.3316  7109.76  83.7358
 48.3736  7077.86  83.5701
 48.4156  7019.92  83.0858
 48.4576  7161.85  84.2131
 48.4996  7182.24  83.7888
 48.5416  7114.11  83.715
 48.5836  7097.94  83.2968
 48.6256  7146.49  83.7907
 48.6676  6980.21  83.3159
 48.7096  7013.61  82.7963
 48.7516  7003.37  82.8795
 48.7936  6970.92  82.7461
 48.8356  7109.45  83.6138
 48.8776  7017.41  83.6351
 48.9196  7051.35  83.2124
 48.9616  6992.56  83.2473
 49.0036  6972.49  83.4695
 49.0456  6940.97  83.2653
 49.0876  7068.03  83.5631
 49.1296  6929.22  82.8877
 49.1716  6907.4  82.6328
 49.2136  7001.97  83.1224
 49.2556  6985.24  83.0596
 49.2976  7032.71  83.4032
 49.3396  6950.58  82.977
 49.3816  7033.14  82.8976
 49.4236  6967.23  82.9332
 49.4656  6871.96  82.3796
 49.5076  7049.42  83.1875
 49.5496  6872.44  82.1996
 49.5916  6944.27  82.5429
 49.6336  6958.11  82.8287
 49.6756  6951.77  83.0211
 49.7176  6894.8  82.6196
 49.7596  6900.68  82.4263
 49.8016  6982.61  82.8285
 49.8436  6894.77  82.605
 49.8856  6836.29  82.2661
 49.9276  6880.5  82.6223
 49.9696  6911.95  82.7978
 50.0116  6890.51  82.7953
 50.0536  6958.45  83.1526
 50.0956  6745.93  81.9468
 50.1376  6813.54  82.054
 50.1796  6801.52  82.2493
 50.2216  6819.44  82.349
 50.2636  6775.99  81.716
 50.3056  6795.21  82.0004
 50.3476  6924.69  82.804
 50.3896  6726.04  81.5679
 50.4316  6788.71  81.7953
 50.4736  6740.51  81.7149
 50.5156  6929.12  82.8439
 50.5576  6807.97  81.8796
 50.5996  6772.83  81.9435
 50.6416  6797.96  82.0303
 50.6836  6719.32  81.6089
 50.7256  6898.47  82.6138
 50.7676  6733.91  81.928
 50.8096  6807.25  81.9247
 50.8516  6698.44  81.6761
 50.8936  6628.66  81.0371
 50.9356  6829.96  82.3573
 50.9776  6770.88  82.1551
 51.0196  6499.12  80.6181
 51.0616  6696.97  81.1593
 51.1036  6807.64  82.1854
 51.1456  6808.92  82.1071
 51.1876  6699.14  80.7901
 51.2296  6664.04  81.2114
 51.2716  6702.25  81.1476
 51.3136  6480.99  80.2436
 51.3556  6641.57  80.8623
 51.3976  6676.44  81.2241
 51.4396  6488.78  80.3694
 51.4816  6563.66  80.683
 51.5236  6657.83  81.3487
 51.5656  6658.15  80.961
 51.6076  6707.56  81.3384
 51.6496  6746.49  81.7686
 51.6916  6590.73  81.1637
 51.7336  6606.34  81.3627
 51.7756  6733.18  81.8349
 51.8176  6612.51  81.2055
 51.8596  6541.92  80.7827
 51.9016  6875.13  82.4209
 51.9436  6601.47  82.2021
 51.9856  6621.94  82.7626
 52.0276  6705.97  81.7995
 52.0696  6636.02  81.439
 52.1116  6606.88  81.3638
 52.1536  6453.43  80.3125
 52.1956  6643.53  80.9536
 52.2376  6829.72  82.2574
 52.2796  6699.55  81.2768
 52.3216  6532.47  80.942
 52.3636  6573.74  80.7807
 52.4056  6584.79  80.7017
 52.4476  6511.62  80.6156
 52.4896  6489.96  80.5375
 52.5316  6541.39  80.8973
 52.5736  6600.28  80.985
 52.6156  6469.57  80.5421
 52.6576  6599.07  80.8002
 52.6996  6373.54  80.3672
 52.7416  6547.61  81.3222
 52.7836  6426.94  80.4352
 52.8256  6550.4  80.4342
 52.8676  6368.47  79.8848
 52.9096  6549.01  81.0944
 52.9516  6553.06  81.48
 52.9936  6411.27  80.9827
 53.0356  6299.29  79.2918
 53.0776  6402.2  80.1931
 53.1196  6448.56  80.6122
 53.1616  6462.4  80.7445
 53.2036  6362.19  80.0691
 53.2456  6329.82  79.9663
 53.2876  6341.11  79.7486
 53.3296  6361.6  80.2015
 53.3716  6392.43  80.1453
 53.4136  6371.28  80.1488
 53.4556  6349.89  80.052
 53.4976  6326.07  79.7528
 53.5396  6323.85  80.1271
 53.5816  6383.72  80.1411
 53.6236  6302.82  79.9688
 53.6656  6340.04  79.8408
 53.7076  6421.74  80.3136
 53.7496  6467.57  80.7182
 53.7916  6467.43  80.84
 53.8336  6274.23  79.5268
 53.8756  6234.02  79.8138
 53.9176  6371.86  80.0418
 53.9596  6452.84  81.3208
 54.0016  6363.09  80.0845
 54.0436  6284.84  79.8074
 54.0856  6441.68  80.2238
 54.1276  6314.46  79.6231
 54.1696  6268.78  79.4994
 54.2116  6400.12  80.09
 54.2536  6354.75  79.6173
 54.2956  6425.17  80.107
 54.3376  6242.49  79.4374
 54.3796  6388.45  80.2607
 54.4216  6472.43  80.8298
 54.4636  6372.48  80.1687
 54.5056  6356.27  79.8907
 54.5476  6265.9  79.6462
 54.5896  6411.81  80.4046
 54.6316  6294.38  79.5193
 54.6736  6244.58  79.2751
 54.7156  6384.55  80.1874
 54.7576  6232.05  79.2164
 54.7996  6366.37  80.2043
 54.8416  6283.47  79.726
 54.8836  6196.61  79.2868
 54.9256  6331.54  79.889
 54.9676  6303.3  79.5709
 55.0096  6258.5  79.3587
 55.0516  6306.83  79.8989
 55.0936  6265.05  79.2693
 55.1356  6301.94  79.5417
 55.1776  6279.09  79.659
 55.2196  6343.15  79.8522
 55.2616  6243.09  79.428
 55.3036  6229  79.5009
 55.3456  6270.23  79.9125
 55.3876  6263.44  79.6153
 55.4296  6303.98  79.8482
 55.4716  6227.97  79.3987
 55.5136  6279.46  79.4818
 55.5556  6302.08  79.6987
 55.5976  6313.01  79.8257
 55.6396  6217.22  79.1672
 55.6816  6243.27  79.2101
 55.7236  6334.35  79.8272
 55.7656  6291.98  79.3153
 55.8076  6361.6  79.7378
 55.8496  6275  79.5121
 55.8916  6233.47  79.4504
 55.9336  6205.44  79.0906
 55.9756  6251.76  79.2771
 56.0176  6224.96  79.2584
 56.0596  6215.21  79.1748
 56.1016  6209.23  79.1573
 56.1436  6204.09  79.3766
 56.1856  6193.15  79.0519
 56.2276  6181.49  79.0344
 56.2696  6161.23  78.8788
 56.3116  6153.4  79.2293
 56.3536  6244.3  79.468
 56.3956  6179.9  79.0502
 56.4376  6143.97  78.8518
 56.4796  6198.46  79.0057
 56.5216  6173.54  79.2153
 56.5636  6252.93  79.3148
 56.6056  6229.29  79.3972
 56.6476  6179.89  78.7126
 56.6896  6207.16  79.3295
 56.7316  6117.17  78.67
 56.7736  6209.18  79.2491
 56.8156  6265.64  79.6112
 56.8576  6175.02  78.9734
 56.8996  6221.67  79.2051
 56.9416  6175.65  79.2119
 56.9836  6097.77  78.2304
 57.0256  6141.52  78.8306
 57.0676  6197.62  79.316
 57.1096  6196.88  79.0961
 57.1516  6237.76  79.42
 57.1936  6223.94  79.08
 57.2356  6142.6  78.8796
 57.2776  6192.58  79.1584
 57.3196  6252.05  79.9099
 57.3616  6138.69  78.6732
 57.4036  6191.05  79.071
 57.4456  6155.48  78.8099
 57.4876  6213.86  79.0312
 57.5296  6187.15  79.2107
 57.5716  6150.62  78.9657
 57.6136  6166.18  78.8865
 57.6556  6190.45  79.1789
 57.6976  6152.96  78.7588
 57.7396  6077.14  78.6419
 57.7816  6041.43  78.7674
 57.8236  6063.89  78.7142
 57.8656  6248.87  79.5607
 57.9076  6169.2  79.0834
 57.9496  6126.62  79.1563
 57.9916  6168.58  78.938
 58.0336  6117.91  78.8923
 58.0756  6090.79  78.3559
 58.1176  6162.48  78.8072
 58.1596  6152.81  79.3133
 58.2016  6235.44  79.0625
 58.2436  6187.27  79.1724
 58.2856  6158.75  78.9107
 58.3276  6116.22  79.0089
 58.3696  6117.18  78.7634
 58.4116  6103.71  78.5393
 58.4536  6168.3  78.8399
 58.4956  6022.52  78.0854
 58.5376  6232.01  78.9962
 58.5796  6191.03  79.1649
 58.6216  6176.86  78.8913
 58.6636  6301.82  79.9042
 58.7056  6133.82  78.6805
 58.7476  6117.87  79.0275
 58.7896  6126.46  78.7266
 58.8316  6192.28  79.1391
 58.8736  6288.96  79.7643
 58.9156  6077.52  78.4567
 58.9576  6241.52  79.8332
 58.9996  6231.88  78.9925
 59.0416  6316.72  79.9119
 59.0836  6223.79  79.2453
 59.1256  5999.2  78.5035
 59.1676  6089.71  79.3936
 59.2096  6130.98  78.9828
 59.2516  6366.95  80.0582
 59.2936  6253.6  79.6762
 59.3356  6350.27  80.1643
 59.3776  6352.43  80.3513
 59.4196  6184.32  79.2166
 59.4616  6154.16  78.8814
 59.5036  6187.61  79.1315
 59.5456  6260.87  79.2861
 59.5876  6416.62  80.4632
 59.6296  6072.77  78.3471
 59.6716  6223.84  79.3744
 59.7136  6102.16  78.5829
 59.7556  6177.43  79.2041
 59.7976  6092.4  78.3981
 59.8396  6070.17  78.1489
 59.8816  6183.64  79.4279
 59.9236  6004.22  77.9118
 59.9656  6063.58  78.5573
 60.0076  6270.17  79.2294
 60.0496  6323.29  80.0786
 60.0916  6362.86  79.7327
 60.1336  6104.48  79.2104
 60.1756  6080.85  80.2454
 60.1996  0.0000000E+00  0.0000000E+00