File: docs/examples/opeando_xrd/IS17_D/Data/IS17_D/17_Da_f00112.xye
# /beamlines/bl04/projects/cycle2025-II/20250340211-lsimonelli/DATA/IS17_D/17_Da_f00112.xye : mythproc.py merge -s 0.006 -l 0.5 -f /beamlines/bl04/inhouse/ff/FlatField/ff_20Nov2024rod8mm60s_17keV.raw -b True -c true -o xye /beamlines/bl04/projects/cycle2025-II/20250340211-lsimonelli/DATA/IS17_D/17_Da_00112.dat
# IsMon = [6772396, 6765619, 6763468]  IsPos = [-1.4999, -2.4884, -3.4988]
# Wave = 0.4962  CalPath /beamlines/bl04/projects/cycle2025-II/20250340211-lsimonelli/DATA/Align/Si_Pos1_25keV_f00001.cal
# Date = 2025-09-25_00:47:17 Dt = 4.8000  Bin = 0.0060  <imon> = 6767161 +/- 3804 (Min/Max) 6763468 / 6772396
# icurr 250.9183  mocoIn 1.7119E-05  mocoOut 0.8027  i15 7.08927e+06  imon 6.76716e+06  i7 4.6667  iEMpd_timer 4.8000  iEMpd_1 3.5031E-08  iEMpd_2 7.8560E-08  iEMpd_3 1.6986E-08  iEMpd_4 4.8417E-08  iEMhp_timer 4.8000  iEMhp_1 4.9027E-06  iEMhp_2 -2.5590E-08  iEMhp_3 -2.5025E-08  iEMhp_4 -2.0177E-08
#      9776
 1.5856  41256.9  208.489
 1.6276  48608.1  222.419
 1.6696  55124.9  236.025
 1.7116  63338.2  253.493
 1.7536  72876.2  270.752
 1.7956  77524.3  279.951
 1.8376  73740.2  273.465
 1.8796  62170.9  249.247
 1.9216  50345  225.19
 1.9636  42961.9  207.171
 2.0056  38970.6  196.548
 2.0476  36023  191.041
 2.0896  34889.7  186.909
 2.1316  33790.8  183.058
 2.1736  32078.7  179.775
 2.2156  33196.1  181.411
 2.2576  31839.1  178.301
 2.2996  30761.2  175.901
 2.3416  31223  175.802
 2.3836  30487.3  173.825
 2.4256  29719.1  172.18
 2.4676  29325.7  170.795
 2.5096  29130  170.28
 2.5516  28672.4  172.895
 2.5936  28689.5  169.455
 2.6356  28156.5  168.581
 2.6776  28067.9  167.186
 2.7196  27741.4  166.729
 2.7616  27490.3  165.745
 2.8036  27434.4  165.754
 2.8456  27218.1  165.724
 2.8876  26727.5  164.117
 2.9296  26245.9  162.748
 2.9716  25998  161.456
 3.0136  25926.7  161.305
 3.0556  25884.1  161.583
 3.0976  25777.8  160.133
 3.1396  25288.6  159.357
 3.1816  25087.7  158.658
 3.2236  24970.7  158.287
 3.2656  25157.9  157.9
 3.3076  24478.8  157.221
 3.3496  24842.9  157.316
 3.3916  25095.9  157.922
 3.4336  25471.9  159.69
 3.4756  25842.1  160.757
 3.5176  26793.4  163.499
 3.5596  26679.7  165.645
 3.6016  26877.5  163.831
 3.6436  25642.3  161.145
 3.6856  25378.2  158.579
 3.7276  24345.5  156.424
 3.7696  24140.4  155.967
 3.8116  23736.6  154.533
 3.8536  23750.7  154.505
 3.8956  23804.8  154.51
 3.9376  23653.9  154.275
 3.9796  23543.6  153.418
 4.0216  23471.1  152.214
 4.0636  23507.2  153.818
 4.1056  23523.5  153.509
 4.1476  23736.4  154.505
 4.1896  24091.1  155.525
 4.2316  24073.2  155.285
 4.2736  24553.6  156.617
 4.3156  24875.5  157.885
 4.3576  25504.8  159.787
 4.3996  25657  160.531
 4.4416  26042.4  161.302
 4.4836  26539.3  162.992
 4.5256  27029.3  165.089
 4.5676  26912  165.003
 4.6096  27529.6  165.502
 4.6516  28028.6  166.726
 4.6936  27988.7  167.436
 4.7356  28321.1  168.246
 4.7776  28249  167.876
 4.8196  27853.7  167.32
 4.8616  27331.2  165.247
 4.9036  27211.4  164.599
 4.9456  27171.9  165.159
 4.9876  26675.7  163.541
 5.0296  26896.2  164.026
 5.0716  26670.5  164.144
 5.1136  26921.5  164.604
 5.1556  27223.6  164.996
 5.1976  27508.1  165.817
 5.2396  27538.6  165.622
 5.2816  27624.4  166.328
 5.3236  27762.6  166.463
 5.3656  27281.6  165.941
 5.4076  27115.3  165.591
 5.4496  27230.6  165.432
 5.4916  27186.1  165.041
 5.5336  27154.9  164.966
 5.5756  27007.4  164.516
 5.6176  27241.8  164.677
 5.6596  27363  166.011
 5.7016  27605.1  166.017
 5.7436  27863.8  167.068
 5.7856  27697.4  166.628
 5.8276  27998.6  167.267
 5.8696  28100  167.728
 5.9116  27982.3  167.983
 5.9536  28209.3  168.396
 5.9956  28531.2  168.735
 6.0376  28589.6  169.547
 6.0796  29083.2  170.834
 6.1216  28963.5  170.703
 6.1636  29130.2  170.225
 6.2056  29147.6  170.964
 6.2476  29558.4  172.025
 6.2896  29660.1  171.998
 6.3316  29627.6  172.063
 6.3736  29671.2  172.097
 6.4156  29652.7  171.921
 6.4576  29878.1  172.195
 6.4996  30203.1  173.631
 6.5416  30013.1  173.206
 6.5836  30207.2  174.016
 6.6256  30110.9  173.278
 6.6676  30777.1  174.749
 6.7096  30598.2  175.085
 6.7516  31197.3  176.46
 6.7936  31296.3  176.155
 6.8356  31362.4  176.424
 6.8776  31789.8  178.448
 6.9196  31731.1  178.676
 6.9616  32381.8  179.94
 7.0036  32854.6  180.887
 7.0456  32721.9  179.808
 7.0876  32720.5  181.518
 7.1296  32569.9  180.228
 7.1716  32605.3  179.851
 7.2136  32393.4  179.049
 7.2556  32571.5  179.704
 7.2976  32458.3  179.896
 7.3396  32503.5  180.242
 7.3816  32440.6  180.28
 7.4236  32673.8  180.208
 7.4656  32882.7  180.263
 7.5076  33268.9  181.453
 7.5496  33090.6  181.526
 7.5916  33158.8  181.73
 7.6336  33449.7  182.42
 7.6756  33630.8  182.763
 7.7176  33950.6  183.929
 7.7596  33888.5  185.042
 7.8016  34150.2  187.934
 7.8436  34791.8  186.38
 7.8856  34865.1  186.183
 7.9276  35617  188.586
 7.9696  35778.5  189.324
 8.0116  36536.3  189.832
 8.0536  36936.4  191.134
 8.0956  36739.8  191.81
 8.1376  37682.2  193.72
 8.1796  37553.3  193.932
 8.2216  38380.6  194.78
 8.2636  38230.8  194.65
 8.3056  38194.6  195.346
 8.3476  39168  197.124
 8.3896  38620.2  195.826
 8.4316  38570  195.866
 8.4736  38856.6  196.053
 8.5156  38690.3  195.907
 8.5576  38266.8  195.819
 8.5996  38520.2  195.322
 8.6416  38430  196.372
 8.6836  38475.2  196.323
 8.7256  38586.7  196.032
 8.7676  37992.3  197.437
 8.8096  37917.6  194.49
 8.8516  37928.4  194.126
 8.8936  37195.2  192.132
 8.9356  37293.7  192.712
 8.9776  37434  193.184
 9.0196  37170.5  192.165
 9.0616  37677.6  192.937
 9.1036  36685  191.599
 9.1456  37017.7  191.828
 9.1876  37170.9  192.152
 9.2296  37480.8  192.365
 9.2716  36088.2  188.801
 9.3136  36503.1  189.868
 9.3556  37017.7  191.177
 9.3976  35370.1  187.394
 9.4396  35687.9  188.142
 9.4816  35138.6  186.526
 9.5236  35362.4  187.054
 9.5656  35152.4  186.815
 9.6076  35132  187.335
 9.6496  34871.2  186.537
 9.6916  34753.2  186.211
 9.7336  34636.7  185.654
 9.7756  35162.7  188.368
 9.8176  33922.3  184.466
 9.8596  33891.8  182.81
 9.9016  33360.8  181.366
 9.9436  33078.3  180.511
 9.9856  32892.2  180.234
 10.0276  32432.4  180.082
 10.0696  32760.1  180.013
 10.1116  31871.4  177.824
 10.1536  31815.5  177.836
 10.1956  31103.6  175.435
 10.2376  30849.7  174.195
 10.2796  30921.7  174.546
 10.3216  30615.8  173.954
 10.3636  30363.5  173.263
 10.4056  30168.5  173.129
 10.4476  29782.4  171.622
 10.4896  30078.8  171.924
 10.5316  29345.1  170.522
 10.5736  28979.4  169.872
 10.6156  28802.3  169.1
 10.6576  28964.9  168.153
 10.6996  28724.8  168.122
 10.7416  28160.4  166.706
 10.7836  28540  168.542
 10.8256  28188  167.931
 10.8676  28174.9  167.426
 10.9096  27892.3  166.615
 10.9516  27462.5  164.259
 10.9936  27749.2  165.314
 11.0356  27403.4  164.92
 11.0776  27375.6  164.145
 11.1196  26966.9  163.663
 11.1616  26502.8  161.945
 11.2036  26720.9  162.458
 11.2456  26649.9  162.954
 11.2876  26450.8  162.046
 11.3296  26156.7  161.069
 11.3716  26514.8  161.848
 11.4136  26518.4  162.767
 11.4556  26525  162.467
 11.4976  26710.1  161.981
 11.5396  27047  163.181
 11.5816  27628.5  165.386
 11.6236  28057.8  166.898
 11.6656  27591.6  164.62
 11.7076  26824.7  163.188
 11.7496  26177.8  165.191
 11.7916  26086.5  160.183
 11.8336  25882.5  160.465
 11.8756  25635.6  159.217
 11.9176  25634.5  158.875
 11.9596  25203.4  157.692
 12.0016  25161.6  158.382
 12.0436  25094.7  157.568
 12.0856  24928.8  157.594
 12.1276  24795.9  157.083
 12.1696  25077  157.1
 12.2116  25193.2  157.473
 12.2536  24748.6  156.906
 12.2956  24816.9  156.462
 12.3376  24486.1  155.595
 12.3796  24977.3  157.632
 12.4216  24839.7  156.408
 12.4636  24388.3  155.899
 12.5056  24698.2  156.153
 12.5476  24926.4  156.392
 12.5896  24874.3  156.881
 12.6316  24431.1  155.609
 12.6736  24552  156.507
 12.7156  24503.8  156.192
 12.7576  24532.6  156.54
 12.7996  24696  155.694
 12.8416  24472.1  156.049
 12.8836  25065.3  157.767
 12.9256  25066.6  156.755
 12.9676  25072.2  157.22
 13.0096  24903.3  157.773
 13.0516  24917  156.855
 13.0936  25228.1  158.222
 13.1356  25703.9  158.69
 13.1776  25403.9  158.77
 13.2196  25456.5  158.585
 13.2616  25554.6  159.218
 13.3036  25404.1  158.708
 13.3456  25466.7  159.277
 13.3876  25179.2  157.628
 13.4296  25248.5  158.015
 13.4716  25657.2  158.885
 13.5136  25406.4  158.259
 13.5556  25446.9  159.02
 13.5976  25343.3  158.837
 13.6396  25574  158.93
 13.6816  24981.6  157.563
 13.7236  25722.8  159.524
 13.7656  25098.6  158.1
 13.8076  25232.5  157.305
 13.8496  24890.9  156.826
 13.8916  24875.6  157.8
 13.9336  25058.1  157.619
 13.9756  24864  156.327
 14.0176  24849.8  156.995
 14.0596  24744.7  156.615
 14.1016  24490  156.203
 14.1436  24282.8  154.645
 14.1856  24006.6  154.079
 14.2276  23810.2  153.922
 14.2696  24017.4  154.446
 14.3116  23742.2  153.472
 14.3536  23332.2  152.306
 14.3956  23281.8  151.871
 14.4376  23473.1  152.265
 14.4796  23237.8  151.494
 14.5216  22854  151.041
 14.5636  23082.6  151.35
 14.6056  23143.4  151.112
 14.6476  23119.4  150.257
 14.6896  22477.1  148.703
 14.7316  22069.4  148.375
 14.7736  22091.3  147.599
 14.8156  21867.6  146.883
 14.8576  21887.7  146.796
 14.8996  21513.1  146.76
 14.9416  20970.1  144.898
 14.9836  21201.7  145.67
 15.0256  20870.4  143.456
 15.0676  21048  144.388
 15.1096  20838.4  143.4
 15.1516  20344.7  142.25
 15.1936  20480.2  142.146
 15.2356  20077.6  141.025
 15.2776  20098.5  140.676
 15.3196  19821.9  140.724
 15.3616  19865.2  140.63
 15.4036  19572.8  139.446
 15.4456  19700.4  139.535
 15.4876  19632.4  138.976
 15.5296  19292.8  138.055
 15.5716  19119.8  137.032
 15.6136  18994.2  136.91
 15.6556  19056  136.365
 15.6976  19042.8  136.614
 15.7396  18680.8  135.712
 15.7816  18796.5  135.62
 15.8236  18343.5  134.696
 15.8656  18621  135.49
 15.9076  18181.9  133.711
 15.9496  18007.5  135.835
 15.9916  18090.9  136.612
 16.0336  17876.5  132.631
 16.0756  17747.5  132.478
 16.1176  17879.1  133.041
 16.1596  17304.8  132.074
 16.2016  17652.5  132.134
 16.2436  17418.8  131.632
 16.2856  17189.2  130.304
 16.3276  17017.5  130.073
 16.3696  17070.8  130.092
 16.4116  16911.3  129.947
 16.4536  17131.4  130.574
 16.4956  16887.4  129.361
 16.5376  16851.1  129.42
 16.5796  16864.4  128.816
 16.6216  16835.6  129.025
 16.6636  16625.9  128.392
 16.7056  16857  129.131
 16.7476  16847.5  128.612
 16.7896  16753.5  129.017
 16.8316  16609  128.407
 16.8736  16720.3  129.098
 16.9156  16558.3  128.826
 16.9576  16608.8  129.831
 16.9996  16605.1  130.316
 17.0416  16963.1  130.022
 17.0836  16744.9  128.929
 17.1256  16486.7  127.943
 17.1676  16601.3  128.381
 17.2096  16286.6  127.032
 17.2516  16295  126.846
 17.2936  16206.5  126.821
 17.3356  16071.7  126.283
 17.3776  16156.8  126.832
 17.4196  16011.7  125.963
 17.4616  15975.9  125.728
 17.5036  15623  124.71
 17.5456  15598.5  125.249
 17.5876  15369.9  123.371
 17.6296  15529.9  123.827
 17.6716  15489.4  124.247
 17.7136  15252.5  123.424
 17.7556  15068.8  122.982
 17.7976  15253.7  123.475
 17.8396  14958.2  121.77
 17.8816  15099  122.904
 17.9236  14926.4  121.994
 17.9656  15048  123.054
 18.0076  15002.9  122.44
 18.0496  14987  121.508
 18.0916  14872.9  121.581
 18.1336  14819.7  121.464
 18.1756  15005.7  121.742
 18.2176  14722.6  120.827
 18.2596  14842.6  121.054
 18.3016  14845.4  121.315
 18.3436  14744.3  120.912
 18.3856  14553.4  120.243
 18.4276  14629  120.236
 18.4696  14598.4  120.212
 18.5116  14624.3  120.61
 18.5536  14709.4  121.33
 18.5956  14539.5  120.167
 18.6376  14607.3  120.862
 18.6796  14578.8  120.055
 18.7216  14652.6  120.852
 18.7636  14355.6  119.598
 18.8056  14455.5  119.968
 18.8476  14231.4  119.668
 18.8896  14353.3  119.499
 18.9316  14432  119.822
 18.9736  14352  119.174
 19.0156  14238.7  119.113
 19.0576  14286.9  118.16
 19.0996  14462.9  119.617
 19.1416  14142.6  118.663
 19.1836  14261.1  118.771
 19.2256  14185.8  118.673
 19.2676  14335.3  119.389
 19.3096  14384.5  119.854
 19.3516  14258.8  119.272
 19.3936  14117.8  118.588
 19.4356  14374.4  119.517
 19.4776  14305.3  119.338
 19.5196  14262.2  119.005
 19.5616  14094.5  118.568
 19.6036  14244.1  118.689
 19.6456  14299.1  119.035
 19.6876  14275.7  118.589
 19.7296  14206.3  118.738
 19.7716  14219.9  118.972
 19.8136  14164.7  118.937
 19.8556  14365.6  119.265
 19.8976  14338.6  119.217
 19.9396  14289.5  118.586
 19.9816  14598  120.113
 20.0236  14659.8  120.581
 20.0656  15054.3  122.198
 20.1076  14867.9  121.89
 20.1496  15230.7  123.389
 20.1916  15296  123.133
 20.2336  15231.7  122.816
 20.2756  14886.6  121.862
 20.3176  14592.1  120.391
 20.3596  14382.6  119.509
 20.4016  14330.7  119.084
 20.4436  14105.4  118.717
 20.4856  13907.2  117.648
 20.5276  13822.5  117.762
 20.5696  13888.3  117.486
 20.6116  13773  117.292
 20.6536  13841  117.075
 20.6956  13714.3  116.668
 20.7376  13749.4  117.062
 20.7796  13745.1  116.711
 20.8216  13755.5  116.463
 20.8636  13599.4  116.155
 20.9056  13480.6  115.612
 20.9476  13449.6  115.306
 20.9896  13653.4  116.054
 21.0316  13700.8  116.159
 21.0736  13390.8  115.345
 21.1156  13448.5  115.772
 21.1576  13414.5  115.664
 21.1996  13399.3  115.58
 21.2416  13362  115.237
 21.2836  13448.6  115.588
 21.3256  13235  114.735
 21.3676  13389.3  114.955
 21.4096  13231.5  114.587
 21.4516  13225.3  114.439
 21.4936  13014  113.779
 21.5356  13318.9  115.047
 21.5776  13383.2  115.151
 21.6196  13130.9  114.101
 21.6616  13098  114.043
 21.7036  13097.7  113.82
 21.7456  13219.5  114.421
 21.7876  13128.9  113.78
 21.8296  13123.6  113.612
 21.8716  13054.8  113.542
 21.9136  13519.9  115.758
 21.9556  13125.1  113.724
 21.9976  13025.9  113.293
 22.0396  13094.5  113.864
 22.0816  13102.5  114.46
 22.1236  13020.8  113.543
 22.1656  13035.4  113.734
 22.2076  13180.4  113.847
 22.2496  12975.3  112.983
 22.2916  13034.7  113.118
 22.3336  13013.1  113.764
 22.3756  12933.4  113.137
 22.4176  12846.6  112.606
 22.4596  12795.5  112.982
 22.5016  12843.8  112.679
 22.5436  13073.8  113.568
 22.5856  13105.7  113.951
 22.6276  12998.9  113.626
 22.6696  12948.2  113.767
 22.7116  13060.3  113.75
 22.7536  12940.9  113.214
 22.7956  13057.6  113.038
 22.8376  12804.7  112.471
 22.8796  13001.1  113.124
 22.9216  12978.7  113.587
 22.9636  13008.4  112.849
 23.0056  13045.6  113.139
 23.0476  13139.9  114.14
 23.0896  13322.8  114.293
 23.1316  13057.6  113.591
 23.1736  12907.9  115.901
 23.2156  12983.2  113.583
 23.2576  12989.4  113.716
 23.2996  13141.9  114.192
 23.3416  13165  114.792
 23.3836  12914.1  112.93
 23.4256  13100.5  113.849
 23.4676  13003.2  113.133
 23.5096  12834.8  113.079
 23.5516  12883.4  112.565
 23.5936  12893.1  113.517
 23.6356  13082.6  114.013
 23.6776  12971.8  113.762
 23.7196  12765.2  112.405
 23.7616  12858.7  112.752
 23.8036  12956.4  113.204
 23.8456  13024.3  113.08
 23.8876  12725.7  112.098
 23.9296  12625.3  112.167
 23.9716  12585.9  111.189
 24.0136  12698.5  112.593
 24.0556  12700.8  112.327
 24.0976  12401.7  110.809
 24.1396  12633.2  114.51
 24.1816  12477.6  112.22
 24.2236  12338.8  111.198
 24.2656  12356.9  110.748
 24.3076  12310.4  110.791
 24.3496  12485.1  111.474
 24.3916  12217.8  110.315
 24.4336  12171.9  110.317
 24.4756  12144.6  110.053
 24.5176  11854.6  108.388
 24.5596  12050.9  109.407
 24.6016  11945.3  109.219
 24.6436  11961.5  108.765
 24.6856  11914.1  108.322
 24.7276  12002.7  109.055
 24.7696  11801.9  108.243
 24.8116  11796.7  108.407
 24.8536  11810.6  108.454
 24.8956  11733  107.841
 24.9376  11565.2  107.003
 24.9796  11545  107.267
 25.0216  11452.2  106.933
 25.0636  11546  107.034
 25.1056  11393.8  107.035
 25.1476  11596.6  109.688
 25.1896  11555.5  107.95
 25.2316  11657.4  107.692
 25.2736  11513.3  106.67
 25.3156  11532.8  106.829
 25.3576  11358  106.439
 25.3996  11488.6  107.031
 25.4416  11495.6  107.053
 25.4836  11277.5  106.558
 25.5256  11430  106.631
 25.5676  11362.9  106.048
 25.6096  11130.2  105.532
 25.6516  11326.1  105.952
 25.6936  11215.1  105.731
 25.7356  11329.8  106.418
 25.7776  11296.8  105.861
 25.8196  11151.5  105.421
 25.8616  11307  106.08
 25.9036  11294.1  105.477
 25.9456  11244.2  105.847
 25.9876  11078.3  105.124
 26.0296  11208.5  105.254
 26.0716  11085.5  105.085
 26.1136  11158.9  105.386
 26.1556  11322.3  105.53
 26.1976  10980.4  104.847
 26.2396  11066.9  104.415
 26.2816  11067.4  105.021
 26.3236  10977.4  104.76
 26.3656  11083.2  104.973
 26.4076  11115.6  105.349
 26.4496  11585.3  107.026
 26.4916  11191.6  105.2
 26.5336  11194.6  105.541
 26.5756  11731  107.881
 26.6176  11070  104.874
 26.6596  10902  104.375
 26.7016  11017.3  104.683
 26.7436  10929.4  104.383
 26.7856  10848.5  103.991
 26.8276  11043  104.872
 26.8696  10848.3  103.815
 26.9116  10874.6  103.878
 26.9536  10713.1  103.154
 26.9956  10730.9  103.284
 27.0376  10802.8  103.823
 27.0796  10805.5  103.582
 27.1216  10619.9  102.75
 27.1636  10707.8  103.354
 27.2056  10652.7  102.969
 27.2476  10616.6  102.789
 27.2896  10760.2  103.605
 27.3316  10660.1  102.823
 27.3736  10539.1  102.516
 27.4156  10537.6  102.328
 27.4576  10527.1  102.527
 27.4996  10520.6  102.073
 27.5416  10538.8  102.495
 27.5836  10499.5  102.116
 27.6256  10797.6  103.713
 27.6676  10754.5  103.549
 27.7096  10414.4  101.76
 27.7516  10436.5  102.025
 27.7936  10369.3  101.848
 27.8356  10528  102.246
 27.8776  10340.2  101.363
 27.9196  10332.9  101.191
 27.9616  10421.3  101.818
 28.0036  10231  100.855
 28.0456  10320.1  101.436
 28.0876  10173.6  100.796
 28.1296  10157.5  100.555
 28.1716  10251  101.016
 28.2136  10419.8  101.819
 28.2556  10133.5  100.512
 28.2976  10183.1  100.76
 28.3396  10326.4  101.236
 28.3816  10236.7  100.806
 28.4236  10250  101.033
 28.4656  10044  100.041
 28.5076  10189.3  100.392
 28.5496  10140.5  100.419
 28.5916  10078.1  99.9178
 28.6336  9948.91  99.5968
 28.6756  10156.3  99.841
 28.7176  10063.2  99.9356
 28.7596  10136.7  100.197
 28.8016  10092.8  100.016
 28.8436  9961.08  99.6025
 28.8856  9936.85  99.3317
 28.9276  10049.7  100.141
 28.9696  9952.18  99.3091
 29.0116  10050.6  99.9966
 29.0536  9885.29  99.366
 29.0956  9929.08  99.2952
 29.1376  9881.82  99.0264
 29.1796  9932.34  99.316
 29.2216  9838.71  98.6924
 29.2636  10018.3  99.6612
 29.3056  9937.09  99.0534
 29.3476  9939.74  99.5934
 29.3896  9889.5  99.4495
 29.4316  10100  99.84
 29.4736  9918.63  99.0087
 29.5156  10022.3  99.4417
 29.5576  9964.31  99.9014
 29.5996  10058.2  99.6175
 29.6416  9883.38  98.8599
 29.6836  9930.58  99.0267
 29.7256  9959.14  99.7456
 29.7676  9915.93  99.1898
 29.8096  9850.87  98.8024
 29.8516  9688.12  98.3226
 29.8936  9809.45  99.0271
 29.9356  9901.77  99.2425
 29.9776  9757.2  98.671
 30.0196  9681.55  97.6654
 30.0616  9607.95  97.6748
 30.1036  9764.55  98.2838
 30.1456  9807.07  98.7421
 30.1876  9800.12  98.6811
 30.2296  9761.61  98.4383
 30.2716  9913.22  98.8286
 30.3136  9880.73  99.5419
 30.3556  9718.39  98.7092
 30.3976  9557.99  99.4203
 30.4396  9852.52  98.2179
 30.4816  9816.31  97.6404
 30.5236  9662.66  96.8809
 30.5656  9562  97.0391
 30.6076  9685.3  97.0894
 30.6496  9742.37  97.7632
 30.6916  9633.92  97.3227
 30.7336  9552.72  97.0508
 30.7756  9462.72  96.6878
 30.8176  9684.65  97.7281
 30.8596  9670.84  97.4248
 30.9016  9528.73  97.0482
 30.9436  9730.66  97.8226
 30.9856  9682.22  97.6683
 31.0276  9682.34  97.2978
 31.0696  9524.94  97.0779
 31.1116  9509.67  96.9761
 31.1536  9717.19  97.9188
 31.1956  9420.22  96.4897
 31.2376  9391  96.3593
 31.2796  9532.3  96.6017
 31.3216  9575.81  96.7689
 31.3636  9653.32  97.8616
 31.4056  9529.07  98.5646
 31.4476  9448.13  96.0018
 31.4896  9340.91  95.9631
 31.5316  9498.51  96.1725
 31.5736  9630.12  96.6451
 31.6156  9516.7  96.0904
 31.6576  9476.13  95.9798
 31.6996  9579.98  96.1817
 31.7416  9378.57  96.2312
 31.7836  9436.25  95.5301
 31.8256  9362.37  95.423
 31.8676  9613.33  96.6991
 31.9096  9357.77  95.7628
 31.9516  9383.72  96.0524
 31.9936  9293.1  95.4253
 32.0356  9360.36  95.8307
 32.0776  9393.77  95.8824
 32.1196  9304.17  95.5197
 32.1616  9574.43  96.3347
 32.2036  9238.95  95.1397
 32.2456  9323.18  95.9679
 32.2876  9086.79  94.2396
 32.3296  9303.71  95.3233
 32.3716  9250.18  95.166
 32.4136  9347.35  95.8937
 32.4556  9447.78  95.766
 32.4976  9306.14  94.9522
 32.5396  9393.17  95.466
 32.5816  9202.99  94.6054
 32.6236  9312.1  95.2516
 32.6656  9319.5  95.8349
 32.7076  9216.36  94.9531
 32.7496  9192.72  94.4991
 32.7916  9255.45  94.7783
 32.8336  9206.57  94.6272
 32.8756  9357.02  95.1063
 32.9176  9031.55  93.9213
 32.9596  9073.65  94.2171
 33.0016  9221.78  94.7744
 33.0436  9263.43  95.1749
 33.0856  9088.59  94.3351
 33.1276  9089.9  94.0718
 33.1696  9148.71  94.2169
 33.2116  9145.59  94.4301
 33.2536  9270.63  95.0584
 33.2956  9169.97  94.6404
 33.3376  9029.71  93.6502
 33.3796  9185.38  94.6665
 33.4216  9204.24  94.3638
 33.4636  9225.6  94.6148
 33.5056  8910.36  93.2252
 33.5476  9058.62  93.9772
 33.5896  9222.83  94.6036
 33.6316  9175.13  94.6704
 33.6736  9008.55  94.0612
 33.7156  8993.54  94.029
 33.7576  9091.03  94.1555
 33.7996  9275.17  94.8767
 33.8416  8841.01  92.8067
 33.8836  9052.71  93.6915
 33.9256  9019.45  93.5665
 33.9676  9177.84  94.2844
 34.0096  8862.69  92.9635
 34.0516  8988.24  93.2635
 34.0936  8887.62  93.0027
 34.1356  9107.29  93.8859
 34.1776  8906.48  92.8623
 34.2196  8781.07  92.3812
 34.2616  8847.14  92.8633
 34.3036  8875.22  93.2538
 34.3456  8826.04  92.7528
 34.3876  8959.38  93.4097
 34.4296  8905.33  92.8207
 34.4716  8895.64  92.9154
 34.5136  8874.8  93.0188
 34.5556  8810.93  92.9429
 34.5976  8858.93  92.9941
 34.6396  8838.73  92.5973
 34.6816  8765.89  92.3196
 34.7236  8732.73  91.9364
 34.7656  8921.21  93.1252
 34.8076  8710.8  92.3359
 34.8496  8800.48  92.6774
 34.8916  8744.15  92.2483
 34.9336  8841.74  92.726
 34.9756  8746.44  92.1417
 35.0176  8781.97  92.8685
 35.0596  8741.89  92.4606
 35.1016  8716.49  92.1086
 35.1436  8843.4  92.4513
 35.1856  8721.53  91.946
 35.2276  8831.75  92.7048
 35.2696  8827.1  92.8744
 35.3116  8869.48  93.1979
 35.3536  8601.76  91.4838
 35.3956  8773.65  92.0944
 35.4376  8640.99  91.9361
 35.4796  8761.28  92.6573
 35.5216  8626.74  91.8952
 35.5636  8532.38  92.1468
 35.6056  8754.04  92.342
 35.6476  8803.34  92.4886
 35.6896  8780.31  92.4651
 35.7316  8632.95  91.6545
 35.7736  8537.4  91.343
 35.8156  8546.22  91.3802
 35.8576  8624.88  92.067
 35.8996  8650.96  92.1622
 35.9416  8600.69  91.4055
 35.9836  8540.3  91.4282
 36.0256  8592.25  91.7216
 36.0676  8674.88  91.9229
 36.1096  8575.2  91.5317
 36.1516  8535.26  91.2043
 36.1936  8534.73  91.0493
 36.2356  8540.4  91.73
 36.2776  8624.95  91.6577
 36.3196  8568.04  91.015
 36.3616  8527.01  90.9287
 36.4036  8439.28  90.5155
 36.4456  8590.65  91.5369
 36.4876  8493.96  90.9589
 36.5296  8502.83  91.0489
 36.5716  8454.83  91.5818
 36.6136  8524.85  90.7348
 36.6556  8585.08  91.2632
 36.6976  8537.86  91.5166
 36.7396  8368.45  90.3327
 36.7816  8382.03  90.7848
 36.8236  8469.82  91.1769
 36.8656  8385.98  90.8036
 36.9076  8487.64  91.2218
 36.9496  8417.33  90.8372
 36.9916  8474.22  90.7639
 37.0336  8602.15  91.7717
 37.0756  8604.21  91.5668
 37.1176  8226.87  89.8049
 37.1596  8373.57  90.605
 37.2016  8391.08  90.9342
 37.2436  8431.81  90.4581
 37.2856  8382.11  90.451
 37.3276  8514.19  90.5022
 37.3696  8355.81  90.5478
 37.4116  8325.08  90.2892
 37.4536  8396.85  90.5418
 37.4956  8205.71  89.5452
 37.5376  8267.18  91.4325
 37.5796  8263.69  91.3722
 37.6216  8238.92  89.4855
 37.6636  8255.36  89.4574
 37.7056  8345.37  90.1504
 37.7476  8348.93  89.6861
 37.7896  8204.12  89.4348
 37.8316  8013.89  88.5379
 37.8736  8277.04  89.5202
 37.9156  8251.82  89.374
 37.9576  8169.98  88.8213
 37.9996  8166.83  88.5146
 38.0416  8181.85  89.4174
 38.0836  8322.15  90.0859
 38.1256  8205.98  89.4152
 38.1676  8055.35  88.7244
 38.2096  8182.18  89.0288
 38.2516  8393.96  90.3957
 38.2936  8214.15  89.2029
 38.3356  8307.98  89.6497
 38.3776  8058.51  88.5589
 38.4196  8216.29  89.2851
 38.4616  8082.65  88.7781
 38.5036  8444  90.5772
 38.5456  8152.3  89.8502
 38.5876  8229.9  90.3101
 38.6296  8132.13  88.7168
 38.6716  8074.15  88.2031
 38.7136  7989.14  87.6795
 38.7556  8079.62  88.6775
 38.7976  8155.16  89.0257
 38.8396  8074.79  89.0513
 38.8816  7981.47  88.3112
 38.9236  7962.49  88.0205
 38.9656  8001.59  88.1488
 39.0076  8074.67  87.9517
 39.0496  8135.66  88.8238
 39.0916  8038.7  87.9417
 39.1336  8060.32  88.4814
 39.1756  8039.96  88.4355
 39.2176  8027.22  88.9091
 39.2596  8182.55  89.6745
 39.3016  7916.82  87.7724
 39.3436  7913.67  88.1886
 39.3856  8117.64  88.7605
 39.4276  8042.84  88.8351
 39.4696  7979.87  88.1256
 39.5116  7948.44  88.4581
 39.5536  8225.3  90.4426
 39.5956  8124.83  88.9798
 39.6376  8069.36  88.6838
 39.6796  8126.64  88.7345
 39.7216  8093.41  88.6531
 39.7636  8248.75  90.0772
 39.8056  8074.52  88.8866
 39.8476  8009.71  88.7958
 39.8896  8003.82  88.37
 39.9316  8058.96  88.9451
 39.9736  8148.75  89.0049
 40.0156  8103.19  88.5729
 40.0576  8122.63  89.0541
 40.0996  8206.29  88.6793
 40.1416  8074.81  88.767
 40.1836  8178.79  89.2175
 40.2256  8113.73  88.9135
 40.2676  8120.1  89.0518
 40.3096  8183.32  89.3261
 40.3516  8208.94  89.5708
 40.3936  8170.34  88.9175
 40.4356  8126.11  88.879
 40.4776  8241.79  89.925
 40.5196  8226.58  89.9696
 40.5616  8209.06  89.4978
 40.6036  8068.48  88.9959
 40.6456  8223.27  89.4499
 40.6876  8260.4  89.6308
 40.7296  8072.2  88.7561
 40.7716  8253.86  89.8768
 40.8136  8188.8  89.4575
 40.8556  8148.79  89.3662
 40.8976  8223.8  89.7037
 40.9396  8118.83  89.4739
 40.9816  8132.54  88.8386
 41.0236  8255.82  89.2878
 41.0656  8104.19  89.0069
 41.1076  8260.3  89.6343
 41.1496  8229.5  89.3646
 41.1916  8223.68  89.6616
 41.2336  8094.05  88.9346
 41.2756  8087.42  88.5052
 41.3176  8031.05  88.8065
 41.3596  8174.22  89.3346
 41.4016  8153.47  89.4868
 41.4436  8069.73  88.8066
 41.4856  8083.23  89.0557
 41.5276  8041.2  88.8308
 41.5696  8140.07  89.0051
 41.6116  8072.97  89.0236
 41.6536  8146.81  89.2925
 41.6956  8025.75  88.6728
 41.7376  8118.73  89.228
 41.7796  8088.46  88.9497
 41.8216  8040.23  88.9122
 41.8636  8152.5  89.4744
 41.9056  8061.71  88.755
 41.9476  8098.76  89.1983
 41.9896  8137.24  89.0617
 42.0316  8132.31  89.1288
 42.0736  8045.03  88.7484
 42.1156  8099.14  88.8938
 42.1576  8083.92  88.9159
 42.1996  8090.11  89.0902
 42.2416  8124.69  88.8608
 42.2836  7875.21  87.5877
 42.3256  8048.78  88.6677
 42.3676  8055.5  88.4978
 42.4096  8033.74  88.3542
 42.4516  8043.83  88.4848
 42.4936  7917.63  87.867
 42.5356  7974.27  88.3164
 42.5776  8141.27  89.1715
 42.6196  8142.13  89.237
 42.6616  7846.18  87.7684
 42.7036  8107.32  88.5885
 42.7456  7979.4  88.2363
 42.7876  7939.05  88.126
 42.8296  8004.36  88.3165
 42.8716  7927.32  88.0522
 42.9136  7898.56  87.6775
 42.9556  8096.05  88.9083
 42.9976  8103.73  88.9137
 43.0396  7917.96  87.612
 43.0816  7942.01  88.1287
 43.1236  7933.17  88.1381
 43.1656  7996.27  88.3189
 43.2076  7912.4  87.9587
 43.2496  7942.3  87.937
 43.2916  7885.39  87.9871
 43.3336  8014.57  88.5419
 43.3756  7924.15  87.7853
 43.4176  7823  87.313
 43.4596  7862.51  87.3869
 43.5016  7843.01  87.6859
 43.5436  7895.19  87.8738
 43.5856  7817.45  87.4737
 43.6276  7842.93  87.5072
 43.6696  7801.31  87.5397
 43.7116  7912.43  87.6467
 43.7536  7875.33  87.9304
 43.7956  7781.6  88.616
 43.8376  7940.36  88.0458
 43.8796  7816.51  87.4377
 43.9216  7804.21  87.2881
 43.9636  7790.84  87.3238
 44.0056  7770.9  87.4399
 44.0476  7746.11  86.9327
 44.0896  7706  87.0507
 44.1316  7801.82  87.1025
 44.1736  7682.56  86.5633
 44.2156  7844.8  87.3228
 44.2576  7821.93  87.5257
 44.2996  7712.25  86.8723
 44.3416  7786.73  87.0577
 44.3836  7552.25  86.067
 44.4256  7671.43  86.3865
 44.4676  7705  86.7284
 44.5096  7715.89  86.9373
 44.5516  7636.76  86.4532
 44.5936  7551.42  85.9211
 44.6356  7654.85  86.2457
 44.6776  7711.29  86.8813
 44.7196  7672.89  86.9819
 44.7616  7630.18  88.051
 44.8036  7650.33  86.5758
 44.8456  7655.76  86.8131
 44.8876  7642.55  86.5823
 44.9296  7795.51  86.8953
 44.9716  7624.62  86.3533
 45.0136  7573.97  86.0148
 45.0556  7636.45  86.3308
 45.0976  7504.79  85.7604
 45.1396  7529.55  85.6571
 45.1816  7503.02  85.4526
 45.2236  7645.2  86.1471
 45.2656  7508.54  85.8812
 45.3076  7529.08  85.7583
 45.3496  7526.1  86.0608
 45.3916  7492.4  86.139
 45.4336  7474.07  85.87
 45.4756  7510.02  85.9378
 45.5176  7517.46  85.5868
 45.5596  7559.54  85.9578
 45.6016  7490.74  85.9863
 45.6436  7475.36  85.0706
 45.6856  7456.5  85.6229
 45.7276  7454.3  86.9579
 45.7696  7523.46  87.0056
 45.8116  7513.43  86.3828
 45.8536  7596.77  86.7461
 45.8956  7604.21  86.1313
 45.9376  7486.13  84.9226
 45.9796  7476.2  85.5515
 46.0216  7430.39  85.6382
 46.0636  7545.58  85.436
 46.1056  7609.18  85.7778
 46.1476  7479.62  85.6308
 46.1896  7504.81  85.9372
 46.2316  7450.97  85.4968
 46.2736  7401.27  85.5774
 46.3156  7469.54  85.5571
 46.3576  7412.67  85.4343
 46.3996  7395.74  85.4979
 46.4416  7469.49  85.4957
 46.4836  7427.94  85.6138
 46.5256  7499.6  85.9615
 46.5676  7307.87  84.973
 46.6096  7449.2  85.7101
 46.6516  7533.27  85.2405
 46.6936  7577.99  85.9882
 46.7356  7529.43  85.8013
 46.7776  7432.44  86.1235
 46.8196  7358.98  85.288
 46.8616  7150.79  84.0281
 46.9036  7247.58  84.2573
 46.9456  7300.44  84.2079
 46.9876  7319.15  84.394
 47.0296  7346.56  85.2445
 47.0716  7345.35  85.054
 47.1136  7254.05  84.1914
 47.1556  7260.28  84.1091
 47.1976  7382  84.8825
 47.2396  7364.47  85.1797
 47.2816  7275.61  84.3798
 47.3236  7229.68  84.4762
 47.3656  7313.89  84.8967
 47.4076  7193.28  84.0042
 47.4496  7203.61  84.1525
 47.4916  7266.74  84.706
 47.5336  7337.9  84.9376
 47.5756  7515.92  86.0851
 47.6176  7297.09  84.7097
 47.6596  7193.07  83.8327
 47.7016  7428.05  84.9924
 47.7436  7263.03  84.3939
 47.7856  7383.62  85.1032
 47.8276  7191.03  84.0504
 47.8696  7226.54  84.3348
 47.9116  7207.38  83.9363
 47.9536  7229.04  84.0141
 47.9956  7043.38  83.6222
 48.0376  7149.6  84.0288
 48.0796  7271.74  84.8696
 48.1216  7299.65  84.8498
 48.1636  7289.18  84.3512
 48.2056  7278.71  84.5659
 48.2476  7199.3  84.4019
 48.2896  7282.25  84.8065
 48.3316  7196.54  84.2441
 48.3736  7150.75  84.0049
 48.4156  7056.56  83.3065
 48.4576  7069.13  83.6661
 48.4996  7169.19  83.7144
 48.5416  7225.19  84.3537
 48.5836  7161.29  83.6704
 48.6256  7141.6  83.7583
 48.6676  7141  84.2581
 48.7096  7184.97  83.7948
 48.7516  7083.6  83.3534
 48.7936  7029.95  83.1028
 48.8356  7180  84.0286
 48.8776  7066.86  83.933
 48.9196  7245.71  84.3435
 48.9616  7069.59  83.6855
 49.0036  7078.72  84.0929
 49.0456  7107.77  84.2581
 49.0876  7054.08  83.4891
 49.1296  6850.57  82.4185
 49.1716  6908.46  82.6512
 49.2136  7113.38  83.7755
 49.2556  7036.05  83.3575
 49.2976  7072.67  83.6353
 49.3396  6908.79  82.7256
 49.3816  7098.14  83.2728
 49.4236  6989.73  83.0644
 49.4656  6951.99  82.8657
 49.5076  7089.27  83.4202
 49.5496  7069.37  83.37
 49.5916  7047.72  83.1586
 49.6336  7010.31  83.1365
 49.6756  7067.81  83.7001
 49.7176  6987.55  83.1775
 49.7596  7048.51  83.3012
 49.8016  7094.64  83.4949
 49.8436  6915.68  82.7361
 49.8856  7076.37  83.6915
 49.9276  6969.03  83.1597
 49.9696  6840.47  82.3643
 50.0116  6967.02  83.2509
 50.0536  7006.02  83.4365
 50.0956  6843.7  82.5382
 50.1376  6900.25  82.5725
 50.1796  6922.95  82.9831
 50.2216  6938.33  83.0758
 50.2636  6896.9  82.4409
 50.3056  6785.42  81.9431
 50.3476  6865.45  82.448
 50.3896  6844.29  82.2883
 50.4316  6957.77  82.8053
 50.4736  6909.21  82.7343
 50.5156  6866.17  82.4719
 50.5576  6794.97  81.801
 50.5996  6876.89  82.5707
 50.6416  6818.92  82.1514
 50.6836  6931.55  82.8835
 50.7256  6965.66  83.0232
 50.7676  6877.28  82.7914
 50.8096  6825.49  82.0319
 50.8516  6773.71  82.136
 50.8936  6817.08  82.1742
 50.9356  6900.2  82.7838
 50.9776  6816.64  82.4322
 51.0196  6817.27  82.5843
 51.0616  6777.78  81.6682
 51.1036  6871.62  82.5883
 51.1456  6816.12  82.1651
 51.1876  6928.62  82.1841
 51.2296  6901.5  82.6624
 51.2716  6675.15  81.004
 51.3136  6822.89  82.3543
 51.3556  6721.53  81.3676
 51.3976  6796.57  81.9655
 51.4396  6660.21  81.4491
 51.4816  6681.59  81.4348
 51.5236  6784.46  82.1424
 51.5656  6658.5  80.9815
 51.6076  6754.71  81.6343
 51.6496  6770.2  81.9337
 51.6916  6694.47  81.8258
 51.7336  6692.72  81.9105
 51.7756  6823.64  82.3984
 51.8176  6664.2  81.534
 51.8596  6699.42  81.7697
 51.9016  6973.47  83.0242
 51.9436  6702.68  82.8235
 51.9856  6632.78  82.8246
 52.0276  6641.97  81.4013
 52.0696  6665.92  81.6035
 52.1116  6613.16  81.4169
 52.1536  6588.08  81.129
 52.1956  6719.66  81.4168
 52.2376  6675.09  81.3089
 52.2796  6747.83  81.5655
 52.3216  6533.15  80.9414
 52.3636  6699.77  81.5429
 52.4056  6608.61  80.841
 52.4476  6677.94  81.6339
 52.4896  6550.71  80.9043
 52.5316  6568.78  81.0473
 52.5736  6653.46  81.3201
 52.6156  6637.26  81.5772
 52.6576  6689.74  81.3629
 52.6996  6488.06  81.0789
 52.7416  6570.72  81.4573
 52.7836  6624.23  81.6472
 52.8256  6732.41  81.5346
 52.8676  6396.17  80.0492
 52.9096  6695.49  81.9839
 52.9516  6599.51  81.7695
 52.9936  6503.23  81.5611
 53.0356  6487.38  80.4586
 53.0776  6442.31  80.4368
 53.1196  6531.3  81.1188
 53.1616  6512.56  81.0494
 53.2036  6468.47  80.7307
 53.2456  6384.74  80.3049
 53.2876  6274.93  79.3225
 53.3296  6546.65  81.3503
 53.3716  6435.75  80.3915
 53.4136  6535.94  81.1737
 53.4556  6324.94  79.8873
 53.4976  6329.14  79.7636
 53.5396  6381.35  80.4898
 53.5816  6525.46  81.0174
 53.6236  6360.08  80.3263
 53.6656  6506.62  80.8739
 53.7076  6527.47  80.9625
 53.7496  6385.72  80.1904
 53.7916  6589.9  81.5956
 53.8336  6375.06  80.1468
 53.8756  6340.17  80.4821
 53.9176  6423.44  80.361
 53.9596  6547.74  81.9251
 54.0016  6387.38  80.238
 54.0436  6273.85  79.7388
 54.0856  6524.07  80.7262
 54.1276  6493.78  80.7441
 54.1696  6454.2  80.6713
 54.2116  6433.06  80.2874
 54.2536  6425.75  80.0657
 54.2956  6473.71  80.4127
 54.3376  6425.98  80.5989
 54.3796  6431.84  80.5379
 54.4216  6512.53  81.0836
 54.4636  6405.7  80.377
 54.5056  6407.84  80.2097
 54.5476  6414.89  80.5914
 54.5896  6455.94  80.6765
 54.6316  6484.44  80.7102
 54.6736  6359.67  80.006
 54.7156  6396.11  80.2569
 54.7576  6388.63  80.2102
 54.7996  6454.98  80.7608
 54.8416  6406.89  80.512
 54.8836  6295.02  79.9063
 54.9256  6325.82  79.8623
 54.9676  6390.3  80.1258
 55.0096  6459.03  80.6237
 55.0516  6452  80.8127
 55.0936  6303.2  79.5104
 55.1356  6304.6  79.5633
 55.1776  6368.75  80.2225
 55.2196  6377.06  80.0653
 55.2616  6340.17  80.0331
 55.3036  6346.67  80.2509
 55.3456  6341.04  80.3683
 55.3876  6340.76  80.1002
 55.4296  6413.22  80.5425
 55.4716  6352.55  80.1858
 55.5136  6367.74  80.0418
 55.5556  6306.87  79.7188
 55.5976  6335.87  79.9687
 55.6396  6297.31  79.6629
 55.6816  6322.79  79.7118
 55.7236  6437.11  80.479
 55.7656  6375.45  79.841
 55.8076  6444.01  80.2546
 55.8496  6259.38  79.4128
 55.8916  6355.62  80.2285
 55.9336  6182.75  78.9335
 55.9756  6205.6  78.9747
 56.0176  6259.65  79.4781
 56.0596  6321.58  79.8546
 56.1016  6388.31  80.2877
 56.1436  6250.17  79.6783
 56.1856  6352.71  80.067
 56.2276  6309.34  79.8403
 56.2696  6324.59  79.9202
 56.3116  6306.59  80.201
 56.3536  6269.65  79.6321
 56.3956  6271.46  79.6288
 56.4376  6274.96  79.6864
 56.4796  6368.42  80.086
 56.5216  6213.48  79.4733
 56.5636  6386.37  80.1644
 56.6056  6282.72  79.7272
 56.6476  6294.19  79.4343
 56.6896  6307.79  79.9623
 56.7316  6242.27  79.4687
 56.7736  6323.65  79.9748
 56.8156  6324.78  79.9848
 56.8576  6203.54  79.1642
 56.8996  6253.59  79.4124
 56.9416  6275.37  79.8554
 56.9836  6242.37  79.1496
 57.0256  6274.77  79.6805
 57.0676  6227.95  79.5016
 57.1096  6270.61  79.5652
 57.1516  6220.52  79.313
 57.1936  6226.37  79.0934
 57.2356  6214.02  79.3464
 57.2776  6291.8  79.7865
 57.3196  6260.35  79.9599
 57.3616  6272.07  79.5249
 57.4036  6337.7  80.0019
 57.4456  6175.13  78.9247
 57.4876  6365.16  79.999
 57.5296  6192.66  79.2432
 57.5716  6181.78  79.1655
 57.6136  6223.5  79.2532
 57.6556  6253  79.5727
 57.6976  6398.12  80.3079
 57.7396  6163.83  79.206
 57.7816  6115.69  79.2526
 57.8236  6168.98  79.3949
 57.8656  6242.47  79.5202
 57.9076  6257.15  79.6407
 57.9496  6279.35  80.1393
 57.9916  6212.28  79.2146
 58.0336  6189.08  79.3442
 58.0756  6257.1  79.4068
 58.1176  6286.56  79.5967
 58.1596  6244.44  79.8953
 58.2016  6309.76  79.5513
 58.2436  6334.8  80.1276
 58.2856  6202.68  79.2079
 58.3276  6259.6  79.946
 58.3696  6223.33  79.4545
 58.4116  6225.12  79.335
 58.4536  6251.28  79.3808
 58.4956  6194.07  79.2067
 58.5376  6330.43  79.6361
 58.5796  6231.53  79.4433
 58.6216  6220.89  79.187
 58.6636  6348.06  80.2112
 58.7056  6301.27  79.7679
 58.7476  6148.26  79.2422
 58.7896  6103.75  78.5973
 58.8316  6219.45  79.3318
 58.8736  6281.02  79.7248
 58.9156  6159.31  78.9951
 58.9576  6341.01  80.4895
 58.9996  6329.89  79.6436
 59.0416  6455.16  80.8023
 59.0836  6238.01  79.3599
 59.1256  6254.03  80.1699
 59.1676  6270.8  80.5916
 59.2096  6292.03  80.0312
 59.2516  6365.8  80.0687
 59.2936  6453.52  80.9577
 59.3356  6358.03  80.2311
 59.3776  6336.54  80.2685
 59.4196  6342.25  80.2394
 59.4616  6273.68  79.6613
 59.5036  6255.53  79.5817
 59.5456  6417.12  80.2872
 59.5876  6394.67  80.3433
 59.6296  6243.76  79.46
 59.6716  6281.95  79.7618
 59.7136  6342.18  80.1312
 59.7556  6325.02  80.1624
 59.7976  6196.27  79.0811
 59.8396  6230  79.1887
 59.8816  6283.49  80.0842
 59.9236  6352.31  80.1562
 59.9656  6395.64  80.6976
 60.0076  6206.98  78.8466
 60.0496  6278.59  79.8088
 60.0916  6391.72  79.931
 60.1336  6151.97  79.5355
 60.1756  6192.22  80.9948
 60.1996  0.0000000E+00  0.0000000E+00