File: docs/examples/opeando_xrd/IS17_D/Data/IS17_D/17_Da_f00047.xye
# /beamlines/bl04/projects/cycle2025-II/20250340211-lsimonelli/DATA/IS17_D/17_Da_f00047.xye : mythproc.py merge -s 0.006 -l 0.5 -f /beamlines/bl04/inhouse/ff/FlatField/ff_20Nov2024rod8mm60s_17keV.raw -b True -c true -o xye /beamlines/bl04/projects/cycle2025-II/20250340211-lsimonelli/DATA/IS17_D/17_Da_00047.dat
# IsMon = [6788714, 6784641, 6789868]  IsPos = [-1.4999, -2.4885, -3.4988]
# Wave = 0.4962  CalPath /beamlines/bl04/projects/cycle2025-II/20250340211-lsimonelli/DATA/Align/Si_Pos1_25keV_f00001.cal
# Date = 2025-09-24_06:39:47 Dt = 4.8000  Bin = 0.0060  <imon> = 6787741 +/- 2242 (Min/Max) 6784641 / 6789868
# icurr 252.6695  mocoIn 1.7238E-05  mocoOut 0.8087  i15 7.1067e+06  imon 6.78774e+06  i7 4.6667  iEMpd_timer 4.8000  iEMpd_1 3.4878E-08  iEMpd_2 7.8081E-08  iEMpd_3 1.6519E-08  iEMpd_4 4.8251E-08  iEMhp_timer 4.8000  iEMhp_1 4.9365E-06  iEMhp_2 -2.6141E-08  iEMhp_3 -2.4154E-08  iEMhp_4 -2.1627E-08
#      9776
 1.5856  41667.8  209.591
 1.6276  49261.2  223.979
 1.6696  55618.3  237.154
 1.7116  64597.2  256.08
 1.7536  73539.9  272.068
 1.7956  78366.8  281.556
 1.8376  74743.2  275.406
 1.8796  63494.7  251.975
 1.9216  51062.1  226.86
 1.9636  43474.3  208.469
 2.0056  39454.8  197.828
 2.0476  36162.1  191.469
 2.0896  35125.2  187.598
 2.1316  34452.9  184.901
 2.1736  32909.1  182.144
 2.2156  33227.1  181.553
 2.2576  32155.6  179.244
 2.2996  30741.9  175.901
 2.3416  31301.6  176.078
 2.3836  30844.2  174.895
 2.4256  29932.1  172.851
 2.4676  29695.8  171.923
 2.5096  29277.8  170.765
 2.5516  28439.8  172.239
 2.5936  28743.6  169.651
 2.6356  28058.7  168.324
 2.6776  27977.6  166.932
 2.7196  27766  166.839
 2.7616  27747  166.552
 2.8036  27110.8  164.808
 2.8456  27209.3  165.743
 2.8876  26955.1  164.813
 2.9296  26155.8  162.503
 2.9716  25998.2  161.493
 3.0136  25793.5  160.924
 3.0556  25630.6  160.819
 3.0976  25440.9  159.131
 3.1396  25500.2  160.058
 3.1816  25081.9  158.67
 3.2236  24868.2  157.989
 3.2656  25025.1  157.512
 3.3076  24472.5  157.235
 3.3496  24774.9  157.372
 3.3916  25171.9  158.193
 3.4336  25610.9  160.159
 3.4756  25746.4  160.497
 3.5176  26587  162.9
 3.5596  26570.9  165.314
 3.6016  26892.4  163.876
 3.6436  25887  161.913
 3.6856  25529.4  159.049
 3.7276  24562  157.122
 3.7696  24470.7  157.015
 3.8116  23990.9  155.356
 3.8536  23901.7  154.992
 3.8956  23832.7  154.598
 3.9376  23853.8  154.924
 3.9796  23787.1  154.208
 4.0216  23855.1  153.456
 4.0636  23656.4  154.298
 4.1056  23705.1  154.106
 4.1476  23880  154.982
 4.1896  24167.1  155.771
 4.2316  24162.6  155.569
 4.2736  24655  156.938
 4.3156  24996.7  158.258
 4.3576  25809.9  160.731
 4.3996  25907.7  161.318
 4.4416  26457.9  162.585
 4.4836  26784.4  163.75
 4.5256  27313.8  165.967
 4.5676  27193.5  165.865
 4.6096  27857.7  166.503
 4.6516  28076.8  166.87
 4.6936  28340.1  168.474
 4.7356  28368.3  168.388
 4.7776  28527.9  168.693
 4.8196  28156.9  168.237
 4.8616  27529.1  165.972
 4.9036  27412.9  165.224
 4.9456  27385.2  165.803
 4.9876  26728.6  163.707
 5.0296  26952.9  164.209
 5.0716  26777.4  164.315
 5.1136  26909.1  164.563
 5.1556  27321.3  165.282
 5.1976  27642  166.233
 5.2396  27777.5  166.339
 5.2816  27653.5  166.426
 5.3236  27839.1  166.693
 5.3656  27443.4  166.437
 5.4076  27223.9  165.923
 5.4496  27319.6  165.696
 5.4916  27225.9  165.163
 5.5336  27365.7  165.596
 5.5756  26989.1  164.477
 5.6176  27430.9  165.246
 5.6596  27208.7  165.552
 5.7016  27698.7  166.298
 5.7436  27637  166.387
 5.7856  27635.6  166.444
 5.8276  28090.6  167.529
 5.8696  28169.5  167.935
 5.9116  28246.5  168.774
 5.9536  28396.4  168.966
 5.9956  28666.9  169.132
 6.0376  28612.5  169.616
 6.0796  28924.4  170.368
 6.1216  29020.4  170.859
 6.1636  29338.2  170.841
 6.2056  29299.6  171.402
 6.2476  29343.7  171.401
 6.2896  29659.5  171.997
 6.3316  29526.7  171.784
 6.3736  29883.5  172.715
 6.4156  29690.2  172.044
 6.4576  30099.2  172.83
 6.4996  30245.3  173.74
 6.5416  30120.4  173.515
 6.5836  30385.7  174.517
 6.6256  30460.9  174.284
 6.6676  31036.3  175.483
 6.7096  30716.9  175.437
 6.7516  31249.8  176.604
 6.7936  31456.9  176.602
 6.8356  31730.3  177.456
 6.8776  31874.4  178.679
 6.9196  31762.5  178.765
 6.9616  32402.7  179.962
 7.0036  32901.8  181.017
 7.0456  32746.3  179.871
 7.0876  32638.6  181.292
 7.1296  32843.3  180.981
 7.1716  32648.1  179.963
 7.2136  32585.1  179.576
 7.2556  32736.9  180.159
 7.2976  32834.6  180.935
 7.3396  32619.8  180.567
 7.3816  32645.6  180.848
 7.4236  32998.1  181.099
 7.4656  33011  180.606
 7.5076  33217.8  181.314
 7.5496  33269.2  181.996
 7.5916  33257.3  182.003
 7.6336  33729.3  183.183
 7.6756  33844.2  183.343
 7.7176  34141.6  184.463
 7.7596  33822.7  184.861
 7.8016  34432.3  188.706
 7.8436  35112.1  187.203
 7.8856  35016.7  186.559
 7.9276  35967.8  189.464
 7.9696  35997.2  189.869
 8.0116  37145.8  191.382
 8.0536  36757.1  190.634
 8.0956  36722.6  191.745
 8.1376  37326.6  192.774
 8.1796  37510.6  193.806
 8.2216  38370.7  194.723
 8.2636  38608.2  195.574
 8.3056  38587.1  196.299
 8.3476  39100.2  196.928
 8.3896  38948  196.623
 8.4316  39018.2  196.97
 8.4736  39291.9  197.116
 8.5156  38731.2  195.984
 8.5576  38632  196.732
 8.5996  38659.9  195.647
 8.6416  38684  197.005
 8.6836  38055.9  195.204
 8.7256  38731.9  196.387
 8.7676  38086.3  197.662
 8.8096  38159  195.098
 8.8516  37959  194.193
 8.8936  37145.9  191.997
 8.9356  37282.1  192.693
 8.9776  37846  194.243
 9.0196  37251.9  192.387
 9.0616  37393.6  192.219
 9.1036  37030.4  192.482
 9.1456  37084.4  191.969
 9.1876  37072  191.886
 9.2296  37223.4  191.67
 9.2716  36445.9  189.723
 9.3136  36346.6  189.449
 9.3556  36801.7  190.615
 9.3976  35430.6  187.559
 9.4396  35755.9  188.315
 9.4816  35137  186.534
 9.5236  35348.4  187.004
 9.5656  34919.8  186.193
 9.6076  34713.8  186.186
 9.6496  34822.6  186.394
 9.6916  34539.4  185.606
 9.7336  34678.7  185.754
 9.7756  34959.8  187.902
 9.8176  34224.5  185.324
 9.8596  33981.2  183.092
 9.9016  33709.4  182.352
 9.9436  33287.4  181.116
 9.9856  32906.1  180.324
 10.0276  32593.9  180.571
 10.0696  32874.7  180.371
 10.1116  31654.1  177.249
 10.1536  31847.8  177.964
 10.1956  31102.3  175.468
 10.2376  30816.6  174.15
 10.2796  30896.9  174.514
 10.3216  30674  174.153
 10.3636  30377.1  173.342
 10.4056  30113.1  172.994
 10.4476  29930.9  172.085
 10.4896  29998.8  171.733
 10.5316  29260.1  170.31
 10.5736  29281.8  170.789
 10.6156  28876.4  169.359
 10.6576  29173  168.79
 10.6996  28824.3  168.444
 10.7416  28378.9  167.387
 10.7836  28343.4  167.968
 10.8256  27954.3  167.233
 10.8676  28289.7  167.774
 10.9096  27825.2  166.412
 10.9516  27598  164.657
 10.9936  27607.2  164.882
 11.0356  27376.5  164.839
 11.0776  27099  163.313
 11.1196  26607.1  162.569
 11.1616  26730.5  162.645
 11.2036  26560.9  161.967
 11.2456  26629.6  162.893
 11.2876  26540.9  162.34
 11.3296  26296.9  161.496
 11.3716  26360.4  161.379
 11.4136  26134.3  161.583
 11.4556  26223.5  161.523
 11.4976  26498.6  161.345
 11.5396  26578.1  161.765
 11.5816  27068.2  163.707
 11.6236  27733.6  166.159
 11.6656  27820.6  165.315
 11.7076  27090.4  163.995
 11.7496  26379.6  165.826
 11.7916  26147.7  160.37
 11.8336  25820.4  160.293
 11.8756  25636.9  159.218
 11.9176  25707  159.093
 11.9596  25317.1  158.06
 12.0016  25305.6  158.835
 12.0436  25110.8  157.637
 12.0856  25134.4  158.245
 12.1276  25287.1  158.64
 12.1696  24948.8  156.7
 12.2116  25208.2  157.512
 12.2536  24893.9  157.368
 12.2956  25039.5  157.153
 12.3376  24729.5  156.382
 12.3796  25065.2  157.907
 12.4216  24851.5  156.445
 12.4636  24468.1  156.155
 12.5056  24816.3  156.529
 12.5476  25053.4  156.79
 12.5896  24947.9  157.111
 12.6316  24598.1  156.153
 12.6736  24489.7  156.3
 12.7156  24491.3  156.165
 12.7576  24615  156.806
 12.7996  24950.2  156.493
 12.8416  24540.5  156.266
 12.8836  24890.2  157.204
 12.9256  25122.8  156.938
 12.9676  25212.9  157.65
 13.0096  24884.3  157.714
 13.0516  25351.7  158.221
 13.0936  25111  157.867
 13.1356  25687  158.637
 13.1776  25370.2  158.659
 13.2196  25701  159.342
 13.2616  25503.1  159.047
 13.3036  25681.1  159.568
 13.3456  25538.5  159.275
 13.3876  25609.4  158.98
 13.4296  25567.3  159.009
 13.4716  25460  158.28
 13.5136  25665.3  159.07
 13.5556  25430.2  158.971
 13.5976  25407.4  159.032
 13.6396  25649.7  159.151
 13.6816  25340.1  158.688
 13.7236  25985.5  160.337
 13.7656  25251.9  158.594
 13.8076  25226.7  157.286
 13.8496  25046.6  157.329
 13.8916  25035.7  158.313
 13.9336  25120.4  157.799
 13.9756  24897.1  156.432
 14.0176  24934.4  157.251
 14.0596  24750.8  156.628
 14.1016  24526.8  156.321
 14.1436  24260.3  154.589
 14.1856  23989.7  154.022
 14.2276  23756.2  153.76
 14.2696  24147.8  154.855
 14.3116  23731.9  153.424
 14.3536  23325.8  152.285
 14.3956  23327.8  152.027
 14.4376  23593.3  152.656
 14.4796  23309  151.715
 14.5216  23003.4  151.535
 14.5636  22710.8  150.125
 14.6056  23130.7  151.072
 14.6476  22968.4  149.764
 14.6896  22634  149.217
 14.7316  22471.4  149.716
 14.7736  22176.4  147.885
 14.8156  21976.9  147.251
 14.8576  21797  146.496
 14.8996  21599.3  147.055
 14.9416  21091.5  145.32
 14.9836  21355.9  146.181
 15.0256  21172.4  144.468
 15.0676  20963.5  144.076
 15.1096  20983.8  143.876
 15.1516  20473.9  142.694
 15.1936  20570  142.432
 15.2356  20127.8  141.178
 15.2776  20206.5  141.03
 15.3196  19638.3  140.047
 15.3616  19683  139.95
 15.4036  19618.8  139.581
 15.4456  19940.8  140.372
 15.4876  19422.1  138.209
 15.5296  19363.2  138.293
 15.5716  19105.9  136.966
 15.6136  19095.7  137.263
 15.6556  19034.2  136.264
 15.6976  18822.1  135.58
 15.7396  18779.2  136.032
 15.7816  18724.8  135.35
 15.8236  18549.5  135.413
 15.8656  18427.2  134.764
 15.9076  18297.1  134.112
 15.9496  18060.3  136.049
 15.9916  18188.4  136.972
 16.0336  17814.8  132.412
 16.0756  17993.9  133.388
 16.1176  17647.8  132.168
 16.1596  17216.1  131.725
 16.2016  17655.1  132.124
 16.2436  17388.5  131.515
 16.2856  17256  130.543
 16.3276  17086.1  130.326
 16.3696  17097.9  130.187
 16.4116  16859  129.737
 16.4536  17232.6  130.955
 16.4956  16917.9  129.488
 16.5376  16924.8  129.702
 16.5796  16870.8  128.844
 16.6216  16871.2  129.154
 16.6636  16720  128.726
 16.7056  16757.3  128.74
 16.7476  16786.9  128.38
 16.7896  16706.1  128.823
 16.8316  16718.3  128.838
 16.8736  16619.7  128.71
 16.9156  16628.7  129.088
 16.9576  16665.1  130.063
 16.9996  16698.7  130.688
 17.0416  16770.5  129.309
 17.0836  16683  128.72
 17.1256  16590.3  128.368
 17.1676  16711.1  128.829
 17.2096  16528.8  128.001
 17.2516  16425  127.376
 17.2936  16343.7  127.393
 17.3356  16169.2  126.713
 17.3776  16028.1  126.355
 17.4196  16182.3  126.65
 17.4616  15918.8  125.53
 17.5036  15646.3  124.826
 17.5456  15564.8  125.143
 17.5876  15553.2  124.131
 17.6296  15683.4  124.469
 17.6716  15410.8  123.957
 17.7136  15077.1  122.744
 17.7556  15170.5  123.421
 17.7976  15173.2  123.045
 17.8396  15090.8  122.334
 17.8816  15044.2  122.706
 17.9236  14898.2  121.906
 17.9656  14910.6  122.652
 18.0076  14985.4  122.368
 18.0496  14953.4  121.37
 18.0916  14930.8  121.816
 18.1336  14822.9  121.478
 18.1756  15008  121.766
 18.2176  14715.1  120.791
 18.2596  14698.7  120.47
 18.3016  14729.8  120.844
 18.3436  14816.4  121.448
 18.3856  14499.8  120.029
 18.4276  14671.6  120.418
 18.4696  14518.5  119.876
 18.5116  14636.8  120.662
 18.5536  14716.5  121.344
 18.5956  14290.5  119.13
 18.6376  14435.8  120.153
 18.6796  14544.2  119.91
 18.7216  14533.5  120.434
 18.7636  14309.4  119.417
 18.8056  14314.1  119.379
 18.8476  14255.4  119.755
 18.8896  14299.1  119.275
 18.9316  14486.2  119.876
 18.9736  14277.6  118.865
 19.0156  14226.6  119.065
 19.0576  14212.9  117.863
 19.0996  14348.7  119.146
 19.1416  14092.7  118.463
 19.1836  14109.7  118.139
 19.2256  14157.9  118.554
 19.2676  14246  119.02
 19.3096  14399.2  119.907
 19.3516  14107  118.643
 19.3936  14090.1  118.474
 19.4356  14073.6  118.265
 19.4776  14050.4  118.268
 19.5196  14196.8  118.732
 19.5616  14049  118.372
 19.6036  14092  118.043
 19.6456  14099.3  118.194
 19.6876  14250.3  118.478
 19.7296  14198.1  118.711
 19.7716  14004.4  117.92
 19.8136  14157.1  118.914
 19.8556  14309  119.027
 19.8976  14085.7  118.161
 19.9396  14255  118.446
 19.9816  14343.6  119.063
 20.0236  14234.2  118.816
 20.0656  14694.2  120.72
 20.1076  14660.9  121.053
 20.1496  14987.3  122.398
 20.1916  15269.1  123.034
 20.2336  15208.5  122.725
 20.2756  15056.5  122.556
 20.3176  14745.4  121.021
 20.3596  14681.9  120.741
 20.4016  14469.2  119.657
 20.4436  14311.1  119.581
 20.4856  14075.7  118.371
 20.5276  13939.5  118.264
 20.5696  13926.1  117.657
 20.6116  13796.3  117.38
 20.6536  13852.4  117.191
 20.6956  13852.5  117.257
 20.7376  13773.2  117.154
 20.7796  13639.5  116.267
 20.8216  13768.7  116.514
 20.8636  13636.4  116.322
 20.9056  13519.7  115.781
 20.9476  13438.6  115.27
 20.9896  13648.4  116.03
 21.0316  13759.8  116.405
 21.0736  13536.8  115.981
 21.1156  13505.3  116.009
 21.1576  13538.4  116.197
 21.1996  13500.8  116.013
 21.2416  13394.2  115.38
 21.2836  13406.2  115.396
 21.3256  13414.8  115.515
 21.3676  13400.3  115.004
 21.4096  13398.2  115.308
 21.4516  13305.3  114.787
 21.4936  13113.8  114.223
 21.5356  13208.9  114.569
 21.5776  13377  115.126
 21.6196  13227.7  114.513
 21.6616  13175.8  114.373
 21.7036  13214.3  114.323
 21.7456  13200.8  114.343
 21.7876  13245.2  114.285
 21.8296  13123.2  113.608
 21.8716  13079.5  113.658
 21.9136  13446.4  115.443
 21.9556  13113.3  113.672
 21.9976  13131  113.763
 22.0396  13049.2  113.668
 22.0816  13000.8  114.001
 22.1236  13169  114.187
 22.1656  13033.7  113.776
 22.2076  13173.7  113.801
 22.2496  13130.7  113.651
 22.2916  13219.7  113.896
 22.3336  13152.6  114.338
 22.3756  13135.8  114
 22.4176  13039.7  113.437
 22.4596  12882.3  113.336
 22.5016  12952.5  113.14
 22.5436  13072.8  113.536
 22.5856  12997.7  113.468
 22.6276  12894.5  113.16
 22.6696  12945  113.735
 22.7116  12968.7  113.349
 22.7536  12974.5  113.342
 22.7956  12903.8  112.363
 22.8376  12838.9  112.593
 22.8796  12951.2  112.89
 22.9216  13038.9  113.822
 22.9636  12961.4  112.629
 23.0056  12958.6  112.753
 23.0476  12945.9  113.274
 23.0896  13223.1  113.845
 23.1316  12912.3  112.942
 23.1736  12885.4  115.804
 23.2156  13102.3  114.078
 23.2576  13023.4  113.868
 23.2996  12949.7  113.334
 23.3416  12889  113.587
 23.3836  13123.2  113.838
 23.4256  13047.1  113.623
 23.4676  13218.5  114.054
 23.5096  13046.7  114.002
 23.5516  12869.4  112.499
 23.5936  13077.2  114.32
 23.6356  13071.5  113.964
 23.6776  13006.3  113.894
 23.7196  12749.8  112.329
 23.7616  13060.5  113.613
 23.8036  12916.9  113.037
 23.8456  12874  112.407
 23.8876  12510.1  111.159
 23.9296  12608.6  112.094
 23.9716  12771.9  111.992
 24.0136  12633.6  112.3
 24.0556  12582.4  111.8
 24.0976  12599.1  111.675
 24.1396  12529.3  114.083
 24.1816  12630.1  113.259
 24.2236  12457.8  111.756
 24.2656  12448.5  111.18
 24.3076  12322.2  110.872
 24.3496  12243.3  110.405
 24.3916  12330.7  110.846
 24.4336  12369.7  111.233
 24.4756  12025.6  109.543
 24.5176  12149.8  109.753
 24.5596  12019.2  109.291
 24.6016  12047.9  109.71
 24.6436  11967.4  108.824
 24.6856  12115.2  109.256
 24.7276  11975.6  108.948
 24.7696  11891.8  108.674
 24.8116  11784  108.377
 24.8536  11648.7  107.733
 24.8956  11667.3  107.562
 24.9376  11596.2  107.172
 24.9796  11567  107.392
 25.0216  11589.3  107.603
 25.0636  11669.9  107.63
 25.1056  11548.6  107.511
 25.1476  11682.7  110.09
 25.1896  11554.5  107.948
 25.2316  11656.1  107.674
 25.2736  11659.7  107.346
 25.3156  11457.9  106.481
 25.3576  11424.9  106.758
 25.3996  11507.5  107.12
 25.4416  11419  106.695
 25.4836  11303.3  106.683
 25.5256  11283.9  105.949
 25.5676  11430.9  106.369
 25.6096  11097.6  105.376
 25.6516  11387.1  106.239
 25.6936  11225.4  105.791
 25.7356  11181.3  105.722
 25.7776  11321.1  105.975
 25.8196  11109.4  105.213
 25.8616  11181.5  105.48
 25.9036  11312.2  105.562
 25.9456  11203.8  105.662
 25.9876  11073.8  105.106
 26.0296  11394.5  106.207
 26.0716  11106.9  105.193
 26.1136  11181.1  105.489
 26.1556  11143.5  104.68
 26.1976  11061.5  105.235
 26.2396  11122.6  104.93
 26.2816  11126.6  105.305
 26.3236  11214.1  105.89
 26.3656  11067.3  104.904
 26.4076  11174.5  105.629
 26.4496  11605.9  107.141
 26.4916  11288.3  105.656
 26.5336  11108.1  105.13
 26.5756  11430.1  106.512
 26.6176  11111.2  105.062
 26.6596  11036.7  105.017
 26.7016  11081.5  104.991
 26.7436  10974  104.598
 26.7856  10840.3  103.95
 26.8276  10963  104.493
 26.8696  11006.8  104.573
 26.9116  10953.4  104.262
 26.9536  10841.5  103.77
 26.9956  10743.5  103.336
 27.0376  10804.3  103.839
 27.0796  10803.3  103.651
 27.1216  10711.6  103.2
 27.1636  10659.9  103.121
 27.2056  10630.1  102.859
 27.2476  10689.4  103.148
 27.2896  10567.7  102.668
 27.3316  10733.7  103.181
 27.3736  10649.3  103.047
 27.4156  10510.6  102.205
 27.4576  10620.9  102.982
 27.4996  10565.8  102.297
 27.5416  10406.5  101.849
 27.5836  10561.3  102.419
 27.6256  10796.8  103.721
 27.6676  10624.6  102.915
 27.7096  10417  101.768
 27.7516  10481.7  102.235
 27.7936  10500.9  102.499
 27.8356  10417.6  101.71
 27.8776  10383.4  101.586
 27.9196  10316.6  101.114
 27.9616  10420.7  101.815
 28.0036  10374.5  101.559
 28.0456  10367.9  101.663
 28.0876  10248.5  101.163
 28.1296  10270.6  101.108
 28.1716  10237.1  100.953
 28.2136  10280.2  101.132
 28.2556  10272.8  101.209
 28.2976  10182.4  100.759
 28.3396  10258.6  100.932
 28.3816  10413.3  101.672
 28.4236  10265.3  101.104
 28.4656  10126.8  100.451
 28.5076  10234.5  100.619
 28.5496  10151.1  100.472
 28.5916  10132.1  100.185
 28.6336  10024.8  99.9911
 28.6756  10201.6  100.064
 28.7176  10035.4  99.7902
 28.7596  10045.7  99.7441
 28.8016  10193.4  100.514
 28.8436  9918.71  99.3899
 28.8856  10223.5  100.755
 28.9276  10060.1  100.193
 28.9696  9969.13  99.3933
 29.0116  10013.4  99.8025
 29.0536  9915.1  99.51
 29.0956  9957.54  99.4424
 29.1376  9925.75  99.2461
 29.1796  9916.83  99.2503
 29.2216  9924.37  99.1241
 29.2636  9947.96  99.2338
 29.3056  9882  98.7785
 29.3476  9843.94  99.1118
 29.3896  10007.5  100.025
 29.4316  10058.6  99.6211
 29.4736  9919.02  98.9845
 29.5156  10046  99.5386
 29.5576  9944.04  99.7942
 29.5996  9890.3  98.7669
 29.6416  9797.56  98.422
 29.6836  9999.45  99.3516
 29.7256  9891.46  99.3913
 29.7676  9923.96  99.1968
 29.8096  9774.99  98.4061
 29.8516  9762.48  98.674
 29.8936  9836.1  99.1458
 29.9356  9921.79  99.3272
 29.9776  9760.24  98.6698
 30.0196  9817.2  98.3394
 30.0616  9917.26  99.219
 30.1036  9819.99  98.5604
 30.1456  9755.24  98.459
 30.1876  9706.48  98.1986
 30.2296  9665.18  97.9285
 30.2716  9811.86  98.306
 30.3136  9785.77  99.0471
 30.3556  9751.75  98.8804
 30.3976  9535.02  99.3039
 30.4396  9820.39  98.061
 30.4816  9846.46  97.7795
 30.5236  9659.89  96.8701
 30.5656  9693.38  97.6972
 30.6076  9701.82  97.1689
 30.6496  9533.45  96.704
 30.6916  9651.06  97.3874
 30.7336  9617.43  97.3753
 30.7756  9589.38  97.3249
 30.8176  9548.62  97.0334
 30.8596  9680.94  97.4679
 30.9016  9635.62  97.5878
 30.9436  9580.89  97.0577
 30.9856  9719.46  97.8525
 31.0276  9554.88  96.6446
 31.0696  9508.03  96.9834
 31.1116  9690.38  97.8861
 31.1536  9651.35  97.568
 31.1956  9680.35  97.8073
 31.2376  9456.39  96.6812
 31.2796  9687.87  97.3836
 31.3216  9605.64  96.9108
 31.3636  9605.82  97.6276
 31.4056  9754.95  99.7308
 31.4476  9551.99  96.5524
 31.4896  9451.87  96.5525
 31.5316  9404.69  95.7526
 31.5736  9610.65  96.5604
 31.6156  9458.73  95.822
 31.6576  9549.22  96.3787
 31.6996  9522.79  95.9106
 31.7416  9414.51  96.4324
 31.7836  9484.76  95.796
 31.8256  9318.03  95.2999
 31.8676  9593.31  96.6174
 31.9096  9325.18  95.6175
 31.9516  9175.29  95.0068
 31.9936  9249.29  95.2154
 32.0356  9380.3  95.9522
 32.0776  9375.85  95.8111
 32.1196  9417.58  96.1103
 32.1616  9416.06  95.5598
 32.2036  9168.81  94.8012
 32.2456  9342.89  96.09
 32.2876  9288.65  95.1376
 32.3296  9211.84  94.8724
 32.3716  9332.35  95.5915
 32.4136  9298.58  95.6295
 32.4556  9377.24  95.4656
 32.4976  9336.43  95.0987
 32.5396  9279.5  94.8839
 32.5816  9173.94  94.4665
 32.6236  9345.6  95.4166
 32.6656  9440.96  96.4521
 32.7076  9270.37  95.2292
 32.7496  9241.79  94.7445
 32.7916  9274.46  94.8746
 32.8336  9262.71  94.9157
 32.8756  9365.67  95.1485
 32.9176  9039.47  93.9612
 32.9596  9096.99  94.3359
 33.0016  9180.62  94.5658
 33.0436  9294.43  95.3228
 33.0856  9091.84  94.3474
 33.1276  9104.57  94.1514
 33.1696  9183.28  94.3942
 33.2116  9173.03  94.5752
 33.2536  9226.44  94.8429
 33.2956  9074.25  94.1412
 33.3376  9091.09  93.9622
 33.3796  9216.32  94.8205
 33.4216  9278.08  94.7195
 33.4636  9165.6  94.3023
 33.5056  9129.18  94.3642
 33.5476  9055.66  93.9698
 33.5896  9180.29  94.3637
 33.6316  9108.88  94.3397
 33.6736  8953.12  93.7691
 33.7156  9027.7  94.2087
 33.7576  9282.49  95.1392
 33.7996  9284.13  94.9188
 33.8416  9026.71  93.7745
 33.8836  9099.52  93.9284
 33.9256  8956.27  93.2451
 33.9676  9026.02  93.5062
 34.0096  8894.44  93.1376
 34.0516  9058.51  93.6258
 34.0936  8977.83  93.4809
 34.1356  9007.5  93.3714
 34.1776  8941.36  93.039
 34.2196  8875.94  92.8788
 34.2616  8809.37  92.6695
 34.3036  8813.75  92.9374
 34.3456  8856.27  92.9123
 34.3876  8881.96  93.0141
 34.4296  8843.41  92.492
 34.4716  8968.51  93.2996
 34.5136  8810.21  92.6781
 34.5556  8789.78  92.8347
 34.5976  8932.71  93.3757
 34.6396  8860.66  92.7143
 34.6816  8839.38  92.7096
 34.7236  8901.51  92.8202
 34.7656  8857.85  92.7837
 34.8076  8797.45  92.8041
 34.8496  8730.85  92.3023
 34.8916  8725.93  92.1487
 34.9336  8908.25  93.0765
 34.9756  8902.94  92.9619
 35.0176  8774.09  92.8234
 35.0596  8770.19  92.6225
 35.1016  8670.13  91.86
 35.1436  8937.86  92.9439
 35.1856  8772.63  92.2167
 35.2276  8766.18  92.3583
 35.2696  8704.67  92.2267
 35.3116  8821.79  92.9402
 35.3536  8744.42  92.2376
 35.3956  8833.96  92.4132
 35.4376  8693.94  92.2313
 35.4796  8824.25  92.9892
 35.5216  8752.46  92.5588
 35.5636  8500.71  91.9719
 35.6056  8765.46  92.3988
 35.6476  8947.37  93.2391
 35.6896  8702.77  92.1269
 35.7316  8611.97  91.5335
 35.7736  8609.13  91.7248
 35.8156  8576.48  91.5485
 35.8576  8718.3  92.5633
 35.8996  8843.8  93.1818
 35.9416  9065.1  93.8017
 35.9836  8578.51  91.6347
 36.0256  8788.21  92.7684
 36.0676  8745.85  92.0705
 36.1096  8493.22  91.0899
 36.1516  8590.81  91.4998
 36.1936  8631.43  91.5634
 36.2356  8470.74  91.3512
 36.2776  8587.71  91.4523
 36.3196  8575.3  91.0533
 36.3616  8489.49  90.7324
 36.4036  8541.06  91.0538
 36.4456  8516.76  91.1458
 36.4876  8405.33  90.4807
 36.5296  8565.78  91.389
 36.5716  8552.62  92.1087
 36.6136  8636.57  91.3192
 36.6556  8595.43  91.2937
 36.6976  8513.15  91.3671
 36.7396  8250.12  89.6835
 36.7816  8587.65  91.8712
 36.8236  8427.33  90.9446
 36.8656  8388.17  90.8033
 36.9076  8479.93  91.2973
 36.9496  8467.12  91.0817
 36.9916  8442.24  90.5785
 37.0336  8582.98  91.6456
 37.0756  8584.97  91.4505
 37.1176  8384.43  90.647
 37.1596  8405.17  90.7673
 37.2016  8337.39  90.582
 37.2436  8444.83  90.5162
 37.2856  8332.25  90.174
 37.3276  8537.07  90.605
 37.3696  8310.44  90.2968
 37.4116  8566.25  91.5618
 37.4536  8375.9  90.4163
 37.4956  8343.18  90.2783
 37.5376  8363.87  91.9763
 37.5796  8283.62  91.4768
 37.6216  8209.93  89.3182
 37.6636  8199.93  89.1634
 37.7056  8283.71  89.8095
 37.7476  8318.29  89.5297
 37.7896  8219.5  89.4954
 37.8316  8149.17  89.2825
 37.8736  8337.75  89.8318
 37.9156  8289.13  89.5711
 37.9576  8334.16  89.6959
 37.9996  8116.18  88.2358
 38.0416  8176.66  89.3851
 38.0836  8349.07  90.2215
 38.1256  8204.07  89.3964
 38.1676  8110.67  89.0237
 38.2096  8114.04  88.6648
 38.2516  8351.66  90.1537
 38.2936  8251.57  89.4148
 38.3356  8347.62  89.8424
 38.3776  8204.55  89.3514
 38.4196  8316.55  89.8111
 38.4616  8205.32  89.4472
 38.5036  8384.22  90.2592
 38.5456  8206.09  90.1522
 38.5876  8112.01  89.6699
 38.6296  8092.58  88.5294
 38.6716  8180.34  88.7965
 38.7136  8088.92  88.2447
 38.7556  8093.55  88.7766
 38.7976  8129.82  88.9156
 38.8396  8031.32  88.8301
 38.8816  8083.32  88.8946
 38.9236  8072.94  88.6454
 38.9656  8156.3  89.0163
 39.0076  8152.22  88.3936
 39.0496  8131.04  88.8229
 39.0916  8141.57  88.5231
 39.1336  8065.51  88.529
 39.1756  7916.49  87.7748
 39.2176  8144.12  89.5646
 39.2596  8132.08  89.4195
 39.3016  8083.01  88.7167
 39.3436  7937.56  88.3411
 39.3856  8196.11  89.2072
 39.4276  8113.85  89.2559
 39.4696  7983.79  88.1657
 39.5116  7964.07  88.5672
 39.5536  8242.55  90.5352
 39.5956  8265.55  89.7508
 39.6376  8203.22  89.404
 39.6796  8143.25  88.8229
 39.7216  8169.88  89.0615
 39.7636  8180.55  89.7031
 39.8056  8196.8  89.5574
 39.8476  8001.84  88.752
 39.8896  8044.24  88.61
 39.9316  8100.37  89.1759
 39.9736  8221.05  89.4059
 40.0156  7965.87  87.819
 40.0576  8151.45  89.2167
 40.0996  8191.09  88.6001
 40.1416  8152.79  89.1895
 40.1836  8282.62  89.7842
 40.2256  8205.24  89.4121
 40.2676  8066.39  88.7561
 40.3096  8106.4  88.898
 40.3516  8208.32  89.574
 40.3936  8222.34  89.2014
 40.4356  8098.95  88.7294
 40.4776  8178.79  89.5791
 40.5196  8145.63  89.5258
 40.5616  8284.19  89.9139
 40.6036  8116.35  89.2536
 40.6456  8259.35  89.6398
 40.6876  8138.9  88.9699
 40.7296  8236.65  89.6507
 40.7716  8231.61  89.7515
 40.8136  8212.96  89.596
 40.8556  8172.44  89.5021
 40.8976  8222.09  89.6966
 40.9396  8075.65  89.2433
 40.9816  8329.13  89.9024
 41.0236  8333.18  89.6967
 41.0656  8235.87  89.7253
 41.1076  8267.99  89.6675
 41.1496  8247.6  89.465
 41.1916  8174.47  89.3969
 41.2336  8130.58  89.14
 41.2756  8040.82  88.2527
 41.3176  8137.69  89.4024
 41.3596  8284.15  89.9266
 41.4016  8133.93  89.3626
 41.4436  8205.36  89.5488
 41.4856  8221.5  89.7976
 41.5276  8188.54  89.6403
 41.5696  8250.63  89.5915
 41.6116  8189.81  89.6719
 41.6536  8112.74  89.108
 41.6956  8130.87  89.2627
 41.7376  8124.74  89.2585
 41.7796  8085.82  88.9731
 41.8216  8208.29  89.834
 41.8636  8146.98  89.4398
 41.9056  7995.69  88.3899
 41.9476  8164.26  89.5503
 41.9896  8175.74  89.2745
 42.0316  8131.91  89.1286
 42.0736  8046.86  88.7677
 42.1156  8048.06  88.6116
 42.1576  8099.12  88.9925
 42.1996  8196.52  89.6729
 42.2416  8068.53  88.5475
 42.2836  8036.1  88.4831
 42.3256  8085.85  88.8726
 42.3676  8110.16  88.8072
 42.4096  8112.05  88.7623
 42.4516  8087.38  88.7335
 42.4936  8023.91  88.4551
 42.5356  8056.89  88.7726
 42.5776  8075.11  88.8099
 42.6196  8127.95  89.1583
 42.6616  7973.39  88.4746
 42.7036  8048.28  88.2659
 42.7456  8006  88.3935
 42.7876  8033.01  88.647
 42.8296  8015.72  88.3755
 42.8716  7965.27  88.2635
 42.9136  7962.69  88.0368
 42.9556  8027.89  88.5297
 42.9976  8114  88.9701
 43.0396  7958.85  87.8399
 43.0816  7890.54  87.8449
 43.1236  8048.73  88.7774
 43.1656  7984.94  88.2553
 43.2076  8005.08  88.4657
 43.2496  7957.38  88.0166
 43.2916  7940.84  88.2963
 43.3336  8035.57  88.6579
 43.3756  7944.32  87.9022
 43.4176  7810.88  87.2462
 43.4596  7895.24  87.5677
 43.5016  7948.24  88.2715
 43.5436  7969.87  88.2924
 43.5856  7961.68  88.2703
 43.6276  7909.94  87.8794
 43.6696  7887.84  87.9053
 43.7116  7990.43  88.0785
 43.7536  7890.61  88.0198
 43.7956  7750.14  88.4322
 43.8376  7876.8  87.6816
 43.8796  7821.71  87.4529
 43.9216  7791.32  87.193
 43.9636  7875.86  87.7772
 44.0056  7829.27  87.7559
 44.0476  7892.9  87.7279
 44.0896  7807.03  87.6029
 44.1316  7734.43  86.8674
 44.1736  7829.96  87.3763
 44.2156  7904.86  87.6476
 44.2576  7838.38  87.6028
 44.2996  7840.98  87.5937
 44.3416  7775.16  86.9699
 44.3836  7633.13  86.5027
 44.4256  7665.99  86.3336
 44.4676  7706.39  86.7253
 44.5096  7734.88  87.0278
 44.5516  7694.76  86.7652
 44.5936  7628.38  86.3446
 44.6356  7723.3  86.6145
 44.6776  7698.86  86.8072
 44.7196  7642.79  86.7876
 44.7616  7687.32  88.3862
 44.8036  7615.38  86.369
 44.8456  7750.82  87.3449
 44.8876  7586.81  86.263
 44.9296  7672.38  86.2007
 44.9716  7582.43  86.1237
 45.0136  7712.14  86.7846
 45.0556  7719.09  86.8001
 45.0976  7670.9  86.6874
 45.1396  7615.58  86.1392
 45.1816  7519.95  85.533
 45.2236  7644.85  86.1372
 45.2656  7570.35  86.2259
 45.3076  7651.33  86.4649
 45.3496  7562.33  86.2601
 45.3916  7653.31  87.0537
 45.4336  7499.42  86.0193
 45.4756  7554.07  86.1893
 45.5176  7662.64  86.4163
 45.5596  7563.31  85.9764
 45.6016  7488.53  85.9688
 45.6436  7578.87  85.6598
 45.6856  7438.58  85.5176
 45.7276  7382.85  86.5235
 45.7696  7538.15  87.0965
 45.8116  7601.96  86.9106
 45.8536  7630.5  86.9561
 45.8956  7546.35  85.8217
 45.9376  7616.5  85.6776
 45.9796  7546.32  85.9737
 46.0216  7468.74  85.8692
 46.0636  7566.21  85.5654
 46.1056  7415.41  84.6976
 46.1476  7526.14  85.9261
 46.1896  7584.61  86.4074
 46.2316  7504.82  85.8185
 46.2736  7335.63  85.216
 46.3156  7495.96  85.7234
 46.3576  7394.24  85.3443
 46.3996  7385.83  85.455
 46.4416  7535.1  85.8897
 46.4836  7510.57  86.109
 46.5256  7442.56  85.6567
 46.5676  7509.53  86.1559
 46.6096  7504.93  86.0646
 46.6516  7545.36  85.3268
 46.6936  7492.68  85.5234
 46.7356  7483.4  85.571
 46.7776  7405.08  85.9677
 46.8196  7403.09  85.5521
 46.8616  7222.82  84.4336
 46.9036  7296.5  84.5407
 46.9456  7370.31  84.596
 46.9876  7395.2  84.8261
 47.0296  7294.95  84.9351
 47.0716  7217.37  84.311
 47.1136  7309.58  84.524
 47.1556  7362.65  84.7024
 47.1976  7422.08  85.1103
 47.2396  7311.12  84.8788
 47.2816  7309.25  84.5761
 47.3236  7380.31  85.3486
 47.3656  7283.89  84.7254
 47.4076  7295.59  84.5812
 47.4496  7220.65  84.2511
 47.4916  7195.79  84.294
 47.5336  7344.29  84.9803
 47.5756  7409.38  85.4709
 47.6176  7282.8  84.6359
 47.6596  7241.5  84.1062
 47.7016  7389.85  84.7776
 47.7436  7298.65  84.5961
 47.7856  7378.43  85.0785
 47.8276  7244.58  84.3518
 47.8696  7278.53  84.6332
 47.9116  7256.84  84.2267
 47.9536  7203.31  83.8526
 47.9956  7094.32  83.9254
 48.0376  7146.33  84.0116
 48.0796  7280.29  84.9163
 48.1216  7294.56  84.8249
 48.1636  7317.81  84.5243
 48.2056  7407.28  85.3102
 48.2476  7338.73  85.223
 48.2896  7229.4  84.5019
 48.3316  7176.42  84.1267
 48.3736  7095.96  83.6778
 48.4156  7176.63  84.0079
 48.4576  7163.21  84.2214
 48.4996  7251.19  84.1923
 48.5416  7256.19  84.5379
 48.5836  7218.18  83.9963
 48.6256  7223.37  84.2334
 48.6676  7115.3  84.1204
 48.7096  7145.65  83.5634
 48.7516  7198.94  84.0275
 48.7936  7040.86  83.1604
 48.8356  7103.27  83.5764
 48.8776  7126.57  84.2058
 48.9196  7196.37  84.067
 48.9616  7110.75  83.9333
 49.0036  7151.89  84.5354
 49.0456  7103.97  84.2319
 49.0876  6986.47  83.1651
 49.1296  6961.44  83.0846
 49.1716  6909.69  82.6501
 49.2136  7141.4  83.9459
 49.2556  7025.68  83.2998
 49.2976  7153.42  84.1184
 49.3396  7011.56  83.3408
 49.3816  7202.68  83.8923
 49.4236  7139.59  83.9374
 49.4656  6985.81  83.0583
 49.5076  7037.65  83.1151
 49.5496  6974.22  82.8105
 49.5916  7122.88  83.5964
 49.6336  7064.08  83.4524
 49.6756  7067.73  83.7079
 49.7176  6918.41  82.7609
 49.7596  6968.97  82.8259
 49.8016  7060.08  83.2979
 49.8436  6980.7  83.1184
 49.8856  6960.56  83.0102
 49.9276  6898.16  82.7379
 49.9696  7014.19  83.4105
 50.0116  7056  83.7823
 50.0536  7067.63  83.8015
 50.0956  6897.21  82.8478
 50.1376  6962.54  82.9441
 50.1796  6828.43  82.4107
 50.2216  6951.04  83.1488
 50.2636  6859.04  82.2148
 50.3056  6800.27  82.0384
 50.3476  6974.13  83.0975
 50.3896  6837.04  82.2484
 50.4316  6921.2  82.5862
 50.4736  6900.04  82.68
 50.5156  6957.92  83.0169
 50.5576  6953.99  82.7503
 50.5996  6919.66  82.829
 50.6416  6889.04  82.5728
 50.6836  6916.49  82.7999
 50.7256  6913.82  82.7041
 50.7676  6870.73  82.7287
 50.8096  6908.1  82.5286
 50.8516  6929.55  83.0708
 50.8936  6798.25  82.0505
 50.9356  6883.79  82.685
 50.9776  6916.41  83.0293
 51.0196  6831.93  82.6615
 51.0616  6827.39  81.9588
 51.1036  6939.12  82.9849
 51.1456  6829.78  82.2443
 51.1876  6777.45  81.2702
 51.2296  6708.92  81.4877
 51.2716  6722.42  81.2686
 51.3136  6658.41  81.3377
 51.3556  6754.68  81.5479
 51.3976  6670.96  81.1926
 51.4396  6714.58  81.7674
 51.4816  6727.55  81.6914
 51.5236  6666.15  81.4142
 51.5656  6695.99  81.1969
 51.6076  6755.57  81.6401
 51.6496  6746.77  81.7714
 51.6916  6722.72  81.9916
 51.7336  6725.52  82.0907
 51.7756  6686.79  81.5579
 51.8176  6687.78  81.6695
 51.8596  6695.81  81.7349
 51.9016  6836.6  82.1932
 51.9436  6708.5  82.8804
 51.9856  6651.67  82.957
 52.0276  6844.53  82.6304
 52.0696  6676.85  81.6764
 52.1116  6637.53  81.5498
 52.1536  6680.75  81.7025
 52.1956  6757.54  81.6346
 52.2376  6913.98  82.7451
 52.2796  6690.26  81.2069
 52.3216  6639.16  81.5927
 52.3636  6725.8  81.6969
 52.4056  6661.83  81.1615
 52.4476  6611.93  81.2243
 52.4896  6655.33  81.5437
 52.5316  6609.43  81.3058
 52.5736  6729.14  81.7647
 52.6156  6668.79  81.7695
 52.6576  6725.95  81.563
 52.6996  6644.22  82.0478
 52.7416  6597.67  81.6095
 52.7836  6631.96  81.7156
 52.8256  6646.06  81.0172
 52.8676  6439.05  80.3184
 52.9096  6692.35  81.9575
 52.9516  6585.17  81.6882
 52.9936  6552.53  81.8758
 53.0356  6519.36  80.6723
 53.0776  6523.97  80.9765
 53.1196  6549.13  81.2469
 53.1616  6562.87  81.3792
 53.2036  6355.67  80.0359
 53.2456  6545.77  81.3245
 53.2876  6427.83  80.2993
 53.3296  6510.13  81.1405
 53.3716  6473.83  80.6538
 53.4136  6468.83  80.7719
 53.4556  6413.02  80.4535
 53.4976  6443.43  80.4982
 53.5396  6531.27  81.4447
 53.5816  6448.34  80.5564
 53.6236  6359.4  80.3338
 53.6656  6528.95  81.0278
 53.7076  6494.94  80.7778
 53.7496  6428.98  80.4787
 53.7916  6492.29  81.0066
 53.8336  6416.13  80.4251
 53.8756  6334.61  80.4638
 53.9176  6488.47  80.7845
 53.9596  6489.25  81.5478
 54.0016  6381.58  80.2048
 54.0436  6453.29  80.867
 54.0856  6538.52  80.8221
 54.1276  6465.33  80.5665
 54.1696  6401.65  80.3446
 54.2116  6502.12  80.7216
 54.2536  6511.78  80.6005
 54.2956  6535.15  80.7957
 54.3376  6432.62  80.6387
 54.3796  6430.05  80.5208
 54.4216  6539.7  81.25
 54.4636  6501.16  80.9664
 54.5056  6526.89  80.9475
 54.5476  6392.68  80.4515
 54.5896  6396.18  80.297
 54.6316  6486.7  80.7271
 54.6736  6427.83  80.3895
 54.7156  6497.24  80.8853
 54.7576  6335.75  79.8785
 54.7996  6506.13  81.079
 54.8416  6506.09  81.1294
 54.8836  6269.53  79.7523
 54.9256  6461.11  80.7111
 54.9676  6453.65  80.511
 55.0096  6460.47  80.6296
 55.0516  6432.39  80.6266
 55.0936  6434.77  80.3359
 55.1356  6354.9  79.8786
 55.1776  6390.97  80.3691
 55.2196  6477.2  80.6913
 55.2616  6368.08  80.2192
 55.3036  6330.21  80.1453
 55.3456  6423.37  80.8803
 55.3876  6449.3  80.7882
 55.4296  6403.91  80.4783
 55.4716  6430.2  80.6796
 55.5136  6438.21  80.4882
 55.5556  6336.44  79.9139
 55.5976  6329.37  79.9282
 55.6396  6294.3  79.6521
 55.6816  6386.67  80.1105
 55.7236  6415.66  80.3299
 55.7656  6413.14  80.0766
 55.8076  6472.19  80.4282
 55.8496  6328.97  79.8539
 55.8916  6357.02  80.1968
 55.9336  6349.39  79.9974
 55.9756  6316.68  79.6848
 56.0176  6257.61  79.4669
 56.0596  6325.15  79.867
 56.1016  6304.9  79.7941
 56.1436  6234.79  79.5816
 56.1856  6374.98  80.2083
 56.2276  6326.3  79.9546
 56.2696  6348.82  80.0725
 56.3116  6316.33  80.2667
 56.3536  6266.46  79.6112
 56.3956  6312.81  79.8955
 56.4376  6258.87  79.5829
 56.4796  6335.26  79.8746
 56.5216  6360.54  80.4095
 56.5636  6445.02  80.5255
 56.6056  6278.15  79.7049
 56.6476  6288.15  79.3959
 56.6896  6316.28  80.0226
 56.7316  6342.87  80.0986
 56.7736  6325.4  79.9874
 56.8156  6350.7  80.1432
 56.8576  6288.83  79.7009
 56.8996  6360.45  80.0868
 56.9416  6247.45  79.6775
 56.9836  6292.14  79.468
 57.0256  6251.49  79.5309
 57.0676  6226.29  79.4971
 57.1096  6364.75  80.1628
 57.1516  6351.8  80.1081
 57.1936  6285.09  79.4657
 57.2356  6301.21  79.893
 57.2776  6380.94  80.3515
 57.3196  6260.65  79.9639
 57.3616  6352.58  80.0326
 57.4036  6298.23  79.7525
 57.4456  6266.66  79.5147
 57.4876  6338.2  79.8329
 57.5296  6239.18  79.4431
 57.5716  6263.92  79.6873
 57.6136  6345.33  80.0272
 57.6556  6246.43  79.5283
 57.6976  6296.38  79.6784
 57.7396  6093.78  78.7551
 57.7816  6206.6  79.841
 57.8236  6183.91  79.4896
 57.8656  6378.96  80.3846
 57.9076  6273.32  79.7496
 57.9496  6290.04  80.2009
 57.9916  6260.84  79.5301
 58.0336  6227.24  79.5923
 58.0756  6260.4  79.4245
 58.1176  6262.78  79.4449
 58.1596  6160.2  79.3635
 58.2016  6396.08  80.0744
 58.2436  6366.93  80.314
 58.2856  6245.78  79.4623
 58.3276  6281.87  80.0762
 58.3696  6206.32  79.3444
 58.4116  6440.68  80.687
 58.4536  6311.16  79.7582
 58.4956  6259.3  79.6104
 58.5376  6346.17  79.7218
 58.5796  6309.12  79.9135
 58.6216  6384.98  80.2145
 58.6636  6319.83  80.0136
 58.7056  6211.01  79.1821
 58.7476  6152.92  79.2589
 58.7896  6122.07  78.7027
 58.8316  6292.78  79.7925
 58.8736  6277.09  79.6916
 58.9156  6232.13  79.4606
 58.9576  6423.22  80.9905
 58.9996  6453.6  80.4021
 59.0416  6449.5  80.7514
 59.0836  6254.15  79.4443
 59.1256  6216.48  79.9165
 59.1676  6195.11  80.0908
 59.2096  6482.17  81.1965
 59.2516  6421.91  80.3863
 59.2936  6208.65  79.3729
 59.3356  6321.94  79.9687
 59.3776  6441.27  80.8944
 59.4196  6281.8  79.8217
 59.4616  6271.25  79.6117
 59.5036  6219.44  79.3149
 59.5456  6468.37  80.5725
 59.5876  6222.71  79.2216
 59.6296  6153.33  78.8486
 59.6716  6329.89  80.0312
 59.7136  6442.44  80.7274
 59.7556  6203.41  79.354
 59.7976  6299.97  79.7058
 59.8396  6140.19  78.582
 59.8816  6313.23  80.2392
 59.9236  6284.56  79.6933
 59.9656  6250.22  79.7396
 60.0076  6365.43  79.8123
 60.0496  6306.07  79.9542
 60.0916  6385.23  79.8561
 60.1336  6165.17  79.5866
 60.1756  6113.26  80.4422
 60.1996  0.0000000E+00  0.0000000E+00