File: docs/examples/opeando_xrd/IS17_D/Data/IS17_D/17_Da_f00128.xye
# /beamlines/bl04/projects/cycle2025-II/20250340211-lsimonelli/DATA/IS17_D/17_Da_f00128.xye : mythproc.py merge -s 0.006 -l 0.5 -f /beamlines/bl04/inhouse/ff/FlatField/ff_20Nov2024rod8mm60s_17keV.raw -b True -c true -o xye /beamlines/bl04/projects/cycle2025-II/20250340211-lsimonelli/DATA/IS17_D/17_Da_00128.dat
# IsMon = [6747858, 6749250, 6745927]  IsPos = [-1.4999, -2.4883, -3.4988]
# Wave = 0.4962  CalPath /beamlines/bl04/projects/cycle2025-II/20250340211-lsimonelli/DATA/Align/Si_Pos1_25keV_f00001.cal
# Date = 2025-09-25_05:14:56 Dt = 4.8000  Bin = 0.0060  <imon> = 6747678 +/- 1363 (Min/Max) 6745927 / 6749250
# icurr 249.0378  mocoIn 1.7001E-05  mocoOut 0.7970  i15 7.06535e+06  imon 6.74768e+06  i7 5.3333  iEMpd_timer 4.8000  iEMpd_1 3.4576E-08  iEMpd_2 7.8187E-08  iEMpd_3 1.7048E-08  iEMpd_4 4.7058E-08  iEMhp_timer 4.8000  iEMhp_1 4.8672E-06  iEMhp_2 -2.5943E-08  iEMhp_3 -2.4550E-08  iEMhp_4 -2.0723E-08
#      9776
 1.5856  40454  206.528
 1.6276  47486.9  219.921
 1.6696  54302.9  234.346
 1.7116  62339.5  251.58
 1.7536  72173.7  269.544
 1.7956  76534.6  278.261
 1.8376  72355.8  270.987
 1.8796  61385.8  247.768
 1.9216  49278.5  222.875
 1.9636  41581.4  203.89
 2.0056  37368.8  192.538
 2.0476  34753  187.713
 2.0896  33354  182.817
 2.1316  32319.8  179.096
 2.1736  30888.8  176.475
 2.2156  31454.1  176.653
 2.2576  30293  173.985
 2.2996  28862  170.448
 2.3416  29573.1  171.157
 2.3836  28548.1  168.269
 2.4256  27968.3  167.094
 2.4676  27537.5  165.567
 2.5096  27473.3  165.428
 2.5516  26709.4  166.87
 2.5936  27605.4  166.234
 2.6356  26175.4  162.554
 2.6776  26002  160.921
 2.7196  25491  159.453
 2.7616  25558.5  159.827
 2.8036  25167.2  158.768
 2.8456  25123.9  159.24
 2.8876  24841.6  158.219
 2.9296  24403.7  156.944
 2.9716  24260  155.979
 3.0136  23771.2  154.465
 3.0556  23827.2  155.04
 3.0976  23834.6  154.009
 3.1396  23654.3  154.137
 3.1816  23540.1  153.408
 3.2236  23385.6  153.19
 3.2656  23345.7  152.099
 3.3076  23245.6  153.22
 3.3496  23486.6  152.957
 3.3916  23798.8  153.798
 3.4336  24389.9  156.272
 3.4756  24458.7  156.422
 3.5176  25602.4  159.831
 3.5596  25311.3  161.358
 3.6016  25392.2  159.239
 3.6436  24913.4  158.828
 3.6856  24427.4  155.572
 3.7276  23456  153.529
 3.7696  23195.3  152.881
 3.8116  22863.4  151.661
 3.8536  22898  151.713
 3.8956  23038.4  152.001
 3.9376  22703.3  151.141
 3.9796  22607.6  150.334
 4.0216  22724.9  149.764
 4.0636  22696.6  151.143
 4.1056  22723.2  150.867
 4.1476  22806  151.46
 4.1896  23129.3  152.387
 4.2316  23348.5  152.941
 4.2736  23656.1  153.728
 4.3156  24052.3  155.246
 4.3576  24715.1  157.29
 4.3996  24877  158.06
 4.4416  25414.1  159.346
 4.4836  25944.7  161.146
 4.5256  26413  163.212
 4.5676  26293.8  163.097
 4.6096  26763.5  163.206
 4.6516  27184  164.193
 4.6936  27446  165.806
 4.7356  27539.4  165.909
 4.7776  27506.3  165.644
 4.8196  27206.8  165.382
 4.8616  26683.9  163.268
 4.9036  26560  162.638
 4.9456  26433.8  162.9
 4.9876  25729.4  160.615
 5.0296  26139.9  161.713
 5.0716  25990  162.028
 5.1136  26008.6  161.785
 5.1556  26458.4  162.646
 5.1976  26798.9  163.682
 5.2396  27049.9  164.145
 5.2816  26877.9  164.081
 5.3236  27248.3  164.912
 5.3656  26693.9  164.148
 5.4076  26360.9  163.27
 5.4496  26591.3  163.471
 5.4916  26702.2  163.562
 5.5336  26579.6  163.196
 5.5756  26434  162.775
 5.6176  26702.7  163.037
 5.6596  26867.2  164.518
 5.7016  27084  164.442
 5.7436  27339.6  165.49
 5.7856  27102.9  164.831
 5.8276  27639.7  166.177
 5.8696  27579.7  166.163
 5.9116  27779.7  167.069
 5.9536  27808.9  167.211
 5.9956  28044.3  167.285
 6.0376  28074.5  168.014
 6.0796  28467.4  169.016
 6.1216  28338  168.89
 6.1636  28393.5  168.064
 6.2056  28713.9  169.678
 6.2476  28692.9  169.488
 6.2896  29216.8  170.708
 6.3316  28740  169.482
 6.3736  29252.5  170.88
 6.4156  29042.7  170.159
 6.4576  29286.8  170.482
 6.4996  29385.2  171.249
 6.5416  29495.2  171.707
 6.5836  29407  171.683
 6.6256  29454  171.38
 6.6676  30027.3  172.607
 6.7096  30028.4  173.461
 6.7516  30479.2  174.416
 6.7936  30572.7  174.113
 6.8356  30684.1  174.505
 6.8776  31036.5  176.308
 6.9196  30898.6  176.318
 6.9616  31649.4  177.883
 7.0036  31821  178.018
 7.0456  31877.4  177.469
 7.0876  31912.3  179.263
 7.1296  31737.5  177.909
 7.1716  31821.2  177.685
 7.2136  31734.9  177.216
 7.2556  31677.4  177.218
 7.2976  31796.8  178.053
 7.3396  31707.6  178.007
 7.3816  31590.1  177.901
 7.4236  31871.7  177.983
 7.4656  32263.7  178.553
 7.5076  32140.5  178.349
 7.5496  32413.7  179.654
 7.5916  32476.5  179.851
 7.6336  32817  180.688
 7.6756  33126.4  181.387
 7.7176  33324.4  182.233
 7.7596  33091.2  182.851
 7.8016  33546.6  186.283
 7.8436  34119.9  184.537
 7.8856  34423.1  184.961
 7.9276  34932.1  186.73
 7.9696  35426.5  188.351
 8.0116  36140.3  188.765
 8.0536  36169.9  189.103
 8.0956  36332.6  190.702
 8.1376  36723.8  191.202
 8.1796  36900.3  192.197
 8.2216  37874.8  193.455
 8.2636  37926  193.854
 8.3056  37581.9  193.741
 8.3476  38279.9  194.845
 8.3896  37993.5  194.197
 8.4316  38354.5  195.281
 8.4736  38510.8  195.139
 8.5156  37942.1  193.97
 8.5576  37838.6  195.32
 8.5996  37700.6  193.193
 8.6416  37837.3  194.811
 8.6836  37545  193.902
 8.7256  38101.5  194.752
 8.7676  37567.8  196.321
 8.8096  37197.9  192.654
 8.8516  37246.9  192.395
 8.8936  37091  191.872
 8.9356  36874.8  191.668
 8.9776  37161.8  192.516
 9.0196  36782.4  191.189
 9.0616  36769.7  190.635
 9.1036  36563.7  191.299
 9.1456  36747.9  191.133
 9.1876  36518.8  190.479
 9.2296  36850.3  190.75
 9.2716  36142.2  188.962
 9.3136  36198.8  189.094
 9.3556  36394.9  189.582
 9.3976  34917.4  186.225
 9.4396  35532.4  187.757
 9.4816  34814.1  185.702
 9.5236  34909.2  185.872
 9.5656  34849.5  186.032
 9.6076  34510.8  185.677
 9.6496  34524.1  185.624
 9.6916  34440  185.378
 9.7336  34356.6  184.923
 9.7756  34795.1  187.375
 9.8176  33784.6  184.103
 9.8596  33564.6  181.943
 9.9016  33200.3  180.944
 9.9436  33001  180.312
 9.9856  32548.2  179.305
 10.0276  32119.3  179.191
 10.0696  32654.9  179.736
 10.1116  31670  177.268
 10.1536  31347  176.534
 10.1956  31442.3  176.394
 10.2376  30611.7  173.559
 10.2796  30783.5  174.169
 10.3216  30801.7  174.492
 10.3636  30580.7  173.898
 10.4056  30157.7  173.09
 10.4476  30071.2  172.464
 10.4896  30492.3  173.258
 10.5316  29660.2  171.454
 10.5736  29450.6  171.26
 10.6156  28973.9  169.632
 10.6576  29338.1  169.245
 10.6996  28986.4  168.897
 10.7416  28635.4  168.113
 10.7836  28707.1  169.027
 10.8256  28316.9  168.313
 10.8676  28397.5  168.078
 10.9096  28025.5  167.022
 10.9516  27691.6  164.944
 10.9936  27845.1  165.601
 11.0356  27664.9  165.706
 11.0776  27629.9  164.901
 11.1196  27049.4  163.909
 11.1616  27064.7  163.644
 11.2036  27014.5  163.349
 11.2456  26939.8  163.825
 11.2876  26853.8  163.297
 11.3296  26706.5  162.75
 11.3716  27218.5  163.995
 11.4136  27326.2  165.227
 11.4556  27873.3  166.537
 11.4976  28114.6  166.193
 11.5396  27632.7  164.928
 11.5816  27047.2  163.639
 11.6236  26746.2  162.942
 11.6656  26363.6  160.931
 11.7076  25870  160.26
 11.7496  25577  163.293
 11.7916  25592.4  158.658
 11.8336  25341.2  158.772
 11.8756  25106  157.563
 11.9176  25301.2  157.825
 11.9596  24962.5  156.953
 12.0016  25080.1  157.837
 12.0436  24852.2  156.823
 12.0856  24568.9  156.456
 12.1276  24798.2  157.097
 12.1696  24725.8  155.991
 12.2116  24854.8  156.4
 12.2536  24444.7  155.938
 12.2956  24727  156.167
 12.3376  24361.2  155.205
 12.3796  24390.7  155.771
 12.4216  24399.2  155.01
 12.4636  24326.5  155.709
 12.5056  24357  155.067
 12.5476  24566.2  155.257
 12.5896  24388.9  155.336
 12.6316  24058.6  154.435
 12.6736  24138  155.352
 12.7156  24094.4  154.895
 12.7576  24477.5  156.365
 12.7996  24348.8  154.593
 12.8416  24220.6  155.244
 12.8836  24649.1  156.356
 12.9256  25067.1  156.758
 12.9676  24988.9  156.947
 13.0096  24530.3  156.591
 13.0516  24914.6  156.85
 13.0936  24902.4  157.213
 13.1356  25228.7  157.215
 13.1776  24691.8  156.524
 13.2196  24874.5  156.76
 13.2616  24808.4  156.865
 13.3036  25056.1  157.616
 13.3456  24817.4  157.219
 13.3876  24824.8  156.529
 13.4296  24700.5  156.287
 13.4716  24946.9  156.673
 13.5136  24844.9  156.504
 13.5556  24962.8  157.495
 13.5976  24960  157.628
 13.6396  25105.9  157.46
 13.6816  24773.6  156.909
 13.7236  25268.4  158.1
 13.7656  24579.5  156.471
 13.8076  24794.3  155.933
 13.8496  24617.1  155.974
 13.8916  24485.9  156.566
 13.9336  24471.7  155.746
 13.9756  24491.4  155.146
 14.0176  24481.6  155.811
 14.0596  24289.6  155.164
 14.1016  24088.6  154.918
 14.1436  23909  153.468
 14.1856  23716.2  153.143
 14.2276  23284.7  152.226
 14.2696  23445.5  152.59
 14.3116  23269  151.919
 14.3536  22743.5  150.37
 14.3956  22712.9  149.994
 14.4376  23182.5  151.319
 14.4796  22966.2  150.6
 14.5216  22431.4  149.636
 14.5636  22351.7  148.932
 14.6056  22542.2  149.145
 14.6476  22438.9  148.029
 14.6896  22133  147.561
 14.7316  21774.9  147.393
 14.7736  21528.6  145.702
 14.8156  21437.7  145.425
 14.8576  21404.7  145.169
 14.8996  21022.7  145.079
 14.9416  20829.6  144.416
 14.9836  20767.5  144.168
 15.0256  20707.7  142.871
 15.0676  20584.3  142.899
 15.1096  20481.4  142.14
 15.1516  20176.6  141.626
 15.1936  20076.4  140.712
 15.2356  19808.2  139.916
 15.2776  19810.5  139.639
 15.3196  19335.4  138.96
 15.3616  19340.5  138.738
 15.4036  19033.4  137.478
 15.4456  19636.7  139.293
 15.4876  19017.2  136.753
 15.5296  18958.9  136.822
 15.5716  18839.1  136
 15.6136  18811.5  136.224
 15.6556  18445.9  134.136
 15.6976  18561.1  134.846
 15.7396  18436.8  134.799
 15.7816  18192.4  133.399
 15.8236  17949.4  133.216
 15.8656  18090.9  133.523
 15.9076  17825.7  132.365
 15.9496  17752.3  134.884
 15.9916  17871  135.783
 16.0336  17418.5  130.948
 16.0756  17717  132.382
 16.1176  17466.5  131.515
 16.1596  16959.2  130.765
 16.2016  17369.3  131.075
 16.2436  16976.7  129.967
 16.2856  17005.2  129.618
 16.3276  16714.5  128.921
 16.3696  17039.5  129.984
 16.4116  16676.9  129.058
 16.4536  16834.4  129.451
 16.4956  16787.6  129.002
 16.5376  16755.9  129.067
 16.5796  16776  128.509
 16.6216  16901.9  129.296
 16.6636  16574.6  128.193
 16.7056  16780.8  128.849
 16.7476  16927.6  128.931
 16.7896  16484.9  127.991
 16.8316  16783.6  129.102
 16.8736  16593.9  128.634
 16.9156  16648.2  129.189
 16.9576  16490  129.37
 16.9996  16411.1  129.55
 17.0416  16449.5  128.039
 17.0836  16592.1  128.352
 17.1256  16224.7  126.931
 17.1676  16190.4  126.786
 17.2096  16054.9  126.134
 17.2516  15854.6  125.125
 17.2936  15974.7  125.93
 17.3356  15674.2  124.738
 17.3776  15611.1  124.681
 17.4196  15809.1  125.159
 17.4616  15565.2  124.11
 17.5036  15492.5  124.185
 17.5456  15227  123.76
 17.5876  15251.9  122.905
 17.6296  15361.4  123.158
 17.6716  15130.6  122.801
 17.7136  15093.7  122.803
 17.7556  15231.5  123.653
 17.7976  15213  123.319
 17.8396  14889.3  121.497
 17.8816  14953.2  122.296
 17.9236  14838.1  121.636
 17.9656  15088.4  123.215
 18.0076  15126.3  122.946
 18.0496  15081.4  121.888
 18.0916  15149.1  122.707
 18.1336  15165.8  122.872
 18.1756  15202  122.549
 18.2176  14907.2  121.579
 18.2596  14936.7  121.426
 18.3016  15067.6  122.22
 18.3436  14983.7  121.872
 18.3856  14776.3  121.172
 18.4276  14822.4  121.034
 18.4696  14675.9  120.535
 18.5116  14753.1  121.139
 18.5536  14833.3  121.835
 18.5956  14555.6  120.233
 18.6376  14653.2  121.044
 18.6796  14571  120.024
 18.7216  14687.1  120.99
 18.7636  14545.3  120.394
 18.8056  14614.5  120.625
 18.8476  14425.7  120.48
 18.8896  14397  119.676
 18.9316  14634.3  120.658
 18.9736  14306.8  118.989
 19.0156  14440.3  119.942
 19.0576  14403.3  118.652
 19.0996  14472.1  119.786
 19.1416  14216  118.981
 19.1836  14234  118.658
 19.2256  14275.5  119.039
 19.2676  14406.6  119.683
 19.3096  14345.8  119.682
 19.3516  14280.9  119.368
 19.3936  14091.2  118.47
 19.4356  14311.8  119.264
 19.4776  14170.2  118.769
 19.5196  14297.1  119.145
 19.5616  14224.3  119.11
 19.6036  14269.2  118.793
 19.6456  14276.2  118.934
 19.6876  14346.6  118.875
 19.7296  14155.2  118.533
 19.7716  14209.2  118.923
 19.8136  14405.1  119.954
 19.8556  14684.2  120.575
 19.8976  14774.4  121.016
 19.9396  14909.4  121.133
 19.9816  14988.1  121.773
 20.0236  14842.5  121.329
 20.0656  14657.5  120.569
 20.1076  14245.3  119.32
 20.1496  13985.3  118.237
 20.1916  14015.6  117.875
 20.2336  13960.8  117.579
 20.2756  13750.5  117.118
 20.3176  13719.6  116.734
 20.3596  13809.8  117.096
 20.4016  13701.8  116.442
 20.4436  13778  117.317
 20.4856  13516.8  115.995
 20.5276  13562  116.656
 20.5696  13552.9  116.071
 20.6116  13525  116.231
 20.6536  13470.7  115.503
 20.6956  13433  115.466
 20.7376  13564.3  116.263
 20.7796  13391.3  115.2
 20.8216  13500.9  115.379
 20.8636  13203.6  114.469
 20.9056  13322.4  114.932
 20.9476  13262.7  114.512
 20.9896  13327.9  114.66
 21.0316  13382  114.79
 21.0736  13265  114.805
 21.1156  13259.8  114.948
 21.1576  13407.5  115.635
 21.1996  13217.8  114.796
 21.2416  13155.8  114.352
 21.2836  13231.8  114.65
 21.3256  12978  113.628
 21.3676  13305  114.594
 21.4096  13095.3  113.998
 21.4516  13082.3  113.821
 21.4936  12726.9  112.507
 21.5356  13112.2  114.145
 21.5776  13195.4  114.339
 21.6196  12993.7  113.509
 21.6616  12894.4  113.151
 21.7036  13007.9  113.433
 21.7456  13102.4  113.914
 21.7876  12870.1  112.65
 21.8296  12845.7  112.402
 21.8716  12860.4  112.694
 21.9136  13132.3  114.086
 21.9556  12849.2  112.524
 21.9976  12912  112.81
 22.0396  12733.5  112.275
 22.0816  12941.8  113.747
 22.1236  12872.4  112.889
 22.1656  12955.9  113.384
 22.2076  12896.6  112.595
 22.2496  12960.5  112.896
 22.2916  12834.8  112.235
 22.3336  12969.2  113.544
 22.3756  12835.7  112.687
 22.4176  12756  112.191
 22.4596  12711.7  112.594
 22.5016  12804.3  112.48
 22.5436  12875.8  112.687
 22.5856  12859.4  112.859
 22.6276  12686.5  112.271
 22.6696  12812.5  113.145
 22.7116  12707.4  112.185
 22.7536  12805.5  112.598
 22.7956  12914.1  112.389
 22.8376  12700.5  111.993
 22.8796  12831.8  112.366
 22.9216  12863.7  113.061
 22.9636  12845.2  112.118
 23.0056  12996  112.913
 23.0476  12954.4  113.311
 23.0896  13132.7  113.453
 23.1316  13074.4  113.645
 23.1736  12712.6  114.807
 23.2156  12943.6  113.415
 23.2576  12727.9  112.58
 23.2996  12692  112.223
 23.3416  12646.7  112.529
 23.3836  12732.5  112.149
 23.4256  12789.2  112.511
 23.4676  12714.8  111.877
 23.5096  12616.9  112.128
 23.5516  12619.9  111.424
 23.5936  12757.9  112.941
 23.6356  12839.9  112.963
 23.6776  12787.3  112.956
 23.7196  12419.2  110.883
 23.7616  12857.1  112.742
 23.8036  12736.4  112.251
 23.8456  12769.3  111.975
 23.8876  12586.4  111.514
 23.9296  12514  111.689
 23.9716  12477.4  110.715
 24.0136  12495.6  111.691
 24.0556  12390.2  110.961
 24.0976  12273.9  110.248
 24.1396  12253.2  112.787
 24.1816  12387.1  111.823
 24.2236  12316.8  111.106
 24.2656  12086.9  109.536
 24.3076  12100.1  109.847
 24.3496  12204.7  110.211
 24.3916  12280.8  110.604
 24.4336  12163.9  110.287
 24.4756  11967.8  109.256
 24.5176  11870.5  108.468
 24.5596  11795.6  108.253
 24.6016  11833.2  108.713
 24.6436  11843.3  108.244
 24.6856  11778.8  107.713
 24.7276  11740.9  107.854
 24.7696  11625.1  107.436
 24.8116  11703.7  107.98
 24.8536  11631.3  107.645
 24.8956  11594.4  107.207
 24.9376  11505.1  106.73
 24.9796  11422.8  106.705
 25.0216  11303.3  106.255
 25.0636  11405.2  106.386
 25.1056  11271.7  106.468
 25.1476  11458.3  109.022
 25.1896  11403  107.232
 25.2316  11506.3  106.984
 25.2736  11396.4  106.121
 25.3156  11248.8  105.514
 25.3576  11316.9  106.251
 25.3996  11274.2  106.034
 25.4416  11353.5  106.386
 25.4836  11157.9  105.995
 25.5256  11264.7  105.86
 25.5676  11309.2  105.79
 25.6096  11151.6  105.632
 25.6516  11235.1  105.522
 25.6936  11098.5  105.182
 25.7356  11148.8  105.566
 25.7776  11197.6  105.402
 25.8196  10984.4  104.626
 25.8616  11112.3  105.157
 25.9036  11243.3  105.239
 25.9456  11073.5  105.038
 25.9876  11073.7  105.105
 26.0296  11235.2  105.368
 26.0716  10979.6  104.593
 26.1136  11226.1  105.704
 26.1556  11245.2  105.17
 26.1976  10966.8  104.783
 26.2396  11293.4  105.472
 26.2816  11037.9  104.882
 26.3236  11148.7  105.57
 26.3656  11060.2  104.874
 26.4076  10948.5  104.523
 26.4496  11548  106.84
 26.4916  11186.4  105.174
 26.5336  10843.6  103.873
 26.5756  11509.8  106.828
 26.6176  10923.9  104.146
 26.6596  10910.8  104.415
 26.7016  10858.4  103.919
 26.7436  10700.2  103.288
 26.7856  10554.3  102.569
 26.8276  10805.4  103.733
 26.8696  10930.3  104.207
 26.9116  10796.2  103.504
 26.9536  10760.2  103.382
 26.9956  10657.8  102.924
 27.0376  10627.7  102.987
 27.0796  10682.4  102.983
 27.1216  10551.9  102.43
 27.1636  10421.6  101.961
 27.2056  10477.7  102.118
 27.2476  10538.1  102.414
 27.2896  10648.8  103.092
 27.3316  10513.9  102.122
 27.3736  10440.5  102.03
 27.4156  10381.2  101.578
 27.4576  10448.5  102.142
 27.4996  10487.1  101.92
 27.5416  10511.5  102.362
 27.5836  10410.8  101.68
 27.6256  10716.5  103.329
 27.6676  10709.8  103.325
 27.7096  10288.5  101.138
 27.7516  10307  101.38
 27.7936  10325.2  101.639
 27.8356  10340.4  101.335
 27.8776  10324.4  101.298
 27.9196  10276.9  100.908
 27.9616  10202.5  100.747
 28.0036  10324.5  101.316
 28.0456  10240.1  101.033
 28.0876  10095.2  100.405
 28.1296  10169.9  100.548
 28.1716  10099.9  100.28
 28.2136  10302.5  101.244
 28.2556  10103.7  100.376
 28.2976  10106.6  100.382
 28.3396  10151.8  100.373
 28.3816  10107.4  100.167
 28.4236  10163.6  100.602
 28.4656  9997.73  99.8125
 28.5076  10059.9  99.7531
 28.5496  10073  100.085
 28.5916  10169.8  100.368
 28.6336  9928.68  99.5114
 28.6756  10116.4  99.6438
 28.7176  9937.59  99.1999
 28.7596  9936.34  99.2012
 28.8016  10079.4  99.9447
 28.8436  9883.65  99.2095
 28.8856  9965.04  99.5148
 28.9276  9871.6  99.2474
 28.9696  9934.88  99.2227
 29.0116  9977.86  99.6306
 29.0536  9811.74  98.9934
 29.0956  9745.98  98.3817
 29.1376  9860.93  98.918
 29.1796  9783.55  98.5728
 29.2216  9792.83  98.4605
 29.2636  9918.62  99.1689
 29.3056  9708.65  97.9051
 29.3476  9717.42  98.4758
 29.3896  9875.56  99.3668
 29.4316  9878.17  98.7205
 29.4736  9732.43  98.0571
 29.5156  9964.34  99.131
 29.5576  9796.46  99.0362
 29.5996  9909.48  98.8582
 29.6416  9748.35  98.1659
 29.6836  9801.6  98.365
 29.7256  9756.15  98.4648
 29.7676  9686.22  98.0112
 29.8096  9820.55  98.6294
 29.8516  9579.53  97.7504
 29.8936  9846.54  99.1938
 29.9356  9871.77  99.0734
 29.9776  9753.61  98.6308
 30.0196  9677.8  97.9023
 30.0616  9678.89  98.016
 30.1036  9741.39  98.1467
 30.1456  9641.05  97.8837
 30.1876  9618.12  97.7416
 30.2296  9658.04  97.8974
 30.2716  9654.4  97.5124
 30.3136  9675.16  98.4777
 30.3556  9585.33  98.0335
 30.3976  9594  99.5947
 30.4396  9721.25  97.5785
 30.4816  9727.38  97.2029
 30.5236  9555.69  96.3606
 30.5656  9620.33  97.3417
 30.6076  9648.92  96.9192
 30.6496  9564.57  96.8773
 30.6916  9431.05  96.2941
 30.7336  9392.03  96.2445
 30.7756  9560.11  97.1885
 30.8176  9511.71  96.8633
 30.8596  9577.87  96.9667
 30.9016  9558.5  97.2134
 30.9436  9592.9  97.1401
 30.9856  9492.62  96.7331
 31.0276  9458.41  96.1732
 31.0696  9377.67  96.3362
 31.1116  9386.47  96.3569
 31.1536  9428.71  96.4584
 31.1956  9373.13  96.2591
 31.2376  9306.59  95.93
 31.2796  9450.27  96.1982
 31.3216  9511.21  96.4468
 31.3636  9462.79  96.8935
 31.4056  9423.79  98.018
 31.4476  9357.84  95.5523
 31.4896  9311.9  95.8187
 31.5316  9385.51  95.5916
 31.5736  9415.28  95.5698
 31.6156  9273.82  94.8675
 31.6576  9415.21  95.6823
 31.6996  9531.74  95.9433
 31.7416  9179.95  95.2096
 31.7836  9289.57  94.7934
 31.8256  9129.78  94.2464
 31.8676  9443.58  95.8468
 31.9096  9236.4  95.1444
 31.9516  9219.53  95.2191
 31.9936  9182.57  94.8537
 32.0356  9160.04  94.8024
 32.0776  9183.7  94.8112
 32.1196  9223.22  95.1068
 32.1616  9200.95  94.4493
 32.2036  9175.11  94.8279
 32.2456  9200.66  95.3422
 32.2876  9022.38  93.9127
 32.3296  9127.44  94.4198
 32.3716  9175.38  94.7822
 32.4136  9248.67  95.3802
 32.4556  9342.61  95.2259
 32.4976  9212.05  94.475
 32.5396  9072.05  93.8215
 32.5816  9008.44  93.6099
 32.6236  9146.64  94.4004
 32.6656  9275.26  95.6019
 32.7076  8985.74  93.7565
 32.7496  9031.43  93.6591
 32.7916  9070.74  93.8259
 32.8336  9095.94  94.0517
 32.8756  9231.19  94.4697
 32.9176  8939.93  93.4478
 32.9596  9026.27  93.973
 33.0016  9166.38  94.4896
 33.0436  9224.86  94.9698
 33.0856  9025.54  94.0037
 33.1276  8863.07  92.8909
 33.1696  8979.73  93.3361
 33.2116  9174.59  94.5758
 33.2536  9014.9  93.7491
 33.2956  9039.56  93.9646
 33.3376  9045.88  93.7362
 33.3796  9002.25  93.7158
 33.4216  9042.95  93.5244
 33.4636  8977.88  93.3246
 33.5056  8900.61  93.1725
 33.5476  8850.81  92.9014
 33.5896  9064.85  93.7848
 33.6316  8880.23  93.1404
 33.6736  8767.59  92.7972
 33.7156  8841.35  93.2321
 33.7576  8962.91  93.4937
 33.7996  9062.24  93.7741
 33.8416  8766.09  92.4046
 33.8836  8909.67  92.9442
 33.9256  8778.6  92.3156
 33.9676  8775.5  92.1973
 34.0096  8734.62  92.2949
 34.0516  8889.38  92.7454
 34.0936  8754.34  92.3096
 34.1356  8811.56  92.3413
 34.1776  8801.92  92.3105
 34.2196  8748.13  92.2065
 34.2616  8732.83  92.2584
 34.3036  8648.25  92.0623
 34.3456  8694.43  92.0633
 34.3876  8711.45  92.1171
 34.4296  8752.08  92.0146
 34.4716  8905.02  92.966
 34.5136  8725.85  92.2345
 34.5556  8728.61  92.5058
 34.5976  8802.54  92.6983
 34.6396  8710.83  92.0425
 34.6816  8623.18  91.5703
 34.7236  8715.5  91.8447
 34.7656  8801.23  92.4867
 34.8076  8625.16  91.8852
 34.8496  8630.33  91.8459
 34.8916  8611.38  91.5432
 34.9336  8642.31  91.6731
 34.9756  8581.72  91.2642
 35.0176  8646.39  92.1362
 35.0596  8591.21  91.6784
 35.1016  8510.13  91.0081
 35.1436  8781.11  92.1261
 35.1856  8528.06  90.9198
 35.2276  8671.34  91.8601
 35.2696  8593.22  91.631
 35.3116  8564.74  91.575
 35.3536  8501.72  90.943
 35.3956  8463.04  90.452
 35.4376  8532.73  91.3733
 35.4796  8611.95  91.8632
 35.5216  8551.69  91.499
 35.5636  8252.48  90.6215
 35.6056  8580.85  91.4182
 35.6476  8580.41  91.3103
 35.6896  8634.27  91.6788
 35.7316  8438.05  90.6113
 35.7736  8373.63  90.4623
 35.8156  8433.17  90.7747
 35.8576  8549.71  91.6572
 35.8996  8616.41  91.985
 35.9416  8449.35  90.5976
 35.9836  8422.23  90.7935
 36.0256  8542.18  91.459
 36.0676  8569.49  91.3593
 36.1096  8393.63  90.5529
 36.1516  8482.27  90.9204
 36.1936  8502.49  90.8779
 36.2356  8453.23  91.2534
 36.2776  8392.9  90.4146
 36.3196  8486.84  90.5815
 36.3616  8552.32  91.0586
 36.4036  8451.56  90.5824
 36.4456  8436.07  90.7093
 36.4876  8315.82  90.0024
 36.5296  8351.14  90.2341
 36.5716  8338.37  90.9448
 36.6136  8517.12  90.675
 36.6556  8565.78  91.1471
 36.6976  8399.6  90.7559
 36.7396  8332.9  90.2979
 36.7816  8440.05  91.0815
 36.8236  8375  90.6484
 36.8656  8376.12  90.7338
 36.9076  8356.19  90.4936
 36.9496  8264.8  89.9908
 36.9916  8324.35  89.9374
 37.0336  8435.53  90.8632
 37.0756  8388.22  90.3941
 37.1176  8263.11  89.9843
 37.1596  8236.73  89.8376
 37.2016  8180.89  89.7713
 37.2436  8424.55  90.4059
 37.2856  8275.93  89.8601
 37.3276  8404.17  89.8958
 37.3696  8248.53  89.9471
 37.4116  8358.56  90.4556
 37.4536  8182.86  89.2123
 37.4956  8318.96  90.1572
 37.5376  8274.37  91.4676
 37.5796  8140.28  90.6887
 37.6216  8052.96  88.4719
 37.6636  8109.59  88.6754
 37.7056  8175.37  89.2375
 37.7476  8108.6  88.4005
 37.7896  8205.27  89.4191
 37.8316  7960.7  88.2619
 37.8736  8227.75  89.254
 37.9156  8089.55  88.5019
 37.9576  8126.4  88.5856
 37.9996  8038.45  87.8171
 38.0416  8145.69  89.2315
 38.0836  8276.61  89.8439
 38.1256  8050.04  88.5554
 38.1676  7842.26  87.5527
 38.2096  8098.55  88.5896
 38.2516  8164.59  89.1534
 38.2936  8169.02  88.9755
 38.3356  8248.48  89.3313
 38.3776  8160.85  89.1295
 38.4196  8060.2  88.4347
 38.4616  8109.53  88.9241
 38.5036  8163.57  89.0624
 38.5456  8014.18  89.094
 38.5876  8000.04  89.2123
 38.6296  8053.34  88.3005
 38.6716  8038.14  88.0125
 38.7136  7940.49  87.4182
 38.7556  7935.33  87.8921
 38.7976  8033.09  88.3709
 38.8396  7974.18  88.3022
 38.8816  7969.41  88.2423
 38.9236  7977.33  88.1082
 38.9656  7956.69  87.9051
 39.0076  8013.68  87.627
 39.0496  8069.56  88.4756
 39.0916  8022.92  87.8607
 39.1336  7926.51  87.7496
 39.1756  8010.8  88.2835
 39.2176  7936.4  88.4022
 39.2596  7937.33  88.3246
 39.3016  7950.94  87.9125
 39.3436  7758.5  87.3268
 39.3856  7978.69  88.0022
 39.4276  7894.67  88.0366
 39.4696  7873.11  87.5397
 39.5116  7969.31  88.5826
 39.5536  8142.78  89.9883
 39.5956  8025.2  88.4266
 39.6376  8076.33  88.7201
 39.6796  7938.63  87.6918
 39.7216  8014.34  88.2165
 39.7636  7979.23  88.5878
 39.8056  8038.74  88.6976
 39.8476  8009.93  88.7967
 39.8896  7917.82  87.9114
 39.9316  7910.82  88.1256
 39.9736  8099.87  88.8167
 40.0156  7994.12  87.9798
 40.0576  8009.49  88.4225
 40.0996  8172.83  88.4896
 40.1416  8108.31  88.9503
 40.1836  8032.3  88.4191
 40.2256  8116.81  88.9286
 40.2676  8039.86  88.6146
 40.3096  8050.45  88.5848
 40.3516  8087.11  88.9042
 40.3936  8079.25  88.4208
 40.4356  8094.98  88.7003
 40.4776  8213.54  89.762
 40.5196  8037.61  88.8439
 40.5616  8063.23  88.7075
 40.6036  8000.24  88.6208
 40.6456  8104.68  88.8022
 40.6876  8105.46  88.7889
 40.7296  8080.36  88.6778
 40.7716  8083.86  88.9415
 40.8136  8009.1  88.4709
 40.8556  8010.18  88.6083
 40.8976  8078.02  88.9075
 40.9396  7992.52  88.7837
 40.9816  8127.24  88.8072
 41.0236  8131.5  88.6139
 41.0656  8125.69  89.1231
 41.1076  8045.68  88.4531
 41.1496  8161.98  88.9946
 41.1916  8033.2  88.6133
 41.2336  7988.54  88.3603
 41.2756  7986.6  87.9496
 41.3176  7980.29  88.5342
 41.3596  8037.41  88.5826
 41.4016  8045.98  88.891
 41.4436  8026.81  88.5691
 41.4856  8063.27  88.9298
 41.5276  8091.78  89.1097
 41.5696  8065.35  88.5882
 41.6116  7828.49  87.6741
 41.6536  7956.8  88.248
 41.6956  7966.28  88.3578
 41.7376  7991.26  88.5213
 41.7796  8030.46  88.6216
 41.8216  8105.25  89.271
 41.8636  7992.42  88.5876
 41.9056  7888.43  87.7976
 41.9476  8021.12  88.6602
 41.9896  7979.13  88.1964
 42.0316  7969.46  88.2294
 42.0736  7983.42  88.4185
 42.1156  7929.74  87.9579
 42.1576  7941.56  88.1001
 42.1996  8024.75  88.7234
 42.2416  8047.48  88.4263
 42.2836  7872.22  87.5761
 42.3256  7958.14  88.1651
 42.3676  8072.8  88.6007
 42.4096  7999.12  88.1579
 42.4516  7847.74  87.4082
 42.4936  7862.99  87.5632
 42.5356  7972.93  88.3037
 42.5776  7970.16  88.2305
 42.6196  8085.57  88.9183
 42.6616  7889.72  88.0111
 42.7036  7908.17  87.495
 42.7456  7843.3  87.49
 42.7876  7879.63  87.8015
 42.8296  7975.04  88.1531
 42.8716  7816.66  87.4368
 42.9136  7849.09  87.4063
 42.9556  7835.79  87.461
 42.9976  7933.22  87.9682
 43.0396  7908.05  87.5574
 43.0816  7742.69  87.0091
 43.1236  7778.47  87.2762
 43.1656  7807.68  87.2707
 43.2076  7806.89  87.3659
 43.2496  7736.49  86.7853
 43.2916  7804.98  87.5398
 43.3336  7913.57  87.9818
 43.3756  7835.17  87.2931
 43.4176  7740.95  86.8523
 43.4596  7659.82  86.2494
 43.5016  7689.1  86.8234
 43.5436  7759.53  87.1146
 43.5856  7666  86.6208
 43.6276  7685.07  86.6214
 43.6696  7733.84  87.1563
 43.7116  7818.83  87.1274
 43.7536  7854.35  87.812
 43.7956  7558.36  87.3247
 43.8376  7704.01  86.7047
 43.8796  7766.27  87.1388
 43.9216  7720.93  86.7976
 43.9636  7619.85  86.3468
 44.0056  7691.15  86.9672
 44.0476  7601.16  86.1014
 44.0896  7600.36  86.4358
 44.1316  7745.08  86.7737
 44.1736  7554.09  85.8187
 44.2156  7760.83  86.8384
 44.2576  7641.84  86.4956
 44.2996  7644.81  86.4818
 44.3416  7628.54  86.1566
 44.3836  7472.42  85.5969
 44.4256  7524.02  85.5319
 44.4676  7519.11  85.6603
 44.5096  7526.54  85.8459
 44.5516  7570.49  86.0565
 44.5936  7434.82  85.242
 44.6356  7605.77  85.9528
 44.6776  7518.37  85.6954
 44.7196  7569.18  86.3784
 44.7616  7635.96  88.0786
 44.8036  7449.31  85.4248
 44.8456  7489.5  85.8754
 44.8876  7491.35  85.7331
 44.9296  7570.71  85.6429
 44.9716  7518.47  85.7638
 45.0136  7586.03  86.0908
 45.0556  7508.72  85.6148
 45.0976  7485.03  85.6591
 45.1396  7176.72  83.6382
 45.1816  7506.62  85.4751
 45.2236  7547.23  85.6034
 45.2656  7342.43  84.9341
 45.3076  7459.37  85.3904
 45.3496  7472.74  85.7749
 45.3916  7447.93  85.8925
 45.4336  7372.85  85.2989
 45.4756  7392.45  85.2772
 45.5176  7425.57  85.0776
 45.5596  7574.08  86.0524
 45.6016  7440.2  85.706
 45.6436  7429.67  84.8272
 45.6856  7316.1  84.8282
 45.7276  7341.68  86.2854
 45.7696  7479.67  86.7592
 45.8116  7504.1  86.3175
 45.8536  7345.78  85.3017
 45.8956  7405.6  85.0058
 45.9376  7461.24  84.7888
 45.9796  7425.23  85.2659
 46.0216  7572.18  86.4522
 46.0636  7370.13  84.4414
 46.1056  7425.56  84.7445
 46.1476  7326.3  84.7652
 46.1896  7431.88  85.5254
 46.2316  7386.49  85.1298
 46.2736  7368.71  85.3967
 46.3156  7366.74  84.9708
 46.3576  7383.14  85.271
 46.3996  7324.12  85.0842
 46.4416  7358.12  84.8585
 46.4836  7222.72  84.4313
 46.5256  7328.97  84.9868
 46.5676  7276.21  84.7916
 46.6096  7295.82  84.8475
 46.6516  7353.35  84.2166
 46.6936  7328.76  84.5671
 46.7356  7519.87  85.7684
 46.7776  7219.63  84.8858
 46.8196  7305.53  84.9828
 46.8616  7181.97  84.2127
 46.9036  7135.69  83.5963
 46.9456  7209.15  83.6786
 46.9876  7212.34  83.7721
 47.0296  7173.35  84.2308
 47.0716  7144.39  83.8808
 47.1136  7208.83  83.9364
 47.1556  7213.63  83.833
 47.1976  7247.79  84.1043
 47.2396  7153.49  83.9613
 47.2816  7151.77  83.6521
 47.3236  7125.2  83.8681
 47.3656  7206.8  84.2709
 47.4076  7072.93  83.2964
 47.4496  7151.24  83.8413
 47.4916  7098.62  83.7268
 47.5336  7209.04  84.1913
 47.5756  7203.92  84.277
 47.6176  7149.66  83.8618
 47.6596  7061.54  83.0532
 47.7016  7216.72  83.7842
 47.7436  7166  83.8195
 47.7856  7186.49  83.9707
 47.8276  7090.68  83.4526
 47.8696  7174.14  84.0361
 47.9116  7204.43  83.9214
 47.9536  7119.36  83.3711
 47.9956  7148.76  84.2463
 48.0376  7045.02  83.4059
 48.0796  7139.2  84.0945
 48.1216  7286.01  84.7601
 48.1636  7259.33  84.1842
 48.2056  7100.16  83.5222
 48.2476  7172.83  84.2561
 48.2896  7077.24  83.6056
 48.3316  7062.19  83.4531
 48.3736  7046.54  83.3865
 48.4156  6978.42  82.8404
 48.4576  6958.98  83.011
 48.4996  7170.98  83.719
 48.5416  7103.75  83.6501
 48.5836  7103.54  83.3334
 48.6256  7075.97  83.3747
 48.6676  6940.38  83.0788
 48.7096  7128.07  83.4726
 48.7516  7130.71  83.6265
 48.7936  7024.04  83.0629
 48.8356  6989.24  82.9021
 48.8776  7002.8  83.5454
 48.9196  7146.75  83.771
 48.9616  7000.2  83.2934
 49.0036  6991.66  83.5822
 49.0456  6894.17  82.9722
 49.0876  7045.73  83.4334
 49.1296  6859.88  82.4765
 49.1716  6852.78  82.3109
 49.2136  6984.58  83.0251
 49.2556  6884.7  82.5603
 49.2976  6953.9  82.9445
 49.3396  6889.95  82.6163
 49.3816  6975.46  82.5531
 49.4236  6931.88  82.7136
 49.4656  6866.47  82.3114
 49.5076  6953.74  82.6206
 49.5496  6820.51  81.8854
 49.5916  6888.52  82.2122
 49.6336  6916.44  82.5754
 49.6756  7002.05  83.3239
 49.7176  6975.82  83.1077
 49.7596  6847.76  82.1064
 49.8016  7041.9  83.1901
 49.8436  6847.2  82.3165
 49.8856  6859.54  82.4016
 49.9276  6787.59  82.0648
 49.9696  6892.9  82.6801
 50.0116  6856.33  82.5977
 50.0536  6815.94  82.2991
 50.0956  6814.59  82.3553
 50.1376  6869.8  82.4043
 50.1796  6749.09  81.9342
 50.2216  6798.83  82.2277
 50.2636  6944.74  82.7266
 50.3056  6787.67  81.9562
 50.3476  6764.49  81.8313
 50.3896  6789.43  81.9585
 50.4316  6959.35  82.8155
 50.4736  6693.98  81.4352
 50.5156  6764.87  81.8549
 50.5576  6844.78  82.0976
 50.5996  6842.99  82.4869
 50.6416  6764.37  81.8227
 50.6836  6727.88  81.6523
 50.7256  6747.79  81.703
 50.7676  6797.8  82.3173
 50.8096  6783.56  81.7832
 50.8516  6772.94  82.1306
 50.8936  6721.3  81.6093
 50.9356  6810.41  82.2427
 50.9776  6799.13  82.3284
 51.0196  6725.22  82.0096
 51.0616  6711.76  81.2547
 51.1036  6793.05  82.0979
 51.1456  6776.15  81.9102
 51.1876  6742.23  81.0564
 51.2296  6693.29  81.4985
 51.2716  6671.65  80.966
 51.3136  6606.72  81.0204
 51.3556  6597.28  80.594
 51.3976  6718.22  81.4811
 51.4396  6596.37  81.0429
 51.4816  6586.95  80.8403
 51.5236  6778.56  82.1012
 51.5656  6571.67  80.4369
 51.6076  6680.44  81.1762
 51.6496  6713.03  81.572
 51.6916  6550.54  80.9242
 51.7336  6600.99  81.3309
 51.7756  6637.07  81.2525
 51.8176  6644.83  81.4042
 51.8596  6585.35  81.0514
 51.9016  6637.39  80.9846
 51.9436  6578.16  82.0445
 51.9856  6499.26  81.9982
 52.0276  6619.88  81.2762
 52.0696  6633.46  81.4222
 52.1116  6635.53  81.5527
 52.1536  6591.42  81.1654
 52.1956  6649.33  81.0009
 52.2376  6616.89  80.9651
 52.2796  6528.34  80.2313
 52.3216  6419.81  80.2464
 52.3636  6604.07  80.9675
 52.4056  6563.99  80.5779
 52.4476  6481.44  80.4322
 52.4896  6528.23  80.7738
 52.5316  6492.9  80.5933
 52.5736  6607.72  81.0399
 52.6156  6440.77  80.3738
 52.6576  6626.81  80.9791
 52.6996  6414.63  80.6264
 52.7416  6509.32  81.0758
 52.7836  6568  81.3155
 52.8256  6526.83  80.2959
 52.8676  6275.56  79.3025
 52.9096  6421.52  80.2987
 52.9516  6537.12  81.3874
 52.9936  6405.72  80.9438
 53.0356  6397.75  79.9063
 53.0776  6414.91  80.2692
 53.1196  6299.08  79.6693
 53.1616  6396.8  80.3323
 53.2036  6218.12  79.1604
 53.2456  6376.8  80.2596
 53.2876  6300.25  79.4887
 53.3296  6384.88  80.3449
 53.3716  6400.47  80.1915
 53.4136  6409.67  80.3979
 53.4556  6310.36  79.7995
 53.4976  6345.36  79.8701
 53.5396  6353.16  80.3087
 53.5816  6291.3  79.5556
 53.6236  6305.35  79.9161
 53.6656  6411.4  80.2819
 53.7076  6300.63  79.5477
 53.7496  6275.82  79.51
 53.7916  6377.13  80.2645
 53.8336  6231.99  79.2487
 53.8756  6143.2  79.2296
 53.9176  6283.73  79.4808
 53.9596  6437.38  81.2276
 54.0016  6376.19  80.167
 54.0436  6333.73  80.1138
 54.0856  6348.53  79.6372
 54.1276  6290.49  79.4733
 54.1696  6370.8  80.1489
 54.2116  6392.35  80.0398
 54.2536  6310.1  79.3428
 54.2956  6356.6  79.619
 54.3376  6281.35  79.6841
 54.3796  6312.92  79.786
 54.4216  6402.59  80.3946
 54.4636  6321.91  79.9
 54.5056  6366.97  79.9562
 54.5476  6339.43  80.1141
 54.5896  6360.68  80.0849
 54.6316  6403.38  80.2071
 54.6736  6374.78  80.1006
 54.7156  6265.96  79.4381
 54.7576  6180.32  78.8874
 54.7996  6285.96  79.6965
 54.8416  6372.12  80.1984
 54.8836  6254.71  79.6591
 54.9256  6340.81  79.9474
 54.9676  6248.18  79.2307
 55.0096  6281.03  79.5044
 55.0516  6291.71  79.8049
 55.0936  6346  79.7729
 55.1356  6114.44  78.3488
 55.1776  6213.54  79.2461
 55.2196  6393.2  80.2233
 55.2616  6261  79.5435
 55.3036  6263.14  79.7165
 55.3456  6249.17  79.7829
 55.3876  6235.09  79.4329
 55.4296  6316.38  79.9638
 55.4716  6218.82  79.3422
 55.5136  6205.14  79.009
 55.5556  6204.09  79.0757
 55.5976  6242.4  79.3691
 55.6396  6224.54  79.2101
 55.6816  6296.3  79.5453
 55.7236  6305.29  79.6416
 55.7656  6328.8  79.5456
 55.8076  6323.07  79.4949
 55.8496  6170.64  78.8443
 55.8916  6258.81  79.6067
 55.9336  6190.3  78.9899
 55.9756  6249.44  79.259
 56.0176  6225.56  79.2632
 56.0596  6241.67  79.3444
 56.1016  6277.58  79.5839
 56.1436  6115.17  78.807
 56.1856  6252.22  79.4288
 56.2276  6153.08  78.8466
 56.2696  6192.97  79.1063
 56.3116  6173.86  79.358
 56.3536  6187.74  79.109
 56.3956  6209.84  79.2411
 56.4376  6209.97  79.2724
 56.4796  6300.54  79.6525
 56.5216  6218.17  79.4987
 56.5636  6283.9  79.5111
 56.6056  6235.6  79.4332
 56.6476  6237.98  79.0783
 56.6896  6247.54  79.5893
 56.7316  6177.79  79.0569
 56.7736  6278.9  79.6922
 56.8156  6231.58  79.3727
 56.8576  6154.54  78.842
 56.8996  6106.81  78.4724
 56.9416  6161.36  79.1187
 56.9836  6185.59  78.7901
 57.0256  6160.74  78.9547
 57.0676  6187.13  79.2388
 57.1096  6220.42  79.2456
 57.1516  6134.92  78.7704
 57.1936  6203.13  78.9474
 57.2356  6203.64  79.2723
 57.2776  6268.29  79.6379
 57.3196  6152.94  79.058
 57.3616  6226.64  79.2363
 57.4036  6107.47  78.5339
 57.4456  6139.3  78.703
 57.4876  6133.62  78.5262
 57.5296  6047.88  78.3142
 57.5716  6114.22  78.727
 57.6136  6180.18  78.975
 57.6556  6156.27  78.9605
 57.6976  6278.31  79.4693
 57.7396  6055.1  78.5065
 57.7816  6052.07  78.8424
 57.8236  6177.72  79.45
 57.8656  6115.56  78.7078
 57.9076  6154.15  78.9858
 57.9496  6100.35  78.9878
 57.9916  6126.92  78.6697
 58.0336  6143.38  79.0506
 58.0756  6125.64  78.5692
 58.1176  6175.6  78.8888
 58.1596  6245.32  79.9055
 58.2016  6252.36  79.1753
 58.2436  6161.87  79.0124
 58.2856  6159.57  78.9183
 58.3276  6150.34  79.2309
 58.3696  6151.1  78.9796
 58.4116  6238.28  79.3958
 58.4536  6140.56  78.6608
 58.4956  6195.2  79.1989
 58.5376  6183.8  78.8121
 58.5796  6110.07  78.6523
 58.6216  6202.08  79.0416
 58.6636  6254.93  79.6024
 58.7056  6094.86  78.4357
 58.7476  6021.14  78.4038
 58.7896  6110.36  78.625
 58.8316  6264.72  79.7161
 58.8736  6196.35  79.178
 58.9156  6085.92  78.513
 58.9576  6205.73  79.6063
 58.9996  6272.45  79.266
 59.0416  6395.86  80.4251
 59.0836  6259.07  79.4772
 59.1256  6163.14  79.5659
 59.1676  6179.1  79.9759
 59.2096  6199.78  79.4309
 59.2516  6300.37  79.6448
 59.2936  6129.43  78.8875
 59.3356  6262.3  79.6134
 59.3776  6217.6  79.5002
 59.4196  6255.04  79.6731
 59.4616  6200.64  79.1849
 59.5036  6160.86  78.9663
 59.5456  6366.47  79.9582
 59.5876  6365.08  80.1457
 59.6296  6064.81  78.3019
 59.6716  6193.19  79.1849
 59.7136  6225.69  79.3805
 59.7556  6169.54  79.1597
 59.7976  6232.18  79.2986
 59.8396  6251.09  79.3112
 59.8816  6137.09  79.1341
 59.9236  6316.85  79.9207
 59.9656  6284.27  79.9794
 60.0076  5941.41  77.1303
 60.0496  6166.55  79.0857
 60.0916  6312.79  79.4246
 60.1336  6114.2  79.2796
 60.1756  6266.96  81.4705
 60.1996  0.0000000E+00  0.0000000E+00