File: docs/examples/opeando_xrd/IS17_D/Data/IS17_D/17_Da_f00094.xye
# /beamlines/bl04/projects/cycle2025-II/20250340211-lsimonelli/DATA/IS17_D/17_Da_f00094.xye : mythproc.py merge -s 0.006 -l 0.5 -f /beamlines/bl04/inhouse/ff/FlatField/ff_20Nov2024rod8mm60s_17keV.raw -b True -c true -o xye /beamlines/bl04/projects/cycle2025-II/20250340211-lsimonelli/DATA/IS17_D/17_Da_00094.dat
# IsMon = [6776911, 6775111, 6775817]  IsPos = [-1.4999, -2.4884, -3.4988]
# Wave = 0.4962  CalPath /beamlines/bl04/projects/cycle2025-II/20250340211-lsimonelli/DATA/Align/Si_Pos1_25keV_f00001.cal
# Date = 2025-09-24_19:45:51 Dt = 4.8000  Bin = 0.0060  <imon> = 6775946 +/- 741 (Min/Max) 6775111 / 6776911
# icurr 251.2186  mocoIn 1.7137E-05  mocoOut 0.8035  i15 7.09218e+06  imon 6.77595e+06  i7 6.3333  iEMpd_timer 4.8000  iEMpd_1 3.4266E-08  iEMpd_2 7.7661E-08  iEMpd_3 1.6290E-08  iEMpd_4 4.6097E-08  iEMhp_timer 4.8000  iEMhp_1 4.9071E-06  iEMhp_2 -2.5870E-08  iEMhp_3 -2.3734E-08  iEMhp_4 -2.0331E-08
#      9776
 1.5856  40505.3  206.647
 1.6276  47787.7  220.604
 1.6696  53967.4  233.607
 1.7116  63088.6  253.073
 1.7536  72360  269.876
 1.7956  76619.3  278.4
 1.8376  72598.6  271.426
 1.8796  61484  247.95
 1.9216  49854  224.16
 1.9636  41528.4  203.75
 2.0056  37374.6  192.542
 2.0476  34609.9  187.315
 2.0896  33513.8  183.244
 2.1316  32146.9  178.605
 2.1736  30845.5  176.341
 2.2156  31767.9  177.522
 2.2576  30391.9  174.257
 2.2996  29048.4  170.987
 2.3416  29574.2  171.148
 2.3836  28777.7  168.935
 2.4256  28165.4  167.672
 2.4676  27664.9  165.94
 2.5096  27321.6  164.961
 2.5516  26714.9  166.91
 2.5936  26647.7  163.334
 2.6356  26372.8  163.175
 2.6776  26044.9  161.06
 2.7196  25901.9  161.128
 2.7616  25953  161.066
 2.8036  25449.4  159.663
 2.8456  25159.7  159.366
 2.8876  24903.7  158.433
 2.9296  24492.8  157.24
 2.9716  24410.5  156.471
 3.0136  23879.1  154.825
 3.0556  24097.8  155.924
 3.0976  24022.4  154.624
 3.1396  23915  154.999
 3.1816  23470.7  153.477
 3.2236  23431.7  153.349
 3.2656  23491.7  152.592
 3.3076  23274.3  153.325
 3.3496  23695.7  153.651
 3.3916  23924.1  154.21
 3.4336  24291.8  155.968
 3.4756  24697.1  157.187
 3.5176  25693  160.125
 3.5596  25502.2  161.958
 3.6016  25730.5  160.294
 3.6436  24911.1  158.828
 3.6856  24453.1  155.655
 3.7276  23468.8  153.578
 3.7696  23299.9  153.218
 3.8116  22956.6  151.972
 3.8536  22919.1  151.779
 3.8956  22945  151.692
 3.9376  22781.1  151.402
 3.9796  22716.5  150.698
 4.0216  22873.9  150.259
 4.0636  22775.2  151.398
 4.1056  22952.2  151.633
 4.1476  22850.4  151.605
 4.1896  23301.6  152.956
 4.2316  23447.2  153.259
 4.2736  23606.7  153.565
 4.3156  24098.4  155.389
 4.3576  24692.8  157.221
 4.3996  25023  158.528
 4.4416  25525.3  159.694
 4.4836  25949.9  161.17
 4.5256  26455.9  163.34
 4.5676  26534.2  163.841
 4.6096  27004.9  163.941
 4.6516  27459  165.024
 4.6936  27433.9  165.763
 4.7356  27557.6  165.964
 4.7776  27587.3  165.888
 4.8196  27314.3  165.704
 4.8616  26932.1  164.029
 4.9036  26640.6  162.881
 4.9456  26640.9  163.531
 4.9876  25901.1  161.148
 5.0296  26385.7  162.464
 5.0716  26277  162.913
 5.1136  26237.1  162.492
 5.1556  26697.1  163.38
 5.1976  26850.1  163.835
 5.2396  27186.1  164.557
 5.2816  27180.5  165.002
 5.3236  27165.7  164.665
 5.3656  26935.1  164.884
 5.4076  26564.9  163.903
 5.4496  26789.6  164.08
 5.4916  26865.8  164.065
 5.5336  26921.5  164.246
 5.5756  26456.7  162.844
 5.6176  27020.1  164.006
 5.6596  26990.8  164.893
 5.7016  27219.7  164.854
 5.7436  27254.3  165.229
 5.7856  27260.8  165.306
 5.8276  27609.9  166.091
 5.8696  27820.6  166.893
 5.9116  27888  167.699
 5.9536  27960.8  167.666
 5.9956  28271.6  167.956
 6.0376  28338.2  168.799
 6.0796  28358.4  168.692
 6.1216  28521.4  169.383
 6.1636  28797  169.25
 6.2056  28786  169.893
 6.2476  28966.5  170.295
 6.2896  29091.7  170.341
 6.3316  28995.4  170.23
 6.3736  29021.3  170.205
 6.4156  29137.4  170.433
 6.4576  29384.2  170.766
 6.4996  29519  171.641
 6.5416  29475.9  171.651
 6.5836  29612.4  172.284
 6.6256  29555.7  171.673
 6.6676  30163.6  173
 6.7096  29955.3  173.249
 6.7516  30177.6  173.551
 6.7936  30456.2  173.776
 6.8356  30370.4  173.609
 6.8776  30915.5  175.968
 6.9196  30917.6  176.37
 6.9616  31354.1  177.059
 7.0036  31686.2  177.641
 7.0456  31671.7  176.897
 7.0876  31597.2  178.375
 7.1296  31583.4  177.473
 7.1716  31611.5  177.087
 7.2136  31291.1  175.977
 7.2556  31587  176.967
 7.2976  31631.5  177.589
 7.3396  31518.2  177.484
 7.3816  31377.1  177.299
 7.4236  31817.3  177.828
 7.4656  32050  177.969
 7.5076  32187  178.479
 7.5496  32098.5  178.773
 7.5916  32100.6  178.804
 7.6336  32457.4  179.695
 7.6756  32472.7  179.589
 7.7176  32910.6  181.104
 7.7596  32971.6  182.514
 7.8016  33197.9  185.309
 7.8436  33676.8  183.339
 7.8856  33957.6  183.717
 7.9276  34634.6  185.93
 7.9696  34602.7  186.158
 8.0116  35456.8  186.975
 8.0536  35677.2  187.818
 8.0956  35759.1  189.208
 8.1376  36301.4  190.105
 8.1796  36457.2  191.056
 8.2216  37400.4  192.245
 8.2636  37162.4  191.878
 8.3056  37369.7  193.187
 8.3476  37848.9  193.747
 8.3896  37428.2  192.75
 8.4316  37566.8  193.271
 8.4736  37754.7  193.221
 8.5156  37268  192.246
 8.5576  37422.5  193.625
 8.5996  37026.4  191.469
 8.6416  37141.2  193.027
 8.6836  36796.7  191.963
 8.7256  37334.5  192.806
 8.7676  36543.1  193.619
 8.8096  36692.1  191.319
 8.8516  36558.9  190.592
 8.8936  36089.5  189.266
 8.9356  35968.5  189.279
 8.9776  36071.3  189.644
 9.0196  35958.5  189.026
 9.0616  36117.8  188.908
 9.1036  35491  188.461
 9.1456  35604.1  188.117
 9.1876  35690.7  188.289
 9.2296  35719.8  187.785
 9.2716  35167.2  186.382
 9.3136  35183.1  186.406
 9.3556  35706.7  187.769
 9.3976  34034.6  183.842
 9.4396  34452.3  184.867
 9.4816  34074.9  183.703
 9.5236  33926.1  183.219
 9.5656  33992.4  183.719
 9.6076  33701.8  183.462
 9.6496  33475  182.768
 9.6916  33573.8  183.012
 9.7336  33599.6  182.857
 9.7756  33682.7  184.349
 9.8176  32875  181.62
 9.8596  32941.1  180.254
 9.9016  32189.5  178.179
 9.9436  32194.7  178.105
 9.9856  31616.3  176.731
 10.0276  31590.7  177.754
 10.0696  31518  176.595
 10.1116  30639.7  174.374
 10.1536  30492.7  174.123
 10.1956  29916.5  172.073
 10.2376  29874.5  171.457
 10.2796  30043  172.07
 10.3216  29618.9  171.114
 10.3636  29647.4  171.229
 10.4056  29333  170.725
 10.4476  29251.4  170.107
 10.4896  29376.2  169.925
 10.5316  28947.8  169.383
 10.5736  28892.4  169.634
 10.6156  28545.6  168.376
 10.6576  28699.1  167.401
 10.6996  28301.7  166.91
 10.7416  27946.9  166.092
 10.7836  28012.7  166.978
 10.8256  27412.4  165.604
 10.8676  27738.1  166.121
 10.9096  27261.3  164.724
 10.9516  27272.3  163.692
 10.9936  27005.4  163.08
 11.0356  26872.7  163.315
 11.0776  26946.9  162.858
 11.1196  26553.2  162.4
 11.1616  26117.8  160.763
 11.2036  26272.3  161.088
 11.2456  26318.1  161.938
 11.2876  26179.8  161.237
 11.3296  25867.2  160.171
 11.3716  26312.3  161.236
 11.4136  26263.9  161.984
 11.4556  26237.9  161.572
 11.4976  26840.3  162.382
 11.5396  26949.2  162.88
 11.5816  26987.5  163.464
 11.6236  26599.8  162.509
 11.6656  26031.8  159.909
 11.7076  25577.2  159.351
 11.7496  25256.5  162.274
 11.7916  25156.8  157.302
 11.8336  24914.2  157.423
 11.8756  24794.5  156.579
 11.9176  24920.2  156.633
 11.9596  24339.2  154.982
 12.0016  24593.3  156.583
 12.0436  24379.2  155.316
 12.0856  24046.2  154.783
 12.1276  24115.2  154.917
 12.1696  24173  154.244
 12.2116  24336.9  154.766
 12.2536  24143.2  154.976
 12.2956  24037.4  153.973
 12.3376  23852.7  153.581
 12.3796  23971.1  154.428
 12.4216  24231  154.48
 12.4636  23820.2  154.07
 12.5056  23939.4  153.738
 12.5476  24111  153.814
 12.5896  24113.9  154.458
 12.6316  23675.8  153.197
 12.6736  23605.6  153.454
 12.7156  23551.7  153.138
 12.7576  23844.2  154.338
 12.7996  23887.9  153.125
 12.8416  23600  153.243
 12.8836  24127.1  154.777
 12.9256  24506.9  154.998
 12.9676  24550.8  155.566
 13.0096  24168.7  155.435
 13.0516  24531  155.635
 13.0936  24233.6  155.086
 13.1356  24976.9  156.429
 13.1776  24334.1  155.387
 13.2196  24454.3  155.425
 13.2616  24570.6  156.109
 13.3036  24569.4  156.078
 13.3456  24450.3  156.056
 13.3876  24453.5  155.352
 13.4296  24206.9  154.72
 13.4716  24460.5  155.141
 13.5136  24358.2  154.973
 13.5556  24389.8  155.676
 13.5976  24643.7  156.623
 13.6396  24620.7  155.926
 13.6816  24326.3  155.481
 13.7236  24965.6  157.161
 13.7656  24198  155.25
 13.8076  24475.2  154.925
 13.8496  24141.4  154.459
 13.8916  24186.6  155.609
 13.9336  24102.6  154.574
 13.9756  23983.4  153.54
 14.0176  23964.1  154.155
 14.0596  23904.3  153.927
 14.1016  23633.7  153.442
 14.1436  23391  151.787
 14.1856  23259.1  151.659
 14.2276  22891.5  150.934
 14.2696  23266.4  152.006
 14.3116  22875.8  150.632
 14.3536  22683.1  150.17
 14.3956  22500.2  149.298
 14.4376  22694.6  149.714
 14.4796  22466.2  148.949
 14.5216  22312.7  149.237
 14.5636  22249.3  148.592
 14.6056  22264.5  148.219
 14.6476  22280.1  147.504
 14.6896  21767.6  146.334
 14.7316  21562.5  146.673
 14.7736  21409.8  145.308
 14.8156  21152.2  144.462
 14.8576  21051  143.966
 14.8996  20613.6  143.661
 14.9416  20453.5  143.1
 14.9836  20540.8  143.372
 15.0256  20435  141.932
 15.0676  20343.3  141.928
 15.1096  20582.8  142.495
 15.1516  19629.2  139.711
 15.1936  19697.7  139.382
 15.2356  19561.1  139.177
 15.2776  19455  138.386
 15.3196  19117.6  138.178
 15.3616  19122  137.949
 15.4036  19130.9  137.845
 15.4456  19397.8  138.444
 15.4876  18864.3  136.21
 15.5296  18854.3  136.462
 15.5716  18432.7  134.528
 15.6136  18422.6  134.815
 15.6556  18533.6  134.462
 15.6976  18195.2  133.522
 15.7396  18164  133.794
 15.7816  18129.5  133.178
 15.8236  17911.1  133.071
 15.8656  17814.2  132.503
 15.9076  17555.3  131.363
 15.9496  17559.2  134.147
 15.9916  17609.7  134.791
 16.0336  17187.7  130.068
 16.0756  17399  131.177
 16.1176  17203.9  130.509
 16.1596  16932  130.646
 16.2016  17086.3  129.994
 16.2436  16845.4  129.454
 16.2856  16817.9  128.891
 16.3276  16784.7  129.179
 16.3696  16762.9  128.915
 16.4116  16448.6  128.162
 16.4536  16572.3  128.427
 16.4956  16630.6  128.388
 16.5376  16268  127.169
 16.5796  16321.5  126.744
 16.6216  16306.5  126.986
 16.6636  16405.7  127.524
 16.7056  16277  126.886
 16.7476  16518.9  127.361
 16.7896  16189.3  126.829
 16.8316  16307.6  127.258
 16.8736  16205.7  127.112
 16.9156  16505.3  128.619
 16.9576  16087.8  127.785
 16.9996  16195.2  128.698
 17.0416  16251.5  127.278
 17.0836  16181.9  126.76
 17.1256  15927.3  125.772
 17.1676  15924.1  125.751
 17.2096  15758.3  124.97
 17.2516  15719.1  124.597
 17.2936  15842.5  125.417
 17.3356  15423.4  123.741
 17.3776  15455.1  124.061
 17.4196  15498.9  123.942
 17.4616  15462.5  123.707
 17.5036  15210.4  123.061
 17.5456  15192.2  123.625
 17.5876  15054.9  122.116
 17.6296  15262.3  122.765
 17.6716  14980.3  122.204
 17.7136  14860.8  121.852
 17.7556  14827.7  122.007
 17.7976  15008.7  122.496
 17.8396  14661.4  120.57
 17.8816  14802  121.689
 17.9236  14657  120.903
 17.9656  14754.3  121.846
 18.0076  14799.2  121.608
 18.0496  14955.1  121.378
 18.0916  14726.2  120.983
 18.1336  14723.5  121.071
 18.1756  14949.2  121.521
 18.2176  14644.8  120.506
 18.2596  14659.9  120.304
 18.3016  14855.9  121.356
 18.3436  14893.9  121.516
 18.3856  14555.5  120.26
 18.4276  14619.1  120.195
 18.4696  14515.7  119.871
 18.5116  14636.8  120.661
 18.5536  14646.9  121.057
 18.5956  14363.9  119.437
 18.6376  14270.3  119.457
 18.6796  14351.5  119.115
 18.7216  14447.5  120.004
 18.7636  14093.9  118.503
 18.8056  14365.6  119.593
 18.8476  14121.7  119.198
 18.8896  14309.3  119.319
 18.9316  14296.1  119.251
 18.9736  14095.8  118.107
 19.0156  14058.4  118.359
 19.0576  14051.3  117.189
 19.0996  14158.1  118.35
 19.1416  14030.8  118.205
 19.1836  13948.6  117.466
 19.2256  13887.5  117.416
 19.2676  14048.6  118.188
 19.3096  14067  118.517
 19.3516  14174  118.915
 19.3936  13901.1  117.672
 19.4356  14003  117.968
 19.4776  13934.2  117.774
 19.5196  13953.8  117.709
 19.5616  13761.8  117.151
 19.6036  13964.6  117.508
 19.6456  14005.1  117.804
 19.6876  14055.5  117.665
 19.7296  13996.8  117.868
 19.7716  13966.3  117.907
 19.8136  14179.9  119.009
 19.8556  14386  119.345
 19.8976  14272  118.941
 19.9396  14178.6  118.127
 19.9816  14374.9  119.184
 20.0236  14526.8  120.031
 20.0656  14750.8  120.949
 20.1076  14392.8  119.935
 20.1496  14344.6  119.747
 20.1916  14067.8  118.095
 20.2336  14047.9  117.951
 20.2756  13903.4  117.77
 20.3176  13644.2  116.413
 20.3596  13718.1  116.708
 20.4016  13669.1  116.303
 20.4436  13599.8  116.56
 20.4856  13268.6  114.923
 20.5276  13318.1  115.599
 20.5696  13402.6  115.422
 20.6116  13239.9  114.995
 20.6536  13332.5  114.903
 20.6956  13229.4  114.587
 20.7376  13291  115.086
 20.7796  13130  114.071
 20.8216  13381.7  114.867
 20.8636  13130.9  114.15
 20.9056  13195.2  114.383
 20.9476  12969.2  113.235
 20.9896  13228.1  114.23
 21.0316  13359.7  114.694
 21.0736  13300.4  114.964
 21.1156  13071.1  114.128
 21.1576  13149.2  114.511
 21.1996  13023.9  113.947
 21.2416  12894.5  113.21
 21.2836  13113.6  114.134
 21.3256  12911.5  113.335
 21.3676  13143.5  113.896
 21.4096  13048  113.791
 21.4516  13009.4  113.504
 21.4936  12726.4  112.508
 21.5356  12953.4  113.455
 21.5776  12968  113.343
 21.6196  12780.3  112.554
 21.6616  12733.1  112.444
 21.7036  12820.5  112.608
 21.7456  12899.6  113.033
 21.7876  12867  112.64
 21.8296  12768.1  112.062
 21.8716  12714.1  112.053
 21.9136  13038.6  113.678
 21.9556  12699.4  111.861
 21.9976  12555  111.247
 22.0396  12656.2  111.943
 22.0816  12683.5  112.603
 22.1236  12766.9  112.425
 22.1656  12729.9  112.383
 22.2076  12843.5  112.366
 22.2496  12738  111.932
 22.2916  12719.4  111.728
 22.3336  12689.8  112.326
 22.3756  12635.6  111.809
 22.4176  12459.9  110.881
 22.4596  12483.3  111.575
 22.5016  12712.9  112.072
 22.5436  12760  112.177
 22.5856  12590.2  111.675
 22.6276  12708.1  112.335
 22.6696  12781.6  113.013
 22.7116  12750.3  112.384
 22.7536  12828.1  112.701
 22.7956  12550.7  110.805
 22.8376  12571.4  111.423
 22.8796  12638.9  111.521
 22.9216  12707.6  112.373
 22.9636  12649.1  111.264
 23.0056  12533.6  110.886
 23.0476  12911.1  113.119
 23.0896  12918.5  112.526
 23.1316  12794  112.424
 23.1736  12622.1  114.617
 23.2156  12858.5  113.024
 23.2576  12685  112.387
 23.2996  12631  111.942
 23.3416  12514  111.934
 23.3836  12522  111.209
 23.4256  12592.7  111.632
 23.4676  12606.2  111.391
 23.5096  12514.7  111.656
 23.5516  12515.7  110.952
 23.5936  12488.5  111.733
 23.6356  12891.8  113.184
 23.6776  12626.7  112.228
 23.7196  12369.3  110.659
 23.7616  12578.5  111.508
 23.8036  12486.3  111.135
 23.8456  12556.8  111.021
 23.8876  12167.4  109.635
 23.9296  12272.5  110.596
 23.9716  12349.7  110.133
 24.0136  12506.8  111.735
 24.0556  12322.4  110.645
 24.0976  12048.8  109.218
 24.1396  12089.9  112.045
 24.1816  12203.1  110.985
 24.2236  12093.2  110.099
 24.2656  12040.3  109.334
 24.3076  11878.5  108.849
 24.3496  12014.8  109.359
 24.3916  11948.7  109.109
 24.4336  11943.4  109.29
 24.4756  11880.4  108.867
 24.5176  11764.6  107.99
 24.5596  11797.4  108.265
 24.6016  11720.3  108.198
 24.6436  11718.8  107.669
 24.6856  11641.8  107.092
 24.7276  11667.7  107.529
 24.7696  11470  106.723
 24.8116  11555.2  107.308
 24.8536  11275.7  105.978
 24.8956  11411.2  106.362
 24.9376  11370.2  106.112
 24.9796  11220.1  105.76
 25.0216  11023.6  104.936
 25.0636  11273.2  105.774
 25.1056  11047.3  105.408
 25.1476  11341.4  108.465
 25.1896  11269.1  106.607
 25.2316  11285.6  105.942
 25.2736  11148.9  104.964
 25.3156  11127.3  104.938
 25.3576  11263.7  106.003
 25.3996  11144.8  105.42
 25.4416  11196.1  105.647
 25.4836  10925.4  104.883
 25.5256  11026.6  104.734
 25.5676  11074.1  104.693
 25.6096  10903.5  104.452
 25.6516  11152.5  105.135
 25.6936  10834  103.931
 25.7356  10992  104.818
 25.7776  10929.9  104.13
 25.8196  10822.1  103.852
 25.8616  11028.6  104.757
 25.9036  11001.2  104.097
 25.9456  11054.4  104.951
 25.9876  10836  103.969
 26.0296  10993.5  104.237
 26.0716  10838.7  103.908
 26.1136  10846.7  103.904
 26.1556  10932.8  103.694
 26.1976  10925.6  104.579
 26.2396  10901.2  103.62
 26.2816  10910.2  104.272
 26.3236  10955.3  104.656
 26.3656  10869  103.96
 26.4076  10979.1  104.7
 26.4496  11448.1  106.397
 26.4916  11011.5  104.353
 26.5336  10855.1  103.928
 26.5756  11067.6  104.806
 26.6176  10713  103.161
 26.6596  10647.5  103.15
 26.7016  10709.6  103.209
 26.7436  10510.7  102.371
 26.7856  10519.2  102.398
 26.8276  10683.5  103.151
 26.8696  10718  103.192
 26.9116  10507.8  102.112
 26.9536  10553.2  102.381
 26.9956  10452.8  101.93
 27.0376  10570  102.701
 27.0796  10534.3  102.278
 27.1216  10450.7  101.936
 27.1636  10349.6  101.611
 27.2056  10416.4  101.819
 27.2476  10363.2  101.559
 27.2896  10412.4  101.912
 27.3316  10242.7  100.794
 27.3736  10338.1  101.531
 27.4156  10194.1  100.66
 27.4576  10294.2  101.384
 27.4996  10292.4  100.966
 27.5416  10248.7  101.074
 27.5836  10302.1  101.156
 27.6256  10586.2  102.699
 27.6676  10536.4  102.487
 27.7096  10187.8  100.645
 27.7516  10219.6  100.952
 27.7936  10136.5  100.705
 27.8356  10281.4  101.041
 27.8776  10128.7  100.332
 27.9196  10084.8  99.9706
 27.9616  10175.1  100.61
 28.0036  10175.8  100.583
 28.0456  10236  101.014
 28.0876  9986.71  99.8651
 28.1296  10046.3  100.004
 28.1716  10060.6  100.078
 28.2136  10127  100.378
 28.2556  9998.68  99.8504
 28.2976  10050.6  100.105
 28.3396  10020  99.7124
 28.3816  9974.37  99.5051
 28.4236  10103.3  100.299
 28.4656  9942.35  99.5354
 28.5076  9962.92  99.2725
 28.5496  9946.43  99.4536
 28.5916  10022.2  99.6394
 28.6336  9829.18  99.0114
 28.6756  9933.41  98.7395
 28.7176  9833.01  98.7864
 28.7596  9774.39  98.384
 28.8016  9925.84  99.1846
 28.8436  9724.57  98.4056
 28.8856  9899.46  99.1452
 28.9276  9646.97  98.116
 28.9696  9782.15  98.4599
 29.0116  9701.69  98.2389
 29.0536  9645.41  98.1545
 29.0956  9736.67  98.3327
 29.1376  9575.04  97.4753
 29.1796  9667.76  97.99
 29.2216  9666.96  97.8321
 29.2636  9696.06  98.0528
 29.3056  9671.21  97.7186
 29.3476  9624.69  98.0047
 29.3896  9810.52  99.035
 29.4316  9788.39  98.2737
 29.4736  9603.54  97.4035
 29.5156  9956.95  99.0878
 29.5576  9680.87  98.4587
 29.5996  9706.21  97.8427
 29.6416  9650.34  97.6801
 29.6836  9729.56  98.0069
 29.7256  9516.48  97.4889
 29.7676  9556  97.3537
 29.8096  9573.01  97.3841
 29.8516  9492.69  97.3039
 29.8936  9518.5  97.5316
 29.9356  9789.22  98.6614
 29.9776  9505.54  97.3734
 30.0196  9581.11  97.1473
 30.0616  9579.72  97.5158
 30.1036  9460.48  96.7345
 30.1456  9515.66  97.2472
 30.1876  9500.28  97.1459
 30.2296  9497.42  97.0793
 30.2716  9560.09  97.0373
 30.3136  9584.4  98.0149
 30.3556  9568.05  97.9417
 30.3976  9418.14  98.6903
 30.4396  9552.91  96.7225
 30.4816  9561.71  96.3663
 30.5236  9414.19  95.6336
 30.5656  9435.32  96.3951
 30.6076  9409.27  95.6983
 30.6496  9350.41  95.7784
 30.6916  9422.63  96.2423
 30.7336  9355.72  96.0484
 30.7756  9361.94  96.171
 30.8176  9335.15  95.9489
 30.8596  9319.33  95.633
 30.9016  9362.44  96.2028
 30.9436  9403.62  96.1674
 30.9856  9550.45  97.0227
 31.0276  9329.67  95.5037
 31.0696  9281.4  95.8309
 31.1116  9133.08  95.0387
 31.1536  9343.53  96.0132
 31.1956  9187.86  95.2945
 31.2376  9235.34  95.5517
 31.2796  9209.07  94.9543
 31.3216  9289.84  95.3144
 31.3636  9211.43  95.5998
 31.4056  9297.75  97.3652
 31.4476  9258.97  95.0492
 31.4896  9282.86  95.6782
 31.5316  9276.01  95.0434
 31.5736  9253.63  94.7514
 31.6156  9268.63  94.8443
 31.6576  9248.17  94.8357
 31.6996  9296.08  94.7567
 31.7416  9065.59  94.621
 31.7836  9134.61  94.0044
 31.8256  9029.9  93.7291
 31.8676  9217.28  94.6959
 31.9096  9076.37  94.3212
 31.9516  8992.13  94.0449
 31.9936  9031.54  94.0785
 32.0356  9130.23  94.6563
 32.0776  9141.88  94.6009
 32.1196  9193.7  94.961
 32.1616  9182.95  94.3615
 32.2036  8987.8  93.8494
 32.2456  8993.73  94.2697
 32.2876  9095.72  94.2965
 32.3296  8966.16  93.5909
 32.3716  8975.19  93.7467
 32.4136  8984.73  94.008
 32.4556  9154.45  94.2665
 32.4976  9065.11  93.7181
 32.5396  9113.44  94.0357
 32.5816  8856.96  92.8147
 32.6236  9014.38  93.7136
 32.6656  8995.59  94.1529
 32.7076  8953.56  93.5873
 32.7496  8955.57  93.2699
 32.7916  8996.64  93.4349
 32.8336  8998.84  93.5456
 32.8756  8914.08  92.8305
 32.9176  8733.01  92.3612
 32.9596  8857.79  93.0906
 33.0016  8950.27  93.3726
 33.0436  8992.8  93.7656
 33.0856  8846.88  93.0663
 33.1276  8830.95  92.7177
 33.1696  8868.41  92.7666
 33.2116  8948.27  93.4089
 33.2536  8903.47  93.1689
 33.2956  8915.31  93.317
 33.3376  8876.92  92.8546
 33.3796  8806.92  92.6945
 33.4216  9018.47  93.3948
 33.4636  8905.31  92.9536
 33.5056  8815.86  92.7287
 33.5476  8775.73  92.5036
 33.5896  8980.5  93.3512
 33.6316  8722.43  92.3107
 33.6736  8701.88  92.4442
 33.7156  8749.53  92.748
 33.7576  8829.74  92.7956
 33.7996  8858.98  92.7169
 33.8416  8690.27  92.007
 33.8836  8732.56  92.0138
 33.9256  8690.44  91.8534
 33.9676  8800.56  92.331
 34.0096  8581.85  91.4833
 34.0516  8589.09  91.1695
 34.0936  8614.67  91.5657
 34.1356  8834.56  92.4716
 34.1776  8633.41  91.4234
 34.2196  8589.32  91.3665
 34.2616  8589.66  91.503
 34.3036  8609.52  91.8517
 34.3456  8602.13  91.5714
 34.3876  8547.13  91.2382
 34.4296  8461.74  90.4721
 34.4716  8725.25  92.0288
 34.5136  8571.95  91.4172
 34.5556  8596.02  91.7979
 34.5976  8618.19  91.7152
 34.6396  8515.6  90.8876
 34.6816  8560.39  91.2366
 34.7236  8570.35  91.078
 34.7656  8571.61  91.2757
 34.8076  8461.65  91.0107
 34.8496  8470.17  90.9164
 34.8916  8555.94  91.245
 34.9336  8642.86  91.6724
 34.9756  8477.11  90.7082
 35.0176  8548.02  91.6216
 35.0596  8461  90.9722
 35.1016  8458.37  90.7263
 35.1436  8606.9  91.2082
 35.1856  8462.83  90.5691
 35.2276  8494.7  90.9179
 35.2696  8453.49  90.8869
 35.3116  8502.4  91.2413
 35.3536  8220.65  89.4322
 35.3956  8494.13  90.6176
 35.4376  8401.87  90.673
 35.4796  8485.43  91.1844
 35.5216  8473.71  91.0778
 35.5636  8328.32  91.0381
 35.6056  8441.39  90.6713
 35.6476  8445.99  90.5921
 35.6896  8482.78  90.8797
 35.7316  8482.94  90.852
 35.7736  8359.39  90.3856
 35.8156  8261.22  89.8452
 35.8576  8348.18  90.5672
 35.8996  8533.82  91.5341
 35.9416  8470.33  90.693
 35.9836  8321.96  90.2446
 36.0256  8401.53  90.6988
 36.0676  8369.99  90.2925
 36.1096  8162.95  89.3044
 36.1516  8401.1  90.4845
 36.1936  8253.87  89.5361
 36.2356  8271.23  90.2683
 36.2776  8264.52  89.7209
 36.3196  8206.3  89.0688
 36.3616  8330.17  89.8762
 36.4036  8333.73  89.9511
 36.4456  8347.03  90.2352
 36.4876  8198.6  89.3633
 36.5296  8320  90.0605
 36.5716  8146.48  89.8937
 36.6136  8450.98  90.3294
 36.6556  8352.22  90.003
 36.6976  8298.83  90.2086
 36.7396  8318.16  90.0453
 36.7816  8187.19  89.709
 36.8236  8283.11  90.1593
 36.8656  8262.63  90.1174
 36.9076  8132.26  89.2805
 36.9496  8158.31  89.4101
 36.9916  8156.15  89.0308
 37.0336  8319.76  90.2346
 37.0756  8266.74  89.7393
 37.1176  8081.34  88.9951
 37.1596  8192.04  89.6104
 37.2016  8141.87  89.558
 37.2436  8257.52  89.5042
 37.2856  8134.86  89.0937
 37.3276  8317.39  89.4348
 37.3696  8162.83  89.4821
 37.4116  8192.96  89.5564
 37.4536  8107.07  88.9535
 37.4956  8156.18  89.2615
 37.5376  8079.52  90.3762
 37.5796  8086.58  90.3839
 37.6216  7945.08  87.8683
 37.6636  8020.03  88.1802
 37.7056  8136.81  89.0116
 37.7476  8047.72  88.0658
 37.7896  7968.93  88.1329
 37.8316  7827.96  87.5144
 37.8736  8035.06  88.1957
 37.9156  7936.76  87.6526
 37.9576  8007.89  87.932
 37.9996  7872.04  86.8915
 38.0416  7917.93  87.9612
 38.0836  8136.98  89.0804
 38.1256  7875.59  87.6031
 38.1676  7845.09  87.5617
 38.2096  7956.19  87.7981
 38.2516  8141.11  89.026
 38.2936  8004.83  88.0681
 38.3356  8034.83  88.1541
 38.3776  7894.96  87.6579
 38.4196  8048.83  88.3614
 38.4616  7954.47  88.0722
 38.5036  8042.68  88.4101
 38.5456  7914.21  88.5355
 38.5876  7983.1  88.949
 38.6296  7843.33  87.1484
 38.6716  7913.57  87.3286
 38.7136  7850.38  86.9264
 38.7556  7815.05  87.2246
 38.7976  7777.48  86.9582
 38.8396  7936.55  88.2968
 38.8816  7790.3  87.2571
 38.9236  7811.35  87.192
 38.9656  7717  86.5783
 39.0076  7955.14  87.3113
 39.0496  7817.9  87.0879
 39.0916  7923.58  87.3174
 39.1336  7807.66  87.0935
 39.1756  7886.95  87.5999
 39.2176  7903.56  88.2277
 39.2596  7841.26  87.7985
 39.3016  7794.12  87.1087
 39.3436  7710.08  87.0592
 39.3856  7832.11  87.1971
 39.4276  7921.18  88.1769
 39.4696  7888.43  87.627
 39.5116  7764.73  87.4476
 39.5536  7888.13  88.5681
 39.5956  7875.29  87.598
 39.6376  7954.22  88.0407
 39.6796  7899.71  87.4854
 39.7216  7972.93  87.9859
 39.7636  7994.21  88.6751
 39.8056  7977.75  88.3543
 39.8476  7855.54  87.9367
 39.8896  7776.64  87.1213
 39.9316  7829.79  87.6769
 39.9736  7932.38  87.8181
 40.0156  7826.45  87.059
 40.0576  7761.58  87.0503
 40.0996  7893.41  86.9748
 40.1416  7964.75  88.1569
 40.1836  7887.19  87.6065
 40.2256  7968.26  88.111
 40.2676  7886.37  87.7612
 40.3096  7950.7  88.04
 40.3516  8064.15  88.7801
 40.3936  8057.31  88.3003
 40.4356  7848.09  87.3419
 40.4776  8047.88  88.8573
 40.5196  8031.19  88.8932
 40.5616  7929.02  87.968
 40.6036  7852.14  87.7944
 40.6456  7941.91  87.9038
 40.6876  8027.54  88.3642
 40.7296  7987.74  88.2815
 40.7716  7848.3  87.6347
 40.8136  7845.05  87.5632
 40.8556  7978.83  88.436
 40.8976  7982.75  88.3785
 40.9396  7947.39  88.5327
 40.9816  7901.3  87.5636
 41.0236  7972.71  87.7384
 41.0656  8055.61  88.7382
 41.1076  8029.41  88.3626
 41.1496  7981.03  88.0069
 41.1916  7882.68  87.7812
 41.2336  7864.85  87.6707
 41.2756  7788.98  86.8571
 41.3176  7788.94  87.4643
 41.3596  7908.72  87.8651
 41.4016  7975.24  88.4952
 41.4436  7891.02  87.8153
 41.4856  7940.78  88.2567
 41.5276  7960.3  88.3793
 41.5696  7884.9  87.5982
 41.6116  7843.91  87.7578
 41.6536  7934.46  88.1251
 41.6956  7848.03  87.6909
 41.7376  7864.15  87.8154
 41.7796  7863.46  87.6973
 41.8216  7917.2  88.2281
 41.8636  7889.56  88.0148
 41.9056  7761  87.0858
 41.9476  7903.89  88.1126
 41.9896  7803.06  87.2202
 42.0316  7914.53  87.9208
 42.0736  7850.82  87.68
 42.1156  7812.83  87.307
 42.1576  7848.87  87.6115
 42.1996  7947.86  88.3011
 42.2416  7935.59  87.8104
 42.2836  7758.5  86.9378
 42.3256  7683.03  86.6305
 42.3676  7852.67  87.3788
 42.4096  7919.36  87.7155
 42.4516  7902.1  87.7076
 42.4936  7829.13  87.3751
 42.5356  7800.74  87.3453
 42.5776  7801.7  87.2937
 42.6196  7890.81  87.8394
 42.6616  7681.28  86.8421
 42.7036  7796.95  86.8768
 42.7456  7781.73  87.1463
 42.7876  7840.2  87.5807
 42.8296  7669.03  86.4455
 42.8716  7725.4  86.9222
 42.9136  7730.42  86.7413
 42.9556  7789.54  87.2084
 42.9976  7847.74  87.4912
 43.0396  7802.44  86.9725
 43.0816  7679.16  86.6575
 43.1236  7663.53  86.6294
 43.1656  7733.95  86.8566
 43.2076  7651.7  86.4895
 43.2496  7785.62  87.0627
 43.2916  7702.51  86.9627
 43.3336  7726.84  86.9378
 43.3756  7748.43  86.8123
 43.4176  7691.58  86.5776
 43.4596  7666.16  86.2896
 43.5016  7592.24  86.2755
 43.5436  7602.45  86.2249
 43.5856  7697.31  86.795
 43.6276  7701.8  86.7152
 43.6696  7624.7  86.5372
 43.7116  7693.86  86.4287
 43.7536  7715.9  87.04
 43.7956  7586.41  87.4841
 43.8376  7717.67  86.7895
 43.8796  7707.47  86.8115
 43.9216  7579.16  86.0059
 43.9636  7653.9  86.5354
 44.0056  7544.68  86.1476
 44.0476  7588.04  86.0254
 44.0896  7617.72  86.5362
 44.1316  7618.5  86.0642
 44.1736  7450.22  85.2351
 44.2156  7569.55  85.7653
 44.2576  7539.62  85.9172
 44.2996  7517.76  85.7651
 44.3416  7573.33  85.8397
 44.3836  7425.48  85.3171
 44.4256  7477.06  85.2683
 44.4676  7433.64  85.1735
 44.5096  7513.37  85.7761
 44.5516  7482.14  85.5655
 44.5936  7546.12  85.8739
 44.6356  7433.77  84.9777
 44.6776  7456.44  85.4239
 44.7196  7492.1  85.9351
 44.7616  7371.52  86.549
 44.8036  7347.18  84.8467
 44.8456  7418.37  85.4585
 44.8876  7465.1  85.5749
 44.9296  7501.29  85.2407
 44.9716  7476.4  85.518
 45.0136  7345.01  84.7052
 45.0556  7495.01  85.5376
 45.0976  7339.7  84.8103
 45.1396  7219.44  83.8868
 45.1816  7372.89  84.702
 45.2236  7363.34  84.5457
 45.2656  7407.83  85.2984
 45.3076  7439.15  85.2667
 45.3496  7204.7  84.2096
 45.3916  7252.55  84.7514
 45.4336  7391.28  85.4028
 45.4756  7313.9  84.8165
 45.5176  7427.87  85.085
 45.5596  7465.85  85.4278
 45.6016  7303.4  84.9061
 45.6436  7337.57  84.2946
 45.6856  7251.81  84.4487
 45.7276  7132.43  85.0381
 45.7696  7326.38  85.8621
 45.8116  7298.46  85.1431
 45.8536  7125  84.016
 45.8956  7332.2  84.5885
 45.9376  7324.15  84.0108
 45.9796  7254.43  84.2856
 46.0216  7200.45  84.3136
 46.0636  7338.19  84.2663
 46.1056  7317.86  84.1327
 46.1476  7254.68  84.3552
 46.1896  7380.79  85.2341
 46.2316  7225.33  84.2008
 46.2736  7099.27  83.8225
 46.3156  7253.95  84.3241
 46.3576  7269.44  84.6167
 46.3996  7245.52  84.6345
 46.4416  7269.58  84.3545
 46.4836  7207  84.3429
 46.5256  7167.16  84.0494
 46.5676  7179.45  84.2312
 46.6096  7223.5  84.4286
 46.6516  7314.54  84.0044
 46.6936  7182.47  83.721
 46.7356  7240.24  84.1592
 46.7776  7177.09  84.632
 46.8196  7138.22  84.0074
 46.8616  7068.18  83.5417
 46.9036  7066.3  83.186
 46.9456  7081.21  82.9301
 46.9876  7118.91  83.2295
 47.0296  7106.55  83.8376
 47.0716  6947.81  82.7211
 47.1136  6941  82.365
 47.1556  7111.86  83.2473
 47.1976  7180.77  83.7167
 47.2396  7098.78  83.6385
 47.2816  7023.88  82.9056
 47.3236  7092.5  83.6762
 47.3656  7139.28  83.8757
 47.4076  7055.49  83.1877
 47.4496  7086.75  83.4645
 47.4916  6984.81  83.052
 47.5336  7079.57  83.4297
 47.5756  7184.41  84.153
 47.6176  6943.51  82.6438
 47.6596  7055.68  83.0266
 47.7016  7119.43  83.2145
 47.7436  7118.34  83.5466
 47.7856  7119.58  83.5741
 47.8276  7003.7  82.9405
 47.8696  6998.07  82.9889
 47.9116  7062.51  83.0933
 47.9536  6986.73  82.5881
 47.9956  6915.45  82.859
 48.0376  6951.33  82.8474
 48.0796  7058.62  83.6118
 48.1216  7072.89  83.5225
 48.1636  7158.44  83.5977
 48.2056  6988.14  82.861
 48.2476  7080.53  83.7098
 48.2896  6894.4  82.5175
 48.3316  6969.79  82.9043
 48.3736  6860.08  82.274
 48.4156  6860.3  82.1373
 48.4576  6879.16  82.5343
 48.4996  6983.33  82.6228
 48.5416  6978.68  82.9085
 48.5836  6927.18  82.2887
 48.6256  6875.73  82.1842
 48.6676  6980.82  83.314
 48.7096  6935.64  82.3209
 48.7516  6947.35  82.5414
 48.7936  6731.04  81.3128
 48.8356  6885.77  82.2847
 48.8776  6862.06  82.6951
 48.9196  6941.97  82.5636
 48.9616  6954.8  83.0162
 49.0036  6887.58  82.951
 49.0456  6888.97  82.9504
 49.0876  6881.23  82.4388
 49.1296  6813.86  82.1893
 49.1716  6792.63  81.948
 49.2136  6843.14  82.1691
 49.2556  6838.66  82.1784
 49.2976  6842.5  82.2676
 49.3396  6771.92  81.8944
 49.3816  6957.38  82.4499
 49.4236  6893.72  82.489
 49.4656  6729.39  81.5214
 49.5076  6869.02  82.1087
 49.5496  6795.17  81.7348
 49.5916  6802.26  81.693
 49.6336  6803.85  81.9007
 49.6756  6807.49  82.1474
 49.7176  6734.54  81.6487
 49.7596  6816.91  81.9291
 49.8016  6810.74  81.8201
 49.8436  6763.61  81.8169
 49.8856  6740.55  81.6874
 49.9276  6716.51  81.6335
 49.9696  6817.53  82.2337
 50.0116  6798.59  82.2461
 50.0536  6775.1  82.0507
 50.0956  6752.48  81.9833
 50.1376  6768.46  81.7733
 50.1796  6691.39  81.5818
 50.2216  6707.08  81.6701
 50.2636  6751.99  81.5701
 50.3056  6670.75  81.2452
 50.3476  6738.72  81.6843
 50.3896  6687.08  81.3421
 50.4316  6817.4  81.9678
 50.4736  6620.36  80.988
 50.5156  6654.09  81.182
 50.5576  6693.59  81.1751
 50.5996  6616.82  80.9959
 50.6416  6680.29  81.3122
 50.6836  6648.56  81.1763
 50.7256  6665.01  81.2128
 50.7676  6718.14  81.8428
 50.8096  6723.03  81.413
 50.8516  6689.44  81.6245
 50.8936  6659.57  81.2204
 50.9356  6673.55  81.4083
 50.9776  6574.4  80.9563
 51.0196  6510.6  80.6931
 51.0616  6566.36  80.373
 51.1036  6690.17  81.4827
 51.1456  6695.27  81.4258
 51.1876  6760.43  81.1651
 51.2296  6579.09  80.6942
 51.2716  6428.73  79.4779
 51.3136  6486.85  80.283
 51.3556  6508.31  80.0514
 51.3976  6564.73  80.5473
 51.4396  6409.57  79.8832
 51.4816  6540.5  80.5566
 51.5236  6549.93  80.6991
 51.5656  6481.71  79.8859
 51.6076  6498.78  80.072
 51.6496  6555.32  80.6073
 51.6916  6496.6  80.5975
 51.7336  6530.73  80.8978
 51.7756  6632.49  81.2242
 51.8176  6485.23  80.4231
 51.8596  6517.73  80.6393
 51.9016  6606.3  80.7987
 51.9436  6415.22  81.0392
 51.9856  6416.89  81.4798
 52.0276  6419.26  80.0294
 52.0696  6438.1  80.2066
 52.1116  6508.31  80.764
 52.1536  6497.87  80.5821
 52.1956  6588.89  80.6198
 52.2376  6604.72  80.8811
 52.2796  6465.38  79.8354
 52.3216  6341.34  79.7441
 52.3636  6471.72  80.1448
 52.4056  6464.33  79.9555
 52.4476  6334.69  79.5108
 52.4896  6370.4  79.7853
 52.5316  6397.64  79.9982
 52.5736  6442.96  80.0093
 52.6156  6378.88  79.9841
 52.6576  6473.15  80.0241
 52.6996  6195.81  79.2333
 52.7416  6413.65  80.4715
 52.7836  6392.39  80.2205
 52.8256  6397.94  79.4873
 52.8676  6233.41  79.0247
 52.9096  6367.43  79.9478
 52.9516  6369.49  80.3394
 52.9936  6356.96  80.64
 53.0356  6290.63  79.2387
 53.0776  6261.22  79.3116
 53.1196  6251.78  79.3745
 53.1616  6238.13  79.334
 53.2036  6162.44  78.8091
 53.2456  6183.31  79.04
 53.2876  6229.76  79.0475
 53.3296  6165.97  78.9551
 53.3716  6338.27  79.7967
 53.4136  6255.9  79.4304
 53.4556  6162  78.862
 53.4976  6173.44  78.7869
 53.5396  6210.46  79.4107
 53.5816  6273.32  79.4487
 53.6236  6155.81  79.0326
 53.6656  6240.05  79.2071
 53.7076  6301.55  79.5602
 53.7496  6314  79.7498
 53.7916  6331.96  79.9843
 53.8336  6208.4  79.1054
 53.8756  6049.88  78.6267
 53.9176  6202.81  78.9782
 53.9596  6196.07  79.6836
 54.0016  6158.7  78.7892
 54.0436  6183.65  79.1618
 54.0856  6401.73  79.9677
 54.1276  6218.6  79.0166
 54.1696  6137.11  78.6663
 54.2116  6197.16  78.8076
 54.2536  6136.8  78.2445
 54.2956  6277.53  79.1801
 54.3376  6204.05  79.1964
 54.3796  6247.64  79.3765
 54.4216  6330.74  79.9435
 54.4636  6258.24  79.4468
 54.5056  6235.01  79.1224
 54.5476  6185.89  79.1377
 54.5896  6174.74  78.9039
 54.6316  6217.47  79.032
 54.6736  6191.16  78.9362
 54.7156  6245.04  79.296
 54.7576  6126.77  78.5471
 54.7996  6150.59  78.8315
 54.8416  6168.74  78.9975
 54.8836  6104  78.6927
 54.9256  6206.69  79.1091
 54.9676  6206.12  78.9614
 55.0096  6128.35  78.5304
 55.0516  6253.4  79.5582
 55.0936  6214.45  78.9421
 55.1356  6045.91  77.909
 55.1776  6091.66  78.4641
 55.2196  6199.69  78.9435
 55.2616  6194.43  79.113
 55.3036  6182.87  79.2095
 55.3456  6130.37  79.0192
 55.3876  6208.95  79.2682
 55.4296  6171.62  79.0085
 55.4716  6113.32  78.6666
 55.5136  6205.6  79.017
 55.5556  6174.53  78.885
 55.5976  6204.24  79.1367
 55.6396  6082.82  78.2969
 55.6816  6205.6  78.9698
 55.7236  6187.87  78.9015
 55.7656  6171.73  78.5541
 55.8076  6168.9  78.518
 55.8496  6059.06  78.1312
 55.8916  6093.38  78.5535
 55.9336  6116.62  78.5197
 55.9756  6117.32  78.4193
 56.0176  6061.66  78.2117
 56.0596  6095.35  78.411
 56.1016  6057.99  78.1779
 56.1436  6034.29  78.285
 56.1856  6153.59  78.8028
 56.2276  6120.29  78.6418
 56.2696  6110.98  78.5522
 56.3116  6069.72  78.6863
 56.3536  6077.63  78.4022
 56.3956  6002.23  77.905
 56.4376  6068.44  78.365
 56.4796  6137.9  78.6174
 56.5216  6064.22  78.5154
 56.5636  6172.06  78.8014
 56.6056  6006.33  77.9563
 56.6476  6157.53  78.568
 56.6896  6095.04  78.6089
 56.7316  6097.74  78.5317
 56.7736  6154.78  78.9021
 56.8156  6082.54  78.4371
 56.8576  6083.11  78.3863
 56.8996  6067.31  78.2194
 56.9416  6059.09  78.463
 56.9836  6018.48  77.7195
 57.0256  6111.96  78.6403
 57.0676  5990.65  77.9745
 57.1096  6097.82  78.4641
 57.1516  6125.28  78.7049
 57.1936  6066.26  78.0706
 57.2356  6117.67  78.7184
 57.2776  6059.76  78.3048
 57.3196  5996.11  78.2533
 57.3616  6099.36  78.4204
 57.4036  6094.64  78.447
 57.4456  6087.08  78.3657
 57.4876  6082.64  78.2012
 57.5296  6033.92  78.2228
 57.5716  6024.71  78.1556
 57.6136  6102.01  78.4729
 57.6556  5986  77.8545
 57.6976  6027.16  77.9452
 57.7396  6070.63  78.598
 57.7816  5947.92  78.1598
 57.8236  6020.81  78.4296
 57.8656  6058.32  78.3385
 57.9076  5955.25  77.6922
 57.9496  6024.86  78.4909
 57.9916  6028.04  78.0282
 58.0336  6020.23  78.2529
 58.0756  5991.92  77.7114
 58.1176  6093  78.3583
 58.1596  6028.1  78.5113
 58.2016  6039.9  77.8136
 58.2436  6027.09  78.1377
 58.2856  6118.03  78.6491
 58.3276  5956.56  77.9734
 58.3696  6006.09  78.0507
 58.4116  6049.93  78.2003
 58.4536  6004.13  77.7896
 58.4956  6051.82  78.2791
 58.5376  6055.5  77.8738
 58.5796  6100.83  78.5841
 58.6216  6136.17  78.6299
 58.6636  6072.44  78.4321
 58.7056  5987.06  77.7413
 58.7476  6018.51  78.3891
 58.7896  5923.23  77.4119
 58.8316  6067.66  78.3476
 58.8736  6110.21  78.628
 58.9156  5977.15  77.807
 58.9576  6097.27  78.91
 58.9996  6100.35  78.1723
 59.0416  6245.56  79.4621
 59.0836  6001.41  77.8257
 59.1256  5955.61  78.2152
 59.1676  5993.45  78.7705
 59.2096  5979.1  77.9951
 59.2516  6034.59  77.9374
 59.2936  5951.61  77.7254
 59.3356  6106.62  78.6081
 59.3776  6001.58  78.0976
 59.4196  6036.8  78.2625
 59.4616  6054.73  78.2383
 59.5036  6051.22  78.2511
 59.5456  6224.49  79.0521
 59.5876  6154.4  78.7987
 59.6296  5951.55  77.5579
 59.6716  6125.51  78.7416
 59.7136  6016.66  78.0271
 59.7556  6178.89  79.2101
 59.7976  6000.69  77.8025
 59.8396  6102.47  78.3533
 59.8816  5992.82  78.1895
 59.9236  6207.51  79.2164
 59.9656  6102.41  78.805
 60.0076  6192.72  78.7352
 60.0496  6133.98  78.8672
 60.0916  6181.15  78.5827
 60.1336  5863.62  77.6288
 60.1756  6081.29  80.2449
 60.1996  0.0000000E+00  0.0000000E+00