File: docs/examples/opeando_xrd/IS17_D/Data/IS17_D/17_Db_f00143.xye
# /beamlines/bl04/projects/cycle2025-II/20250340211-lsimonelli/DATA/IS17_D/17_Db_f00143.xye : mythproc.py merge -s 0.006 -l 0.5 -f /beamlines/bl04/inhouse/ff/FlatField/ff_20Nov2024rod8mm60s_17keV.raw -b True -c true -o xye /beamlines/bl04/projects/cycle2025-II/20250340211-lsimonelli/DATA/IS17_D/17_Db_00143.dat
# IsMon = [6740852, 6742125, 6745801]  IsPos = [-1.4999, -2.4884, -3.4988]
# Wave = 0.4962  CalPath /beamlines/bl04/projects/cycle2025-II/20250340211-lsimonelli/DATA/Align/Si_Pos1_25keV_f00001.cal
# Date = 2025-09-25_09:33:59 Dt = 4.8000  Bin = 0.0060  <imon> = 6742926 +/- 2098 (Min/Max) 6740852 / 6745801
# icurr 249.3817  mocoIn 1.7014E-05  mocoOut 0.7980  i15 7.06856e+06  imon 6.74293e+06  i7 3.0000  iEMpd_timer 4.8000  iEMpd_1 3.4052E-08  iEMpd_2 7.8031E-08  iEMpd_3 1.9083E-08  iEMpd_4 4.7990E-08  iEMhp_timer 4.8000  iEMhp_1 4.8721E-06  iEMhp_2 -2.5677E-08  iEMhp_3 -2.4259E-08  iEMhp_4 -2.1587E-08
#      9776
 1.5856  44676  217.074
 1.6276  51471.5  229.001
 1.6696  56652.3  239.402
 1.7116  63758.4  254.47
 1.7536  72002.1  269.269
 1.7956  75184.9  275.843
 1.8376  72634.3  271.554
 1.8796  62485.3  250.02
 1.9216  51710.3  228.346
 1.9636  44601.4  211.201
 2.0056  41027.4  201.777
 2.0476  37298.1  194.497
 2.0896  36586.5  191.503
 2.1316  35446.1  187.589
 2.1736  33918.1  184.957
 2.2156  33903.5  183.433
 2.2576  33040.2  181.73
 2.2996  31208.9  177.272
 2.3416  32068.6  178.263
 2.3836  31433  176.596
 2.4256  30499.7  174.521
 2.4676  29593.6  171.666
 2.5096  29839.3  172.433
 2.5516  29265.6  174.684
 2.5936  39083.9  197.829
 2.6356  28116.3  168.496
 2.6776  27713.5  166.173
 2.7196  27315.3  165.459
 2.7616  27085.3  164.557
 2.8036  26982.8  164.408
 2.8456  26884.6  164.755
 2.8876  26154.2  162.359
 2.9296  25918.4  161.755
 2.9716  25599.2  160.248
 3.0136  25292.7  159.352
 3.0556  25674.6  160.946
 3.0976  25248.4  158.514
 3.1396  25181.7  159.042
 3.1816  24694.5  157.427
 3.2236  24596.2  157.101
 3.2656  24450.9  155.688
 3.3076  24297.2  156.671
 3.3496  24413.5  155.961
 3.3916  25050.4  157.811
 3.4336  25311.4  159.207
 3.4756  25596.2  160.049
 3.5176  26366.8  162.207
 3.5596  26096.6  163.815
 3.6016  26132.3  161.53
 3.6436  25498.5  160.677
 3.6856  25087.5  157.677
 3.7276  24174.8  155.865
 3.7696  23819  154.894
 3.8116  23630.2  154.184
 3.8536  23758.7  154.529
 3.8956  23521  153.578
 3.9376  23434.4  153.559
 3.9796  23272.4  152.52
 4.0216  23380  151.906
 4.0636  23428.7  153.54
 4.1056  23312.6  152.815
 4.1476  23916.4  155.096
 4.1896  23731  154.344
 4.2316  23964.4  154.925
 4.2736  24392.2  156.102
 4.3156  24475.2  156.592
 4.3576  25131.4  158.583
 4.3996  25507.9  160.052
 4.4416  25912.2  160.895
 4.4836  26385.5  162.518
 4.5256  26938  164.829
 4.5676  26817.7  164.713
 4.6096  27467.9  165.345
 4.6516  27691.4  165.709
 4.6936  27895.7  167.146
 4.7356  28028.4  167.373
 4.7776  27842.5  166.64
 4.8196  27854.3  167.333
 4.8616  27102.7  164.553
 4.9036  27053.2  164.135
 4.9456  26907.4  164.347
 4.9876  26280.8  162.317
 5.0296  26346.4  162.359
 5.0716  26277.9  162.888
 5.1136  26744.6  164.067
 5.1556  26628.9  163.165
 5.1976  28028.1  167.385
 5.2396  27369.1  165.101
 5.2816  27396.8  165.663
 5.3236  27430.6  165.453
 5.3656  26823.2  164.547
 5.4076  26552.8  163.852
 5.4496  26714.9  163.848
 5.4916  26867.8  164.065
 5.5336  26751.9  163.717
 5.5756  26765.4  163.781
 5.6176  26976.2  163.863
 5.6596  27380.4  166.083
 5.7016  27537.2  165.809
 5.7436  27549.5  166.124
 5.7856  27347.7  165.582
 5.8276  27577.8  165.986
 5.8696  28125.5  167.805
 5.9116  27907.5  167.761
 5.9536  28119.2  168.141
 5.9956  28364.4  168.254
 6.0376  28367  168.881
 6.0796  28492.4  169.083
 6.1216  28352.9  168.867
 6.1636  28621.9  168.72
 6.2056  28546.2  169.177
 6.2476  28777.7  169.731
 6.2896  29029.2  170.148
 6.3316  29221.5  170.887
 6.3736  28988.7  170.101
 6.4156  29162.5  170.494
 6.4576  29320.4  170.571
 6.4996  29195  170.684
 6.5416  29372.9  171.33
 6.5836  29158.4  170.943
 6.6256  29407.6  171.233
 6.6676  30264.6  173.268
 6.7096  29900.7  173.094
 6.7516  30107.6  173.347
 6.7936  30537.2  173.974
 6.8356  30655.4  174.406
 6.8776  30707.6  175.36
 6.9196  30818.1  176.08
 6.9616  31332.4  176.987
 7.0036  31694.6  177.661
 7.0456  31786.6  177.214
 7.0876  31414  177.854
 7.1296  31675.9  177.72
 7.1716  31631.4  177.138
 7.2136  31407.1  176.289
 7.2556  31621.7  177.042
 7.2976  31557.9  177.368
 7.3396  31464.4  177.325
 7.3816  31538.8  177.749
 7.4236  31740.1  177.606
 7.4656  31927.8  177.6
 7.5076  32202.1  178.5
 7.5496  31991.8  178.454
 7.5916  32154.4  178.955
 7.6336  32417.3  179.578
 7.6756  32616.9  179.974
 7.7176  33130.7  181.717
 7.7596  32835.4  182.129
 7.8016  34011  187.617
 7.8436  33068.2  181.646
 7.8856  33394.7  182.153
 7.9276  33796.6  183.636
 7.9696  33979.3  184.445
 8.0116  35053.8  185.895
 8.0536  35435.5  187.149
 8.0956  35498.7  188.505
 8.1376  35833.6  188.858
 8.1796  35864.7  189.478
 8.2216  36868.1  190.848
 8.2636  36682  190.616
 8.3056  36608.9  191.181
 8.3476  37796.1  193.582
 8.3896  36898  191.352
 8.4316  37127.5  192.112
 8.4736  37186.2  191.741
 8.5156  37055.3  191.677
 8.5576  36680.9  191.682
 8.5996  36692.6  190.584
 8.6416  36466  191.251
 8.6836  36283.5  190.59
 8.7256  37112.6  192.22
 8.7676  37118.1  195.156
 8.8096  37248.5  192.792
 8.8516  37118.3  192.027
 8.8936  37087.2  191.896
 8.9356  36800.6  191.495
 8.9776  36562.1  190.936
 9.0196  36880.7  191.451
 9.0616  36749.1  190.602
 9.1036  36457  191.014
 9.1456  35881.3  188.817
 9.1876  36097.9  189.347
 9.2296  35888.9  188.224
 9.2716  35876.8  188.241
 9.3136  35563.9  187.419
 9.3556  35986  188.496
 9.3976  35054.6  186.566
 9.4396  34971.7  186.246
 9.4816  35112.5  186.486
 9.5236  34432.8  184.542
 9.5656  34455.2  184.981
 9.6076  33665.2  183.362
 9.6496  33790.8  183.588
 9.6916  33584.5  182.969
 9.7336  33952.9  183.766
 9.7756  33601.5  184.09
 9.8176  33489  183.317
 9.8596  33638.5  182.137
 9.9016  32838.8  179.969
 9.9436  32806.2  179.788
 9.9856  32398.5  178.941
 10.0276  32155.2  179.349
 10.0696  32226.2  178.583
 10.1116  31178  175.921
 10.1536  31442.6  176.807
 10.1956  31158  175.623
 10.2376  30820.8  174.178
 10.2796  30635.1  173.764
 10.3216  30354.5  173.255
 10.3636  30632.9  174.076
 10.4056  30152.3  173.1
 10.4476  30376.1  173.353
 10.4896  31100.2  174.843
 10.5316  30188.4  173.003
 10.5736  29819  172.359
 10.6156  29393.7  170.876
 10.6576  30197.1  171.717
 10.6996  28976.3  168.926
 10.7416  28485.1  167.7
 10.7836  28316.5  167.872
 10.8256  27787.4  166.713
 10.8676  27950.2  166.748
 10.9096  27749.6  166.179
 10.9516  27538.9  164.483
 10.9936  27589.3  164.842
 11.0356  27347.5  164.727
 11.0776  27476.6  164.447
 11.1196  26838.6  163.293
 11.1616  26527.8  162.017
 11.2036  26927.5  163.075
 11.2456  26865.2  163.603
 11.2876  26929.1  163.532
 11.3296  26439.8  161.942
 11.3716  26848  162.869
 11.4136  26570  162.918
 11.4556  26924.9  163.653
 11.4976  27639.6  164.783
 11.5396  27466.2  164.443
 11.5816  26531.7  162.061
 11.6236  26049.5  160.818
 11.6656  26313.6  160.776
 11.7076  25497.5  159.091
 11.7496  25370.7  162.708
 11.7916  25351  157.89
 11.8336  24817.3  157.098
 11.8756  24594  155.952
 11.9176  24813.9  156.318
 11.9596  24774.2  156.367
 12.0016  24550  156.426
 12.0436  24744.3  156.491
 12.0856  24286.8  155.542
 12.1276  24333.8  155.642
 12.1696  24373.6  154.878
 12.2116  24257.5  154.502
 12.2536  24641  156.546
 12.2956  23836.2  153.317
 12.3376  24173.7  154.612
 12.3796  24090.2  154.823
 12.4216  24085.4  154.009
 12.4636  23777.6  153.949
 12.5056  23865  153.498
 12.5476  23927.7  153.205
 12.5896  23837.2  153.559
 12.6316  24013.4  154.29
 12.6736  23690.3  153.735
 12.7156  23934  154.359
 12.7576  23939.7  154.635
 12.7996  23865.1  153.033
 12.8416  23761.3  153.755
 12.8836  24015.1  154.403
 12.9256  24479.3  154.917
 12.9676  24335.5  154.858
 13.0096  24562.8  156.71
 13.0516  24242.3  154.715
 13.0936  24516.5  156.002
 13.1356  24780.5  155.798
 13.1776  24390  155.58
 13.2196  24477  155.495
 13.2616  24252.3  155.09
 13.3036  24486.2  155.806
 13.3456  24030.6  154.689
 13.3876  24682.4  156.064
 13.4296  24252.5  154.846
 13.4716  24549.8  155.425
 13.5136  24348.6  154.919
 13.5556  24338.4  155.515
 13.5976  24643.2  156.656
 13.6396  24640.4  155.998
 13.6816  24430.6  155.803
 13.7236  25019.5  157.238
 13.7656  26610.8  162.656
 13.8076  27272.2  163.286
 13.8496  26691.1  162.219
 13.8916  24961.6  158.006
 13.9336  24045.2  154.356
 13.9756  24099.1  153.905
 14.0176  23786.1  153.583
 14.0596  24030.3  154.293
 14.1016  23681.8  153.604
 14.1436  23826.8  153.199
 14.1856  22993  150.786
 14.2276  23318.6  152.341
 14.2696  23182.9  151.743
 14.3116  22522.6  149.465
 14.3536  22492.6  149.541
 14.3956  22361.9  148.832
 14.4376  22764  149.945
 14.4796  22473.9  148.982
 14.5216  22060.4  148.392
 14.5636  22077.8  148.025
 14.6056  22214.5  148.04
 14.6476  22075.4  146.812
 14.6896  21716.8  146.165
 14.7316  21413.8  146.179
 14.7736  21177.8  144.515
 14.8156  20975.8  143.848
 14.8576  20957.3  143.64
 14.8996  20656.5  143.797
 14.9416  20347.4  142.73
 14.9836  20233.1  142.309
 15.0256  19617.7  139.048
 15.0676  19651.5  139.476
 15.1096  19578.5  138.96
 15.1516  19309.4  138.56
 15.1936  19361  138.17
 15.2356  18860.8  136.647
 15.2776  18817.8  136.086
 15.3196  18373.6  135.449
 15.3616  18598.6  136.028
 15.4036  18501.1  135.54
 15.4456  18775.9  136.189
 15.4876  18269.6  134.031
 15.5296  18273.2  134.334
 15.5716  18018.6  132.996
 15.6136  18082  133.56
 15.6556  18126.8  132.962
 15.6976  17866.9  132.305
 15.7396  17544.1  131.476
 15.7816  17790.9  131.917
 15.8236  17412.6  131.185
 15.8656  17509.5  131.353
 15.9076  17140.6  129.777
 15.9496  18080.1  136.14
 15.9916  17647  134.89
 16.0336  17871.9  132.626
 16.0756  17504.9  131.55
 16.1176  17255.9  130.698
 16.1596  17011.6  130.936
 16.2016  16963.7  129.511
 16.2436  17029.9  130.148
 16.2856  16910.1  129.21
 16.3276  16710.7  128.89
 16.3696  16898.2  129.439
 16.4116  16589.2  128.682
 16.4536  16883.9  129.622
 16.4956  16873.3  129.328
 16.5376  16836.6  129.369
 16.5796  16524.9  127.536
 16.6216  16757.8  128.689
 16.6636  16246.1  126.904
 16.7056  16509.8  127.793
 16.7476  16805.5  128.459
 16.7896  16428.6  127.758
 16.8316  16483.8  127.95
 16.8736  16667.2  128.917
 16.9156  16337.6  127.958
 16.9576  16295.5  128.599
 16.9996  16379.9  129.389
 17.0416  16517.3  128.327
 17.0836  16449.2  127.823
 17.1256  16101.7  126.459
 17.1676  16429.4  127.707
 17.2096  16172.7  126.608
 17.2516  16037.9  125.863
 17.2936  15861.5  125.521
 17.3356  15792  125.23
 17.3776  15721.9  125.134
 17.4196  15593.4  124.327
 17.4616  15652.5  124.473
 17.5036  15424.8  123.927
 17.5456  15223.9  123.744
 17.5876  15325  123.203
 17.6296  15342.9  123.109
 17.6716  15384.9  123.859
 17.7136  15405.7  124.069
 17.7556  15257  123.763
 17.7976  15228.2  123.371
 17.8396  15112  122.415
 17.8816  14956.2  122.346
 17.9236  14973.5  122.196
 17.9656  14894  122.403
 18.0076  14939.6  122.164
 18.0496  14914.1  121.2
 18.0916  15706.3  124.943
 18.1336  15231.5  123.138
 18.1756  15136.5  122.3
 18.2176  14809.5  121.184
 18.2596  14713  120.514
 18.3016  15086.8  122.305
 18.3436  14948  121.744
 18.3856  14822.5  121.368
 18.4276  14650.5  120.341
 18.4696  14746.9  120.816
 18.5116  14618.6  120.564
 18.5536  14661.6  121.104
 18.5956  14568.6  120.284
 18.6376  14456.5  120.224
 18.6796  14421.9  119.391
 18.7216  14417.5  119.874
 18.7636  14423.9  119.901
 18.8056  14296.7  119.293
 18.8476  14085.5  119.032
 18.8896  14186.5  118.796
 18.9316  14346.1  119.437
 18.9736  14202.5  118.54
 19.0156  14174.5  118.848
 19.0576  14405  118.642
 19.0996  14351.1  119.15
 19.1416  14267.1  119.188
 19.1836  14141.1  118.268
 19.2256  14042.1  118.077
 19.2676  14173.9  118.719
 19.3096  13996.4  118.212
 19.3516  13980.7  118.109
 19.3936  13955.2  117.896
 19.4356  14261.1  119.063
 19.4776  14071.6  118.359
 19.5196  13986  117.841
 19.5616  13928.2  117.858
 19.6036  13915.8  117.303
 19.6456  14005.9  117.803
 19.6876  14007.1  117.445
 19.7296  14196.3  118.701
 19.7716  13915.6  117.695
 19.8136  14337.5  119.666
 19.8556  14513.7  119.874
 19.8976  14423.2  119.551
 19.9396  14733.5  120.418
 19.9816  14486.7  119.655
 20.0236  14857.8  121.373
 20.0656  14485.8  119.849
 20.1076  14301.1  119.565
 20.1496  13974.6  118.183
 20.1916  14051.7  118.025
 20.2336  13678.4  116.362
 20.2756  13624.6  116.574
 20.3176  13457.7  115.596
 20.3596  13490.6  115.733
 20.4016  13396.8  115.134
 20.4436  13406  115.723
 20.4856  13387.3  115.444
 20.5276  13430.5  116.093
 20.5696  13449  115.62
 20.6116  13227  114.937
 20.6536  13363.8  115.041
 20.6956  13167.3  114.322
 20.7376  13167.1  114.528
 20.7796  13150.3  114.154
 20.8216  13340.9  114.692
 20.8636  13273.4  114.779
 20.9056  13318.3  114.91
 20.9476  13185.2  114.177
 20.9896  13432.2  115.098
 21.0316  13149.6  113.787
 21.0736  13129.3  114.219
 21.1156  13094.9  114.228
 21.1576  13077.1  114.192
 21.1996  12979  113.749
 21.2416  12994.8  113.655
 21.2836  13155.2  114.317
 21.3256  13118.1  114.232
 21.3676  13102  113.682
 21.4096  13003.6  113.591
 21.4516  12875.4  112.89
 21.4936  12646.3  112.161
 21.5356  12880.4  113.139
 21.5776  13020.7  113.583
 21.6196  12828.3  112.784
 21.6616  12739.3  112.469
 21.7036  12805  112.525
 21.7456  12817.1  112.654
 21.7876  12745  112.105
 21.8296  12654.9  111.554
 21.8716  12736.8  112.147
 21.9136  12871.8  112.938
 21.9556  12741.2  112.035
 21.9976  12685.4  111.823
 22.0396  12627  111.819
 22.0816  12533.1  111.926
 22.1236  12852.5  112.804
 22.1656  12683.5  112.197
 22.2076  12368.7  110.257
 22.2496  12528.7  111
 22.2916  12413.2  110.366
 22.3336  12481.9  111.396
 22.3756  12416.9  110.822
 22.4176  12278.3  110.058
 22.4596  12141.2  110.018
 22.5016  12412.3  110.748
 22.5436  12448  110.781
 22.5856  12485.9  111.198
 22.6276  12594  111.816
 22.6696  12449.3  111.524
 22.7116  12324.8  110.484
 22.7536  12302.9  110.358
 22.7956  12422.9  110.239
 22.8376  12120.8  109.391
 22.8796  12210.9  109.605
 22.9216  12342.3  110.728
 22.9636  12279.2  109.61
 23.0056  12282.2  109.755
 23.0476  12436.3  111.014
 23.0896  12727.6  111.681
 23.1316  12505.9  111.136
 23.1736  12574.4  114.392
 23.2156  12573.7  111.764
 23.2576  12817.3  112.982
 23.2996  12450.9  111.123
 23.3416  12610.6  112.375
 23.3836  12534.9  111.268
 23.4256  12706.3  112.148
 23.4676  12645.7  111.566
 23.5096  12740.2  112.645
 23.5516  12443.2  110.622
 23.5936  12688.8  112.63
 23.6356  12889.6  113.18
 23.6776  12462.7  111.494
 23.7196  12433  110.943
 23.7616  12611.9  111.654
 23.8036  12821.2  112.637
 23.8456  12468.2  110.617
 23.8876  12526.6  111.243
 23.9296  12356.9  110.976
 23.9716  12252.3  109.712
 24.0136  12417.9  111.356
 24.0556  12146.7  109.844
 24.0976  12203.8  109.924
 24.1396  12081.8  112.003
 24.1816  12319.7  111.474
 24.2236  12283.7  110.966
 24.2656  12185.8  109.991
 24.3076  12075.2  109.764
 24.3496  12001.2  109.3
 24.3916  12179.3  110.166
 24.4336  12097  109.995
 24.4756  12135.7  110.055
 24.5176  11925.6  108.722
 24.5596  11851.4  108.509
 24.6016  11876.2  108.914
 24.6436  11869.6  108.398
 24.6856  11836.5  107.987
 24.7276  11624.5  107.336
 24.7696  11770.8  108.116
 24.8116  11588.1  107.456
 24.8536  11556  107.315
 24.8956  11669.1  107.569
 24.9376  11542.2  106.901
 24.9796  11389.5  106.556
 25.0216  11394.3  106.701
 25.0636  11471.8  106.711
 25.1056  11231.5  106.287
 25.1476  11310.3  108.287
 25.1896  11228.5  106.405
 25.2316  11235.6  105.71
 25.2736  11163.2  105.013
 25.3156  11182.1  105.186
 25.3576  11148  105.459
 25.3996  11160  105.504
 25.4416  11109.9  105.235
 25.4836  10970.9  105.094
 25.5256  11024  104.717
 25.5676  11099.5  104.806
 25.6096  10933.2  104.593
 25.6516  11055.2  104.675
 25.6936  11088.3  105.149
 25.7356  10997.6  104.849
 25.7776  11081.7  104.835
 25.8196  10752.2  103.515
 25.8616  10892.8  104.117
 25.9036  11021.8  104.181
 25.9456  10938.2  104.394
 25.9876  10910  104.318
 26.0296  10908.1  103.831
 26.0716  11008.5  104.736
 26.1136  11030.9  104.762
 26.1556  11001.8  104.01
 26.1976  10851.6  104.232
 26.2396  10715.8  102.73
 26.2816  10857  104.019
 26.3236  10937.4  104.563
 26.3656  11004.5  104.607
 26.4076  10830  103.976
 26.4496  11053.1  104.635
 26.4916  11071.1  104.608
 26.5336  11391  106.456
 26.5756  11548.9  107.071
 26.6176  11078.8  104.887
 26.6596  10835.9  104.039
 26.7016  10800.2  103.635
 26.7436  10865.8  104.083
 26.7856  10536.1  102.475
 26.8276  10638.1  102.933
 26.8696  10654.9  102.883
 26.9116  10561.2  102.368
 26.9536  10534.5  102.292
 26.9956  10429.4  101.81
 27.0376  10449.9  102.136
 27.0796  10526.7  102.239
 27.1216  10662.7  102.956
 27.1636  10328  101.499
 27.2056  10431.3  101.885
 27.2476  10516.5  102.271
 27.2896  10334.1  101.517
 27.3316  10255.1  100.844
 27.3736  10308.4  101.376
 27.4156  10356.3  101.445
 27.4576  10323.5  101.508
 27.4996  10449.5  101.74
 27.5416  10265.9  101.143
 27.5836  10284.4  101.06
 27.6256  10328.6  101.464
 27.6676  10254  101.085
 27.7096  10291.6  101.156
 27.7516  10307.6  101.377
 27.7936  10598.6  102.956
 27.8356  10423.6  101.699
 27.8776  10525.6  102.274
 27.9196  10209.5  100.579
 27.9616  10193  100.702
 28.0036  10172.9  100.567
 28.0456  10070  100.184
 28.0876  10025.9  100.046
 28.1296  10040  99.9569
 28.1716  10105.4  100.307
 28.2136  10149.3  100.488
 28.2556  10052.8  100.121
 28.2976  10025.1  99.9769
 28.3396  9918.61  99.2052
 28.3816  9978.94  99.517
 28.4236  9905.49  99.3098
 28.4656  9995.78  99.8003
 28.5076  9906.05  98.9693
 28.5496  9895.28  99.1865
 28.5916  9930.41  99.1727
 28.6336  9901.66  99.3754
 28.6756  9930.56  98.7177
 28.7176  9876.39  99.0053
 28.7596  9627.33  97.6407
 28.8016  9809.39  98.601
 28.8436  9736.78  98.471
 28.8856  9831.13  98.7979
 28.9276  9698.53  98.3755
 28.9696  9777.49  98.4314
 29.0116  9652.38  97.9781
 29.0536  9554.15  97.6905
 29.0956  9809.98  98.6797
 29.1376  9677.11  97.9887
 29.1796  9719.66  98.2567
 29.2216  9773.44  98.3673
 29.2636  9797.05  98.5609
 29.3056  9718.04  97.949
 29.3476  9672.71  98.2412
 29.3896  9615.41  98.0605
 29.4316  9517.39  96.8913
 29.4736  9440.5  96.5594
 29.5156  9576.96  97.1756
 29.5576  9454.55  97.2939
 29.5996  9517.58  96.8744
 29.6416  9497.12  96.8856
 29.6836  9586.14  97.2703
 29.7256  9285.89  96.2913
 29.7676  9325.73  96.1599
 29.8096  9399.89  96.4894
 29.8516  9313.3  96.3678
 29.8936  9534.44  97.6015
 29.9356  9403.76  96.6871
 29.9776  9361.14  96.6169
 30.0196  9316.52  95.7937
 30.0616  9334.31  96.2477
 30.1036  9363.15  96.2267
 30.1456  9195.17  95.5798
 30.1876  9331.43  96.2748
 30.2296  9274.39  95.9206
 30.2716  9443.64  96.4332
 30.3136  9341.74  96.763
 30.3556  9566.95  97.9283
 30.3976  9382.83  98.4931
 30.4396  9789.48  97.9111
 30.4816  9581.97  96.455
 30.5236  9696.14  97.0458
 30.5656  9450.37  96.4453
 30.6076  9520.13  96.2198
 30.6496  9582.51  96.9551
 30.6916  9290.01  95.5418
 30.7336  9426.15  96.4003
 30.7756  9551.63  97.1064
 30.8176  9493.45  96.7371
 30.8596  9429.41  96.1649
 30.9016  9329.89  96.0084
 30.9436  9390.09  96.0686
 30.9856  9511.93  96.8012
 31.0276  9435.41  96.0527
 31.0696  9206.03  95.4317
 31.1116  9315.05  95.9629
 31.1536  9356.6  96.056
 31.1956  9218.44  95.4379
 31.2376  9179.44  95.2411
 31.2796  9325.15  95.5447
 31.3216  9232.58  94.9784
 31.3636  9383.69  96.473
 31.4056  9373.69  97.711
 31.4476  9460.18  96.0881
 31.4896  9373.2  96.149
 31.5316  9238.2  94.8596
 31.5736  9467.18  95.8587
 31.6156  9346.33  95.2535
 31.6576  9557.52  96.3908
 31.6996  9475.77  95.6353
 31.7416  9263.25  95.6638
 31.7836  9293.26  94.8248
 31.8256  9447.98  95.8577
 31.8676  9499.24  96.1142
 31.9096  9170.26  94.8137
 31.9516  9114.33  94.6933
 31.9936  9127.94  94.5826
 32.0356  9307.97  95.5547
 32.0776  9383.25  95.8316
 32.1196  9469  96.3869
 32.1616  9458.5  95.7704
 32.2036  9248.48  95.2215
 32.2456  9166.44  95.1571
 32.2876  9175.84  94.7108
 32.3296  9267.58  95.1427
 32.3716  8904.66  93.3818
 32.4136  9099.7  94.5955
 32.4556  9152.85  94.2587
 32.4976  9056.26  93.6668
 32.5396  8986.74  93.3604
 32.5816  8991.84  93.527
 32.6236  8988.85  93.5713
 32.6656  9101.73  94.706
 32.7076  8937.77  93.4991
 32.7496  8998.51  93.4898
 32.7916  9070.46  93.8273
 32.8336  8919.18  93.1309
 32.8756  9004.72  93.2969
 32.9176  8899.74  93.2372
 32.9596  8924.08  93.4344
 33.0016  8852.97  92.8319
 33.0436  8969.48  93.6234
 33.0856  8948.35  93.6026
 33.1276  8702.99  92.0501
 33.1696  8971.97  93.2924
 33.2116  8960.96  93.4649
 33.2536  9133.36  94.3545
 33.2956  9002.62  93.7633
 33.3376  8974.38  93.3516
 33.3796  8923.37  93.3023
 33.4216  8878.09  92.6499
 33.4636  8914.77  93.0082
 33.5056  8764.75  92.4649
 33.5476  8909.47  93.2014
 33.5896  8880.88  92.8451
 33.6316  8853.05  93.004
 33.6736  8710.57  92.5021
 33.7156  8656.85  92.2488
 33.7576  8961.35  93.4972
 33.7996  8856.58  92.696
 33.8416  8537.97  91.2102
 33.8836  8667.72  91.6713
 33.9256  8822.89  92.5566
 33.9676  8850.14  92.5901
 34.0096  8820.26  92.7488
 34.0516  8588.46  91.1607
 34.0936  8620.43  91.6026
 34.1356  8780.49  92.1833
 34.1776  8660.57  91.5498
 34.2196  8706.34  91.9835
 34.2616  8506.55  91.0504
 34.3036  8734.81  92.5209
 34.3456  8529.15  91.1786
 34.3876  8717.43  92.1468
 34.4296  8687.82  91.679
 34.4716  8656.86  91.6676
 34.5136  8714.63  92.164
 34.5556  8443.19  90.9725
 34.5976  8644.04  91.8552
 34.6396  8549.21  91.0643
 34.6816  8686.18  91.9023
 34.7236  8579.84  91.1167
 34.7656  8654.3  91.7187
 34.8076  8398.24  90.6801
 34.8496  8534.7  91.2619
 34.8916  8599.38  91.4706
 34.9336  8648.56  91.7111
 34.9756  8630.52  91.5353
 35.0176  8716.64  92.5278
 35.0596  8652.87  92.0104
 35.1016  8603.6  91.4984
 35.1436  8763.16  92.0351
 35.1856  8547.55  91.0128
 35.2276  8427.42  90.5407
 35.2696  8425.64  90.725
 35.3116  8431.04  90.8535
 35.3536  8396.59  90.3826
 35.3956  8504.88  90.67
 35.4376  8436.72  90.8747
 35.4796  8401.29  90.7262
 35.5216  8473.57  91.0718
 35.5636  8274.78  90.7366
 35.6056  8435.87  90.6294
 35.6476  8518.85  90.9776
 35.6896  8450.54  90.7094
 35.7316  8336.89  90.0681
 35.7736  8387.9  90.5207
 35.8156  8453.07  90.8796
 35.8576  8484.73  91.2964
 35.8996  8392.55  90.7745
 35.9416  8431.67  90.4933
 35.9836  8450.19  90.9257
 36.0256  8547.28  91.4626
 36.0676  8583.5  91.4059
 36.1096  8405.67  90.5989
 36.1516  8592.92  91.4992
 36.1936  8470.11  90.6673
 36.2356  8464.33  91.3133
 36.2776  8359.39  90.2169
 36.3196  8333.07  89.7527
 36.3616  8310.71  89.7577
 36.4036  8315.7  89.8548
 36.4456  8365.01  90.3338
 36.4876  8235.77  89.5641
 36.5296  8316.7  90.0431
 36.5716  8377.94  91.1602
 36.6136  8235.64  89.1622
 36.6556  8251.2  89.4429
 36.6976  8173.04  89.5155
 36.7396  8210.29  89.4569
 36.7816  8114.19  89.297
 36.8236  8040.18  88.8155
 36.8656  8073.07  89.058
 36.9076  8077.87  88.9734
 36.9496  8050.75  88.8056
 36.9916  8080.89  88.6055
 37.0336  8162.98  89.3645
 37.0756  8223.07  89.4923
 37.1176  7884.14  87.8922
 37.1596  8014.61  88.6225
 37.2016  8106.96  89.3525
 37.2436  8044.22  88.3274
 37.2856  7954.12  88.0835
 37.3276  8137.49  88.4493
 37.3696  7912.32  88.0937
 37.4116  8043.84  88.7225
 37.4536  7883.14  87.7064
 37.4956  7893.21  87.796
 37.5376  8046.69  90.2451
 37.5796  8103.81  90.4874
 37.6216  8004.1  88.2048
 37.6636  8170.84  89.0101
 37.7056  7917.15  87.7914
 37.7476  8280.96  89.3375
 37.7896  8043.63  88.5464
 37.8316  8051.74  88.7537
 37.8736  8170.09  88.9158
 37.9156  8005.52  88.0213
 37.9576  8136.94  88.6492
 37.9996  7957.92  87.382
 38.0416  7962.77  88.2172
 38.0836  8209.07  89.4732
 38.1256  8054.8  88.5998
 38.1676  7950.16  88.1239
 38.2096  8191.28  89.0754
 38.2516  7886.99  87.623
 38.2936  8187.84  89.08
 38.3356  8107.35  88.5636
 38.3776  7995.73  88.2046
 38.4196  7941.38  87.7535
 38.4616  8021.98  88.4506
 38.5036  8114.6  88.8027
 38.5456  7892.69  88.4107
 38.5876  7848.09  88.177
 38.6296  7974.62  87.8734
 38.6716  7983.17  87.7139
 38.7136  8017.77  87.8528
 38.7556  7933.35  87.8955
 38.7976  8164.8  89.0881
 38.8396  7890.86  88.038
 38.8816  7958.95  88.2201
 38.9236  7895.22  87.6507
 38.9656  8022.32  88.269
 39.0076  8100.8  88.0998
 39.0496  8138.96  88.8747
 39.0916  8016.22  87.845
 39.1336  8018.02  88.2577
 39.1756  8097.49  88.7581
 39.2176  8011.77  88.8304
 39.2596  7971.33  88.5238
 39.3016  7845.52  87.4168
 39.3436  7770.69  87.4075
 39.3856  8001.94  88.1423
 39.4276  8037.04  88.8438
 39.4696  8098.86  88.8013
 39.5116  8016.8  88.8602
 39.5536  8051.37  89.4617
 39.5956  8018.99  88.3958
 39.6376  7923.57  87.8649
 39.6796  7986.89  87.9581
 39.7216  7972.28  87.9761
 39.7636  7970.72  88.5362
 39.8056  8010.56  88.5387
 39.8476  7858.32  87.9492
 39.8896  7923.25  87.9441
 39.9316  7884.35  87.9752
 39.9736  7980.46  88.083
 40.0156  7863.1  87.2622
 40.0576  7925.52  87.9551
 40.0996  8090.08  88.0394
 40.1416  8002.93  88.3644
 40.1836  7919.97  87.8002
 40.2256  7970.83  88.111
 40.2676  7933.09  88.0112
 40.3096  7954.29  88.0573
 40.3516  7957.14  88.1738
 40.3936  8066.18  88.3436
 40.4356  7864.16  87.435
 40.4776  8022.99  88.7111
 40.5196  7985.91  88.6315
 40.5616  8011.23  88.4197
 40.6036  7767.85  87.3229
 40.6456  8002.58  88.2232
 40.6876  8136.1  88.9632
 40.7296  7877.34  87.6675
 40.7716  7942.35  88.1474
 40.8136  7880.42  87.747
 40.8556  8136.22  89.3027
 40.8976  7887.2  87.8408
 40.9396  7977.02  88.6922
 40.9816  7991.26  88.0574
 41.0236  7929.39  87.4988
 41.0656  8010.3  88.4807
 41.1076  7958.95  87.9712
 41.1496  8024.17  88.2392
 41.1916  7991.71  88.3805
 41.2336  7988.93  88.3686
 41.2756  7855.78  87.2294
 41.3176  7965.1  88.4389
 41.3596  7893.56  87.7869
 41.4016  7851.81  87.809
 41.4436  8069.62  88.8018
 41.4856  7863.61  87.8246
 41.5276  7876.47  87.9158
 41.5696  7950.49  87.9563
 41.6116  8082.32  89.0821
 41.6536  7973.62  88.3287
 41.6956  7914.75  88.0611
 41.7376  7891.16  87.958
 41.7796  7876.24  87.7526
 41.8216  7931.03  88.2924
 41.8636  7909.47  88.1184
 41.9056  7817.33  87.4025
 41.9476  7892.9  88.0571
 41.9896  8016.18  88.4013
 42.0316  7970.74  88.2411
 42.0736  7989  88.4441
 42.1156  7911.29  87.8518
 42.1576  7966.29  88.2587
 42.1996  7995.75  88.5493
 42.2416  7936.98  87.8107
 42.2836  7923.94  87.8605
 42.3256  7840.24  87.4918
 42.3676  7998.04  88.1769
 42.4096  7897.4  87.5971
 42.4516  7947.71  87.9411
 42.4936  7859.68  87.5346
 42.5356  7768.29  87.1656
 42.5776  7916.08  87.9309
 42.6196  7842.71  87.5752
 42.6616  7734.28  87.1403
 42.7036  7875.65  87.3072
 42.7456  7943.41  88.0403
 42.7876  7736.97  86.9839
 42.8296  7839.64  87.394
 42.8716  7763.08  87.133
 42.9136  7829.57  87.2911
 42.9556  7848.36  87.5283
 42.9976  7891.06  87.7325
 43.0396  7820.77  87.071
 43.0816  7828.62  87.502
 43.1236  7844.75  87.6322
 43.1656  7864.13  87.5733
 43.2076  7752.29  87.0547
 43.2496  7820.82  87.2627
 43.2916  7812.07  87.5756
 43.3336  7769.89  87.1657
 43.3756  7848.94  87.3751
 43.4176  7738.33  86.8331
 43.4596  7672.66  86.3159
 43.5016  7853.02  87.7327
 43.5436  7743.91  87.0321
 43.5856  7722.57  86.937
 43.6276  7723.96  86.8313
 43.6696  7643.71  86.6359
 43.7116  7815.77  87.1041
 43.7536  7810.01  87.577
 43.7956  7613.89  87.6747
 43.8376  7628.36  86.2787
 43.8796  7570.54  86.0257
 43.9216  7639.11  86.3349
 43.9636  7579.09  86.1001
 44.0056  7497.71  85.8559
 44.0476  7572.14  85.9196
 44.0896  7501.01  85.8617
 44.1316  7585.95  85.8704
 44.1736  7481.07  85.3977
 44.2156  7550.83  85.6508
 44.2576  7617.49  86.3543
 44.2996  7565.95  86.037
 44.3416  7565.43  85.7847
 44.3836  7402.47  85.1707
 44.4256  7408.85  84.8608
 44.4676  7423.39  85.1072
 44.5096  7435.49  85.3177
 44.5516  7398.19  85.0645
 44.5936  7415.68  85.125
 44.6356  7513.66  85.4211
 44.6776  7503.12  85.6846
 44.7196  7398.68  85.3849
 44.7616  7586.45  87.7978
 44.8036  7504.79  85.7475
 44.8456  7663.32  86.8589
 44.8876  7619.74  86.4502
 44.9296  7722.52  86.4775
 44.9716  7769.45  87.1768
 45.0136  7772.08  87.1194
 45.0556  7636.01  86.3374
 45.0976  7610.61  86.352
 45.1396  7485.41  85.3928
 45.1816  7542.01  85.6498
 45.2236  7746.67  86.7195
 45.2656  7572.42  86.2317
 45.3076  7573.25  86.0135
 45.3496  7515.57  85.9879
 45.3916  7462.57  85.9701
 45.4336  7568.98  86.4252
 45.4756  7498.98  85.873
 45.5176  7646  86.3303
 45.5596  7647.7  86.4527
 45.6016  7540.97  86.2766
 45.6436  7609.69  85.8333
 45.6856  7568.43  86.2616
 45.7276  7404.34  86.6338
 45.7696  7523.22  87.0126
 45.8116  7505.33  86.3479
 45.8536  7473.95  86.0579
 45.8956  7613.98  86.2067
 45.9376  7485.17  84.9367
 45.9796  7574.62  86.1282
 46.0216  7592.53  86.5781
 46.0636  7691.6  86.2499
 46.1056  7609.42  85.7999
 46.1476  7481.6  85.6693
 46.1896  7583.06  86.4003
 46.2316  7584.2  86.2576
 46.2736  7398.26  85.5831
 46.3156  7568.51  86.1367
 46.3576  7617.43  86.6253
 46.3996  7502.7  86.1275
 46.4416  7544.43  85.9387
 46.4836  7435.88  85.6833
 46.5256  7491.35  85.9329
 46.5676  7501.96  86.1127
 46.6096  7505.91  86.0764
 46.6516  7512.75  85.1292
 46.6936  7573.39  85.9834
 46.7356  7661.12  86.5838
 46.7776  7421.98  86.0628
 46.8196  7415.11  85.6167
 46.8616  7393.9  85.4405
 46.9036  7349.95  84.8382
 46.9456  7439.05  84.991
 46.9876  7422.44  84.9813
 47.0296  7458.13  85.8836
 47.0716  7359.73  85.1379
 47.1136  7465.08  85.4154
 47.1556  7403.64  84.9321
 47.1976  7527.22  85.7245
 47.2396  7352.21  85.1198
 47.2816  7405.74  85.1276
 47.3236  7364.31  85.26
 47.3656  7499.66  85.9681
 47.4076  7320.27  84.731
 47.4496  7373.41  85.1404
 47.4916  7420.83  85.6018
 47.5336  7471.98  85.7138
 47.5756  7479.78  85.8742
 47.6176  7314.32  84.8154
 47.6596  7386.89  84.9503
 47.7016  7575.71  85.8258
 47.7436  7428.16  85.3412
 47.7856  7476.02  85.6453
 47.8276  7393.51  85.2245
 47.8696  7445.53  85.6044
 47.9116  7526.7  85.778
 47.9536  7348.11  84.691
 47.9956  7382.69  85.6137
 48.0376  7348.2  85.1866
 48.0796  7389.78  85.5483
 48.1216  7345.81  85.1199
 48.1636  7494.98  85.5392
 48.2056  7348.39  84.9708
 48.2476  7506.35  86.1914
 48.2896  7486.91  85.9848
 48.3316  7426.22  85.5828
 48.3736  7516.15  86.1198
 48.4156  7336.53  84.9329
 48.4576  7339.34  85.2498
 48.4996  7515.33  85.709
 48.5416  7469.01  85.7734
 48.5836  7370.83  84.8833
 48.6256  7454.89  85.5782
 48.6676  7392.4  85.7325
 48.7096  7303.69  84.4731
 48.7516  7401  85.198
 48.7936  7295.23  84.6483
 48.8356  7337.22  84.9408
 48.8776  7383.07  85.7915
 48.9196  7507.16  85.8607
 48.9616  7379.64  85.5163
 49.0036  7428.85  86.1603
 49.0456  7335.61  85.5974
 49.0876  7349.9  85.1989
 49.1296  7227.52  84.6544
 49.1716  7213.53  84.4512
 49.2136  7416.36  85.5456
 49.2556  7321.12  85.0339
 49.2976  7438.55  85.7787
 49.3396  7342.56  85.2758
 49.3816  7431.76  85.219
 49.4236  7277.04  84.7488
 49.4656  7257.09  84.6525
 49.5076  7324.98  84.7977
 49.5496  7385.71  85.2062
 49.5916  7365.41  85.0114
 49.6336  7338.99  85.0641
 49.6756  7300.38  85.0796
 49.7176  7362.44  85.3797
 49.7596  7379.45  85.2393
 49.8016  7423.06  85.41
 49.8436  7295.16  84.9718
 49.8856  7245.38  84.6791
 49.9276  7233.36  84.7191
 49.9696  7299.55  85.0795
 50.0116  7403.45  85.8228
 50.0536  7343.23  85.4206
 50.0956  7258.89  85.0003
 50.1376  7271.69  84.7663
 50.1796  7183.35  84.5287
 50.2216  7304.87  85.2302
 50.2636  7251.08  84.5181
 50.3056  7227.03  84.5708
 50.3476  7257.04  84.7583
 50.3896  7315.89  85.0794
 50.4316  7302.31  84.8313
 50.4736  7182.8  84.357
 50.5156  7268.46  84.8449
 50.5576  7384.05  85.2702
 50.5996  7204.71  84.5179
 50.6416  7231.77  84.598
 50.6836  7268.05  84.8772
 50.7256  7292.39  84.9394
 50.7676  7312.98  85.3896
 50.8096  7275.6  84.6894
 50.8516  7178.61  84.5508
 50.8936  7187.88  84.3745
 50.9356  7190.28  84.5052
 50.9776  7114.72  84.2161
 51.0196  7071.08  84.0846
 51.0616  7196.39  84.1325
 51.1036  7167.36  84.3285
 51.1456  7138.21  84.0697
 51.1876  7178.42  83.6292
 51.2296  6989.92  83.1628
 51.2716  6963.22  82.7061
 51.3136  6928.76  82.9691
 51.3556  7003.03  83.0214
 51.3976  7099.23  83.7441
 51.4396  6846.35  82.5582
 51.4816  7054.17  83.653
 51.5236  7006.31  83.4588
 51.5656  6986.15  82.9155
 51.6076  6988.57  83.028
 51.6496  6991.43  83.2334
 51.6916  6937.17  83.2752
 51.7336  6915.23  83.2286
 51.7756  7079.87  83.9069
 51.8176  6960.65  83.3117
 51.8596  6913.84  83.0459
 51.9016  7037.82  83.3854
 51.9436  7131.4  85.4624
 51.9856  7053.15  85.4056
 52.0276  7093.31  84.1114
 52.0696  7141.01  84.4759
 52.1116  7082.99  84.2424
 52.1536  7231.52  85.0111
 52.1956  7044.69  83.3515
 52.2376  7248.99  84.7369
 52.2796  7049.27  83.376
 52.3216  6945.03  83.4519
 52.3636  7056.8  83.6727
 52.4056  6961.85  82.965
 52.4476  6907.57  83.0157
 52.4896  6905.16  83.0443
 52.5316  7051.49  83.9891
 52.5736  6962.27  83.161
 52.6156  7078.66  84.2638
 52.6576  6998.33  83.2009
 52.6996  6749.09  82.7014
 52.7416  6832.3  83.06
 52.7836  7038.6  84.1939
 52.8256  7037.84  83.38
 52.8676  6737.8  82.17
 52.9096  6981.5  83.7156
 52.9516  6990.16  84.1665
 52.9936  6977.75  84.469
 53.0356  6977.67  83.4551
 53.0776  7052.9  84.1833
 53.1196  6946.44  83.6705
 53.1616  7000.86  84.0405
 53.2036  6864.01  83.1839
 53.2456  6834.29  83.1105
 53.2876  6948.62  83.4846
 53.3296  7005.56  84.1672
 53.3716  7083.13  84.3703
 53.4136  6878.69  83.2938
 53.4556  6913.54  83.5341
 53.4976  6832.34  82.8777
 53.5396  6895.97  83.675
 53.5816  6863.52  83.1104
 53.6236  6793.82  83.0414
 53.6656  7071.34  84.3035
 53.7076  6922.2  83.3781
 53.7496  6967.76  83.7835
 53.7916  6780.07  82.7827
 53.8336  6873.15  83.2394
 53.8756  6756.07  83.0836
 53.9176  6926.56  83.4444
 53.9596  6542.43  81.8582
 54.0016  6683.89  82.0534
 54.0436  6582.33  81.6598
 54.0856  6699.34  81.7917
 54.1276  6680.42  81.8856
 54.1696  6693.82  82.1383
 54.2116  6891.57  83.0617
 54.2536  6691.94  81.6656
 54.2956  6650  81.4731
 54.3376  6597.73  81.6505
 54.3796  6566.3  81.3313
 54.4216  6751.94  82.5411
 54.4636  6586.29  81.4861
 54.5056  6675.45  81.8376
 54.5476  6546.36  81.3791
 54.5896  6708.97  82.2298
 54.6316  6721.44  82.1529
 54.6736  6700.91  82.0959
 54.7156  6607.88  81.5586
 54.7576  6468.21  80.682
 54.7996  6592.12  81.5845
 54.8416  6606.64  81.7372
 54.8836  6598.61  81.7892
 54.9256  6482.41  80.8212
 54.9676  6536.94  81.0067
 55.0096  6657.48  81.8108
 55.0516  6401.78  80.4483
 55.0936  6526.06  80.8943
 55.1356  6502.07  80.7803
 55.1776  6605.97  81.6706
 55.2196  6463.54  80.5668
 55.2616  6725.06  82.4282
 55.3036  6431.45  80.7544
 55.3456  6368.4  80.5001
 55.3876  6536.59  81.2873
 55.4296  6392.81  80.3946
 55.4716  6475.68  80.9362
 55.5136  6441.76  80.4783
 55.5556  6663.83  81.9119
 55.5976  6447.73  80.6638
 55.6396  6514.65  81.0155
 55.6816  6487.75  80.7164
 55.7236  6373.68  80.051
 55.7656  6425.42  80.1106
 55.8076  6377.47  79.8149
 55.8496  6451.54  80.58
 55.8916  6373.28  80.3054
 55.9336  6607.81  81.6031
 55.9756  6484.85  80.6992
 56.0176  6365.14  80.1124
 56.0596  6425.29  80.4872
 56.1016  6270.4  79.5213
 56.1436  6388.43  80.5206
 56.1856  6274.93  79.5547
 56.2276  6610.91  81.7091
 56.2696  6347.27  80.0451
 56.3116  6421.92  80.8956
 56.3536  6357.32  80.1485
 56.3956  6302.86  79.7846
 56.4376  6298.37  79.8164
 56.4796  6309.97  79.6954
 56.5216  6349.16  80.3052
 56.5636  6344.57  79.8597
 56.6056  6389.95  80.3866
 56.6476  6352.21  79.7381
 56.6896  6470.78  80.9621
 56.7316  6321.91  79.9268
 56.7736  6381.36  80.3169
 56.8156  6418.18  80.5642
 56.8576  6214.65  79.2096
 56.8996  6332.19  79.8874
 56.9416  6364.79  80.3905
 56.9836  6362.72  79.8923
 57.0256  6224.71  79.3383
 57.0676  6370.13  80.3721
 57.1096  6279.25  79.5742
 57.1516  6178.05  78.9901
 57.1936  6328.32  79.6999
 57.2356  6256.42  79.57
 57.2776  6262.75  79.5803
 57.3196  6227.71  79.7009
 57.3616  6351.82  79.9906
 57.4036  6275.63  79.5606
 57.4456  6408.23  80.3851
 57.4876  6281.36  79.4594
 57.5296  6241.88  79.5266
 57.5716  6219.07  79.3858
 57.6136  6142.08  78.7321
 57.6556  6216  79.3236
 57.6976  6358.44  80.0576
 57.7396  6103.95  78.7851
 57.7816  6175.59  79.6295
 57.8236  6224.71  79.7249
 57.8656  6229.78  79.415
 57.9076  6197.47  79.2325
 57.9496  6134.02  79.1907
 57.9916  6244.98  79.4015
 58.0336  6257.19  79.7661
 58.0756  6311.05  79.747
 58.1176  6119.75  78.5223
 58.1596  6117.07  79.0915
 58.2016  6048.1  77.8571
 58.2436  5966.65  77.7346
 58.2856  5898.17  77.2143
 58.3276  5969.82  78.0487
 58.3696  5935.66  77.5873
 58.4116  5994.65  77.8334
 58.4536  5980.05  77.6284
 58.4956  5831.41  76.8322
 58.5376  5991.05  77.4427
 58.5796  5960.96  77.6711
 58.6216  5968.71  77.5477
 58.6636  5912.06  77.3801
 58.7056  5901.97  77.1775
 58.7476  5958.15  77.9739
 58.7896  6003.25  77.9269
 58.8316  5939.41  77.5079
 58.8736  5941.54  77.5319
 58.9156  5905.7  77.3416
 58.9576  5930.65  77.8139
 58.9996  6007.83  77.58
 59.0416  6057.51  78.2592
 59.0836  5916.61  77.2547
 59.1256  5916.33  77.9558
 59.1676  5925.71  78.3262
 59.2096  5972.51  77.9347
 59.2516  5995.15  77.665
 59.2936  5843.59  76.9996
 59.3356  5951.77  77.5878
 59.3776  5754.98  76.4592
 59.4196  5893.75  77.3126
 59.4616  5815.73  76.6615
 59.5036  5835.17  76.8242
 59.5456  6196.83  78.8587
 59.5876  5901  77.1422
 59.6296  5840.11  76.8112
 59.6716  5995.39  77.8834
 59.7136  5970.51  77.71
 59.7556  5921.17  77.5234
 59.7976  5765.15  76.2433
 59.8396  5780.8  76.2433
 59.8816  5749.19  76.5669
 59.9236  5954.57  77.5685
 59.9656  5748.51  76.4689
 60.0076  5857.45  76.5572
 60.0496  5798.44  76.6631
 60.0916  5968.28  77.2005
 60.1336  5883.38  77.7422
 60.1756  5831.25  78.5604
 60.1996  0.0000000E+00  0.0000000E+00