File: docs/examples/opeando_xrd/IS17_D/Data/IS17_D/17_Da_f00105.xye
# /beamlines/bl04/projects/cycle2025-II/20250340211-lsimonelli/DATA/IS17_D/17_Da_f00105.xye : mythproc.py merge -s 0.006 -l 0.5 -f /beamlines/bl04/inhouse/ff/FlatField/ff_20Nov2024rod8mm60s_17keV.raw -b True -c true -o xye /beamlines/bl04/projects/cycle2025-II/20250340211-lsimonelli/DATA/IS17_D/17_Da_00105.dat
# IsMon = [6761169, 6761847, 6763831]  IsPos = [-1.5000, -2.4884, -3.4988]
# Wave = 0.4962  CalPath /beamlines/bl04/projects/cycle2025-II/20250340211-lsimonelli/DATA/Align/Si_Pos1_25keV_f00001.cal
# Date = 2025-09-24_22:48:48 Dt = 4.8000  Bin = 0.0060  <imon> = 6762282 +/- 1130 (Min/Max) 6761169 / 6763831
# icurr 250.4914  mocoIn 1.7089E-05  mocoOut 0.8016  i15 7.08125e+06  imon 6.76228e+06  i7 6.3333  iEMpd_timer 4.8000  iEMpd_1 3.4386E-08  iEMpd_2 7.8446E-08  iEMpd_3 1.8068E-08  iEMpd_4 4.8389E-08  iEMhp_timer 4.8000  iEMhp_1 4.8925E-06  iEMhp_2 -2.4658E-08  iEMhp_3 -2.4441E-08  iEMhp_4 -2.1034E-08
#      9776
 1.5856  40574.7  206.855
 1.6276  47930  220.966
 1.6696  54500.1  234.794
 1.7116  63231.1  253.397
 1.7536  72431.9  270.052
 1.7956  77134.2  279.376
 1.8376  73270.3  272.721
 1.8796  61702.6  248.424
 1.9216  50266.2  225.119
 1.9636  42847  207.514
 2.0056  38283.3  194.899
 2.0476  35858.5  190.693
 2.0896  34209.8  185.166
 2.1316  33704.6  182.91
 2.1736  31669.4  178.708
 2.2156  32433.9  179.401
 2.2576  31383.5  177.1
 2.2996  30212.8  174.408
 2.3416  30639.9  174.231
 2.3836  30224.5  173.156
 2.4256  29506.5  171.644
 2.4676  28490.2  168.423
 2.5096  28684.4  169.052
 2.5516  27833.2  170.38
 2.5936  28228.5  168.119
 2.6356  27670.8  167.152
 2.6776  27513.3  165.542
 2.7196  27260.8  165.313
 2.7616  27046.7  164.433
 2.8036  26779.8  163.797
 2.8456  26724.5  164.253
 2.8876  26261.7  162.7
 2.9296  25915.1  161.751
 2.9716  25598  160.241
 3.0136  25183.4  159.007
 3.0556  25186.1  159.419
 3.0976  25169.7  158.283
 3.1396  25091.8  158.772
 3.1816  24659.2  157.328
 3.2236  24459.3  156.681
 3.2656  24328.6  155.292
 3.3076  24285.6  156.63
 3.3496  24492.3  156.214
 3.3916  24448.5  155.902
 3.4336  24977  158.162
 3.4756  25266.2  159.005
 3.5176  26225  161.78
 3.5596  25935.8  163.881
 3.6016  26225.5  161.832
 3.6436  25362  160.256
 3.6856  24885.1  157.026
 3.7276  23913.8  155.027
 3.7696  23699.3  154.317
 3.8116  23293  153.081
 3.8536  23487.8  153.646
 3.8956  23387.5  153.147
 3.9376  23285.9  153.069
 3.9796  23001.8  151.642
 4.0216  23167.5  151.222
 4.0636  23015.9  152.203
 4.1056  23235.3  152.562
 4.1476  23168.9  152.662
 4.1896  23400.3  153.276
 4.2316  23613.6  153.802
 4.2736  23955.8  154.7
 4.3156  24430.1  156.449
 4.3576  25205.5  158.841
 4.3996  25253.4  159.253
 4.4416  25729.7  160.332
 4.4836  26286  162.209
 4.5256  26796.8  164.394
 4.5676  26606  164.062
 4.6096  27087.4  164.555
 4.6516  27590.7  165.42
 4.6936  27815.2  166.904
 4.7356  27862  166.877
 4.7776  27838  166.636
 4.8196  27633.2  166.675
 4.8616  27073.9  164.464
 4.9036  26800.2  163.372
 4.9456  26664  163.608
 4.9876  26118.9  161.825
 5.0296  26415.9  162.564
 5.0716  26581.5  163.85
 5.1136  26625.9  163.697
 5.1556  26707.9  163.41
 5.1976  27087.1  164.562
 5.2396  27289.6  164.869
 5.2816  27322.3  165.436
 5.3236  27272.6  164.988
 5.3656  26944.4  164.913
 5.4076  26606.1  164.025
 5.4496  26583.8  163.444
 5.4916  26949.1  164.32
 5.5336  26898.4  164.171
 5.5756  26376.8  162.606
 5.6176  27015.8  163.993
 5.6596  27155.9  165.246
 5.7016  27308.2  165.121
 5.7436  27570.7  166.188
 5.7856  27314.7  165.474
 5.8276  27545.2  165.89
 5.8696  27498.8  165.812
 5.9116  27639.8  166.954
 5.9536  27844  167.319
 5.9956  28083.7  167.41
 6.0376  28316.7  168.737
 6.0796  28419.8  168.875
 6.1216  28451.3  169.171
 6.1636  28617.3  168.724
 6.2056  28615.4  169.383
 6.2476  28807.7  169.648
 6.2896  29159.2  170.541
 6.3316  28909.1  169.98
 6.3736  29219.5  170.784
 6.4156  29084  170.341
 6.4576  29368  170.719
 6.4996  29483.5  171.533
 6.5416  29800.1  172.592
 6.5836  29666.4  172.434
 6.6256  29751.3  172.244
 6.6676  30257.2  173.267
 6.7096  30021.1  173.444
 6.7516  30602.2  174.766
 6.7936  30775.1  174.682
 6.8356  30822.4  174.897
 6.8776  31225.8  176.843
 6.9196  31070.3  176.807
 6.9616  31628.9  177.831
 7.0036  31883.1  178.19
 7.0456  31874.9  177.464
 7.0876  32015.8  179.472
 7.1296  31868.5  178.276
 7.1716  31772.6  177.54
 7.2136  31668.3  177.033
 7.2556  31841.8  177.678
 7.2976  31878.7  178.282
 7.3396  31768.4  178.187
 7.3816  31768.7  178.403
 7.4236  31664.9  177.402
 7.4656  32114.8  178.145
 7.5076  32300.8  178.793
 7.5496  32292  179.305
 7.5916  32370.4  179.557
 7.6336  32715  180.407
 7.6756  32876  180.7
 7.7176  33103  181.633
 7.7596  33068  182.788
 7.8016  33555.5  186.309
 7.8436  33991.1  184.179
 7.8856  34203.6  184.363
 7.9276  34728.7  186.165
 7.9696  34866.1  186.85
 8.0116  36084.4  188.611
 8.0536  36056  188.786
 8.0956  35989.7  189.804
 8.1376  36610.5  190.9
 8.1796  36418.1  190.945
 8.2216  37588.7  192.713
 8.2636  37756.4  193.393
 8.3056  37371.7  193.174
 8.3476  38282  194.841
 8.3896  37866.2  193.862
 8.4316  38237.3  194.974
 8.4736  38131.7  194.168
 8.5156  37951.9  193.987
 8.5576  37363  193.457
 8.5996  37558.1  192.822
 8.6416  37352  193.561
 8.6836  37102.8  192.738
 8.7256  37587.3  193.446
 8.7676  37093.7  195.066
 8.8096  37095.5  192.385
 8.8516  36572.6  190.688
 8.8936  36619  190.634
 8.9356  36260  190.053
 8.9776  36580.7  190.993
 9.0196  36072.9  189.339
 9.0616  36210  189.144
 9.1036  35876.3  189.466
 9.1456  36015.1  189.191
 9.1876  36093.2  189.353
 9.2296  36073.9  188.702
 9.2716  35246.7  186.59
 9.3136  35706.7  187.789
 9.3556  35519.2  187.278
 9.3976  34049.5  183.892
 9.4396  34866.3  185.969
 9.4816  34268  184.235
 9.5236  34032.1  183.509
 9.5656  33863.2  183.377
 9.6076  33667.4  183.367
 9.6496  33713.8  183.421
 9.6916  33859.6  183.784
 9.7336  33456.8  182.472
 9.7756  33688  184.216
 9.8176  32719.1  181.199
 9.8596  32922.4  180.211
 9.9016  32598.1  179.316
 9.9436  32196.6  177.958
 9.9856  31688.7  176.948
 10.0276  31098.5  176.377
 10.0696  31850.6  177.535
 10.1116  30745.3  174.688
 10.1536  30328.8  173.176
 10.1956  30242.5  173.019
 10.2376  29812.6  171.296
 10.2796  29789.4  171.353
 10.3216  29873.9  171.722
 10.3636  29347.4  170.378
 10.4056  28943  169.592
 10.4476  29049.4  169.529
 10.4896  29078  169.072
 10.5316  28571.2  167.967
 10.5736  28357.5  168.061
 10.6156  27823.9  166.246
 10.6576  28207.9  165.971
 10.6996  27610.7  164.858
 10.7416  27524.9  164.845
 10.7836  27635.7  165.847
 10.8256  27411.2  165.599
 10.8676  27440.1  165.226
 10.9096  26723.3  163.09
 10.9516  26799.6  162.257
 10.9936  26733.4  162.258
 11.0356  26518.6  162.233
 11.0776  26467.9  161.394
 11.1196  25937.6  160.516
 11.1616  25863.2  159.974
 11.2036  25813.3  159.674
 11.2456  25712.5  160.058
 11.2876  25861  160.251
 11.3296  25529.9  159.115
 11.3716  25993  160.29
 11.4136  25561.4  159.805
 11.4556  25605.4  159.61
 11.4976  25819.1  159.251
 11.5396  26174  160.524
 11.5816  26643.7  162.403
 11.6236  27228.5  164.41
 11.6656  27036.2  162.969
 11.7076  25973  160.576
 11.7496  25494.3  163.025
 11.7916  25413.5  158.098
 11.8336  25145  158.147
 11.8756  24732.5  156.383
 11.9176  25006.3  156.905
 11.9596  24621.9  155.883
 12.0016  24472  156.194
 12.0436  24675.1  156.263
 12.0856  24180.3  155.212
 12.1276  24256.4  155.374
 12.1696  24185.8  154.287
 12.2116  24497.4  155.273
 12.2536  23785.2  153.793
 12.2956  24104.2  154.185
 12.3376  23812.1  153.458
 12.3796  24118.3  154.892
 12.4216  23899.6  153.419
 12.4636  23660.1  153.552
 12.5056  23933.9  153.716
 12.5476  24012.3  153.499
 12.5896  24068.4  154.305
 12.6316  23572.2  152.87
 12.6736  23700  153.759
 12.7156  23691  153.598
 12.7576  23630.4  153.635
 12.7996  24005  153.5
 12.8416  23761  153.763
 12.8836  24178.8  154.938
 12.9256  24392  154.642
 12.9676  24401.6  155.088
 13.0096  24110.8  155.261
 13.0516  24530.3  155.631
 13.0936  24549.8  155.819
 13.1356  24990.4  156.471
 13.1776  24607.9  156.258
 13.2196  24926.2  156.92
 13.2616  24881.8  157.093
 13.3036  24599.6  156.34
 13.3456  24808.6  157.189
 13.3876  24610  155.855
 13.4296  24600.6  155.972
 13.4716  24656.9  155.756
 13.5136  24749.8  156.207
 13.5556  24611.2  156.386
 13.5976  24827.2  157.22
 13.6396  24773.2  156.409
 13.6816  24178.4  154.888
 13.7236  25137.9  157.705
 13.7656  24410.3  155.933
 13.8076  24500.1  155.005
 13.8496  24436.8  155.589
 13.8916  24279.1  155.902
 13.9336  24430.1  155.613
 13.9756  23974.7  153.506
 14.0176  24052.3  154.43
 14.0596  23974.5  154.154
 14.1016  23990.7  154.604
 14.1436  23485.6  152.104
 14.1856  23318.9  151.855
 14.2276  22992.1  151.267
 14.2696  23399.2  152.446
 14.3116  23073.4  151.281
 14.3536  22814.8  150.609
 14.3956  22656.6  149.816
 14.4376  22939.9  150.526
 14.4796  22718.4  149.787
 14.5216  22499.1  149.863
 14.5636  22165.5  148.316
 14.6056  22343.4  148.482
 14.6476  22166.2  147.127
 14.6896  21965.5  147
 14.7316  21580.1  146.734
 14.7736  21495.2  145.592
 14.8156  21233.2  144.734
 14.8576  21272  144.713
 14.8996  20951.6  144.833
 14.9416  20474.8  143.167
 14.9836  20561.4  143.442
 15.0256  20259  141.307
 15.0676  20346.3  141.925
 15.1096  20320.8  141.574
 15.1516  20056.3  141.215
 15.1936  20097.7  140.779
 15.2356  19594.9  139.286
 15.2776  19746.3  139.404
 15.3196  19274  138.733
 15.3616  19330.6  138.686
 15.4036  19058.5  137.57
 15.4456  19279.6  138.01
 15.4876  18996.7  136.673
 15.5296  18869.8  136.499
 15.5716  18577.6  135.043
 15.6136  18537.4  135.228
 15.6556  18744.2  135.212
 15.6976  18490.3  134.594
 15.7396  18305.2  134.297
 15.7816  18239.4  133.566
 15.8236  17948.4  133.199
 15.8656  17883.2  132.751
 15.9076  17640.2  131.673
 15.9496  17479.7  133.842
 15.9916  17601.8  134.745
 16.0336  17335.7  130.634
 16.0756  17407.5  131.211
 16.1176  17347.1  130.894
 16.1596  16770.2  130.024
 16.2016  17126.6  130.139
 16.2436  16785.2  129.222
 16.2856  16689.4  128.399
 16.3276  16619.3  128.546
 16.3696  16888.8  129.4
 16.4116  16412.6  128.031
 16.4536  16891.4  129.658
 16.4956  16577  128.185
 16.5376  16413.6  127.735
 16.5796  16462.3  127.285
 16.6216  16589.9  128.085
 16.6636  16269.1  126.996
 16.7056  16300.3  126.987
 16.7476  16276.6  126.424
 16.7896  16354.6  127.473
 16.8316  16371.4  127.513
 16.8736  16092.1  126.675
 16.9156  16210.5  127.468
 16.9576  16006.8  127.467
 16.9996  16273.3  129.009
 17.0416  16396.5  127.85
 17.0836  16354.8  127.445
 17.1256  16152.2  126.664
 17.1676  16139.6  126.608
 17.2096  16019.9  126.012
 17.2516  15906.4  125.646
 17.2936  15945.6  125.82
 17.3356  15633.2  124.595
 17.3776  15506.6  124.278
 17.4196  15705.7  124.762
 17.4616  15378.8  123.379
 17.5036  15253.6  123.24
 17.5456  15164  123.519
 17.5876  15117.7  122.377
 17.6296  15148.5  122.303
 17.6716  14951.2  122.089
 17.7136  14743.1  121.381
 17.7556  14795  121.884
 17.7976  14739.5  121.399
 17.8396  14543.4  120.092
 17.8816  14775.9  121.591
 17.9236  14473.3  120.153
 17.9656  14771.5  121.915
 18.0076  14600.5  120.789
 18.0496  14593.5  119.901
 18.0916  14570.6  120.339
 18.1336  14574.7  120.452
 18.1756  14540.9  119.853
 18.2176  14282.2  119.006
 18.2596  14413.1  119.285
 18.3016  14440.9  119.654
 18.3436  14438.5  119.645
 18.3856  14224.6  118.89
 18.4276  14453  119.517
 18.4696  14202.7  118.57
 18.5116  14247.4  119.045
 18.5536  14401.7  120.038
 18.5956  14092.9  118.307
 18.6376  14096.1  118.724
 18.6796  13981.6  117.573
 18.7216  14282.2  119.316
 18.7636  14014.6  118.172
 18.8056  14009.7  118.101
 18.8476  13977.6  118.584
 18.8896  14062.2  118.283
 18.9316  14094.5  118.404
 18.9736  13968.1  117.565
 19.0156  13932.5  117.827
 19.0576  13945.3  116.754
 19.0996  14142.1  118.283
 19.1416  13781.3  117.146
 19.1836  13907.2  117.29
 19.2256  13712.3  116.674
 19.2676  13942.6  117.743
 19.3096  14001.1  118.233
 19.3516  13806.2  117.194
 19.3936  13803  117.257
 19.4356  13901.6  117.545
 19.4776  13803.8  117.227
 19.5196  13882.5  117.409
 19.5616  13810.5  117.36
 19.6036  13867.5  117.1
 19.6456  13852.6  117.156
 19.6876  13958.8  117.258
 19.7296  13872.1  117.344
 19.7716  13738.4  116.937
 19.8136  13764.3  117.258
 19.8556  13910.1  117.355
 19.8976  13949.8  117.591
 19.9396  13974.1  117.271
 19.9816  14230.1  118.573
 20.0236  14338  119.249
 20.0656  14485  119.854
 20.1076  14522.9  120.485
 20.1496  14757.8  121.454
 20.1916  15105  122.328
 20.2336  14915.7  121.54
 20.2756  14549  120.47
 20.3176  14047.3  118.122
 20.3596  14129  118.436
 20.4016  13937.7  117.436
 20.4436  13777.3  117.314
 20.4856  13500.5  115.93
 20.5276  13531.3  116.518
 20.5696  13459.2  115.766
 20.6116  13409.1  115.729
 20.6536  13507.5  115.66
 20.6956  13301.8  114.897
 20.7376  13419.9  115.638
 20.7796  13310.6  114.853
 20.8216  13437.5  115.103
 20.8636  13158.7  114.271
 20.9056  13095.1  113.949
 20.9476  13138.1  113.976
 20.9896  13327.4  114.657
 21.0316  13369.7  114.735
 21.0736  13086.2  114.031
 21.1156  13228.8  114.811
 21.1576  13234.7  114.886
 21.1996  13095.5  114.26
 21.2416  13000.7  113.681
 21.2836  13151.9  114.297
 21.3256  12990  113.675
 21.3676  13085.6  113.645
 21.4096  13014.7  113.698
 21.4516  12894.3  112.999
 21.4936  12737.3  112.559
 21.5356  13057.2  113.908
 21.5776  13028.4  113.616
 21.6196  12757.9  112.455
 21.6616  12799.6  112.738
 21.7036  12934.5  113.105
 21.7456  12862.3  112.87
 21.7876  12799.1  112.342
 21.8296  12805.4  112.227
 21.8716  12744.7  112.194
 21.9136  12915.7  113.137
 21.9556  12729.1  111.993
 21.9976  12750.4  112.104
 22.0396  12622.7  111.795
 22.0816  12734.6  112.828
 22.1236  12745.9  112.33
 22.1656  12846  112.89
 22.2076  12764.7  112.012
 22.2496  12816.9  112.271
 22.2916  12826  112.188
 22.3336  12578.3  111.825
 22.3756  12718.3  112.165
 22.4176  12615.1  111.564
 22.4596  12554.6  111.88
 22.5016  12869.3  112.763
 22.5436  12817.5  112.42
 22.5856  12584.8  111.643
 22.6276  12606.6  111.877
 22.6696  12702.2  112.651
 22.7116  12524.8  111.378
 22.7536  12523.2  111.343
 22.7956  12750.9  111.682
 22.8376  12613.8  111.599
 22.8796  12591  111.296
 22.9216  12662  112.16
 22.9636  12736.1  111.637
 23.0056  12616.2  111.244
 23.0476  12651.4  111.969
 23.0896  12952.9  112.669
 23.1316  12753.3  112.234
 23.1736  12590.3  114.467
 23.2156  12701.1  112.333
 23.2576  12789.8  112.861
 23.2996  12859  112.945
 23.3416  12665.9  112.615
 23.3836  12699  111.992
 23.4256  12818.4  112.636
 23.4676  12850.9  112.467
 23.5096  12425.8  111.267
 23.5516  12652.8  111.562
 23.5936  12707.1  112.704
 23.6356  12773.1  112.659
 23.6776  12643.5  112.303
 23.7196  12465.8  111.302
 23.7616  12570.9  111.472
 23.8036  12596.2  111.627
 23.8456  12594.4  111.182
 23.8876  12228.7  109.916
 23.9296  12333.4  110.874
 23.9716  12487.2  110.741
 24.0136  12422.3  111.357
 24.0556  12315.9  110.62
 24.0976  12134.8  109.601
 24.1396  12168.8  112.415
 24.1816  12240  111.163
 24.2236  12219.8  110.682
 24.2656  12006.6  109.186
 24.3076  12003.8  109.423
 24.3496  12039.7  109.475
 24.3916  11918.9  108.976
 24.4336  11864.7  108.937
 24.4756  11875.4  108.859
 24.5176  11674.3  107.581
 24.5596  11645  107.768
 24.6016  11680.4  108.022
 24.6436  11677.7  107.508
 24.6856  11648.9  107.131
 24.7276  11556.7  107.022
 24.7696  11469  106.727
 24.8116  11500.8  107.046
 24.8536  11543.8  107.25
 24.8956  11427.4  106.439
 24.9376  11283  105.949
 24.9796  11298.7  106.136
 25.0216  11201.9  105.792
 25.0636  11302.1  105.918
 25.1056  11071.8  105.532
 25.1476  11246.8  108.011
 25.1896  11294.3  106.716
 25.2316  11420.4  106.578
 25.2736  11231.7  105.354
 25.3156  11141.2  105.002
 25.3576  11212.3  105.763
 25.3996  11129.6  105.353
 25.4416  11113.4  105.257
 25.4836  10937.1  104.932
 25.5256  11068.8  104.935
 25.5676  11117.1  104.895
 25.6096  10800.9  103.957
 25.6516  10991.9  104.375
 25.6936  10914.8  104.314
 25.7356  11011.6  104.913
 25.7776  11013.9  104.606
 25.8196  10847  103.967
 25.8616  10944.8  104.359
 25.9036  11061.2  104.383
 25.9456  10960.5  104.504
 25.9876  10845  103.872
 26.0296  10998.3  104.26
 26.0716  10762.6  103.554
 26.1136  10892.1  104.114
 26.1556  11018  104.093
 26.1976  10846  104.205
 26.2396  10806.5  103.174
 26.2816  10898.4  104.22
 26.3236  10799.8  103.907
 26.3656  10735.3  103.321
 26.4076  10945.3  104.542
 26.4496  11455.5  106.391
 26.4916  10973.3  104.16
 26.5336  10909.5  104.188
 26.5756  11104.8  104.977
 26.6176  10845.7  103.796
 26.6596  10756.1  103.671
 26.7016  10799.2  103.637
 26.7436  10600.1  102.811
 26.7856  10618.2  102.878
 26.8276  10670.8  103.089
 26.8696  10690.5  103.058
 26.9116  10626  102.684
 26.9536  10509.6  102.17
 26.9956  10575.6  102.524
 27.0376  10482.3  102.285
 27.0796  10542.6  102.31
 27.1216  10445.3  101.913
 27.1636  10487.8  102.287
 27.2056  10445.9  101.964
 27.2476  10435.6  101.914
 27.2896  10484.1  102.261
 27.3316  10348.3  101.308
 27.3736  10400.9  101.832
 27.4156  10314.1  101.251
 27.4576  10225.1  101.043
 27.4996  10261.4  100.822
 27.5416  10292.3  101.288
 27.5836  10278.1  101.032
 27.6256  10583.9  102.682
 27.6676  10532.3  102.462
 27.7096  10115.1  100.276
 27.7516  10286.3  101.278
 27.7936  10074.9  100.403
 27.8356  10168.1  100.483
 27.8776  10123.1  100.304
 27.9196  9994.69  99.5206
 27.9616  10184.8  100.649
 28.0036  10011.4  99.7723
 28.0456  10154.2  100.6
 28.0876  10031.2  100.088
 28.1296  10017.1  99.8567
 28.1716  10021.3  99.8888
 28.2136  10044.1  99.9686
 28.2556  9927.95  99.5019
 28.2976  9952.78  99.6137
 28.3396  9933.41  99.2752
 28.3816  10087.1  100.067
 28.4236  10017.4  99.8737
 28.4656  9758.01  98.6066
 28.5076  9821.27  98.5661
 28.5496  9860.76  99.0231
 28.5916  9976.11  99.4047
 28.6336  9744.86  98.5871
 28.6756  9974.93  98.9466
 28.7176  9824.86  98.7418
 28.7596  9711.88  98.0728
 28.8016  9836.47  98.7375
 28.8436  9695.85  98.2672
 28.8856  9777.37  98.532
 28.9276  9882.49  99.3069
 28.9696  9801.51  98.548
 29.0116  9797.8  98.7211
 29.0536  9725.73  98.5599
 29.0956  9639.81  97.8419
 29.1376  9677.49  97.9957
 29.1796  9714.17  98.2282
 29.2216  9688.12  97.9388
 29.2636  9602.83  97.5822
 29.3056  9780.23  98.2683
 29.3476  9686.04  98.3143
 29.3896  9839.1  99.1771
 29.4316  9883.19  98.7411
 29.4736  9729.12  98.03
 29.5156  9803.09  98.3255
 29.5576  9681.88  98.4576
 29.5996  9752.35  98.0667
 29.6416  9852.3  98.6903
 29.6836  9565.2  97.166
 29.7256  9583.2  97.8233
 29.7676  9584.3  97.4903
 29.8096  9735.16  98.1976
 29.8516  9517.19  97.4233
 29.8936  9544.24  97.6564
 29.9356  9642.82  97.9122
 29.9776  9556.12  97.6261
 30.0196  9604.48  97.2542
 30.0616  9592.34  97.572
 30.1036  9531.89  97.0874
 30.1456  9496.12  97.1369
 30.1876  9475.82  97.016
 30.2296  9449.52  96.8224
 30.2716  9598.96  97.2268
 30.3136  9550.44  97.8385
 30.3556  9517.27  97.6845
 30.3976  9397.19  98.5824
 30.4396  9390.79  95.9011
 30.4816  9467.16  95.8892
 30.5236  9418.26  95.6601
 30.5656  9361.42  96.0181
 30.6076  9427.38  96.1325
 30.6496  9432.85  96.1958
 30.6916  9322.54  95.7277
 30.7336  9453.39  96.551
 30.7756  9493.5  96.8486
 30.8176  9384.31  96.2049
 30.8596  9398.25  96.0479
 30.9016  9298.62  95.4099
 30.9436  9427.19  96.2879
 30.9856  9470.99  96.6188
 31.0276  9382.43  95.777
 31.0696  9331.3  96.0875
 31.1116  9315.25  95.9835
 31.1536  9401.49  96.3088
 31.1956  9345.87  96.1116
 31.2376  9230.8  95.5228
 31.2796  9364.76  95.7513
 31.3216  9304.18  95.39
 31.3636  9279.34  95.9534
 31.4056  9197.55  96.842
 31.4476  9237.17  94.9454
 31.4896  9286  95.7005
 31.5316  9229.06  94.8071
 31.5736  9445.51  95.7339
 31.6156  9198.63  94.4911
 31.6576  9289.21  95.053
 31.6996  9307.1  94.8185
 31.7416  8969.59  93.9945
 31.7836  9301.4  94.8623
 31.8256  9131.19  94.2633
 31.8676  9249.99  94.8712
 31.9096  9055.72  94.082
 31.9516  8915.66  93.6378
 31.9936  9097.39  94.4239
 32.0356  9094.6  94.476
 32.0776  9021.41  93.9807
 32.1196  9113.98  94.4692
 32.1616  9118.09  94.0344
 32.2036  8918.67  93.5025
 32.2456  9059.26  94.6167
 32.2876  9026.3  93.944
 32.3296  8944.72  93.4847
 32.3716  8939.68  93.5574
 32.4136  9080.22  94.5009
 32.4556  9025.39  93.5991
 32.4976  9068.93  93.7767
 32.5396  9103.61  93.9848
 32.5816  8823.46  92.6451
 32.6236  8993.75  93.6064
 32.6656  9024.64  94.3051
 32.7076  9006  93.8618
 32.7496  9003.6  93.5182
 32.7916  8875.93  92.8115
 32.8336  9012.57  93.6209
 32.8756  9097.99  93.7847
 32.9176  8944.65  93.4715
 32.9596  8911.61  93.3631
 33.0016  8847.46  92.8291
 33.0436  8957.16  93.5763
 33.0856  8953.49  93.6259
 33.1276  8776.31  92.4278
 33.1696  8949.01  93.1803
 33.2116  8928.9  93.3014
 33.2536  8993.65  93.6422
 33.2956  8896.76  93.2199
 33.3376  8870.92  92.9031
 33.3796  8849.19  92.917
 33.4216  9001.04  93.3023
 33.4636  8904.19  92.9516
 33.5056  8726.89  92.2555
 33.5476  8743.82  92.3392
 33.5896  8938.81  93.129
 33.6316  8847.78  92.9795
 33.6736  8800.61  92.97
 33.7156  8884.04  93.4556
 33.7576  8871.23  93.006
 33.7996  8988.93  93.3899
 33.8416  8626.88  91.672
 33.8836  8788.33  92.3038
 33.9256  8768.42  92.268
 33.9676  8766.87  92.153
 34.0096  8621.01  91.697
 34.0516  8643.86  91.4564
 34.0936  8702.01  92.0294
 34.1356  8721.83  91.874
 34.1776  8759.07  92.0838
 34.2196  8583.83  91.3351
 34.2616  8653.45  91.8395
 34.3036  8520.36  91.3781
 34.3456  8665.35  91.9098
 34.3876  8647.67  91.8671
 34.4296  8715.84  91.8246
 34.4716  8713.5  91.9598
 34.5136  8623.69  91.6933
 34.5556  8604.15  91.842
 34.5976  8661.67  91.9858
 34.6396  8517.24  90.8899
 34.6816  8477.25  90.793
 34.7236  8643.92  91.465
 34.7656  8588.95  91.369
 34.8076  8446.63  90.9263
 34.8496  8530.78  91.2354
 34.8916  8644.42  91.7202
 34.9336  8574.98  91.3117
 34.9756  8585.7  91.3237
 35.0176  8668.8  92.2637
 35.0596  8506.42  91.2171
 35.1016  8589.87  91.4355
 35.1436  8678.27  91.586
 35.1856  8468.61  90.6036
 35.2276  8630.7  91.6382
 35.2696  8536.48  91.3318
 35.3116  8604.52  91.7868
 35.3536  8443.18  90.6654
 35.3956  8488.02  90.5838
 35.4376  8508.85  91.2496
 35.4796  8492.03  91.2198
 35.5216  8446.11  90.9272
 35.5636  8260.13  90.6638
 35.6056  8499.2  90.9798
 35.6476  8452.58  90.6236
 35.6896  8568.54  91.3333
 35.7316  8425.77  90.5374
 35.7736  8469.23  90.9777
 35.8156  8371.8  90.4474
 35.8576  8408.7  90.8958
 35.8996  8573.68  91.75
 35.9416  8523.32  90.9845
 35.9836  8369.58  90.6037
 36.0256  8387.2  90.6269
 36.0676  8403.91  90.4758
 36.1096  8283.6  89.9575
 36.1516  8505.03  91.0436
 36.1936  8222.78  89.3678
 36.2356  8333.75  90.6079
 36.2776  8292.98  89.8594
 36.3196  8357.27  89.8882
 36.3616  8345.53  89.9562
 36.4036  8387.68  90.2419
 36.4456  8416.69  90.6071
 36.4876  8279.66  89.7998
 36.5296  8282.6  89.863
 36.5716  8175.15  90.0554
 36.6136  8349.5  89.7734
 36.6556  8442.38  90.4746
 36.6976  8219.55  89.7725
 36.7396  8282.25  89.845
 36.7816  8387.42  90.7924
 36.8236  8353.78  90.5317
 36.8656  8227.8  89.9143
 36.9076  8137.56  89.3018
 36.9496  8185.4  89.5503
 36.9916  8193.39  89.2271
 37.0336  8293.95  90.0864
 37.0756  8189.73  89.3137
 37.1176  8096.94  89.0741
 37.1596  8200.05  89.6269
 37.2016  8126.92  89.4704
 37.2436  8228.23  89.3401
 37.2856  8165.71  89.259
 37.3276  8144.67  88.4871
 37.3696  8092.54  89.0926
 37.4116  8223  89.7038
 37.4536  8252.08  89.7383
 37.4956  8105.84  88.9801
 37.5376  8131.81  90.6943
 37.5796  8141.1  90.6896
 37.6216  8028.06  88.3276
 37.6636  7938.53  87.7409
 37.7056  8058.29  88.5896
 37.7476  8137.55  88.5611
 37.7896  8128.18  89.0093
 37.8316  7937.68  88.1315
 37.8736  8061.29  88.3362
 37.9156  8042.01  88.2344
 37.9576  7945.45  87.5878
 37.9996  7989.24  87.5551
 38.0416  7997.51  88.4109
 38.0836  8071.49  88.7216
 38.1256  8086.28  88.7578
 38.1676  7870.86  87.7067
 38.2096  7878.61  87.3759
 38.2516  8104.63  88.8234
 38.2936  8000.23  88.0512
 38.3356  8100.6  88.5136
 38.3776  7913.57  87.7622
 38.4196  8022.56  88.2147
 38.4616  7979.34  88.2152
 38.5036  8002.38  88.1852
 38.5456  7942.06  88.6903
 38.5876  7924.37  88.6248
 38.6296  7819.15  87.0186
 38.6716  7817.77  86.8059
 38.7136  7795.66  86.6273
 38.7556  7832.44  87.3328
 38.7976  7867.97  87.4678
 38.8396  7843.87  87.7851
 38.8816  7758.36  87.0897
 38.9236  7866.74  87.506
 38.9656  7913.15  87.6756
 39.0076  7907.14  87.053
 39.0496  7769.83  86.8291
 39.0916  7927.68  87.3508
 39.1336  7855.48  87.3627
 39.1756  7898.71  87.6736
 39.2176  7827.04  87.8011
 39.2596  7731.19  87.1851
 39.3016  7934.62  87.888
 39.3436  7771.93  87.4129
 39.3856  8035.72  88.3263
 39.4276  7859.37  87.8456
 39.4696  7880.13  87.5853
 39.5116  7747.61  87.3578
 39.5536  8003.77  89.2146
 39.5956  8058.97  88.6152
 39.6376  7934.53  87.9317
 39.6796  7916.85  87.5764
 39.7216  7932.65  87.7544
 39.7636  7871.73  87.9871
 39.8056  7887.64  87.8547
 39.8476  7834.17  87.8168
 39.8896  7861.09  87.5975
 39.9316  7790.05  87.4542
 39.9736  7925.72  87.7801
 40.0156  7939.44  87.6659
 40.0576  7940.07  88.0468
 40.0996  8042.17  87.7861
 40.1416  7961.67  88.1386
 40.1836  8020.43  88.3511
 40.2256  7962.28  88.0796
 40.2676  7891.82  87.8563
 40.3096  7942.2  87.9984
 40.3516  8001.64  88.4294
 40.3936  8118.33  88.6344
 40.4356  7971.8  88.0278
 40.4776  7962.91  88.2263
 40.5196  7890.03  88.1058
 40.5616  8048.24  88.6279
 40.6036  7837.65  87.7152
 40.6456  8042.43  88.4564
 40.6876  8083.54  88.6686
 40.7296  7980.5  88.2409
 40.7716  7941.29  88.1505
 40.8136  7919.47  87.9774
 40.8556  7928.95  88.1601
 40.8976  7952.23  88.2105
 40.9396  7907.43  88.3117
 40.9816  8069.9  88.4878
 41.0236  8025.25  88.0254
 41.0656  8231.93  89.7028
 41.1076  8085.94  88.6713
 41.1496  8110.91  88.7172
 41.1916  7989.08  88.375
 41.2336  7868.3  87.6954
 41.2756  7992.47  87.9879
 41.3176  7976.12  88.5132
 41.3596  8028.44  88.5335
 41.4016  7887.55  88.005
 41.4436  8049.84  88.6954
 41.4856  7933.13  88.2077
 41.5276  7917.2  88.1433
 41.5696  7876.34  87.5426
 41.6116  7869.42  87.9042
 41.6536  8069.7  88.8725
 41.6956  7966.56  88.2836
 41.7376  7816  87.5438
 41.7796  7855.7  87.645
 41.8216  7966.53  88.504
 41.8636  7947.84  88.3339
 41.9056  7884.18  87.7667
 41.9476  7970.73  88.4833
 41.9896  7904.32  87.782
 42.0316  7969.3  88.227
 42.0736  7999.35  88.5381
 42.1156  7831.89  87.4142
 42.1576  7818.08  87.4375
 42.1996  7932.46  88.2169
 42.2416  7890.67  87.5638
 42.2836  7918.63  87.8316
 42.3256  7908.04  87.8851
 42.3676  7794.01  87.0603
 42.4096  7906.07  87.6403
 42.4516  7887.06  87.6266
 42.4936  7754.19  86.956
 42.5356  7840.76  87.5689
 42.5776  7846.59  87.5415
 42.6196  7835.15  87.5338
 42.6616  7766.72  87.323
 42.7036  7796.32  86.8746
 42.7456  7830.45  87.4229
 42.7876  7776.48  87.2235
 42.8296  7875.55  87.6048
 42.8716  7750.8  87.0645
 42.9136  7815.91  87.1816
 42.9556  7807.5  87.3094
 42.9976  7868.99  87.6145
 43.0396  7779.76  86.8469
 43.0816  7735.64  86.9718
 43.1236  7755.75  87.149
 43.1656  7777.18  87.0947
 43.2076  7778.05  87.2032
 43.2496  7727.82  86.74
 43.2916  7742.43  87.1872
 43.3336  7802.59  87.3609
 43.3756  7701.22  86.5512
 43.4176  7595  86.0321
 43.4596  7719.94  86.5924
 43.5016  7773.28  87.2956
 43.5436  7645.01  86.4743
 43.5856  7663.48  86.5991
 43.6276  7660.41  86.4801
 43.6696  7608.96  86.4474
 43.7116  7759.75  86.798
 43.7536  7689.99  86.8938
 43.7956  7576.59  87.4324
 43.8376  7622.45  86.2478
 43.8796  7654.31  86.5054
 43.9216  7600.67  86.1207
 43.9636  7638.33  86.4357
 44.0056  7741.59  87.2561
 44.0476  7545.9  85.777
 44.0896  7568.6  86.251
 44.1316  7646.08  86.2127
 44.1736  7440.6  85.1685
 44.2156  7565.19  85.7389
 44.2576  7533.75  85.8787
 44.2996  7645.93  86.4901
 44.3416  7556.15  85.739
 44.3836  7487.06  85.6732
 44.4256  7472.77  85.2363
 44.4676  7505.87  85.5818
 44.5096  7508.53  85.7401
 44.5516  7567.32  86.0396
 44.5936  7366.8  84.8446
 44.6356  7514.56  85.4311
 44.6776  7478.83  85.5479
 44.7196  7525.32  86.1157
 44.7616  7497.95  87.2839
 44.8036  7458.84  85.6939
 44.8456  7447.42  85.6214
 44.8876  7449.89  85.4864
 44.9296  7544.5  85.4828
 44.9716  7355.6  84.8349
 45.0136  7526.01  85.741
 45.0556  7338.05  84.7489
 45.0976  7507.51  85.7712
 45.1396  7374.63  84.7787
 45.1816  7310.02  84.3378
 45.2236  7314.16  84.2651
 45.2656  7465.42  85.6292
 45.3076  7306.19  84.4982
 45.3496  7394.87  85.3099
 45.3916  7309.61  85.085
 45.4336  7405.6  85.4811
 45.4756  7336.5  84.9396
 45.5176  7293.19  84.3119
 45.5596  7403.21  85.0692
 45.6016  7299.35  84.8825
 45.6436  7286.03  83.9853
 45.6856  7115.23  83.6462
 45.7276  7237.83  85.6764
 45.7696  7327.33  85.8676
 45.8116  7425.06  85.8815
 45.8536  7262.39  84.83
 45.8956  7344.62  84.6656
 45.9376  7346.82  84.1464
 45.9796  7279.55  84.435
 46.0216  7244.84  84.5762
 46.0636  7290.96  83.994
 46.1056  7289.97  83.9762
 46.1476  7312.66  84.6969
 46.1896  7256.67  84.5157
 46.2316  7240.89  84.2997
 46.2736  7172.69  84.1037
 46.3156  7286.88  84.5196
 46.3576  7322.39  84.9266
 46.3996  7309.73  85.0102
 46.4416  7181.73  83.8231
 46.4836  7063.16  83.4998
 46.5256  7144.49  83.922
 46.5676  7168.81  84.1746
 46.6096  7323.43  85.0183
 46.6516  7306  83.9619
 46.6936  7232.25  84.0236
 46.7356  7397.25  85.0823
 46.7776  7254.69  85.0924
 46.8196  7209.81  84.5699
 46.8616  7100.24  83.727
 46.9036  7080.28  83.2808
 46.9456  7095.55  83.0128
 46.9876  7084.29  83.0288
 47.0296  7022.34  83.3344
 47.0716  7097.9  83.6098
 47.1136  7096.74  83.2838
 47.1556  7076.7  83.0351
 47.1976  7280.32  84.377
 47.2396  7088.44  83.5804
 47.2816  7110.09  83.4098
 47.3236  7120.27  83.829
 47.3656  7084.5  83.5609
 47.4076  7163.83  83.7572
 47.4496  7052.9  83.2636
 47.4916  7040.62  83.3756
 47.5336  7126.19  83.7083
 47.5756  7142.26  83.9175
 47.6176  7092.98  83.5249
 47.6596  6971.96  82.5281
 47.7016  7179.21  83.5654
 47.7436  7166.59  83.8274
 47.7856  7179.83  83.9262
 47.8276  7103.32  83.5335
 47.8696  7067.96  83.4065
 47.9116  7124.87  83.4551
 47.9536  7112.56  83.3265
 47.9956  7028.46  83.5351
 48.0376  7028.14  83.3081
 48.0796  7111.44  83.9259
 48.1216  7155.08  84.0028
 48.1636  7130.16  83.4362
 48.2056  7033.13  83.1281
 48.2476  7085.56  83.7368
 48.2896  7080.85  83.6202
 48.3316  7048.04  83.3728
 48.3736  6893.73  82.4744
 48.4156  6922.35  82.5033
 48.4576  6892.78  82.6163
 48.4996  7089.64  83.2493
 48.5416  6975.28  82.8938
 48.5836  6956.53  82.4611
 48.6256  7035.79  83.1308
 48.6676  6955.45  83.1682
 48.7096  7042.51  82.956
 48.7516  6880.81  82.1446
 48.7936  6844.14  81.9877
 48.8356  6963.91  82.7527
 48.8776  6951.57  83.2475
 48.9196  7097.3  83.4855
 48.9616  6822.38  82.2291
 49.0036  6987.39  83.5509
 49.0456  6762.63  82.1859
 49.0876  6894.51  82.5249
 49.1296  6792.38  82.0684
 49.1716  6734.02  81.5936
 49.2136  6906.02  82.5449
 49.2556  6942.65  82.8038
 49.2976  6859.01  82.3747
 49.3396  6902.27  82.6896
 49.3816  6982.29  82.6001
 49.4236  6910.58  82.5906
 49.4656  6769.22  81.7597
 49.5076  6909.78  82.3589
 49.5496  6870.26  82.1863
 49.5916  6844.05  81.9401
 49.6336  6907.28  82.5186
 49.6756  6909.89  82.772
 49.7176  6850.46  82.3578
 49.7596  6901.32  82.4307
 49.8016  6841.11  81.9851
 49.8436  6789.91  81.9773
 49.8856  6820.37  82.17
 49.9276  6721.33  81.6662
 49.9696  6831.17  82.3085
 50.0116  6826.9  82.415
 50.0536  6827.69  82.3674
 50.0956  6717.54  81.7735
 50.1376  6797.99  81.963
 50.1796  6702.58  81.652
 50.2216  6703.93  81.6474
 50.2636  6684.48  81.1556
 50.3056  6728.51  81.5977
 50.3476  6811.83  82.1251
 50.3896  6690.16  81.3555
 50.4316  6765.61  81.6557
 50.4736  6670.7  81.2944
 50.5156  6668.47  81.271
 50.5576  6724.88  81.3791
 50.5996  6726.21  81.6624
 50.6416  6630.94  81.0158
 50.6836  6617.22  80.9864
 50.7256  6798.65  82.0182
 50.7676  6680.8  81.6171
 50.8096  6689.25  81.2069
 50.8516  6555.16  80.8014
 50.8936  6585.36  80.7709
 50.9356  6669.24  81.3837
 50.9776  6638.95  81.3493
 51.0196  6548.68  80.9213
 51.0616  6626.11  80.7324
 51.1036  6591.71  80.8707
 51.1456  6715.31  81.5448
 51.1876  6723.37  80.9385
 51.2296  6556.84  80.5524
 51.2716  6478.14  79.7734
 51.3136  6554.19  80.6945
 51.3556  6562.79  80.376
 51.3976  6550.64  80.4545
 51.4396  6321.18  79.3245
 51.4816  6519.29  80.4224
 51.5236  6537.59  80.605
 51.5656  6525.37  80.1494
 51.6076  6654.25  81.0182
 51.6496  6669.2  81.2958
 51.6916  6558.26  80.9701
 51.7336  6562.99  81.0889
 51.7756  6550  80.7145
 51.8176  6490.76  80.4511
 51.8596  6500.05  80.5221
 51.9016  6795.61  81.9394
 51.9436  6490.4  81.5136
 51.9856  6401.85  81.3896
 52.0276  6544.2  80.8016
 52.0696  6553.94  80.9303
 52.1116  6488.84  80.6387
 52.1536  6436.02  80.1551
 52.1956  6669.93  81.099
 52.2376  6696.2  81.4412
 52.2796  6547.64  80.3434
 52.3216  6346  79.7783
 52.3636  6504.51  80.3496
 52.4056  6504.85  80.1975
 52.4476  6420.66  80.0504
 52.4896  6362.21  79.732
 52.5316  6393.68  79.979
 52.5736  6452.63  80.067
 52.6156  6424.2  80.268
 52.6576  6535.53  80.4051
 52.6996  6327.91  80.0719
 52.7416  6452.69  80.7094
 52.7836  6472.57  80.7169
 52.8256  6530.51  80.3024
 52.8676  6250.42  79.1349
 52.9096  6458.7  80.5268
 52.9516  6499.38  81.156
 52.9936  6311.98  80.3571
 53.0356  6327.3  79.4749
 53.0776  6316.25  79.6626
 53.1196  6297.13  79.6667
 53.1616  6320.98  79.8646
 53.2036  6252.23  79.3846
 53.2456  6297.72  79.7743
 53.2876  6319.98  79.623
 53.3296  6395.6  80.4202
 53.3716  6320.87  79.6964
 53.4136  6282.93  79.6072
 53.4556  6244.72  79.3955
 53.4976  6208.96  79.0183
 53.5396  6282.63  79.8717
 53.5816  6279.62  79.4942
 53.6236  6198.91  79.3168
 53.6656  6320.68  79.7185
 53.7076  6307.15  79.5986
 53.7496  6345  79.9517
 53.7916  6414.21  80.5152
 53.8336  6291.47  79.6433
 53.8756  6188.14  79.5251
 53.9176  6304.43  79.622
 53.9596  6366.19  80.7733
 54.0016  6206.31  79.0954
 54.0436  6226.21  79.4294
 54.0856  6281.66  79.2159
 54.1276  6205.44  78.9315
 54.1696  6259.33  79.4416
 54.2116  6218.61  78.9449
 54.2536  6250.11  78.9648
 54.2956  6214.12  78.7818
 54.3376  6186.56  79.0775
 54.3796  6209.05  79.1291
 54.4216  6391.16  80.3218
 54.4636  6324.49  79.8619
 54.5056  6233.09  79.1107
 54.5476  6191.17  79.1712
 54.5896  6282.28  79.5798
 54.6316  6301.03  79.5617
 54.6736  6267.43  79.422
 54.7156  6326.41  79.8055
 54.7576  6134.88  78.6009
 54.7996  6150.19  78.8428
 54.8416  6345.87  80.1239
 54.8836  6110.95  78.7386
 54.9256  6133.8  78.6367
 54.9676  6257.63  79.2822
 55.0096  6170.9  78.8042
 55.0516  6253.47  79.5571
 55.0936  6276.76  79.3398
 55.1356  6220.24  79.0265
 55.1776  6173.78  78.9944
 55.2196  6188.87  78.8755
 55.2616  6200.29  79.1619
 55.3036  6148.91  78.9913
 55.3456  6165.05  79.2362
 55.3876  6165.05  78.986
 55.4296  6172.7  79
 55.4716  6148.64  78.8897
 55.5136  6217.16  79.0868
 55.5556  6225.62  79.2126
 55.5976  6154.13  78.8145
 55.6396  6159.72  78.7203
 55.6816  6202.05  78.9482
 55.7236  6269.5  79.4133
 55.7656  6250.24  79.0527
 55.8076  6302.99  79.3666
 55.8496  6132.28  78.7123
 55.8916  6139.83  78.8531
 55.9336  6129.36  78.606
 55.9756  6139.45  78.5624
 56.0176  6132.48  78.6644
 56.0596  6150.48  78.7696
 56.1016  6200.58  79.0968
 56.1436  6166.94  79.1454
 56.1856  6117.98  78.573
 56.2276  6159.59  78.8894
 56.2696  6153.51  78.8327
 56.3116  6087.92  78.8056
 56.3536  6132.32  78.7539
 56.3956  6156.85  78.9028
 56.4376  6173.9  79.0434
 56.4796  6221.39  79.145
 56.5216  6099  78.7287
 56.5636  6167.1  78.7648
 56.6056  6149.96  78.8851
 56.6476  6105.97  78.2382
 56.6896  6155.7  78.9966
 56.7316  6094.46  78.5196
 56.7736  6183.66  79.0877
 56.8156  6151.81  78.8896
 56.8576  6126.86  78.6629
 56.8996  6135.3  78.6545
 56.9416  6104.94  78.761
 56.9836  6052.49  77.945
 57.0256  6010.02  77.9831
 57.0676  6083.08  78.5746
 57.1096  6148.57  78.7869
 57.1516  6158.45  78.9168
 57.1936  6143.24  78.5643
 57.2356  6174.6  79.0845
 57.2776  6090.63  78.496
 57.3196  6152.05  79.2662
 57.3616  6032.88  77.9933
 57.4036  6162.07  78.8839
 57.4456  6127.69  78.629
 57.4876  6187.75  78.8702
 57.5296  5996.97  77.9837
 57.5716  6037.14  78.2345
 57.6136  6119.83  78.5814
 57.6556  6099.23  78.591
 57.6976  6099.14  78.4128
 57.7396  5949.28  77.815
 57.7816  6011.93  78.5766
 57.8236  5992.82  78.2525
 57.8656  6151.21  78.9312
 57.9076  6040.55  78.245
 57.9496  6116.45  79.0888
 57.9916  6040.69  78.1149
 58.0336  6045.59  78.423
 58.0756  6052.68  78.0862
 58.1176  6137.14  78.6428
 58.1596  6101.91  78.9929
 58.2016  6235.35  79.059
 58.2436  6159.91  78.9882
 58.2856  6067.3  78.3154
 58.3276  6038.74  78.5054
 58.3696  6009.11  78.0623
 58.4116  6101.4  78.5269
 58.4536  6146.08  78.7008
 58.4956  6091.58  78.5208
 58.5376  6138.6  78.4021
 58.5796  6083.38  78.4693
 58.6216  6099.55  78.3871
 58.6636  6150.68  78.93
 58.7056  6163.54  78.873
 58.7476  6056.63  78.631
 58.7896  6099.2  78.5472
 58.8316  6023.1  78.0522
 58.8736  6067.26  78.3483
 58.9156  6009.02  78.0169
 58.9576  6168.77  79.3647
 58.9996  6292.51  79.3885
 59.0416  6286.8  79.7289
 59.0836  6044.21  78.0982
 59.1256  6022.35  78.6538
 59.1676  5961.02  78.5601
 59.2096  6184.96  79.3166
 59.2516  6171.15  78.8045
 59.2936  6144.17  78.9629
 59.3356  6113.01  78.6395
 59.3776  6079.78  78.595
 59.4196  6204.44  79.3322
 59.4616  6155.09  78.8743
 59.5036  6119.85  78.6839
 59.5456  6411.16  80.2188
 59.5876  6257.92  79.4488
 59.6296  6081.64  78.3912
 59.6716  6284  79.7439
 59.7136  6151.51  78.8869
 59.7556  6077.91  78.5505
 59.7976  6133  78.6458
 59.8396  6116.85  78.4358
 59.8816  6116.57  78.9773
 59.9236  6176.3  79.0072
 59.9656  5968.75  77.9276
 60.0076  6158.23  78.5059
 60.0496  6108.39  78.6944
 60.0916  6260.67  79.0768
 60.1336  5978.91  78.3785
 60.1756  6076.95  80.2063
 60.1996  0.0000000E+00  0.0000000E+00