File: docs/examples/opeando_xrd/IS17_D/Data/IS17_D/17_Db_f00062.xye
# /beamlines/bl04/projects/cycle2025-II/20250340211-lsimonelli/DATA/IS17_D/17_Db_f00062.xye : mythproc.py merge -s 0.006 -l 0.5 -f /beamlines/bl04/inhouse/ff/FlatField/ff_20Nov2024rod8mm60s_17keV.raw -b True -c true -o xye /beamlines/bl04/projects/cycle2025-II/20250340211-lsimonelli/DATA/IS17_D/17_Db_00062.dat
# IsMon = [6788587, 6791389, 6790928]  IsPos = [-1.4999, -2.4884, -3.4988]
# Wave = 0.4962  CalPath /beamlines/bl04/projects/cycle2025-II/20250340211-lsimonelli/DATA/Align/Si_Pos1_25keV_f00001.cal
# Date = 2025-09-24_10:58:53 Dt = 4.8000  Bin = 0.0060  <imon> = 6790301 +/- 1227 (Min/Max) 6788587 / 6791389
# icurr 252.8157  mocoIn 1.7257E-05  mocoOut 0.8086  i15 7.11183e+06  imon 6.7903e+06  i7 7.0000  iEMpd_timer 4.8000  iEMpd_1 3.3628E-08  iEMpd_2 7.7901E-08  iEMpd_3 1.6879E-08  iEMpd_4 4.9883E-08  iEMhp_timer 4.8000  iEMhp_1 4.9394E-06  iEMhp_2 -2.5652E-08  iEMhp_3 -2.4450E-08  iEMhp_4 -2.1407E-08
#      9776
 1.5856  44722.8  217.182
 1.6276  51073.9  228.108
 1.6696  56721.3  239.541
 1.7116  64321.4  255.584
 1.7536  71894.8  269.06
 1.7956  76171.9  277.64
 1.8376  73117.1  272.447
 1.8796  62968.9  250.979
 1.9216  52229.4  229.483
 1.9636  44697.3  211.421
 2.0056  40969.7  201.63
 2.0476  37698.6  195.533
 2.0896  36321.9  190.805
 2.1316  35556  187.874
 2.1736  33809  184.654
 2.2156  34651.7  185.441
 2.2576  33344.5  182.563
 2.2996  32205.8  180.076
 2.3416  32147  178.477
 2.3836  31488.8  176.748
 2.4256  30240.5  173.774
 2.4676  30782.6  175.076
 2.5096  30065.6  173.081
 2.5516  30124.1  177.19
 2.5936  45873.7  214.243
 2.6356  29223.5  171.758
 2.6776  28058.6  167.195
 2.7196  27605.2  166.326
 2.7616  27227.2  164.972
 2.8036  27042  164.578
 2.8456  26919.4  164.847
 2.8876  26304.5  162.809
 2.9296  25918  161.733
 2.9716  25663  160.433
 3.0136  25341.2  159.495
 3.0556  25507.3  160.402
 3.0976  25593.1  159.573
 3.1396  25201.3  159.086
 3.1816  24858.7  157.931
 3.2236  24883.2  157.997
 3.2656  24587.3  156.104
 3.3076  24528.3  157.395
 3.3496  24532  156.315
 3.3916  25008.1  157.658
 3.4336  25362.6  159.362
 3.4756  25780  160.613
 3.5176  26589.1  162.875
 3.5596  26224.6  164.226
 3.6016  26167.8  161.649
 3.6436  25590.5  160.97
 3.6856  25089.2  157.675
 3.7276  24210.4  155.979
 3.7696  23913.7  155.208
 3.8116  23562.6  153.96
 3.8536  23739.2  154.467
 3.8956  23656.8  154.012
 3.9376  23729.6  154.523
 3.9796  23529.1  153.363
 4.0216  23543.5  152.436
 4.0636  23398.4  153.436
 4.1056  23366  152.98
 4.1476  24013.9  155.408
 4.1896  24107.2  155.555
 4.2316  24182  155.633
 4.2736  24450.1  156.288
 4.3156  24792.3  157.613
 4.3576  25424.1  159.504
 4.3996  25597.9  160.32
 4.4416  26114.8  161.523
 4.4836  26573.5  163.095
 4.5256  27175.6  165.549
 4.5676  27048.4  165.419
 4.6096  27541.6  165.565
 4.6516  27898.3  166.318
 4.6936  27974.8  167.39
 4.7356  28185  167.835
 4.7776  28043.8  167.244
 4.8196  28073.9  167.997
 4.8616  27384.9  165.402
 4.9036  27297  164.869
 4.9456  27017.3  164.681
 4.9876  26417.8  162.748
 5.0296  26826.2  163.835
 5.0716  26473  163.512
 5.1136  26694.8  163.913
 5.1556  26893.1  163.972
 5.1976  28534.3  168.901
 5.2396  27386.1  165.15
 5.2816  27491.8  165.951
 5.3236  27415.1  165.406
 5.3656  26969  164.993
 5.4076  26652.2  164.166
 5.4496  26857.2  164.283
 5.4916  27112  164.811
 5.5336  26814.1  163.911
 5.5756  26945.3  164.337
 5.6176  27028  164.024
 5.6596  27377.4  166.073
 5.7016  27312.7  165.132
 5.7436  27648.4  166.424
 5.7856  27335.1  165.546
 5.8276  27659.9  166.236
 5.8696  27724.9  166.606
 5.9116  27724.9  167.213
 5.9536  28077  168.013
 5.9956  28470.9  168.565
 6.0376  28441.1  169.102
 6.0796  28525.9  169.185
 6.1216  28366.8  168.91
 6.1636  28762  169.139
 6.2056  28640.6  169.456
 6.2476  28874.6  170.017
 6.2896  29321  171.006
 6.3316  29141.4  170.653
 6.3736  29263.2  170.899
 6.4156  29376  171.12
 6.4576  29288.5  170.485
 6.4996  29330.5  171.081
 6.5416  29363.2  171.309
 6.5836  29427.7  171.73
 6.6256  29678.9  172.023
 6.6676  30214.6  173.13
 6.7096  30091  173.642
 6.7516  30382.2  174.132
 6.7936  30636  174.265
 6.8356  30873.8  175.028
 6.8776  30831.7  175.712
 6.9196  31100.5  176.887
 6.9616  31483.7  177.402
 7.0036  31819.7  178.011
 7.0456  31914.9  177.567
 7.0876  31899.9  179.225
 7.1296  31635.1  177.608
 7.1716  31815.9  177.659
 7.2136  31667.1  177.02
 7.2556  31730.6  177.355
 7.2976  31842  178.16
 7.3396  31449.3  177.278
 7.3816  31788.3  178.453
 7.4236  31969.7  178.248
 7.4656  32072.2  177.991
 7.5076  32543.4  179.441
 7.5496  32239.1  179.15
 7.5916  32458.5  179.801
 7.6336  32861.3  180.797
 7.6756  32883.9  180.715
 7.7176  33332.5  182.268
 7.7596  33080.3  182.808
 7.8016  34635.8  189.334
 7.8436  33304.4  182.305
 7.8856  33722.7  183.057
 7.9276  34247.6  184.872
 7.9696  34571.2  186.048
 8.0116  35470.6  186.997
 8.0536  35694.4  187.839
 8.0956  35819.4  189.347
 8.1376  36233.6  189.911
 8.1796  36297  190.616
 8.2216  36987.3  191.16
 8.2636  37095.1  191.689
 8.3056  37059.7  192.367
 8.3476  38063  194.272
 8.3896  37517  192.958
 8.4316  37675.7  193.531
 8.4736  37757.6  193.211
 8.5156  37299.3  192.31
 8.5576  37092.8  192.739
 8.5996  37094.5  191.627
 8.6416  37063.3  192.806
 8.6836  36595.4  191.421
 8.7256  37334.5  192.78
 8.7676  37480.5  196.115
 8.8096  38012.5  194.773
 8.8516  37495.6  193.006
 8.8936  37344.2  192.574
 8.9356  37476.4  193.252
 8.9776  37155.1  192.505
 9.0196  37249.1  192.414
 9.0616  37124.8  191.584
 9.1036  36769.1  191.846
 9.1456  36338.2  190.034
 9.1876  36235.3  189.719
 9.2296  36159.2  188.954
 9.2716  35911.8  188.35
 9.3136  35939.8  188.421
 9.3556  36250.5  189.209
 9.3976  35212.2  186.994
 9.4396  35270.1  187.058
 9.4816  35100.9  186.462
 9.5236  34822.4  185.606
 9.5656  34515.3  185.158
 9.6076  33752.2  183.619
 9.6496  34034.9  184.273
 9.6916  33568.9  182.961
 9.7336  34275.1  184.66
 9.7756  33803.1  184.647
 9.8176  33509.6  183.352
 9.8596  33418.7  181.541
 9.9016  33290.1  181.181
 9.9436  32817.9  179.804
 9.9856  32719.4  179.81
 10.0276  31820.5  178.394
 10.0696  32568.7  179.505
 10.1116  31695.2  177.355
 10.1536  31550.8  177.097
 10.1956  30919  174.937
 10.2376  31097.7  174.949
 10.2796  30968.6  174.685
 10.3216  30512.5  173.687
 10.3636  30351.1  173.254
 10.4056  30256.1  173.38
 10.4476  30795.7  174.527
 10.4896  31125.8  174.904
 10.5316  30133.5  172.822
 10.5736  29321.8  170.899
 10.6156  29513.6  171.215
 10.6576  29803.5  170.591
 10.6996  28819.3  168.455
 10.7416  28584.6  167.983
 10.7836  28179.5  167.451
 10.8256  27715.9  166.5
 10.8676  27837.2  166.409
 10.9096  27381.2  165.075
 10.9516  27201.8  163.472
 10.9936  27478.4  164.516
 11.0356  27168  164.191
 11.0776  27278.1  163.852
 11.1196  26793.6  163.157
 11.1616  26333.6  161.416
 11.2036  26704  162.398
 11.2456  26794  163.383
 11.2876  26620.5  162.589
 11.3296  26443.3  161.952
 11.3716  26782.8  162.677
 11.4136  26754.5  163.48
 11.4556  27111  164.229
 11.4976  28071.2  166.064
 11.5396  27207.5  163.663
 11.5816  26671.1  162.479
 11.6236  26087.8  160.928
 11.6656  26210.8  160.467
 11.7076  25502.2  159.111
 11.7496  25223.5  162.247
 11.7916  25349.7  157.877
 11.8336  24803.4  157.06
 11.8756  24987.4  157.191
 11.9176  24827.1  156.356
 11.9596  24719.2  156.195
 12.0016  24508.1  156.298
 12.0436  24726.2  156.437
 12.0856  24474.2  156.135
 12.1276  24154  155.067
 12.1696  24097.6  154
 12.2116  24294.5  154.623
 12.2536  24441.2  155.913
 12.2956  23941.1  153.659
 12.3376  24257.5  154.875
 12.3796  24086.3  154.813
 12.4216  24245.5  154.514
 12.4636  24042.6  154.806
 12.5056  23998.9  153.928
 12.5476  24085.8  153.723
 12.5896  23940.4  153.895
 12.6316  24105.2  154.592
 12.6736  23799.3  154.09
 12.7156  24007.2  154.609
 12.7576  24154  155.323
 12.7996  24196.1  154.091
 12.8416  24090.5  154.814
 12.8836  24393.3  155.615
 12.9256  24644.2  155.439
 12.9676  24511.6  155.424
 13.0096  24582.8  156.776
 13.0516  24726.1  156.25
 13.0936  24691.7  156.555
 13.1356  24737.5  155.661
 13.1776  24706.4  156.585
 13.2196  24568.8  155.788
 13.2616  24283.7  155.192
 13.3036  24595.9  156.152
 13.3456  24095.8  154.902
 13.3876  24752.7  156.273
 13.4296  24434.7  155.433
 13.4716  24534  155.37
 13.5136  24577.9  155.649
 13.5556  24523.9  156.101
 13.5976  24677.1  156.764
 13.6396  24693.8  156.167
 13.6816  24742.1  156.799
 13.7236  24859.3  156.745
 13.7656  26539.8  162.42
 13.8076  27256.5  163.231
 13.8496  26858.5  162.715
 13.8916  24839.2  157.606
 13.9336  24120.7  154.605
 13.9756  24153.9  154.078
 14.0176  23859  153.814
 14.0596  24050.8  154.369
 14.1016  23791  153.956
 14.1436  23906.6  153.459
 14.1856  23291.4  151.762
 14.2276  23274  152.184
 14.2696  23325.7  152.21
 14.3116  22677.4  149.984
 14.3536  22390.7  149.2
 14.3956  22432.6  149.055
 14.4376  22723.1  149.81
 14.4796  22505.3  149.093
 14.5216  22130.6  148.63
 14.5636  22121.6  148.168
 14.6056  22329.2  148.412
 14.6476  22136  147.023
 14.6896  21788.7  146.408
 14.7316  21323.2  145.867
 14.7736  21248.8  144.752
 14.8156  21149.4  144.435
 14.8576  21112.7  144.171
 14.8996  20832.7  144.408
 14.9416  20357.7  142.774
 14.9836  20415.1  142.954
 15.0256  19646.1  139.151
 15.0676  19720.4  139.723
 15.1096  19845.9  139.905
 15.1516  19436.6  139.002
 15.1936  19420.7  138.385
 15.2356  19071.7  137.411
 15.2776  19133.6  137.225
 15.3196  18636.4  136.415
 15.3616  18415.4  135.362
 15.4036  18430.8  135.281
 15.4456  18877.8  136.563
 15.4876  18516.3  134.934
 15.5296  18135.9  133.822
 15.5716  18097.1  133.286
 15.6136  18079.9  133.545
 15.6556  18067.5  132.748
 15.6976  17952.1  132.615
 15.7396  17822.9  132.523
 15.7816  17751.9  131.77
 15.8236  17425.2  131.243
 15.8656  17499.2  131.316
 15.9076  17233.2  130.141
 15.9496  18208.8  136.623
 15.9916  17774.6  135.377
 16.0336  17798.5  132.345
 16.0756  17724.3  132.384
 16.1176  17477  131.542
 16.1596  17200.4  131.669
 16.2016  17064.4  129.915
 16.2436  16933.7  129.791
 16.2856  16953  129.367
 16.3276  16787.7  129.192
 16.3696  17047.3  130.009
 16.4116  16568.8  128.614
 16.4536  16940.9  129.854
 16.4956  17021.3  129.902
 16.5376  16739.9  129.012
 16.5796  16628  127.938
 16.6216  16686.1  128.424
 16.6636  16478.7  127.822
 16.7056  16728.4  128.639
 16.7476  16806.7  128.469
 16.7896  16686.7  128.76
 16.8316  16608.5  128.441
 16.8736  16670.5  128.936
 16.9156  16769.4  129.644
 16.9576  16369.3  128.885
 16.9996  16367.4  129.344
 17.0416  16401.5  127.859
 17.0836  16424.8  127.715
 17.1256  16269.7  127.118
 17.1676  16364.9  127.447
 17.2096  16184.1  126.644
 17.2516  16106.9  126.124
 17.2936  15793.2  125.239
 17.3356  15818.4  125.32
 17.3776  15738.4  125.198
 17.4196  15670.1  124.62
 17.4616  15589.1  124.199
 17.5036  15434.5  123.951
 17.5456  15244.5  123.822
 17.5876  15234.2  122.834
 17.6296  15247.9  122.716
 17.6716  15329  123.626
 17.7136  15287.1  123.593
 17.7556  15195.6  123.512
 17.7976  15077.3  122.764
 17.8396  15019  122.029
 17.8816  15009.1  122.55
 17.9236  14963.9  122.161
 17.9656  14803.5  122.015
 18.0076  14995.1  122.4
 18.0496  15172  122.241
 18.0916  15821  125.4
 18.1336  15444.5  123.996
 18.1756  15200  122.554
 18.2176  14821.3  121.229
 18.2596  14763.1  120.713
 18.3016  14900.6  121.546
 18.3436  14912.2  121.592
 18.3856  14780.1  121.193
 18.4276  14717.7  120.619
 18.4696  14684.6  120.569
 18.5116  14638.9  120.655
 18.5536  14581.1  120.778
 18.5956  14487.6  119.94
 18.6376  14525.9  120.51
 18.6796  14414.8  119.364
 18.7216  14515.4  120.278
 18.7636  14400.1  119.806
 18.8056  14182.6  118.819
 18.8476  14016.1  118.742
 18.8896  14107.2  118.466
 18.9316  14303  119.261
 18.9736  14155.7  118.346
 19.0156  14137.6  118.687
 19.0576  14183.2  117.736
 19.0996  14275.2  118.837
 19.1416  14160.7  118.744
 19.1836  13915.2  117.321
 19.2256  13922.4  117.57
 19.2676  13992.6  117.947
 19.3096  13917.3  117.879
 19.3516  13998.5  118.183
 19.3936  13937.9  117.817
 19.4356  14146.1  118.583
 19.4776  13918.3  117.709
 19.5196  13929.8  117.612
 19.5616  13887.9  117.696
 19.6036  13940.9  117.415
 19.6456  14010.9  117.827
 19.6876  14160  118.08
 19.7296  14298.7  119.133
 19.7716  14118.2  118.542
 19.8136  14453  120.152
 19.8556  14659.7  120.476
 19.8976  14557.7  120.105
 19.9396  14908.6  121.129
 19.9816  14991.3  121.718
 20.0236  14812.4  121.191
 20.0656  14313.8  119.125
 20.1076  14193.7  119.111
 20.1496  13986  118.231
 20.1916  13985.9  117.75
 20.2336  13856.2  117.121
 20.2756  13641.6  116.643
 20.3176  13579.5  116.131
 20.3596  13434.9  115.495
 20.4016  13612.5  116.05
 20.4436  13428.4  115.82
 20.4856  13518.9  116.014
 20.5276  13407.2  115.993
 20.5696  13568  116.126
 20.6116  13371.4  115.557
 20.6536  13318.7  114.846
 20.6956  13227.3  114.583
 20.7376  13134  114.393
 20.7796  13209.6  114.411
 20.8216  13353.2  114.749
 20.8636  13354.8  115.132
 20.9056  13285.4  114.767
 20.9476  13254.8  114.476
 20.9896  13501.8  115.398
 21.0316  13262.3  114.272
 21.0736  13297.4  114.95
 21.1156  13123.7  114.354
 21.1576  13205.8  114.742
 21.1996  13005.4  113.86
 21.2416  13138.2  114.27
 21.2836  13002  113.639
 21.3256  13034  113.863
 21.3676  13065.9  113.535
 21.4096  12976.5  113.474
 21.4516  12904.6  113.032
 21.4936  12638.5  112.118
 21.5356  13032.9  113.795
 21.5776  12940  113.23
 21.6196  12987  113.473
 21.6616  12859.6  113.001
 21.7036  12942.9  113.14
 21.7456  12839.1  112.756
 21.7876  12719.5  111.995
 21.8296  12763.4  112.032
 21.8716  12733.5  112.135
 21.9136  12939.7  113.236
 21.9556  12777.3  112.201
 21.9976  12696.4  111.874
 22.0396  12618.7  111.783
 22.0816  12595.3  112.209
 22.1236  12804.7  112.592
 22.1656  12702.4  112.285
 22.2076  12263.1  109.788
 22.2496  12556.8  111.118
 22.2916  12487.2  110.699
 22.3336  12354.4  110.82
 22.3756  12445.9  110.954
 22.4176  12193.7  109.678
 22.4596  12180.2  110.202
 22.5016  12207.7  109.829
 22.5436  12570.8  111.333
 22.5856  12581.9  111.628
 22.6276  12701.5  112.286
 22.6696  12602.4  112.208
 22.7116  12473.2  111.144
 22.7536  12581  111.597
 22.7956  12433.6  110.282
 22.8376  12272.3  110.08
 22.8796  12197.1  109.542
 22.9216  12548.4  111.657
 22.9636  12417.9  110.229
 23.0056  12449.2  110.497
 23.0476  12516.3  111.371
 23.0896  12813.3  112.057
 23.1316  12736.6  112.159
 23.1736  12544.3  114.248
 23.2156  12626.5  112.014
 23.2576  12972.6  113.672
 23.2996  12613  111.855
 23.3416  12680.6  112.692
 23.3836  12653.3  111.793
 23.4256  12887.8  112.951
 23.4676  12716.4  111.89
 23.5096  12682.7  112.398
 23.5516  12573.2  111.215
 23.5936  12710.1  112.733
 23.6356  12946.4  113.433
 23.6776  12468.4  111.534
 23.7196  12515.4  111.319
 23.7616  12541.8  111.349
 23.8036  12843.4  112.741
 23.8456  12433.7  110.469
 23.8876  12531.1  111.27
 23.9296  12420.7  111.269
 23.9716  12442.1  110.566
 24.0136  12431.4  111.424
 24.0556  12486.1  111.385
 24.0976  12286.9  110.307
 24.1396  12191.7  112.517
 24.1816  12345.3  111.618
 24.2236  12225.5  110.691
 24.2656  12191.1  109.999
 24.3076  12157  110.126
 24.3496  12121.3  109.836
 24.3916  12220.5  110.343
 24.4336  12231.2  110.597
 24.4756  12122.6  109.987
 24.5176  11929.9  108.726
 24.5596  11977.2  109.076
 24.6016  11830.6  108.703
 24.6436  12015.8  109.054
 24.6856  11714  107.423
 24.7276  11788.9  108.087
 24.7696  11692.1  107.749
 24.8116  11724.7  108.077
 24.8536  11586.8  107.449
 24.8956  11659.2  107.504
 24.9376  11620.7  107.254
 24.9796  11548.3  107.294
 25.0216  11512.5  107.247
 25.0636  11585.9  107.233
 25.1056  11280.5  106.508
 25.1476  11433.6  108.866
 25.1896  11383.3  107.132
 25.2316  11314.8  106.088
 25.2736  11199  105.187
 25.3156  11303.8  105.752
 25.3576  11124.7  105.349
 25.3996  11150  105.459
 25.4416  11276.9  106.026
 25.4836  10957  105.026
 25.5256  11091.3  105.033
 25.5676  11077.2  104.694
 25.6096  10976.2  104.796
 25.6516  11076.7  104.773
 25.6936  11171.1  105.541
 25.7356  11041.9  105.063
 25.7776  11142.9  105.137
 25.8196  10992.7  104.666
 25.8616  10846.7  103.901
 25.9036  11046.5  104.297
 25.9456  10953.7  104.465
 25.9876  10902.8  104.28
 26.0296  11009.8  104.311
 26.0716  11057  104.962
 26.1136  11015  104.7
 26.1556  11097.3  104.467
 26.1976  10900.3  104.468
 26.2396  10992.8  104.052
 26.2816  11074.2  105.059
 26.3236  10987.3  104.792
 26.3656  11086.1  104.992
 26.4076  10941  104.501
 26.4496  11077.5  104.741
 26.4916  11219.6  105.314
 26.5336  11516.3  107.039
 26.5756  11658.8  107.582
 26.6176  11003.1  104.53
 26.6596  10888.4  104.295
 26.7016  10902  104.121
 26.7436  10894.6  104.216
 26.7856  10711.3  103.316
 26.8276  10622.3  102.86
 26.8696  10765.5  103.418
 26.9116  10717.9  103.126
 26.9536  10666.2  102.929
 26.9956  10480.8  102.058
 27.0376  10602.7  102.879
 27.0796  10456  101.882
 27.1216  10684.5  103.059
 27.1636  10443.6  102.063
 27.2056  10451.8  101.984
 27.2476  10390.5  101.673
 27.2896  10377.1  101.725
 27.3316  10287.9  101.011
 27.3736  10277.4  101.226
 27.4156  10464.4  101.98
 27.4576  10375.2  101.761
 27.4996  10449.9  101.741
 27.5416  10319.7  101.412
 27.5836  10467.6  101.967
 27.6256  10339.6  101.523
 27.6676  10292.4  101.278
 27.7096  10387  101.626
 27.7516  10324.3  101.463
 27.7936  10627.6  103.1
 27.8356  10526.6  102.207
 27.8776  10480.5  102.058
 27.9196  10182.8  100.446
 27.9616  10334.2  101.395
 28.0036  10165.4  100.523
 28.0456  10147.3  100.571
 28.0876  10118.2  100.51
 28.1296  10150  100.51
 28.1716  10136.3  100.46
 28.2136  10232.4  100.898
 28.2556  10071.4  100.217
 28.2976  10051.3  100.109
 28.3396  10006.7  99.6457
 28.3816  10085.1  100.04
 28.4236  9978.65  99.6707
 28.4656  9862.52  99.1264
 28.5076  9910.67  99.0145
 28.5496  9999.29  99.709
 28.5916  9997.19  99.5105
 28.6336  9988.88  99.8181
 28.6756  9776.85  97.9525
 28.7176  9905.03  99.1479
 28.7596  9924.15  99.1331
 28.8016  9895.4  99.0256
 28.8436  9788.24  98.7297
 28.8856  9940.78  99.3492
 28.9276  9797.56  98.8752
 28.9696  9746.78  98.2768
 29.0116  9715.94  98.3078
 29.0536  9716.11  98.5161
 29.0956  9712.66  98.1983
 29.1376  9753.23  98.3711
 29.1796  9707.96  98.1985
 29.2216  9577.07  97.3671
 29.2636  9778.78  98.4651
 29.3056  9710.77  97.9073
 29.3476  9720.78  98.4844
 29.3896  9759.46  98.794
 29.4316  9625.52  97.4423
 29.4736  9412.34  96.4214
 29.5156  9506.66  96.8212
 29.5576  9547.09  97.7645
 29.5996  9471.64  96.6444
 29.6416  9397.35  96.3795
 29.6836  9614.55  97.4171
 29.7256  9487.54  97.3324
 29.7676  9457.71  96.8441
 29.8096  9531.11  97.16
 29.8516  9327.91  96.4511
 29.8936  9337.89  96.5912
 29.9356  9552.73  97.4526
 29.9776  9318.77  96.395
 30.0196  9396.08  96.1978
 30.0616  9291.75  96.0286
 30.1036  9524.61  97.0512
 30.1456  9274.41  95.9955
 30.1876  9322.63  96.2248
 30.2296  9265.41  95.8797
 30.2716  9422.23  96.3225
 30.3136  9501.11  97.586
 30.3556  9565.78  97.9239
 30.3976  9378.98  98.4561
 30.4396  9878.25  98.3538
 30.4816  9570.37  96.4126
 30.5236  9582.96  96.4812
 30.5656  9582.91  97.1378
 30.6076  9605.56  96.6587
 30.6496  9622.22  97.1583
 30.6916  9498.18  96.6211
 30.7336  9405.12  96.2942
 30.7756  9550.33  97.1068
 30.8176  9550.93  97.0371
 30.8596  9451.18  96.2937
 30.9016  9433.97  96.5381
 30.9436  9539.48  96.8472
 30.9856  9689.95  97.7178
 31.0276  9366.06  95.7053
 31.0696  9346.04  96.1587
 31.1116  9331.91  96.0595
 31.1536  9417.62  96.372
 31.1956  9337.42  96.0624
 31.2376  9126.71  94.9867
 31.2796  9369.58  95.7699
 31.3216  9418.99  95.9479
 31.3636  9357.06  96.3459
 31.4056  9387.2  97.8146
 31.4476  9407.79  95.8164
 31.4896  9443.72  96.5035
 31.5316  9427.07  95.8168
 31.5736  9643.51  96.7405
 31.6156  9516.9  96.1053
 31.6576  9544.58  96.3186
 31.6996  9605.24  96.279
 31.7416  9336.01  96.0308
 31.7836  9632.6  96.5163
 31.8256  9363.47  95.4394
 31.8676  9427.81  95.753
 31.9096  9244.26  95.1794
 31.9516  9131.39  94.772
 31.9936  9127.07  94.5675
 32.0356  9398.43  96.0207
 32.0776  9442.44  96.1338
 32.1196  9359.66  95.8211
 32.1616  9398.69  95.4574
 32.2036  9292.06  95.4397
 32.2456  9236.36  95.5188
 32.2876  9327.8  95.4933
 32.3296  9117.49  94.3659
 32.3716  8956.46  93.6486
 32.4136  9052.55  94.3506
 32.4556  9161.1  94.2945
 32.4976  9046.2  93.6193
 32.5396  9046.8  93.679
 32.5816  9022.88  93.6903
 32.6236  9082.1  94.0496
 32.6656  9112.5  94.7584
 32.7076  9025.57  93.9594
 32.7496  9007.32  93.5373
 32.7916  9110.14  94.0303
 32.8336  8976.65  93.4327
 32.8756  9094.54  93.7557
 32.9176  8884.21  93.1502
 32.9596  8950.3  93.5718
 33.0016  9072.63  93.9837
 33.0436  8995.11  93.753
 33.0856  8940.96  93.5677
 33.1276  8804.02  92.5831
 33.1696  9051.85  93.6994
 33.2116  8913.75  93.2146
 33.2536  9180.04  94.596
 33.2956  8990.28  93.7006
 33.3376  8927.63  93.109
 33.3796  8906.76  93.2203
 33.4216  8988.27  93.2291
 33.4636  9004.19  93.4686
 33.5056  8845.94  92.8888
 33.5476  8885.57  93.0607
 33.5896  8876.28  92.8191
 33.6316  8899.39  93.253
 33.6736  8697.83  92.4354
 33.7156  8814.64  93.0864
 33.7576  8923.07  93.2951
 33.7996  8914  93.0085
 33.8416  8703.73  92.09
 33.8836  8826.55  92.5109
 33.9256  8864.45  92.7675
 33.9676  8943.54  93.0745
 34.0096  8780.48  92.541
 34.0516  8616.14  91.3011
 34.0936  8669.32  91.8609
 34.1356  8761.18  92.0854
 34.1776  8610.62  91.2891
 34.2196  8586.5  91.3468
 34.2616  8551.8  91.2963
 34.3036  8688.29  92.2717
 34.3456  8616.13  91.6312
 34.3876  8814.38  92.6615
 34.4296  8653.06  91.5
 34.4716  8768.29  92.2537
 34.5136  8633.77  91.724
 34.5556  8589.74  91.7566
 34.5976  8632.06  91.7967
 34.6396  8692.89  91.8278
 34.6816  8698.92  91.9698
 34.7236  8767.04  92.1024
 34.7656  8627  91.5714
 34.8076  8483.61  91.1404
 34.8496  8519.16  91.174
 34.8916  8674.18  91.8698
 34.9336  8577.34  91.3309
 34.9756  8696.94  91.8907
 35.0176  8734.36  92.6157
 35.0596  8603.59  91.7494
 35.1016  8628.74  91.6303
 35.1436  8746.87  91.9416
 35.1856  8677.56  91.698
 35.2276  8496.59  90.9154
 35.2696  8616.73  91.751
 35.3116  8455.88  90.9876
 35.3536  8430.82  90.563
 35.3956  8404.44  90.1378
 35.4376  8612.14  91.8119
 35.4796  8581.04  91.6687
 35.5216  8557.07  91.5231
 35.5636  8264.41  90.679
 35.6056  8408.49  90.4893
 35.6476  8456.48  90.6476
 35.6896  8648.6  91.7598
 35.7316  8536.18  91.1369
 35.7736  8501.86  91.1389
 35.8156  8580.53  91.569
 35.8576  8368.43  90.6784
 35.8996  8638.96  92.0995
 35.9416  8475.49  90.7232
 35.9836  8473.14  91.0555
 36.0256  8550.34  91.482
 36.0676  8565.64  91.3223
 36.1096  8531.83  91.29
 36.1516  8565.87  91.357
 36.1936  8523.99  90.9679
 36.2356  8382.36  90.8654
 36.2776  8315.4  89.9833
 36.3196  8333.61  89.7456
 36.3616  8394.28  90.2029
 36.4036  8369.03  90.142
 36.4456  8398.2  90.5084
 36.4876  8237.8  89.5739
 36.5296  8410.57  90.556
 36.5716  8396.07  91.2519
 36.6136  8166.93  88.7917
 36.6556  8316.8  89.7995
 36.6976  8127.8  89.2692
 36.7396  8232.62  89.5726
 36.7816  8240.44  89.9907
 36.8236  8269.37  90.0705
 36.8656  8183.2  89.6742
 36.9076  8105.05  89.1206
 36.9496  7941.72  88.2061
 36.9916  7949.86  87.8802
 37.0336  8134.66  89.2167
 37.0756  8113.43  88.8948
 37.1176  7959.24  88.2998
 37.1596  8084.85  89.0136
 37.2016  8151.33  89.6017
 37.2436  8091.62  88.5906
 37.2856  8064.92  88.7009
 37.3276  8113.64  88.3248
 37.3696  8040.7  88.7978
 37.4116  8040.78  88.7097
 37.4536  8015.18  88.4393
 37.4956  7930.2  88.0109
 37.5376  8181.74  91
 37.5796  8047.22  90.1722
 37.6216  8092.73  88.6976
 37.6636  8136.02  88.8233
 37.7056  8179.66  89.2495
 37.7476  8293.04  89.4066
 37.7896  8034.03  88.5043
 37.8316  8076.67  88.8869
 37.8736  8198.53  89.0811
 37.9156  8147.87  88.7919
 37.9576  8277.6  89.4218
 37.9996  8078.7  88.0517
 38.0416  8131.48  89.1503
 38.0836  8163.06  89.2279
 38.1256  8097.38  88.8384
 38.1676  7981.13  88.3158
 38.2096  8117.06  88.6703
 38.2516  8066.3  88.6197
 38.2936  8178.85  89.0346
 38.3356  8067  88.3524
 38.3776  8091.35  88.7448
 38.4196  8088.44  88.5708
 38.4616  8050.27  88.6087
 38.5036  8153.43  89.0191
 38.5456  7979.42  88.8911
 38.5876  7974.59  88.8907
 38.6296  8077.5  88.4201
 38.6716  7996.55  87.7761
 38.7136  8054.22  88.033
 38.7556  7995.99  88.2314
 38.7976  8164.9  89.0849
 38.8396  7922.88  88.2194
 38.8816  8014.3  88.5138
 38.9236  7856.78  87.4439
 38.9656  8120.71  88.8112
 39.0076  8051.94  87.8311
 39.0496  8146.67  88.9105
 39.0916  8019.3  87.8546
 39.1336  8045.84  88.4069
 39.1756  7966.64  88.0361
 39.2176  7897.46  88.1833
 39.2596  8021.58  88.8044
 39.3016  7941.65  87.9426
 39.3436  7920.56  88.2258
 39.3856  8082.76  88.5618
 39.4276  8168.04  89.5585
 39.4696  8011.71  88.3159
 39.5116  8048.85  89.0349
 39.5536  8077.84  89.6122
 39.5956  8044.35  88.5307
 39.6376  8014.19  88.37
 39.6796  7874.8  87.335
 39.7216  7932.09  87.758
 39.7636  7976.58  88.5599
 39.8056  8105.77  89.0692
 39.8476  7846.48  87.8818
 39.8896  8007.29  88.4066
 39.9316  7909.65  88.1078
 39.9736  8076.42  88.6074
 40.0156  7934.31  87.6589
 40.0576  7894.04  87.7818
 40.0996  7941.15  87.2255
 40.1416  7913.91  87.8774
 40.1836  7985.62  88.1658
 40.2256  8038.75  88.4921
 40.2676  7966.74  88.197
 40.3096  8099.46  88.855
 40.3516  8003.77  88.4418
 40.3936  7990.85  87.9259
 40.4356  7986.19  88.1075
 40.4776  8054.42  88.8931
 40.5196  8096.8  89.249
 40.5616  8050.5  88.6353
 40.6036  7963.95  88.4138
 40.6456  7957.34  87.9883
 40.6876  8012.71  88.285
 40.7296  8008.03  88.3905
 40.7716  8013.99  88.5438
 40.8136  7839.98  87.5222
 40.8556  8126.1  89.2426
 40.8976  7991.14  88.4158
 40.9396  8007.37  88.8602
 40.9816  8050.05  88.3838
 41.0236  8021.7  88.0071
 41.0656  8060.92  88.7579
 41.1076  7980.83  88.0927
 41.1496  8092.44  88.6124
 41.1916  7867.3  87.6802
 41.2336  8024.98  88.5675
 41.2756  7955.65  87.7797
 41.3176  8000.41  88.642
 41.3596  8041.88  88.6044
 41.4016  7980.01  88.5176
 41.4436  7968.1  88.2417
 41.4856  7976.3  88.4519
 41.5276  7936.83  88.2436
 41.5696  7975.73  88.0963
 41.6116  8086.07  89.0962
 41.6536  7939.82  88.1198
 41.6956  8062.45  88.883
 41.7376  7857.83  87.7712
 41.7796  7866.1  87.6993
 41.8216  8076.76  89.1003
 41.8636  7960.91  88.4082
 41.9056  7851.22  87.5868
 41.9476  7931.89  88.2626
 41.9896  8131.89  89.0436
 42.0316  7985.09  88.3209
 42.0736  8107.74  89.1039
 42.1156  7947.45  88.0462
 42.1576  7983.34  88.3549
 42.1996  8099.5  89.1265
 42.2416  7963.82  87.9622
 42.2836  7928.32  87.8871
 42.3256  7922.28  87.9603
 42.3676  8089.86  88.682
 42.4096  7880.78  87.5001
 42.4516  8006.91  88.2672
 42.4936  7830.72  87.3674
 42.5356  7815.65  87.4326
 42.5776  7914.79  87.9177
 42.6196  7960.31  88.2309
 42.6616  7819.36  87.6064
 42.7036  7927.22  87.5935
 42.7456  8015.42  88.4449
 42.7876  7733.32  86.9615
 42.8296  7824.3  87.315
 42.8716  7824.06  87.4697
 42.9136  7783.02  87.0368
 42.9556  7886.25  87.7396
 42.9976  7863.43  87.5744
 43.0396  7877.57  87.3917
 43.0816  7735.95  86.9818
 43.1236  7784.72  87.3058
 43.1656  7830.63  87.3858
 43.2076  7808.56  87.3759
 43.2496  7833.02  87.3321
 43.2916  7737.8  87.1599
 43.3336  7928.92  88.0569
 43.3756  7793.13  87.0615
 43.4176  7765.85  86.9854
 43.4596  7772.55  86.8863
 43.5016  7915.39  88.0821
 43.5436  7818.52  87.4494
 43.5856  7731.62  86.9848
 43.6276  7793.82  87.2248
 43.6696  7662.75  86.7448
 43.7116  7832.97  87.201
 43.7536  7814.45  87.5972
 43.7956  7619.37  87.7059
 43.8376  7719.72  86.7921
 43.8796  7545.46  85.8861
 43.9216  7699.3  86.6709
 43.9636  7662.38  86.5759
 44.0056  7568.94  86.2775
 44.0476  7584.74  85.999
 44.0896  7596.68  86.4086
 44.1316  7722.86  86.6424
 44.1736  7546.41  85.7687
 44.2156  7701.85  86.5058
 44.2576  7809.98  87.4389
 44.2996  7562.15  86.0131
 44.3416  7704.8  86.5761
 44.3836  7515.25  85.8333
 44.4256  7498.54  85.384
 44.4676  7527.25  85.6975
 44.5096  7568.04  86.0791
 44.5516  7620.61  86.3414
 44.5936  7471.15  85.4439
 44.6356  7593.65  85.8764
 44.6776  7530.21  85.8361
 44.7196  7568.32  86.3619
 44.7616  7615.27  87.9634
 44.8036  7645.81  86.5609
 44.8456  7774.69  87.4943
 44.8876  7748.22  87.1868
 44.9296  7804.72  86.9319
 44.9716  7719.07  86.8938
 45.0136  7708.38  86.7768
 45.0556  7731.93  86.8838
 45.0976  7712.13  86.932
 45.1396  7673.97  86.4718
 45.1816  7566.27  85.807
 45.2236  7758.61  86.7924
 45.2656  7732.08  87.1376
 45.3076  7703.66  86.7577
 45.3496  7723.42  87.1855
 45.3916  7650.5  87.0516
 45.4336  7710.31  87.229
 45.4756  7468.94  85.6879
 45.5176  7642.28  86.3149
 45.5596  7794.09  87.2756
 45.6016  7606.89  86.6569
 45.6436  7674.07  86.1989
 45.6856  7444.92  85.5649
 45.7276  7417.99  86.7226
 45.7696  7650.74  87.7475
 45.8116  7597.97  86.8717
 45.8536  7535.1  86.4038
 45.8956  7602.71  86.1357
 45.9376  7608.36  85.6281
 45.9796  7566.43  86.0795
 46.0216  7489.58  85.9577
 46.0636  7692.72  86.2564
 46.1056  7548.56  85.4423
 46.1476  7611.99  86.4034
 46.1896  7600.53  86.487
 46.2316  7510.01  85.8479
 46.2736  7488.58  86.0966
 46.3156  7671.27  86.7136
 46.3576  7622.14  86.6381
 46.3996  7453.44  85.8358
 46.4416  7656.15  86.563
 46.4836  7571.96  86.4489
 46.5256  7508.14  86.024
 46.5676  7559.98  86.4384
 46.6096  7580.63  86.4819
 46.6516  7629.25  85.7918
 46.6936  7642.11  86.3697
 46.7356  7719.6  86.9063
 46.7776  7461.7  86.2957
 46.8196  7473.74  85.9534
 46.8616  7392.3  85.4349
 46.9036  7289.94  84.4932
 46.9456  7379.9  84.6524
 46.9876  7534.75  85.6194
 47.0296  7516.91  86.223
 47.0716  7265.85  84.5939
 47.1136  7497.71  85.6068
 47.1556  7492.19  85.4331
 47.1976  7522.26  85.6972
 47.2396  7536.41  86.1729
 47.2816  7353.11  84.8209
 47.3236  7376.95  85.3349
 47.3656  7460.57  85.7452
 47.4076  7449.92  85.4854
 47.4496  7395.94  85.2695
 47.4916  7429.84  85.6519
 47.5336  7499.69  85.8635
 47.5756  7496.26  85.9702
 47.6176  7356.8  85.0663
 47.6596  7408.38  85.0707
 47.7016  7547.39  85.6725
 47.7436  7485.31  85.6686
 47.7856  7513.28  85.8571
 47.8276  7445.98  85.5222
 47.8696  7417.48  85.4485
 47.9116  7507.14  85.6664
 47.9536  7516.08  85.6589
 47.9956  7496.09  86.2694
 48.0376  7321.88  85.0253
 48.0796  7443.98  85.8671
 48.1216  7441.16  85.6661
 48.1636  7541.69  85.8108
 48.2056  7390.53  85.2126
 48.2476  7599.76  86.7238
 48.2896  7535.98  86.2711
 48.3316  7411.6  85.5003
 48.3736  7410.85  85.5184
 48.4156  7358.34  85.0612
 48.4576  7323.61  85.156
 48.4996  7447.98  85.3242
 48.5416  7542.57  86.2003
 48.5836  7461.69  85.4029
 48.6256  7423.13  85.3912
 48.6676  7430.29  85.9587
 48.7096  7450.84  85.3232
 48.7516  7476.35  85.6287
 48.7936  7353.94  84.9854
 48.8356  7446.38  85.5719
 48.8776  7448.14  86.1611
 48.9196  7546.09  86.0838
 48.9616  7367.76  85.4404
 49.0036  7448.2  86.2736
 49.0456  7373.09  85.8151
 49.0876  7436.03  85.7026
 49.1296  7286.01  84.9956
 49.1716  7240.51  84.6035
 49.2136  7382.25  85.3534
 49.2556  7593.26  86.5967
 49.2976  7443.26  85.8056
 49.3396  7285.69  84.9556
 49.3816  7428.86  85.1952
 49.4236  7335.52  85.0927
 49.4656  7286.19  84.8267
 49.5076  7328.71  84.8192
 49.5496  7395.7  85.2666
 49.5916  7458.46  85.5435
 49.6336  7311.32  84.9057
 49.6756  7365.12  85.4472
 49.7176  7353.54  85.326
 49.7596  7372.98  85.1928
 49.8016  7400.49  85.2815
 49.8436  7351.3  85.295
 49.8856  7349.69  85.2852
 49.9276  7213.96  84.5992
 49.9696  7340.75  85.3291
 50.0116  7279.77  85.1031
 50.0536  7397.82  85.7358
 50.0956  7304.85  85.2712
 50.1376  7326.11  85.0739
 50.1796  7314.49  85.293
 50.2216  7279.89  85.0903
 50.2636  7303.29  84.8313
 50.3056  7198.44  84.3945
 50.3476  7342.73  85.2644
 50.3896  7295.64  84.9605
 50.4316  7247.87  84.5073
 50.4736  7136.74  84.0821
 50.5156  7377.03  85.4714
 50.5576  7312.6  84.8573
 50.5996  7255.13  84.8106
 50.6416  7271.96  84.8329
 50.6836  7294.43  85.0208
 50.7256  7374.54  85.4161
 50.7676  7333.35  85.5064
 50.8096  7335.16  85.0344
 50.8516  7299.41  85.2585
 50.8936  7169.27  84.2744
 50.9356  7360.17  85.4935
 50.9776  7281.21  85.198
 51.0196  7105.21  84.289
 51.0616  7156.25  83.8966
 51.1036  7170.49  84.3487
 51.1456  7197.32  84.4146
 51.1876  7188.94  83.6908
 51.2296  7124.41  83.961
 51.2716  7043.61  83.1855
 51.3136  7101.96  84.0009
 51.3556  7088.34  83.5344
 51.3976  6987.03  83.0888
 51.4396  6963.53  83.2619
 51.4816  7011.04  83.398
 51.5236  7163.83  84.3856
 51.5656  7060.82  83.3702
 51.6076  7184.75  84.1829
 51.6496  7080.12  83.7647
 51.6916  7053.57  83.9699
 51.7336  7084.18  84.2472
 51.7756  7067.93  83.8392
 51.8176  6922.67  83.0853
 51.8596  7059.92  83.9172
 51.9016  7078.49  83.6275
 51.9436  7198.38  85.8683
 51.9856  7192.5  86.2564
 52.0276  7205.5  84.7834
 52.0696  7169.7  84.6385
 52.1116  7082.6  84.2537
 52.1536  7127.58  84.4
 52.1956  7098.6  83.6813
 52.2376  7178.03  84.3203
 52.2796  7182.91  84.1699
 52.3216  7008.94  83.8474
 52.3636  7147.55  84.2226
 52.4056  7128.61  83.9704
 52.4476  7028.36  83.7509
 52.4896  7034.21  83.8279
 52.5316  7157.4  84.6226
 52.5736  6943.73  83.0467
 52.6156  7103.76  84.4208
 52.6576  7012.45  83.2992
 52.6996  6834.6  83.2311
 52.7416  6971.35  83.9089
 52.7836  7056.39  84.3059
 52.8256  7121.27  83.8844
 52.8676  6858.55  82.9086
 52.9096  7046.57  84.1158
 52.9516  6929.27  83.7947
 52.9936  6942.14  84.2395
 53.0356  7086.03  84.0955
 53.0776  7004.95  83.8915
 53.1196  6936.45  83.6054
 53.1616  7028.32  84.1927
 53.2036  6887.85  83.3232
 53.2456  7022.59  84.242
 53.2876  6924.53  83.3324
 53.3296  7073.87  84.5626
 53.3716  7058.57  84.2125
 53.4136  7013.94  84.1042
 53.4556  7000.43  84.0558
 53.4976  7022.74  84.0207
 53.5396  6985.84  84.193
 53.5816  7012.16  83.9942
 53.6236  6869.06  83.4932
 53.6656  7043.38  84.1282
 53.7076  7031.37  84.0056
 53.7496  6954.88  83.6831
 53.7916  7000.31  84.1134
 53.8336  6934.87  83.5968
 53.8756  6960.32  84.3118
 53.9176  6929.29  83.4586
 53.9596  6738.09  83.0814
 54.0016  6782.49  82.6637
 54.0436  6640.09  82.002
 54.0856  6801.47  82.4191
 54.1276  6722.43  82.1458
 54.1696  6716.69  82.2838
 54.2116  6877.51  82.9889
 54.2536  6750.41  82.0306
 54.2956  6795.66  82.3593
 54.3376  6704.36  82.3072
 54.3796  6721.64  82.2978
 54.4216  6700.75  82.2328
 54.4636  6694.12  82.1525
 54.5056  6705.84  82.0195
 54.5476  6688.61  82.2745
 54.5896  6715.18  82.2656
 54.6316  6633.65  81.6082
 54.6736  6657.37  81.8462
 54.7156  6608.95  81.5749
 54.7576  6504.36  80.8944
 54.7996  6665.55  82.0417
 54.8416  6648.42  81.9947
 54.8836  6672.74  82.2309
 54.9256  6636.96  81.7839
 54.9676  6579.29  81.2799
 55.0096  6612.88  81.5248
 55.0516  6480.71  80.9515
 55.0936  6554.59  81.0672
 55.1356  6475.88  80.6124
 55.1776  6714.99  82.3385
 55.2196  6663.02  81.7961
 55.2616  6731.93  82.4546
 55.3036  6421.22  80.7087
 55.3456  6510.61  81.4008
 55.3876  6553.69  81.3985
 55.4296  6443.46  80.7018
 55.4716  6556.1  81.4485
 55.5136  6491.46  80.8002
 55.5556  6744.78  82.408
 55.5976  6519.73  81.1025
 55.6396  6591.04  81.4878
 55.6816  6478.53  80.6542
 55.7236  6479.64  80.7139
 55.7656  6600.21  81.189
 55.8076  6445.44  80.2448
 55.8496  6468  80.7024
 55.8916  6468.1  80.9125
 55.9336  6653.85  81.8848
 55.9756  6476.76  80.658
 56.0176  6468.45  80.7564
 56.0596  6498.77  80.9538
 56.1016  6369.32  80.1569
 56.1436  6437.8  80.85
 56.1856  6320.63  79.8364
 56.2276  6656.92  82.0027
 56.2696  6421.43  80.5156
 56.3116  6545.52  81.6765
 56.3536  6428.43  80.5923
 56.3956  6361.02  80.1372
 56.4376  6349.79  80.1327
 56.4796  6302.25  79.6414
 56.5216  6363.73  80.407
 56.5636  6370.18  80.0158
 56.6056  6518.84  81.1806
 56.6476  6471.83  80.4901
 56.6896  6555.24  81.4952
 56.7316  6466.99  80.8519
 56.7736  6400.26  80.4377
 56.8156  6346.01  80.1174
 56.8576  6218.5  79.2292
 56.8996  6314.48  79.763
 56.9416  6333.48  80.1954
 56.9836  6509.57  80.8173
 57.0256  6303.2  79.8449
 57.0676  6384.12  80.4625
 57.1096  6325.01  79.8851
 57.1516  6351.38  80.1016
 57.1936  6335.6  79.7521
 57.2356  6270.12  79.6724
 57.2776  6274.51  79.6392
 57.3196  6345.69  80.4494
 57.3616  6303.16  79.687
 57.4036  6360.82  80.1071
 57.4456  6403.5  80.3586
 57.4876  6353.14  79.9046
 57.5296  6268.72  79.7051
 57.5716  6335.65  80.1193
 57.6136  6219.36  79.2283
 57.6556  6266.92  79.6444
 57.6976  6286.24  79.5905
 57.7396  6178.81  79.2811
 57.7816  6155.65  79.499
 57.8236  6243.51  79.8551
 57.8656  6242.12  79.4965
 57.9076  6318.02  79.9973
 57.9496  6117.68  79.0914
 57.9916  6279.72  79.6211
 58.0336  6178.21  79.268
 58.0756  6322.46  79.8176
 58.1176  6240.09  79.2868
 58.1596  6186.46  79.539
 58.2016  6060.85  77.9453
 58.2436  6010.43  78.0299
 58.2856  6004.94  77.9151
 58.3276  6026.28  78.4213
 58.3696  5957.64  77.728
 58.4116  5934.87  77.4461
 58.4536  6080.34  78.2744
 58.4956  6022.62  78.083
 58.5376  6182.99  78.6792
 58.5796  5901.16  77.2863
 58.6216  6106.5  78.4364
 58.6636  6100.2  78.6026
 58.7056  5984.91  77.7198
 58.7476  5933.06  77.823
 58.7896  5968.68  77.6987
 58.8316  5987.13  77.8177
 58.8736  5936.65  77.5002
 58.9156  5947.11  77.6083
 58.9576  5981.89  78.1592
 58.9996  6035.95  77.7602
 59.0416  6026.96  78.0655
 59.0836  6041.2  78.057
 59.1256  5983.16  78.3953
 59.1676  5967.58  78.6027
 59.2096  6084.58  78.6756
 59.2516  6083.58  78.2488
 59.2936  6051.42  78.3701
 59.3356  5943.88  77.5493
 59.3776  5919.25  77.5557
 59.4196  5978.43  77.8784
 59.4616  5980.87  77.7553
 59.5036  5893.84  77.2223
 59.5456  5974.81  77.4461
 59.5876  6094.25  78.4083
 59.6296  5902.41  77.2328
 59.6716  6004.3  77.9543
 59.7136  5994.25  77.8773
 59.7556  5972.39  77.8709
 59.7976  5977.22  77.6459
 59.8396  6071.97  78.1529
 59.8816  5960.88  77.9768
 59.9236  5995.14  77.8452
 59.9656  5858.05  77.2068
 60.0076  5882.38  76.7327
 60.0496  5931.64  77.5491
 60.0916  6146.43  78.3573
 60.1336  6024.48  78.682
 60.1756  5929.52  79.2328
 60.1996  0.0000000E+00  0.0000000E+00