File: docs/examples/opeando_xrd/IS17_D/Data/IS17_D/17_Da_f00022.xye
# /beamlines/bl04/projects/cycle2025-II/20250340211-lsimonelli/DATA/IS17_D/17_Da_f00022.xye : mythproc.py merge -s 0.006 -l 0.5 -f /beamlines/bl04/inhouse/ff/FlatField/ff_20Nov2024rod8mm60s_17keV.raw -b True -c true -o xye /beamlines/bl04/projects/cycle2025-II/20250340211-lsimonelli/DATA/IS17_D/17_Da_00022.dat
# IsMon = [6774070, 6781284, 6784582]  IsPos = [-1.5000, -2.4885, -3.4986]
# Wave = 0.4962  CalPath /beamlines/bl04/projects/cycle2025-II/20250340211-lsimonelli/DATA/Align/Si_Pos1_25keV_f00001.cal
# Date = 2025-09-23_23:41:38 Dt = 4.8000  Bin = 0.0060  <imon> = 6779979 +/- 4390 (Min/Max) 6774070 / 6784582
# icurr 252.1892  mocoIn 1.7204E-05  mocoOut 0.8079  i15 7.09486e+06  imon 6.77998e+06  i7 5.0000  iEMpd_timer 4.8000  iEMpd_1 3.5769E-08  iEMpd_2 7.8142E-08  iEMpd_3 1.7938E-08  iEMpd_4 4.7508E-08  iEMhp_timer 4.8000  iEMhp_1 4.9271E-06  iEMhp_2 -2.4597E-08  iEMhp_3 -2.2974E-08  iEMhp_4 -1.9352E-08
#      9776
 1.5856  39343.7  203.765
 1.6276  46171.6  216.952
 1.6696  52957.3  231.528
 1.7116  62230.9  251.474
 1.7536  71114.1  267.679
 1.7956  76246.9  277.863
 1.8376  71984  270.412
 1.8796  60452.9  245.991
 1.9216  48429.2  221.046
 1.9636  41186.1  203.524
 2.0056  36431.9  190.195
 2.0476  33471.4  184.302
 2.0896  32382.2  180.215
 2.1316  31391.9  176.585
 2.1736  29869.3  173.616
 2.2156  30288.9  173.428
 2.2576  29273.2  171.106
 2.2996  27997.1  167.95
 2.3416  28704.2  168.701
 2.3836  27760.5  166.006
 2.4256  27313.7  165.202
 2.4676  26807.2  163.431
 2.5096  27039.8  164.192
 2.5516  31661  181.677
 2.5936  94732.9  308.012
 2.6356  28697.4  170.244
 2.6776  25844.7  160.466
 2.7196  25114.1  158.687
 2.7616  24788  157.437
 2.8036  24477  156.607
 2.8456  24315.2  156.693
 2.8876  23989.5  155.492
 2.9296  23554.2  154.225
 2.9716  23421.3  153.295
 3.0136  23208.9  152.662
 3.0556  23308.9  153.38
 3.0976  22903.4  151.017
 3.1396  22819.1  151.429
 3.1816  22550.9  150.46
 3.2236  22424.7  150.041
 3.2656  22377.7  148.939
 3.3076  22211.2  149.807
 3.3496  22596.6  150.305
 3.3916  22897.1  150.892
 3.4336  23401.3  153.109
 3.4756  23682.8  153.969
 3.5176  24613.9  156.746
 3.5596  24425.6  159.041
 3.6016  24703.1  157.063
 3.6436  23860.9  155.438
 3.6856  23417.8  152.328
 3.7276  22523.3  150.45
 3.7696  22431.4  150.138
 3.8116  21772.7  148.003
 3.8536  21891.7  148.342
 3.8956  22042.2  148.679
 3.9376  22327.7  149.909
 3.9796  21762.3  147.499
 4.0216  21880  146.953
 4.0636  21811  148.16
 4.1056  21817.9  147.833
 4.1476  22200.2  149.449
 4.1896  22321.3  149.701
 4.2316  22547.3  150.29
 4.2736  23031.6  151.689
 4.3156  23196.4  152.442
 4.3576  23973.6  154.917
 4.3996  24185.9  155.644
 4.4416  24798.4  157.404
 4.4836  25856.6  160.87
 4.5256  25981.1  161.89
 4.5676  25786.3  161.517
 4.6096  26304.3  162.156
 4.6516  26819.6  163.091
 4.6936  26950.6  164.28
 4.7356  27497.1  165.782
 4.7776  27058.1  164.273
 4.8196  26685.1  163.806
 4.8616  26050.1  161.454
 4.9036  25964  160.817
 4.9456  26102  161.873
 4.9876  25265.4  159.162
 5.0296  25381.7  159.353
 5.0716  25442.5  160.152
 5.1136  25515.9  160.248
 5.1556  25935.1  161.016
 5.1976  31501.9  177.478
 5.2396  26553.3  162.628
 5.2816  26425.8  162.707
 5.3236  26376.7  162.252
 5.3656  25885.8  161.646
 5.4076  25671.4  161.122
 5.4496  25657.7  160.561
 5.4916  25855.1  160.948
 5.5336  25732.2  160.563
 5.5756  25605.9  160.226
 5.6176  25663.2  159.834
 5.6596  26242  162.441
 5.7016  26197.6  161.73
 5.7436  26355.7  162.488
 5.7856  26309.5  162.406
 5.8276  26502.6  162.712
 5.8696  26708.3  163.431
 5.9116  26557.2  163.613
 5.9536  26743.4  163.995
 5.9956  27012.4  164.18
 6.0376  27174.9  165.299
 6.0796  27562.2  166.307
 6.1216  27561.9  166.493
 6.1636  27748.5  166.145
 6.2056  27689.4  166.606
 6.2476  27866.4  166.866
 6.2896  28124.6  167.487
 6.3316  27898.1  166.997
 6.3736  28091.8  167.456
 6.4156  28089.9  167.403
 6.4576  28621.6  168.532
 6.4996  28399.6  168.34
 6.5416  28489.3  168.752
 6.5836  28875.3  170.108
 6.6256  28606  168.894
 6.6676  29296.7  170.492
 6.7096  28749.5  169.746
 6.7516  29428.2  171.383
 6.7936  30223.5  172.876
 6.8356  30451.9  173.843
 6.8776  30336.9  174.296
 6.9196  30194.1  174.293
 6.9616  30478.7  174.538
 7.0036  30878.1  175.363
 7.0456  30954.5  174.883
 7.0876  30800.6  176.049
 7.1296  30724  175.045
 7.1716  30719.9  174.58
 7.2136  30561.5  173.913
 7.2556  30607.1  174.2
 7.2976  30657.3  174.834
 7.3396  30645  175.002
 7.3816  30568  174.996
 7.4236  30828.1  175.042
 7.4656  31066.5  175.213
 7.5076  31362.6  176.178
 7.5496  31044.2  175.795
 7.5916  31120.6  176.058
 7.6336  31788.8  177.833
 7.6756  31787.4  177.681
 7.7176  31950.3  178.458
 7.7596  31848.2  179.383
 7.8016  35613.3  191.983
 7.8436  32837.1  180.993
 7.8856  32880.3  180.736
 7.9276  33660  183.242
 7.9696  33847.4  184.068
 8.0116  34782.8  185.502
 8.0536  35345.5  186.893
 8.0956  36628.3  191.448
 8.1376  35545.7  188.071
 8.1796  35528  188.568
 8.2216  36569.8  190.051
 8.2636  37139.1  191.771
 8.3056  36519.4  190.924
 8.3476  38285.8  194.814
 8.3896  37434  193.15
 8.4316  36852.5  191.377
 8.4736  36935.8  191.067
 8.5156  36627.2  190.533
 8.5576  36319.3  190.707
 8.5996  36285.3  189.493
 8.6416  36199.6  190.522
 8.6836  36038  189.914
 8.7256  36700.4  191.113
 8.7676  37747.4  196.767
 8.8096  37684.4  193.909
 8.8516  35821.9  188.75
 8.8936  36938.1  191.473
 8.9356  35418.2  187.87
 8.9776  35624.2  188.485
 9.0196  34991.4  186.509
 9.0616  35678.9  187.792
 9.1036  36789  191.876
 9.1456  35460.4  187.722
 9.1876  35058.9  186.63
 9.2296  34835.3  185.426
 9.2716  34260.6  183.976
 9.3136  34107.5  183.545
 9.3556  34593.1  184.834
 9.3976  32935.4  180.884
 9.4396  33628.5  182.656
 9.4816  32656  179.882
 9.5236  33105.7  181.002
 9.5656  32760  180.365
 9.6076  32587.9  180.39
 9.6496  32208.9  179.29
 9.6916  32511.7  180.084
 9.7336  32459.6  179.744
 9.7756  32593.1  181.292
 9.8176  31612.7  178.129
 9.8596  31692.4  176.835
 9.9016  31218.3  175.501
 9.9436  31315.6  175.512
 9.9856  31311.9  175.895
 10.0276  30437.6  174.512
 10.0696  30626.1  174.109
 10.1116  29928.4  172.372
 10.1536  29622  171.18
 10.1956  29274.7  170.249
 10.2376  28911.3  168.722
 10.2796  28893.8  168.778
 10.3216  29107.2  169.513
 10.3636  28765.8  168.694
 10.4056  30690.8  174.638
 10.4476  30881.4  174.812
 10.4896  33477  181.431
 10.5316  30967.4  174.901
 10.5736  28676.6  169.031
 10.6156  28087  167.064
 10.6576  31792.9  176.219
 10.6996  28050.8  166.179
 10.7416  27170.2  163.789
 10.7836  28135.6  167.337
 10.8256  26742.4  163.568
 10.8676  26914.7  163.633
 10.9096  26741.9  163.148
 10.9516  26320.1  160.801
 10.9936  26954.9  162.936
 11.0356  26695.7  162.777
 11.0776  27312.5  163.953
 11.1196  26929.9  163.548
 11.1616  25672.8  159.381
 11.2036  26504.3  161.801
 11.2456  27309.8  164.957
 11.2876  25318.2  158.573
 11.3296  25552.2  159.2
 11.3716  26001  160.303
 11.4136  25458.8  159.486
 11.4556  25518.7  159.33
 11.4976  26643.7  161.786
 11.5396  27032.5  163.124
 11.5816  25748.2  159.664
 11.6236  25125.8  158.152
 11.6656  25019.7  156.792
 11.7076  24282.6  155.268
 11.7496  24685.5  160.384
 11.7916  24996.4  156.797
 11.8336  23974.7  154.442
 11.8756  24208.9  154.719
 11.9176  24062  154.14
 11.9596  23875.7  153.516
 12.0016  23702.2  153.719
 12.0436  23695.8  153.129
 12.0856  23515.1  153.064
 12.1276  23367.7  152.502
 12.1696  23509.3  152.105
 12.2116  23924.8  153.433
 12.2536  25083.6  157.949
 12.2956  23767.9  153.091
 12.3376  23346.6  151.968
 12.3796  23362.9  152.447
 12.4216  23525.9  152.215
 12.4636  23867.3  154.227
 12.5056  23275.6  151.585
 12.5476  23161.2  150.754
 12.5896  23254.8  151.665
 12.6316  22834.2  150.469
 12.6736  23211.6  152.007
 12.7156  23020.7  151.423
 12.7576  23205.6  152.242
 12.7996  23308.7  151.257
 12.8416  23343.7  152.407
 12.8836  24183.5  154.927
 12.9256  23747.1  152.575
 12.9676  23768.2  153.052
 13.0096  23427  153.05
 13.0516  23751.9  153.147
 13.0936  23591.9  152.749
 13.1356  24185.4  153.93
 13.1776  23805.1  153.68
 13.2196  23624.2  152.77
 13.2616  23631.7  153.084
 13.3036  23390  152.457
 13.3456  23638.5  153.228
 13.3876  23862.2  153.481
 13.4296  23840.9  153.545
 13.4716  23929.9  153.447
 13.5136  23615.3  152.589
 13.5556  23979.3  154.353
 13.5976  23573.2  153.177
 13.6396  24060.5  154.131
 13.6816  23514.4  152.761
 13.7236  24511  155.705
 13.7656  23759.9  153.856
 13.8076  24219.7  154.114
 13.8496  23765.3  153.436
 13.8916  23609.2  153.74
 13.9336  23398.3  152.277
 13.9756  23331.3  151.428
 14.0176  23406  152.34
 14.0596  24058.2  154.416
 14.1016  22943.8  151.194
 14.1436  22875.5  150.132
 14.1856  22534.4  149.28
 14.2276  22610.5  150.019
 14.2696  22837  150.596
 14.3116  22308.9  148.741
 14.3536  21886.3  147.512
 14.3956  21815.4  147.004
 14.4376  22085.2  147.693
 14.4796  21835.3  146.851
 14.5216  21609  146.871
 14.5636  21878.7  147.349
 14.6056  21643.9  146.139
 14.6476  21402.1  144.57
 14.6896  21240.8  144.55
 14.7316  20813.7  144.095
 14.7736  20650.6  142.699
 14.8156  20394.6  141.847
 14.8576  20407.6  141.745
 14.8996  20175.7  142.123
 14.9416  19718.2  140.5
 14.9836  19784.7  140.698
 15.0256  19664.5  139.188
 15.0676  19632.7  139.388
 15.1096  19445.3  138.466
 15.1516  19095.6  137.76
 15.1936  19182.7  137.513
 15.2356  19054  137.326
 15.2776  19018.3  136.786
 15.3196  18756.1  136.832
 15.3616  18605.5  136.029
 15.4036  18275.6  134.685
 15.4456  18857.8  136.24
 15.4876  18615.1  135.27
 15.5296  18301  134.416
 15.5716  17872.1  132.427
 15.6136  17880.1  132.794
 15.6556  19171.5  136.721
 15.6976  18328.8  133.762
 15.7396  17915.5  132.839
 15.7816  17863.2  132.153
 15.8236  17415.7  131.182
 15.8656  17279  130.465
 15.9076  17420.9  130.829
 15.9496  17526.6  134.037
 15.9916  17005.2  132.458
 16.0336  16839.1  128.768
 16.0756  16961.1  129.526
 16.1176  16842.3  128.968
 16.1596  16377.2  128.495
 16.2016  16458.2  127.57
 16.2436  16399  127.735
 16.2856  16383.8  127.228
 16.3276  15878.3  125.657
 16.3696  16303.7  127.152
 16.4116  15931.6  126.157
 16.4536  16257.8  127.212
 16.4956  16640.8  128.458
 16.5376  16229.4  127.025
 16.5796  16148.2  126.075
 16.6216  15954.9  125.619
 16.6636  16156.5  126.546
 16.7056  15888.2  125.377
 16.7476  15921.9  125.172
 16.7896  15870.8  125.583
 16.8316  15721.7  124.961
 16.8736  16131.5  126.851
 16.9156  15989.2  126.605
 16.9576  15747.5  126.436
 16.9996  15849.8  127.322
 17.0416  15713.7  125.16
 17.0836  15503.2  124.093
 17.1256  15311.2  123.335
 17.1676  15757.8  125.105
 17.2096  15370.6  123.446
 17.2516  15580.1  124.374
 17.2936  15156.8  122.679
 17.3356  14865.4  121.517
 17.3776  14899.1  121.833
 17.4196  15115.9  122.398
 17.4616  15005  121.885
 17.5036  15243.9  123.204
 17.5456  14571.3  121.093
 17.5876  14617.7  120.351
 17.6296  14745.1  120.692
 17.6716  14814.4  121.541
 17.7136  14975.6  122.356
 17.7556  14664.5  121.359
 17.7976  14694.5  121.082
 17.8396  14565.5  120.195
 17.8816  14351.5  119.829
 17.9236  14142  118.783
 17.9656  14559.9  121.2
 18.0076  14911  122.067
 18.0496  15058.6  121.795
 18.0916  18156.2  134.322
 18.1336  16261.1  127.232
 18.1756  15077.9  122.027
 18.2176  15776.4  125.077
 18.2596  14367.2  119.093
 18.3016  14891.2  121.506
 18.3436  15259.2  123.241
 18.3856  14418.3  119.71
 18.4276  14342.5  119.056
 18.4696  14518.8  119.873
 18.5116  14585.9  120.448
 18.5536  14292.7  119.578
 18.5956  14235.2  118.904
 18.6376  14282.4  119.504
 18.6796  13968.9  117.533
 18.7216  14347.6  119.661
 18.7636  13973.3  118.016
 18.8056  13718.2  116.864
 18.8476  13612.5  116.724
 18.8896  13739.4  116.917
 18.9316  13940.7  117.585
 18.9736  13751.2  116.654
 19.0156  14226.4  119.03
 19.0576  13940.4  116.741
 19.0996  13963.9  117.535
 19.1416  13687  116.76
 19.1836  13613.4  116.041
 19.2256  13336.9  115.067
 19.2676  13588.8  116.235
 19.3096  13708.8  116.987
 19.3516  13524.5  116.004
 19.3936  13712.4  116.925
 19.4356  13689.3  116.651
 19.4776  13516.3  115.999
 19.5196  13520.1  115.865
 19.5616  13592  116.423
 19.6036  13511  115.455
 19.6456  13674.3  116.406
 19.6876  14013  117.475
 19.7296  13461.5  115.603
 19.7716  13514.7  115.843
 19.8136  13672.6  116.877
 19.8556  13923.7  117.417
 19.8976  13956.5  117.619
 19.9396  13897.9  116.954
 19.9816  14225.2  118.55
 20.0236  14562.5  120.179
 20.0656  14141  118.411
 20.1076  13719.3  117.113
 20.1496  13510.8  116.21
 20.1916  13713.9  116.562
 20.2336  13520.2  115.713
 20.2756  13285.8  115.122
 20.3176  13111.8  114.119
 20.3596  13257.6  114.722
 20.4016  13145.9  114.052
 20.4436  13109.7  114.447
 20.4856  13033.6  113.913
 20.5276  13177  114.984
 20.5696  12980.7  113.694
 20.6116  12947.8  113.725
 20.6536  12966.5  113.37
 20.6956  12833  112.855
 20.7376  12944.1  113.563
 20.7796  12816.3  112.694
 20.8216  13010.7  113.268
 20.8636  12952.3  113.382
 20.9056  13799.5  116.974
 20.9476  12888.2  112.892
 20.9896  13774.2  116.564
 21.0316  12983.1  113.054
 21.0736  13076.6  113.989
 21.1156  13294.3  115.084
 21.1576  12982.5  113.786
 21.1996  12805.8  112.981
 21.2416  12665.2  112.215
 21.2836  13003  113.655
 21.3256  12611.1  112.018
 21.3676  12675.8  111.852
 21.4096  12991.1  113.59
 21.4516  12596.5  111.688
 21.4936  12653.4  112.168
 21.5356  12593.6  111.867
 21.5776  12684.5  112.106
 21.6196  12636.1  111.925
 21.6616  12691.1  112.254
 21.7036  12643.6  111.831
 21.7456  12413.7  110.884
 21.7876  12310.4  110.18
 21.8296  12314.2  110.046
 21.8716  12432.2  110.813
 21.9136  12619  111.833
 21.9556  12679.9  111.778
 21.9976  12305  110.123
 22.0396  12303.4  110.37
 22.0816  12372.8  111.207
 22.1236  12716.9  112.205
 22.1656  12472.5  111.296
 22.2076  12427  110.497
 22.2496  12238  109.688
 22.2916  12466  110.588
 22.3336  12414.9  111.057
 22.3756  12306.3  110.314
 22.4176  12429.3  110.722
 22.4596  12078  109.716
 22.5016  12570.9  111.432
 22.5436  12600.9  111.437
 22.5856  12278.6  110.256
 22.6276  12311.1  110.541
 22.6696  12249.7  110.604
 22.7116  12161.9  109.736
 22.7536  12363.2  110.611
 22.7956  12401.8  110.128
 22.8376  12206.9  109.761
 22.8796  12262.9  109.822
 22.9216  12404.2  110.991
 22.9636  12265.3  109.536
 23.0056  12351.8  110.054
 23.0476  12427.2  110.958
 23.0896  12613.2  111.162
 23.1316  12542  111.277
 23.1736  12287.8  113.081
 23.2156  12415.3  110.983
 23.2576  12390.7  111.092
 23.2996  12176.5  109.9
 23.3416  12199  110.54
 23.3836  12319.4  110.278
 23.4256  12350.9  110.582
 23.4676  12385.5  110.42
 23.5096  12326.3  110.828
 23.5516  12292.7  109.97
 23.5936  12292.9  110.86
 23.6356  12502.1  111.471
 23.6776  12071.8  110.072
 23.7196  12038.4  109.403
 23.7616  12425.2  110.821
 23.8036  12295.2  110.306
 23.8456  12272.6  109.751
 23.8876  11987.7  108.847
 23.9296  11982.4  109.289
 23.9716  12094  108.992
 24.0136  12151.1  110.154
 24.0556  11973.6  109.075
 24.0976  11814.8  108.159
 24.1396  11794.1  110.68
 24.1816  11844.9  109.683
 24.2236  11774.7  108.658
 24.2656  11860  108.531
 24.3076  11710.9  108.087
 24.3496  11950.8  109.076
 24.3916  11836.4  108.614
 24.4336  11722.1  108.293
 24.4756  11689.4  108.016
 24.5176  11448.9  106.55
 24.5596  11309.6  106.226
 24.6016  11505.3  107.221
 24.6436  11537.1  106.87
 24.6856  11514.2  106.522
 24.7276  11444.4  106.502
 24.7696  11477.5  106.779
 24.8116  11500.5  107.056
 24.8536  11259.2  105.926
 24.8956  11261.1  105.681
 24.9376  11204.3  105.596
 24.9796  11029.8  104.877
 25.0216  11057.7  105.128
 25.0636  11251  105.692
 25.1056  11059.4  105.201
 25.1476  10983.5  106.748
 25.1896  11145.4  106.012
 25.2316  11162.3  105.252
 25.2736  11142.8  104.939
 25.3156  10953.9  104.121
 25.3576  10952.7  104.527
 25.3996  10946.9  104.486
 25.4416  10877.6  104.136
 25.4836  10780.8  104.185
 25.5256  10886.5  104.065
 25.5676  11030.5  104.482
 25.6096  10713.4  103.537
 25.6516  10869.5  103.785
 25.6936  10761.7  103.592
 25.7356  10800.6  103.904
 25.7776  10903.7  104.076
 25.8196  10712.2  103.315
 25.8616  10751  103.425
 25.9036  11000  104.095
 25.9456  10704.9  103.274
 25.9876  10694.4  103.162
 26.0296  10784  103.319
 26.0716  10573.7  102.65
 26.1136  10822.4  103.785
 26.1556  10869.2  103.3
 26.1976  10652.3  103.27
 26.2396  10775.1  103.262
 26.2816  10662.5  103.081
 26.3236  10785.7  103.751
 26.3656  10614.1  102.748
 26.4076  10695.3  103.331
 26.4496  11134.7  104.927
 26.4916  10858.1  103.621
 26.5336  10744.7  103.398
 26.5756  10989.8  104.43
 26.6176  10656.8  102.881
 26.6596  10548  102.668
 26.7016  10494.1  102.199
 26.7436  10314  101.423
 26.7856  10344  101.542
 26.8276  10411  101.825
 26.8696  10446.6  101.877
 26.9116  10206.7  100.641
 26.9536  10320.9  101.249
 26.9956  10358.9  101.46
 27.0376  10214.7  100.977
 27.0796  10337.9  101.351
 27.1216  10318.6  101.302
 27.1636  10149.2  100.618
 27.2056  10257.5  101.04
 27.2476  10242.6  100.965
 27.2896  10158.8  100.589
 27.3316  10149.1  100.329
 27.3736  10158  100.628
 27.4156  10225.3  100.822
 27.4576  10219.3  101.016
 27.4996  10088.4  99.9748
 27.5416  10177.4  100.72
 27.5836  10078  100.045
 27.6256  10322  101.413
 27.6676  10285.9  101.252
 27.7096  10011.4  99.7689
 27.7516  10494.9  102.287
 27.7936  10300.5  101.528
 27.8356  10289.8  101.084
 27.8776  10066.9  100.035
 27.9196  10112.4  100.106
 27.9616  10288.7  101.163
 28.0036  10076.5  100.089
 28.0456  9947.61  99.5743
 28.0876  9946.64  99.6642
 28.1296  9848.88  99.0165
 28.1716  10028.7  99.9361
 28.2136  9938.78  99.4413
 28.2556  9744.67  98.5893
 28.2976  9863.96  99.167
 28.3396  9955.42  99.4132
 28.3816  9844.79  98.8562
 28.4236  10054.1  100.048
 28.4656  9721.95  98.4257
 28.5076  9670.29  97.8029
 28.5496  9694.35  98.1821
 28.5916  9796.59  98.5112
 28.6336  9602.7  97.8765
 28.6756  9800.22  98.0753
 28.7176  9689.89  98.0613
 28.7596  9545.3  97.2306
 28.8016  9648.19  97.8602
 28.8436  9559.04  97.5725
 28.8856  9619.41  97.7256
 28.9276  9589.54  97.8206
 28.9696  9573.47  97.4031
 29.0116  9631.25  97.8711
 29.0536  9404.98  96.9183
 29.0956  9620.78  97.7478
 29.1376  9546.23  97.3309
 29.1796  9454.7  96.9108
 29.2216  9450.16  96.7289
 29.2636  9511.84  97.046
 29.3056  9460.49  96.6487
 29.3476  9578.67  97.7693
 29.3896  9545.18  97.6822
 29.4316  9628.12  97.4406
 29.4736  9532.33  97.0138
 29.5156  9547.36  97.0122
 29.5576  9444.19  97.2251
 29.5996  9512.73  96.8362
 29.6416  9607.53  97.4417
 29.6836  9544.32  97.0453
 29.7256  9333.36  96.521
 29.7676  9474.56  96.9102
 29.8096  9373.19  96.3349
 29.8516  9306.05  96.3189
 29.8936  9452.94  97.1688
 29.9356  9388.74  96.5964
 29.9776  9323.76  96.4148
 30.0196  9374.02  96.0695
 30.0616  9390.58  96.5239
 30.1036  9441.84  96.6169
 30.1456  9327.83  96.2807
 30.1876  9224.48  95.7053
 30.2296  9238.36  95.7189
 30.2716  9324.61  95.809
 30.3136  9324.17  96.3903
 30.3556  9381.6  96.9844
 30.3976  9204.7  97.5468
 30.4396  9426.82  96.101
 30.4816  9368.62  95.3916
 30.5236  9223.01  94.6789
 30.5656  9220.99  95.3025
 30.6076  9343.8  95.6937
 30.6496  9317.85  95.6154
 30.6916  9220.99  95.2016
 30.7336  9169.06  95.0939
 30.7756  9250.15  95.8039
 30.8176  9304.47  95.8007
 30.8596  9292.21  95.509
 30.9016  9338.46  95.6292
 30.9436  9259.21  95.4342
 30.9856  9243.1  95.4663
 31.0276  9032.85  93.9787
 31.0696  9073.49  94.6359
 31.1116  9112.77  94.9408
 31.1536  9191.27  95.2208
 31.1956  9081.03  94.7451
 31.2376  9167.26  95.1956
 31.2796  9023.57  94.0009
 31.3216  9031.01  93.9825
 31.3636  9083.8  94.9403
 31.4056  9205  96.8948
 31.4476  9113.36  94.3155
 31.4896  8917.01  93.788
 31.5316  9038.67  93.8748
 31.5736  9591.72  96.4847
 31.6156  9337.18  95.2108
 31.6576  9079.44  93.9811
 31.6996  9181.17  94.1859
 31.7416  9133.33  94.8615
 31.7836  9154.41  94.1233
 31.8256  8970.19  93.5108
 31.8676  9054.92  93.8749
 31.9096  8923.81  93.3974
 31.9516  8967.32  93.9274
 31.9936  8879.27  93.2856
 32.0356  9043.4  94.2207
 32.0776  8989.7  93.8262
 32.1196  8945.51  93.6084
 32.1616  9028.75  93.5815
 32.2036  8781.79  92.8016
 32.2456  8842.5  93.49
 32.2876  8836.66  92.791
 32.3296  8770.87  92.5807
 32.3716  8764.9  92.6285
 32.4136  8867.72  93.383
 32.4556  9036.65  93.715
 32.4976  8931.15  93.0598
 32.5396  8801.05  92.4045
 32.5816  8819.92  92.5181
 32.6236  8780.85  92.4906
 32.6656  8868.51  93.4853
 32.7076  8851.33  93.0527
 32.7496  8785.01  92.3774
 32.7916  8899.41  92.9366
 32.8336  8871.16  92.8806
 32.8756  8911.46  92.9127
 32.9176  8763.35  92.5068
 32.9596  8715.95  92.3448
 33.0016  8819.92  92.6882
 33.0436  8789.26  92.6866
 33.0856  8721.63  92.4021
 33.1276  8591.95  91.4566
 33.1696  8710.49  91.9259
 33.2116  8737.21  92.2939
 33.2536  8691.16  92.0618
 33.2956  8769.23  92.5494
 33.3376  8497.19  90.9052
 33.3796  8846.62  92.9035
 33.4216  8759.17  92.0325
 33.4636  8729.81  92.031
 33.5056  8735.18  92.1371
 33.5476  8641.75  91.8069
 33.5896  8716.38  91.9404
 33.6316  8458.32  90.9204
 33.6736  8519.43  91.4789
 33.7156  8563.4  91.7536
 33.7576  8703.72  92.1276
 33.7996  8765.75  92.2196
 33.8416  8478.38  90.875
 33.8836  8606.98  91.3442
 33.9256  8536.85  91.0488
 33.9676  8635.49  91.4621
 34.0096  8460.16  90.8423
 34.0516  8496.21  90.6701
 34.0936  8423.58  90.5338
 34.1356  8487.32  90.6289
 34.1776  8445.29  90.4103
 34.2196  8378.74  90.2386
 34.2616  8367.52  90.3633
 34.3036  8373.95  90.5992
 34.3456  8470.34  90.867
 34.3876  8482.42  90.9871
 34.4296  8426.24  90.2806
 34.4716  8513.13  90.8882
 34.5136  8447.53  90.752
 34.5556  8474.22  91.1393
 34.5976  8430.63  90.7579
 34.6396  8363.9  90.0747
 34.6816  8340.65  90.0695
 34.7236  8383.25  90.0779
 34.7656  8421.83  90.4783
 34.8076  8342.14  90.3645
 34.8496  8349.9  90.2546
 34.8916  8342  90.0982
 34.9336  8493.42  90.8639
 34.9756  8713.56  91.9652
 35.0176  8382.13  90.7286
 35.0596  8302.79  90.131
 35.1016  8399.34  90.4123
 35.1436  8453.87  90.3972
 35.1856  8385.98  90.1557
 35.2276  8380.01  90.2892
 35.2696  8259.79  89.8386
 35.3116  8412.43  90.7502
 35.3536  8200.03  89.3624
 35.3956  8240.01  89.2492
 35.4376  8233.36  89.7692
 35.4796  8365.13  90.5366
 35.5216  8211.79  89.5985
 35.5636  8194.74  90.3045
 35.6056  8266.74  89.7176
 35.6476  8238.03  89.4671
 35.6896  8335.51  90.1693
 35.7316  8235.88  89.5182
 35.7736  8165.79  89.3324
 35.8156  8168.52  89.3459
 35.8576  8232.34  89.9349
 35.8996  8322.69  90.3884
 35.9416  8238.75  89.4473
 35.9836  8186.89  89.6109
 36.0256  8236.43  89.8071
 36.0676  8407.23  90.2728
 36.1096  8094.24  88.9247
 36.1516  8215.08  89.4727
 36.1936  8234.31  89.43
 36.2356  8157.24  89.6476
 36.2776  8203.7  89.3797
 36.3196  8212.58  89.1061
 36.3616  8150.71  88.9019
 36.4036  8045.29  88.3787
 36.4456  8183.57  89.3519
 36.4876  8052.26  88.5593
 36.5296  8150.34  89.1457
 36.5716  8134  89.825
 36.6136  8427.5  90.1709
 36.6556  8314.51  89.7731
 36.6976  8231.69  89.824
 36.7396  8237.49  89.6796
 36.7816  8183.44  89.6651
 36.8236  8154.38  89.4299
 36.8656  8013.76  88.7297
 36.9076  8088.88  89.1464
 36.9496  8003.51  88.6879
 36.9916  8012.48  88.2193
 37.0336  8246.24  89.8106
 37.0756  8117.86  88.9051
 37.1176  7939.82  88.2776
 37.1596  7927.3  88.128
 37.2016  7965.08  88.5138
 37.2436  8176.45  89.0423
 37.2856  8049.21  88.6025
 37.3276  8054.18  87.9837
 37.3696  7991.52  88.5231
 37.4116  8005.05  88.4952
 37.4536  7890.26  87.7313
 37.4956  8029.3  88.5481
 37.5376  7928.92  89.5482
 37.5796  7958.45  89.6661
 37.6216  7747.66  86.7732
 37.6636  7888.78  87.4795
 37.7056  7891.09  87.6701
 37.7476  7895.85  87.2514
 37.7896  7916.57  87.8264
 37.8316  7724.15  86.9519
 37.8736  8005.04  88.0214
 37.9156  7800.13  86.903
 37.9576  7871.92  87.332
 37.9996  7849.35  86.778
 38.0416  7926.03  88.0183
 38.0836  7995.18  88.3079
 38.1256  7741.31  86.8496
 38.1676  7797.45  87.3004
 38.2096  7953.46  87.8034
 38.2516  8003.77  88.184
 38.2936  7856.21  87.2683
 38.3356  7881.07  87.3065
 38.3776  7844.54  87.3836
 38.4196  7899.15  87.5317
 38.4616  7878.27  87.648
 38.5036  7882.85  87.5289
 38.5456  7819.28  88.0025
 38.5876  7918.74  88.589
 38.6296  7738.06  86.5768
 38.6716  7737.01  86.3618
 38.7136  7693.27  86.0612
 38.7556  7656.8  86.3577
 38.7976  7932.24  87.8314
 38.8396  7739.04  87.2064
 38.8816  7720.28  86.8885
 38.9236  7670.99  86.4206
 38.9656  7711.17  86.5588
 39.0076  7740.9  86.1424
 39.0496  7734.54  86.6448
 39.0916  7782.75  86.5501
 39.1336  7763.1  86.8602
 39.1756  7765.83  86.9431
 39.2176  7697.43  87.0757
 39.2596  7707.86  87.0636
 39.3016  7670.09  86.4324
 39.3436  7619.35  86.5598
 39.3856  7791.97  86.989
 39.4276  7725.16  87.1114
 39.4696  7779.6  87.0358
 39.5116  7743.44  87.3504
 39.5536  7881.98  88.5359
 39.5956  7799.25  87.173
 39.6376  7806.97  87.0605
 39.6796  7723.96  86.4984
 39.7216  7722.46  86.5862
 39.7636  7774.46  87.4488
 39.8056  7720.25  86.928
 39.8476  7674.75  86.9177
 39.8896  7644.29  86.3871
 39.9316  7788.35  87.4375
 39.9736  7904.07  87.6586
 40.0156  7765.32  86.7122
 40.0576  7778.56  87.1401
 40.0996  7991.76  87.5049
 40.1416  7865.45  87.5953
 40.1836  7811.92  87.1952
 40.2256  7789.78  87.1155
 40.2676  7708.6  86.8266
 40.3096  7859.89  87.5429
 40.3516  7799.17  87.3734
 40.3936  7785.46  86.7989
 40.4356  7822.57  87.1932
 40.4776  7748.47  87.0333
 40.5196  7766.17  87.4153
 40.5616  7776.78  87.129
 40.6036  7743.88  87.1843
 40.6456  7775.79  86.9782
 40.6876  7865.15  87.463
 40.7296  7915.13  87.8724
 40.7716  7842.34  87.5992
 40.8136  7680.83  86.6359
 40.8556  7806.48  87.4861
 40.8976  7783.64  87.2684
 40.9396  7748.02  87.4258
 40.9816  7948.38  87.8251
 41.0236  7895.93  87.311
 41.0656  7916.43  87.9703
 41.1076  7855.23  87.3905
 41.1496  7829.66  87.1648
 41.1916  7887.88  87.8109
 41.2336  7714.59  86.8382
 41.2756  7796.2  86.9003
 41.3176  7741.43  87.2
 41.3596  7849.09  87.534
 41.4016  7737.31  87.1627
 41.4436  7762.31  87.0929
 41.4856  7796.35  87.4451
 41.5276  7792.63  87.4481
 41.5696  7783.75  87.0157
 41.6116  7799.25  87.5182
 41.6536  7764.78  87.1777
 41.6956  7829.09  87.518
 41.7376  7722.93  87.0264
 41.7796  7764.87  87.185
 41.8216  7706.09  87.0458
 41.8636  7803.39  87.5241
 41.9056  7683.92  86.6545
 41.9476  7773.48  87.3826
 41.9896  7801.66  87.2256
 42.0316  7780.85  87.1724
 42.0736  7688.33  86.8003
 42.1156  7674.93  86.534
 42.1576  7792.08  87.2851
 42.1996  7775.63  87.3393
 42.2416  7769.66  86.8811
 42.2836  7721.89  86.7326
 42.3256  7703.19  86.7436
 42.3676  7649.31  86.2572
 42.4096  7774.8  86.9184
 42.4516  7692.21  86.5469
 42.4936  7623.47  86.2172
 42.5356  7639.63  86.427
 42.5776  7672.17  86.5632
 42.6196  7751.94  86.9806
 42.6616  7439.18  85.4582
 42.7036  7669.62  86.1643
 42.7456  7797.13  87.2425
 42.7876  7632.6  86.4116
 42.8296  7608.82  86.1755
 42.8716  7576.55  86.083
 42.9136  7624.88  86.1003
 42.9556  7648.83  86.4119
 42.9976  7712.33  86.7287
 43.0396  7568.72  85.6585
 43.0816  7605.88  86.2339
 43.1236  7558  86.031
 43.1656  7678  86.5389
 43.2076  7563.66  85.9946
 43.2496  7575.41  85.8801
 43.2916  7623.66  86.5154
 43.3336  7613.51  86.2986
 43.3756  7580.97  85.8743
 43.4176  7553.44  85.7965
 43.4596  7545.4  85.6075
 43.5016  7593.49  86.2796
 43.5436  7540.91  85.8865
 43.5856  7484.68  85.5819
 43.6276  7424.16  85.1393
 43.6696  7524.97  85.846
 43.7116  7500.21  85.3333
 43.7536  7565.48  86.1882
 43.7956  7404  86.4436
 43.8376  7440.09  85.1917
 43.8796  7390.63  84.9786
 43.9216  7506.38  85.5694
 43.9636  7523.15  85.7582
 44.0056  7361.95  85.0625
 44.0476  7424.28  85.0676
 44.0896  7500.38  85.8462
 44.1316  7391.07  84.8865
 44.1736  7415.33  85.0114
 44.2156  7581.95  85.8171
 44.2576  7438.65  85.3202
 44.2996  7383.78  84.9809
 44.3416  7405.56  84.8593
 44.3836  7286.68  84.5014
 44.4256  7263.73  84.0177
 44.4676  7281.77  84.2782
 44.5096  7245.56  84.2092
 44.5516  7428.8  85.2322
 44.5936  7199.12  83.8603
 44.6356  7397.71  84.7481
 44.6776  7360.07  84.8473
 44.7196  7346.27  85.0347
 44.7616  7325.12  86.2698
 44.8036  7249.54  84.4881
 44.8456  7256.54  84.5244
 44.8876  7220.22  84.1623
 44.9296  7366.17  84.4771
 44.9716  7218.02  84.0489
 45.0136  7260.77  84.222
 45.0556  7269.94  84.3587
 45.0976  7140.99  83.6616
 45.1396  7132.38  83.3815
 45.1816  7239.21  83.7635
 45.2236  7281.38  84.0761
 45.2656  7183.82  83.9944
 45.3076  7047.28  82.9941
 45.3496  7142.18  83.8413
 45.3916  7216.85  84.548
 45.4336  7216.5  84.4046
 45.4756  7146.43  83.8465
 45.5176  7312.15  84.4392
 45.5596  7271.72  84.3162
 45.6016  7132.7  83.9128
 45.6436  7215.15  83.589
 45.6856  7136.06  83.771
 45.7276  7184.26  85.8573
 45.7696  7227.74  85.2819
 45.8116  7208.26  84.6249
 45.8536  7143.6  84.1445
 45.8956  7202.96  83.8538
 45.9376  7258.09  83.6455
 45.9796  7145.28  83.6811
 46.0216  7142.45  83.9867
 46.0636  7329.74  84.2337
 46.1056  7222.16  83.5952
 46.1476  7110.38  83.5266
 46.1896  7130.92  83.794
 46.2316  7092.86  83.4403
 46.2736  7058.59  83.4514
 46.3156  7199.55  84.0224
 46.3576  7190.48  84.1691
 46.3996  7114.07  83.8777
 46.4416  7139.87  83.5805
 46.4836  6989.6  83.0761
 46.5256  7283.73  84.743
 46.5676  7163.54  84.1543
 46.6096  7134.37  83.9206
 46.6516  7183.92  83.2654
 46.6936  7158.73  83.5976
 46.7356  7298.08  84.5215
 46.7776  6964.3  83.3688
 46.8196  7088.11  83.848
 46.8616  6908.25  82.5831
 46.9036  6927.76  82.3703
 46.9456  6963.9  82.228
 46.9876  6934.11  82.1425
 47.0296  6971.62  83.0305
 47.0716  6992.84  82.9884
 47.1136  7002.5  82.7408
 47.1556  6959.87  82.3502
 47.1976  7011.25  82.8065
 47.2396  6922.4  82.5947
 47.2816  6943.46  82.4255
 47.3236  6901.52  82.5433
 47.3656  7048.14  83.338
 47.4076  7080.16  83.2584
 47.4496  6927.5  82.5235
 47.4916  6964.33  82.93
 47.5336  7030.81  83.1379
 47.5756  6989.71  82.9658
 47.6176  6913.14  82.456
 47.6596  6845.51  81.776
 47.7016  7017.36  82.6154
 47.7436  6932.07  82.4429
 47.7856  6931.45  82.4773
 47.8276  6884.24  82.2315
 47.8696  6962.71  82.7911
 47.9116  6973.35  82.5543
 47.9536  6843.65  81.7306
 47.9956  6774.59  82.0119
 48.0376  6740.31  81.5818
 48.0796  7024.59  83.4145
 48.1216  6927.32  82.6585
 48.1636  7051.58  82.9849
 48.2056  7038.54  83.1604
 48.2476  6961.18  83.0067
 48.2896  6849.86  82.2512
 48.3316  6938.21  82.71
 48.3736  6898.34  82.5022
 48.4156  6737.46  81.3828
 48.4576  6786.85  81.9737
 48.4996  6900.63  82.1224
 48.5416  6904.75  82.4768
 48.5836  6853.51  81.8506
 48.6256  6871.22  82.1693
 48.6676  6841.65  82.4853
 48.7096  6811.65  81.5751
 48.7516  6804.63  81.691
 48.7936  6675.47  80.9677
 48.8356  6777.43  81.6388
 48.8776  6805.17  82.2767
 48.9196  6914.2  82.3995
 48.9616  6738.81  81.7175
 49.0036  6819.97  82.5606
 49.0456  6740.23  82.0482
 49.0876  6737.7  81.6765
 49.1296  6644.76  81.1748
 49.1716  6643.75  81.0336
 49.2136  6768.2  81.7211
 49.2556  6724.76  81.495
 49.2976  6729.57  81.6002
 49.3396  6689.32  81.397
 49.3816  6776.92  81.3886
 49.4236  6764.75  81.7132
 49.4656  6618.44  80.838
 49.5076  6786.32  81.6189
 49.5496  6701  81.0393
 49.5916  6732.1  81.2669
 49.6336  6655.59  80.9984
 49.6756  6647.6  81.1919
 49.7176  6644.65  81.1103
 49.7596  6705.46  81.4341
 49.8016  6721.48  81.2611
 49.8436  6694.78  81.3921
 49.8856  6716.64  81.5355
 49.9276  6657.4  81.2725
 49.9696  6635.27  81.1226
 50.0116  6634.53  81.2503
 50.0536  6711.82  81.6677
 50.0956  6650.1  81.3616
 50.1376  6612.75  80.8389
 50.1796  6639.2  81.2648
 50.2216  6578.14  80.8765
 50.2636  6618.02  80.7535
 50.3056  6577.55  80.677
 50.3476  6584.44  80.7378
 50.3896  6486.49  80.1104
 50.4316  6627.59  80.818
 50.4736  6443.74  79.8983
 50.5156  6556.44  80.5745
 50.5576  6610.46  80.6839
 50.5996  6496.17  80.2544
 50.6416  6518.44  80.3076
 50.6836  6496.35  80.2462
 50.7256  6551.02  80.5119
 50.7676  6635.19  81.3126
 50.8096  6593.05  80.6265
 50.8516  6467.87  80.2541
 50.8936  6515.14  80.3321
 50.9356  6493.21  80.3048
 50.9776  6559.76  80.8588
 51.0196  6423.76  80.1337
 51.0616  6476.05  79.8034
 51.1036  6567.55  80.6962
 51.1456  6497.04  80.1899
 51.1876  6529.82  79.7514
 51.2296  6501.82  80.2022
 51.2716  6479.84  79.7721
 51.3136  6389.43  79.659
 51.3556  6393.52  79.3156
 51.3976  6415.46  79.6051
 51.4396  6206.37  78.5914
 51.4816  6379.55  79.5386
 51.5236  6384.38  79.6523
 51.5656  6387.45  79.2823
 51.6076  6440.4  79.6947
 51.6496  6417.35  79.7321
 51.6916  6319.1  79.4695
 51.7336  6387.59  79.983
 51.7756  6430.68  79.9596
 51.8176  6399.48  79.8516
 51.8596  6395.76  79.8616
 51.9016  6500.88  80.1273
 51.9436  6429.63  81.1027
 51.9856  6266.25  80.5198
 52.0276  6410.21  79.9785
 52.0696  6335.49  79.5815
 52.1116  6402.28  80.0964
 52.1536  6473.75  80.3944
 52.1956  6425.34  79.6061
 52.2376  6430.44  79.8148
 52.2796  6325.34  78.9778
 52.3216  6271.52  79.3097
 52.3636  6294.78  79.0487
 52.4056  6259.25  78.6768
 52.4476  6255.85  79.0203
 52.4896  6307.23  79.3951
 52.5316  6300.35  79.4038
 52.5736  6396.07  79.711
 52.6156  6326.27  79.6696
 52.6576  6337.66  79.1801
 52.6996  6148.63  78.9398
 52.7416  6247.11  79.4234
 52.7836  6403.04  80.2838
 52.8256  6330.94  79.0895
 52.8676  6120.74  78.3211
 52.9096  6386.38  80.079
 52.9516  6282.6  79.7843
 52.9936  6241.24  79.9099
 53.0356  6215.83  78.7804
 53.0776  6184.83  78.8651
 53.1196  6178.61  78.9223
 53.1616  6099.53  78.4612
 53.2036  6062.68  78.1727
 53.2456  6137.91  78.7631
 53.2876  6204.02  78.8979
 53.3296  6065.31  78.3269
 53.3716  6131.83  78.5128
 53.4136  6133.57  78.6629
 53.4556  6070.39  78.288
 53.4976  6063.43  78.0948
 53.5396  6056.17  78.4186
 53.5816  6061.53  78.1064
 53.6236  6091.8  78.6276
 53.6656  6149.35  78.6459
 53.7076  6232.51  79.1362
 53.7496  6160.34  78.7984
 53.7916  6101.21  78.5387
 53.8336  6051.89  78.1262
 53.8756  5981.99  78.2015
 53.9176  6086.94  78.2353
 53.9596  6135.94  79.287
 54.0016  6052.62  78.1017
 54.0436  6064.33  78.3866
 54.0856  6215.86  78.7962
 54.1276  6180.25  78.7712
 54.1696  6044.43  78.0698
 54.2116  6168.38  78.6347
 54.2536  6088.13  77.9339
 54.2956  6168.09  78.4845
 54.3376  6075.48  78.3686
 54.3796  6091.28  78.3707
 54.4216  6264.03  79.5253
 54.4636  6139.74  78.6897
 54.5056  6117.13  78.3728
 54.5476  6031.95  78.1444
 54.5896  6202.52  79.0654
 54.6316  6094.13  78.2456
 54.6736  6057.88  78.034
 54.7156  6074.13  78.2144
 54.7576  6016.64  77.8335
 54.7996  6172.48  78.9921
 54.8416  6048.38  78.2261
 54.8836  5981.92  77.9111
 54.9256  6119.77  78.5513
 54.9676  6147.56  78.5841
 55.0096  6049.47  78.0229
 55.0516  6065.35  78.2841
 55.0936  6035.38  77.7971
 55.1356  6079.77  78.1255
 55.1776  6008.85  77.9376
 55.2196  6059.59  78.0467
 55.2616  6114.41  78.617
 55.3036  5992.78  77.982
 55.3456  5984.99  78.0662
 55.3876  6049.48  78.2423
 55.4296  5991.84  77.8396
 55.4716  6017.02  78.0437
 55.5136  5991.12  77.6327
 55.5556  6061.1  78.1655
 55.5976  6028.74  78.0017
 55.6396  6022.35  77.8253
 55.6816  5985.84  77.5596
 55.7236  6117.76  78.5526
 55.7656  6128.47  78.2788
 55.8076  6056.7  77.793
 55.8496  6007.15  77.9088
 55.8916  5969.42  77.7193
 55.9336  6025.14  77.9336
 55.9756  5922.1  77.1589
 56.0176  5963.68  77.5766
 56.0596  6032.02  77.9992
 56.1016  6044.66  78.118
 56.1436  6007.97  78.1144
 56.1856  6057.91  78.1798
 56.2276  5975.83  77.7161
 56.2696  6036.12  78.0668
 56.3116  5949.19  77.9089
 56.3536  5920.94  77.3828
 56.3956  5957.86  77.6092
 56.4376  5966.18  77.7019
 56.4796  5965.57  77.4968
 56.5216  5979.54  77.9646
 56.5636  6117.94  78.4443
 56.6056  6024.81  78.0861
 56.6476  6023.23  77.7074
 56.6896  6057.66  78.369
 56.7316  6015.11  78.012
 56.7736  5978.21  77.7616
 56.8156  5996.29  77.8809
 56.8576  5958.2  77.5694
 56.8996  5958.19  77.5164
 56.9416  5974.69  77.7764
 56.9836  5861.55  76.7124
 57.0256  5960.57  77.6592
 57.0676  5897.1  77.374
 57.1096  6031.57  78.0361
 57.1516  6018.67  77.9689
 57.1936  5907.38  77.0407
 57.2356  5950.76  77.6306
 57.2776  5939.6  77.5195
 57.3196  6032.17  78.4863
 57.3616  5925.05  77.2935
 57.4036  6007.38  77.8882
 57.4456  5974.45  77.6497
 57.4876  6037.01  77.9033
 57.5296  5937.68  77.5
 57.5716  5950.93  77.6708
 57.6136  5946.78  77.466
 57.6556  5988.02  77.8716
 57.6976  6000.58  77.7781
 57.7396  5852.03  77.1754
 57.7816  5780.68  77.0544
 57.8236  5907.28  77.692
 57.8656  5990.33  77.8913
 57.9076  5888.13  77.2616
 57.9496  5957.27  78.0544
 57.9916  5943.65  77.4375
 58.0336  5966.54  77.9066
 58.0756  6068.59  78.1678
 58.1176  5940.33  77.3756
 58.1596  5863.73  77.4271
 58.2016  6033.39  77.7727
 58.2436  5957.74  77.6751
 58.2856  5998.5  77.8566
 58.3276  5986.24  78.1495
 58.3696  5880.25  77.2099
 58.4116  5976.58  77.706
 58.4536  6024.33  77.9022
 58.4956  5981.05  77.7993
 58.5376  5957.61  77.2217
 58.5796  5910.58  77.3301
 58.6216  6041.03  78.004
 58.6636  5988.99  77.8739
 58.7056  5880.95  77.0285
 58.7476  5830.07  77.1318
 58.7896  6026.51  78.0655
 58.8316  5946.03  77.5409
 58.8736  5994.96  77.8633
 58.9156  5921.99  77.436
 58.9576  6089.31  78.7126
 58.9996  6100.96  78.1618
 59.0416  6135.8  78.7514
 59.0836  5989.79  77.7286
 59.1256  5975.22  78.0164
 59.1676  5991.71  78.74
 59.2096  6059.4  78.4897
 59.2516  6000.59  77.6904
 59.2936  6063.63  78.426
 59.3356  5997.68  77.8766
 59.3776  6012.15  78.139
 59.4196  5891.94  77.2909
 59.4616  5934.86  77.4329
 59.5036  5913.18  77.3264
 59.5456  6066.86  78.0175
 59.5876  6004.5  77.806
 59.6296  6031.44  78.0495
 59.6716  5945.5  77.5489
 59.7136  6061.84  78.2922
 59.7556  5918.7  77.4974
 59.7976  5893.47  77.0774
 59.8396  5975.03  77.5038
 59.8816  5994.09  78.1708
 59.9236  6138.92  78.7501
 59.9656  6018  78.2274
 60.0076  5889.92  76.7593
 60.0496  5930.51  77.5219
 60.0916  6148.83  78.3496
 60.1336  5889.68  77.7739
 60.1756  5934.53  79.2431
 60.1996  0.0000000E+00  0.0000000E+00