File: docs/examples/opeando_xrd/IS17_D/Data/IS17_D/17_Da_f00136.xye
# /beamlines/bl04/projects/cycle2025-II/20250340211-lsimonelli/DATA/IS17_D/17_Da_f00136.xye : mythproc.py merge -s 0.006 -l 0.5 -f /beamlines/bl04/inhouse/ff/FlatField/ff_20Nov2024rod8mm60s_17keV.raw -b True -c true -o xye /beamlines/bl04/projects/cycle2025-II/20250340211-lsimonelli/DATA/IS17_D/17_Da_00136.dat
# IsMon = [6764487, 6767949, 6763649]  IsPos = [-1.4999, -2.4884, -3.4989]
# Wave = 0.4962  CalPath /beamlines/bl04/projects/cycle2025-II/20250340211-lsimonelli/DATA/Align/Si_Pos1_25keV_f00001.cal
# Date = 2025-09-25_07:27:20 Dt = 4.8000  Bin = 0.0060  <imon> = 6765362 +/- 1861 (Min/Max) 6763649 / 6767949
# icurr 250.8435  mocoIn 1.7107E-05  mocoOut 0.8023  i15 7.08387e+06  imon 6.76536e+06  i7 5.6667  iEMpd_timer 4.8000  iEMpd_1 3.4554E-08  iEMpd_2 7.9908E-08  iEMpd_3 1.8911E-08  iEMpd_4 4.8720E-08  iEMhp_timer 4.8000  iEMhp_1 4.8990E-06  iEMhp_2 -2.5518E-08  iEMhp_3 -2.4723E-08  iEMhp_4 -2.0248E-08
#      9776
 1.5856  40067.7  205.555
 1.6276  48084.5  221.318
 1.6696  54416.1  234.609
 1.7116  62737.4  252.401
 1.7536  71802.5  268.871
 1.7956  76507.1  278.233
 1.8376  72239  270.79
 1.8796  61228.5  247.46
 1.9216  49317.9  222.982
 1.9636  41577.2  203.898
 2.0056  36608.5  190.584
 2.0476  34415.2  186.813
 2.0896  33284.4  182.641
 2.1316  32247.3  178.909
 2.1736  30662.5  175.841
 2.2156  31022.5  175.451
 2.2576  30058  173.322
 2.2996  28329  168.88
 2.3416  29119.9  169.854
 2.3836  28450.7  167.995
 2.4256  27715.2  166.35
 2.4676  27434.3  165.27
 2.5096  27040.9  164.134
 2.5516  28755.9  173.159
 2.5936  65313.1  255.677
 2.6356  27466.7  166.514
 2.6776  26081.1  161.156
 2.7196  25389.8  159.515
 2.7616  25234.2  158.81
 2.8036  24873.9  157.841
 2.8456  25016.3  158.901
 2.8876  24414.3  156.849
 2.9296  23769  154.89
 2.9716  23729.9  154.264
 3.0136  23559.7  153.776
 3.0556  23546.4  154.122
 3.0976  23608.6  153.277
 3.1396  23243.8  152.784
 3.1816  23117.6  152.306
 3.2236  22906.9  151.617
 3.2656  23035.2  151.084
 3.3076  22864.2  151.959
 3.3496  22988.1  151.32
 3.3916  23442.4  152.642
 3.4336  23876.7  154.62
 3.4756  24263.8  155.8
 3.5176  25104.1  158.26
 3.5596  24954.6  160.22
 3.6016  25111.2  158.355
 3.6436  24403  157.185
 3.6856  24092.9  154.51
 3.7276  23038.5  152.154
 3.7696  22963  152.109
 3.8116  22567.2  150.676
 3.8536  22640.3  150.86
 3.8956  22723.4  150.959
 3.9376  22927.3  151.886
 3.9796  22443.5  149.784
 4.0216  22481.1  148.954
 4.0636  22376.3  150.067
 4.1056  22600.1  150.45
 4.1476  22613.6  150.819
 4.1896  22738.5  151.094
 4.2316  23039.2  151.926
 4.2736  23538  153.345
 4.3156  23682.6  154.049
 4.3576  24279.3  155.893
 4.3996  24722.5  157.565
 4.4416  25148.6  158.51
 4.4836  26095.8  161.613
 4.5256  26308.6  162.89
 4.5676  25998.5  162.179
 4.6096  26652.7  162.868
 4.6516  26987.2  163.6
 4.6936  27257.1  165.229
 4.7356  27791.8  166.667
 4.7776  27461.5  165.505
 4.8196  27029.7  164.845
 4.8616  26468.1  162.599
 4.9036  26387.9  162.109
 4.9456  26317.1  162.535
 4.9876  25688.8  160.49
 5.0296  25829.6  160.754
 5.0716  25759  161.305
 5.1136  26053.8  161.93
 5.1556  26180.9  161.789
 5.1976  29133.8  170.655
 5.2396  26863.9  163.579
 5.2816  26661.7  163.419
 5.3236  26765.8  163.448
 5.3656  26376  163.163
 5.4076  26057.9  162.328
 5.4496  26257.5  162.438
 5.4916  26317.8  162.385
 5.5336  26184.8  162.053
 5.5756  26086.5  161.705
 5.6176  26556  162.582
 5.6596  26640.9  163.821
 5.7016  26745.5  163.412
 5.7436  27050  164.239
 5.7856  26902.6  164.221
 5.8276  27227.3  164.931
 5.8696  27411  165.657
 5.9116  27530.8  166.626
 5.9536  27464.6  166.178
 5.9956  28036.8  167.263
 6.0376  27764  167.082
 6.0796  28039.8  167.743
 6.1216  28117.6  168.176
 6.1636  28411.9  168.114
 6.2056  28371.1  168.657
 6.2476  28553.6  169.077
 6.2896  28753.3  169.349
 6.3316  28569.8  168.98
 6.3736  28949.4  169.992
 6.4156  28714.6  169.199
 6.4576  28933  169.448
 6.4996  29113.5  170.454
 6.5416  29097.2  170.542
 6.5836  29466  171.693
 6.6256  29062.3  170.231
 6.6676  29836.3  172.058
 6.7096  29611.3  172.255
 6.7516  30122.6  173.392
 6.7936  30385.1  173.575
 6.8356  31102.4  175.69
 6.8776  31134.9  176.588
 6.9196  30779  175.975
 6.9616  31283.9  176.847
 7.0036  31662.4  177.576
 7.0456  31792.6  177.234
 7.0876  31599.8  178.383
 7.1296  31696.7  177.794
 7.1716  31603.2  177.076
 7.2136  31293.6  175.984
 7.2556  31610.6  177.032
 7.2976  31732.2  177.871
 7.3396  31676.5  177.919
 7.3816  31358.6  177.247
 7.4236  31886  178.02
 7.4656  32084.7  178.063
 7.5076  32438.7  179.175
 7.5496  32162.8  178.957
 7.5916  32286.7  179.326
 7.6336  32690.4  180.411
 7.6756  33181.8  181.538
 7.7176  33067.7  181.534
 7.7596  33057.3  182.761
 7.8016  35185.8  190.784
 7.8436  34006.7  184.385
 7.8856  34419.8  184.953
 7.9276  34905.5  186.655
 7.9696  35004.4  187.224
 8.0116  35685.8  187.57
 8.0536  36133.3  188.999
 8.0956  37166.9  192.864
 8.1376  36994.8  191.898
 8.1796  36741  191.777
 8.2216  38020.2  193.543
 8.2636  37988.7  193.987
 8.3056  37999.1  194.808
 8.3476  39342.1  197.522
 8.3896  38557.3  195.623
 8.4316  38308.4  195.157
 8.4736  38600.4  195.357
 8.5156  38105.6  194.381
 8.5576  37986.4  195.051
 8.5996  37605.2  192.948
 8.6416  37647.6  194.314
 8.6836  37678.5  194.241
 8.7256  38123.1  194.806
 8.7676  39022.1  200.088
 8.8096  38485.8  195.967
 8.8516  37567.2  193.227
 8.8936  38093.4  194.446
 8.9356  36850.5  191.602
 8.9776  37341  192.987
 9.0196  36739.4  191.093
 9.0616  37303.3  192.097
 9.1036  37705  194.269
 9.1456  36867.3  191.444
 9.1876  36463.4  190.344
 9.2296  36452.4  189.721
 9.2716  36135.5  188.955
 9.3136  35876.8  188.253
 9.3556  36432.9  189.696
 9.3976  34691.6  185.628
 9.4396  35169.2  186.803
 9.4816  34854.8  185.822
 9.5236  35112.3  186.418
 9.5656  34651.5  185.511
 9.6076  34442.1  185.493
 9.6496  34088.8  184.458
 9.6916  34336.3  185.105
 9.7336  33994.1  183.952
 9.7756  34470.6  186.499
 9.8176  33504.9  183.341
 9.8596  33445.9  181.618
 9.9016  33057.8  180.556
 9.9436  32923.8  180.103
 9.9856  32818.8  180.036
 10.0276  31961.9  178.783
 10.0696  32478.3  179.256
 10.1116  31618.7  177.131
 10.1536  31470.9  176.883
 10.1956  31030.1  175.241
 10.2376  30540.4  173.357
 10.2796  30594.5  173.634
 10.3216  30538.2  173.747
 10.3636  30444.8  173.509
 10.4056  32011.7  178.327
 10.4476  32022.9  177.973
 10.4896  33847.4  182.388
 10.5316  32107.7  178.383
 10.5736  30003.8  172.861
 10.6156  29487.1  171.127
 10.6576  32202.7  177.316
 10.6996  29318.4  169.853
 10.7416  28650.3  168.159
 10.7836  29305  170.775
 10.8256  28438.1  168.683
 10.8676  28599.5  168.669
 10.9096  28169.9  167.454
 10.9516  27748  165.112
 10.9936  28355.8  167.115
 11.0356  28127.8  167.085
 11.0776  28586  167.733
 11.1196  28152.1  167.218
 11.1616  27389.7  164.617
 11.2036  27948.6  166.15
 11.2456  28381.2  168.155
 11.2876  27096.2  164.029
 11.3296  27237  164.36
 11.3716  27700.2  165.441
 11.4136  27411.2  165.486
 11.4556  27898.4  166.614
 11.4976  28363.5  166.93
 11.5396  27828.7  165.504
 11.5816  26710.6  162.618
 11.6236  26314.5  161.622
 11.6656  26206.8  160.452
 11.7076  25951.8  160.512
 11.7496  25807.4  163.228
 11.7916  25933.2  159.711
 11.8336  25540  159.395
 11.8756  25479.4  158.725
 11.9176  25337.7  157.925
 11.9596  24880.3  156.693
 12.0016  24814.2  157.284
 12.0436  24919.3  157.037
 12.0856  24533.9  156.341
 12.1276  24711.3  156.717
 12.1696  24591.1  155.574
 12.2116  24926.6  156.625
 12.2536  25695  159.876
 12.2956  24729.8  156.046
 12.3376  24631.8  156.079
 12.3796  24491  156.08
 12.4216  24679.4  155.899
 12.4636  24711.9  156.925
 12.5056  24505.1  155.613
 12.5476  24441.7  154.865
 12.5896  24330.5  155.148
 12.6316  24136.1  154.687
 12.6736  24028.6  154.824
 12.7156  24269.5  155.45
 12.7576  24150.1  155.322
 12.7996  24521.1  155.142
 12.8416  24588.3  156.416
 12.8836  25093.6  157.842
 12.9256  25004.6  156.565
 12.9676  24900.8  156.667
 13.0096  24671.3  157.048
 13.0516  24790.9  156.461
 13.0936  24683.4  156.524
 13.1356  25055.6  156.675
 13.1776  24778.2  156.8
 13.2196  24762.7  156.405
 13.2616  24806.3  156.855
 13.3036  24818.6  156.867
 13.3456  24523.5  156.46
 13.3876  24786  156.408
 13.4296  24722.2  156.358
 13.4716  24928.1  156.615
 13.5136  24820.4  156.432
 13.5556  25232.6  158.049
 13.5976  24967.4  157.649
 13.6396  25247  157.901
 13.6816  24599.9  156.356
 13.7236  25334.6  158.316
 13.7656  24781.3  157.113
 13.8076  25277.4  157.445
 13.8496  24632.2  156.026
 13.8916  24594.5  156.916
 13.9336  24440.7  155.644
 13.9756  24257.6  154.407
 14.0176  24166.3  154.699
 14.0596  24540  155.961
 14.1016  24015.8  154.677
 14.1436  23750.1  152.956
 14.1856  23541.9  152.583
 14.2276  23512.9  152.929
 14.2696  23734.7  153.531
 14.3116  23258.3  151.887
 14.3536  22826.4  150.645
 14.3956  22939.6  150.74
 14.4376  23008  150.749
 14.4796  22953.4  150.554
 14.5216  22347.1  149.353
 14.5636  22485.9  149.376
 14.6056  22465.6  148.893
 14.6476  22394.4  147.879
 14.6896  21918.1  146.847
 14.7316  21605.7  146.808
 14.7736  21592.8  145.919
 14.8156  21237  144.75
 14.8576  21333.9  144.927
 14.8996  20988.6  144.966
 14.9416  20539.9  143.41
 14.9836  20787.9  144.235
 15.0256  20450.7  141.974
 15.0676  20393.3  141.992
 15.1096  20239.9  141.293
 15.1516  19921.5  140.724
 15.1936  19818.7  139.8
 15.2356  19725.8  139.752
 15.2776  19815.1  140.084
 15.3196  19403  139.197
 15.3616  19199.7  138.229
 15.4036  19272.3  138.331
 15.4456  19573.2  139.06
 15.4876  18942.1  136.477
 15.5296  19025.3  137.057
 15.5716  18752.2  135.676
 15.6136  18397.9  134.704
 15.6556  19515.4  138.353
 15.6976  18656.2  135.186
 15.7396  18563.9  135.255
 15.7816  18464.9  134.389
 15.8236  18250  134.262
 15.8656  18255.7  134.124
 15.9076  17814.9  132.322
 15.9496  17926.7  135.549
 15.9916  17625.3  134.842
 16.0336  17240.1  130.281
 16.0756  17703.6  132.337
 16.1176  17398.6  131.262
 16.1596  16854.7  130.365
 16.2016  17321.1  130.899
 16.2436  16942.3  129.838
 16.2856  16919.2  129.296
 16.3276  16773.9  129.157
 16.3696  17022  129.927
 16.4116  16668.6  129.032
 16.4536  16883  129.632
 16.4956  17033.9  129.955
 16.5376  16910.4  129.673
 16.5796  16593.6  127.801
 16.6216  16492.3  127.725
 16.6636  16757.2  128.908
 16.7056  16519.2  127.843
 16.7476  16640.5  127.842
 16.7896  16619.5  128.514
 16.8316  16627.8  128.51
 16.8736  16601.3  128.671
 16.9156  16783.3  129.713
 16.9576  16365.7  128.881
 16.9996  16438.3  129.663
 17.0416  16553  128.438
 17.0836  16355.8  127.433
 17.1256  15931.6  125.776
 17.1676  16153.5  126.642
 17.2096  16094.7  126.291
 17.2516  16032.5  125.823
 17.2936  15872.2  125.519
 17.3356  15480.2  123.974
 17.3776  15607.1  124.666
 17.4196  15643.4  124.498
 17.4616  15806.9  125.071
 17.5036  15679.9  124.926
 17.5456  15391  124.423
 17.5876  15389.5  123.457
 17.6296  15457.3  123.54
 17.6716  15363.7  123.749
 17.7136  15381.7  123.972
 17.7556  15193.2  123.496
 17.7976  15283.5  123.605
 17.8396  15168.5  122.631
 17.8816  15028.9  122.607
 17.9236  14916  121.962
 17.9656  15204.6  123.681
 18.0076  15333.9  123.789
 18.0496  15616.9  124.032
 18.0916  17251.1  130.828
 18.1336  16469.3  128.047
 18.1756  15692.3  124.499
 18.2176  15505.7  123.99
 18.2596  14906.7  121.303
 18.3016  15198.5  122.755
 18.3436  15601.8  124.369
 18.3856  15184.6  123.04
 18.4276  14903.1  121.359
 18.4696  15163  122.527
 18.5116  15081.2  122.478
 18.5536  14893.4  122.081
 18.5956  14683.7  120.758
 18.6376  14874.6  121.951
 18.6796  14681.5  120.476
 18.7216  14793.5  121.422
 18.7636  14530.2  120.341
 18.8056  14371.7  119.618
 18.8476  14282.4  119.876
 18.8896  14359.3  119.527
 18.9316  14651  120.725
 18.9736  14482.3  119.714
 19.0156  14555  120.413
 19.0576  14617  119.528
 19.0996  14668.5  120.461
 19.1416  14323.5  119.434
 19.1836  14337.4  119.087
 19.2256  14230.1  118.953
 19.2676  14340.4  119.405
 19.3096  14361.7  119.747
 19.3516  14277.2  119.352
 19.3936  14218  119
 19.4356  14197.2  118.782
 19.4776  14269  119.188
 19.5196  14232.5  118.884
 19.5616  14210.5  119.049
 19.6036  14438.7  119.493
 19.6456  14300  119.037
 19.6876  14593.8  119.894
 19.7296  14405.1  119.575
 19.7716  14273.9  119.189
 19.8136  14597.7  120.751
 19.8556  14813.2  121.109
 19.8976  15080.8  122.265
 19.9396  14918.3  121.163
 19.9816  14866.3  121.2
 20.0236  14759.9  120.992
 20.0656  14286  119.028
 20.1076  13996  118.277
 20.1496  13979.1  118.205
 20.1916  13877.1  117.296
 20.2336  13900.7  117.33
 20.2756  13787.2  117.276
 20.3176  13709.6  116.694
 20.3596  13681.9  116.552
 20.4016  13768.3  116.722
 20.4436  13677.6  116.793
 20.4856  13373.5  115.378
 20.5276  13597.7  116.807
 20.5696  13440.1  115.588
 20.6116  13505.5  116.148
 20.6536  13571.2  115.9
 20.6956  13504.2  115.77
 20.7376  13445.3  115.749
 20.7796  13347.7  115.012
 20.8216  13515.7  115.43
 20.8636  13525.8  115.85
 20.9056  13895.1  117.378
 20.9476  13400.1  115.108
 20.9896  13876.2  116.996
 21.0316  13616.7  115.792
 21.0736  13469  115.686
 21.1156  13572.7  116.293
 21.1576  13407.7  115.636
 21.1996  13235.2  114.866
 21.2416  13168.3  114.409
 21.2836  13282.4  114.865
 21.3256  13150.1  114.429
 21.3676  13352  114.794
 21.4096  13262.6  114.723
 21.4516  13066.3  113.752
 21.4936  12914.4  113.339
 21.5356  13202.8  114.543
 21.5776  13222.4  114.456
 21.6196  13012.9  113.581
 21.6616  13067.9  113.911
 21.7036  13010  113.443
 21.7456  13178.2  114.247
 21.7876  12916.6  112.854
 21.8296  12704.9  111.785
 21.8716  12886.9  112.811
 21.9136  13149.9  114.154
 21.9556  13002.1  113.181
 21.9976  12808.6  112.357
 22.0396  12836.1  112.735
 22.0816  12797.6  113.115
 22.1236  13091.2  113.849
 22.1656  12988.2  113.884
 22.2076  13116.9  113.547
 22.2496  13001  113.066
 22.2916  12933.6  112.662
 22.3336  13061.2  113.943
 22.3756  12902.9  112.976
 22.4176  12835.4  112.536
 22.4596  12618.7  112.178
 22.5016  12998  113.32
 22.5436  13113.5  113.83
 22.5856  12908.3  113.069
 22.6276  12860.8  112.989
 22.6696  12910.8  113.571
 22.7116  12589.3  111.658
 22.7536  12848.9  112.783
 22.7956  12855.1  112.13
 22.8376  12695.8  111.971
 22.8796  12856  112.468
 22.9216  12867  113.072
 22.9636  12787.4  111.863
 23.0056  12757.4  111.868
 23.0476  13080.5  113.852
 23.0896  13253.6  113.97
 23.1316  13175  114.077
 23.1736  12743.3  115.159
 23.2156  12805.7  112.812
 23.2576  12811.2  112.958
 23.2996  12814.2  112.762
 23.3416  12692.5  112.743
 23.3836  12667.6  111.863
 23.4256  12797.6  112.553
 23.4676  12767.3  112.119
 23.5096  12777.1  112.842
 23.5516  12614.5  111.403
 23.5936  12758.2  112.948
 23.6356  12946.9  113.44
 23.6776  12689.6  112.525
 23.7196  12556.1  111.492
 23.7616  12740.1  112.235
 23.8036  12768.7  112.399
 23.8456  12610.7  111.118
 23.8876  12392.7  110.658
 23.9296  12424.3  111.285
 23.9716  12360.9  110.19
 24.0136  12526.8  111.842
 24.0556  12382.3  110.931
 24.0976  12266.5  110.214
 24.1396  12284.4  112.967
 24.1816  12307.4  111.463
 24.2236  12305.3  111.055
 24.2656  12065.6  109.442
 24.3076  12227.7  110.428
 24.3496  12228.3  110.315
 24.3916  12263.7  110.53
 24.4336  12142.4  110.19
 24.4756  11978  109.309
 24.5176  12020.4  109.151
 24.5596  11808.7  108.312
 24.6016  11686.2  108.035
 24.6436  11940.2  108.69
 24.6856  11963  108.553
 24.7276  12011.9  109.089
 24.7696  12010.6  109.204
 24.8116  11682  107.873
 24.8536  11552  107.27
 24.8956  11742.9  107.893
 24.9376  11593.4  107.143
 24.9796  11554.1  107.318
 25.0216  11383.9  106.639
 25.0636  11516.1  106.904
 25.1056  11193  106.095
 25.1476  11463.8  109.074
 25.1896  11451.3  107.458
 25.2316  11590.1  107.376
 25.2736  11495.2  106.575
 25.3156  11350.2  105.984
 25.3576  11275.2  106.057
 25.3996  11344.5  106.363
 25.4416  11366.6  106.449
 25.4836  11180.1  106.098
 25.5256  11206.3  105.584
 25.5676  11385.5  106.148
 25.6096  11065.8  105.224
 25.6516  11332.2  105.971
 25.6936  11256.5  105.943
 25.7356  11100.4  105.338
 25.7776  11232.1  105.567
 25.8196  11225.8  105.773
 25.8616  11181  105.488
 25.9036  11417.6  106.051
 25.9456  11117.4  105.244
 25.9876  11045.9  104.972
 26.0296  11294.9  105.65
 26.0716  11074  105.04
 26.1136  11202.4  105.589
 26.1556  11276  105.31
 26.1976  10980.5  104.85
 26.2396  11036.1  104.271
 26.2816  11084.3  105.105
 26.3236  11167.2  105.657
 26.3656  11029.7  104.727
 26.4076  10992  104.765
 26.4496  11529.3  106.776
 26.4916  11298.9  105.702
 26.5336  11003  104.719
 26.5756  11666.3  107.546
 26.6176  11036.2  104.704
 26.6596  10862.7  104.185
 26.7016  10851.6  103.883
 26.7436  10731.9  103.447
 26.7856  10667.8  103.116
 26.8276  10713  103.289
 26.8696  10801.9  103.592
 26.9116  10811.9  103.581
 26.9536  10642.5  102.813
 26.9956  10747.8  103.356
 27.0376  10564.7  102.689
 27.0796  10802.5  103.561
 27.1216  10624.1  102.781
 27.1636  10605  102.854
 27.2056  10625.4  102.836
 27.2476  10582.6  102.626
 27.2896  10555.4  102.609
 27.3316  10444.4  101.776
 27.3736  10517.4  102.403
 27.4156  10371.8  101.534
 27.4576  10577  102.768
 27.4996  10412.7  101.562
 27.5416  10437.9  102.002
 27.5836  10421.7  101.737
 27.6256  10758.5  103.522
 27.6676  10743.7  103.486
 27.7096  10494.8  102.151
 27.7516  10658.9  103.001
 27.7936  10591  102.939
 27.8356  10418.6  101.718
 27.8776  10504.8  102.181
 27.9196  10414.5  101.589
 27.9616  10348.3  101.469
 28.0036  10336.2  101.373
 28.0456  10217.9  100.924
 28.0876  10180.4  100.829
 28.1296  10210.7  100.819
 28.1716  10237.9  100.956
 28.2136  10257.6  101.027
 28.2556  10133.4  100.525
 28.2976  10217.9  100.927
 28.3396  10246.2  100.83
 28.3816  10158.6  100.42
 28.4236  10293.7  101.242
 28.4656  10028  99.9602
 28.5076  10037.2  99.6469
 28.5496  10068.5  100.062
 28.5916  10160.2  100.322
 28.6336  10031  100.027
 28.6756  10182.8  99.9724
 28.7176  9954.74  99.3928
 28.7596  10035.3  99.6944
 28.8016  9981.42  99.4572
 28.8436  9893.31  99.2641
 28.8856  10027.3  99.7837
 28.9276  10001.7  99.9022
 28.9696  9909.23  99.0925
 29.0116  9857.46  99.0265
 29.0536  9765.94  98.7588
 29.0956  9957.15  99.4407
 29.1376  9944.91  99.3376
 29.1796  9784.31  98.5779
 29.2216  9740.77  98.2017
 29.2636  9846.14  98.806
 29.3056  9729.75  98.0142
 29.3476  9782.27  98.8038
 29.3896  9942.12  99.7075
 29.4316  9882.92  98.7407
 29.4736  9750.75  98.1466
 29.5156  9858.16  98.5913
 29.5576  9722.21  98.6544
 29.5996  9734.32  97.9784
 29.6416  9751.36  98.1742
 29.6836  9784.97  98.2789
 29.7256  9797.15  98.905
 29.7676  9743.6  98.3037
 29.8096  9725.8  98.1519
 29.8516  9628.6  97.9983
 29.8936  9827.23  99.0921
 29.9356  9919.29  99.3077
 29.9776  9652.08  98.1149
 30.0196  9768.96  98.0801
 30.0616  9948.17  99.3655
 30.1036  9658.98  97.7282
 30.1456  9680.18  98.0828
 30.1876  9654.87  97.9218
 30.2296  9653.74  97.8759
 30.2716  9641.23  97.4403
 30.3136  9680.8  98.5068
 30.3556  9739.24  98.8155
 30.3976  9619.63  99.7591
 30.4396  9845.99  98.2078
 30.4816  9716.47  97.1583
 30.5236  9579.39  96.4869
 30.5656  9704.63  97.7746
 30.6076  9886.01  98.1075
 30.6496  9632.51  97.2238
 30.6916  9491.49  96.6061
 30.7336  9513.03  96.8655
 30.7756  9497.56  96.8788
 30.8176  9658.28  97.6093
 30.8596  9628.49  97.224
 30.9016  9594.99  97.4025
 30.9436  9529.77  96.8237
 30.9856  9582.8  97.1998
 31.0276  9430.78  96.031
 31.0696  9393.68  96.4205
 31.1116  9491.85  96.8999
 31.1536  9548.36  97.0713
 31.1956  9370.21  96.248
 31.2376  9366.52  96.2422
 31.2796  9360.33  95.7419
 31.3216  9413.77  95.9606
 31.3636  9487.79  97.0218
 31.4056  9389.62  97.8547
 31.4476  9414.26  95.8404
 31.4896  9373.35  96.1318
 31.5316  9462.22  95.9809
 31.5736  9716  97.0861
 31.6156  9697.92  97.0126
 31.6576  9455.62  95.8859
 31.6996  9581.12  96.1735
 31.7416  9327.13  95.9659
 31.7836  9403.64  95.3735
 31.8256  9203.12  94.6198
 31.8676  9413.1  95.6866
 31.9096  9287.59  95.4103
 31.9516  9160.09  94.9119
 31.9936  9176.92  94.822
 32.0356  9180.09  94.9073
 32.0776  9294.52  95.3817
 32.1196  9222.71  95.0952
 32.1616  9284.51  94.8774
 32.2036  9158.69  94.7465
 32.2456  9197.64  95.3268
 32.2876  9298.17  95.337
 32.3296  9056.08  94.0531
 32.3716  9133.79  94.5623
 32.4136  9265.88  95.4699
 32.4556  9309.15  95.0547
 32.4976  9267.22  94.7582
 32.5396  9146.42  94.2023
 32.5816  9112.44  94.1521
 32.6236  9180.37  94.5682
 32.6656  9213.12  95.2814
 32.7076  9030.34  93.9883
 32.7496  9219.32  94.6308
 32.7916  9194.75  94.4637
 32.8336  9194.76  94.5588
 32.8756  9126.17  93.928
 32.9176  9066.24  94.0966
 32.9596  9066.69  94.1834
 33.0016  9202.2  94.6688
 33.0436  9207.99  94.604
 33.0856  9150.6  94.6539
 33.1276  9081.03  94.0245
 33.1696  9155.33  94.2456
 33.2116  9124.6  94.3123
 33.2536  9132.33  94.3595
 33.2956  9062.53  94.0813
 33.3376  8999.7  93.4975
 33.3796  9007.49  93.7413
 33.4216  9000.68  93.3086
 33.4636  9067.49  93.8005
 33.5056  9022.64  93.7987
 33.5476  8932.84  93.3327
 33.5896  9097.72  93.9541
 33.6316  8828.28  92.8675
 33.6736  8835.34  93.1452
 33.7156  8817.92  92.8336
 33.7576  8974.94  93.5555
 33.7996  9066.51  93.7989
 33.8416  8862.57  92.925
 33.8836  8827.33  92.6502
 33.9256  8894.79  92.9297
 33.9676  8966.29  93.1955
 34.0096  8705.74  92.1437
 34.0516  8807.75  92.3215
 34.0936  8755.09  92.2182
 34.1356  8896.16  92.7912
 34.1776  8817.81  92.3921
 34.2196  8748.14  92.2059
 34.2616  8736.68  92.2771
 34.3036  8747.57  92.5889
 34.3456  8725.27  92.2249
 34.3876  8749.21  92.3148
 34.4296  8715.41  91.8192
 34.4716  8806.28  92.4159
 34.5136  8773.27  92.4877
 34.5556  8791.17  92.8366
 34.5976  8791.34  92.6405
 34.6396  8692.87  91.8287
 34.6816  8713.59  92.0526
 34.7236  8876.55  92.6859
 34.7656  8742.55  92.1811
 34.8076  8599.46  91.7523
 34.8496  8716.95  92.2221
 34.8916  8784.22  92.4598
 34.9336  8809.56  92.5549
 34.9756  8724.78  92.0268
 35.0176  8693.88  92.3973
 35.0596  8588.33  91.6599
 35.1016  8744  92.2487
 35.1436  8727.9  91.8495
 35.1856  8534.21  90.9518
 35.2276  8564.95  91.293
 35.2696  8605.1  91.6958
 35.3116  8608.31  91.7978
 35.3536  8570.27  91.3127
 35.3956  8627.57  91.3263
 35.4376  8489.94  91.1462
 35.4796  8605.2  91.8292
 35.5216  8573.92  91.6168
 35.5636  8346.27  91.136
 35.6056  8593.73  91.4879
 35.6476  8579.19  91.3029
 35.6896  8665.56  91.8464
 35.7316  8425.23  90.5444
 35.7736  8532.56  91.3153
 35.8156  8494.4  91.1151
 35.8576  8526.53  91.5433
 35.8996  8574.97  91.7666
 35.9416  8474.13  90.7313
 35.9836  8487.67  91.1429
 36.0256  8493.84  91.1958
 36.0676  8519.32  91.0894
 36.1096  8380.36  90.4845
 36.1516  8519.86  91.1209
 36.1936  8584.56  91.3178
 36.2356  8376.52  90.8423
 36.2776  8516.41  91.0777
 36.3196  8415.15  90.1971
 36.3616  8457.64  90.5045
 36.4036  8453.63  90.5969
 36.4456  8435.49  90.7102
 36.4876  8290.69  89.8661
 36.5296  8405.51  90.5288
 36.5716  8544.34  91.8314
 36.6136  8757.28  91.9409
 36.6556  8543.42  91.0246
 36.6976  8357.42  90.5205
 36.7396  8427.61  90.6285
 36.7816  8374.72  90.7244
 36.8236  8442.98  91.0056
 36.8656  8310.24  90.3748
 36.9076  8265.92  89.9994
 36.9496  8412.62  90.7937
 36.9916  8289.66  89.751
 37.0336  8555.63  91.504
 37.0756  8435.69  90.6456
 37.1176  8247.59  89.8997
 37.1596  8358.65  90.5066
 37.2016  8342.64  90.6509
 37.2436  8423.59  90.3959
 37.2856  8253.48  89.7331
 37.3276  8461.51  90.3749
 37.3696  8266.06  90.0372
 37.4116  8330.06  90.3014
 37.4536  8258.51  89.7717
 37.4956  8056.87  88.9209
 37.5376  8231.09  91.2445
 37.5796  8137.27  90.6738
 37.6216  8108.49  88.7823
 37.6636  8110  88.6888
 37.7056  8107.32  88.868
 37.7476  8102.21  88.3714
 37.7896  8209.45  89.467
 37.8316  7952.3  88.2182
 37.8736  8350.24  89.9183
 37.9156  8300  89.6473
 37.9576  8254.87  89.2865
 37.9996  8180.66  88.5963
 38.0416  8081.39  88.8809
 38.0836  8365.58  90.3334
 38.1256  8097.82  88.8325
 38.1676  8133.46  89.1667
 38.2096  8133.34  88.7853
 38.2516  8296.24  89.8816
 38.2936  8169.33  88.9814
 38.3356  8178.88  88.955
 38.3776  8046.91  88.5085
 38.4196  8303.46  89.7625
 38.4616  8208.75  89.4876
 38.5036  8325.98  89.9547
 38.5456  7974.32  88.8697
 38.5876  8140.48  89.8202
 38.6296  8023.12  88.1335
 38.6716  7988.43  87.7383
 38.7136  8006.74  87.7827
 38.7556  7998.1  88.2426
 38.7976  7933.3  87.821
 38.8396  8026.65  88.7919
 38.8816  7877.46  87.7368
 38.9236  7979.7  88.1219
 38.9656  7958.9  87.9201
 39.0076  7987.25  87.4803
 39.0496  7930.98  87.7162
 39.0916  8111.07  88.3369
 39.1336  7978.44  88.0376
 39.1756  8001.09  88.2299
 39.2176  8033.91  88.9424
 39.2596  8156.16  89.5362
 39.3016  7928.71  87.852
 39.3436  7950.32  88.3997
 39.3856  7991.15  88.0724
 39.4276  8014.05  88.7013
 39.4696  7882.32  87.5886
 39.5116  7787.92  87.5769
 39.5536  8081.28  89.6481
 39.5956  8124.41  88.9682
 39.6376  8084.66  88.7641
 39.6796  8029.99  88.1914
 39.7216  8096.77  88.6656
 39.7636  7955.11  88.457
 39.8056  8031.01  88.6593
 39.8476  8009.33  88.79
 39.8896  7914.1  87.895
 39.9316  7946.06  88.3269
 39.9736  8138.62  88.9432
 40.0156  8089.99  88.5123
 40.0576  8014.64  88.4527
 40.0996  8140.28  88.3161
 40.1416  7984.99  88.2694
 40.1836  8081.06  88.6911
 40.2256  8011.05  88.3457
 40.2676  7986.7  88.3195
 40.3096  8051.45  88.5965
 40.3516  8131.6  89.1456
 40.3936  8199.12  89.0754
 40.4356  8094.84  88.6971
 40.4776  8191.2  89.6498
 40.5196  8107.41  89.3129
 40.5616  8177.17  89.3329
 40.6036  8002.64  88.633
 40.6456  8214.65  89.396
 40.6876  8227.07  89.447
 40.7296  8109.19  88.9514
 40.7716  8107.73  89.0698
 40.8136  8062.9  88.763
 40.8556  8005.2  88.5844
 40.8976  8066.23  88.8424
 40.9396  8006.93  88.8653
 40.9816  8051.63  88.3922
 41.0236  8037.35  88.1004
 41.0656  8128.24  89.1364
 41.1076  8202.03  89.3082
 41.1496  8112.51  88.7253
 41.1916  8101.42  88.9863
 41.2336  8010.99  88.4877
 41.2756  8146.98  88.8331
 41.3176  7949.2  88.3635
 41.3596  8057.13  88.6923
 41.4016  8033.83  88.8254
 41.4436  8135.12  89.1586
 41.4856  8075.59  88.999
 41.5276  8031.23  88.7741
 41.5696  7985.2  88.1482
 41.6116  7983.4  88.5379
 41.6536  7942.17  88.1684
 41.6956  8075.05  88.9508
 41.7376  8013.14  88.6457
 41.7796  7990.26  88.4028
 41.8216  8076.06  89.1103
 41.8636  8107.72  89.2243
 41.9056  8090.75  88.9123
 41.9476  8133.95  89.3872
 41.9896  8063.51  88.6639
 42.0316  8150.79  89.2286
 42.0736  8022.2  88.6298
 42.1156  7929.64  87.9579
 42.1576  8031.71  88.6201
 42.1996  8028.03  88.7468
 42.2416  8128.38  88.7784
 42.2836  7901.75  87.7339
 42.3256  7884.39  87.7584
 42.3676  8060.08  88.53
 42.4096  8018.14  88.2653
 42.4516  7865.86  87.5744
 42.4936  7898.11  87.7586
 42.5356  7979.89  88.3452
 42.5776  8027.07  88.5425
 42.6196  8038.36  88.6602
 42.6616  7742.65  87.185
 42.7036  7868.92  87.2788
 42.7456  7922.55  87.9335
 42.7876  8030.63  88.6359
 42.8296  7830.88  87.3603
 42.8716  7887.57  87.8325
 42.9136  7898.92  87.6822
 42.9556  7940.63  88.0439
 42.9976  7908.16  87.8282
 43.0396  7959.66  87.8458
 43.0816  7826.75  87.4819
 43.1236  7776.65  87.2658
 43.1656  7825.82  87.3689
 43.2076  7867.41  87.7066
 43.2496  7886.26  87.6211
 43.2916  7828.44  87.6695
 43.3336  7872.32  87.7512
 43.3756  7859.89  87.4299
 43.4176  7747.48  86.89
 43.4596  7862.92  87.3887
 43.5016  7839.05  87.6628
 43.5436  7796.36  87.3261
 43.5856  7767.95  87.1921
 43.6276  7790.96  87.2158
 43.6696  7752.14  87.2095
 43.7116  7866.27  87.3918
 43.7536  7841.91  87.7438
 43.7956  7559.5  87.3354
 43.8376  7832.86  87.4248
 43.8796  7710  86.8198
 43.9216  7772.37  87.0852
 43.9636  7687.57  86.723
 44.0056  7758.01  87.3458
 44.0476  7687.18  86.6976
 44.0896  7653.62  86.7346
 44.1316  7725.48  86.6604
 44.1736  7648.84  86.3528
 44.2156  7831.49  87.2207
 44.2576  7655.81  86.5738
 44.2996  7827.64  87.5017
 44.3416  7566.89  85.8083
 44.3836  7458.53  85.5014
 44.4256  7623.8  86.0999
 44.4676  7630.48  86.29
 44.5096  7603.61  86.2824
 44.5516  7500.96  85.6636
 44.5936  7487.49  85.5397
 44.6356  7607.27  85.9566
 44.6776  7610.74  86.2926
 44.7196  7595.07  86.5175
 44.7616  7688.24  88.3772
 44.8036  7384.62  85.071
 44.8456  7633.73  86.7022
 44.8876  7608.71  86.5026
 44.9296  7616.83  85.9031
 44.9716  7583.91  86.1492
 45.0136  7575.73  86.0376
 45.0556  7591.05  86.0959
 45.0976  7612.24  86.3759
 45.1396  7384.62  84.8431
 45.1816  7451.76  85.1669
 45.2236  7490.72  85.2834
 45.2656  7382.84  85.1683
 45.3076  7457.03  85.3847
 45.3496  7423.73  85.4904
 45.3916  7530.51  86.3713
 45.4336  7487.02  85.9622
 45.4756  7482  85.7984
 45.5176  7402.45  84.9518
 45.5596  7462.56  85.4212
 45.6016  7381.13  85.3676
 45.6436  7458.18  84.9936
 45.6856  7473.25  85.7373
 45.7276  7313.83  86.129
 45.7696  7399.67  86.2939
 45.8116  7489.58  86.2413
 45.8536  7325.44  85.1889
 45.8956  7433.89  85.1663
 45.9376  7488.79  84.9451
 45.9796  7356.28  84.8666
 46.0216  7435.25  85.6687
 46.0636  7384.17  84.5263
 46.1056  7397.7  84.5854
 46.1476  7509.53  85.8186
 46.1896  7404.9  85.3696
 46.2316  7340.41  84.8684
 46.2736  7301.61  85.0069
 46.3156  7426.97  85.3175
 46.3576  7401.05  85.369
 46.3996  7243.72  84.6184
 46.4416  7431.49  85.2829
 46.4836  7231.51  84.4812
 46.5256  7462.55  85.7562
 46.5676  7240  84.5818
 46.6096  7388.56  85.3684
 46.6516  7363.27  84.2805
 46.6936  7359.31  84.7475
 46.7356  7328.96  84.6797
 46.7776  7195.18  84.8073
 46.8196  7269.04  84.7672
 46.8616  7161.53  84.0919
 46.9036  7181.62  83.8662
 46.9456  7235.08  83.8283
 46.9876  7221.32  83.8286
 47.0296  7316.25  84.9712
 47.0716  7169.43  84.0307
 47.1136  7263.01  84.2584
 47.1556  7221.36  83.8824
 47.1976  7266.88  84.2267
 47.2396  7223.81  84.3666
 47.2816  7141.28  83.5847
 47.3236  7242.86  84.5539
 47.3656  7228.52  84.4012
 47.4076  7138.47  83.6828
 47.4496  7123.94  83.6873
 47.4916  7218.74  84.4243
 47.5336  7237.76  84.3587
 47.5756  7218.27  84.366
 47.6176  7182.62  84.0483
 47.6596  7160.93  83.6361
 47.7016  7316.29  84.3557
 47.7436  7184.4  83.9212
 47.7856  7212.11  84.1249
 47.8276  7071.9  83.3489
 47.8696  7147.29  83.8793
 47.9116  7322.62  84.6074
 47.9536  7118.47  83.3608
 47.9956  7052.21  83.6746
 48.0376  7017.23  83.2389
 48.0796  7114.85  83.9504
 48.1216  7257.93  84.5988
 48.1636  7369.53  84.8262
 48.2056  7260  84.4579
 48.2476  7029.23  83.3943
 48.2896  7164.15  84.1206
 48.3316  7088.47  83.6167
 48.3736  7067.06  83.5093
 48.4156  6980.12  82.9522
 48.4576  7018.83  83.3665
 48.4996  7084.94  83.2166
 48.5416  7118.35  83.7377
 48.5836  7102.94  83.3302
 48.6256  7101.2  83.523
 48.6676  7053.05  83.7421
 48.7096  7077.95  83.1769
 48.7516  7004.34  82.8812
 48.7936  6872.53  82.2538
 48.8356  7010.8  83.0322
 48.8776  7069.36  83.9361
 48.9196  7168.53  83.8996
 48.9616  7003.92  83.3115
 49.0036  7083.15  84.127
 49.0456  6995.56  83.589
 49.0876  7025.65  83.311
 49.1296  6959.21  83.0658
 49.1716  6899.67  82.8034
 49.2136  7066.55  83.5042
 49.2556  7116.6  83.8407
 49.2976  7028.99  83.3861
 49.3396  6963.69  83.0459
 49.3816  7037.79  83.077
 49.4236  7020.31  83.2409
 49.4656  6887.77  82.476
 49.5076  7028.57  83.0637
 49.5496  7006.75  82.9932
 49.5916  6940.23  82.5172
 49.6336  6960.24  82.8448
 49.6756  6964.68  83.097
 49.7176  6893.44  82.615
 49.7596  6962.98  82.8039
 49.8016  7031.6  83.126
 49.8436  6876.09  82.4943
 49.8856  6921.13  82.7733
 49.9276  6851.93  82.4509
 49.9696  6946.3  83.0054
 50.0116  6869.3  82.6751
 50.0536  6858.05  82.5509
 50.0956  6915.48  82.9683
 50.1376  6872.42  82.4145
 50.1796  6928.42  83.0157
 50.2216  6879.29  82.719
 50.2636  6834.61  82.0674
 50.3056  6830.72  82.214
 50.3476  6795.18  82.0239
 50.3896  6761.73  81.7929
 50.4316  6930.05  82.6389
 50.4736  6811.88  82.1507
 50.5156  6832.21  82.2625
 50.5576  6891.88  82.382
 50.5996  6778.15  81.9777
 50.6416  6812.54  82.1129
 50.6836  6789.31  82.0323
 50.7256  6864.99  82.3986
 50.7676  6810.25  82.3942
 50.8096  6744.76  81.5494
 50.8516  6684.94  81.5927
 50.8936  6728.77  81.6469
 50.9356  6817.29  82.2811
 50.9776  6823.71  82.4771
 51.0196  6582.58  81.1335
 51.0616  6689.12  81.1132
 51.1036  6710.14  81.597
 51.1456  6763  81.8248
 51.1876  6771.86  81.2271
 51.2296  6659.89  81.1855
 51.2716  6691.9  81.0886
 51.3136  6690.09  81.5295
 51.3556  6739.35  81.456
 51.3976  6702.3  81.3811
 51.4396  6572.63  80.8898
 51.4816  6646.2  81.189
 51.5236  6637.65  81.2234
 51.5656  6653.97  80.935
 51.6076  6729.67  81.472
 51.6496  6663.1  81.2647
 51.6916  6714.81  81.9291
 51.7336  6631.81  81.5207
 51.7756  6704.91  81.663
 51.8176  6551.82  80.8266
 51.8596  6642.16  81.4
 51.9016  6766.37  81.7653
 51.9436  6642.85  82.4507
 51.9856  6545.84  82.2922
 52.0276  6676.5  81.6269
 52.0696  6585.84  81.1329
 52.1116  6639.36  81.5831
 52.1536  6520.56  80.7302
 52.1956  6620.31  80.8087
 52.2376  6761.17  81.8473
 52.2796  6586.82  80.6006
 52.3216  6522.58  80.8888
 52.3636  6631.91  81.1417
 52.4056  6575.05  80.6401
 52.4476  6502.62  80.5679
 52.4896  6500.07  80.6039
 52.5316  6469.47  80.4542
 52.5736  6560.14  80.7487
 52.6156  6575.82  81.2149
 52.6576  6686.9  81.3497
 52.6996  6474.12  80.9985
 52.7416  6590.71  81.6581
 52.7836  6582.39  81.3947
 52.8256  6577.97  80.605
 52.8676  6510.65  80.7642
 52.9096  6505.3  80.8223
 52.9516  6516.24  81.2614
 52.9936  6422.82  81.0545
 53.0356  6462.86  80.3117
 53.0776  6391.02  80.1219
 53.1196  6363.69  80.0772
 53.1616  6509.55  81.0363
 53.2036  6343.97  79.9552
 53.2456  6323.38  79.9272
 53.2876  6404.84  80.1458
 53.3296  6462.95  80.8349
 53.3716  6399.77  80.1868
 53.4136  6320.5  79.8366
 53.4556  6338.48  79.9787
 53.4976  6194.26  78.9135
 53.5396  6399.39  80.5972
 53.5816  6453.91  80.5795
 53.6236  6250.61  79.624
 53.6656  6321.57  79.7159
 53.7076  6470.88  80.6175
 53.7496  6411  80.3644
 53.7916  6514.62  81.1346
 53.8336  6349.83  80.0035
 53.8756  6284.15  80.1334
 53.9176  6366.98  80.0059
 53.9596  6398.76  80.9801
 54.0016  6355.11  80.03
 54.0436  6403.68  80.5566
 54.0856  6454.72  80.3038
 54.1276  6400.02  80.1528
 54.1696  6425.4  80.4923
 54.2116  6377.33  79.9417
 54.2536  6397.68  79.879
 54.2956  6329.78  79.5059
 54.3376  6264.69  79.5813
 54.3796  6316.99  79.8097
 54.4216  6478.27  80.6931
 54.4636  6266.13  79.497
 54.5056  6330.55  79.7276
 54.5476  6276.21  79.7149
 54.5896  6379.81  80.2058
 54.6316  6361.08  79.942
 54.6736  6461.86  80.6475
 54.7156  6344.13  79.9325
 54.7576  6248.68  79.3218
 54.7996  6382.34  80.3031
 54.8416  6312.54  79.9092
 54.8836  6275.58  79.7913
 54.9256  6292.1  79.6454
 54.9676  6321.99  79.6963
 55.0096  6297.51  79.6076
 55.0516  6302.09  79.8738
 55.0936  6242  79.1159
 55.1356  6239.8  79.1466
 55.1776  6282.19  79.685
 55.2196  6356.13  79.9328
 55.2616  6313.88  79.8793
 55.3036  6271.95  79.7786
 55.3456  6219.35  79.588
 55.3876  6332.66  80.054
 55.4296  6212.07  79.2643
 55.4716  6356.06  80.2112
 55.5136  6271.71  79.4294
 55.5556  6273.95  79.5213
 55.5976  6312.7  79.8187
 55.6396  6302.35  79.7057
 55.6816  6306.49  79.6097
 55.7236  6389.72  80.1763
 55.7656  6309.81  79.4279
 55.8076  6358.13  79.7153
 55.8496  6240.28  79.2928
 55.8916  6199.73  79.2307
 55.9336  6261.34  79.4447
 55.9756  6273.26  79.4075
 56.0176  6226.49  79.2595
 56.0596  6275.03  79.5583
 56.1016  6274.78  79.5669
 56.1436  6243  79.6298
 56.1856  6211.64  79.1732
 56.2276  6202.01  79.1619
 56.2696  6333.13  79.9674
 56.3116  6131.03  79.084
 56.3536  6276.28  79.6735
 56.3956  6221.8  79.3171
 56.4376  6130.09  78.7584
 56.4796  6252.89  79.3495
 56.5216  6235.28  79.6149
 56.5636  6246.79  79.2749
 56.6056  6173.72  79.0403
 56.6476  6168.83  78.6376
 56.6896  6271.05  79.7336
 56.7316  6249.28  79.5042
 56.7736  6173.65  79.0018
 56.8156  6271.1  79.6494
 56.8576  6201.57  79.1433
 56.8996  6270.33  79.5206
 56.9416  6194.29  79.3294
 56.9836  6151.86  78.572
 57.0256  6225.18  79.3644
 57.0676  6215.79  79.4286
 57.1096  6202.19  79.1294
 57.1516  6312.29  79.8953
 57.1936  6196.85  78.907
 57.2356  6214.28  79.3379
 57.2776  6171  79.0177
 57.3196  6170.89  79.3876
 57.3616  6230.8  79.2603
 57.4036  6203.06  79.1474
 57.4456  6198.64  79.0859
 57.4876  6218.15  79.0661
 57.5296  6201.38  79.3025
 57.5716  6204.45  79.3067
 57.6136  6184.57  78.9942
 57.6556  6178.83  79.1009
 57.6976  6321.89  79.8315
 57.7396  6087.9  78.7157
 57.7816  6080.18  79.0256
 57.8236  6178.29  79.501
 57.8656  6171.21  79.0632
 57.9076  6214.62  79.3704
 57.9496  6098.99  78.9731
 57.9916  6196.77  79.1157
 58.0336  6173  79.2438
 58.0756  6223.5  79.2
 58.1176  6221.17  79.1764
 58.1596  6165.27  79.4034
 58.2016  6232.09  79.044
 58.2436  6232.19  79.4584
 58.2856  6239.04  79.425
 58.3276  6160.23  79.2911
 58.3696  6085.27  78.5544
 58.4116  6133.2  78.7317
 58.4536  6276.49  79.5225
 58.4956  6178.84  79.089
 58.5376  6286.75  79.3409
 58.5796  6197.7  79.2072
 58.6216  6209.19  79.0942
 58.6636  6291  79.8346
 58.7056  6122.1  78.6079
 58.7476  6118.18  79.0297
 58.7896  6109.92  78.6194
 58.8316  6167.5  78.979
 58.8736  6179.74  79.0674
 58.9156  6178.07  79.1
 58.9576  6218.64  79.6954
 58.9996  6297.4  79.414
 59.0416  6442.3  80.7057
 59.0836  6165.23  78.8746
 59.1256  6155.85  79.5156
 59.1676  6183.83  80.0065
 59.2096  6267.58  79.8638
 59.2516  6275.49  79.4871
 59.2936  6297.9  79.964
 59.3356  6318.61  79.9702
 59.3776  6222.48  79.5311
 59.4196  6215.02  79.417
 59.4616  6169.93  78.9883
 59.5036  6252.37  79.5494
 59.5456  6402.3  80.1826
 59.5876  6355.12  80.0827
 59.6296  6136.03  78.76
 59.6716  6188.21  79.1528
 59.7136  6387.77  80.4069
 59.7556  6135.02  78.9377
 59.7976  6203.39  79.1149
 59.8396  6224.2  79.1402
 59.8816  6165.39  79.3169
 59.9236  6311.86  79.8889
 59.9656  6273.94  79.9119
 60.0076  6311.08  79.4934
 60.0496  6244.15  79.0959
 60.0916  6323.77  79.4934
 60.1336  6194.94  79.8012
 60.1756  6148.84  80.6988
 60.1996  6344.47  84.265