File: docs/examples/opeando_xrd/IS17_D/Data/IS17_D/17_Da_f00127.xye
# /beamlines/bl04/projects/cycle2025-II/20250340211-lsimonelli/DATA/IS17_D/17_Da_f00127.xye : mythproc.py merge -s 0.006 -l 0.5 -f /beamlines/bl04/inhouse/ff/FlatField/ff_20Nov2024rod8mm60s_17keV.raw -b True -c true -o xye /beamlines/bl04/projects/cycle2025-II/20250340211-lsimonelli/DATA/IS17_D/17_Da_00127.dat
# IsMon = [6786061, 6788296, 6788492]  IsPos = [-1.4999, -2.4884, -3.4988]
# Wave = 0.4962  CalPath /beamlines/bl04/projects/cycle2025-II/20250340211-lsimonelli/DATA/Align/Si_Pos1_25keV_f00001.cal
# Date = 2025-09-25_04:58:21 Dt = 4.8000  Bin = 0.0060  <imon> = 6787616 +/- 1103 (Min/Max) 6786061 / 6788492
# icurr 252.9193  mocoIn 1.7253E-05  mocoOut 0.8093  i15 7.10592e+06  imon 6.78762e+06  i7 4.6667  iEMpd_timer 4.8000  iEMpd_1 3.5013E-08  iEMpd_2 7.7535E-08  iEMpd_3 1.6446E-08  iEMpd_4 4.8375E-08  iEMhp_timer 4.8000  iEMhp_1 4.9405E-06  iEMhp_2 -2.4904E-08  iEMhp_3 -2.3950E-08  iEMhp_4 -2.1882E-08
#      9776
 1.5856  41252.7  208.583
 1.6276  48219.9  221.641
 1.6696  54918.1  235.7
 1.7116  63277.6  253.498
 1.7536  72504.2  270.195
 1.7956  77570.6  280.174
 1.8376  73357.9  272.892
 1.8796  62086.1  249.199
 1.9216  50146.4  224.858
 1.9636  42130.6  205.26
 2.0056  38258.6  194.842
 2.0476  35123.9  188.736
 2.0896  34297.8  185.41
 2.1316  33220  181.596
 2.1736  31290.5  177.641
 2.2156  31841.2  177.76
 2.2576  30730.2  175.257
 2.2996  29549  172.487
 2.3416  29697.9  171.54
 2.3836  29055.6  169.78
 2.4256  28643.8  169.122
 2.4676  27543.6  165.607
 2.5096  27824.8  166.504
 2.5516  26986.3  167.764
 2.5936  27245.4  165.162
 2.6356  26414.5  163.31
 2.6776  26203.5  161.548
 2.7196  26232.7  162.159
 2.7616  26078.6  161.461
 2.8036  25533.1  159.935
 2.8456  25665.5  160.96
 2.8876  25201.5  159.376
 2.9296  24754.2  158.082
 2.9716  24591  157.053
 3.0136  24334.7  156.301
 3.0556  24289.9  156.551
 3.0976  24412.2  155.88
 3.1396  24143.3  155.736
 3.1816  23908  154.903
 3.2236  23708.9  154.262
 3.2656  23630.5  153.04
 3.3076  23542.7  154.212
 3.3496  23744.6  153.805
 3.3916  24283.7  155.371
 3.4336  24792.5  157.573
 3.4756  25004.2  158.175
 3.5176  25672.3  160.068
 3.5596  25790  162.881
 3.6016  25891.7  160.798
 3.6436  25133.7  159.53
 3.6856  24978.8  157.326
 3.7276  23713  154.373
 3.7696  23486.7  153.828
 3.8116  23306.1  153.125
 3.8536  23347.7  153.192
 3.8956  23169.8  152.433
 3.9376  23157.2  152.646
 3.9796  22900.2  151.305
 4.0216  23209.9  151.354
 4.0636  23153.4  152.655
 4.1056  23015.3  151.836
 4.1476  23256.1  152.951
 4.1896  23618.9  153.994
 4.2316  23707.5  154.11
 4.2736  23994  154.823
 4.3156  24445.7  156.502
 4.3576  24931.7  157.983
 4.3996  25298.1  159.39
 4.4416  26062.4  161.365
 4.4836  26384.2  162.511
 4.5256  26836.4  164.517
 4.5676  26717.3  164.406
 4.6096  27336.1  164.947
 4.6516  27512.4  165.182
 4.6936  28061.1  167.643
 4.7356  28082.3  167.536
 4.7776  27991.4  167.094
 4.8196  27731.3  166.972
 4.8616  27158.2  164.715
 4.9036  26939  163.799
 4.9456  26734.6  163.822
 4.9876  26321.4  162.452
 5.0296  26630  163.221
 5.0716  26562.5  163.793
 5.1136  26538.4  163.425
 5.1556  26997.6  164.292
 5.1976  27302.3  165.217
 5.2396  27318.2  164.959
 5.2816  27135  164.868
 5.3236  27457.7  165.544
 5.3656  27036.3  165.197
 5.4076  26374.6  163.312
 5.4496  27087.9  164.983
 5.4916  27217.4  165.137
 5.5336  27025.2  164.558
 5.5756  26910  164.241
 5.6176  27358.5  165.03
 5.6596  27335.2  165.945
 5.7016  27482.6  165.648
 5.7436  27772.2  166.793
 5.7856  27714.2  166.682
 5.8276  28191.9  167.826
 5.8696  28185.5  167.984
 5.9116  28079.7  168.276
 5.9536  28131  168.183
 5.9956  28622.2  168.995
 6.0376  28701.9  169.88
 6.0796  28757.2  169.875
 6.1216  28880.3  170.44
 6.1636  29197  170.423
 6.2056  29130.9  170.904
 6.2476  29163.5  170.873
 6.2896  29466.6  171.436
 6.3316  29306.4  171.148
 6.3736  29501.2  171.607
 6.4156  29538.3  171.61
 6.4576  29795.8  171.957
 6.4996  30062.9  173.212
 6.5416  29809.4  172.618
 6.5836  29942.4  173.234
 6.6256  30052.6  173.113
 6.6676  30710.2  174.559
 6.7096  30479.6  174.763
 6.7516  30924.9  175.684
 6.7936  30957.9  175.203
 6.8356  31201.6  175.968
 6.8776  31448.5  177.472
 6.9196  31405.5  177.757
 6.9616  32028.6  178.947
 7.0036  32407.3  179.648
 7.0456  32547.8  179.328
 7.0876  32146  179.917
 7.1296  32346.5  179.608
 7.1716  32268.2  178.922
 7.2136  31911.3  177.708
 7.2556  32289.9  178.924
 7.2976  32387.2  179.699
 7.3396  32335.7  179.764
 7.3816  32093.1  179.312
 7.4236  32562.8  179.903
 7.4656  32670  179.682
 7.5076  33040  180.828
 7.5496  32975.4  181.195
 7.5916  32852.4  180.891
 7.6336  33180.7  181.685
 7.6756  33355.1  182.015
 7.7176  33804.3  183.545
 7.7596  33617.5  184.294
 7.8016  34071.8  187.747
 7.8436  34518.3  185.599
 7.8856  34809.7  185.991
 7.9276  35509.2  188.247
 7.9696  35748.9  189.195
 8.0116  36763.9  190.377
 8.0536  36990  191.211
 8.0956  36608.4  191.418
 8.1376  37468.1  193.12
 8.1796  37433.5  193.58
 8.2216  38489.2  195.006
 8.2636  38444.9  195.144
 8.3056  38300.1  195.561
 8.3476  38919.1  196.45
 8.3896  38758.2  196.127
 8.4316  38970.3  196.83
 8.4736  39115.2  196.655
 8.5156  38650.1  195.758
 8.5576  38477.1  196.311
 8.5996  38627.7  195.548
 8.6416  38544  196.619
 8.6836  38214.4  195.605
 8.7256  38891.8  196.765
 8.7676  38075.2  197.63
 8.8096  37609.7  193.719
 8.8516  38000.1  194.324
 8.8936  37256.4  192.307
 8.9356  37152  192.382
 8.9776  37605.2  193.651
 9.0196  37419.2  192.847
 9.0616  37657.8  192.913
 9.1036  37197.1  192.946
 9.1456  37035.7  191.863
 9.1876  37055.3  191.868
 9.2296  37348.5  192.011
 9.2716  36757.2  190.559
 9.3136  36569.2  190.05
 9.3556  37019.1  191.195
 9.3976  35377.1  187.443
 9.4396  35924.7  188.775
 9.4816  35320.1  187.051
 9.5236  35405.6  187.183
 9.5656  35324.6  187.295
 9.6076  35062  187.133
 9.6496  34822.5  186.419
 9.6916  34919  186.648
 9.7336  34659  185.729
 9.7756  35196  188.441
 9.8176  34004.2  184.72
 9.8596  34114.3  183.442
 9.9016  33444.7  181.627
 9.9436  33381.3  181.366
 9.9856  32919.3  180.335
 10.0276  32581.1  180.525
 10.0696  32903.8  180.443
 10.1116  31983.5  178.165
 10.1536  32142  178.776
 10.1956  31596.5  176.844
 10.2376  30955.8  174.547
 10.2796  31260.4  175.53
 10.3216  31028.9  175.149
 10.3636  30804.1  174.546
 10.4056  30398.2  173.792
 10.4476  30388.8  173.39
 10.4896  30954.1  174.437
 10.5316  29916.9  172.21
 10.5736  29847.4  172.418
 10.6156  29329.8  170.685
 10.6576  29537.9  169.836
 10.6996  29402.3  170.118
 10.7416  28856.4  168.774
 10.7836  29173.7  170.397
 10.8256  28641.1  169.273
 10.8676  28914.6  169.603
 10.9096  28369.3  168.041
 10.9516  28344.5  166.876
 10.9936  28303.8  166.955
 11.0356  28145.4  167.138
 11.0776  27927.2  165.789
 11.1196  27572.6  165.49
 11.1616  27272.1  164.27
 11.2036  27353.3  164.367
 11.2456  27398.8  165.223
 11.2876  27363.8  164.85
 11.3296  27183.3  164.199
 11.3716  27493.3  164.816
 11.4136  27787  166.617
 11.4556  28057.5  167.08
 11.4976  28380.4  166.974
 11.5396  27975.8  165.955
 11.5816  27524.6  165.076
 11.6236  26848.8  163.256
 11.6656  26820.9  162.325
 11.7076  26181  161.217
 11.7496  25857.7  164.189
 11.7916  26282.8  160.782
 11.8336  25769.9  160.101
 11.8756  25601  159.104
 11.9176  25656.1  158.927
 11.9596  25346.5  158.155
 12.0016  25260.1  158.69
 12.0436  25249.9  158.073
 12.0856  25080.4  158.075
 12.1276  25084.9  158
 12.1696  25075.6  157.098
 12.2116  25202.7  157.486
 12.2536  24756.4  156.932
 12.2956  24924.4  156.783
 12.3376  24651.6  156.138
 12.3796  25078.6  157.946
 12.4216  24745.2  156.109
 12.4636  24610.4  156.604
 12.5056  24678.3  156.085
 12.5476  24830.6  156.092
 12.5896  24871.5  156.858
 12.6316  24453.4  155.697
 12.6736  24644  156.792
 12.7156  24236.1  155.356
 12.7576  24556.9  156.626
 12.7996  24725.9  155.787
 12.8416  24649.7  156.614
 12.8836  25088.8  157.826
 12.9256  25187.3  157.139
 12.9676  25461  158.419
 13.0096  25134  158.516
 13.0516  25208.5  157.77
 13.0936  25317.6  158.52
 13.1356  25458.6  157.931
 13.1776  25317.2  158.495
 13.2196  25196.4  157.771
 13.2616  25240.6  158.22
 13.3036  25229.4  158.161
 13.3456  25239.3  158.546
 13.3876  25161.7  157.589
 13.4296  25238.4  157.982
 13.4716  25234.2  157.575
 13.5136  25240.4  157.755
 13.5556  25217.4  158.296
 13.5976  25333.7  158.796
 13.6396  25317.5  158.116
 13.6816  25194.7  158.23
 13.7236  25776.4  159.691
 13.7656  25012  157.844
 13.8076  25019.4  156.64
 13.8496  24809.2  156.588
 13.8916  24907.4  157.908
 13.9336  25006  157.433
 13.9756  24766.2  156.023
 14.0176  24631.7  156.286
 14.0596  24672.3  156.38
 14.1016  24337.2  155.715
 14.1436  24107.4  154.107
 14.1856  23897.2  153.723
 14.2276  23701.1  153.584
 14.2696  23860.3  153.945
 14.3116  23557.9  152.861
 14.3536  23230.3  151.971
 14.3956  23246  151.747
 14.4376  23448.8  152.184
 14.4796  23335.3  151.812
 14.5216  22742.3  150.672
 14.5636  22854.8  150.601
 14.6056  22907.4  150.349
 14.6476  22903.2  149.551
 14.6896  22348.5  148.282
 14.7316  21869.3  147.71
 14.7736  22009.4  147.318
 14.8156  21645.3  146.133
 14.8576  21651.1  145.999
 14.8996  21360.7  146.243
 14.9416  20983  144.945
 14.9836  21041.8  145.108
 15.0256  20864.2  143.397
 15.0676  20797.2  143.489
 15.1096  20660.5  142.751
 15.1516  20149.8  141.533
 15.1936  20331.6  141.594
 15.2356  20136  141.193
 15.2776  20059.6  140.503
 15.3196  19526.7  139.637
 15.3616  19598.2  139.644
 15.4036  19363.5  138.664
 15.4456  19725.8  139.6
 15.4876  19258.5  137.611
 15.5296  19335.8  138.179
 15.5716  18941.1  136.357
 15.6136  19059.1  137.112
 15.6556  18894.2  135.751
 15.6976  18718.6  135.417
 15.7396  18839.4  136.252
 15.7816  18513.2  134.566
 15.8236  18392  134.835
 15.8656  18358.6  134.5
 15.9076  18068.2  133.257
 15.9496  18095.4  136.173
 15.9916  17949.7  136.086
 16.0336  17638.4  131.775
 16.0756  17731  132.425
 16.1176  17631.7  132.126
 16.1596  17367.4  132.325
 16.2016  17654  132.124
 16.2436  17299.2  131.19
 16.2856  17419.8  131.183
 16.3276  17016.9  130.076
 16.3696  17148.1  130.392
 16.4116  17085.3  130.626
 16.4536  17327.5  131.325
 16.4956  16961.1  129.671
 16.5376  17033.4  130.133
 16.5796  16883.1  128.906
 16.6216  16993  129.639
 16.6636  16900.7  129.427
 16.7056  16984.9  129.631
 16.7476  16976.4  129.109
 16.7896  16947.4  129.772
 16.8316  16880.2  129.48
 16.8736  16740.4  129.203
 16.9156  16746.7  129.566
 16.9576  16654.2  130.017
 16.9996  16556.4  130.132
 17.0416  16707.2  129.05
 17.0836  16687.9  128.728
 17.1256  16453.1  127.836
 17.1676  16528.1  128.11
 17.2096  16253.3  126.924
 17.2516  16203.7  126.51
 17.2936  16151.5  126.624
 17.3356  15867.4  125.523
 17.3776  16012  126.28
 17.4196  15966.3  125.791
 17.4616  15907.2  125.476
 17.5036  15582.7  124.558
 17.5456  15512.2  124.926
 17.5876  15425.4  123.613
 17.6296  15577  124.038
 17.6716  15487.4  124.262
 17.7136  15237.7  123.398
 17.7556  15338.5  124.098
 17.7976  15236.4  123.426
 17.8396  15157.1  122.597
 17.8816  15308.2  123.753
 17.9236  15094.7  122.7
 17.9656  15357.6  124.308
 18.0076  15254.7  123.466
 18.0496  15298.9  122.765
 18.0916  15290.7  123.282
 18.1336  15146  122.795
 18.1756  15410.8  123.381
 18.2176  15073.1  122.257
 18.2596  15045  121.872
 18.3016  15287.3  123.112
 18.3436  15159  122.596
 18.3856  14949.5  121.88
 18.4276  15071.5  122.038
 18.4696  14918.6  121.527
 18.5116  15058.7  122.385
 18.5536  14968.8  122.381
 18.5956  14670.7  120.709
 18.6376  14737.9  121.396
 18.6796  14751.1  120.762
 18.7216  14920.5  121.949
 18.7636  14522.8  120.31
 18.8056  14697.8  120.965
 18.8476  14508.9  120.818
 18.8896  14618.3  120.599
 18.9316  14746.4  121.111
 18.9736  14471.6  119.671
 19.0156  14687.6  120.972
 19.0576  14512.3  119.104
 19.0996  14665.5  120.451
 19.1416  14359.7  119.585
 19.1836  14547.6  119.96
 19.2256  14442.8  119.741
 19.2676  14534.3  120.214
 19.3096  14615.9  120.8
 19.3516  14254.7  119.258
 19.3936  14483.1  120.11
 19.4356  14438.3  119.795
 19.4776  14507.2  120.175
 19.5196  14459.6  119.825
 19.5616  14362  119.684
 19.6036  14465.8  119.605
 19.6456  14433.7  119.596
 19.6876  14454.3  119.318
 19.7296  14580.5  120.307
 19.7716  14433.5  119.851
 19.8136  14639.1  120.926
 19.8556  15010.4  121.911
 19.8976  14923.8  121.626
 19.9396  15252.8  122.521
 19.9816  15266.7  122.824
 20.0236  15093.5  122.351
 20.0656  14808.7  121.184
 20.1076  14406.6  120.001
 20.1496  14362.7  119.819
 20.1916  14249.3  118.861
 20.2336  14117.3  118.236
 20.2756  14061.5  118.435
 20.3176  13935.2  117.651
 20.3596  13961.4  117.731
 20.4016  14000.4  117.703
 20.4436  13945.5  118.034
 20.4856  13835.5  117.359
 20.5276  13906.3  118.124
 20.5696  13753  116.928
 20.6116  13812.6  117.457
 20.6536  13777.5  116.81
 20.6956  13618.3  116.258
 20.7376  13618.7  116.492
 20.7796  13596.1  116.08
 20.8216  13654.5  116.03
 20.8636  13460  115.577
 20.9056  13637  116.282
 20.9476  13380.7  115.027
 20.9896  13638.1  115.99
 21.0316  13633.5  115.86
 21.0736  13596.9  116.238
 21.1156  13503.8  115.995
 21.1576  13417.3  115.679
 21.1996  13458.3  115.832
 21.2416  13310.7  115.031
 21.2836  13476.2  115.693
 21.3256  13310.4  115.075
 21.3676  13402.5  115.012
 21.4096  13255.3  114.694
 21.4516  13360.6  115.026
 21.4936  13149.6  114.36
 21.5356  13233.5  114.678
 21.5776  13482.4  115.579
 21.6196  13195.1  114.38
 21.6616  13154.5  114.288
 21.7036  13110.9  113.879
 21.7456  13067.4  113.765
 21.7876  13121.2  113.74
 21.8296  13127.1  113.627
 21.8716  13065.9  113.592
 21.9136  13447.8  115.449
 21.9556  13076  113.508
 21.9976  13155.2  113.871
 22.0396  13009.2  113.485
 22.0816  13049.3  114.215
 22.1236  13200.3  114.316
 22.1656  13107.5  114.042
 22.2076  13046.5  113.241
 22.2496  13190.3  113.889
 22.2916  13020.3  113.033
 22.3336  12972.2  113.559
 22.3756  12893.7  112.934
 22.4176  12951.3  113.04
 22.4596  12779.3  112.875
 22.5016  13049.2  113.549
 22.5436  13206.2  114.113
 22.5856  13053.8  113.699
 22.6276  13026.9  113.721
 22.6696  12913.3  113.574
 22.7116  12941.7  113.213
 22.7536  13009.9  113.486
 22.7956  13032.5  112.906
 22.8376  12923.6  112.961
 22.8796  13056.3  113.337
 22.9216  13097.8  114.073
 22.9636  13066.2  113.073
 23.0056  13046  113.119
 23.0476  13135.8  114.095
 23.0896  13515.7  115.089
 23.1316  13208.8  114.217
 23.1736  12999.1  116.313
 23.2156  13075.6  113.977
 23.2576  13005.9  113.812
 23.2996  12986  113.503
 23.3416  12803.7  113.229
 23.3836  12991.4  113.277
 23.4256  12914.6  113.061
 23.4676  13007.4  113.154
 23.5096  12758.5  112.751
 23.5516  12748.8  111.987
 23.5936  12943.2  113.752
 23.6356  13128.3  114.22
 23.6776  13035.9  114.03
 23.7196  12623.8  111.79
 23.7616  12950.3  113.146
 23.8036  12829.4  112.657
 23.8456  12862.2  112.37
 23.8876  12631.4  111.716
 23.9296  12434.4  111.328
 23.9716  12687.4  111.643
 24.0136  12666.5  112.467
 24.0556  12624.7  112
 24.0976  12454.3  111.043
 24.1396  12534  114.092
 24.1816  12547.2  112.547
 24.2236  12367.7  111.347
 24.2656  12202.3  110.068
 24.3076  12303.6  110.777
 24.3496  12342.2  110.841
 24.3916  12331  110.844
 24.4336  12164.1  110.3
 24.4756  12198.5  110.326
 24.5176  12152.1  109.758
 24.5596  12060.6  109.472
 24.6016  11938.7  109.206
 24.6436  11926.8  108.636
 24.6856  12056.2  108.979
 24.7276  11882.1  108.507
 24.7696  11880.8  108.623
 24.8116  11784.8  108.364
 24.8536  11750.2  108.198
 24.8956  11740.1  107.891
 24.9376  11686.6  107.582
 24.9796  11549.1  107.301
 25.0216  11469.7  107.047
 25.0636  11546.4  107.055
 25.1056  11455.4  107.341
 25.1476  11663.2  110.001
 25.1896  11730.9  108.766
 25.2316  11713.7  107.939
 25.2736  11471.1  106.47
 25.3156  11528.5  106.815
 25.3576  11391.8  106.589
 25.3996  11555.3  107.344
 25.4416  11521.3  107.17
 25.4836  11312.5  106.724
 25.5256  11322.2  106.129
 25.5676  11454.6  106.473
 25.6096  11230  106
 25.6516  11378.9  106.197
 25.6936  11238  105.851
 25.7356  11371  106.616
 25.7776  11343.7  106.084
 25.8196  11291.3  106.081
 25.8616  11269.3  105.899
 25.9036  11425.2  106.087
 25.9456  11311.2  106.161
 25.9876  11200.9  105.705
 26.0296  11355.3  105.935
 26.0716  11179.7  105.542
 26.1136  11349.8  106.281
 26.1556  11381.6  105.799
 26.1976  11134.3  105.573
 26.2396  11230.7  105.175
 26.2816  11235.8  105.821
 26.3236  11263.3  106.112
 26.3656  11154.2  105.322
 26.4076  11162.7  105.574
 26.4496  11736.2  107.731
 26.4916  11267.3  105.553
 26.5336  11195  105.543
 26.5756  11679.3  107.619
 26.6176  11157.9  105.275
 26.6596  10996.1  104.824
 26.7016  11035.5  104.764
 26.7436  10997.8  104.722
 26.7856  10895.9  104.217
 26.8276  10840.5  103.904
 26.8696  10872  103.929
 26.9116  10921.7  104.102
 26.9536  10767  103.416
 26.9956  10850.4  103.843
 27.0376  10776.8  103.709
 27.0796  10817.4  103.635
 27.1216  10749.4  103.387
 27.1636  10633.7  102.993
 27.2056  10704  103.216
 27.2476  10649.8  102.95
 27.2896  10706.2  103.337
 27.3316  10625.2  102.656
 27.3736  10638.8  102.991
 27.4156  10614.4  102.719
 27.4576  10561.9  102.695
 27.4996  10487.3  101.923
 27.5416  10505.7  102.333
 27.5836  10620.5  102.708
 27.6256  10850.4  103.984
 27.6676  10769.4  103.605
 27.7096  10634.8  102.825
 27.7516  10502.2  102.33
 27.7936  10396  101.991
 27.8356  10556.7  102.382
 27.8776  10431.6  101.826
 27.9196  10435.9  101.691
 27.9616  10344.3  101.442
 28.0036  10464.3  102.001
 28.0456  10378  101.702
 28.0876  10253.2  101.187
 28.1296  10322.2  101.367
 28.1716  10390.6  101.712
 28.2136  10433.5  101.888
 28.2556  10250.2  101.102
 28.2976  10279.1  101.235
 28.3396  10356.7  101.37
 28.3816  10323.5  101.23
 28.4236  10178.2  100.67
 28.4656  10164.8  100.641
 28.5076  10167.5  100.28
 28.5496  10175.4  100.592
 28.5916  10333.7  101.175
 28.6336  10106.4  100.4
 28.6756  10204.6  100.079
 28.7176  10131  100.272
 28.7596  10134.5  100.185
 28.8016  10186.2  100.471
 28.8436  10001.5  99.8027
 28.8856  10068.3  99.9767
 28.9276  10127.4  100.526
 28.9696  10023.6  99.6622
 29.0116  10114.4  100.294
 29.0536  9896.3  99.4089
 29.0956  10026.1  99.7813
 29.1376  9933.61  99.2868
 29.1796  9946.94  99.3948
 29.2216  9961.27  99.3085
 29.2636  10012.9  99.6421
 29.3056  9952.53  99.1302
 29.3476  9852.5  99.1542
 29.3896  10092.4  100.447
 29.4316  9928.77  98.9637
 29.4736  9930.04  99.0369
 29.5156  10131  99.948
 29.5576  9893.18  99.5232
 29.5996  9914.78  98.8794
 29.6416  9929.6  99.0703
 29.6836  9996.64  99.3284
 29.7256  9927.93  99.5662
 29.7676  9918.95  99.175
 29.8096  9992.86  99.4868
 29.8516  9730.44  98.5047
 29.8936  9793.08  98.9197
 29.9356  9828.56  98.8469
 29.9776  9725.83  98.4849
 30.0196  9837.36  98.4268
 30.0616  9822.73  98.7303
 30.1036  9873.52  98.8125
 30.1456  9684.05  98.0952
 30.1876  9725.72  98.2841
 30.2296  9724.98  98.2202
 30.2716  9786.28  98.1678
 30.3136  9927.2  99.7472
 30.3556  9793.45  99.0901
 30.3976  9752.62  100.424
 30.4396  9849.59  98.2222
 30.4816  9889.13  98.0082
 30.5236  9663.21  96.898
 30.5656  9843.83  98.4654
 30.6076  9828.28  97.8067
 30.6496  9816.38  98.1421
 30.6916  9569.94  96.9928
 30.7336  9707.83  97.8454
 30.7756  9678.3  97.7896
 30.8176  9644.19  97.532
 30.8596  9619.51  97.1641
 30.9016  9663.46  97.7424
 30.9436  9789.96  98.127
 30.9856  9599.78  97.2824
 31.0276  9657.28  97.1799
 31.0696  9424.59  96.5706
 31.1116  9589.44  97.3886
 31.1536  9618.61  97.4141
 31.1956  9445.96  96.6292
 31.2376  9405.77  96.4311
 31.2796  9567.03  96.7854
 31.3216  9614.92  96.9713
 31.3636  9518.37  97.1796
 31.4056  9644.66  99.1555
 31.4476  9441.74  95.9874
 31.4896  9393.53  96.2507
 31.5316  9491.54  96.143
 31.5736  9531.23  96.1569
 31.6156  9362.76  95.3267
 31.6576  9521.33  96.234
 31.6996  9508.55  95.834
 31.7416  9376.45  96.2294
 31.7836  9425.5  95.4936
 31.8256  9228.13  94.7595
 31.8676  9499.31  96.136
 31.9096  9344.5  95.7102
 31.9516  9164.76  94.9436
 31.9936  9372.1  95.8354
 32.0356  9323.9  95.6537
 32.0776  9448.51  96.1778
 32.1196  9482.05  96.4397
 32.1616  9455.88  95.757
 32.2036  9328.87  95.6281
 32.2456  9279.81  95.7607
 32.2876  9354.28  95.6304
 32.3296  9201.48  94.8137
 32.3716  9151.44  94.6589
 32.4136  9387.91  96.0895
 32.4556  9529.61  96.177
 32.4976  9356.19  95.2051
 32.5396  9354.78  95.271
 32.5816  9202.68  94.6149
 32.6236  9284.77  95.1087
 32.6656  9335.86  95.9196
 32.7076  9269.87  95.2276
 32.7496  9169.93  94.3676
 32.7916  9270.33  94.8532
 32.8336  9346.62  95.3328
 32.8756  9276.82  94.7025
 32.9176  9069.48  94.117
 32.9596  9098.12  94.3462
 33.0016  9217.75  94.7565
 33.0436  9278.87  95.243
 33.0856  9215.05  94.9759
 33.1276  9134.86  94.299
 33.1696  9157.56  94.2606
 33.2116  9231.52  94.8628
 33.2536  9128.97  94.3448
 33.2956  9149.1  94.5326
 33.3376  9047.54  93.7434
 33.3796  9221.83  94.8484
 33.4216  9276.55  94.7187
 33.4636  9096.49  93.9379
 33.5056  8940.49  93.3807
 33.5476  8983.45  93.5983
 33.5896  9084.22  93.8857
 33.6316  9009.13  93.8232
 33.6736  9011.07  94.0791
 33.7156  8975.5  93.9288
 33.7576  9036.11  93.8738
 33.7996  9195.11  94.4597
 33.8416  8827.87  92.7347
 33.8836  8986.61  93.3404
 33.9256  8997.35  93.4641
 33.9676  9135.48  94.0715
 34.0096  8888.08  93.1099
 34.0516  8991.21  93.2786
 34.0936  8981.23  93.4916
 34.1356  9044.03  93.5605
 34.1776  8886.76  92.748
 34.2196  8886.55  92.9328
 34.2616  8817.78  92.7014
 34.3036  8853.78  93.1507
 34.3456  8895.66  93.1225
 34.3876  8822.93  92.7054
 34.4296  8905.6  92.8161
 34.4716  8881.99  92.8457
 34.5136  8871.95  93.0014
 34.5556  8774.6  92.747
 34.5976  8884.11  93.12
 34.6396  8918.75  93.0159
 34.6816  8816.23  92.5919
 34.7236  8833.74  92.4668
 34.7656  8852.24  92.7567
 34.8076  8727.19  92.4238
 34.8496  8810.22  92.7197
 34.8916  8762.49  92.3423
 34.9336  8881.62  92.9278
 34.9756  8873.59  92.8065
 35.0176  8876.49  93.3679
 35.0596  8707.01  92.2842
 35.1016  8788.99  92.4857
 35.1436  8839  92.4303
 35.1856  8756.66  92.1291
 35.2276  8766.43  92.3597
 35.2696  8677.43  92.0783
 35.3116  8620.79  91.8707
 35.3536  8621.38  91.5856
 35.3956  8628.14  91.3304
 35.4376  8665.39  92.0862
 35.4796  8682.36  92.2388
 35.5216  8671.78  92.1375
 35.5636  8458.27  91.7414
 35.6056  8711.05  92.0984
 35.6476  8721.42  92.0593
 35.6896  8788.57  92.4987
 35.7316  8589.33  91.4206
 35.7736  8551.96  91.4175
 35.8156  8528.7  91.2952
 35.8576  8686.8  92.3882
 35.8996  8684.42  92.3499
 35.9416  8514.37  90.9396
 35.9836  8622.31  91.8651
 36.0256  8583.29  91.679
 36.0676  8671.2  91.9008
 36.1096  8502.95  91.1457
 36.1516  8695.24  92.0587
 36.1936  8515.83  90.9438
 36.2356  8601.55  92.0541
 36.2776  8591.71  91.4767
 36.3196  8585.63  91.1003
 36.3616  8483.46  90.6984
 36.4036  8502.55  90.8561
 36.4456  8625.06  91.72
 36.4876  8359.08  90.2389
 36.5296  8504.6  91.0594
 36.5716  8529.33  91.9826
 36.6136  8589.1  91.0577
 36.6556  8597.1  91.3019
 36.6976  8496.25  91.2693
 36.7396  8517.02  91.1101
 36.7816  8543.59  91.6305
 36.8236  8408.13  90.8231
 36.8656  8506.51  91.4304
 36.9076  8505.43  91.2978
 36.9496  8517.04  91.3476
 36.9916  8401.15  90.3496
 37.0336  8507.41  91.2389
 37.0756  8636.2  91.7145
 37.1176  8285.91  90.1046
 37.1596  8390.22  90.6708
 37.2016  8391.9  90.9119
 37.2436  8604.94  91.3624
 37.2856  8421.13  90.6367
 37.3276  8438.17  90.0666
 37.3696  8362.48  90.5644
 37.4116  8480.16  91.1042
 37.4536  8450.88  90.8115
 37.4956  8339.68  90.2574
 37.5376  8394.81  92.1144
 37.5796  8367.96  91.9425
 37.6216  8243.16  89.5091
 37.6636  8158.66  88.9524
 37.7056  8280.56  89.8062
 37.7476  8228.18  89.0478
 37.7896  8264.46  89.7531
 37.8316  8096.03  89.0106
 37.8736  8272.37  89.4912
 37.9156  8283.02  89.5498
 37.9576  8279.36  89.4202
 37.9996  8224.8  88.8285
 38.0416  8260.22  89.8539
 38.0836  8333.35  90.1465
 38.1256  8238.46  89.5898
 38.1676  8065.31  88.7864
 38.2096  8313.1  89.7583
 38.2516  8325.2  90.0309
 38.2936  8179.72  89.0351
 38.3356  8256.22  89.3639
 38.3776  8139.23  89.0084
 38.4196  8367.16  90.0958
 38.4616  8269.64  89.8049
 38.5036  8462.08  90.6809
 38.5456  8216.08  90.2036
 38.5876  8152.6  89.8851
 38.6296  8016.92  88.1124
 38.6716  8181.71  88.8024
 38.7136  8058.57  88.0735
 38.7556  8031.03  88.431
 38.7976  8086.05  88.6706
 38.8396  8052.05  88.9409
 38.8816  8032.65  88.6088
 38.9236  8070.58  88.6284
 38.9656  8094.92  88.6762
 39.0076  8089.78  88.0498
 39.0496  8121.04  88.767
 39.0916  8098.34  88.2852
 39.1336  8095.61  88.69
 39.1756  8006.76  88.2687
 39.2176  8015.86  88.8497
 39.2596  8169.32  89.6195
 39.3016  8013.07  88.3237
 39.3436  7925.86  88.2722
 39.3856  8104.12  88.7017
 39.4276  8126.53  89.3188
 39.4696  8101.17  88.8082
 39.5116  7979.64  88.652
 39.5536  8205.22  90.3319
 39.5956  8332.22  90.1047
 39.6376  8121.64  88.9612
 39.6796  8114.62  88.6603
 39.7216  8114.34  88.7565
 39.7636  8117.48  89.3588
 39.8056  8127.48  89.1861
 39.8476  7980.11  88.6286
 39.8896  8081.25  88.8138
 39.9316  8115.2  89.2571
 39.9736  8214.86  89.366
 40.0156  8087.64  88.497
 40.0576  8051.05  88.6589
 40.0996  8118.37  88.1987
 40.1416  8062.8  88.6971
 40.1836  8188.26  89.2693
 40.2256  8164.2  89.1889
 40.2676  8058.5  88.7154
 40.3096  8215.1  89.4867
 40.3516  8228.69  89.6772
 40.3936  8238.68  89.2896
 40.4356  8186.68  89.204
 40.4776  8149.72  89.4156
 40.5196  8222.1  89.9458
 40.5616  8202.35  89.475
 40.6036  8032.05  88.7947
 40.6456  8224.2  89.4455
 40.6876  8221.68  89.4273
 40.7296  8213.86  89.5203
 40.7716  8090.32  88.9713
 40.8136  8122.59  89.0948
 40.8556  8162.67  89.4507
 40.8976  8207.75  89.6157
 40.9396  8149.82  89.6566
 40.9816  8268.59  89.5777
 41.0236  8161.19  88.7708
 41.0656  8177.99  89.4107
 41.1076  8221.46  89.4125
 41.1496  8210.89  89.2614
 41.1916  8164.6  89.3387
 41.2336  8135  89.1682
 41.2756  8102.94  88.5938
 41.3176  8141.12  89.4254
 41.3596  8178.6  89.3549
 41.4016  8034.42  88.8203
 41.4436  8149.32  89.2358
 41.4856  8205.81  89.7133
 41.5276  8033.76  88.7897
 41.5696  8155.62  89.0822
 41.6116  8075.41  89.0468
 41.6536  8106.68  89.0746
 41.6956  8103.35  89.115
 41.7376  8107.56  89.1629
 41.7796  8013.12  88.5183
 41.8216  8248.25  90.0551
 41.8636  8126.5  89.3222
 41.9056  8074.1  88.8245
 41.9476  8066.87  89.0238
 41.9896  8141.49  89.093
 42.0316  8133.48  89.1303
 42.0736  8121.65  89.1839
 42.1156  8073.27  88.7512
 42.1576  8150.29  89.2706
 42.1996  8140.9  89.3677
 42.2416  8164.77  89.0675
 42.2836  7966.45  88.0996
 42.3256  7968.1  88.224
 42.3676  8102.74  88.7687
 42.4096  8103.8  88.7336
 42.4516  8002.99  88.2695
 42.4936  8065.51  88.6835
 42.5356  7977.92  88.3328
 42.5776  7983.73  88.3036
 42.6196  8060.2  88.7838
 42.6616  7880.99  87.9613
 42.7036  8030.1  88.1638
 42.7456  7982.61  88.2655
 42.7876  8041.16  88.694
 42.8296  8000.55  88.2951
 42.8716  7973.07  88.2995
 42.9136  7987.3  88.1712
 42.9556  7880.49  87.7131
 42.9976  7939.8  88.0048
 43.0396  7874.91  87.3737
 43.0816  7939.49  88.114
 43.1236  7910.06  88.0089
 43.1656  7897.57  87.772
 43.2076  7907.96  87.9315
 43.2496  7980.88  88.1469
 43.2916  7942.56  88.3033
 43.3336  7927.02  88.0557
 43.3756  7891.98  87.6116
 43.4176  7829.97  87.352
 43.4596  7838.44  87.2544
 43.5016  7928.42  88.1622
 43.5436  7886.65  87.8297
 43.5856  7818.65  87.4796
 43.6276  7892.08  87.7772
 43.6696  7934.1  88.2758
 43.7116  7938.72  87.7927
 43.7536  7925.96  88.2213
 43.7956  7822.94  88.8239
 43.8376  7812.82  87.3166
 43.8796  7769.2  87.1507
 43.9216  7903.92  87.8192
 43.9636  7849.44  87.6263
 44.0056  7760.79  87.3637
 44.0476  7795.85  87.1863
 44.0896  7814.67  87.6395
 44.1316  7917.38  87.7279
 44.1736  7774.55  87.0602
 44.2156  7918.26  87.7032
 44.2576  7706.05  86.8545
 44.2996  7777.6  87.2204
 44.3416  7720.06  86.6617
 44.3836  7721.33  86.9956
 44.4256  7629.19  86.1232
 44.4676  7677  86.5512
 44.5096  7636.42  86.4654
 44.5516  7687.59  86.7083
 44.5936  7648.28  86.451
 44.6356  7707.95  86.5204
 44.6776  7700.66  86.8037
 44.7196  7624.82  86.6842
 44.7616  7661.68  88.2332
 44.8036  7525.05  85.8681
 44.8456  7619.46  86.6146
 44.8876  7607.89  86.3949
 44.9296  7837.21  87.1314
 44.9716  7582.69  86.1262
 45.0136  7664  86.526
 45.0556  7720.33  86.8215
 45.0976  7525.56  85.8854
 45.1396  7542  85.7308
 45.1816  7544.8  85.6808
 45.2236  7662.81  86.253
 45.2656  7547.51  86.1003
 45.3076  7541.79  85.8581
 45.3496  7517.88  86.0237
 45.3916  7507.51  86.2336
 45.4336  7586.63  86.5278
 45.4756  7509.91  85.9356
 45.5176  7612.1  86.1427
 45.5596  7623.37  86.3234
 45.6016  7482.07  85.943
 45.6436  7559.18  85.5588
 45.6856  7480.3  85.7675
 45.7276  7474.2  87.0531
 45.7696  7456.27  86.6154
 45.8116  7516.44  86.4046
 45.8536  7372.32  85.4653
 45.8956  7487.28  85.4808
 45.9376  7450.18  84.7335
 45.9796  7475.17  85.5605
 46.0216  7555.73  86.3681
 46.0636  7629.11  85.9173
 46.1056  7504.54  85.2023
 46.1476  7481.82  85.6674
 46.1896  7493.65  85.8871
 46.2316  7284.52  84.5478
 46.2736  7290.45  84.9496
 46.3156  7468.29  85.5644
 46.3576  7469.91  85.7787
 46.3996  7355.31  85.2774
 46.4416  7454.19  85.4197
 46.4836  7204.51  84.3315
 46.5256  7387.03  85.3312
 46.5676  7478.02  85.9706
 46.6096  7463  85.8251
 46.6516  7529.28  85.23
 46.6936  7496.09  85.532
 46.7356  7522.43  85.7918
 46.7776  7266.38  85.1614
 46.8196  7307.52  84.9953
 46.8616  7216.04  84.4095
 46.9036  7208.99  84.0256
 46.9456  7278.51  84.0743
 46.9876  7344.2  84.5368
 47.0296  7226.1  84.534
 47.0716  7272.77  84.6323
 47.1136  7316.08  84.5586
 47.1556  7255.42  84.0811
 47.1976  7392.78  84.9528
 47.2396  7257.65  84.5706
 47.2816  7183.62  83.8408
 47.3236  7279.78  84.7596
 47.3656  7311.02  84.8815
 47.4076  7233.43  84.2307
 47.4496  7210.13  84.1922
 47.4916  7222.34  84.452
 47.5336  7309.8  84.7751
 47.5756  7281.69  84.7315
 47.6176  7198.15  84.1395
 47.6596  7252.14  84.1704
 47.7016  7343.3  84.5133
 47.7436  7283.79  84.502
 47.7856  7325.14  84.7675
 47.8276  7157.35  83.8448
 47.8696  7238.81  84.4081
 47.9116  7302.45  84.4925
 47.9536  7263.18  84.206
 47.9956  7036.86  83.5845
 48.0376  7065.43  83.5277
 48.0796  7216.18  84.543
 48.1216  7316.2  84.941
 48.1636  7358.44  84.7624
 48.2056  7207.55  84.1514
 48.2476  7296.5  84.9766
 48.2896  7101.4  83.7444
 48.3316  7168.87  84.0877
 48.3736  7154.81  84.0228
 48.4156  7097.1  83.5361
 48.4576  7198.53  84.4285
 48.4996  7204.69  83.9206
 48.5416  7184.68  84.1301
 48.5836  7121.95  83.4396
 48.6256  7306.59  84.7231
 48.6676  7201.54  84.6243
 48.7096  7123.91  83.4416
 48.7516  7103.6  83.4679
 48.7936  7019.98  83.0354
 48.8356  7040.87  83.2103
 48.8776  7114.94  84.2177
 48.9196  7261.31  84.4388
 48.9616  7113.66  83.9656
 49.0036  7034.07  83.8397
 49.0456  7067.41  84.0136
 49.0876  7094.17  83.7089
 49.1296  7006.68  83.3544
 49.1716  7038.74  83.4226
 49.2136  7129.11  83.8771
 49.2556  7151.64  84.0441
 49.2976  7097.31  83.7941
 49.3396  6957.79  83.0165
 49.3816  7096.08  83.2698
 49.4236  6952.09  82.8348
 49.4656  6971.68  82.9744
 49.5076  7083.45  83.3881
 49.5496  6933.59  82.5633
 49.5916  7085.79  83.3819
 49.6336  6984.89  82.989
 49.6756  7053.43  83.6274
 49.7176  6995.65  83.2256
 49.7596  6997.4  83.0048
 49.8016  6998.92  82.9325
 49.8436  6919.44  82.756
 49.8856  6913.06  82.727
 49.9276  6923.91  82.8833
 49.9696  6958.36  83.0793
 50.0116  6985.42  83.3734
 50.0536  7043.64  83.6646
 50.0956  6828.27  82.4413
 50.1376  6970.88  83.0026
 50.1796  6907.09  82.8871
 50.2216  6911.45  82.9041
 50.2636  6935.18  82.6712
 50.3056  6920.24  82.7532
 50.3476  6890.19  82.5911
 50.3896  6877.59  82.4892
 50.4316  6874.95  82.3102
 50.4736  6898.23  82.6708
 50.5156  6960.8  83.0271
 50.5576  6919.29  82.5446
 50.5996  6876.8  82.5737
 50.6416  6781.62  81.9275
 50.6836  6892.97  82.6577
 50.7256  6841.44  82.2722
 50.7676  6910.97  83.0077
 50.8096  6810.83  81.9467
 50.8516  6783.96  82.1996
 50.8936  6814.87  82.1628
 50.9356  6955.63  83.105
 50.9776  6857.29  82.677
 51.0196  6736.25  82.0729
 51.0616  6742.65  81.4368
 51.1036  6833.56  82.3338
 51.1456  6853.41  82.3711
 51.1876  6761.71  81.168
 51.2296  6858.3  82.3783
 51.2716  6655.01  80.8551
 51.3136  6777.69  82.0606
 51.3556  6762.39  81.5913
 51.3976  6745.94  81.6435
 51.4396  6703.26  81.6882
 51.4816  6660.49  81.2816
 51.5236  6786.48  82.1217
 51.5656  6733.89  81.4175
 51.6076  6802.73  81.9152
 51.6496  6742.27  81.7398
 51.6916  6734.08  82.0435
 51.7336  6753.63  82.26
 51.7756  6740.78  81.8795
 51.8176  6676.1  81.5898
 51.8596  6666.07  81.5458
 51.9016  6846.54  82.2424
 51.9436  6622.26  82.336
 51.9856  6585.4  82.5497
 52.0276  6719.65  81.8841
 52.0696  6689.65  81.7663
 52.1116  6690.23  81.8848
 52.1536  6566.52  81.0115
 52.1956  6664.71  81.0852
 52.2376  6878.39  82.5467
 52.2796  6691.4  81.2142
 52.3216  6680.04  81.8544
 52.3636  6609.19  80.9961
 52.4056  6616.61  80.8975
 52.4476  6548.17  80.8431
 52.4896  6501.81  80.606
 52.5316  6541.14  80.893
 52.5736  6671.91  81.4255
 52.6156  6486.27  80.6481
 52.6576  6737.37  81.6465
 52.6996  6443.36  80.8125
 52.7416  6719.42  82.3689
 52.7836  6552.96  81.2212
 52.8256  6674.13  81.1872
 52.8676  6497.26  80.6917
 52.9096  6555.2  81.1253
 52.9516  6564.46  81.5522
 52.9936  6447.69  81.2148
 53.0356  6471.2  80.3714
 53.0776  6453.88  80.5249
 53.1196  6460.62  80.6924
 53.1616  6426.55  80.5258
 53.2036  6343.23  79.9446
 53.2456  6423.86  80.5688
 53.2876  6380.7  80.0019
 53.3296  6352.73  80.1495
 53.3716  6536.26  81.041
 53.4136  6400.98  80.3512
 53.4556  6414.01  80.4599
 53.4976  6339.74  79.8436
 53.5396  6397.53  80.5955
 53.5816  6392.99  80.2053
 53.6236  6370.07  80.3977
 53.6656  6553.76  81.1802
 53.7076  6429.52  80.3667
 53.7496  6514.08  81.0145
 53.7916  6539.11  81.2944
 53.8336  6420.06  80.4524
 53.8756  6352.33  80.5699
 53.9176  6444.47  80.5003
 53.9596  6439.1  81.2382
 54.0016  6366.93  80.1104
 54.0436  6410.87  80.6053
 54.0856  6494.8  80.5481
 54.1276  6361.09  79.9198
 54.1696  6444.5  80.6098
 54.2116  6441.85  80.3514
 54.2536  6434.28  80.116
 54.2956  6501.59  80.5811
 54.3376  6325.64  79.9674
 54.3796  6441.22  80.5939
 54.4216  6488.32  80.9288
 54.4636  6417.76  80.4536
 54.5056  6369.89  79.9702
 54.5476  6394.48  80.4628
 54.5896  6505.87  80.9933
 54.6316  6503.8  80.8324
 54.6736  6328.99  79.8143
 54.7156  6455.68  80.6336
 54.7576  6280.35  79.5257
 54.7996  6410.2  80.4797
 54.8416  6370.94  80.2847
 54.8836  6303.94  79.974
 54.9256  6367.12  80.1226
 54.9676  6453.97  80.5248
 55.0096  6460.44  80.6331
 55.0516  6384.98  80.3931
 55.0936  6441.73  80.3679
 55.1356  6332.89  79.7367
 55.1776  6371.92  80.2513
 55.2196  6398.19  80.1972
 55.2616  6346.14  80.0862
 55.3036  6400.77  80.5909
 55.3456  6416.71  80.8413
 55.3876  6427.24  80.6495
 55.4296  6430.2  80.6422
 55.4716  6359.27  80.2281
 55.5136  6348.66  79.9192
 55.5556  6282.14  79.5737
 55.5976  6273.32  79.5762
 55.6396  6384.79  80.2271
 55.6816  6280.77  79.4475
 55.7236  6391  80.1778
 55.7656  6335.4  79.5877
 55.8076  6410.83  80.046
 55.8496  6372.81  80.1289
 55.8916  6330.89  80.0626
 55.9336  6363.21  80.093
 55.9756  6323.23  79.7294
 56.0176  6295.61  79.7077
 56.0596  6338.47  79.9629
 56.1016  6360.83  80.1108
 56.1436  6182.55  79.2412
 56.1856  6295.96  79.7064
 56.2276  6327.82  79.968
 56.2696  6249.96  79.44
 56.3116  6240.46  79.7876
 56.3536  6352.17  80.1534
 56.3956  6246.17  79.473
 56.4376  6293.24  79.8053
 56.4796  6345.78  79.9343
 56.5216  6269.87  79.8319
 56.5636  6311.22  79.6831
 56.6056  6253.27  79.5491
 56.6476  6324.1  79.6233
 56.6896  6268.73  79.723
 56.7316  6259.77  79.5769
 56.7736  6278.24  79.6869
 56.8156  6365.69  80.2426
 56.8576  6293.23  79.724
 56.8996  6297.53  79.6881
 56.9416  6273.37  79.8409
 56.9836  6261.33  79.2771
 57.0256  6220.41  79.3315
 57.0676  6243.22  79.6038
 57.1096  6296.15  79.7291
 57.1516  6263.71  79.5868
 57.1936  6271.17  79.3747
 57.2356  6232.41  79.4543
 57.2776  6296.46  79.8184
 57.3196  6184.12  79.4716
 57.3616  6331.07  79.8977
 57.4036  6300.73  79.7672
 57.4456  6271.58  79.5505
 57.4876  6391.2  80.1639
 57.5296  6262.25  79.6897
 57.5716  6197.89  79.2679
 57.6136  6290.22  79.6704
 57.6556  6254.43  79.5878
 57.6976  6309.02  79.7575
 57.7396  6230.81  79.6355
 57.7816  6242.27  80.0671
 57.8236  6231.16  79.7886
 57.8656  6213.72  79.3359
 57.9076  6270.21  79.724
 57.9496  6312.79  80.3503
 57.9916  6266.28  79.5585
 58.0336  6258.9  79.7912
 58.0756  6284.5  79.5855
 58.1176  6311.27  79.7537
 58.1596  6213.41  79.7091
 58.2016  6337.75  79.7017
 58.2436  6324.7  80.0437
 58.2856  6211.8  79.2457
 58.3276  6305.85  80.2183
 58.3696  6195.49  79.2596
 58.4116  6246.65  79.4544
 58.4536  6227.86  79.2166
 58.4956  6195.25  79.1911
 58.5376  6275.59  79.2701
 58.5796  6208.36  79.2736
 58.6216  6357.41  80.0346
 58.6636  6349.95  80.1991
 58.7056  6187.36  79.0214
 58.7476  6151.66  79.2421
 58.7896  6196.74  79.1742
 58.8316  6205.75  79.2268
 58.8736  6284.78  79.7335
 58.9156  6191  79.1871
 58.9576  6294.49  80.1731
 58.9996  6393.92  80.0291
 59.0416  6395.91  80.4168
 59.0836  6311.66  79.8031
 59.1256  6246.98  80.1043
 59.1676  6240.22  80.3779
 59.2096  6481.39  81.1991
 59.2516  6273.09  79.4567
 59.2936  6345.73  80.2517
 59.3356  6435.76  80.6928
 59.3776  6272.25  79.8333
 59.4196  6230.25  79.5007
 59.4616  6236.81  79.4001
 59.5036  6152.92  78.8976
 59.5456  6461.6  80.5377
 59.5876  6391.35  80.2953
 59.6296  6319.68  79.9147
 59.6716  6375.51  80.3264
 59.7136  6403.11  80.4881
 59.7556  6239.02  79.5887
 59.7976  6380.42  80.2206
 59.8396  6235.74  79.1984
 59.8816  6178.14  79.3832
 59.9236  6237.25  79.4001
 59.9656  6251.84  79.7579
 60.0076  6188.81  78.7045
 60.0496  6412.96  80.6352
 60.0916  6395.41  79.9272
 60.1336  6308.35  80.5129
 60.1756  6223.92  81.1745
 60.1996  0.0000000E+00  0.0000000E+00