File: docs/examples/opeando_xrd/IS17_D/Data/IS17_D/17_Db_f00010.xye
# /beamlines/bl04/projects/cycle2025-II/20250340211-lsimonelli/DATA/IS17_D/17_Db_f00010.xye : mythproc.py merge -s 0.006 -l 0.5 -f /beamlines/bl04/inhouse/ff/FlatField/ff_20Nov2024rod8mm60s_17keV.raw -b True -c true -o xye /beamlines/bl04/projects/cycle2025-II/20250340211-lsimonelli/DATA/IS17_D/17_Db_00010.dat
# IsMon = [6751976, 6753978, 6752707]  IsPos = [-1.5000, -2.4885, -3.4988]
# Wave = 0.4962  CalPath /beamlines/bl04/projects/cycle2025-II/20250340211-lsimonelli/DATA/Align/Si_Pos1_25keV_f00001.cal
# Date = 2025-09-23_20:28:26 Dt = 4.8000  Bin = 0.0060  <imon> = 6752887 +/- 827 (Min/Max) 6751976 / 6753978
# icurr 250.6074  mocoIn 1.7097E-05  mocoOut 0.8017  i15 7.07319e+06  imon 6.75289e+06  i7 6.0000  iEMpd_timer 4.8000  iEMpd_1 3.4036E-08  iEMpd_2 7.8130E-08  iEMpd_3 1.6864E-08  iEMpd_4 4.8621E-08  iEMhp_timer 4.8000  iEMhp_1 4.8968E-06  iEMhp_2 -2.4390E-08  iEMhp_3 -2.2680E-08  iEMhp_4 -2.0935E-08
#      9776
 1.5856  41516.3  209.239
 1.6276  48016  221.161
 1.6696  54134.6  234.002
 1.7116  61811.8  250.533
 1.7536  70150.7  265.761
 1.7956  74116.8  273.853
 1.8376  70788.8  268.059
 1.8796  60280.6  245.555
 1.9216  49600  223.619
 1.9636  42458.6  206.568
 2.0056  38617.9  195.746
 2.0476  35837.7  190.635
 2.0896  34796.6  186.744
 2.1316  33401.3  182.082
 2.1736  32054.3  179.788
 2.2156  32902.7  180.69
 2.2576  31443.8  177.269
 2.2996  30204  174.379
 2.3416  30674.6  174.328
 2.3836  30036.1  172.612
 2.4256  29236.2  170.853
 2.4676  28982.7  169.87
 2.5096  29388.4  171.111
 2.5516  37248.6  197.004
 2.5936  145312  381.36
 2.6356  32875.5  182.173
 2.6776  27623.4  165.885
 2.7196  26361.2  162.53
 2.7616  25847.5  160.732
 2.8036  25373.8  159.416
 2.8456  25566.5  160.647
 2.8876  24885.6  158.32
 2.9296  24350.4  156.767
 2.9716  24181.9  155.733
 3.0136  23817.9  154.615
 3.0556  24015.7  155.648
 3.0976  24080.3  154.783
 3.1396  23699  154.26
 3.1816  23372.4  153.136
 3.2236  23102.2  152.233
 3.2656  23022.5  151.047
 3.3076  22863.7  151.96
 3.3496  23180.7  152.189
 3.3916  23429.2  152.601
 3.4336  23782.6  154.314
 3.4756  24436.1  156.365
 3.5176  24821.3  157.366
 3.5596  24513.4  159.319
 3.6016  24918.2  157.743
 3.6436  23948.2  155.716
 3.6856  23591.7  152.903
 3.7276  22642.8  150.827
 3.7696  22520.7  150.422
 3.8116  21927.7  148.52
 3.8536  22270.9  149.612
 3.8956  22303.8  149.545
 3.9376  23017.6  152.19
 3.9796  21966.6  148.18
 4.0216  21887.4  146.97
 4.0636  21961.6  148.645
 4.1056  21858.4  147.965
 4.1476  22356  149.94
 4.1896  22400.8  149.954
 4.2316  22695.6  150.771
 4.2736  22977.2  151.509
 4.3156  23060.3  152.009
 4.3576  23845.7  154.479
 4.3996  24188.2  155.849
 4.4416  24842.7  157.538
 4.4836  26085  161.589
 4.5256  26156.5  162.414
 4.5676  25601.5  160.93
 4.6096  26154.3  161.7
 4.6516  26723.9  162.789
 4.6936  26858.6  164.017
 4.7356  27718.8  166.444
 4.7776  26900  163.796
 4.8196  26624.2  163.598
 4.8616  26003.6  161.307
 4.9036  25953.4  160.763
 4.9456  25824.2  161.001
 4.9876  25236.2  159.059
 5.0296  25247.4  158.938
 5.0716  25122.8  159.148
 5.1136  25127.1  159.026
 5.1556  25363.9  159.24
 5.1976  34977.5  186.977
 5.2396  26352.4  161.995
 5.2816  26090.7  161.665
 5.3236  25791.2  160.439
 5.3656  25532.7  160.54
 5.4076  25104.6  159.32
 5.4496  24964.7  158.388
 5.4916  25268  159.11
 5.5336  25067  158.481
 5.5756  25249.3  159.059
 5.6176  25342.1  158.821
 5.6596  25503.6  160.126
 5.7016  25447.6  159.387
 5.7436  25695.1  160.436
 5.7856  25612.4  160.245
 5.8276  25779.5  160.486
 5.8696  26062.8  161.427
 5.9116  25718.1  161.044
 5.9536  26232.3  162.4
 5.9956  26406.2  162.337
 6.0376  26370.1  162.831
 6.0796  26652.7  163.534
 6.1216  26491.2  163.232
 6.1636  26682  162.89
 6.2056  26715.3  163.664
 6.2476  27307.6  165.163
 6.2896  27179.1  164.641
 6.3316  27161.6  164.756
 6.3736  27422.1  165.44
 6.4156  27307.8  165.044
 6.4576  27739.9  165.913
 6.4996  27643.8  166.092
 6.5416  27741.9  166.506
 6.5836  28073.1  167.732
 6.6256  27636.2  165.995
 6.6676  28338.1  167.659
 6.7096  28441.1  168.816
 6.7516  28642  169.074
 6.7936  29916.1  172.199
 6.8356  30675.6  174.472
 6.8776  29808.1  172.779
 6.9196  29347.1  171.828
 6.9616  29671.1  172.2
 7.0036  29883.9  172.506
 7.0456  30184.7  172.689
 7.0876  30328.4  174.661
 7.1296  29931.2  172.759
 7.1716  29965.9  172.41
 7.2136  29784.8  171.669
 7.2556  30057.3  172.613
 7.2976  30076.2  173.156
 7.3396  29604.1  171.997
 7.3816  29969.3  173.269
 7.4236  30397.5  173.81
 7.4656  30525  173.637
 7.5076  30734  174.388
 7.5496  30250.1  173.531
 7.5916  30404.8  174.021
 7.6336  31273  176.375
 7.6756  30989.4  175.43
 7.7176  31599.6  177.465
 7.7596  31523.8  178.442
 7.8016  37562.4  197.177
 7.8436  32111.9  179.013
 7.8856  31860.7  177.934
 7.9276  32444.5  179.946
 7.9696  32397.2  180.114
 8.0116  33677.8  182.217
 8.0536  34291.1  184.11
 8.0956  36096.3  190.084
 8.1376  34518.3  185.367
 8.1796  34478.1  185.779
 8.2216  35763.8  187.975
 8.2636  36448.8  190.017
 8.3056  35523.2  188.344
 8.3476  37235.9  192.157
 8.3896  36359.1  189.96
 8.4316  35821.5  188.715
 8.4736  35686.9  187.838
 8.5156  35489.5  187.592
 8.5576  35476.5  188.5
 8.5996  35097.7  186.403
 8.6416  35372.6  188.36
 8.6836  34781.8  186.624
 8.7256  35998  189.311
 8.7676  38106.9  197.756
 8.8096  38824.2  196.84
 8.8516  36575.6  190.682
 8.8936  37819  193.794
 8.9356  36112.4  189.697
 8.9776  35628.1  188.496
 9.0196  35635.3  188.197
 9.0616  35968.3  188.579
 9.1036  37252.7  193.097
 9.1456  34667.8  185.63
 9.1876  34535.3  185.21
 9.2296  33892.3  182.936
 9.2716  33783.8  182.684
 9.3136  33744.9  182.571
 9.3556  34145.8  183.629
 9.3976  32976  180.964
 9.4396  33301.2  181.753
 9.4816  32946.7  180.644
 9.5236  32733.5  179.955
 9.5656  32453.5  179.539
 9.6076  31616.6  177.719
 9.6496  31790.5  178.095
 9.6916  31585.5  177.46
 9.7336  32185.1  178.927
 9.7756  31652.4  178.633
 9.8176  31544.9  177.892
 9.8596  31479  176.184
 9.9016  31484.2  176.192
 9.9436  31082.4  174.816
 9.9856  31105  175.313
 10.0276  30208.5  173.82
 10.0696  30441.5  173.548
 10.1116  30040.3  172.651
 10.1536  29477.8  170.69
 10.1956  28951.2  169.268
 10.2376  28992.6  168.913
 10.2796  28997.4  169.019
 10.3216  28422.8  167.477
 10.3636  28318.7  167.343
 10.4056  32017.4  178.362
 10.4476  32662.3  179.73
 10.4896  36792.2  190.149
 10.5316  33900.2  182.924
 10.5736  28682  169.019
 10.6156  28416.6  167.996
 10.6576  33649.2  181.262
 10.6996  28034.3  166.14
 10.7416  27266.9  164.058
 10.7836  27930.8  166.706
 10.8256  26044.5  161.399
 10.8676  26020.5  160.879
 10.9096  26212.2  161.51
 10.9516  25630.4  158.682
 10.9936  26706.8  162.184
 11.0356  26456.8  162.024
 11.0776  27959.2  165.883
 11.1196  27589.7  165.566
 11.1616  25664.3  159.348
 11.2036  27038.6  163.416
 11.2456  28561.9  168.691
 11.2876  25447.9  158.962
 11.3296  25216.1  158.153
 11.3716  25567.7  158.983
 11.4136  25013.9  158.075
 11.4556  25136.1  158.131
 11.4976  26877.8  162.497
 11.5396  27249.6  163.785
 11.5816  25364.2  158.448
 11.6236  24537.2  156.291
 11.6656  24681.1  155.698
 11.7076  23848.6  153.856
 11.7496  24263.1  159.117
 11.7916  24758.3  156.033
 11.8336  23476.4  152.83
 11.8756  24065.2  154.262
 11.9176  23531.4  152.223
 11.9596  23400.3  151.967
 12.0016  23116.5  151.778
 12.0436  23079.8  151.132
 12.0856  22655.4  150.225
 12.1276  22955.4  151.168
 12.1696  23157.9  150.964
 12.2116  23309.8  151.463
 12.2536  25868.4  160.384
 12.2956  23368.5  151.804
 12.3376  23484.9  152.397
 12.3796  22970.8  151.181
 12.4216  23186.9  151.104
 12.4636  24001.1  154.675
 12.5056  22748.2  149.866
 12.5476  22663  149.107
 12.5896  22468.3  149.093
 12.6316  22685.8  149.963
 12.6736  22579.2  150.088
 12.7156  22931.8  151.101
 12.7576  22779.2  150.838
 12.7996  22834.5  149.698
 12.8416  22921.4  151.011
 12.8836  23725.9  153.472
 12.9256  23535.8  151.899
 12.9676  23133.6  150.98
 13.0096  23392.3  152.933
 13.0516  23382.6  151.948
 13.0936  23017.7  150.873
 13.1356  23543.5  151.853
 13.1776  23416.8  152.443
 13.2196  23216.5  151.433
 13.2616  22769.4  150.28
 13.3036  23327.3  152.242
 13.3456  22867  150.702
 13.3876  23310.3  151.654
 13.4296  23267.2  151.676
 13.4716  23228.8  151.177
 13.5136  23254.7  151.408
 13.5556  23111.1  151.532
 13.5976  23324.3  152.405
 13.6396  23580.1  152.605
 13.6816  23627.1  153.097
 13.7236  23920  153.725
 13.7656  25833.4  160.236
 13.8076  27229.9  163.16
 13.8496  24985.4  157.121
 13.8916  23827  154.365
 13.9336  22936.3  150.758
 13.9756  22858.1  149.891
 14.0176  22619.1  149.768
 14.0596  23675.1  153.156
 14.1016  22874.8  150.963
 14.1436  22678.2  149.453
 14.1856  22202.9  148.162
 14.2276  22537.3  149.764
 14.2696  22414.3  149.203
 14.3116  21519.2  146.098
 14.3536  21211.6  145.212
 14.3956  21138  144.689
 14.4376  21263.3  144.913
 14.4796  21385.3  145.328
 14.5216  20978.2  144.71
 14.5636  21500.2  146.076
 14.6056  21015.5  143.989
 14.6476  20825.3  142.605
 14.6896  20458.4  141.87
 14.7316  20050.3  141.444
 14.7736  19812.2  139.774
 14.8156  19894.1  140.078
 14.8576  19793.9  139.6
 14.8996  19704.2  140.44
 14.9416  19193.7  138.625
 14.9836  19173.1  138.539
 15.0256  18602.7  135.41
 15.0676  18627.3  135.799
 15.1096  18416.6  134.775
 15.1516  18031.1  133.884
 15.1936  17997.7  133.223
 15.2356  18032.6  133.619
 15.2776  17923.4  132.816
 15.3196  17458.1  132.031
 15.3616  17484.3  131.904
 15.4036  17622.1  132.282
 15.4456  17862.5  132.841
 15.4876  17282.2  130.363
 15.5296  17343.6  130.869
 15.5716  16855.7  128.634
 15.6136  17048.9  129.682
 15.6556  18858.4  135.625
 15.6976  17383.2  130.288
 15.7396  17153.8  130.017
 15.7816  16854.9  128.407
 15.8236  16563.9  127.964
 15.8656  16633.1  128.029
 15.9076  16812.2  128.54
 15.9496  17722.2  134.78
 15.9916  16728.8  131.327
 16.0336  16887.2  128.897
 16.0756  16864.8  129.133
 16.1176  16278  126.784
 16.1596  16268.5  128.065
 16.2016  16144.1  126.361
 16.2436  16094.3  126.535
 16.2856  16137.9  126.229
 16.3276  15608.2  124.565
 16.3696  15832.5  125.295
 16.4116  15810.6  125.624
 16.4536  15810.6  125.446
 16.4956  16586.1  128.226
 16.5376  16116.3  126.582
 16.5796  15874.7  125.007
 16.6216  15738.7  124.732
 16.6636  15721.6  124.851
 16.7056  15546.1  124.019
 16.7476  15549.7  123.562
 16.7896  15465  123.955
 16.8316  15483  124.01
 16.8736  16154.6  126.925
 16.9156  15692.8  125.413
 16.9576  15395.9  124.994
 16.9996  15440.7  125.622
 17.0416  15428.5  124.004
 17.0836  15395  123.643
 17.1256  15332.2  123.4
 17.1676  15853.9  125.446
 17.2096  15675.7  124.634
 17.2516  15507.8  124.045
 17.2936  14927.4  121.755
 17.3356  14774.1  121.117
 17.3776  14579.1  120.496
 17.4196  14731.6  120.826
 17.4616  14942.2  121.602
 17.5036  15260.5  123.244
 17.5456  14457.6  120.573
 17.5876  14452.6  119.624
 17.6296  14586.3  120.006
 17.6716  14491.7  120.197
 17.7136  15283.2  123.564
 17.7556  14582.9  120.993
 17.7976  14388.6  119.789
 17.8396  14345.8  119.256
 17.8816  14057.8  118.6
 17.9236  14140.9  118.745
 17.9656  14107.1  119.272
 18.0076  14760.5  121.43
 18.0496  15525.9  123.658
 18.0916  20599.2  143.067
 18.1336  18117.7  134.299
 18.1756  15782.1  124.875
 18.2176  15996  125.937
 18.2596  14160.6  118.226
 18.3016  14633.1  120.448
 18.3436  15307.7  123.441
 18.3856  14510.8  120.071
 18.4276  14021.9  117.729
 18.4696  14217.3  118.628
 18.5116  14291.9  119.22
 18.5536  13825.6  117.61
 18.5956  13898.4  117.483
 18.6376  13947.3  118.083
 18.6796  13870.8  117.101
 18.7216  14100.5  118.623
 18.7636  13677.2  116.759
 18.8056  13331.9  115.196
 18.8476  13064.4  114.643
 18.8896  13158.9  114.409
 18.9316  13478.7  115.615
 18.9736  13277.5  114.624
 19.0156  13784.3  117.194
 19.0576  14004.1  116.975
 19.0996  13446.5  115.331
 19.1416  13557  116.187
 19.1836  13346  114.889
 19.2256  12955.7  113.414
 19.2676  13143.3  114.314
 19.3096  13119.1  114.444
 19.3516  13336.6  115.163
 19.3936  13304.1  115.107
 19.4356  13266.5  114.836
 19.4776  13173.1  114.515
 19.5196  13183.3  114.42
 19.5616  13109.2  114.343
 19.6036  13044.9  113.582
 19.6456  13297.9  114.788
 19.6876  13740.3  116.313
 19.7296  13341.9  115.075
 19.7716  13188.7  114.437
 19.8136  13428.6  115.809
 19.8556  13651  116.255
 19.8976  14027  117.897
 19.9396  13766.6  116.395
 19.9816  13915  117.27
 20.0236  14324.2  119.169
 20.0656  13587.1  116.068
 20.1076  13388.1  115.682
 20.1496  13197.2  114.835
 20.1916  13148.1  114.123
 20.2336  13043.7  113.628
 20.2756  12833.4  113.128
 20.3176  12802.6  112.754
 20.3596  12654.7  112.093
 20.4016  12833.6  112.679
 20.4436  12627.1  112.33
 20.4856  12857.2  113.135
 20.5276  12664.2  112.732
 20.5696  12563.1  111.845
 20.6116  12602.8  112.194
 20.6536  12444.5  111.067
 20.6956  12618.8  111.915
 20.7376  12367.9  111.001
 20.7796  12322.7  110.502
 20.8216  12632.9  111.604
 20.8636  12984.9  113.524
 20.9056  13987.5  117.753
 20.9476  12809.8  112.537
 20.9896  13597.7  115.813
 21.0316  12643.4  111.572
 21.0736  12887.6  113.166
 21.1156  13173.4  114.572
 21.1576  12767.1  112.82
 21.1996  12488.6  111.577
 21.2416  12443.6  111.213
 21.2836  12571.7  111.754
 21.3256  12485.3  111.441
 21.3676  12414.5  110.675
 21.4096  12590  111.822
 21.4516  12297.8  110.335
 21.4936  12165.2  110
 21.5356  12416  111.076
 21.5776  12511.6  111.336
 21.6196  12479.8  111.237
 21.6616  12540.9  111.587
 21.7036  12327.9  110.412
 21.7456  12207.3  109.945
 21.7876  11899  108.317
 21.8296  11869.4  108.039
 21.8716  12051.7  109.088
 21.9136  12331.7  110.551
 21.9556  12359.8  110.348
 21.9976  12176.2  109.557
 22.0396  12170  109.774
 22.0816  11981.1  109.43
 22.1236  12510.9  111.291
 22.1656  12008.3  109.222
 22.2076  11866.4  107.996
 22.2496  11814.5  107.787
 22.2916  12082.9  108.894
 22.3336  11991.5  109.167
 22.3756  11844.7  108.245
 22.4176  11651.4  107.217
 22.4596  11541.4  107.276
 22.5016  11850.4  108.219
 22.5436  11929.4  108.456
 22.5856  12121.2  109.564
 22.6276  12317.6  110.574
 22.6696  11878.4  108.942
 22.7116  11848.6  108.326
 22.7536  11642.3  107.358
 22.7956  11698.9  106.974
 22.8376  11601.9  107.035
 22.8796  11743.2  107.49
 22.9216  11618  107.441
 22.9636  11545.5  106.29
 23.0056  11656.9  106.928
 23.0476  11804.2  108.158
 23.0896  12034.8  108.603
 23.1316  11988.8  108.82
 23.1736  11944.1  111.479
 23.2156  11972.5  109.073
 23.2576  12389.4  111.084
 23.2996  11940.7  108.838
 23.3416  12261.4  110.806
 23.3836  12078  109.216
 23.4256  12266.9  110.195
 23.4676  12265.2  109.879
 23.5096  12152.9  110.017
 23.5516  12066.5  108.947
 23.5936  12168.6  110.301
 23.6356  12314.6  110.633
 23.6776  11969.9  109.282
 23.7196  12074.4  109.549
 23.7616  11964.1  108.757
 23.8036  12059.3  109.244
 23.8456  11824.7  107.743
 23.8876  11848.2  108.194
 23.9296  11813.2  108.513
 23.9716  11891  108.089
 24.0136  12059.9  109.746
 24.0556  11899.1  108.723
 24.0976  11722.6  107.741
 24.1396  11584.7  109.668
 24.1816  11749.4  109.197
 24.2236  11645.7  108.029
 24.2656  11770.4  108.096
 24.3076  11720.1  108.126
 24.3496  11828  108.5
 24.3916  11943.9  109.082
 24.4336  11665.4  108.003
 24.4756  11730.9  108.187
 24.5176  11748.1  107.899
 24.5596  11386  106.551
 24.6016  11364.1  106.537
 24.6436  11586.5  107.085
 24.6856  11357.5  105.772
 24.7276  11544.7  106.952
 24.7696  11401.2  106.398
 24.8116  11303.1  106.105
 24.8536  11320.7  106.2
 24.8956  11400.1  106.311
 24.9376  11329  106.157
 24.9796  11109.7  105.229
 25.0216  11231.7  105.923
 25.0636  11320.8  105.992
 25.1056  11056.8  105.171
 25.1476  10817.4  105.89
 25.1896  10813.8  104.415
 25.2316  10838.8  103.831
 25.2736  10854.4  103.561
 25.3156  10771.3  103.233
 25.3576  10673.6  103.191
 25.3996  10753.8  103.564
 25.4416  10688.8  103.226
 25.4836  10581.1  103.21
 25.5256  10719.1  103.257
 25.5676  10733.6  103.059
 25.6096  10583.2  102.903
 25.6516  10672.9  102.843
 25.6936  10650.7  103.053
 25.7356  10525.5  102.572
 25.7776  10657.5  102.895
 25.8196  10602.2  102.784
 25.8616  10647.5  102.944
 25.9036  10757.7  102.926
 25.9456  10519.3  102.373
 25.9876  10537.3  102.366
 26.0296  10664.7  102.747
 26.0716  10627.3  102.903
 26.1136  10725.2  103.31
 26.1556  10741.3  102.775
 26.1976  10486  102.459
 26.2396  10469.8  101.79
 26.2816  10390.3  101.758
 26.3236  10560.8  102.739
 26.3656  10565.7  102.495
 26.4076  10253.6  101.159
 26.4496  10568.1  102.312
 26.4916  10764.9  103.159
 26.5336  11075.6  104.966
 26.5756  11081.9  104.883
 26.6176  10639.3  102.783
 26.6596  10530.2  102.554
 26.7016  10288.4  101.137
 26.7436  10361.2  101.635
 26.7856  10037.9  100.019
 26.8276  10112.2  100.353
 26.8696  10245.5  100.888
 26.9116  10093.6  100.073
 26.9536  10135.5  100.33
 26.9956  9964.75  99.5171
 27.0376  10035.8  100.09
 27.0796  10134.6  100.381
 27.1216  10247  100.92
 27.1636  9966.69  99.706
 27.2056  10050.8  100.006
 27.2476  9968.93  99.5855
 27.2896  9849.5  99.1029
 27.3316  9950.86  99.335
 27.3736  9898.37  99.3348
 27.4156  9977.11  99.5757
 27.4576  9860.41  99.2145
 27.4996  10025.6  99.6504
 27.5416  9927.63  99.465
 27.5836  9886.29  99.0952
 27.6256  9938.61  99.5397
 27.6676  9881.64  99.2379
 27.7096  9809.79  98.754
 27.7516  10530.6  102.473
 27.7936  10693.1  103.411
 27.8356  10280.8  101.006
 27.8776  10334.5  101.333
 27.9196  10142  100.248
 27.9616  10185.9  100.663
 28.0036  9957.27  99.494
 28.0456  9660.44  98.1297
 28.0876  9649.31  98.1508
 28.1296  9692.9  98.2248
 28.1716  9902.06  99.2911
 28.2136  9767.35  98.5772
 28.2556  9752.14  98.6128
 28.2976  9760.99  98.6511
 28.3396  9749.99  98.3918
 28.3816  9720.67  98.2148
 28.4236  9781.06  98.6734
 28.4656  9576.55  97.6835
 28.5076  9473.29  96.7968
 28.5496  9440.16  96.8767
 28.5916  9480.92  96.9002
 28.6336  9432.66  96.9923
 28.6756  9551.77  96.8109
 28.7176  9549.92  97.3504
 28.7596  9353.21  96.2369
 28.8016  9382.56  96.4242
 28.8436  9305.03  96.2622
 28.8856  9429.4  96.7566
 28.9276  9552.23  97.6309
 28.9696  9425.22  96.6418
 29.0116  9250.09  95.9194
 29.0536  9209.36  95.9122
 29.0956  9374.36  96.4742
 29.1376  9406.47  96.6009
 29.1796  9271.74  95.9627
 29.2216  9258.57  95.7343
 29.2636  9533.38  97.1426
 29.3056  9238.27  95.503
 29.3476  9315.19  96.4087
 29.3896  9330.46  96.6022
 29.4316  9250.53  95.5287
 29.4736  9062.95  94.6165
 29.5156  9200.06  95.2495
 29.5576  9202.05  95.9818
 29.5996  9216.71  95.3372
 29.6416  9010.47  94.3753
 29.6836  8985.66  94.1796
 29.7256  9005.46  94.8307
 29.7676  9099.01  94.9936
 29.8096  8935.92  94.0817
 29.8516  8846.94  93.9323
 29.8936  8892.92  94.2638
 29.9356  9045.82  94.8342
 29.9776  8874.15  94.0762
 30.0196  9093.12  94.6355
 30.0616  9130.59  95.1937
 30.1036  9019.16  94.4416
 30.1456  8907.51  94.0805
 30.1876  8899.42  94.0173
 30.2296  8953.78  94.2576
 30.2716  8863.42  93.4266
 30.3136  8943.09  94.6793
 30.3556  9142.36  95.7284
 30.3976  9108.83  97.0198
 30.4396  9376.84  95.8251
 30.4816  9102.85  94.0287
 30.5236  9283.12  94.942
 30.5656  9242.32  95.3934
 30.6076  9054.54  94.1864
 30.6496  9151.64  94.7375
 30.6916  8971.35  93.8976
 30.7336  9144.17  94.9383
 30.7756  8923.2  93.8691
 30.8176  9098.99  94.7179
 30.8596  9100.38  94.4717
 30.9016  9089.09  94.3058
 30.9436  9058.18  94.3618
 30.9856  9198.62  95.2114
 31.0276  9000.52  93.8195
 31.0696  8940.77  94.0494
 31.1116  8959.83  94.1186
 31.1536  9082.76  94.6415
 31.1956  9023.77  94.432
 31.2376  8789.53  93.2135
 31.2796  9058.69  94.1795
 31.3216  8850.36  93.0132
 31.3636  8988.31  94.4217
 31.4056  8942.55  95.4512
 31.4476  9035.54  93.8914
 31.4896  9012.59  94.2691
 31.5316  9197.07  94.676
 31.5736  9738.72  97.2141
 31.6156  9581.65  96.4296
 31.6576  9319.92  95.1651
 31.6996  9179.84  94.1372
 31.7416  9199.04  95.1807
 31.7836  9108.18  93.86
 31.8256  8946.95  93.3628
 31.8676  9165.04  94.3975
 31.9096  8883.99  93.1694
 31.9516  8868.11  93.3845
 31.9936  8762.82  92.6598
 32.0356  8872.39  93.2785
 32.0776  8964.28  93.6681
 32.1196  9067.02  94.2197
 32.1616  8807.69  92.4069
 32.2036  8952.98  93.6715
 32.2456  8886.7  93.6944
 32.2876  8749.75  92.3111
 32.3296  8680.31  92.0738
 32.3716  8679.24  92.1877
 32.4136  8719.79  92.6049
 32.4556  8789.31  92.4217
 32.4976  8927.32  93.0452
 32.5396  8665.07  91.687
 32.5816  8576.55  91.3343
 32.6236  8764.42  92.3909
 32.6656  8675.61  92.4602
 32.7076  8624.91  91.8507
 32.7496  8574.04  91.2609
 32.7916  8630.27  91.5236
 32.8336  8617.4  91.5418
 32.8756  8716.24  91.7898
 32.9176  8595.22  91.6257
 32.9596  8757.6  92.5655
 33.0016  8583.47  91.423
 33.0436  8482.53  91.0412
 33.0856  8557.58  91.5332
 33.1276  8510.77  91.0236
 33.1696  8539.8  91.0045
 33.2116  8587.1  91.4863
 33.2536  8736.28  92.2715
 33.2956  8697.17  92.1539
 33.3376  8403.83  90.42
 33.3796  8569.46  91.4386
 33.4216  8523.82  90.7918
 33.4636  8593.27  91.3148
 33.5056  8391.44  90.4717
 33.5476  8511.67  91.0909
 33.5896  8569.88  91.1828
 33.6316  8492.43  91.0888
 33.6736  8278.53  90.1794
 33.7156  8375.3  90.7362
 33.7576  8452.71  90.797
 33.7996  8471.63  90.6723
 33.8416  8261.81  89.7229
 33.8836  8314.43  89.7887
 33.9256  8509.11  90.8933
 33.9676  8539.73  90.9461
 34.0096  8390.44  90.4612
 34.0516  8228.95  89.2232
 34.0936  8305.07  89.9055
 34.1356  8416.22  90.2529
 34.1776  8200.62  89.0815
 34.2196  8191.17  89.2096
 34.2616  8230.02  89.5598
 34.3036  8267.41  89.999
 34.3456  8279.69  89.8345
 34.3876  8340.27  90.221
 34.4296  8385.79  90.069
 34.4716  8364.62  90.1089
 34.5136  8318.75  90.0408
 34.5556  8187.47  89.5831
 34.5976  8425.4  90.7232
 34.6396  8311.55  89.7933
 34.6816  8341.13  90.0515
 34.7236  8346.93  89.8739
 34.7656  8354.53  90.1166
 34.8076  8144.77  89.3012
 34.8496  8120.18  89.0146
 34.8916  8200.3  89.3228
 34.9336  8230.78  89.4692
 34.9756  8429.32  90.4817
 35.0176  8241.86  89.9723
 35.0596  8334.77  90.3001
 35.1016  8212.81  89.3928
 35.1436  8431.81  90.2711
 35.1856  8239.43  89.3599
 35.2276  8087.2  88.6927
 35.2696  8223.65  89.6298
 35.3116  8144.65  89.2972
 35.3536  8209.97  89.3955
 35.3956  8252.47  89.3189
 35.4376  8239.76  89.8031
 35.4796  8258.8  89.9373
 35.5216  8099.39  89.0426
 35.5636  7969.42  89.0507
 35.6056  8103.91  88.8289
 35.6476  8225.42  89.3919
 35.6896  8260.42  89.7481
 35.7316  8100.82  88.7855
 35.7736  8101.48  88.9704
 35.8156  8189.37  89.4352
 35.8576  8124.53  89.3469
 35.8996  8158.89  89.5029
 35.9416  8021.59  88.2584
 35.9836  8114.19  89.2123
 36.0256  8314.49  90.2156
 36.0676  8289  89.5872
 36.1096  8107.15  88.9845
 36.1516  8198.49  89.379
 36.1936  8222.25  89.3431
 36.2356  8016.13  88.8591
 36.2776  8084.1  88.7058
 36.3196  8147.53  88.7424
 36.3616  8109.08  88.656
 36.4036  7996.81  88.1139
 36.4456  8062.16  88.6786
 36.4876  7904.35  87.7435
 36.5296  8000.43  88.3203
 36.5716  8031.27  89.2555
 36.6136  8164.6  88.7779
 36.6556  8058.17  88.3982
 36.6976  7849.73  87.7241
 36.7396  7891.34  87.6897
 36.7816  7862.9  87.9086
 36.8236  7838.69  87.6917
 36.8656  7692.77  86.9375
 36.9076  7843  87.7973
 36.9496  7717.29  86.9581
 36.9916  7735.1  86.6882
 37.0336  7884.64  87.8394
 37.0756  7802.44  87.1772
 37.1176  7482.27  85.6266
 37.1596  7666.91  86.6798
 37.2016  7723.19  87.1705
 37.2436  7840.2  87.2044
 37.2856  7830.73  87.4003
 37.3276  7793.73  86.5674
 37.3696  7591.11  86.2867
 37.4116  7725.03  86.9565
 37.4536  7566.31  85.9293
 37.4956  7673.82  86.5808
 37.5376  7831.4  89.0262
 37.5796  7861.1  89.1196
 37.6216  7818.69  87.1825
 37.6636  7856.86  87.2778
 37.7056  7784.93  87.0667
 37.7476  7918.69  87.3646
 37.7896  7767.42  87.0256
 37.8316  7810.16  87.4108
 37.8736  7717.27  86.4196
 37.9156  7702.02  86.3343
 37.9576  7802.34  86.8167
 37.9996  7739.52  86.1849
 38.0416  7826.35  87.4564
 38.0836  7908.25  87.8239
 38.1256  7874.95  87.608
 38.1676  7675.69  86.6081
 38.2096  7973.02  87.893
 38.2516  7731.19  86.7573
 38.2936  7907.05  87.5388
 38.3356  7849.8  87.1568
 38.3776  7693.85  86.5353
 38.4196  7935.8  87.7326
 38.4616  7863.43  87.5766
 38.5036  8052.59  88.4667
 38.5456  7667.69  87.1263
 38.5876  7692.03  87.2923
 38.6296  7733.45  86.5152
 38.6716  7811.39  86.7595
 38.7136  7670.45  85.9195
 38.7556  7767.37  86.9607
 38.7976  7671.11  86.3491
 38.8396  7683.57  86.8691
 38.8816  7601.85  86.2074
 38.9236  7667  86.3816
 38.9656  7724.35  86.6149
 39.0076  7665.36  85.6922
 39.0496  7809.33  87.0474
 39.0916  7865.16  87.0036
 39.1336  7616.29  86.0117
 39.1756  7697.44  86.5271
 39.2176  7705.64  87.1062
 39.2596  7798.65  87.5493
 39.3016  7720.49  86.7072
 39.3436  7550.39  86.1326
 39.3856  7718.37  86.5541
 39.4276  7814.33  87.5943
 39.4696  7760.67  86.914
 39.5116  7788.74  87.5857
 39.5536  7732.61  87.6794
 39.5956  7741.62  86.8497
 39.6376  7599.93  86.0574
 39.6796  7643.18  86.0442
 39.7216  7644.76  86.1491
 39.7636  7541.26  86.1104
 39.8056  7696.68  86.7941
 39.8476  7583.27  86.3947
 39.8896  7715.83  86.7854
 39.9316  7551.11  86.1016
 39.9736  7588.48  85.8911
 40.0156  7578.47  85.6677
 40.0576  7568.51  85.9495
 40.0996  7817.75  86.5545
 40.1416  7616.68  86.2092
 40.1836  7631.49  86.1798
 40.2256  7594.71  86.0109
 40.2676  7541.8  85.8818
 40.3096  7670.52  86.4725
 40.3516  7690.3  86.6973
 40.3936  7789.4  86.8115
 40.4356  7605.18  85.9782
 40.4776  7759.33  87.0699
 40.5196  7736.94  87.2412
 40.5616  7797.39  87.2313
 40.6036  7605.34  86.4008
 40.6456  7678.9  86.4232
 40.6876  7753.16  86.8388
 40.7296  7642.79  86.3436
 40.7716  7686.47  86.7221
 40.8136  7603.73  86.1975
 40.8556  7765.81  87.2332
 40.8976  7645.85  86.4905
 40.9396  7705.3  87.1708
 40.9816  7846.45  87.26
 41.0236  7670.15  86.058
 41.0656  7683.12  86.6533
 41.1076  7692.75  86.4849
 41.1496  7610.38  85.9307
 41.1916  7663.44  86.5438
 41.2336  7661.74  86.5305
 41.2756  7601.26  85.8077
 41.3176  7712.09  87.0174
 41.3596  7675.38  86.5589
 41.4016  7595.25  86.3631
 41.4436  7770.85  87.1427
 41.4856  7621.59  86.4644
 41.5276  7683.49  86.8319
 41.5696  7637.7  86.1941
 41.6116  7706.27  86.9796
 41.6536  7674.69  86.6444
 41.6956  7729.24  86.9566
 41.7376  7633.61  86.5136
 41.7796  7504.59  85.7063
 41.8216  7671.86  86.8462
 41.8636  7641.36  86.6141
 41.9056  7550.14  85.8891
 41.9476  7722.22  87.0973
 41.9896  7862.76  87.5549
 42.0316  7636.31  86.3696
 42.0736  7651.84  86.5847
 42.1156  7541.6  85.7656
 42.1576  7644.12  86.4559
 42.1996  7771.52  87.2965
 42.2416  7631.41  86.1052
 42.2836  7619.65  86.1605
 42.3256  7674.49  86.5678
 42.3676  7777.94  86.9646
 42.4096  7700.56  86.488
 42.4516  7777.25  87.0095
 42.4936  7641.58  86.3142
 42.5356  7526.2  85.7994
 42.5776  7655.64  86.4569
 42.6196  7641.69  86.4416
 42.6616  7500.38  85.8101
 42.7036  7478.31  85.0831
 42.7456  7669.4  86.5139
 42.7876  7604.96  86.2123
 42.8296  7544.41  85.7402
 42.8716  7488.4  85.5763
 42.9136  7483.02  85.2996
 42.9556  7606.98  86.1755
 42.9976  7586.89  86.0235
 43.0396  7505.39  85.2994
 43.0816  7520.6  85.7629
 43.1236  7383.96  85.0221
 43.1656  7494.64  85.4815
 43.2076  7553.32  85.9403
 43.2496  7525.16  85.5963
 43.2916  7472.25  85.6457
 43.3336  7591.28  86.1621
 43.3756  7526.61  85.5552
 43.4176  7393.91  84.873
 43.4596  7432.02  84.962
 43.5016  7489.46  85.6816
 43.5436  7538.66  85.8695
 43.5856  7505.68  85.7081
 43.6276  7503.08  85.5803
 43.6696  7415.87  85.2293
 43.7116  7434.05  84.9518
 43.7536  7498.12  85.8022
 43.7956  7417.58  86.5261
 43.8376  7315.83  84.4905
 43.8796  7246.11  84.1668
 43.9216  7292.15  84.3533
 43.9636  7300.86  84.5083
 44.0056  7301.98  84.7426
 44.0476  7251.9  84.0936
 44.0896  7322.47  84.8371
 44.1316  7368.88  84.7698
 44.1736  7331.6  84.5363
 44.2156  7303.71  84.2258
 44.2576  7221.78  84.0833
 44.2996  7325.4  84.6506
 44.3416  7345.14  84.5372
 44.3836  7194.96  83.9796
 44.4256  7171.03  83.4987
 44.4676  7151.67  83.5377
 44.5096  7381.49  85.0124
 44.5516  7229.14  84.0968
 44.5936  7122.6  83.4295
 44.6356  7224.44  83.7642
 44.6776  7302.45  84.5292
 44.7196  7323.39  84.9589
 44.7616  7368.41  86.5263
 44.8036  7327.22  84.9332
 44.8456  7450.4  85.6501
 44.8876  7394.87  85.1758
 44.9296  7408.03  84.7099
 44.9716  7436.98  85.3067
 45.0136  7336.03  84.6492
 45.0556  7289.26  84.47
 45.0976  7460.31  85.494
 45.1396  7169.2  83.5653
 45.1816  7216  83.7916
 45.2236  7318.48  84.2947
 45.2656  7261.03  84.4446
 45.3076  7356.85  84.791
 45.3496  7313.4  84.8422
 45.3916  7157.85  84.1992
 45.4336  7452.62  85.756
 45.4756  7323.56  84.8647
 45.5176  7433.45  85.1229
 45.5596  7457.24  85.3835
 45.6016  7303.63  84.9125
 45.6436  7216.09  83.5961
 45.6856  7170.68  83.956
 45.7276  7216.08  85.5326
 45.7696  7204.65  85.1465
 45.8116  7210.99  84.6246
 45.8536  7184.5  84.3604
 45.8956  7256.27  84.1438
 45.9376  7298.23  83.8606
 45.9796  7455.17  85.4522
 46.0216  7232.08  84.4942
 46.0636  7437.07  84.8047
 46.1056  7303.21  84.0451
 46.1476  7435.61  85.395
 46.1896  7285.07  84.6635
 46.2316  7243.83  84.3041
 46.2736  7226.44  84.4121
 46.3156  7223.62  84.1476
 46.3576  7168.39  84.0184
 46.3996  7178.36  84.2352
 46.4416  7278.35  84.3771
 46.4836  7184.41  84.2068
 46.5256  7314.79  84.9029
 46.5676  7305.31  84.965
 46.6096  7242.79  84.5288
 46.6516  7162.87  83.1308
 46.6936  7308.24  84.4592
 46.7356  7382.47  84.9702
 46.7776  7181.35  84.651
 46.8196  7189.76  84.4494
 46.8616  7093.48  83.6894
 46.9036  7099.2  83.3846
 46.9456  7177.16  83.4888
 46.9876  7239.15  83.9269
 47.0296  7185.04  84.2909
 47.0716  7079.8  83.5032
 47.1136  7082.7  83.2033
 47.1556  7176.02  83.617
 47.1976  7156.58  83.657
 47.2396  7191.05  84.1747
 47.2816  7160.88  83.7025
 47.3236  7131.4  83.9017
 47.3656  7194  84.1944
 47.4076  7190.66  83.9138
 47.4496  7144.81  83.8143
 47.4916  7171.63  84.1573
 47.5336  7236.2  84.3426
 47.5756  7195.44  84.2258
 47.6176  7104.22  83.5939
 47.6596  7118.38  83.3834
 47.7016  7263.11  84.0481
 47.7436  7227.74  84.1708
 47.7856  7185.9  83.9666
 47.8276  7212.83  84.1736
 47.8696  7128.74  83.7633
 47.9116  7223.13  84.0255
 47.9536  7144.26  83.5151
 47.9956  7081.85  83.8517
 48.0376  7039.09  83.3682
 48.0796  7123.65  83.9865
 48.1216  7110.56  83.7419
 48.1636  7229.52  84.0069
 48.2056  7165.06  83.9042
 48.2476  7207.85  84.4572
 48.2896  7341.48  85.1534
 48.3316  7230.94  84.4458
 48.3736  7142.93  83.9557
 48.4156  7114.61  83.6406
 48.4576  7173.75  84.2827
 48.4996  7172.36  83.7278
 48.5416  7226.51  84.3725
 48.5836  7094.11  83.2733
 48.6256  7228.73  84.2701
 48.6676  7182.64  84.5117
 48.7096  7136.95  83.5156
 48.7516  7216.49  84.1292
 48.7936  7025.14  83.0675
 48.8356  7117.23  83.6561
 48.8776  7137.26  84.2698
 48.9196  7344.7  84.9248
 48.9616  7177.96  84.3348
 49.0036  7162.14  84.5951
 49.0456  7156.5  84.5475
 49.0876  7143.08  84.0969
 49.1296  7041.25  83.5578
 49.1716  7111.85  83.8503
 49.2136  7244.69  84.5544
 49.2556  7253.27  84.6314
 49.2976  7101.9  83.8206
 49.3396  7091.11  83.7994
 49.3816  7231.43  84.0601
 49.4236  7218.69  84.4188
 49.4656  7016.24  83.2382
 49.5076  7150.62  83.7799
 49.5496  7028  83.1246
 49.5916  7114.06  83.5396
 49.6336  7032.08  83.2652
 49.6756  7035.95  83.5065
 49.7176  7075.84  83.6987
 49.7596  7036.7  83.2388
 49.8016  7236.51  84.3334
 49.8436  7019.99  83.3545
 49.8856  6988.37  83.163
 49.9276  6997.82  83.3226
 49.9696  7073.29  83.7539
 50.0116  7044.63  83.7139
 50.0536  7090.14  83.9279
 50.0956  7001.63  83.4861
 50.1376  7087.74  83.6875
 50.1796  6984.41  83.3487
 50.2216  6997.19  83.4126
 50.2636  6993.16  83.0122
 50.3056  6984.27  83.1338
 50.3476  7027.74  83.4123
 50.3896  6969.73  83.039
 50.4316  7029.26  83.2249
 50.4736  6914.26  82.752
 50.5156  7107.34  83.9014
 50.5576  7006.01  83.0562
 50.5996  7012.88  83.3844
 50.6416  6893.24  82.591
 50.6836  7054.81  83.616
 50.7256  7070.15  83.6263
 50.7676  7209.08  84.7403
 50.8096  7016.26  83.1688
 50.8516  6937.51  83.1084
 50.8936  6962.27  83.0455
 50.9356  7028.77  83.5499
 50.9776  6969.66  83.3586
 51.0196  6686.24  81.7674
 51.0616  6882.96  82.2829
 51.1036  6991.54  83.2919
 51.1456  6888.77  82.5854
 51.1876  6920.4  82.1075
 51.2296  6921.31  82.7547
 51.2716  6813.62  81.8218
 51.3136  6697.37  81.5755
 51.3556  6753.27  81.5369
 51.3976  6767.37  81.7664
 51.4396  6663.23  81.449
 51.4816  6787.58  82.061
 51.5236  6761.92  81.989
 51.5656  6780.44  81.6976
 51.6076  6779.73  81.7773
 51.6496  6789.86  82.0328
 51.6916  6759.47  82.2021
 51.7336  6895.84  83.1236
 51.7756  6767.4  82.0187
 51.8176  6766.53  82.1436
 51.8596  6702.91  81.7725
 51.9016  6937.73  82.7941
 51.9436  6791.8  83.4141
 51.9856  6873.34  84.3218
 52.0276  6959.41  83.3265
 52.0696  6944  83.2954
 52.1116  6808.47  82.6099
 52.1536  6843.11  82.65
 52.1956  6812.87  81.9806
 52.2376  6934.11  82.871
 52.2796  6869.87  82.315
 52.3216  6775.96  82.4356
 52.3636  6888.39  82.6714
 52.4056  6857.08  82.3597
 52.4476  6744.43  82.0388
 52.4896  6630.05  81.3927
 52.5316  6817.93  82.5847
 52.5736  6727.29  81.7618
 52.6156  6855.72  82.9301
 52.6576  6800.08  82.0238
 52.6996  6593.14  81.7461
 52.7416  6762.22  82.6336
 52.7836  6749.29  82.453
 52.8256  6799.58  81.9682
 52.8676  6616.04  81.4295
 52.9096  6830.76  82.8075
 52.9516  6675.02  82.2468
 52.9936  6746.89  83.0535
 53.0356  6774.66  82.2105
 53.0776  6841.42  82.9315
 53.1196  6666.01  81.9532
 53.1616  6704.12  82.2351
 53.2036  6782.4  82.6724
 53.2456  6748.23  82.5775
 53.2876  6711.66  82.0441
 53.3296  6774.79  82.7525
 53.3716  6800.5  82.65
 53.4136  6715.76  82.2999
 53.4556  6703.36  82.2504
 53.4976  6737.44  82.2723
 53.5396  6703.42  82.4847
 53.5816  6655.46  81.8268
 53.6236  6689.3  82.3868
 53.6656  6737.36  82.2835
 53.7076  6723.38  82.1652
 53.7496  6819.52  82.8807
 53.7916  6651.56  81.9894
 53.8336  6693.29  82.1251
 53.8756  6589.91  82.0369
 53.9176  6696.98  82.0456
 53.9596  6485.26  81.5039
 54.0016  6383.81  80.1885
 54.0436  6349.22  80.2084
 54.0856  6540.1  80.8257
 54.1276  6483.58  80.6712
 54.1696  6432.14  80.4992
 54.2116  6591.56  81.2422
 54.2536  6464.08  80.2807
 54.2956  6450.9  80.2417
 54.3376  6349.65  80.0943
 54.3796  6359.75  80.044
 54.4216  6456.94  80.7301
 54.4636  6445.12  80.6155
 54.5056  6427.92  80.3084
 54.5476  6341.03  80.0956
 54.5896  6384.06  80.2059
 54.6316  6424.97  80.3135
 54.6736  6333.68  79.7712
 54.7156  6383.66  80.1693
 54.7576  6304.67  79.6573
 54.7996  6482.44  80.9257
 54.8416  6421.89  80.5946
 54.8836  6441.66  80.7963
 54.9256  6366.23  80.0942
 54.9676  6289.06  79.472
 55.0096  6423.63  80.3531
 55.0516  6207.19  79.1661
 55.0936  6444.57  80.3836
 55.1356  6273.29  79.3467
 55.1776  6476.41  80.8788
 55.2196  6315.02  79.6337
 55.2616  6453.62  80.7228
 55.3036  6265  79.7099
 55.3456  6139.93  79.0495
 55.3876  6369.1  80.2319
 55.4296  6201.78  79.1719
 55.4716  6176.39  79.0407
 55.5136  6347  79.8743
 55.5556  6406.85  80.3238
 55.5976  6274.08  79.5668
 55.6396  6240.06  79.1965
 55.6816  6266.39  79.3185
 55.7236  6116.18  78.4289
 55.7656  6234.08  78.9181
 55.8076  6194.89  78.6598
 55.8496  6339.75  80.0164
 55.8916  6246.93  79.4624
 55.9336  6394.32  80.2539
 55.9756  6270.72  79.3631
 56.0176  6167.75  78.8415
 56.0596  6215.5  79.1694
 56.1016  6142.62  78.75
 56.1436  6252.74  79.6636
 56.1856  6099.42  78.4372
 56.2276  6323.04  79.908
 56.2696  6227.73  79.2857
 56.3116  6250.11  79.8036
 56.3536  6211.58  79.222
 56.3956  6196.18  79.1203
 56.4376  6135.42  78.7525
 56.4796  6084.59  78.2483
 56.5216  6122.55  78.8763
 56.5636  6097.73  78.2827
 56.6056  6332.66  80.0282
 56.6476  6234.09  79.0035
 56.6896  6308.84  79.9518
 56.7316  6140.43  78.7674
 56.7736  6281.01  79.668
 56.8156  6143.31  78.8164
 56.8576  5928.29  77.3685
 56.8996  6113.94  78.469
 56.9416  6057.61  78.4202
 56.9836  6180.98  78.7414
 57.0256  6123.48  78.6877
 57.0676  6184.61  79.1882
 57.1096  5999.64  77.8003
 57.1516  5962.86  77.5804
 57.1936  6046.56  77.8947
 57.2356  5930.74  77.4772
 57.2776  6137.84  78.7808
 57.3196  6072.87  78.7164
 57.3616  6035.02  77.9718
 57.4036  6153.79  78.7926
 57.4456  6232.33  79.271
 57.4876  6165.56  78.7167
 57.5296  6013.37  77.9661
 57.5716  6002.1  77.9932
 57.6136  5894.49  77.1261
 57.6556  6115.48  78.6778
 57.6976  6001.7  77.7812
 57.7396  5995.81  78.0941
 57.7816  5932.17  78.0458
 57.8236  5945.05  77.9158
 57.8656  6059  78.3273
 57.9076  5998.48  77.9629
 57.9496  5958.08  78.0363
 57.9916  6076.98  78.3265
 58.0336  5940.37  77.7272
 58.0756  6062.49  78.1179
 58.1176  6005.05  77.7768
 58.1596  5930.7  77.8782
 58.2016  5812.65  76.3341
 58.2436  5818.28  76.7693
 58.2856  5734.14  76.1395
 58.3276  5771.74  76.7432
 58.3696  5732.71  76.2474
 58.4116  5777.52  76.4146
 58.4536  5839.43  76.7099
 58.4956  5660.08  75.6981
 58.5376  5734.03  75.7708
 58.5796  5767.53  76.4101
 58.6216  5838.9  76.7013
 58.6636  5819.1  76.7774
 58.7056  5749.43  76.1773
 58.7476  5850.91  77.2826
 58.7896  5760.62  76.3393
 58.8316  5722.65  76.08
 58.8736  5792.96  76.5594
 58.9156  5793.68  76.6015
 58.9576  5794.19  76.9234
 58.9996  5816.67  76.3355
 59.0416  5744.52  76.2169
 59.0836  5778.11  76.351
 59.1256  5737.75  76.7724
 59.1676  5654.2  76.5097
 59.2096  5735.38  76.3892
 59.2516  5723.66  75.9033
 59.2936  5766.43  76.5069
 59.3356  5695.54  75.9164
 59.3776  5738.89  76.3696
 59.4196  5727.02  76.2286
 59.4616  5712.52  75.9954
 59.5036  5630.72  75.4837
 59.5456  5699.6  75.6459
 59.5876  5628.12  75.3545
 59.6296  5658.71  75.6261
 59.6716  5770.86  76.4285
 59.7136  5704.4  75.9757
 59.7556  5709.16  76.1401
 59.7976  5740  76.0941
 59.8396  5768.51  76.1795
 59.8816  5681.2  76.1301
 59.9236  5787.12  76.4873
 59.9656  5663.66  75.9197
 60.0076  5715.25  75.6393
 60.0496  5742.54  76.3095
 60.0916  5834.85  76.3499
 60.1336  5541.59  75.4672
 60.1756  5637.44  77.2614
 60.1996  0.0000000E+00  0.0000000E+00