File: docs/examples/opeando_xrd/IS17_D/Data/IS17_D/17_Db_f00104.xye
# /beamlines/bl04/projects/cycle2025-II/20250340211-lsimonelli/DATA/IS17_D/17_Db_f00104.xye : mythproc.py merge -s 0.006 -l 0.5 -f /beamlines/bl04/inhouse/ff/FlatField/ff_20Nov2024rod8mm60s_17keV.raw -b True -c true -o xye /beamlines/bl04/projects/cycle2025-II/20250340211-lsimonelli/DATA/IS17_D/17_Db_00104.dat
# IsMon = [6779257, 6780059, 6778521]  IsPos = [-1.4999, -2.4884, -3.4988]
# Wave = 0.4962  CalPath /beamlines/bl04/projects/cycle2025-II/20250340211-lsimonelli/DATA/Align/Si_Pos1_25keV_f00001.cal
# Date = 2025-09-24_22:40:29 Dt = 4.8000  Bin = 0.0060  <imon> = 6779279 +/- 628 (Min/Max) 6778521 / 6780059
# icurr 252.4488  mocoIn 1.7214E-05  mocoOut 0.8074  i15 7.10302e+06  imon 6.77928e+06  i7 3.0000  iEMpd_timer 4.8000  iEMpd_1 3.4691E-08  iEMpd_2 7.7550E-08  iEMpd_3 1.7939E-08  iEMpd_4 4.8638E-08  iEMhp_timer 4.8000  iEMhp_1 4.9306E-06  iEMhp_2 -2.4181E-08  iEMhp_3 -2.4378E-08  iEMhp_4 -2.0230E-08
#      9776
 1.5856  44547.6  216.729
 1.6276  51430.3  228.874
 1.6696  57458.7  241.063
 1.7116  64747.6  256.397
 1.7536  72795.7  270.707
 1.7956  77014.3  279.137
 1.8376  73588.6  273.29
 1.8796  63433  251.871
 1.9216  52913.8  230.953
 1.9636  45828.8  214.055
 2.0056  41300.2  202.416
 2.0476  38710  198.114
 2.0896  37936.5  194.975
 2.1316  36576.9  190.529
 2.1736  34576.2  186.714
 2.2156  35849.5  188.595
 2.2576  34279.7  185.082
 2.2996  33241.9  182.927
 2.3416  33435.2  181.995
 2.3836  33072.9  181.117
 2.4256  31651.4  177.759
 2.4676  31683.1  177.596
 2.5096  31578  177.359
 2.5516  30153.3  177.284
 2.5936  30217.4  173.911
 2.6356  29654.2  173.012
 2.6776  29503.8  171.435
 2.7196  29113.9  170.799
 2.7616  29011.4  170.286
 2.8036  28372.3  168.567
 2.8456  28663.5  170.096
 2.8876  27662.5  166.962
 2.9296  27580.6  166.843
 2.9716  27214.5  165.207
 3.0136  26835.1  164.12
 3.0556  27150.2  165.477
 3.0976  27077.3  164.116
 3.1396  26416.6  162.853
 3.1816  26200.7  162.14
 3.2236  25909.7  161.234
 3.2656  25704.5  159.607
 3.3076  25561.5  160.662
 3.3496  25721.7  160.066
 3.3916  26041.4  160.879
 3.4336  26430  162.68
 3.4756  26830.8  163.841
 3.5176  27384.1  165.295
 3.5596  27085.6  166.884
 3.6016  27092.9  164.475
 3.6436  26257.3  163.049
 3.6856  25701.2  159.593
 3.7276  24991.5  158.464
 3.7696  24585.1  157.368
 3.8116  24211.8  156.064
 3.8536  24311.1  156.312
 3.8956  24302  156.094
 3.9376  24054.1  155.578
 3.9796  23999.5  154.878
 4.0216  23869.9  153.488
 4.0636  23955.5  155.242
 4.1056  23974.3  154.958
 4.1476  24306.3  156.348
 4.1896  24258.4  156.055
 4.2316  24469.7  156.557
 4.2736  24707.6  157.109
 4.3156  25053.8  158.445
 4.3576  25820.1  160.739
 4.3996  25956.8  161.445
 4.4416  26533.2  162.811
 4.4836  26899.4  164.093
 4.5256  27512.2  166.572
 4.5676  27258.9  166.059
 4.6096  28135.8  167.333
 4.6516  28310.8  167.557
 4.6936  28350.4  168.512
 4.7356  28315.1  168.229
 4.7776  28329.5  168.099
 4.8196  28225.3  168.438
 4.8616  27730.8  166.445
 4.9036  27431.3  165.278
 4.9456  27235.5  165.342
 4.9876  26633.3  163.398
 5.0296  26962.2  164.253
 5.0716  26673.8  164.131
 5.1136  27233.1  165.556
 5.1556  27146.4  164.744
 5.1976  27769.3  166.612
 5.2396  27787.5  166.355
 5.2816  27841.8  166.997
 5.3236  27767.5  166.47
 5.3656  27382  166.251
 5.4076  27109.9  165.557
 5.4496  26955.6  164.588
 5.4916  27306.1  165.397
 5.5336  27019.4  164.539
 5.5756  27172.1  165.015
 5.6176  27122.5  164.296
 5.6596  27357.6  166.002
 5.7016  27580.6  165.938
 5.7436  27736.4  166.686
 5.7856  27490.8  166.017
 5.8276  27592.1  166.034
 5.8696  27956.7  167.302
 5.9116  27902.4  167.74
 5.9536  28272.8  168.591
 5.9956  28456.9  168.525
 6.0376  28525.7  169.357
 6.0796  28705.3  169.718
 6.1216  28578.7  169.541
 6.1636  28801.4  169.25
 6.2056  28659.3  169.519
 6.2476  28944.4  170.217
 6.2896  29281  170.888
 6.3316  29296.2  171.105
 6.3736  29096.4  170.411
 6.4156  29438.2  171.294
 6.4576  29778.4  171.903
 6.4996  29471.4  171.493
 6.5416  29474  171.63
 6.5836  29507.5  171.966
 6.6256  29848.4  172.515
 6.6676  30222.3  173.149
 6.7096  30366.2  174.428
 6.7516  30590.6  174.727
 6.7936  30692.8  174.42
 6.8356  30768  174.73
 6.8776  30940.6  176.032
 6.9196  31306.7  177.47
 6.9616  31498.4  177.447
 7.0036  31801.1  177.956
 7.0456  32091.9  178.06
 7.0876  31929.2  179.303
 7.1296  32024.3  178.701
 7.1716  31963  178.069
 7.2136  31612.2  176.868
 7.2556  31805.4  177.56
 7.2976  31807.7  178.069
 7.3396  31772  178.184
 7.3816  31545.5  177.76
 7.4236  32092.7  178.59
 7.4656  32225.8  178.415
 7.5076  32436.1  179.155
 7.5496  32284.6  179.278
 7.5916  32340.3  179.475
 7.6336  32802.4  180.636
 7.6756  32850.6  180.618
 7.7176  33370.8  182.368
 7.7596  33148.7  182.99
 7.8016  33583.3  186.426
 7.8436  33130.1  181.836
 7.8856  33686.6  182.953
 7.9276  34031.9  184.301
 7.9696  34383.9  185.558
 8.0116  34948.2  185.628
 8.0536  35374.1  187.004
 8.0956  35083  187.397
 8.1376  35770.6  188.706
 8.1796  35833.9  189.4
 8.2216  36821.5  190.742
 8.2636  36762.9  190.84
 8.3056  36604.8  191.196
 8.3476  37146.5  191.933
 8.3896  36933.6  191.459
 8.4316  37109.8  192.085
 8.4736  37487.3  192.53
 8.5156  36817.4  191.076
 8.5576  36348.9  190.811
 8.5996  36290.1  189.548
 8.6416  36560.5  191.501
 8.6836  36117.6  190.181
 8.7256  36703.1  191.161
 8.7676  36501.9  193.546
 8.8096  37062.6  192.32
 8.8516  36892.2  191.437
 8.8936  36376.2  190.058
 8.9356  36733.2  191.315
 8.9776  36879.9  191.783
 9.0196  36702.4  190.984
 9.0616  36197.8  189.175
 9.1036  36311.1  190.646
 9.1456  35699.3  188.367
 9.1876  35930  188.903
 9.2296  35559.2  187.384
 9.2716  35479.3  187.203
 9.3136  35316.4  186.771
 9.3556  35687.2  187.718
 9.3976  34733.8  185.717
 9.4396  34858.9  185.952
 9.4816  34377.5  184.517
 9.5236  34092.2  183.655
 9.5656  33893  183.477
 9.6076  33197.9  182.107
 9.6496  33685  183.314
 9.6916  33188.8  181.925
 9.7336  33481.9  182.504
 9.7756  33438.7  183.653
 9.8176  33033  182.036
 9.8596  32875.7  180.047
 9.9016  32373.7  178.657
 9.9436  32288.6  178.344
 9.9856  32050.6  177.954
 10.0276  31554.1  177.634
 10.0696  31809.8  177.392
 10.1116  30986.5  175.344
 10.1536  31005  175.554
 10.1956  30653.4  174.173
 10.2376  29991.4  171.796
 10.2796  30115  172.256
 10.3216  29743.3  171.474
 10.3636  29558.7  170.97
 10.4056  28966.5  169.646
 10.4476  29171.6  169.857
 10.4896  29251.2  169.539
 10.5316  28488.8  168.036
 10.5736  28441.6  168.3
 10.6156  28363.7  167.829
 10.6576  28378.5  166.454
 10.6996  27964.5  165.929
 10.7416  27558  164.931
 10.7836  27147.8  164.36
 10.8256  27011.8  164.366
 10.8676  26937.8  163.689
 10.9096  26740.2  163.126
 10.9516  26504.4  161.366
 10.9936  26637.8  161.976
 11.0356  26353.7  161.713
 11.0776  26179.7  160.521
 11.1196  25849.3  160.259
 11.1616  25525.2  158.921
 11.2036  25685.4  159.276
 11.2456  25531.4  159.493
 11.2876  25894.7  160.35
 11.3296  25106.8  157.811
 11.3716  25705.1  159.368
 11.4136  25537.5  159.721
 11.4556  25514.2  159.311
 11.4976  25737.1  159.011
 11.5396  25808.9  159.399
 11.5816  26349.6  161.51
 11.6236  26885.6  163.368
 11.6656  26906  162.575
 11.7076  25859.7  160.217
 11.7496  25383.1  162.765
 11.7916  25193.8  157.406
 11.8336  24547.2  156.246
 11.8756  24488.3  155.616
 11.9176  24695.1  155.94
 11.9596  24569.5  155.72
 12.0016  24413.8  155.996
 12.0436  24468.5  155.613
 12.0856  24049.9  154.773
 12.1276  24040.2  154.697
 12.1696  24138.4  154.13
 12.2116  23914.6  153.415
 12.2536  23807.2  153.886
 12.2956  23825.5  153.29
 12.3376  23851.1  153.575
 12.3796  23792  153.866
 12.4216  23675.8  152.681
 12.4636  23528  153.139
 12.5056  23818.1  153.345
 12.5476  24086.3  153.721
 12.5896  23468  152.376
 12.6316  23767.3  153.491
 12.6736  23563.3  153.319
 12.7156  23587.3  153.242
 12.7576  23525.2  153.281
 12.7996  23745.7  152.647
 12.8416  23593.4  153.214
 12.8836  23749.8  153.546
 12.9256  24102.3  153.715
 12.9676  24034.9  153.904
 13.0096  24181.2  155.488
 13.0516  24098.4  154.256
 13.0936  24551.7  156.107
 13.1356  24737.6  155.649
 13.1776  24337.6  155.411
 13.2196  24489.7  155.532
 13.2616  24321.1  155.316
 13.3036  24726.1  156.566
 13.3456  24241.5  155.378
 13.3876  24528.3  155.562
 13.4296  24374  155.237
 13.4716  24585.1  155.536
 13.5136  24511.4  155.439
 13.5556  24404.3  155.72
 13.5976  24549.9  156.358
 13.6396  24490.7  155.528
 13.6816  24497  156.021
 13.7236  25012.8  157.216
 13.7656  26580.3  162.554
 13.8076  27142.7  162.906
 13.8496  26612.8  161.969
 13.8916  24795.5  157.489
 13.9336  24047.6  154.362
 13.9756  24115.3  153.961
 14.0176  23832.8  153.736
 14.0596  23821.1  153.632
 14.1016  23772.1  153.893
 14.1436  23725  152.861
 14.1856  23138.2  151.258
 14.2276  23164.9  151.827
 14.2696  23243.7  151.934
 14.3116  22536.5  149.522
 14.3536  22405.4  149.246
 14.3956  22578.2  149.543
 14.4376  22557.8  149.264
 14.4796  22326  148.495
 14.5216  22139.6  148.664
 14.5636  21990.8  147.733
 14.6056  22239.4  148.122
 14.6476  22057.4  146.757
 14.6896  21716.7  146.166
 14.7316  21467.6  146.356
 14.7736  21249.6  144.759
 14.8156  21242  144.746
 14.8576  20985.2  143.736
 14.8996  20517.3  143.304
 14.9416  20324.7  142.653
 14.9836  20260.2  142.413
 15.0256  19574.3  138.906
 15.0676  19680.1  139.588
 15.1096  19734.6  139.519
 15.1516  19371.2  138.783
 15.1936  19190.9  137.573
 15.2356  19037  137.293
 15.2776  18673  135.571
 15.3196  18363.4  135.42
 15.3616  18447.4  135.493
 15.4036  18361.7  135.044
 15.4456  18689.3  135.889
 15.4876  18357.2  134.362
 15.5296  18332.9  134.552
 15.5716  17958.6  132.785
 15.6136  17913.2  132.935
 15.6556  18091.7  132.845
 15.6976  17943  132.587
 15.7396  17689.5  132.037
 15.7816  17525.9  130.941
 15.8236  17342.1  130.935
 15.8656  17473.2  131.226
 15.9076  17118  129.709
 15.9496  17822.5  135.164
 15.9916  17604.6  134.753
 16.0336  17709.7  132.001
 16.0756  17610.5  131.963
 16.1176  17429.5  131.357
 16.1596  16930.5  130.641
 16.2016  16903.3  129.297
 16.2436  16882.5  129.601
 16.2856  16835.5  128.929
 16.3276  16530.6  128.199
 16.3696  16784.2  128.996
 16.4116  16528.4  128.444
 16.4536  16782.6  129.245
 16.4956  16705.6  128.681
 16.5376  16486.8  128.03
 16.5796  16477.4  127.354
 16.6216  16519.1  127.782
 16.6636  15991.6  125.921
 16.7056  16262.4  126.838
 16.7476  16405.7  126.929
 16.7896  16308.7  127.296
 16.8316  16253.4  127.053
 16.8736  16442.2  128.041
 16.9156  16222  127.516
 16.9576  16111.3  127.864
 16.9996  16127.3  128.39
 17.0416  16343.1  127.631
 17.0836  16552.6  128.205
 17.1256  16171  126.724
 17.1676  16367.9  127.441
 17.2096  16124.2  126.395
 17.2516  15944.9  125.486
 17.2936  16203  126.845
 17.3356  15855.7  125.467
 17.3776  15751.8  125.236
 17.4196  15565.8  124.198
 17.4616  15614.4  124.305
 17.5036  15412.6  123.865
 17.5456  15184.1  123.563
 17.5876  15098.2  122.286
 17.6296  15167.1  122.386
 17.6716  15266.4  123.364
 17.7136  14989.1  122.371
 17.7556  14917.7  122.372
 17.7976  14964.2  122.29
 17.8396  14669.4  120.592
 17.8816  14597.8  120.856
 17.9236  14583.3  120.595
 17.9656  14557.3  121.006
 18.0076  14523.9  120.455
 18.0496  14562.9  119.756
 18.0916  14510.3  120.093
 18.1336  14406.6  119.758
 18.1756  14602  120.119
 18.2176  14092.2  118.209
 18.2596  14105.6  117.994
 18.3016  14353.3  119.294
 18.3436  14385.7  119.429
 18.3856  14385.8  119.557
 18.4276  14199.5  118.475
 18.4696  14127.2  118.255
 18.5116  14288.1  119.2
 18.5536  14091.8  118.737
 18.5956  14027.4  118.024
 18.6376  13965  118.161
 18.6796  13967  117.478
 18.7216  14008.5  118.15
 18.7636  13918.7  117.784
 18.8056  13912.9  117.68
 18.8476  13558.2  116.795
 18.8896  13718.6  116.822
 18.9316  14032.2  118.126
 18.9736  13827  116.971
 19.0156  13794.9  117.242
 19.0576  13969.1  116.825
 19.0996  13979.4  117.59
 19.1416  13844.9  117.414
 19.1836  13759.1  116.661
 19.2256  13612.8  116.257
 19.2676  13843.1  117.317
 19.3096  13713.2  117.011
 19.3516  13770.3  117.214
 19.3936  13632.2  116.518
 19.4356  13884  117.48
 19.4776  13709.2  116.824
 19.5196  13816.1  117.129
 19.5616  13626.7  116.582
 19.6036  13776.3  116.72
 19.6456  13694.9  116.484
 19.6876  13668.7  116.024
 19.7296  13760.5  116.866
 19.7716  13569.9  116.219
 19.8136  13932.8  117.96
 19.8556  14031.9  117.865
 19.8976  13855.4  117.172
 19.9396  13835.5  116.684
 19.9816  13912.5  117.262
 20.0236  14167.4  118.517
 20.0656  14377.1  119.396
 20.1076  14650.6  121.009
 20.1496  14599.7  120.796
 20.1916  15054.4  122.162
 20.2336  14774.3  120.954
 20.2756  14424.4  119.948
 20.3176  14137.4  118.487
 20.3596  13868.9  117.348
 20.4016  13697.4  116.415
 20.4436  13559.9  116.392
 20.4856  13707.6  116.818
 20.5276  13411.2  116.009
 20.5696  13525.4  115.943
 20.6116  13378.8  115.589
 20.6536  13311.1  114.815
 20.6956  13149.3  114.243
 20.7376  13143.5  114.437
 20.7796  13128.7  114.056
 20.8216  13385.7  114.884
 20.8636  13187.6  114.401
 20.9056  13087.6  113.903
 20.9476  13053.8  113.608
 20.9896  13202.5  114.113
 21.0316  13016  113.204
 21.0736  12963.6  113.496
 21.1156  12916.8  113.449
 21.1576  13074.1  114.183
 21.1996  12907.2  113.433
 21.2416  13109  114.14
 21.2836  13004.6  113.663
 21.3256  12801.7  112.847
 21.3676  12851.2  112.594
 21.4096  12758.2  112.511
 21.4516  12759.4  112.385
 21.4936  12605.3  111.974
 21.5356  12827.6  112.898
 21.5776  12813  112.665
 21.6196  12667.1  112.067
 21.6616  12679.1  112.205
 21.7036  12784.7  112.437
 21.7456  12632.3  111.851
 21.7876  12699.8  111.907
 21.8296  12608.1  111.34
 21.8716  12646.2  111.739
 21.9136  12843.5  112.811
 21.9556  12537.7  111.144
 21.9976  12506.4  111.034
 22.0396  12602.7  111.713
 22.0816  12468.8  111.641
 22.1236  12623.2  111.79
 22.1656  12577.7  111.735
 22.2076  12299.3  109.956
 22.2496  12372  110.303
 22.2916  12315.3  109.943
 22.3336  12325  110.695
 22.3756  12354.9  110.555
 22.4176  12297.6  110.154
 22.4596  12069.8  109.711
 22.5016  12270.2  110.122
 22.5436  12369.8  110.447
 22.5856  12473.7  111.149
 22.6276  12587.7  111.791
 22.6696  12424  111.42
 22.7116  12359.5  110.641
 22.7536  12341  110.536
 22.7956  12264.3  109.534
 22.8376  12050.4  109.088
 22.8796  12217.9  109.644
 22.9216  12305.5  110.58
 22.9636  12233.9  109.417
 23.0056  12221.6  109.496
 23.0476  12143  109.702
 23.0896  12530  110.819
 23.1316  12361.5  110.504
 23.1736  12508.2  114.093
 23.2156  12668.3  112.202
 23.2576  12824.8  113.019
 23.2996  12688.5  112.196
 23.3416  12829.9  113.348
 23.3836  12661.2  111.83
 23.4256  12914.8  113.065
 23.4676  12630.7  111.511
 23.5096  12776.2  112.822
 23.5516  12480  110.792
 23.5936  12574.8  112.13
 23.6356  12641.2  112.091
 23.6776  12527.6  111.795
 23.7196  12338.7  110.53
 23.7616  12491.8  111.129
 23.8036  12749.9  112.324
 23.8456  12443.5  110.527
 23.8876  12520.6  111.221
 23.9296  12262.7  110.551
 23.9716  12482.8  110.746
 24.0136  12380.7  111.195
 24.0556  12349.3  110.764
 24.0976  12270.6  110.233
 24.1396  12186.7  112.476
 24.1816  12250.2  111.175
 24.2236  12270.3  110.885
 24.2656  12185.3  109.977
 24.3076  12057.1  109.667
 24.3496  11983.3  109.209
 24.3916  12115.9  109.859
 24.4336  12038  109.717
 24.4756  12066.9  109.729
 24.5176  11763.9  107.964
 24.5596  11855.5  108.51
 24.6016  11763.4  108.39
 24.6436  11935.4  108.683
 24.6856  11802.8  107.819
 24.7276  11503.7  106.768
 24.7696  11682.8  107.704
 24.8116  11478.9  106.935
 24.8536  11528.8  107.173
 24.8956  11466.2  106.593
 24.9376  11607.3  107.196
 24.9796  11140.8  105.376
 25.0216  11309.5  106.282
 25.0636  11338.8  106.078
 25.1056  11284.1  106.528
 25.1476  11224.7  107.878
 25.1896  11189.6  106.22
 25.2316  11221  105.648
 25.2736  11158.4  105
 25.3156  11180.8  105.178
 25.3576  11113.6  105.297
 25.3996  11007.9  104.785
 25.4416  11020.1  104.816
 25.4836  10879.9  104.662
 25.5256  10999.6  104.598
 25.5676  11023.3  104.439
 25.6096  10929.6  104.57
 25.6516  10992.5  104.377
 25.6936  10991.6  104.685
 25.7356  10790.8  103.86
 25.7776  10921.9  104.088
 25.8196  10814.2  103.811
 25.8616  10742.3  103.403
 25.9036  10884.1  103.538
 25.9456  10783.6  103.652
 25.9876  10763  103.617
 26.0296  10850.4  103.548
 26.0716  10967.9  104.537
 26.1136  10837.4  103.845
 26.1556  10873.6  103.407
 26.1976  10636.9  103.187
 26.2396  10748.3  102.898
 26.2816  10789.5  103.697
 26.3236  10652.1  103.187
 26.3656  10872.1  103.966
 26.4076  10714.1  103.411
 26.4496  10942.9  104.105
 26.4916  11167.1  105.064
 26.5336  11425.1  106.614
 26.5756  11651.9  107.55
 26.6176  11024.1  104.635
 26.6596  10823.3  103.982
 26.7016  10650.3  102.908
 26.7436  10857.4  104.032
 26.7856  10607.4  102.821
 26.8276  10686.5  103.17
 26.8696  10685.4  103.035
 26.9116  10613.5  102.618
 26.9536  10507.6  102.159
 26.9956  10406.6  101.702
 27.0376  10445.8  102.115
 27.0796  10495.2  102.078
 27.1216  10431.5  101.829
 27.1636  10392.6  101.804
 27.2056  10387.2  101.67
 27.2476  10307.1  101.252
 27.2896  10224.9  100.982
 27.3316  10315.3  101.142
 27.3736  10209.1  100.891
 27.4156  10316.5  101.235
 27.4576  10108.9  100.455
 27.4996  10392.1  101.446
 27.5416  10251.7  101.064
 27.5836  10175.1  100.534
 27.6256  10136.7  100.523
 27.6676  10118.6  100.425
 27.7096  10231.9  100.86
 27.7516  10094.8  100.331
 27.7936  10392  101.941
 27.8356  10419  101.678
 27.8776  10379.7  101.56
 27.9196  9981.5  99.4536
 27.9616  10059.3  100.036
 28.0036  10056.8  99.9785
 28.0456  9925.75  99.4692
 28.0876  9879.32  99.3226
 28.1296  9889.5  99.1977
 28.1716  10032.3  99.9355
 28.2136  10054.6  100.014
 28.2556  10020.8  99.964
 28.2976  9833.61  99.0213
 28.3396  9865.8  98.9436
 28.3816  9853.05  98.8815
 28.4236  9746.9  98.5042
 28.4656  9880.87  99.2205
 28.5076  9718.68  98.0476
 28.5496  9775.02  98.5873
 28.5916  9940.57  99.2263
 28.6336  9811.77  98.9185
 28.6756  9978.85  98.96
 28.7176  9756.81  98.4027
 28.7596  9649.13  97.7525
 28.8016  9689.04  97.9875
 28.8436  9613.72  97.8434
 28.8856  9784.05  98.5456
 28.9276  9701.52  98.3855
 28.9696  9705.5  98.0602
 29.0116  9531.7  97.3716
 29.0536  9502.94  97.4292
 29.0956  9667.08  97.9582
 29.1376  9567.67  97.4378
 29.1796  9698.9  98.1483
 29.2216  9513.15  97.0462
 29.2636  9605.79  97.5874
 29.3056  9565.61  97.1795
 29.3476  9651.41  98.1298
 29.3896  9590.26  97.9381
 29.4316  9595.39  97.2933
 29.4736  9384.98  96.288
 29.5156  9378.87  96.1792
 29.5576  9392.66  96.9762
 29.5996  9442.91  96.5037
 29.6416  9285.91  95.8116
 29.6836  9473.05  96.7038
 29.7256  9415.26  96.9663
 29.7676  9425.5  96.6834
 29.8096  9395.93  96.476
 29.8516  9194.18  95.7657
 29.8936  9224.23  96.0071
 29.9356  9351.19  96.4249
 29.9776  9187.04  95.7225
 30.0196  9276.1  95.5816
 30.0616  9138.25  95.239
 30.1036  9279.04  95.7953
 30.1456  9331.22  96.2981
 30.1876  9157.86  95.3726
 30.2296  9039.53  94.7098
 30.2716  9224.8  95.3174
 30.3136  9175.02  95.9031
 30.3556  9470.89  97.4323
 30.3976  9369.24  98.3775
 30.4396  9757.06  97.7445
 30.4816  9508.46  96.1039
 30.5236  9579.07  96.4508
 30.5656  9343.48  95.9152
 30.6076  9412.26  95.6808
 30.6496  9390.88  95.9696
 30.6916  9205.29  95.1195
 30.7336  9419.98  96.3474
 30.7756  9401.49  96.3566
 30.8176  9388.28  96.207
 30.8596  9403.35  96.0411
 30.9016  9352.63  96.1213
 30.9436  9524.44  96.7699
 30.9856  9604.04  97.2817
 31.0276  9490.7  96.3357
 31.0696  9345.71  96.1629
 31.1116  9411.58  96.4613
 31.1536  9321.42  95.8911
 31.1956  9369.95  96.2236
 31.2376  9049.12  94.5898
 31.2796  9237.79  95.0886
 31.3216  9265.58  95.1656
 31.3636  9341.68  96.2543
 31.4056  9152.25  96.5853
 31.4476  9382.16  95.6803
 31.4896  9363.09  96.0848
 31.5316  9257.57  94.9443
 31.5736  9342.99  95.2168
 31.6156  9138.28  94.1728
 31.6576  9515.67  96.1819
 31.6996  9377.94  95.1427
 31.7416  9233.65  95.4929
 31.7836  9202.96  94.3362
 31.8256  9283.56  95.029
 31.8676  9276.74  94.9774
 31.9096  9191.7  94.9167
 31.9516  9021.36  94.1966
 31.9936  9075.7  94.2988
 32.0356  9284.03  95.419
 32.0776  9310.16  95.4558
 32.1196  9183.25  94.9078
 32.1616  9236.26  94.6294
 32.2036  9196.72  94.941
 32.2456  9154.53  95.0994
 32.2876  9163.93  94.6439
 32.3296  9023.62  93.8819
 32.3716  8979.47  93.7646
 32.4136  8965.41  93.8957
 32.4556  9073.01  93.8439
 32.4976  9018.44  93.4755
 32.5396  8890.23  92.871
 32.5816  8910.96  93.1021
 32.6236  8951.68  93.3817
 32.6656  9035.04  94.3562
 32.7076  8815.62  92.8639
 32.7496  8921.46  93.0803
 32.7916  8847.04  92.6658
 32.8336  8901.6  93.0408
 32.8756  9127.24  93.9375
 32.9176  8824.87  92.848
 32.9596  8918.38  93.4013
 33.0016  8857.9  92.8688
 33.0436  8880.36  93.1438
 33.0856  8705.21  92.3228
 33.1276  8714.05  92.1037
 33.1696  8929.43  93.0668
 33.2116  8859.06  92.9323
 33.2536  8855.56  92.8833
 33.2956  8789.75  92.6405
 33.3376  8808.17  92.4842
 33.3796  8741.4  92.3447
 33.4216  8822.89  92.3713
 33.4636  8892.49  92.8908
 33.5056  8561.33  91.379
 33.5476  8829.28  92.7733
 33.5896  8845.97  92.6593
 33.6316  8814.48  92.797
 33.6736  8559.7  91.6966
 33.7156  8702.66  92.4923
 33.7576  8820.07  92.7551
 33.7996  8746.85  92.125
 33.8416  8676.3  91.9448
 33.8836  8570.94  91.1623
 33.9256  8916.66  93.0403
 33.9676  8789.71  92.2682
 34.0096  8642.24  91.8053
 34.0516  8600.87  91.2167
 34.0936  8497.66  90.9427
 34.1356  8725.1  91.8918
 34.1776  8544.93  90.9427
 34.2196  8612.18  91.472
 34.2616  8529.46  91.1764
 34.3036  8679.94  92.222
 34.3456  8587.1  91.4818
 34.3876  8674.89  91.9226
 34.4296  8711.69  91.807
 34.4716  8659.1  91.6751
 34.5136  8596.78  91.5372
 34.5556  8519.88  91.3844
 34.5976  8576.46  91.5006
 34.6396  8550.64  91.074
 34.6816  8675.79  91.8402
 34.7236  8541.43  90.909
 34.7656  8531.51  91.0656
 34.8076  8520.06  91.3335
 34.8496  8414.26  90.6159
 34.8916  8609.4  91.5284
 34.9336  8519.93  91.0286
 34.9756  8589.09  91.3172
 35.0176  8454.51  91.1244
 35.0596  8610.8  91.7811
 35.1016  8653.79  91.7641
 35.1436  8738.01  91.8952
 35.1856  8533.39  90.9228
 35.2276  8492.13  90.8938
 35.2696  8582.22  91.5678
 35.3116  8465.09  91.0419
 35.3536  8425.15  90.5322
 35.3956  8456.18  90.4133
 35.4376  8522.58  91.3335
 35.4796  8555.85  91.5504
 35.5216  8469.39  91.047
 35.5636  8104.59  89.8004
 35.6056  8412.46  90.5083
 35.6476  8438.44  90.5449
 35.6896  8502.8  90.9857
 35.7316  8399.55  90.4053
 35.7736  8275.09  89.9199
 35.8156  8310.42  90.1182
 35.8576  8460.76  91.1737
 35.8996  8435.48  90.9986
 35.9416  8306.39  89.8087
 35.9836  8357.75  90.4427
 36.0256  8475.71  91.0779
 36.0676  8544.72  91.2091
 36.1096  8393.78  90.5448
 36.1516  8385.55  90.395
 36.1936  8406.65  90.3476
 36.2356  8406.97  91.0057
 36.2776  8278.15  89.791
 36.3196  8274.2  89.4167
 36.3616  8248.18  89.4158
 36.4036  8311.83  89.8308
 36.4456  8297.45  89.954
 36.4876  8192.73  89.3273
 36.5296  8297.28  89.937
 36.5716  8161.16  89.9687
 36.6136  8406.22  90.0882
 36.6556  8238.32  89.3855
 36.6976  8049.12  88.8413
 36.7396  8083.14  88.7542
 36.7816  7986.33  88.5943
 36.8236  7997.46  88.5847
 36.8656  8066.15  89.0301
 36.9076  7979.72  88.434
 36.9496  7909.45  88.0351
 36.9916  7991.54  88.1238
 37.0336  8088.75  88.9736
 37.0756  8032.76  88.4569
 37.1176  7885.31  87.9054
 37.1596  7958.32  88.3196
 37.2016  7949.06  88.4868
 37.2436  8027.91  88.244
 37.2856  7935.76  87.9888
 37.3276  8057.08  88.0224
 37.3696  8005.24  88.6139
 37.4116  8034.27  88.6839
 37.4536  7919.85  87.9167
 37.4956  7933.28  88.0389
 37.5376  8041.8  90.2094
 37.5796  8067.45  90.2814
 37.6216  8026.17  88.3292
 37.6636  8176.34  89.0394
 37.7056  8084.94  88.7305
 37.7476  8122.58  88.4737
 37.7896  8002.12  88.3327
 37.8316  7987.89  88.3961
 37.8736  8043.4  88.2395
 37.9156  7918.95  87.5505
 37.9576  8072.97  88.3085
 37.9996  8058.08  87.9376
 38.0416  7993.52  88.387
 38.0836  8059.42  88.6554
 38.1256  7892.61  87.7082
 38.1676  7823.17  87.4421
 38.2096  8068.2  88.4099
 38.2516  7810.66  87.1971
 38.2936  8092.34  88.5542
 38.3356  7987.55  87.9162
 38.3776  7951.13  87.9563
 38.4196  7924.15  87.6754
 38.4616  8005.08  88.3635
 38.5036  8134.96  88.9204
 38.5456  7823.5  88.0112
 38.5876  7920.53  88.5897
 38.6296  7949.17  87.7219
 38.6716  7919.2  87.35
 38.7136  7710.43  86.1378
 38.7556  7840.34  87.3666
 38.7976  7905.47  87.6497
 38.8396  7892.09  88.0454
 38.8816  7993.93  88.4019
 38.9236  7880.02  87.5605
 38.9656  7860.51  87.3681
 39.0076  7962.94  87.3364
 39.0496  7994.32  88.069
 39.0916  8064.15  88.0954
 39.1336  7959.75  87.9292
 39.1756  8043.93  88.4498
 39.2176  7803.77  87.6602
 39.2596  7976.38  88.5383
 39.3016  7822.53  87.2763
 39.3436  7935.59  88.3154
 39.3856  8011.09  88.1801
 39.4276  8087.03  89.1077
 39.4696  7942.64  87.9256
 39.5116  7941.83  88.4357
 39.5536  7986.79  89.1029
 39.5956  7955.57  88.0396
 39.6376  7850.13  87.4613
 39.6796  7878.55  87.3613
 39.7216  7824.04  87.1619
 39.7636  7854.55  87.8875
 39.8056  8014.28  88.5616
 39.8476  7840.33  87.8465
 39.8896  7819.25  87.362
 39.9316  7837.01  87.6995
 39.9736  7925.81  87.7766
 40.0156  7820.22  87.0259
 40.0576  7792.8  87.218
 40.0996  7929.18  87.1626
 40.1416  7854.52  87.5443
 40.1836  7914.57  87.7719
 40.2256  7849.76  87.4389
 40.2676  7871.23  87.6693
 40.3096  7976.62  88.182
 40.3516  8011.52  88.4858
 40.3936  7968.29  87.8115
 40.4356  7823.15  87.2064
 40.4776  7909.54  88.087
 40.5196  7931.49  88.3364
 40.5616  7977.9  88.23
 40.6036  7874.04  87.9101
 40.6456  7879.53  87.5497
 40.6876  7982.01  88.1154
 40.7296  7913.66  87.8692
 40.7716  7888.61  87.85
 40.8136  7852.27  87.5928
 40.8556  7997.85  88.5343
 40.8976  7984.01  88.3772
 40.9396  8071.74  89.206
 40.9816  7989.13  88.0465
 41.0236  7878.87  87.2248
 41.0656  7986.09  88.3525
 41.1076  8027.81  88.351
 41.1496  8002.19  88.1154
 41.1916  7921.34  87.9769
 41.2336  7931.44  88.0405
 41.2756  7888.84  87.4101
 41.3176  7962.16  88.4255
 41.3596  7973.93  88.2311
 41.4016  7770.31  87.3569
 41.4436  7935.85  88.061
 41.4856  7871.44  87.8684
 41.5276  7874.84  87.9047
 41.5696  7872.9  87.5285
 41.6116  7880.76  87.9545
 41.6536  7905.28  87.9525
 41.6956  8054.18  88.8319
 41.7376  7874.1  87.8622
 41.7796  7768.33  87.1619
 41.8216  7968.32  88.503
 41.8636  7877.72  87.9413
 41.9056  7777.47  87.1798
 41.9476  7899.46  88.0971
 41.9896  7941.26  87.9884
 42.0316  7921.38  87.9665
 42.0736  8015.99  88.5917
 42.1156  7923.48  87.9137
 42.1576  7899.17  87.8878
 42.1996  8026.3  88.7237
 42.2416  7860.36  87.3922
 42.2836  7794.66  87.1373
 42.3256  7768.1  87.087
 42.3676  8036.36  88.3922
 42.4096  8007.52  88.2031
 42.4516  7974.95  88.0961
 42.4936  7826.7  87.3545
 42.5356  7785.28  87.2625
 42.5776  7884.17  87.7493
 42.6196  7974.73  88.3086
 42.6616  7660.27  86.7204
 42.7036  7849.28  87.1664
 42.7456  7908.86  87.8432
 42.7876  7775.84  87.1961
 42.8296  7890.87  87.6874
 42.8716  7762.87  87.1263
 42.9136  7829.34  87.2913
 42.9556  7906.02  87.8496
 42.9976  7896.42  87.7612
 43.0396  7804.1  86.982
 43.0816  7708.08  86.8233
 43.1236  7804.16  87.4021
 43.1656  7788.38  87.1432
 43.2076  7803.08  87.3428
 43.2496  7724.74  86.7232
 43.2916  7666.87  86.7571
 43.3336  7750.59  87.0616
 43.3756  7748.2  86.8048
 43.4176  7611.29  86.1182
 43.4596  7697.39  86.4552
 43.5016  7701.7  86.8844
 43.5436  7739.14  87.0001
 43.5856  7721.65  86.9312
 43.6276  7713.65  86.7743
 43.6696  7645.07  86.643
 43.7116  7832.59  87.1984
 43.7536  7747.98  87.2208
 43.7956  7653.31  87.8858
 43.8376  7541.92  85.7897
 43.8796  7517.15  85.7296
 43.9216  7680.05  86.5734
 43.9636  7594.79  86.1978
 44.0056  7592.8  86.4173
 44.0476  7510.49  85.5828
 44.0896  7568  86.2468
 44.1316  7566.01  85.7641
 44.1736  7421.99  85.0702
 44.2156  7596.73  85.9133
 44.2576  7357.78  84.8759
 44.2996  7508.24  85.7079
 44.3416  7532.43  85.6117
 44.3836  7398.89  85.1702
 44.4256  7446.86  85.0932
 44.4676  7391.29  84.9304
 44.5096  7436.68  85.3338
 44.5516  7535.72  85.8664
 44.5936  7372.81  84.8851
 44.6356  7435.27  84.9832
 44.6776  7410.86  85.1563
 44.7196  7446.51  85.6683
 44.7616  7484.68  87.2075
 44.8036  7474.52  85.5785
 44.8456  7576.93  86.3726
 44.8876  7651.83  86.6387
 44.9296  7716.15  86.4409
 44.9716  7597.59  86.2049
 45.0136  7650.77  86.4483
 45.0556  7699.42  86.699
 45.0976  7439.56  85.3902
 45.1396  7599.22  86.0276
 45.1816  7485.44  85.3454
 45.2236  7659.67  86.2358
 45.2656  7584.15  86.3022
 45.3076  7554.83  85.907
 45.3496  7462.23  85.7018
 45.3916  7610.65  86.8217
 45.4336  7550.38  86.3222
 45.4756  7486.5  85.7996
 45.5176  7676.23  86.496
 45.5596  7656.67  86.5091
 45.6016  7577.71  86.4913
 45.6436  7556.38  85.5395
 45.6856  7496.92  85.8511
 45.7276  7394.46  86.5892
 45.7696  7551.13  87.1745
 45.8116  7494.85  86.2604
 45.8536  7481.51  86.0836
 45.8956  7625.92  86.2634
 45.9376  7614.99  85.6553
 45.9796  7562.97  86.0501
 46.0216  7449.02  85.7403
 46.0636  7551.22  85.4717
 46.1056  7477.1  85.039
 46.1476  7657.93  86.6626
 46.1896  7585.07  86.3997
 46.2316  7569.35  86.1645
 46.2736  7420.35  85.6957
 46.3156  7577.92  86.1835
 46.3576  7570.66  86.3415
 46.3996  7468.23  85.9229
 46.4416  7494.93  85.6441
 46.4836  7435.68  85.6551
 46.5256  7489.09  85.9105
 46.5676  7488.84  86.0261
 46.6096  7446.08  85.7062
 46.6516  7450.75  84.7597
 46.6936  7580.4  86.0147
 46.7356  7659.92  86.5608
 46.7776  7424.64  86.0828
 46.8196  7428.58  85.6907
 46.8616  7331.66  85.0816
 46.9036  7263.91  84.3474
 46.9456  7372.73  84.6145
 46.9876  7361.25  84.629
 47.0296  7378.25  85.4255
 47.0716  7355.96  85.1171
 47.1136  7460.13  85.3878
 47.1556  7390.66  84.8615
 47.1976  7476.23  85.4238
 47.2396  7282.74  84.7185
 47.2816  7354.64  84.8324
 47.3236  7357.58  85.223
 47.3656  7336.32  85.0257
 47.4076  7322.68  84.7481
 47.4496  7471.45  85.7049
 47.4916  7371.81  85.3205
 47.5336  7364.39  85.0975
 47.5756  7426.52  85.5616
 47.6176  7305.38  84.7663
 47.6596  7349.28  84.7349
 47.7016  7506.64  85.444
 47.7436  7401.7  85.1879
 47.7856  7522.79  85.9026
 47.8276  7310.53  84.7369
 47.8696  7325.22  84.9062
 47.9116  7471.36  85.4604
 47.9536  7397.69  84.9849
 47.9956  7225.8  84.6981
 48.0376  7238.89  84.5482
 48.0796  7318.92  85.1348
 48.1216  7365.91  85.2356
 48.1636  7500.1  85.5709
 48.2056  7414.89  85.351
 48.2476  7409.87  85.6336
 48.2896  7446.42  85.7538
 48.3316  7330.63  85.0265
 48.3736  7385.47  85.3645
 48.4156  7307.65  84.7678
 48.4576  7342.6  85.2648
 48.4996  7480.71  85.5068
 48.5416  7519.88  86.0656
 48.5836  7346.39  84.7433
 48.6256  7387.78  85.1797
 48.6676  7316.34  85.2864
 48.7096  7461.15  85.3908
 48.7516  7267.61  84.4284
 48.7936  7281.01  84.5676
 48.8356  7405.81  85.3395
 48.8776  7291.77  85.2589
 48.9196  7485.97  85.7429
 48.9616  7307.99  85.0939
 49.0036  7438.32  86.2147
 49.0456  7336.64  85.6023
 49.0876  7331.07  85.0951
 49.1296  7201.01  84.5035
 49.1716  7270.91  84.7851
 49.2136  7318.06  84.9753
 49.2556  7308.18  84.9514
 49.2976  7411.19  85.6181
 49.3396  7245.73  84.7195
 49.3816  7371.39  84.8591
 49.4236  7254.36  84.6136
 49.4656  7210.48  84.3813
 49.5076  7309.59  84.7057
 49.5496  7275.59  84.5728
 49.5916  7359.63  84.9687
 49.6336  7350.53  85.1348
 49.6756  7350.92  85.3677
 49.7176  7322.21  85.1429
 49.7596  7241.04  84.4365
 49.8016  7286.93  84.6186
 49.8436  7265.62  84.7953
 49.8856  7267.03  84.8116
 49.9276  7230.59  84.7011
 49.9696  7323.31  85.2168
 50.0116  7314.87  85.2904
 50.0536  7300.44  85.1704
 50.0956  7198.12  84.6388
 50.1376  7311.9  84.9993
 50.1796  7179.26  84.5005
 50.2216  7189.36  84.5529
 50.2636  7244.39  84.4818
 50.3056  7184.59  84.315
 50.3476  7275.3  84.8731
 50.3896  7223.76  84.5431
 50.4316  7316.72  84.9079
 50.4736  7148.66  84.1515
 50.5156  7218.87  84.5556
 50.5576  7262.26  84.5633
 50.5996  7189.71  84.4248
 50.6416  7201.18  84.4168
 50.6836  7180.66  84.3509
 50.7256  7296.15  84.9635
 50.7676  7296.83  85.2855
 50.8096  7231.01  84.4299
 50.8516  7202.63  84.6938
 50.8936  7120.14  83.9814
 50.9356  7230.36  84.7376
 50.9776  7169.52  84.5424
 51.0196  7042.81  83.9182
 51.0616  7058.96  83.3316
 51.1036  7190.27  84.4679
 51.1456  7203.88  84.4544
 51.1876  7103.5  83.1984
 51.2296  7148.05  84.1041
 51.2716  6976.59  82.7973
 51.3136  6939.11  83.0362
 51.3556  6991.99  82.9709
 51.3976  7012.65  83.2394
 51.4396  6929.62  83.0649
 51.4816  6946.31  83.0175
 51.5236  6990.55  83.3612
 51.5656  7024.64  83.16
 51.6076  7099.46  83.687
 51.6496  6984.78  83.2043
 51.6916  6916.04  83.1453
 51.7336  6861.03  82.9171
 51.7756  6964.29  83.2227
 51.8176  6895.31  82.9263
 51.8596  6947.28  83.2515
 51.9016  7030.34  83.3485
 51.9436  7138.4  85.5012
 51.9856  7001.49  85.1105
 52.0276  7048.92  83.8496
 52.0696  7073.84  84.073
 52.1116  7020.95  83.8852
 52.1536  7089.4  84.1682
 52.1956  7072.55  83.5314
 52.2376  7142.03  84.1089
 52.2796  7042.88  83.3444
 52.3216  6993.87  83.7387
 52.3636  7040.3  83.5759
 52.4056  6885.41  82.5261
 52.4476  6887.11  82.8889
 52.4896  6969.03  83.4429
 52.5316  7027.24  83.8468
 52.5736  6800.83  82.1992
 52.6156  7057.84  84.1426
 52.6576  6954.13  82.9556
 52.6996  6725.75  82.5638
 52.7416  6844.28  83.138
 52.7836  7032.71  84.1654
 52.8256  6977.3  83.031
 52.8676  6820.27  82.6732
 52.9096  6999.45  83.8245
 52.9516  6965.72  84.0157
 52.9936  6992.27  84.5611
 53.0356  6983.78  83.4806
 53.0776  6938.76  83.4892
 53.1196  6941.21  83.6308
 53.1616  6988.79  83.9631
 53.2036  6897.4  83.3749
 53.2456  6962.12  83.8729
 53.2876  6996.84  83.7661
 53.3296  6936.39  83.7384
 53.3716  7119  84.5752
 53.4136  7058.7  84.3617
 53.4556  6829.51  83.014
 53.4976  6845.12  82.951
 53.5396  6867.56  83.4877
 53.5816  6855.79  83.0508
 53.6236  6841.25  83.318
 53.6656  6807.37  82.7156
 53.7076  6961.52  83.594
 53.7496  7002.05  83.9732
 53.7916  7012.71  84.1801
 53.8336  6881.61  83.2708
 53.8756  6899.46  83.9528
 53.9176  6832.89  82.8667
 53.9596  6654.61  82.5543
 54.0016  6717.37  82.2556
 54.0436  6554.56  81.4876
 54.0856  6737.7  82.0263
 54.1276  6717.92  82.1032
 54.1696  6630.31  81.743
 54.2116  6807.05  82.5743
 54.2536  6744.21  81.9988
 54.2956  6658.65  81.517
 54.3376  6613.32  81.7357
 54.3796  6636.89  81.7639
 54.4216  6667.53  82.0324
 54.4636  6546.62  81.2274
 54.5056  6726.21  82.146
 54.5476  6603.97  81.7398
 54.5896  6617.13  81.6673
 54.6316  6506.62  80.8186
 54.6736  6669.91  81.9057
 54.7156  6564.9  81.3064
 54.7576  6502.86  80.8691
 54.7996  6601.55  81.6462
 54.8416  6538.14  81.3198
 54.8836  6712.27  82.4778
 54.9256  6524.91  81.0937
 54.9676  6505.27  80.8337
 55.0096  6584.24  81.3507
 55.0516  6415.69  80.5253
 55.0936  6549.88  81.0383
 55.1356  6523.28  80.9182
 55.1776  6583.18  81.5326
 55.2196  6630.91  81.6018
 55.2616  6699.03  82.2496
 55.3036  6557.54  81.5407
 55.3456  6391.45  80.6525
 55.3876  6537.21  81.2832
 55.4296  6386.23  80.3412
 55.4716  6503.8  81.1136
 55.5136  6452.13  80.5483
 55.5556  6629.95  81.7016
 55.5976  6463.85  80.7468
 55.6396  6564.86  81.3131
 55.6816  6343.81  79.7956
 55.7236  6385.54  80.1395
 55.7656  6457.68  80.291
 55.8076  6424.98  80.112
 55.8496  6450.33  80.5723
 55.8916  6379.61  80.3362
 55.9336  6578.64  81.4209
 55.9756  6402.77  80.203
 56.0176  6404  80.3557
 56.0596  6426.22  80.4693
 56.1016  6270.59  79.5361
 56.1436  6214.77  79.4278
 56.1856  6309.27  79.7588
 56.2276  6526.94  81.1762
 56.2696  6350.56  80.0501
 56.3116  6451.92  81.0759
 56.3536  6372.81  80.2554
 56.3956  6298.32  79.7534
 56.4376  6288.61  79.7497
 56.4796  6346.54  79.927
 56.5216  6345.68  80.2911
 56.5636  6303.72  79.5985
 56.6056  6474.85  80.9004
 56.6476  6295.57  79.401
 56.6896  6491.1  81.0849
 56.7316  6297.36  79.7989
 56.7736  6369.47  80.2297
 56.8156  6335.41  80.0471
 56.8576  6134.04  78.7021
 56.8996  6285.45  79.5698
 56.9416  6181.97  79.2281
 56.9836  6371.66  79.9515
 57.0256  6315.4  79.9054
 57.0676  6402.36  80.572
 57.1096  6220.97  79.2327
 57.1516  6180.79  79.0137
 57.1936  6241.84  79.1616
 57.2356  6175.53  79.0692
 57.2776  6295.17  79.784
 57.3196  6254.03  79.8694
 57.3616  6207.22  79.0618
 57.4036  6328.05  79.9016
 57.4456  6364.85  80.0969
 57.4876  6258.49  79.3093
 57.5296  6253.86  79.5972
 57.5716  6205.15  79.3023
 57.6136  6106.02  78.499
 57.6556  6306.3  79.8965
 57.6976  6246.73  79.3593
 57.7396  6176.13  79.2492
 57.7816  6096.12  79.1106
 57.8236  6120.87  79.0607
 57.8656  6181.63  79.1061
 57.9076  6196.24  79.2193
 57.9496  6178.93  79.4792
 57.9916  6228.94  79.3044
 58.0336  6116.79  78.8784
 58.0756  6231.26  79.2327
 58.1176  6200.03  79.0229
 58.1596  6166.25  79.4099
 58.2016  6049.86  77.8807
 58.2436  5938.38  77.5562
 58.2856  5940.49  77.5016
 58.3276  5946.15  77.9003
 58.3696  5909.49  77.415
 58.4116  5865.51  76.9954
 58.4536  6041.65  78.0285
 58.4956  5904.22  77.3159
 58.5376  5986.25  77.4258
 58.5796  5826.36  76.802
 58.6216  5939.65  77.3602
 58.6636  5862.63  77.0644
 58.7056  5861.78  76.9207
 58.7476  6043.93  78.547
 58.7896  6049.16  78.2302
 58.8316  5957.6  77.6295
 58.8736  5980.76  77.791
 58.9156  5890.67  77.2406
 58.9576  5887.51  77.5462
 58.9996  5991.51  77.4721
 59.0416  5950.42  77.5736
 59.0836  5857.62  76.8786
 59.1256  5847.13  77.5029
 59.1676  5829.93  77.6975
 59.2096  6138.9  79.0341
 59.2516  6059.98  78.1048
 59.2936  5861.51  77.1384
 59.3356  5965.85  77.7004
 59.3776  5990.33  78.028
 59.4196  5931.16  77.5778
 59.4616  5837.66  76.8266
 59.5036  5859.95  77.0076
 59.5456  5969.05  77.4167
 59.5876  5892.28  77.106
 59.6296  5814.55  76.6636
 59.6716  5865.22  77.0541
 59.7136  5939.13  77.5264
 59.7556  5845.57  77.0476
 59.7976  5923.91  77.3068
 59.8396  5835.61  76.6245
 59.8816  5792.28  76.8712
 59.9236  5776.73  76.4219
 59.9656  5870.53  77.2971
 60.0076  5861.6  76.6049
 60.0496  5881.82  77.2342
 60.0916  6056.58  77.7904
 60.1336  5819.4  77.3391
 60.1756  5814.55  78.469
 60.1996  0.0000000E+00  0.0000000E+00