File: docs/examples/opeando_xrd/IS17_D/Data/IS17_D/17_Db_f00042.xye
# /beamlines/bl04/projects/cycle2025-II/20250340211-lsimonelli/DATA/IS17_D/17_Db_f00042.xye : mythproc.py merge -s 0.006 -l 0.5 -f /beamlines/bl04/inhouse/ff/FlatField/ff_20Nov2024rod8mm60s_17keV.raw -b True -c true -o xye /beamlines/bl04/projects/cycle2025-II/20250340211-lsimonelli/DATA/IS17_D/17_Db_00042.dat
# IsMon = [6774726, 6779100, 6778925]  IsPos = [-1.4999, -2.4884, -3.4988]
# Wave = 0.4962  CalPath /beamlines/bl04/projects/cycle2025-II/20250340211-lsimonelli/DATA/Align/Si_Pos1_25keV_f00001.cal
# Date = 2025-09-24_05:23:05 Dt = 4.8000  Bin = 0.0060  <imon> = 6777584 +/- 2022 (Min/Max) 6774726 / 6779100
# icurr 251.8108  mocoIn 1.7185E-05  mocoOut 0.8067  i15 7.0963e+06  imon 6.77758e+06  i7 5.6667  iEMpd_timer 4.8000  iEMpd_1 3.4424E-08  iEMpd_2 7.6882E-08  iEMpd_3 1.6091E-08  iEMpd_4 4.8223E-08  iEMhp_timer 4.8000  iEMhp_1 4.9215E-06  iEMhp_2 -2.6356E-08  iEMhp_3 -2.4075E-08  iEMhp_4 -2.1031E-08
#      9776
 1.5856  44945.8  217.741
 1.6276  51983.2  230.149
 1.6696  57585.6  241.38
 1.7116  64933.3  256.818
 1.7536  73428.4  271.938
 1.7956  77517.9  280.106
 1.8376  73725.8  273.602
 1.8796  63388.8  251.844
 1.9216  52985.5  231.158
 1.9636  45505.2  213.342
 2.0056  42188.7  204.625
 2.0476  39083.3  199.109
 2.0896  37437.3  193.728
 2.1316  36994.4  191.653
 2.1736  34772.3  187.282
 2.2156  35606.4  187.994
 2.2576  34373.2  185.372
 2.2996  32950.7  182.162
 2.3416  33400.2  181.937
 2.3836  32808.4  180.429
 2.4256  31654.6  177.805
 2.4676  31128.5  176.071
 2.5096  31069  175.961
 2.5516  29570  175.58
 2.5936  29628.5  172.22
 2.6356  28906  170.831
 2.6776  29003.7  169.984
 2.7196  28656.8  169.468
 2.7616  28549  168.931
 2.8036  27871.7  167.09
 2.8456  28027.8  168.209
 2.8876  27240.6  165.678
 2.9296  26923.8  164.86
 2.9716  26803.7  163.967
 3.0136  26413.6  162.842
 3.0556  26602.9  163.818
 3.0976  26485.3  162.339
 3.1396  26207.7  162.221
 3.1816  25770.4  160.821
 3.2236  25834.7  161.012
 3.2656  25384.9  158.614
 3.3076  25158.4  159.408
 3.3496  25364.9  158.957
 3.3916  25746.2  159.977
 3.4336  25979.2  161.295
 3.4756  26380  162.478
 3.5176  27141.6  164.556
 3.5596  26839.8  166.134
 3.6016  26923.2  163.961
 3.6436  25960.5  162.127
 3.6856  25738.7  159.707
 3.7276  24612.2  157.261
 3.7696  24437.5  156.903
 3.8116  24018.7  155.445
 3.8536  24170.9  155.869
 3.8956  24143.9  155.59
 3.9376  23845.8  154.901
 3.9796  23910.5  154.593
 4.0216  23733.1  153.044
 4.0636  23826.8  154.836
 4.1056  23737.9  154.195
 4.1476  24197.8  156.012
 4.1896  24118.6  155.605
 4.2316  24302.9  156.018
 4.2736  24621.5  156.836
 4.3156  24682.1  157.254
 4.3576  25837.3  160.804
 4.3996  25739.5  160.769
 4.4416  26389.6  162.372
 4.4836  26746.8  163.625
 4.5256  27158.4  165.501
 4.5676  27360  166.37
 4.6096  27778.3  166.279
 4.6516  28196.4  167.214
 4.6936  28096  167.748
 4.7356  28181.2  167.83
 4.7776  28152.3  167.564
 4.8196  28135.9  168.187
 4.8616  27370.1  165.353
 4.9036  27344.5  165.029
 4.9456  27037.1  164.743
 4.9876  26451.1  162.848
 5.0296  26781.4  163.695
 5.0716  26441.5  163.412
 5.1136  26647.4  163.767
 5.1556  26847.4  163.829
 5.1976  27372.8  165.426
 5.2396  27487.7  165.464
 5.2816  27493  165.96
 5.3236  27294.5  165.035
 5.3656  26901.5  164.787
 5.4076  26832.4  164.706
 5.4496  26656.4  163.665
 5.4916  26678.2  163.489
 5.5336  26689.7  163.528
 5.5756  26767.4  163.793
 5.6176  26913.1  163.666
 5.6596  27238.3  165.658
 5.7016  27088.9  164.454
 5.7436  27167.6  164.972
 5.7856  27142.5  164.961
 5.8276  27326  165.223
 5.8696  27583.7  166.181
 5.9116  27327  166.004
 5.9536  27945.2  167.617
 5.9956  27964.7  167.062
 6.0376  27911.2  167.518
 6.0796  28319.5  168.57
 6.1216  28178.9  168.349
 6.1636  28430.6  168.148
 6.2056  28243.5  168.272
 6.2476  28561.4  169.094
 6.2896  29008.3  170.084
 6.3316  28907.3  169.975
 6.3736  28782.6  169.49
 6.4156  29261.7  170.79
 6.4576  29088.6  169.9
 6.4996  29105.1  170.42
 6.5416  29200.4  170.831
 6.5836  29403.9  171.659
 6.6256  29658.8  171.964
 6.6676  29997.2  172.501
 6.7096  29983.4  173.339
 6.7516  30284.6  173.851
 6.7936  30506.9  173.892
 6.8356  30432.7  173.778
 6.8776  30655.3  175.207
 6.9196  30665.8  175.644
 6.9616  31295.7  176.877
 7.0036  31609.8  177.424
 7.0456  31542.5  176.534
 7.0876  31503.7  178.105
 7.1296  31539.2  177.343
 7.1716  31547.1  176.907
 7.2136  31343.6  176.103
 7.2556  31624  177.057
 7.2976  31584.3  177.435
 7.3396  31329.7  176.94
 7.3816  31395.6  177.34
 7.4236  31764.8  177.682
 7.4656  32035.6  177.879
 7.5076  32132.3  178.313
 7.5496  31839.5  178.029
 7.5916  31945.9  178.377
 7.6336  32392.4  179.5
 7.6756  32543.9  179.775
 7.7176  32993.7  181.334
 7.7596  32602.5  181.479
 7.8016  33354  185.801
 7.8436  32878.4  181.125
 7.8856  33009.3  181.087
 7.9276  33479.4  182.778
 7.9696  33912.6  184.261
 8.0116  35288.2  186.51
 8.0536  34987.5  185.954
 8.0956  34855  186.776
 8.1376  35392  187.685
 8.1796  35649.5  188.898
 8.2216  36264.6  189.273
 8.2636  36406.5  189.893
 8.3056  36358.7  190.53
 8.3476  36937.5  191.369
 8.3896  36712.8  190.869
 8.4316  36404.1  190.23
 8.4736  36898.4  190.989
 8.5156  36489.7  190.202
 8.5576  36187.2  190.367
 8.5996  36379.1  189.762
 8.6416  36174.1  190.469
 8.6836  35814.8  189.355
 8.7256  36285.6  190.048
 8.7676  36271.5  192.926
 8.8096  36811.7  191.675
 8.8516  36205.6  189.661
 8.8936  35954.5  188.96
 8.9356  36395.6  190.451
 8.9776  36174.6  189.95
 9.0196  36113.5  189.469
 9.0616  35808.4  188.163
 9.1036  35354.9  188.118
 9.1456  35038  186.61
 9.1876  35293.2  187.243
 9.2296  35029.7  185.976
 9.2716  35029.9  186.022
 9.3136  34793.6  185.389
 9.3556  35199.5  186.438
 9.3976  34001.3  183.757
 9.4396  34280  184.415
 9.4816  34122.7  183.853
 9.5236  33771  182.8
 9.5656  33410.1  182.172
 9.6076  32918.5  181.337
 9.6496  33159  181.881
 9.6916  32659.9  180.459
 9.7336  33181.9  181.692
 9.7756  32594.3  181.312
 9.8176  32566.6  180.762
 9.8596  32525  179.1
 9.9016  32171.9  178.117
 9.9436  31715.4  176.762
 9.9856  31512.5  176.468
 10.0276  30936.6  175.905
 10.0696  31507.8  176.562
 10.1116  30452  173.847
 10.1536  30537.4  174.232
 10.1956  29743.8  171.583
 10.2376  29751.6  171.124
 10.2796  29664.9  170.967
 10.3216  29418.9  170.547
 10.3636  29152  169.799
 10.4056  28592  168.549
 10.4476  28604.9  168.209
 10.4896  28913.2  168.579
 10.5316  28234.7  167.297
 10.5736  28036.7  167.116
 10.6156  27844.7  166.304
 10.6576  27932.4  165.147
 10.6996  27269.2  163.866
 10.7416  27151  163.721
 10.7836  26695.1  162.975
 10.8256  26406.5  162.523
 10.8676  26299  161.737
 10.9096  26287.9  161.743
 10.9516  26095.9  160.111
 10.9936  26094.8  160.314
 11.0356  25969.4  160.523
 11.0776  25645.6  158.87
 11.1196  25242.6  158.368
 11.1616  25082.3  157.538
 11.2036  25242.1  157.891
 11.2456  24992  157.793
 11.2876  25203.3  158.205
 11.3296  24526.6  155.977
 11.3716  25042.9  157.305
 11.4136  24979  157.967
 11.4556  24673.2  156.66
 11.4976  25097.7  157.023
 11.5396  25060.9  157.073
 11.5816  25762.3  159.693
 11.6236  26162  161.151
 11.6656  26667.6  161.856
 11.7076  25779.9  159.96
 11.7496  25138.1  161.976
 11.7916  24821.2  156.22
 11.8336  24471.3  156.004
 11.8756  24151.1  154.543
 11.9176  24166.1  154.261
 11.9596  24097  154.22
 12.0016  24014.1  154.708
 12.0436  24164.8  154.653
 12.0856  23716.5  153.707
 12.1276  23407.8  152.651
 12.1696  23568.5  152.3
 12.2116  23562.9  152.274
 12.2536  23278  152.156
 12.2956  23365.4  151.792
 12.3376  23657  152.955
 12.3796  23502.9  152.928
 12.4216  23528.7  152.211
 12.4636  23112.2  151.776
 12.5056  23425.3  152.074
 12.5476  23548.8  151.998
 12.5896  23273.9  151.738
 12.6316  23379.8  152.243
 12.6736  23059.6  151.673
 12.7156  23234  152.094
 12.7576  23302.6  152.553
 12.7996  23374.9  151.455
 12.8416  23130.6  151.698
 12.8836  23377  152.337
 12.9256  23794.1  152.731
 12.9676  23568.5  152.395
 13.0096  23949.5  154.75
 13.0516  23800.4  153.3
 13.0936  24151.2  154.837
 13.1356  24192.2  153.918
 13.1776  23986.7  154.286
 13.2196  24127  154.383
 13.2616  23869.2  153.862
 13.3036  24387.4  155.491
 13.3456  24009.2  154.621
 13.3876  24475.4  155.397
 13.4296  24283.7  154.953
 13.4716  24290.5  154.602
 13.5136  24074.2  154.052
 13.5556  24133.7  154.853
 13.5976  24146.9  155.07
 13.6396  24176.4  154.518
 13.6816  24163.2  154.954
 13.7236  24615.5  155.961
 13.7656  26167.7  161.288
 13.8076  27026.7  162.531
 13.8496  26394.4  161.281
 13.8916  24334.7  156.015
 13.9336  23721.1  153.308
 13.9756  23667.7  152.523
 14.0176  23306.3  152.022
 14.0596  23669.2  153.133
 14.1016  23356.8  152.546
 14.1436  23391.3  151.8
 14.1856  22724.3  149.901
 14.2276  22796.8  150.626
 14.2696  22783.1  150.426
 14.3116  22453  149.236
 14.3536  22220  148.622
 14.3956  22027.4  147.706
 14.4376  22375.5  148.66
 14.4796  22162.7  147.95
 14.5216  21815.9  147.571
 14.5636  21625.2  146.497
 14.6056  21776.4  146.578
 14.6476  21746.7  145.72
 14.6896  21313.3  144.799
 14.7316  21036.6  144.89
 14.7736  20974.3  143.816
 14.8156  20741.3  143.033
 14.8576  20648.1  142.578
 14.8996  20532.7  143.37
 14.9416  19873.3  141.057
 14.9836  19930.5  141.245
 15.0256  19556.5  138.828
 15.0676  19499.7  138.933
 15.1096  19410.4  138.356
 15.1516  19154.2  137.986
 15.1936  18939.1  136.651
 15.2356  18591.1  135.663
 15.2776  18593  135.267
 15.3196  18255.9  135.01
 15.3616  18244.4  134.727
 15.4036  18213.9  134.479
 15.4456  18349  134.634
 15.4876  18155.5  133.607
 15.5296  17942.5  133.102
 15.5716  17743.2  131.971
 15.6136  17656.1  131.967
 15.6556  17679.9  131.31
 15.6976  17511.4  130.969
 15.7396  17291.3  130.525
 15.7816  17442.9  130.617
 15.8236  17070  129.893
 15.8656  17149.3  129.991
 15.9076  17055.8  129.464
 15.9496  17558.8  134.171
 15.9916  17354.7  133.759
 16.0336  17517.9  131.304
 16.0756  17236.1  130.55
 16.1176  17010.7  129.772
 16.1596  16484.9  128.909
 16.2016  16613.7  128.187
 16.2436  16659.1  128.735
 16.2856  16484.2  127.583
 16.3276  16248.3  127.099
 16.3696  16521.1  127.984
 16.4116  16405.2  127.978
 16.4536  16485.9  128.095
 16.4956  16520.2  127.981
 16.5376  16239.4  127.07
 16.5796  16201.8  126.296
 16.6216  15981.2  125.686
 16.6636  15897.9  125.543
 16.7056  16270.6  126.872
 16.7476  15984.4  125.29
 16.7896  16006  126.11
 16.8316  16008.5  126.103
 16.8736  16206.1  127.135
 16.9156  15908.9  126.276
 16.9576  15914  127.087
 16.9996  16010.7  127.929
 17.0416  15909.3  125.931
 17.0836  16120.7  126.531
 17.1256  15823.2  125.362
 17.1676  15949.9  125.816
 17.2096  15832.5  125.26
 17.2516  15858.1  125.154
 17.2936  15744.4  125.05
 17.3356  15690  124.828
 17.3776  15727.1  125.157
 17.4196  15282.4  123.069
 17.4616  15372.1  123.343
 17.5036  14932  121.925
 17.5456  15065.3  123.098
 17.5876  14826.3  121.183
 17.6296  14973.8  121.617
 17.6716  14778.2  121.384
 17.7136  14728.1  121.315
 17.7556  14687.9  121.434
 17.7976  14483  120.324
 17.8396  14384  119.411
 17.8816  14320.3  119.706
 17.9236  14348.6  119.62
 17.9656  14150  119.308
 18.0076  14285.2  119.467
 18.0496  14291.1  118.631
 18.0916  14085  118.322
 18.1336  14052.4  118.276
 18.1756  14363.2  119.131
 18.2176  13869.4  117.269
 18.2596  13848.5  116.91
 18.3016  14066.8  118.097
 18.3436  14113.8  118.296
 18.3856  13975.9  117.852
 18.4276  13973.5  117.526
 18.4696  13893  117.272
 18.5116  13919.6  117.655
 18.5536  13883  117.858
 18.5956  13767.4  116.931
 18.6376  13726.8  117.144
 18.6796  13740.6  116.526
 18.7216  13807.5  117.304
 18.7636  13670.9  116.732
 18.8056  13492.1  115.892
 18.8476  13561.5  116.804
 18.8896  13529.9  116.019
 18.9316  13571.9  116.177
 18.9736  13637.4  116.159
 19.0156  13567.5  116.268
 19.0576  13624.7  115.388
 19.0996  13672.9  116.291
 19.1416  13574.8  116.268
 19.1836  13548.5  115.763
 19.2256  13383.1  115.272
 19.2676  13405.4  115.446
 19.3096  13326  115.348
 19.3516  13369  115.497
 19.3936  13412.6  115.577
 19.4356  13655.3  116.505
 19.4776  13478.4  115.832
 19.5196  13372.6  115.236
 19.5616  13319.9  115.256
 19.6036  13391  115.072
 19.6456  13470.2  115.527
 19.6876  13415.1  114.931
 19.7296  13646.7  116.389
 19.7716  13282  114.98
 19.8136  13590.8  116.517
 19.8556  13709.1  116.504
 19.8976  13409.1  115.259
 19.9396  13535.2  115.418
 19.9816  13615.2  115.998
 20.0236  13832.8  117.107
 20.0656  13930.4  117.52
 20.1076  14120  118.806
 20.1496  14351.7  119.765
 20.1916  14698.9  120.72
 20.2336  14730.6  120.756
 20.2756  14413.1  119.892
 20.3176  14022  118.006
 20.3596  13816.2  117.121
 20.4016  13731.5  116.555
 20.4436  13409.8  115.741
 20.4856  13571.5  116.243
 20.5276  13297.2  115.517
 20.5696  13383.9  115.349
 20.6116  13118.8  114.467
 20.6536  13219.6  114.411
 20.6956  13066.5  113.885
 20.7376  12841.3  113.107
 20.7796  12948.7  113.28
 20.8216  13054.2  113.45
 20.8636  12986.7  113.536
 20.9056  12931.3  113.219
 20.9476  12927.8  113.061
 20.9896  13027.6  113.353
 21.0316  12881.6  112.619
 21.0736  12787  112.723
 21.1156  12728.6  112.618
 21.1576  12814.5  113.038
 21.1996  12711.8  112.568
 21.2416  12827.9  112.922
 21.2836  12749  112.538
 21.3256  12748.3  112.619
 21.3676  12709.6  111.969
 21.4096  12632  111.956
 21.4516  12649.3  111.898
 21.4936  12350.1  110.824
 21.5356  12586.5  111.835
 21.5776  12672.1  112.05
 21.6196  12518.7  111.41
 21.6616  12418.6  111.047
 21.7036  12565.2  111.471
 21.7456  12452.1  111.051
 21.7876  12482.2  110.946
 21.8296  12438.2  110.599
 21.8716  12478.3  111.002
 21.9136  12566.4  111.594
 21.9556  12401.7  110.538
 21.9976  12357.6  110.373
 22.0396  12275.9  110.255
 22.0816  12277  110.776
 22.1236  12545.2  111.442
 22.1656  12333.6  110.64
 22.2076  12287.8  109.89
 22.2496  12141.3  109.259
 22.2916  12255.4  109.654
 22.3336  12052  109.452
 22.3756  12133.2  109.545
 22.4176  12086.7  109.192
 22.4596  11773.4  108.342
 22.5016  11988.7  108.844
 22.5436  12165.1  109.514
 22.5856  12412.4  110.868
 22.6276  12609.7  111.874
 22.6696  12143.7  110.145
 22.7116  12127.5  109.587
 22.7536  12206.6  109.921
 22.7956  12072  108.659
 22.8376  11919.6  108.478
 22.8796  12024.8  108.763
 22.9216  12072.4  109.515
 22.9636  12177.7  109.155
 23.0056  12144.8  109.138
 23.0476  12066.9  109.35
 23.0896  12236.6  109.502
 23.1316  12268.6  110.076
 23.1736  12322.3  113.235
 23.2156  12522  111.547
 23.2576  12540.1  111.766
 23.2996  12415.8  110.983
 23.3416  12548.6  112.11
 23.3836  12550.9  111.343
 23.4256  12797.6  112.559
 23.4676  12556.9  111.184
 23.5096  12518.5  111.67
 23.5516  12373.4  110.325
 23.5936  12460.5  111.622
 23.6356  12612.4  111.964
 23.6776  12285.6  110.703
 23.7196  12216.8  109.986
 23.7616  12396.8  110.703
 23.8036  12596.9  111.657
 23.8456  12246.7  109.645
 23.8876  12401.9  110.698
 23.9296  12139.7  110.004
 23.9716  12148.1  109.254
 24.0136  12254.3  110.63
 24.0556  12061  109.471
 24.0976  12085.3  109.399
 24.1396  11869.5  111.006
 24.1816  12098.4  110.492
 24.2236  12371.5  111.357
 24.2656  11970.2  109.008
 24.3076  11829.4  108.635
 24.3496  11887.3  108.775
 24.3916  11790.1  108.383
 24.4336  11862  108.909
 24.4756  11738.7  108.234
 24.5176  11739.1  107.862
 24.5596  11678.6  107.7
 24.6016  11452.4  106.955
 24.6436  11740.9  107.805
 24.6856  11455.3  106.232
 24.7276  11521.3  106.851
 24.7696  11369.4  106.258
 24.8116  11324.6  106.217
 24.8536  11345.9  106.319
 24.8956  11340.3  106.038
 24.9376  11402.9  106.252
 24.9796  11122.7  105.303
 25.0216  11203.9  105.802
 25.0636  11205.1  105.458
 25.1056  11057.6  105.456
 25.1476  11042.5  106.985
 25.1896  11037.2  105.495
 25.2316  11100.5  105.078
 25.2736  10956  104.034
 25.3156  10995.1  104.304
 25.3576  10869.1  104.129
 25.3996  10858.3  104.072
 25.4416  10818.9  103.854
 25.4836  10741.3  103.99
 25.5256  10759.3  103.453
 25.5676  10878.2  103.754
 25.6096  10652.8  103.239
 25.6516  10801.6  103.464
 25.6936  10918.7  104.341
 25.7356  10808.1  103.942
 25.7776  10793.3  103.476
 25.8196  10607.3  102.817
 25.8616  10630.6  102.86
 25.9036  10653.5  102.437
 25.9456  10511.3  102.328
 25.9876  10608.6  102.871
 26.0296  10796.5  103.294
 26.0716  10624.7  102.897
 26.1136  10678.2  103.079
 26.1556  10691.9  102.541
 26.1976  10482.2  102.445
 26.2396  10593.8  102.152
 26.2816  10595.4  102.758
 26.3236  10555.8  102.72
 26.3656  10676.9  103.039
 26.4076  10628.2  103.003
 26.4496  10839  103.613
 26.4916  10900.3  103.808
 26.5336  11322.4  106.137
 26.5756  11240.1  105.629
 26.6176  10756.6  103.339
 26.6596  10659.1  103.191
 26.7016  10618.8  102.76
 26.7436  10680  103.187
 26.7856  10387.1  101.744
 26.8276  10545.7  102.488
 26.8696  10408  101.687
 26.9116  10259.7  100.895
 26.9536  10233.2  100.815
 26.9956  10219.9  100.781
 27.0376  10312.9  101.467
 27.0796  10350.1  101.372
 27.1216  10315.2  101.263
 27.1636  10062  100.179
 27.2056  10181.9  100.662
 27.2476  10258.1  101.016
 27.2896  10138.2  100.545
 27.3316  10194.1  100.55
 27.3736  10090.1  100.293
 27.4156  10143.6  100.41
 27.4576  10202.5  100.918
 27.4996  10264.1  100.835
 27.5416  10017.7  99.917
 27.5836  10065.4  99.9868
 27.6256  10147.4  100.575
 27.6676  9923.6  99.4438
 27.7096  10045.6  99.939
 27.7516  9932.17  99.5071
 27.7936  10291.6  101.441
 27.8356  10199.8  100.609
 27.8776  10306.8  101.2
 27.9196  9971.1  99.4019
 27.9616  9948.69  99.4868
 28.0036  9885.4  99.1251
 28.0456  9928.59  99.4787
 28.0876  9855.34  99.1993
 28.1296  9846.24  98.9887
 28.1716  9891.56  99.2436
 28.2136  9931.19  99.4031
 28.2556  9765.73  98.6835
 28.2976  9805.13  98.8773
 28.3396  9818.37  98.696
 28.3816  9769  98.46
 28.4236  9709.48  98.3152
 28.4656  9669.89  98.154
 28.5076  9668.62  97.794
 28.5496  9689.47  98.1427
 28.5916  9688.97  97.9643
 28.6336  9678.05  98.252
 28.6756  9766.97  97.9044
 28.7176  9654.22  97.8827
 28.7596  9572.75  97.3654
 28.8016  9510.06  97.0792
 28.8436  9551.32  97.5259
 28.8856  9616.42  97.7114
 28.9276  9661.03  98.178
 28.9696  9558.61  97.3191
 29.0116  9517.76  97.2932
 29.0536  9443.43  97.1237
 29.0956  9516.67  97.2004
 29.1376  9448.77  96.8256
 29.1796  9511.75  97.1962
 29.2216  9542.03  97.1879
 29.2636  9529.53  97.2065
 29.3056  9544.28  97.0558
 29.3476  9382.65  96.7581
 29.3896  9433.89  97.1326
 29.4316  9326.99  95.9084
 29.4736  9204.88  95.3423
 29.5156  9328.26  95.9007
 29.5576  9278.86  96.3773
 29.5996  9349.19  96.0134
 29.6416  9152.11  95.1075
 29.6836  9342.1  96.0208
 29.7256  9136.14  95.5088
 29.7676  9105.96  95.0217
 29.8096  9223.85  95.5777
 29.8516  8935.31  94.3957
 29.8936  9138.51  95.5518
 29.9356  9318.12  96.2443
 29.9776  9029.28  94.8853
 30.0196  9097.94  94.6471
 30.0616  9166.56  95.3752
 30.1036  9167.01  95.2065
 30.1456  9070.19  94.9255
 30.1876  9094.7  95.0303
 30.2296  9014.86  94.5707
 30.2716  9066.4  94.4856
 30.3136  9003.62  94.9928
 30.3556  9280.89  96.4569
 30.3976  9145.98  97.2101
 30.4396  9559.47  96.7586
 30.4816  9454.81  95.836
 30.5236  9313.46  95.1119
 30.5656  9341.91  95.9117
 30.6076  9315.55  95.1973
 30.6496  9281.69  95.4215
 30.6916  9090.45  94.5211
 30.7336  9058.81  94.5134
 30.7756  9336.87  96.0267
 30.8176  9168.42  95.0791
 30.8596  9203.23  95.0019
 30.9016  9366.53  96.2025
 30.9436  9335.22  95.8078
 30.9856  9478.55  96.647
 31.0276  9299.15  95.3626
 31.0696  9176.75  95.2888
 31.1116  9167.42  95.2109
 31.1536  9129.04  94.8906
 31.1956  9152.97  95.1017
 31.2376  8991  94.2782
 31.2796  9180.3  94.8032
 31.3216  9283.79  95.2586
 31.3636  9217.66  95.6076
 31.4056  9186.86  96.7594
 31.4476  9165.18  94.5755
 31.4896  9095.08  94.6969
 31.5316  9067.65  93.9726
 31.5736  9324.84  95.1318
 31.6156  9204.46  94.5184
 31.6576  9235  94.7459
 31.6996  9150.29  93.9851
 31.7416  8930.31  93.9213
 31.7836  9368.86  95.1901
 31.8256  9172.9  94.4739
 31.8676  9420.77  95.7323
 31.9096  9016.25  94.0038
 31.9516  8971.52  93.938
 31.9936  8932.14  93.5419
 32.0356  9085.57  94.3973
 32.0776  9017.38  93.9543
 32.1196  9035.64  94.1501
 32.1616  9187.83  94.3779
 32.2036  9090.96  94.4001
 32.2456  9031.45  94.4576
 32.2876  9088.63  94.267
 32.3296  8938.34  93.4363
 32.3716  8794.63  92.7995
 32.4136  8812.14  93.0912
 32.4556  8898.7  92.935
 32.4976  8803.38  92.3517
 32.5396  8825.81  92.5205
 32.5816  8741.87  92.2164
 32.6236  8788.29  92.5215
 32.6656  8927.96  93.7966
 32.7076  8720.69  92.3604
 32.7496  8688.08  91.863
 32.7916  8821.63  92.5296
 32.8336  8743.95  92.2123
 32.8756  8905.6  92.7882
 32.9176  8588.88  91.5993
 32.9596  8742.38  92.4848
 33.0016  8806.03  92.5774
 33.0436  8817.46  92.8158
 33.0856  8786.75  92.758
 33.1276  8637.75  91.7017
 33.1696  8805.08  92.4136
 33.2116  8727.49  92.2396
 33.2536  8877.17  93.0098
 33.2956  8602.4  91.6509
 33.3376  8715.28  91.9979
 33.3796  8763.29  92.4653
 33.4216  8678.22  91.6008
 33.4636  8807.8  92.4447
 33.5056  8559.1  91.3688
 33.5476  8665.21  91.9216
 33.5896  8739.01  92.0966
 33.6316  8667.65  92.0299
 33.6736  8514.27  91.4552
 33.7156  8472.75  91.2654
 33.7576  8721.1  92.233
 33.7996  8706.73  91.9201
 33.8416  8389.99  90.4164
 33.8836  8567.46  91.1412
 33.9256  8711.8  91.9666
 33.9676  8676.64  91.6787
 34.0096  8546.26  91.2992
 34.0516  8552.45  90.9629
 34.0936  8460.94  90.7519
 34.1356  8669.61  91.6023
 34.1776  8420.32  90.2661
 34.2196  8387.52  90.2714
 34.2616  8435.32  90.6645
 34.3036  8480.45  91.159
 34.3456  8618.77  91.6459
 34.3876  8536.57  91.1904
 34.4296  8394.88  90.1188
 34.4716  8467.36  90.6539
 34.5136  8503.85  91.0305
 34.5556  8349.76  90.4636
 34.5976  8510.29  91.1469
 34.6396  8412.92  90.3425
 34.6816  8464.36  90.7197
 34.7236  8380.79  90.0417
 34.7656  8516.98  90.9869
 34.8076  8404.17  90.7133
 34.8496  8317.43  90.0902
 34.8916  8381.36  90.3016
 34.9336  8424.34  90.5142
 34.9756  8405.57  90.3376
 35.0176  8362.72  90.626
 35.0596  8527.09  91.3394
 35.1016  8398.65  90.4029
 35.1436  8696.79  91.679
 35.1856  8464.78  90.5692
 35.2276  8441.35  90.6192
 35.2696  8386.46  90.5102
 35.3116  8366.3  90.5017
 35.3536  8304.15  89.8787
 35.3956  8364.36  89.9224
 35.4376  8517.1  91.2994
 35.4796  8404.59  90.7414
 35.5216  8313.57  90.206
 35.5636  8224.17  90.4577
 35.6056  8243.96  89.5969
 35.6476  8319.04  89.901
 35.6896  8356.12  90.1968
 35.7316  8300.21  89.8681
 35.7736  8199.77  89.5067
 35.8156  8303.23  90.0768
 35.8576  8362.4  90.6405
 35.8996  8363.46  90.6131
 35.9416  8382.41  90.2242
 35.9836  8254.91  89.8794
 36.0256  8365.21  90.4842
 36.0676  8420.49  90.537
 36.1096  8240.49  89.7129
 36.1516  8458.23  90.7808
 36.1936  8372.52  90.1572
 36.2356  8343.05  90.6577
 36.2776  8196.67  89.3341
 36.3196  8219.25  89.1376
 36.3616  8327.44  89.8515
 36.4036  8183.42  89.1376
 36.4456  8240.7  89.659
 36.4876  7970.26  88.1122
 36.5296  8105.71  88.8936
 36.5716  8160.41  89.9608
 36.6136  8246.27  89.2196
 36.6556  7917.96  87.6184
 36.6976  7904.52  88.0285
 36.7396  7951.12  88.0264
 36.7816  7882.7  88.0098
 36.8236  7840.13  87.6975
 36.8656  7849.65  87.8191
 36.9076  7812.93  87.4946
 36.9496  7881.86  87.8726
 36.9916  7940.18  87.8278
 37.0336  7945.03  88.1674
 37.0756  7923.47  87.8444
 37.1176  7817.36  87.5167
 37.1596  7753.97  87.1607
 37.2016  7809  87.6968
 37.2436  7979.69  87.9757
 37.2856  7851.91  87.5142
 37.3276  7977.65  87.5764
 37.3696  7891.6  87.9705
 37.4116  7879.31  87.8115
 37.4536  7721.18  86.7973
 37.4956  7823.59  87.4175
 37.5376  7995.07  89.9537
 37.5796  7930.45  89.5145
 37.6216  7944.66  87.8777
 37.6636  7954.82  87.8298
 37.7056  8119.23  88.9283
 37.7476  8103.19  88.3838
 37.7896  7962.85  88.1121
 37.8316  7967.62  88.2961
 37.8736  7939.29  87.664
 37.9156  8041.7  88.2255
 37.9576  7954.69  87.6604
 37.9996  7742.29  86.2017
 38.0416  7818.93  87.4143
 38.0836  8050.07  88.6087
 38.1256  7957.8  88.0715
 38.1676  7678.51  86.6264
 38.2096  8027.11  88.1944
 38.2516  7914.29  87.7789
 38.2936  8044.42  88.3008
 38.3356  7789.3  86.8132
 38.3776  7781.84  87.0098
 38.4196  7855.27  87.2917
 38.4616  7781  87.1224
 38.5036  7946.1  87.8844
 38.5456  7722.42  87.453
 38.5876  7743.19  87.5845
 38.6296  7824.51  87.0372
 38.6716  7809.16  86.7565
 38.7136  7910.02  87.2537
 38.7556  7860.24  87.482
 38.7976  7876.19  87.5011
 38.8396  7752.22  87.2637
 38.8816  7731.03  86.9429
 38.9236  7850.03  87.4085
 38.9656  7810.21  87.0991
 39.0076  7700.76  85.8905
 39.0496  7852.71  87.2963
 39.0916  7907  87.2373
 39.1336  7881.75  87.5035
 39.1756  7822.75  87.2298
 39.2176  7800.08  87.6361
 39.2596  7914.3  88.2049
 39.3016  7854.65  87.463
 39.3436  7772.18  87.4053
 39.3856  7872.72  87.4171
 39.4276  7943.22  88.3201
 39.4696  7947.04  87.953
 39.5116  7921.04  88.3272
 39.5536  7832.43  88.2494
 39.5956  7884.42  87.6414
 39.6376  7742.59  86.8579
 39.6796  7798.13  86.9077
 39.7216  7819.95  87.1324
 39.7636  7800  87.5663
 39.8056  7835.6  87.5682
 39.8476  7707.14  87.1004
 39.8896  7756.55  87.0145
 39.9316  7776.14  87.3645
 39.9736  7831.43  87.2536
 40.0156  7690.4  86.2997
 40.0576  7779.77  87.1354
 40.0996  7850.11  86.7274
 40.1416  7879.86  87.6842
 40.1836  7855.4  87.4399
 40.2256  7839.07  87.3762
 40.2676  7681.78  86.6049
 40.3096  7825.31  87.3369
 40.3516  7964.49  88.2239
 40.3936  7836.23  87.0709
 40.4356  7697.77  86.5008
 40.4776  7756.77  87.2386
 40.5196  7802.13  87.6122
 40.5616  7909.67  87.8608
 40.6036  7779.47  87.3854
 40.6456  7833.47  87.2981
 40.6876  7842.36  87.34
 40.7296  7693.26  86.6384
 40.7716  7880.73  87.8099
 40.8136  7706.44  86.7704
 40.8556  7859.17  87.7698
 40.8976  7855.02  87.6584
 40.9396  7848.99  87.9744
 40.9816  7936.37  87.7584
 41.0236  7846.61  87.0441
 41.0656  7938.53  88.0899
 41.1076  7834.03  87.2773
 41.1496  7840.13  87.2174
 41.1916  7753.98  87.0511
 41.2336  7869.51  87.7063
 41.2756  7752.69  86.6562
 41.3176  7893.87  88.0511
 41.3596  7816.02  87.3522
 41.4016  7725.22  87.0974
 41.4436  7894.78  87.8358
 41.4856  7868.39  87.8474
 41.5276  7738.53  87.1378
 41.5696  7786.85  87.0441
 41.6116  7890.45  88.0137
 41.6536  7811.96  87.4268
 41.6956  7869.53  87.8121
 41.7376  7785.32  87.3766
 41.7796  7706.74  86.8016
 41.8216  7750.45  87.2783
 41.8636  7726.76  87.0969
 41.9056  7689.2  86.6759
 41.9476  7750.95  87.26
 41.9896  7851.23  87.487
 42.0316  7820.25  87.4055
 42.0736  7908.14  88.0008
 42.1156  7724.42  86.7993
 42.1576  7772.23  87.1783
 42.1996  7783.37  87.3622
 42.2416  7797.72  87.0391
 42.2836  7735.62  86.8134
 42.3256  7800.17  87.2791
 42.3676  7880.24  87.5336
 42.4096  7768.91  86.8779
 42.4516  7887.92  87.6178
 42.4936  7710.88  86.708
 42.5356  7602.12  86.2272
 42.5776  7789.22  87.223
 42.6196  7644.15  86.4561
 42.6616  7535.32  86.0102
 42.7036  7735.7  86.5326
 42.7456  7867.63  87.6186
 42.7876  7758.35  87.1014
 42.8296  7751.71  86.9064
 42.8716  7643.37  86.4617
 42.9136  7699.76  86.5704
 42.9556  7751.92  86.992
 42.9976  7811.14  87.2841
 43.0396  7627.7  85.9934
 43.0816  7567.85  86.03
 43.1236  7679.86  86.7088
 43.1656  7753.93  86.9612
 43.2076  7646.66  86.47
 43.2496  7587.19  85.9498
 43.2916  7623.65  86.5131
 43.3336  7724.9  86.9145
 43.3756  7667.62  86.3551
 43.4176  7543.32  85.7304
 43.4596  7563.67  85.7039
 43.5016  7666.69  86.69
 43.5436  7598.12  86.209
 43.5856  7526.02  85.8251
 43.6276  7488.07  85.5022
 43.6696  7542.46  86.0644
 43.7116  7718.77  86.5652
 43.7536  7631.1  86.5622
 43.7956  7531.11  87.1975
 43.8376  7495.85  85.5197
 43.8796  7337.84  84.6928
 43.9216  7515.08  85.6259
 43.9636  7479.87  85.5346
 44.0056  7431.14  85.4834
 44.0476  7494.45  85.4821
 44.0896  7393.47  85.2382
 44.1316  7554.09  85.6873
 44.1736  7522.78  85.6276
 44.2156  7472.91  85.1969
 44.2576  7539  85.902
 44.2996  7472.86  85.4993
 44.3416  7511.24  85.4733
 44.3836  7257.67  84.3442
 44.4256  7312.28  84.3129
 44.4676  7323.23  84.5246
 44.5096  7375.33  84.9708
 44.5516  7451.86  85.3701
 44.5936  7306.48  84.4916
 44.6356  7427.58  84.9303
 44.6776  7332.93  84.6948
 44.7196  7432.67  85.5784
 44.7616  7517.36  87.393
 44.8036  7336.36  84.7842
 44.8456  7640  86.7341
 44.8876  7618.6  86.4522
 44.9296  7671.62  86.2031
 44.9716  7568.27  86.0552
 45.0136  7663.34  86.5226
 45.0556  7573.96  86.0006
 45.0976  7451.65  85.4537
 45.1396  7376.52  84.7834
 45.1816  7481.51  85.3133
 45.2236  7577.24  85.7728
 45.2656  7422.2  85.3755
 45.3076  7489.82  85.561
 45.3496  7367.21  85.1569
 45.3916  7364.32  85.4094
 45.4336  7525.37  86.1792
 45.4756  7361.48  85.0865
 45.5176  7550.36  85.795
 45.5596  7597.72  86.1832
 45.6016  7369.53  85.2975
 45.6436  7593.05  85.7367
 45.6856  7419.9  85.4301
 45.7276  7296.61  86.0054
 45.7696  7483.52  86.7735
 45.8116  7382.85  85.6231
 45.8536  7307.6  85.0896
 45.8956  7442.02  85.2211
 45.9376  7476.99  84.8876
 45.9796  7472.26  85.5455
 46.0216  7447.02  85.7373
 46.0636  7579.02  85.631
 46.1056  7504.06  85.1953
 46.1476  7488.72  85.7083
 46.1896  7431.82  85.5254
 46.2316  7449.91  85.5034
 46.2736  7318.64  85.1144
 46.3156  7336.8  84.8078
 46.3576  7418.61  85.4806
 46.3996  7387.5  85.4632
 46.4416  7402.36  85.1126
 46.4836  7419.33  85.5765
 46.5256  7458.73  85.7434
 46.5676  7341.2  85.1733
 46.6096  7392.68  85.4098
 46.6516  7451.21  84.7896
 46.6936  7450.35  85.2807
 46.7356  7456.16  85.4195
 46.7776  7311.07  85.4212
 46.8196  7255.5  84.6897
 46.8616  7231.39  84.4971
 46.9036  7238.89  84.1948
 46.9456  7262.93  83.9748
 46.9876  7418.63  84.9643
 47.0296  7275.29  84.8242
 47.0716  7224.09  84.3489
 47.1136  7296.6  84.4542
 47.1556  7292.77  84.2948
 47.1976  7348.93  84.7052
 47.2396  7287.46  84.7452
 47.2816  7298.55  84.5052
 47.3236  7333.56  85.0856
 47.3656  7307.49  84.8624
 47.4076  7337.55  84.8375
 47.4496  7315.77  84.8104
 47.4916  7308.65  84.959
 47.5336  7270.71  84.5524
 47.5756  7331.85  85.0268
 47.6176  7249.9  84.4482
 47.6596  7206.6  83.9007
 47.7016  7264  84.0568
 47.7436  7329.99  84.7789
 47.7856  7322.14  84.7706
 47.8276  7317.43  84.7877
 47.8696  7264.83  84.5605
 47.9116  7362.6  84.8386
 47.9536  7326.07  84.5691
 47.9956  7179.38  84.4268
 48.0376  7145.62  84.0012
 48.0796  7379.14  85.4936
 48.1216  7270.72  84.6809
 48.1636  7439.65  85.2298
 48.2056  7211.26  84.1735
 48.2476  7308.25  85.0508
 48.2896  7261.93  84.6846
 48.3316  7479.78  85.8873
 48.3736  7380.19  85.3352
 48.4156  7195.7  84.1112
 48.4576  7319.46  85.1328
 48.4996  7296.8  84.4505
 48.5416  7294.67  84.7694
 48.5836  7269.55  84.2908
 48.6256  7316.9  84.7767
 48.6676  7417.82  85.8932
 48.7096  7291.35  84.4093
 48.7516  7204.4  84.0544
 48.7936  7200.71  84.0954
 48.8356  7266.42  84.5325
 48.8776  7219.51  84.8308
 48.9196  7427.77  85.4042
 48.9616  7241.57  84.7113
 49.0036  7187.07  84.7451
 49.0456  7173.4  84.6467
 49.0876  7283.22  84.8065
 49.1296  7157.68  84.236
 49.1716  7084.37  83.6873
 49.2136  7264.98  84.6833
 49.2556  7240.25  84.5434
 49.2976  7215.96  84.4843
 49.3396  7142.95  84.1103
 49.3816  7311.8  84.5297
 49.4236  7231.63  84.4936
 49.4656  7144.88  83.9949
 49.5076  7167.41  83.881
 49.5496  7173.63  83.9785
 49.5916  7298.2  84.6148
 49.6336  7176.15  84.1169
 49.6756  7219.58  84.607
 49.7176  7213.62  84.5124
 49.7596  7141.23  83.8543
 49.8016  7267.63  84.5049
 49.8436  7221.96  84.541
 49.8856  7090.72  83.7698
 49.9276  7086.41  83.8442
 49.9696  7217.6  84.6095
 50.0116  7188.55  84.5624
 50.0536  7240.33  84.8078
 50.0956  7192.01  84.6057
 50.1376  7179.38  84.2277
 50.1796  7135.92  84.249
 50.2216  7162.53  84.3898
 50.2636  7278.99  84.6918
 50.3056  7090.75  83.7636
 50.3476  7087.8  83.7719
 50.3896  7128.22  83.9796
 50.4316  7329.88  84.9889
 50.4736  7071.22  83.6965
 50.5156  7193  84.3949
 50.5576  7289.11  84.717
 50.5996  7146.93  84.1758
 50.6416  7245.52  84.6796
 50.6836  7235.55  84.6837
 50.7256  7244.82  84.6594
 50.7676  7218.6  84.8365
 50.8096  7080.3  83.5486
 50.8516  7081.98  83.9807
 50.8936  7048.11  83.557
 50.9356  7097.42  83.9504
 50.9776  7095.54  84.1048
 51.0196  7034.84  83.8623
 51.0616  6912.92  82.4553
 51.1036  7176.2  84.3782
 51.1456  7072.01  83.6704
 51.1876  7077.11  83.0325
 51.2296  7051.08  83.5241
 51.2716  6829.21  81.9068
 51.3136  6883.8  82.6952
 51.3556  6989.12  82.941
 51.3976  6900.52  82.5599
 51.4396  6860.74  82.6423
 51.4816  6874.55  82.578
 51.5236  6926.77  82.97
 51.5656  6933.29  82.6106
 51.6076  6968.02  82.9011
 51.6496  6979  83.1613
 51.6916  6878.73  82.9208
 51.7336  6869.87  82.9604
 51.7756  6930.19  83.0096
 51.8176  6808.67  82.393
 51.8596  6793.55  82.3173
 51.9016  7059.62  83.5104
 51.9436  6966.11  84.4751
 51.9856  6966.62  84.8959
 52.0276  7058.93  83.9103
 52.0696  7074.14  84.0806
 52.1116  6916.01  83.2562
 52.1536  7069.06  84.0629
 52.1956  6996.06  83.0732
 52.2376  7089.02  83.7994
 52.2796  7026.76  83.2513
 52.3216  6888.26  83.1075
 52.3636  6841.77  82.3878
 52.4056  6895.5  82.5894
 52.4476  6985.82  83.4934
 52.4896  6927.43  83.1932
 52.5316  7057.03  84.0238
 52.5736  6859.12  82.5544
 52.6156  7136.59  84.6186
 52.6576  6958.93  82.979
 52.6996  6784.1  82.9248
 52.7416  6701.29  82.2659
 52.7836  6907.54  83.4161
 52.8256  6929.53  82.7482
 52.8676  6719.9  82.0607
 52.9096  6830.1  82.8141
 52.9516  6855.59  83.3438
 52.9936  6848.56  83.676
 53.0356  7027.28  83.7437
 53.0776  6915.9  83.3549
 53.1196  6839.51  83.0193
 53.1616  6831.28  83.0248
 53.2036  6892.25  83.3512
 53.2456  6902.2  83.5189
 53.2876  6806.38  82.6277
 53.3296  6931.43  83.7109
 53.3716  6999.49  83.8742
 53.4136  6911.85  83.4974
 53.4556  6821.63  82.976
 53.4976  6840.75  82.9303
 53.5396  6788.32  83.0116
 53.5816  6926.92  83.4877
 53.6236  6776.3  82.9265
 53.6656  6879.82  83.1424
 53.7076  6915.07  83.3287
 53.7496  6829.41  82.9353
 53.7916  6767.5  82.7004
 53.8336  6916.18  83.4993
 53.8756  6786.3  83.2608
 53.9176  6829.64  82.8571
 53.9596  6581.99  82.1095
 54.0016  6593.54  81.4988
 54.0436  6540.06  81.3991
 54.0856  6641.21  81.4343
 54.1276  6614.97  81.4804
 54.1696  6568.04  81.3612
 54.2116  6761.37  82.298
 54.2536  6598.03  81.1015
 54.2956  6575.71  81.0234
 54.3376  6494.09  80.9837
 54.3796  6463.7  80.701
 54.4216  6533.41  81.202
 54.4636  6494.85  80.9221
 54.5056  6601.65  81.3772
 54.5476  6431.94  80.6791
 54.5896  6530.58  81.1303
 54.6316  6552.11  81.1008
 54.6736  6486.55  80.7909
 54.7156  6566.74  81.31
 54.7576  6454.83  80.5815
 54.7996  6567.62  81.448
 54.8416  6522.29  81.2104
 54.8836  6509.38  81.2164
 54.9256  6467.93  80.7381
 54.9676  6529.07  80.9677
 55.0096  6515.72  80.9089
 55.0516  6402.2  80.4677
 55.0936  6479.32  80.599
 55.1356  6434.61  80.3537
 55.1776  6548.41  81.3056
 55.2196  6434.92  80.3983
 55.2616  6579.86  81.5158
 55.3036  6459.24  80.9326
 55.3456  6331.58  80.2716
 55.3876  6476.98  80.9094
 55.4296  6321.84  79.9376
 55.4716  6523.9  81.238
 55.5136  6470.98  80.6696
 55.5556  6541.32  81.1393
 55.5976  6354.73  80.0698
 55.6396  6508.08  80.9889
 55.6816  6365.67  79.9521
 55.7236  6314.94  79.6896
 55.7656  6365  79.7379
 55.8076  6327.32  79.4938
 55.8496  6358.33  80.0161
 55.8916  6323.03  79.9899
 55.9336  6489.32  80.8733
 55.9756  6367.22  79.9919
 56.0176  6311.66  79.7765
 56.0596  6441.24  80.5891
 56.1016  6254.41  79.4168
 56.1436  6297.24  79.9549
 56.1856  6212.57  79.162
 56.2276  6420.31  80.5238
 56.2696  6317.09  79.8415
 56.3116  6493.8  81.3337
 56.3536  6300.98  79.7912
 56.3956  6190.97  79.0779
 56.4376  6281.25  79.7079
 56.4796  6238.93  79.2397
 56.5216  6345.47  80.297
 56.5636  6183.31  78.8249
 56.6056  6364.76  80.2149
 56.6476  6192.83  78.7546
 56.6896  6444.87  80.8083
 56.7316  6243.69  79.4353
 56.7736  6292.68  79.7465
 56.8156  6320.11  79.9311
 56.8576  6125.64  78.6449
 56.8996  6227.49  79.1964
 56.9416  6222.58  79.4828
 56.9836  6395.66  80.1033
 57.0256  6178.6  79.0406
 57.0676  6342.28  80.1991
 57.1096  6226.08  79.2476
 57.1516  6120.11  78.6114
 57.1936  6233.84  79.0969
 57.2356  6119.66  78.7109
 57.2776  6267.41  79.596
 57.3196  6215.42  79.6389
 57.3616  6178.17  78.8826
 57.4036  6178.08  78.9439
 57.4456  6321.29  79.8408
 57.4876  6189.68  78.87
 57.5296  6179.42  79.1306
 57.5716  6141.46  78.8812
 57.6136  6066.56  78.2475
 57.6556  6138.84  78.8347
 57.6976  6189.88  78.9963
 57.7396  6160.09  79.1356
 57.7816  5968.5  78.272
 57.8236  6183.86  79.4711
 57.8656  6115.76  78.6902
 57.9076  6207.61  79.2958
 57.9496  6093.39  78.9277
 57.9916  6118.17  78.6018
 58.0336  6090.86  78.6952
 58.0756  6154.34  78.7489
 58.1176  6115.1  78.4828
 58.1596  6037.7  78.5647
 58.2016  5962.23  77.3051
 58.2436  5944.14  77.5911
 58.2856  5895.02  77.1919
 58.3276  5869.15  77.3901
 58.3696  5834.24  76.9157
 58.4116  5919.17  77.3389
 58.4536  5938.02  77.3502
 58.4956  5881.48  77.1584
 58.5376  5958.45  77.2363
 58.5796  5815.69  76.7213
 58.6216  5915.4  77.1974
 58.6636  5907.93  77.3574
 58.7056  5824.81  76.6687
 58.7476  5843.94  77.2331
 58.7896  5731.26  76.1383
 58.8316  5810.62  76.6564
 58.8736  5874.71  77.092
 58.9156  5889.12  77.2224
 58.9576  5878.93  77.476
 58.9996  5840.28  76.4846
 59.0416  5856.89  76.9486
 59.0836  5864.67  76.9183
 59.1256  5700.43  76.5179
 59.1676  5832.95  77.7043
 59.2096  5712.47  76.2279
 59.2516  5869.38  76.8548
 59.2936  5845.91  77.0237
 59.3356  5866.18  77.0367
 59.3776  5802.53  76.7832
 59.4196  5698.71  76.0309
 59.4616  5807.17  76.6138
 59.5036  5764.34  76.3655
 59.5456  6088.7  78.1766
 59.5876  6011.36  77.8691
 59.6296  5701.96  75.906
 59.6716  5907.86  77.3216
 59.7136  5724.86  76.1033
 59.7556  5741.36  76.3459
 59.7976  5743.67  76.1098
 59.8396  5830.82  76.5812
 59.8816  5666.6  76.023
 59.9236  5915.38  77.3216
 59.9656  5841.75  77.0938
 60.0076  5888.75  76.7702
 60.0496  5807.77  76.7344
 60.0916  5919.6  76.8938
 60.1336  5678.48  76.3851
 60.1756  5741.93  77.9653
 60.1996  0.0000000E+00  0.0000000E+00