File: docs/examples/opeando_xrd/IS17_D/Data/IS17_D/17_Db_f00069.xye
# /beamlines/bl04/projects/cycle2025-II/20250340211-lsimonelli/DATA/IS17_D/17_Db_f00069.xye : mythproc.py merge -s 0.006 -l 0.5 -f /beamlines/bl04/inhouse/ff/FlatField/ff_20Nov2024rod8mm60s_17keV.raw -b True -c true -o xye /beamlines/bl04/projects/cycle2025-II/20250340211-lsimonelli/DATA/IS17_D/17_Db_00069.dat
# IsMon = [6746192, 6748747, 6746336]  IsPos = [-1.4999, -2.4884, -3.4988]
# Wave = 0.4962  CalPath /beamlines/bl04/projects/cycle2025-II/20250340211-lsimonelli/DATA/Align/Si_Pos1_25keV_f00001.cal
# Date = 2025-09-24_12:54:38 Dt = 4.8000  Bin = 0.0060  <imon> = 6747092 +/- 1172 (Min/Max) 6746192 / 6748747
# icurr 249.0265  mocoIn 1.6998E-05  mocoOut 0.7976  i15 7.06742e+06  imon 6.74709e+06  i7 6.0000  iEMpd_timer 4.8000  iEMpd_1 3.2401E-08  iEMpd_2 7.7941E-08  iEMpd_3 1.5348E-08  iEMpd_4 4.7907E-08  iEMhp_timer 4.8000  iEMhp_1 4.8673E-06  iEMhp_2 -2.4605E-08  iEMhp_3 -2.3995E-08  iEMhp_4 -2.2283E-08
#      9776
 1.5856  42795.8  212.438
 1.6276  48946.8  223.294
 1.6696  54961.2  235.781
 1.7116  62032.3  250.98
 1.7536  70549  266.514
 1.7956  74435.9  274.441
 1.8376  70824.2  268.125
 1.8796  61426.3  247.865
 1.9216  50657.5  225.99
 1.9636  43238.5  207.932
 2.0056  38839.6  196.307
 2.0476  36468  192.304
 2.0896  35193.8  187.807
 2.1316  34586.4  185.284
 2.1736  32514.5  181.074
 2.2156  32824  180.474
 2.2576  31838.4  178.381
 2.2996  31009.7  176.69
 2.3416  31199.1  175.815
 2.3836  30573.5  174.15
 2.4256  29961.4  172.959
 2.4676  29330.2  170.885
 2.5096  29269.9  170.765
 2.5516  34178.6  188.742
 2.5936  127267  356.651
 2.6356  29955  173.884
 2.6776  27618  165.861
 2.7196  26775.3  163.808
 2.7616  26572.5  162.97
 2.8036  26069.2  161.583
 2.8456  26005.6  162.018
 2.8876  25424.4  160.055
 2.9296  25159  159.354
 2.9716  25025.5  158.42
 3.0136  24653.1  157.308
 3.0556  24577.4  157.448
 3.0976  24603.6  156.449
 3.1396  24252.3  156.065
 3.1816  23916.4  154.914
 3.2236  23874.1  154.762
 3.2656  23849.6  153.737
 3.3076  23518.9  154.115
 3.3496  23710.1  153.677
 3.3916  24307.4  155.432
 3.4336  24351.7  156.152
 3.4756  24914.6  157.884
 3.5176  25526.3  159.58
 3.5596  25268.6  161.196
 3.6016  25479.7  159.509
 3.6436  24485.8  157.453
 3.6856  24412.2  155.54
 3.7276  23396.7  153.337
 3.7696  23144.3  152.705
 3.8116  22805.1  151.469
 3.8536  22880.7  151.651
 3.8956  22841.7  151.343
 3.9376  23317.1  153.174
 3.9796  22855.2  151.144
 4.0216  22764.9  149.886
 4.0636  22616.7  150.84
 4.1056  22494.4  150.102
 4.1476  22993.4  152.067
 4.1896  23076  152.201
 4.2316  23142.9  152.257
 4.2736  23729.6  153.966
 4.3156  23737.8  154.225
 4.3576  24610.7  156.94
 4.3996  24819.7  157.869
 4.4416  25529.6  159.706
 4.4836  26525.5  162.946
 4.5256  26438.6  163.289
 4.5676  26160.6  162.683
 4.6096  26772.4  163.236
 4.6516  27258.6  164.393
 4.6936  27094.2  164.738
 4.7356  28102.7  167.597
 4.7776  27398  165.309
 4.8196  26914.2  164.484
 4.8616  26485.2  162.659
 4.9036  26346.4  161.978
 4.9456  26387.2  162.747
 4.9876  25877.5  161.069
 5.0296  25668.9  160.26
 5.0716  25311.4  159.884
 5.1136  25555.6  160.374
 5.1556  25948  161.064
 5.1976  33238.8  182.269
 5.2396  26767.9  163.276
 5.2816  26796.6  163.836
 5.3236  26561.3  162.811
 5.3656  25998.7  161.999
 5.4076  25877.4  161.754
 5.4496  25790  160.988
 5.4916  25926.8  161.166
 5.5336  25942.5  161.226
 5.5756  25875.3  161.033
 5.6176  26136.6  161.288
 5.6596  26535  163.492
 5.7016  26320.6  162.108
 5.7436  26417.4  162.679
 5.7856  26470.8  162.907
 5.8276  26590.6  162.991
 5.8696  26625.6  163.27
 5.9116  26819.8  164.457
 5.9536  27105.9  165.075
 5.9956  27299.5  165.062
 6.0376  27262.8  165.566
 6.0796  27581.5  166.354
 6.1216  27316.8  165.757
 6.1636  27594.7  165.668
 6.2056  27641  166.474
 6.2476  27905.8  167.144
 6.2896  28156.4  167.572
 6.3316  27907.3  166.999
 6.3736  28002.9  167.183
 6.4156  28337.3  168.071
 6.4576  28474.2  168.096
 6.4996  28366.7  168.247
 6.5416  28408.1  168.498
 6.5836  28898.9  170.185
 6.6256  28628.2  168.952
 6.6676  29162.5  170.086
 6.7096  29274.3  171.27
 6.7516  29398.7  171.29
 6.7936  30321.4  173.366
 6.8356  30762.6  174.713
 6.8776  30173  173.833
 6.9196  30223.9  174.377
 6.9616  30526.6  174.689
 7.0036  30988.4  175.669
 7.0456  31068.6  175.2
 7.0876  30745.2  175.948
 7.1296  30907  175.556
 7.1716  30800.5  174.801
 7.2136  30560.3  173.891
 7.2556  30721.7  174.506
 7.2976  30948.7  175.644
 7.3396  30779.4  175.377
 7.3816  31024.5  176.291
 7.4236  30903.3  175.25
 7.4656  31205.9  175.588
 7.5076  31520.2  176.603
 7.5496  31093.5  175.94
 7.5916  31406.6  176.867
 7.6336  32229.2  179.052
 7.6756  31752.5  177.571
 7.7176  32507.1  179.992
 7.7596  32374.2  180.837
 7.8016  37378.3  196.687
 7.8436  32703.3  180.657
 7.8856  32830.5  180.622
 7.9276  33333.3  182.398
 7.9696  33416.2  182.921
 8.0116  34747.4  185.088
 8.0536  35202.6  186.543
 8.0956  36644.4  191.52
 8.1376  35137  187.021
 8.1796  35271.1  187.895
 8.2216  36380.9  189.591
 8.2636  37058.3  191.599
 8.3056  36357.2  190.544
 8.3476  38162.9  194.536
 8.3896  37396.3  192.648
 8.4316  36738.3  191.112
 8.4736  36680  190.435
 8.5156  36469.2  190.164
 8.5576  36383.2  190.894
 8.5996  36166.6  189.221
 8.6416  36121.7  190.342
 8.6836  35886.5  189.566
 8.7256  36608.6  190.904
 8.7676  38698.7  199.285
 8.8096  39449.5  198.422
 8.8516  37073.7  191.914
 8.8936  38491.4  195.512
 8.9356  36704.6  191.249
 8.9776  36595.9  191.051
 9.0196  36408.9  190.234
 9.0616  36315.7  189.49
 9.1036  38215.1  195.58
 9.1456  35784.2  188.591
 9.1876  35711.6  188.352
 9.2296  35145.4  186.293
 9.2716  34786  185.385
 9.3136  34931.3  185.763
 9.3556  35274.5  186.651
 9.3976  34316.6  184.603
 9.4396  34288.2  184.439
 9.4816  34045  183.637
 9.5236  33854.4  183.019
 9.5656  33625.8  182.758
 9.6076  32803.1  181.026
 9.6496  33332  182.365
 9.6916  32608.2  180.33
 9.7336  32958.8  181.079
 9.7756  32804.5  181.905
 9.8176  32662.4  181.018
 9.8596  32634.5  179.378
 9.9016  32111.6  177.925
 9.9436  32122.4  177.888
 9.9856  32366.7  178.83
 10.0276  31300.8  176.93
 10.0696  31521.4  176.591
 10.1116  30817.1  174.862
 10.1536  30400.9  173.823
 10.1956  30305.7  173.18
 10.2376  30240  172.513
 10.2796  30011.2  171.956
 10.3216  29533.1  170.874
 10.3636  29635.5  171.194
 10.4056  31827  177.822
 10.4476  32297.8  178.728
 10.4896  35554.2  186.918
 10.5316  32451.7  179.334
 10.5736  29295  170.809
 10.6156  29289.3  170.546
 10.6576  32646.8  178.527
 10.6996  28970.2  168.885
 10.7416  28035.2  166.353
 10.7836  28597.2  168.686
 10.8256  26990.1  164.311
 10.8676  27125.4  164.262
 10.9096  27033.4  164.032
 10.9516  26763.7  162.149
 10.9936  27518.4  164.631
 11.0356  27219.8  164.348
 11.0776  28158  166.473
 11.1196  27910.9  166.518
 11.1616  26187.1  160.962
 11.2036  27369.6  164.415
 11.2456  28396.5  168.202
 11.2876  26041.5  160.808
 11.3296  25844.5  160.11
 11.3716  26519  161.873
 11.4136  26412  162.436
 11.4556  26407.1  162.085
 11.4976  27617  164.718
 11.5396  27352.5  164.094
 11.5816  25586.3  159.15
 11.6236  25121.4  157.918
 11.6656  25417.4  158.016
 11.7076  24709.9  156.615
 11.7496  24928.7  161.287
 11.7916  25418.3  158.078
 11.8336  24311  155.497
 11.8756  24666.9  156.18
 11.9176  24410.6  155.038
 11.9596  24325.4  154.938
 12.0016  23968.3  154.561
 12.0436  24085.5  154.395
 12.0856  23675.4  153.568
 12.1276  23866.5  154.139
 12.1696  23841.7  153.18
 12.2116  24044.6  153.827
 12.2536  26021.6  160.879
 12.2956  23912.9  153.566
 12.3376  23980.9  153.994
 12.3796  23817.2  153.947
 12.4216  23908.3  153.444
 12.4636  24776.1  157.148
 12.5056  23413.5  152.043
 12.5476  23669.7  152.393
 12.5896  23191.1  151.474
 12.6316  23384.7  152.253
 12.6736  23238.8  152.264
 12.7156  23618  153.341
 12.7576  23490.4  153.175
 12.7996  23707.3  152.527
 12.8416  23600.7  153.243
 12.8836  24371.8  155.547
 12.9256  24084.5  153.662
 12.9676  23811.7  153.187
 13.0096  24055.8  155.089
 13.0516  24067.8  154.16
 13.0936  24292.6  155.287
 13.1356  24193.6  153.934
 13.1776  24012  154.369
 13.2196  23882.2  153.598
 13.2616  23571.7  152.906
 13.3036  23759.4  153.477
 13.3456  23719.7  153.691
 13.3876  24258.1  154.702
 13.4296  23982.6  153.983
 13.4716  24176.6  154.238
 13.5136  24021.8  153.873
 13.5556  24111.2  154.778
 13.5976  23944  154.418
 13.6396  24277.1  154.846
 13.6816  24233.5  155.184
 13.7236  24737.7  156.368
 13.7656  26185.7  161.332
 13.8076  27515  164.008
 13.8496  26416.8  161.375
 13.8916  24391.7  156.204
 13.9336  23577.5  152.845
 13.9756  23755.4  152.811
 14.0176  23355.9  152.189
 14.0596  24350.4  155.307
 14.1016  23354.1  152.531
 14.1436  23120.5  150.917
 14.1856  22958.8  150.676
 14.2276  22857.8  150.822
 14.2696  23040  151.274
 14.3116  22134.8  148.18
 14.3536  22006  147.917
 14.3956  21894.7  147.264
 14.4376  22055.6  147.597
 14.4796  21841.5  146.875
 14.5216  21623.9  146.922
 14.5636  22100.8  148.104
 14.6056  21771  146.556
 14.6476  21457.3  144.75
 14.6896  21231.7  144.527
 14.7316  20661.6  143.588
 14.7736  20667.7  142.755
 14.8156  20632.9  142.667
 14.8576  20576.7  142.331
 14.8996  20316.8  142.608
 14.9416  19838.3  140.945
 14.9836  19896.7  141.13
 15.0256  19318.7  137.991
 15.0676  19216.7  137.93
 15.1096  19163.7  137.486
 15.1516  18855.6  136.915
 15.1936  18814.3  136.209
 15.2356  18514.7  135.393
 15.2776  18732.8  135.784
 15.3196  18449.3  135.732
 15.3616  18026.7  133.936
 15.4036  18018.8  133.763
 15.4456  18606.2  135.581
 15.4876  18023.2  133.129
 15.5296  17963.1  133.184
 15.5716  17417.8  130.765
 15.6136  17465.5  131.257
 15.6556  19396.1  137.543
 15.6976  17881.4  132.355
 15.7396  17657.1  131.913
 15.7816  17688.4  131.539
 15.8236  17155.8  130.233
 15.8656  17120.7  129.892
 15.9076  17088.9  129.594
 15.9496  18291.8  136.934
 15.9916  17218.5  133.256
 16.0336  17462.5  131.093
 16.0756  17325.1  130.895
 16.1176  17020.8  129.817
 16.1596  16512.7  129.026
 16.2016  16629.3  128.255
 16.2436  16608.7  128.539
 16.2856  16756.4  128.623
 16.3276  16192  126.88
 16.3696  16306.2  127.159
 16.4116  16329.7  127.673
 16.4536  16460.3  128.002
 16.4956  17255.4  130.787
 16.5376  16653.6  128.677
 16.5796  16357.1  126.89
 16.6216  16258.8  126.774
 16.6636  16092.1  126.313
 16.7056  16091.2  126.166
 16.7476  16282.3  126.45
 16.7896  16226.1  126.982
 16.8316  15990.4  126.028
 16.8736  16497.6  128.266
 16.9156  16248.6  127.622
 16.9576  15842.7  126.792
 16.9996  16037.3  128.035
 17.0416  15909.7  125.925
 17.0836  15880.9  125.577
 17.1256  15716.2  124.932
 17.1676  16419.9  127.668
 17.2096  16086.5  126.245
 17.2516  15714.1  124.574
 17.2936  15410.3  123.706
 17.3356  15216.8  122.911
 17.3776  15200.4  123.034
 17.4196  15096.8  122.313
 17.4616  15510.9  123.892
 17.5036  15753.7  125.219
 17.5456  14906.9  122.437
 17.5876  14977.3  121.782
 17.6296  14993.1  121.683
 17.6716  15051.4  122.495
 17.7136  15877.1  125.944
 17.7556  14739  121.633
 17.7976  15143.3  123.029
 17.8396  14807.7  121.164
 17.8816  14522.2  120.54
 17.9236  14635.5  120.803
 17.9656  14752.4  121.811
 18.0076  15173.5  123.125
 18.0496  15704.5  124.372
 18.0916  18904.7  137.084
 18.1336  17352.3  131.434
 18.1756  15572.3  124.046
 18.2176  15532.8  124.11
 18.2596  14655.3  120.274
 18.3016  15216  122.826
 18.3436  15578.4  124.275
 18.3856  14875.4  121.579
 18.4276  14506.7  119.744
 18.4696  14555.2  120.032
 18.5116  14697.2  120.896
 18.5536  14349.6  119.823
 18.5956  14413.9  119.643
 18.6376  14456.1  120.225
 18.6796  14389  119.254
 18.7216  14366.4  119.657
 18.7636  14139.1  118.711
 18.8056  13854.1  117.424
 18.8476  13541.9  116.721
 18.8896  13770.4  117.042
 18.9316  14005  118.014
 18.9736  13864.2  117.119
 19.0156  14219.7  119.035
 19.0576  14375.9  118.528
 19.0996  14036.5  117.836
 19.1416  14044.4  118.258
 19.1836  13657.2  116.227
 19.2256  13551.5  115.995
 19.2676  13742.7  116.894
 19.3096  13587.8  116.476
 19.3516  13605.8  116.512
 19.3936  13902.1  117.665
 19.4356  13937.7  117.701
 19.4776  13662.1  116.617
 19.5196  13626.6  116.326
 19.5616  13710.7  116.937
 19.6036  13643  116.156
 19.6456  13880.4  117.277
 19.6876  14158.9  118.072
 19.7296  13881.9  117.385
 19.7716  13591.8  116.314
 19.8136  14163  118.936
 19.8556  14379.6  119.319
 19.8976  14564.4  120.13
 19.9396  14435.4  119.192
 19.9816  14375.3  119.195
 20.0236  14540.4  120.078
 20.0656  13753.1  116.773
 20.1076  13565.9  116.447
 20.1496  13443.8  115.911
 20.1916  13712.6  116.597
 20.2336  13653.5  116.265
 20.2756  13184  114.666
 20.3176  13212.4  114.547
 20.3596  13222.8  114.58
 20.4016  13216.2  114.353
 20.4436  13062.6  114.236
 20.4856  13111.9  114.252
 20.5276  13028.5  114.332
 20.5696  13261.3  114.808
 20.6116  13117.9  114.458
 20.6536  13031.7  113.606
 20.6956  12974.7  113.485
 20.7376  12834  113.076
 20.7796  12898.9  113.056
 20.8216  13122.6  113.746
 20.8636  13239.5  114.632
 20.9056  13850.3  117.173
 20.9476  13182.3  114.169
 20.9896  13841.7  116.846
 21.0316  12989.2  113.093
 21.0736  13173.6  114.414
 21.1156  13366.7  115.406
 21.1576  13040  114.035
 21.1996  12823.7  113.064
 21.2416  12827  112.909
 21.2836  12992.2  113.608
 21.3256  12879.4  113.188
 21.3676  12813.2  112.432
 21.4096  13051  113.796
 21.4516  12752.1  112.36
 21.4936  12446.2  111.262
 21.5356  12702.4  112.353
 21.5776  12868.7  112.914
 21.6196  12798.4  112.649
 21.6616  12819.8  112.824
 21.7036  12768  112.368
 21.7456  12518.1  111.343
 21.7876  12428.1  110.706
 21.8296  12331.3  110.125
 21.8716  12466.1  110.952
 21.9136  12611.5  111.793
 21.9556  12786.3  112.24
 21.9976  12431.2  110.694
 22.0396  12445.1  111.012
 22.0816  12400.9  111.333
 22.1236  12802.6  112.581
 22.1656  12615.3  111.902
 22.2076  12274.8  109.84
 22.2496  12276  109.87
 22.2916  12159.5  109.241
 22.3336  12430.9  111.164
 22.3756  12209.6  109.899
 22.4176  12187.1  109.656
 22.4596  11991.6  109.352
 22.5016  12195.7  109.786
 22.5436  12332.2  110.277
 22.5856  12336.5  110.535
 22.6276  12414.2  111.01
 22.6696  12319.8  110.947
 22.7116  12163.1  109.754
 22.7536  12180.1  109.81
 22.7956  12153.6  109.031
 22.8376  11987.3  108.791
 22.8796  12221.6  109.656
 22.9216  12157.7  109.911
 22.9636  12103.4  108.825
 23.0056  12108.5  108.977
 23.0476  12266.3  110.253
 23.0896  12399.3  110.235
 23.1316  12416.4  110.745
 23.1736  12214  112.744
 23.2156  12403.1  111.023
 23.2576  12517.3  111.656
 23.2996  12175.5  109.908
 23.3416  12428.6  111.566
 23.3836  12409.6  110.705
 23.4256  12691.4  112.085
 23.4676  12538.7  111.103
 23.5096  12477.4  111.485
 23.5516  12330.4  110.136
 23.5936  12424.3  111.462
 23.6356  12708.4  112.392
 23.6776  12297.3  110.768
 23.7196  12267.6  110.215
 23.7616  12383.4  110.65
 23.8036  12435.8  110.938
 23.8456  12167.9  109.29
 23.8876  12332.6  110.382
 23.9296  12063.6  109.661
 23.9716  12259.4  109.754
 24.0136  12209.8  110.427
 24.0556  12085  109.576
 24.0976  12069.6  109.331
 24.1396  11909.7  111.181
 24.1816  12166.1  110.794
 24.2236  12100.3  110.114
 24.2656  12075.5  109.484
 24.3076  12030.3  109.545
 24.3496  12006.9  109.312
 24.3916  12091.2  109.752
 24.4336  12053.9  109.773
 24.4756  11962.7  109.255
 24.5176  11731.1  107.824
 24.5596  11670.2  107.652
 24.6016  11702.7  108.108
 24.6436  11837.3  108.236
 24.6856  11620.9  106.99
 24.7276  11675.5  107.559
 24.7696  11739.4  107.951
 24.8116  11690.7  107.919
 24.8536  11619.6  107.59
 24.8956  11511  106.818
 24.9376  11584.6  107.082
 24.9796  11415.2  106.666
 25.0216  11352.8  106.491
 25.0636  11501.3  106.825
 25.1056  11191.2  106.082
 25.1476  11159.3  107.579
 25.1896  11234.1  106.427
 25.2316  11263.9  105.85
 25.2736  11069.7  104.582
 25.3156  10956  104.119
 25.3576  11013.4  104.822
 25.3996  11095.1  105.2
 25.4416  10950.4  104.478
 25.4836  10862.7  104.577
 25.5256  10998.3  104.587
 25.5676  11079.7  104.702
 25.6096  10766.3  103.79
 25.6516  10978.6  104.31
 25.6936  10981.2  104.64
 25.7356  10799.9  103.905
 25.7776  10988.3  104.405
 25.8196  10835.9  103.921
 25.8616  10814.4  103.747
 25.9036  11053.7  104.34
 25.9456  10810.5  103.775
 25.9876  10748.9  103.55
 26.0296  10906.6  103.815
 26.0716  10898  104.205
 26.1136  10990  104.576
 26.1556  11017.3  104.091
 26.1976  10705.8  103.528
 26.2396  10815.7  103.219
 26.2816  10739.1  103.451
 26.3236  10859.5  104.177
 26.3656  10941.3  104.3
 26.4076  10761.6  103.644
 26.4496  10872.6  103.781
 26.4916  10907.4  103.841
 26.5336  11369.5  106.356
 26.5756  11514.7  106.914
 26.6176  11009.9  104.569
 26.6596  10827.7  104.006
 26.7016  10653.2  102.922
 26.7436  10619.8  102.896
 26.7856  10453.7  102.065
 26.8276  10458.7  102.064
 26.8696  10428.6  101.788
 26.9116  10577.1  102.451
 26.9536  10360.7  101.44
 26.9956  10264.1  101.003
 27.0376  10483.1  102.293
 27.0796  10431.5  101.763
 27.1216  10533.3  102.326
 27.1636  10261.6  101.167
 27.2056  10464.6  102.043
 27.2476  10284.8  101.168
 27.2896  10141.5  100.565
 27.3316  10297.9  101.053
 27.3736  9997.56  99.8371
 27.4156  10251.4  100.932
 27.4576  10372.9  101.751
 27.4996  10385.1  101.423
 27.5416  10212.7  100.881
 27.5836  10138.5  100.352
 27.6256  10327.1  101.463
 27.6676  10170.1  100.68
 27.7096  10279.3  101.095
 27.7516  10606.5  102.844
 27.7936  10872  104.274
 27.8356  10544.1  102.3
 27.8776  10498.2  102.131
 27.9196  10236.1  100.714
 27.9616  10357.1  101.503
 28.0036  10148.4  100.442
 28.0456  10024.9  99.9659
 28.0876  10058.5  100.22
 28.1296  10027  99.8938
 28.1716  10186.7  100.709
 28.2136  9979.83  99.644
 28.2556  9995.49  99.8387
 28.2976  9892.76  99.3198
 28.3396  9930.29  99.264
 28.3816  9983.65  99.533
 28.4236  9983.93  99.6894
 28.4656  9736.22  98.4942
 28.5076  9681.32  97.8589
 28.5496  9785.39  98.6399
 28.5916  9776.47  98.4069
 28.6336  9791.26  98.8245
 28.6756  9849.26  98.3171
 28.7176  9733.7  98.2862
 28.7596  9584.14  97.4214
 28.8016  9636.78  97.7259
 28.8436  9582.69  97.6892
 28.8856  9782.1  98.5532
 28.9276  9746.37  98.6163
 28.9696  9605.61  97.5558
 29.0116  9598.27  97.7058
 29.0536  9373.64  96.7528
 29.0956  9628.65  97.7756
 29.1376  9724.57  98.2251
 29.1796  9590.44  97.596
 29.2216  9513.5  97.05
 29.2636  9546.61  97.2883
 29.3056  9526.35  96.9714
 29.3476  9502.96  97.374
 29.3896  9617.18  98.0757
 29.4316  9396.92  96.2822
 29.4736  9335.28  96.0312
 29.5156  9565.4  97.1274
 29.5576  9358.11  96.7904
 29.5996  9358.66  96.0688
 29.6416  9332.16  96.0468
 29.6836  9375.56  96.2016
 29.7256  9374.95  96.7561
 29.7676  9392.52  96.5153
 29.8096  9266.26  95.805
 29.8516  9061.93  95.07
 29.8936  9171.17  95.7296
 29.9356  9256.33  95.9318
 29.9776  9209.98  95.8393
 30.0196  9363.12  96.0293
 30.0616  9401.59  96.5977
 30.1036  9258.15  95.6834
 30.1456  9253.39  95.8944
 30.1876  9174.35  95.4578
 30.2296  9177.83  95.4296
 30.2716  9253.38  95.4617
 30.3136  9143.01  95.7325
 30.3556  9432.68  97.2409
 30.3976  9385.79  98.5023
 30.4396  9697.37  97.4485
 30.4816  9540.28  96.2643
 30.5236  9516.72  96.1532
 30.5656  9339.04  95.9019
 30.6076  9532.75  96.2954
 30.6496  9350.95  95.78
 30.6916  9192.15  95.056
 30.7336  9368.37  96.0863
 30.7756  9313.39  95.9018
 30.8176  9347.93  96.0139
 30.8596  9361.14  95.8188
 30.9016  9302.01  95.8886
 30.9436  9350.64  95.8799
 30.9856  9518.37  96.8436
 31.0276  9287  95.303
 31.0696  9183.51  95.3252
 31.1116  9166.11  95.1825
 31.1536  9236.76  95.4376
 31.1956  9271.48  95.7082
 31.2376  8943.06  94.0309
 31.2796  9224.08  95.0337
 31.3216  9133.42  94.5008
 31.3636  9103.19  95.031
 31.4056  9193.22  96.8034
 31.4476  9261.09  95.0589
 31.4896  9308.4  95.8046
 31.5316  9315.01  95.2404
 31.5736  9833.34  97.6825
 31.6156  9640.7  96.7261
 31.6576  9514.84  96.1628
 31.6996  9443.91  95.4589
 31.7416  9142.13  95.0235
 31.7836  9382.13  95.2605
 31.8256  9301.2  95.1056
 31.8676  9403.67  95.6339
 31.9096  9130.42  94.5892
 31.9516  9046.08  94.326
 31.9936  9024.27  94.032
 32.0356  9177.64  94.8786
 32.0776  9257.66  95.1777
 32.1196  8943.36  93.6612
 32.1616  9192.47  94.4036
 32.2036  9244.03  95.1838
 32.2456  9136.4  95.0084
 32.2876  9179.36  94.7239
 32.3296  8945.46  93.4713
 32.3716  8843.98  93.0582
 32.4136  8917.46  93.6507
 32.4556  9048.47  93.7113
 32.4976  8945.59  93.0994
 32.5396  8925.69  93.0577
 32.5816  8899.36  93.0416
 32.6236  8904.94  93.1362
 32.6656  8979.28  94.0686
 32.7076  8774.46  92.6437
 32.7496  8809.27  92.5068
 32.7916  8842.7  92.6398
 32.8336  8949.57  93.2915
 32.8756  8925.13  92.8882
 32.9176  8862.31  93.0445
 32.9596  8917.04  93.4025
 33.0016  8856.72  92.8709
 33.0436  8882.2  93.1641
 33.0856  8864.78  93.1697
 33.1276  8749.25  92.2887
 33.1696  8848.84  92.6408
 33.2116  8811.65  92.6845
 33.2536  8904.91  93.1632
 33.2956  8733.05  92.338
 33.3376  8734.04  92.0939
 33.3796  8746.46  92.3781
 33.4216  8808.27  92.296
 33.4636  8764.46  92.2171
 33.5056  8619.73  91.6891
 33.5476  8791.93  92.5826
 33.5896  8739.09  92.0992
 33.6316  8650.51  91.94
 33.6736  8447.99  91.0975
 33.7156  8658.15  92.2515
 33.7576  8740.96  92.3378
 33.7996  8686.51  91.815
 33.8416  8537.35  91.2054
 33.8836  8593.88  91.2852
 33.9256  8766.41  92.2548
 33.9676  8725.99  91.9385
 34.0096  8626.47  91.7238
 34.0516  8545.57  90.925
 34.0936  8569.54  91.3327
 34.1356  8689.31  91.7088
 34.1776  8494.48  90.6673
 34.2196  8436.97  90.5497
 34.2616  8450.74  90.7523
 34.3036  8487.82  91.1925
 34.3456  8466.44  90.8373
 34.3876  8599.2  91.5211
 34.4296  8507.13  90.7149
 34.4716  8594.37  91.3304
 34.5136  8516.7  91.1173
 34.5556  8438.23  90.946
 34.5976  8607.15  91.6635
 34.6396  8446.5  90.5202
 34.6816  8496.41  90.8851
 34.7236  8495.13  90.6676
 34.7656  8510.18  90.9519
 34.8076  8482.2  91.1298
 34.8496  8400.86  90.5433
 34.8916  8394.78  90.3776
 34.9336  8529.68  91.0806
 34.9756  8540.49  91.0604
 35.0176  8502.91  91.3868
 35.0596  8505.44  91.2191
 35.1016  8526.9  91.0885
 35.1436  8599.72  91.1711
 35.1856  8388.66  90.1652
 35.2276  8401.78  90.4013
 35.2696  8442.02  90.8127
 35.3116  8366.17  90.5076
 35.3536  8428.65  90.5481
 35.3956  8332.45  89.7448
 35.4376  8465.73  91.0206
 35.4796  8397.42  90.702
 35.5216  8370.79  90.5167
 35.5636  8170.54  90.1546
 35.6056  8330.76  90.0732
 35.6476  8459.7  90.6616
 35.6896  8337.23  90.0959
 35.7316  8234  89.5101
 35.7736  8287.07  89.9766
 35.8156  8459.63  90.9233
 35.8576  8373.38  90.7029
 35.8996  8424.73  90.9504
 35.9416  8310.83  89.84
 35.9836  8298.46  90.1156
 36.0256  8511.48  91.2662
 36.0676  8468.45  90.7935
 36.1096  8304.27  90.0587
 36.1516  8434.93  90.6661
 36.1936  8341.02  89.983
 36.2356  8275.78  90.2857
 36.2776  8195.66  89.332
 36.3196  8347.81  89.8204
 36.3616  8279.84  89.59
 36.4036  8194.44  89.1958
 36.4456  8298.64  89.96
 36.4876  8121.1  88.9405
 36.5296  8219.83  89.5111
 36.5716  8206.11  90.2161
 36.6136  8199.03  88.9685
 36.6556  8171.6  89.0163
 36.6976  8080.61  89.008
 36.7396  8134.36  89.0391
 36.7816  8032.24  88.8503
 36.8236  8061.22  88.93
 36.8656  8014.12  88.7366
 36.9076  7904.45  88.0099
 36.9496  7938.32  88.1954
 36.9916  8007.51  88.2108
 37.0336  8050.65  88.7572
 37.0756  8028.53  88.4305
 37.1176  7746.49  87.1225
 37.1596  7875.61  87.8546
 37.2016  7826.35  87.8006
 37.2436  7964.41  87.8973
 37.2856  7906.24  87.8178
 37.3276  8049.2  87.9763
 37.3696  7833.6  87.6533
 37.4116  7985.58  88.4126
 37.4536  7765.72  87.0516
 37.4956  7829.6  87.4564
 37.5376  8065.77  90.3486
 37.5796  8012.92  89.9772
 37.6216  7867.28  87.4539
 37.6636  8097.26  88.6145
 37.7056  8075.83  88.6816
 37.7476  8087.53  88.2941
 37.7896  7932.23  87.9414
 37.8316  7994.9  88.4344
 37.8736  7981.36  87.9036
 37.9156  7949.95  87.7131
 37.9576  8035.48  88.1045
 37.9996  7879.89  86.9647
 38.0416  7864.81  87.6794
 38.0836  8139.47  89.0963
 38.1256  7926.56  87.8994
 38.1676  7843.76  87.556
 38.2096  8182.4  89.0381
 38.2516  7922.3  87.8294
 38.2936  8096.24  88.5807
 38.3356  7975.6  87.8535
 38.3776  7900.46  87.6868
 38.4196  7908.52  87.5879
 38.4616  7966.22  88.1539
 38.5036  8081.83  88.6337
 38.5456  7924.51  88.5848
 38.5876  7784.15  87.8188
 38.6296  7973.31  87.8445
 38.6716  7870.39  87.0859
 38.7136  7858.58  86.966
 38.7556  7845.28  87.3975
 38.7976  8037.47  88.3849
 38.8396  7751.45  87.2503
 38.8816  7779.86  87.2098
 38.9236  7706.52  86.5988
 38.9656  7923.34  87.7163
 39.0076  7948.35  87.2579
 39.0496  8008.38  88.1472
 39.0916  7862.67  86.9875
 39.1336  7890.98  87.553
 39.1756  7793.63  87.0777
 39.2176  7795.49  87.6083
 39.2596  7886.6  88.0437
 39.3016  7865.91  87.5162
 39.3436  7810.78  87.6112
 39.3856  7927.44  87.702
 39.4276  8020.05  88.7392
 39.4696  7894.87  87.6628
 39.5116  8021.21  88.8793
 39.5536  7944.34  88.877
 39.5956  7921.35  87.8527
 39.6376  7812.5  87.2528
 39.6796  7857.64  87.2355
 39.7216  7814.75  87.1097
 39.7636  7801.27  87.592
 39.8056  7920.73  88.0402
 39.8476  7697.97  87.0469
 39.8896  7888.67  87.7528
 39.9316  7807.12  87.5447
 39.9736  7838.01  87.2916
 40.0156  7719.67  86.4631
 40.0576  7776.39  87.1314
 40.0996  7841.44  86.6814
 40.1416  7895.5  87.7743
 40.1836  7915.01  87.7727
 40.2256  7796.45  87.1402
 40.2676  7838.16  87.4809
 40.3096  7886.2  87.6792
 40.3516  7923.47  87.9996
 40.3936  8005.13  88.0095
 40.4356  7723.67  86.6428
 40.4776  7933.6  88.2063
 40.5196  7916.91  88.2542
 40.5616  8024.85  88.4962
 40.6036  7803.78  87.5123
 40.6456  7786.29  87.0322
 40.6876  7961.5  87.9974
 40.7296  7904.27  87.8086
 40.7716  7884.5  87.8306
 40.8136  7768.05  87.1132
 40.8556  7899.8  87.9775
 40.8976  7914.89  88.002
 40.9396  7944.78  88.5132
 40.9816  7957.35  87.8746
 41.0236  7884.47  87.2511
 41.0656  8071.92  88.8252
 41.1076  7826.58  87.2368
 41.1496  7849.14  87.2661
 41.1916  7809.98  87.3654
 41.2336  7887.08  87.7991
 41.2756  7828.9  87.076
 41.3176  7932.45  88.2629
 41.3596  7957.61  88.1385
 41.4016  7817.65  87.6235
 41.4436  7940.79  88.0893
 41.4856  7822.72  87.5986
 41.5276  7939.52  88.2617
 41.5696  7810.01  87.1738
 41.6116  7979.47  88.5094
 41.6536  7871.88  87.7717
 41.6956  7933.07  88.1681
 41.7376  7705.28  86.9128
 41.7796  7713.81  86.8501
 41.8216  7829.64  87.7319
 41.8636  7801.17  87.5179
 41.9056  7800.26  87.3058
 41.9476  7844.63  87.7837
 41.9896  7961.26  88.1008
 42.0316  7928.34  88.0048
 42.0736  7977.25  88.3738
 42.1156  7838.67  87.4436
 42.1576  7861.74  87.6777
 42.1996  7942.98  88.2518
 42.2416  7851.88  87.3416
 42.2836  7851.48  87.4546
 42.3256  7751.32  87.0103
 42.3676  7922.72  87.7588
 42.4096  7891.73  87.5649
 42.4516  7983.77  88.1382
 42.4936  7745.32  86.8978
 42.5356  7691.51  86.7341
 42.5776  7780.43  87.1728
 42.6196  7790.01  87.277
 42.6616  7689.07  86.8825
 42.7036  7880.93  87.3368
 42.7456  7815.4  87.3288
 42.7876  7834.4  87.526
 42.8296  7776.41  87.0486
 42.8716  7688.64  86.7116
 42.9136  7768.35  86.95
 42.9556  7771.2  87.1016
 42.9976  7757.86  86.9896
 43.0396  7716.22  86.4872
 43.0816  7759.28  87.1119
 43.1236  7735.8  87.0269
 43.1656  7737.25  86.8696
 43.2076  7688.81  86.7046
 43.2496  7764.92  86.951
 43.2916  7731.21  87.1205
 43.3336  7783.9  87.2515
 43.3756  7749.45  86.8031
 43.4176  7472.2  85.3254
 43.4596  7688.9  86.4079
 43.5016  7693.87  86.8465
 43.5436  7604.94  86.243
 43.5856  7562.89  86.0399
 43.6276  7682.66  86.603
 43.6696  7592.81  86.3565
 43.7116  7686.36  86.3771
 43.7536  7769.02  87.3407
 43.7956  7500.77  87.0245
 43.8376  7442.99  85.2225
 43.8796  7593.55  86.1621
 43.9216  7482.06  85.446
 43.9636  7481.92  85.5559
 44.0056  7623.22  86.5869
 44.0476  7477.09  85.3906
 44.0896  7375.58  85.1441
 44.1316  7632.22  86.1333
 44.1736  7467.34  85.3215
 44.2156  7654.09  86.2334
 44.2576  7422.04  85.2404
 44.2996  7552.53  85.9578
 44.3416  7569.29  85.82
 44.3836  7364.75  84.973
 44.4256  7264.53  84.0456
 44.4676  7329.51  84.5698
 44.5096  7387.52  85.0438
 44.5516  7354.35  84.8247
 44.5936  7288.52  84.3949
 44.6356  7316.51  84.299
 44.6776  7370.99  84.9223
 44.7196  7469.06  85.7993
 44.7616  7517.76  87.4008
 44.8036  7532.25  85.9159
 44.8456  7641.7  86.7445
 44.8876  7589.11  86.2879
 44.9296  7723.47  86.4759
 44.9716  7590.83  86.1716
 45.0136  7563.63  85.9451
 45.0556  7654.95  86.4535
 45.0976  7544.72  85.9803
 45.1396  7452.56  85.2266
 45.1816  7396.08  84.8326
 45.2236  7645.38  86.1586
 45.2656  7475.86  85.694
 45.3076  7579.22  86.0527
 45.3496  7443.82  85.603
 45.3916  7482.55  86.0913
 45.4336  7531.73  86.2182
 45.4756  7484.5  85.8011
 45.5176  7477.9  85.3769
 45.5596  7628.41  86.3591
 45.6016  7437.73  85.6901
 45.6436  7437.87  84.863
 45.6856  7457.34  85.6337
 45.7276  7355.98  86.365
 45.7696  7369.65  86.1178
 45.8116  7388.24  85.6543
 45.8536  7377.14  85.4865
 45.8956  7457.69  85.3036
 45.9376  7503.78  85.0331
 45.9796  7396.22  85.1001
 46.0216  7522.27  86.1634
 46.0636  7537.4  85.3912
 46.1056  7428.54  84.7628
 46.1476  7464.56  85.5539
 46.1896  7510.94  85.9764
 46.2316  7456.49  85.5313
 46.2736  7321.29  85.1249
 46.3156  7491.61  85.6923
 46.3576  7410.88  85.4238
 46.3996  7482.93  86.0067
 46.4416  7461.6  85.4559
 46.4836  7377.68  85.3284
 46.5256  7359.95  85.1648
 46.5676  7381.31  85.4083
 46.6096  7331.53  85.0515
 46.6516  7578.65  85.5037
 46.6936  7380.57  84.8737
 46.7356  7503.97  85.6767
 46.7776  7434.4  86.1344
 46.8196  7280.93  84.8397
 46.8616  7212.29  84.389
 46.9036  7258.05  84.3068
 46.9456  7297.43  84.1775
 46.9876  7447.17  85.1219
 47.0296  7411.09  85.6107
 47.0716  7321.63  84.9174
 47.1136  7324.78  84.609
 47.1556  7303.96  84.3588
 47.1976  7438.55  85.216
 47.2396  7284.72  84.7276
 47.2816  7257.75  84.2694
 47.3236  7353.61  85.1956
 47.3656  7458.3  85.7282
 47.4076  7285.72  84.5411
 47.4496  7326.01  84.8658
 47.4916  7292  84.8648
 47.5336  7368.13  85.1133
 47.5756  7431.3  85.5899
 47.6176  7215.24  84.2461
 47.6596  7162.92  83.6522
 47.7016  7420.16  84.9525
 47.7436  7325.25  84.7439
 47.7856  7352.38  84.9418
 47.8276  7314.01  84.7655
 47.8696  7362.83  85.1286
 47.9116  7338.41  84.6972
 47.9536  7315.35  84.5078
 47.9956  7289.6  85.0719
 48.0376  7287.7  84.8283
 48.0796  7338.87  85.2549
 48.1216  7347.95  85.126
 48.1636  7423.77  85.1322
 48.2056  7408.04  85.3124
 48.2476  7293.85  84.9653
 48.2896  7358.57  85.25
 48.3316  7276.15  84.7148
 48.3736  7283.73  84.7765
 48.4156  7290.84  84.6692
 48.4576  7267.28  84.8308
 48.4996  7470.85  85.4508
 48.5416  7412.81  85.4539
 48.5836  7348.39  84.7481
 48.6256  7434.81  85.4548
 48.6676  7298.92  85.195
 48.7096  7398.28  85.0164
 48.7516  7284.39  84.5224
 48.7936  7244.48  84.3543
 48.8356  7301.32  84.7352
 48.8776  7224.85  84.8652
 48.9196  7455.76  85.5636
 48.9616  7357.44  85.3916
 49.0036  7395.87  85.9628
 49.0456  7240.66  85.041
 49.0876  7346.13  85.186
 49.1296  7200.51  84.488
 49.1716  7109.12  83.8372
 49.2136  7372.38  85.28
 49.2556  7296.46  84.8889
 49.2976  7289.48  84.9157
 49.3396  7219.61  84.5627
 49.3816  7395.81  85.0054
 49.4236  7296.93  84.865
 49.4656  7196.46  84.3039
 49.5076  7241.87  84.3129
 49.5496  7303.6  84.7323
 49.5916  7248.52  84.3315
 49.6336  7156.76  83.9984
 49.6756  7350.67  85.3708
 49.7176  7203.6  84.4505
 49.7596  7220.25  84.3186
 49.8016  7331.25  84.8608
 49.8436  7251.95  84.7221
 49.8856  7256.97  84.7511
 49.9276  7151.54  84.233
 49.9696  7168.32  84.3187
 50.0116  7109.42  84.0972
 50.0536  7255.32  84.9128
 50.0956  7226.84  84.8108
 50.1376  7249.26  84.6355
 50.1796  7095.54  84.008
 50.2216  7151.51  84.3262
 50.2636  7155.85  83.971
 50.3056  7102.36  83.8313
 50.3476  7207.08  84.4717
 50.3896  7128.67  83.9805
 50.4316  7224.77  84.3741
 50.4736  7113.24  83.9481
 50.5156  7179.46  84.3233
 50.5576  7194.57  84.1675
 50.5996  7080.43  83.7842
 50.6416  7157.59  84.167
 50.6836  7234.88  84.6781
 50.7256  7181.96  84.2805
 50.7676  7226.78  84.8776
 50.8096  7166.74  84.0538
 50.8516  7041.84  83.7367
 50.8936  7074.13  83.7123
 50.9356  7246.55  84.8337
 50.9776  7137.07  84.3541
 51.0196  6922.88  83.1969
 51.0616  7116.43  83.6646
 51.1036  7033.24  83.54
 51.1456  7104.3  83.8678
 51.1876  7005.09  82.6074
 51.2296  6967.14  83.0338
 51.2716  6876.56  82.2016
 51.3136  6947.5  83.0847
 51.3556  6981.84  82.9017
 51.3976  6880.92  82.4433
 51.4396  6833  82.4796
 51.4816  6927.47  82.9024
 51.5236  6950.45  83.1203
 51.5656  7010.44  83.0756
 51.6076  7054.78  83.4135
 51.6496  6960.8  83.0613
 51.6916  6907.39  83.0959
 51.7336  6852.26  82.8628
 51.7756  6779.42  82.0963
 51.8176  6866.44  82.7489
 51.8596  6936.83  83.187
 51.9016  6924.58  82.7158
 51.9436  6992.87  84.63
 51.9856  7007.24  85.128
 52.0276  7021.84  83.7008
 52.0696  7103.2  84.252
 52.1116  6879.99  83.0421
 52.1536  7098.71  84.2347
 52.1956  6961.09  82.8701
 52.2376  7124.93  84.0132
 52.2796  6990.53  83.0364
 52.3216  6864.11  82.9583
 52.3636  6954.86  83.0805
 52.4056  7044.82  83.4806
 52.4476  6936.78  83.1994
 52.4896  6898.99  83.0275
 52.5316  6958.5  83.4198
 52.5736  6816.32  82.2893
 52.6156  7084.59  84.3053
 52.6576  6923.43  82.762
 52.6996  6877.1  83.486
 52.7416  6803.69  82.8976
 52.7836  6804.19  82.7882
 52.8256  6877.84  82.4403
 52.8676  6704.51  81.9678
 52.9096  6855.1  82.9488
 52.9516  6816.86  83.1103
 52.9936  6851.94  83.6989
 53.0356  6985.16  83.4901
 53.0776  6933.36  83.4542
 53.1196  6858.07  83.118
 53.1616  6976.24  83.8822
 53.2036  6863.69  83.171
 53.2456  6784.68  82.7979
 53.2876  6916.41  83.2861
 53.3296  6918.05  83.626
 53.3716  6939.77  83.5046
 53.4136  6878.88  83.2863
 53.4556  6905.61  83.4807
 53.4976  6926.17  83.44
 53.5396  6719.4  82.5847
 53.5816  6886.85  83.2316
 53.6236  6731.89  82.6511
 53.6656  6829.17  82.8503
 53.7076  6813.57  82.69
 53.7496  6889.61  83.3062
 53.7916  6773.07  82.7241
 53.8336  6727.29  82.3443
 53.8756  6825.01  83.4853
 53.9176  6830.56  82.8564
 53.9596  6555.04  81.9317
 54.0016  6752.72  82.4697
 54.0436  6488.63  81.0802
 54.0856  6697.72  81.7876
 54.1276  6648.08  81.6924
 54.1696  6568.73  81.3592
 54.2116  6725.2  82.0696
 54.2536  6681.48  81.6159
 54.2956  6575.99  81.0254
 54.3376  6475.6  80.8713
 54.3796  6565.05  81.3239
 54.4216  6561.83  81.3849
 54.4636  6513.04  81.0321
 54.5056  6638.77  81.6127
 54.5476  6538.21  81.3238
 54.5896  6588.82  81.4937
 54.6316  6552.98  81.0885
 54.6736  6611.36  81.555
 54.7156  6573.99  81.3579
 54.7576  6448.14  80.5434
 54.7996  6516.69  81.1354
 54.8416  6450.41  80.7813
 54.8836  6531.52  81.3798
 54.9256  6536.79  81.161
 54.9676  6383.23  80.0624
 55.0096  6528.96  81.0099
 55.0516  6413.14  80.5244
 55.0936  6501.07  80.7335
 55.1356  6413.9  80.2301
 55.1776  6587.8  81.5579
 55.2196  6511.76  80.8718
 55.2616  6613.36  81.7342
 55.3036  6335.73  80.1672
 55.3456  6325.7  80.2359
 55.3876  6343.37  80.0842
 55.4296  6341.29  80.0516
 55.4716  6408.32  80.5185
 55.5136  6414.38  80.3094
 55.5556  6540.39  81.15
 55.5976  6447.85  80.6616
 55.6396  6601.74  81.5562
 55.6816  6347.49  79.8505
 55.7236  6297.69  79.5858
 55.7656  6431.55  80.1563
 55.8076  6410.14  80.0136
 55.8496  6284.82  79.5373
 55.8916  6348.79  80.1567
 55.9336  6468.87  80.7386
 55.9756  6260.13  79.2999
 56.0176  6353.49  80.0382
 56.0596  6280.68  79.5804
 56.1016  6295.35  79.6928
 56.1436  6281.16  79.8496
 56.1856  6260.52  79.4663
 56.2276  6516.5  81.1103
 56.2696  6352.01  80.0733
 56.3116  6416.16  80.8409
 56.3536  6369.37  80.2181
 56.3956  6375.17  80.2333
 56.4376  6323.91  79.9761
 56.4796  6209.91  79.0599
 56.5216  6295.64  79.9879
 56.5636  6212.64  79.0242
 56.6056  6370.8  80.2557
 56.6476  6271.24  79.238
 56.6896  6441.5  80.7736
 56.7316  6211.59  79.2282
 56.7736  6229.68  79.3468
 56.8156  6301.8  79.8323
 56.8576  6112.59  78.5635
 56.8996  6244.75  79.3069
 56.9416  6246.5  79.638
 56.9836  6321.23  79.6389
 57.0256  6183.87  79.0876
 57.0676  6379.16  80.4309
 57.1096  6242.14  79.341
 57.1516  6171.91  78.9462
 57.1936  6173.8  78.7353
 57.2356  6164.35  78.992
 57.2776  6199.36  79.1798
 57.3196  6184.73  79.4282
 57.3616  6223.3  79.1854
 57.4036  6242.6  79.3602
 57.4456  6269.84  79.5143
 57.4876  6341.91  79.8298
 57.5296  6232.68  79.4743
 57.5716  6093.21  78.587
 57.6136  6115.38  78.562
 57.6556  6183.76  79.123
 57.6976  6211.8  79.1383
 57.7396  6106.61  78.8113
 57.7816  6078.38  79.0058
 57.8236  6018.84  78.3939
 57.8656  6143.57  78.8739
 57.9076  6168.9  79.0665
 57.9496  6239.32  79.8724
 57.9916  6166.25  78.911
 58.0336  6119.16  78.8872
 58.0756  6207.12  79.0882
 58.1176  6115.94  78.502
 58.1596  6033.38  78.5442
 58.2016  5871.09  76.7186
 58.2436  5976.11  77.8047
 58.2856  5895.89  77.2081
 58.3276  5861.1  77.3413
 58.3696  5785.62  76.5988
 58.4116  5890.33  77.1566
 58.4536  5949.09  77.4246
 58.4956  5881.63  77.1654
 58.5376  5941.43  77.1192
 58.5796  5888.34  77.2067
 58.6216  5875.88  76.9459
 58.6636  5853.9  77.0082
 58.7056  5883.55  77.0592
 58.7476  5961.25  78.0054
 58.7896  5833.63  76.8209
 58.8316  5920.05  77.3806
 58.8736  6043.1  78.192
 58.9156  5907.22  77.3502
 58.9576  5915.16  77.7245
 58.9996  5861.99  76.6303
 59.0416  5889.57  77.175
 59.0836  5921.64  77.2895
 59.1256  5800.04  77.1894
 59.1676  5867.82  77.9476
 59.2096  5759.46  76.5527
 59.2516  5887.1  76.9826
 59.2936  5901.91  77.4038
 59.3356  5872.94  77.093
 59.3776  5936.2  77.6747
 59.4196  5927.07  77.552
 59.4616  5802.04  76.5919
 59.5036  5755.81  76.32
 59.5456  6058.71  77.9959
 59.5876  6008.26  77.8611
 59.6296  5807.63  76.618
 59.6716  5689.35  75.89
 59.7136  5824.48  76.7745
 59.7556  5925.35  77.5716
 59.7976  5820.8  76.631
 59.8396  5949.94  77.3714
 59.8816  5906.43  77.6229
 59.9236  5900.4  77.2356
 59.9656  5772.8  76.6497
 60.0076  5775.68  76.0414
 60.0496  5884.93  77.2547
 60.0916  5915.43  76.8786
 60.1336  5726.96  76.7223
 60.1756  5796.6  78.3478
 60.1996  0.0000000E+00  0.0000000E+00