File: docs/examples/opeando_xrd/IS17_D/Data/IS17_D/17_Da_f00115.xye
# /beamlines/bl04/projects/cycle2025-II/20250340211-lsimonelli/DATA/IS17_D/17_Da_f00115.xye : mythproc.py merge -s 0.006 -l 0.5 -f /beamlines/bl04/inhouse/ff/FlatField/ff_20Nov2024rod8mm60s_17keV.raw -b True -c true -o xye /beamlines/bl04/projects/cycle2025-II/20250340211-lsimonelli/DATA/IS17_D/17_Da_00115.dat
# IsMon = [6762332, 6783697, 6799111]  IsPos = [-1.5000, -2.4884, -3.4988]
# Wave = 0.4962  CalPath /beamlines/bl04/projects/cycle2025-II/20250340211-lsimonelli/DATA/Align/Si_Pos1_25keV_f00001.cal
# Date = 2025-09-25_01:37:00 Dt = 4.8000  Bin = 0.0060  <imon> = 6781713 +/- 15080 (Min/Max) 6762332 / 6799111
# icurr 251.2100  mocoIn 1.7146E-05  mocoOut 0.8034  i15 7.09757e+06  imon 6.78171e+06  i7 4.3333  iEMpd_timer 4.8000  iEMpd_1 3.5221E-08  iEMpd_2 7.9495E-08  iEMpd_3 1.7424E-08  iEMpd_4 4.7934E-08  iEMhp_timer 4.8000  iEMhp_1 4.9206E-06  iEMhp_2 -2.4750E-08  iEMhp_3 -2.3813E-08  iEMhp_4 -2.0728E-08
#      9776
 1.5856  41036.2  208.309
 1.6276  48375.6  222.29
 1.6696  55124.3  236.453
 1.7116  63038.4  253.352
 1.7536  72849.7  271.195
 1.7956  77527.7  280.466
 1.8376  73474.2  273.468
 1.8796  62036.3  249.436
 1.9216  49947.3  224.707
 1.9636  42379.9  206.659
 2.0056  38435.2  195.549
 2.0476  35678.4  190.471
 2.0896  34201.1  185.392
 2.1316  33554.2  182.747
 2.1736  32004.6  179.894
 2.2156  32498.2  179.821
 2.2576  31512.7  177.71
 2.2996  30191.8  174.582
 2.3416  30635.5  174.458
 2.3836  30232.3  173.412
 2.4256  29069.9  170.599
 2.4676  28818  169.618
 2.5096  28948.1  170.056
 2.5516  27988.2  170.966
 2.5936  28126.7  167.914
 2.6356  27484.8  166.687
 2.6776  27541.9  165.718
 2.7196  27075.7  164.846
 2.7616  27449.6  165.744
 2.8036  26758  163.825
 2.8456  26792.4  164.562
 2.8876  26164.4  162.453
 2.9296  25997.3  162.104
 2.9716  25780.1  160.905
 3.0136  25200  159.153
 3.0556  25529.8  160.596
 3.0976  25120.7  158.263
 3.1396  25136.2  159.007
 3.1816  24853.2  158.04
 3.2236  24456.8  156.766
 3.2656  24527.3  155.97
 3.3076  24423.3  157.165
 3.3496  24671.7  156.841
 3.3916  24935.2  157.538
 3.4336  25400.4  159.591
 3.4756  25628.3  160.262
 3.5176  26337.7  162.226
 3.5596  26264  164.926
 3.6016  26422.6  162.438
 3.6436  25624  161.075
 3.6856  25298.2  158.323
 3.7276  24185.9  155.902
 3.7696  24022.1  155.373
 3.8116  23690.3  154.381
 3.8536  23681.8  154.286
 3.8956  23521  153.584
 3.9376  23567.2  153.988
 3.9796  23254.3  152.472
 4.0216  23557.4  152.479
 4.0636  23265.3  153.025
 4.1056  23420.1  153.162
 4.1476  23454.2  153.65
 4.1896  23841.5  154.717
 4.2316  24009.1  155.091
 4.2736  24475.1  156.365
 4.3156  24680.1  157.203
 4.3576  25502.9  159.783
 4.3996  25605.1  160.355
 4.4416  26300.5  162.101
 4.4836  26661.5  163.356
 4.5256  27111.3  165.412
 4.5676  27135.8  165.689
 4.6096  27512.6  165.84
 4.6516  28004.5  166.656
 4.6936  28170  167.915
 4.7356  28373.2  168.398
 4.7776  28207.1  167.691
 4.8196  27970  167.75
 4.8616  27465.8  165.642
 4.9036  27144  164.472
 4.9456  27133.1  165.035
 4.9876  26478.1  162.936
 5.0296  26666.6  163.322
 5.0716  26761.8  164.359
 5.1136  26799.4  164.228
 5.1556  27313.1  165.205
 5.1976  27430.8  165.657
 5.2396  27635.8  165.915
 5.2816  27591.2  166.297
 5.3236  27746.8  166.414
 5.3656  27190.3  165.667
 5.4076  27004.3  165.251
 5.4496  27190.3  165.25
 5.4916  27075.9  164.705
 5.5336  27352.2  165.504
 5.5756  26805.9  163.975
 5.6176  27221.4  164.615
 5.6596  27591.9  166.564
 5.7016  27444.7  165.531
 5.7436  27714.1  166.613
 5.7856  27593.9  166.316
 5.8276  28075.5  167.434
 5.8696  27851.2  166.926
 5.9116  28083.6  168.285
 5.9536  28218.9  168.499
 5.9956  28539.8  168.761
 6.0376  28644.8  169.708
 6.0796  28861.6  170.18
 6.1216  28733.7  169.962
 6.1636  29134.5  170.244
 6.2056  29130.8  170.859
 6.2476  29470.1  171.646
 6.2896  29809.9  172.428
 6.3316  29368.9  171.387
 6.3736  29699.2  172.177
 6.4156  29557  171.722
 6.4576  29981.7  172.49
 6.4996  30010.3  173.012
 6.5416  30293.8  174.016
 6.5836  30114.9  173.685
 6.6256  30318.6  173.877
 6.6676  30973  175.304
 6.7096  30576.4  175.097
 6.7516  31158.6  176.343
 6.7936  31048.9  175.466
 6.8356  31426.4  176.6
 6.8776  31798.9  178.411
 6.9196  31707.5  178.611
 6.9616  32081.8  179.091
 7.0036  32690.8  180.434
 7.0456  32564.2  179.372
 7.0876  32686.2  181.401
 7.1296  32499.9  180.034
 7.1716  32494.3  179.552
 7.2136  32253.6  178.661
 7.2556  32523  179.57
 7.2976  32542.5  180.129
 7.3396  32389.4  179.912
 7.3816  32437.7  180.269
 7.4236  33020.2  181.159
 7.4656  32791.4  180.008
 7.5076  33116.1  181.036
 7.5496  32912.6  180.966
 7.5916  33172.8  181.761
 7.6336  33491.6  182.535
 7.6756  33676.8  182.887
 7.7176  34001.8  184.126
 7.7596  33638.9  184.357
 7.8016  34237.5  188.258
 7.8436  35100.7  187.033
 7.8856  35234.3  186.998
 7.9276  35718.7  188.642
 7.9696  35647.4  188.802
 8.0116  36775.6  190.277
 8.0536  36986.2  191.084
 8.0956  36796.3  191.823
 8.1376  37316.4  192.602
 8.1796  37676.4  194.119
 8.2216  38672.2  195.343
 8.2636  38768.2  195.835
 8.3056  38674.8  196.35
 8.3476  39212.4  197.061
 8.3896  38845.5  196.219
 8.4316  39102.4  197.034
 8.4736  38997.6  196.225
 8.5156  38877.8  196.205
 8.5576  38423.8  196.086
 8.5996  38942.8  196.205
 8.6416  38471.6  196.34
 8.6836  38264.5  195.571
 8.7256  38806.6  196.45
 8.7676  38088.9  197.616
 8.8096  38021.2  194.778
 8.8516  37810.8  193.985
 8.8936  37523.8  192.993
 8.9356  37353.8  192.996
 8.9776  37884.5  194.382
 9.0196  37234  192.449
 9.0616  37773  193.203
 9.1036  37230.5  193.038
 9.1456  37244.8  192.327
 9.1876  37007.5  191.745
 9.2296  37314.1  191.845
 9.2716  36397.1  189.631
 9.3136  36670.7  190.308
 9.3556  37004.4  191.174
 9.3976  35301.4  187.328
 9.4396  36091.3  189.22
 9.4816  35094  186.537
 9.5236  35416.2  187.219
 9.5656  35078  186.636
 9.6076  34932.5  186.705
 9.6496  34696.4  186.089
 9.6916  34827.2  186.33
 9.7336  34760.9  186.009
 9.7756  34981.3  187.722
 9.8176  34045.6  184.943
 9.8596  33732.1  182.524
 9.9016  33333.2  181.434
 9.9436  33583  181.809
 9.9856  32769.2  180.028
 10.0276  32582.2  180.639
 10.0696  32952.2  180.684
 10.1116  31973.9  178.244
 10.1536  31686.2  177.155
 10.1956  31443.6  176.526
 10.2376  30770.3  174.17
 10.2796  31007.4  174.924
 10.3216  30994  174.968
 10.3636  30619.5  174.124
 10.4056  30295  173.549
 10.4476  29983.7  172.333
 10.4896  30092.8  172.098
 10.5316  29718.7  171.448
 10.5736  29379.9  171.165
 10.6156  28821.2  169.339
 10.6576  28875.7  168.023
 10.6996  28590.4  167.852
 10.7416  28499.9  167.825
 10.7836  28549.9  168.558
 10.8256  28114.5  167.71
 10.8676  28397  168.075
 10.9096  28022.6  167.011
 10.9516  27891.8  165.532
 10.9936  27836.3  165.565
 11.0356  27515  165.252
 11.0776  27360.2  164.097
 11.1196  26888.6  163.42
 11.1616  26804.1  162.848
 11.2036  26967  163.198
 11.2456  26899.4  163.698
 11.2876  26788.8  163.151
 11.3296  26429.9  161.907
 11.3716  27101.3  163.616
 11.4136  26803.4  163.639
 11.4556  26936.5  163.657
 11.4976  27229.9  163.554
 11.5396  27643.2  164.95
 11.5816  28185.7  167.093
 11.6236  28023  166.79
 11.6656  27333.6  163.916
 11.7076  26758.6  162.983
 11.7496  26382.5  165.835
 11.7916  26258.6  160.709
 11.8336  25972  160.675
 11.8756  25561.7  158.982
 11.9176  25827.4  159.439
 11.9596  25202.6  157.752
 12.0016  25316.4  158.869
 12.0436  25408.1  158.569
 12.0856  24943.1  157.636
 12.1276  25075.9  157.971
 12.1696  25115  157.221
 12.2116  25314  157.796
 12.2536  24577.1  156.382
 12.2956  24936.1  156.779
 12.3376  24540.9  155.838
 12.3796  24872.9  157.303
 12.4216  24898.2  156.588
 12.4636  24640  156.697
 12.5056  24710.5  156.183
 12.5476  24986  156.579
 12.5896  25038.9  157.34
 12.6316  24400.8  155.577
 12.6736  24512.9  156.377
 12.7156  24379.9  155.866
 12.7576  24752.6  157.242
 12.7996  24871.7  156.242
 12.8416  24451.2  155.98
 12.8836  24984.2  157.45
 12.9256  25150  157.017
 12.9676  25183.3  157.51
 13.0096  25055.7  158.315
 13.0516  25319.2  158.12
 13.0936  25411.5  158.519
 13.1356  25693.5  158.657
 13.1776  25223.8  158.2
 13.2196  25499.6  158.716
 13.2616  25569.6  159.199
 13.3036  25390.7  158.884
 13.3456  25412  159.043
 13.3876  25305.7  158.092
 13.4296  25263.5  158.057
 13.4716  25471.8  158.313
 13.5136  25232.9  157.72
 13.5556  25342.7  158.677
 13.5976  25624.8  159.708
 13.6396  25546.7  158.784
 13.6816  25010.2  157.576
 13.7236  25883.8  160.015
 13.7656  24822.8  157.296
 13.8076  25265.9  157.407
 13.8496  25027.2  157.456
 13.8916  24926.6  157.964
 13.9336  25110.6  157.721
 13.9756  24939.2  156.563
 14.0176  24673.9  156.37
 14.0596  24798.6  156.782
 14.1016  24543.9  156.371
 14.1436  24209  154.478
 14.1856  23873.1  153.639
 14.2276  23756.3  153.815
 14.2696  24144  154.851
 14.3116  23768.5  153.495
 14.3536  23335.5  152.31
 14.3956  23383.6  152.192
 14.4376  23452.8  152.194
 14.4796  23353.2  151.862
 14.5216  22982.8  151.464
 14.5636  22928.5  150.842
 14.6056  23004.3  150.669
 14.6476  22773.2  149.125
 14.6896  22501.3  148.779
 14.7316  22263.7  149.033
 14.7736  22102.5  147.628
 14.8156  21909.2  147.022
 14.8576  21937.1  146.961
 14.8996  21336.8  146.157
 14.9416  21122.7  145.431
 14.9836  21256.3  145.791
 15.0256  21150.8  144.283
 15.0676  21039.5  144.228
 15.1096  20968.9  143.718
 15.1516  20529  142.798
 15.1936  20596.9  142.42
 15.2356  20220.1  141.396
 15.2776  19997.4  140.189
 15.3196  19729.7  140.268
 15.3616  19782.3  140.179
 15.4036  19549.4  139.23
 15.4456  19888.2  140.081
 15.4876  19690.5  139.057
 15.5296  19251.9  137.813
 15.5716  19195  137.172
 15.6136  18951.2  136.663
 15.6556  19080.5  136.321
 15.6976  18954.7  136.2
 15.7396  18902.5  136.36
 15.7816  18646.5  134.964
 15.8236  18347.1  134.555
 15.8656  18500.5  134.925
 15.9076  18010.8  132.96
 15.9496  18036.2  136.007
 15.9916  18089.1  136.611
 16.0336  17789.5  132.401
 16.0756  18019.9  133.508
 16.1176  17905.6  132.939
 16.1596  17206.7  131.713
 16.2016  17785.2  132.561
 16.2436  17442.4  131.736
 16.2856  17326.7  130.841
 16.3276  16949.2  129.82
 16.3696  17178.3  130.507
 16.4116  16789  129.555
 16.4536  17296.8  131.216
 16.4956  16975.4  129.787
 16.5376  16957.5  129.846
 16.5796  16825.1  128.695
 16.6216  16814.4  128.963
 16.6636  16924.5  129.481
 16.7056  16823.5  129.015
 16.7476  17018.7  129.274
 16.7896  16800.2  129.212
 16.8316  16869  129.425
 16.8736  16731.7  129.229
 16.9156  16924.9  130.256
 16.9576  16652.6  130.039
 16.9996  16819.3  131.158
 17.0416  16906.1  129.856
 17.0836  16772.9  129.126
 17.1256  16491.1  128.052
 17.1676  16506.9  128.116
 17.2096  16325.1  127.281
 17.2516  16351  127.492
 17.2936  16273.2  127.173
 17.3356  15803.1  125.372
 17.3776  15941.2  126.084
 17.4196  15859.7  125.418
 17.4616  15904.3  125.543
 17.5036  15559.7  124.51
 17.5456  15474.4  124.849
 17.5876  15454.7  123.808
 17.6296  15484.4  123.753
 17.6716  15452.8  124.197
 17.7136  15187.2  123.3
 17.7556  15227.5  123.723
 17.7976  15123.8  123.044
 17.8396  14846.9  121.41
 17.8816  15048.9  122.742
 17.9236  15140  122.959
 17.9656  15174.1  123.559
 18.0076  14958.3  122.259
 18.0496  15176  122.269
 18.0916  15020.4  122.185
 18.1336  14895  121.772
 18.1756  15207.8  122.562
 18.2176  14686.7  120.674
 18.2596  14794.5  120.845
 18.3016  14841.8  121.3
 18.3436  14863  121.377
 18.3856  14550.5  120.285
 18.4276  14801.5  120.947
 18.4696  14731.9  120.723
 18.5116  14858.9  121.571
 18.5536  14835.7  121.799
 18.5956  14501.1  119.999
 18.6376  14558.4  120.651
 18.6796  14318.7  119.029
 18.7216  14661.5  120.881
 18.7636  14325.9  119.526
 18.8056  14427.9  119.852
 18.8476  14333.1  120.044
 18.8896  14469.8  119.985
 18.9316  14599.2  120.47
 18.9736  14423.5  119.472
 19.0156  14435.3  119.925
 19.0576  14492.4  119.061
 19.0996  14497.1  119.757
 19.1416  14241.8  119.132
 19.1836  14420.5  119.431
 19.2256  14182  118.656
 19.2676  14372.6  119.546
 19.3096  14565.1  120.558
 19.3516  14283.9  119.244
 19.3936  14354.2  119.571
 19.4356  14242.8  119.019
 19.4776  14237.4  119.055
 19.5196  14336  119.306
 19.5616  14285.4  119.362
 19.6036  14374.4  119.18
 19.6456  14349.3  119.237
 19.6876  14330.2  118.773
 19.7296  14234.1  118.905
 19.7716  14207.1  118.916
 19.8136  14300.4  119.555
 19.8556  14496.3  119.795
 19.8976  14391.3  119.433
 19.9396  14540.5  119.622
 19.9816  14761.5  120.739
 20.0236  15019.5  122.049
 20.0656  15269.7  123.024
 20.1076  15167.6  123.168
 20.1496  15337.4  123.82
 20.1916  15184.7  122.653
 20.2336  14782.2  120.988
 20.2756  14479  120.183
 20.3176  14410.3  119.636
 20.3596  14233  118.842
 20.4016  14218.3  118.615
 20.4436  14155.4  118.881
 20.4856  13828.1  117.37
 20.5276  13932.2  118.213
 20.5696  13986.1  118.011
 20.6116  13783.9  117.336
 20.6536  13766.2  116.758
 20.6956  13829.3  117.152
 20.7376  13743.6  116.993
 20.7796  13687.4  116.46
 20.8216  13684.4  116.152
 20.8636  13430  115.474
 20.9056  13481.7  115.617
 20.9476  13515.5  115.636
 20.9896  13611.2  115.871
 21.0316  13668.1  115.978
 21.0736  13523.6  115.924
 21.1156  13453.1  115.748
 21.1576  13464.4  115.88
 21.1996  13526.6  116.124
 21.2416  13331.5  115.154
 21.2836  13484.7  115.742
 21.3256  13255.6  114.872
 21.3676  13443.3  115.181
 21.4096  13312.8  114.965
 21.4516  13178.9  114.241
 21.4936  13134.5  114.291
 21.5356  13390.2  115.341
 21.5776  13252.6  114.586
 21.6196  13189.4  114.355
 21.6616  13114.4  114.105
 21.7036  13149.6  114.047
 21.7456  13286.7  114.712
 21.7876  13162.6  113.921
 21.8296  13093.5  113.482
 21.8716  13051.2  113.557
 21.9136  13262.8  114.644
 21.9556  13107.3  113.645
 21.9976  13048.1  113.405
 22.0396  13065.8  113.734
 22.0816  12987  113.903
 22.1236  13044.6  113.641
 22.1656  13069.4  113.823
 22.2076  13128.5  113.522
 22.2496  13210.2  113.92
 22.2916  13211.2  113.787
 22.3336  13138.8  114.231
 22.3756  13038  113.49
 22.4176  12981.5  113.098
 22.4596  12821.2  112.967
 22.5016  12985.1  113.186
 22.5436  13115  113.622
 22.5856  13064.5  113.673
 22.6276  13013.7  113.61
 22.6696  13121.5  114.42
 22.7116  13075.3  113.743
 22.7536  12901.3  112.938
 22.7956  13117.8  113.221
 22.8376  12918.9  112.844
 22.8796  13053.3  113.248
 22.9216  13071.6  113.864
 22.9636  12928  112.4
 23.0056  13005.1  112.872
 23.0476  13193.9  114.27
 23.0896  13365  114.367
 23.1316  13152.2  113.901
 23.1736  13025.3  116.42
 23.2156  13175.1  114.369
 23.2576  13189.8  114.664
 23.2996  13049.2  113.741
 23.3416  12991.5  114.11
 23.3836  13080  113.673
 23.4256  13242.7  114.543
 23.4676  12918.6  112.775
 23.5096  13004.2  113.838
 23.5516  12867.3  112.511
 23.5936  12972.7  113.891
 23.6356  13162.5  114.364
 23.6776  12915.5  113.457
 23.7196  12638.1  112.134
 23.7616  13089.7  113.71
 23.8036  12915.5  113.103
 23.8456  12966.7  112.778
 23.8876  12595.7  111.605
 23.9296  12639  112.25
 23.9716  12429.3  110.499
 24.0136  12808.5  113.091
 24.0556  12562.2  111.728
 24.0976  12631.5  111.84
 24.1396  12440.2  113.64
 24.1816  12442.9  112.116
 24.2236  12445.5  111.763
 24.2656  12278.6  110.48
 24.3076  12313.1  110.888
 24.3496  12327.4  110.815
 24.3916  12379.8  111.129
 24.4336  12111.8  110.13
 24.4756  12188.7  110.346
 24.5176  12062.4  109.418
 24.5596  11905.1  109.053
 24.6016  11990.6  109.506
 24.6436  11977  108.964
 24.6856  11967.6  108.65
 24.7276  11961.8  108.915
 24.7696  11755.6  108.108
 24.8116  11829.8  108.612
 24.8536  11728.5  108.156
 24.8956  11607.6  107.34
 24.9376  11591.4  107.475
 24.9796  11591.6  107.567
 25.0216  11529.6  107.418
 25.0636  11765.7  108.125
 25.1056  11529  107.752
 25.1476  11577  109.573
 25.1896  11669.1  108.475
 25.2316  11694  107.816
 25.2736  11545.3  106.811
 25.3156  11515.4  106.753
 25.3576  11487.7  107.048
 25.3996  11510.1  107.134
 25.4416  11477.5  106.964
 25.4836  11366.7  106.966
 25.5256  11319  106.114
 25.5676  11479.1  106.58
 25.6096  11223.7  105.967
 25.6516  11354  106.073
 25.6936  11246.9  105.928
 25.7356  11248.2  106.033
 25.7776  11445.3  106.601
 25.8196  11161.7  105.471
 25.8616  11232  105.686
 25.9036  11318.8  105.592
 25.9456  11228.2  105.764
 25.9876  11116.1  105.202
 26.0296  11327  105.802
 26.0716  11164.4  105.499
 26.1136  11205.8  105.604
 26.1556  11331.3  105.531
 26.1976  11120.3  105.51
 26.2396  11103.3  104.535
 26.2816  11189.3  105.599
 26.3236  11187.2  105.741
 26.3656  11105.9  105.126
 26.4076  11247.9  105.973
 26.4496  11605.6  107.165
 26.4916  11308.5  105.739
 26.5336  11241.8  105.763
 26.5756  11638  107.456
 26.6176  11155.1  105.237
 26.6596  11013  104.902
 26.7016  11009  104.636
 26.7436  10929.9  104.43
 26.7856  10919.2  104.322
 26.8276  10907.8  104.227
 26.8696  10956.8  104.329
 26.9116  10863.2  103.827
 26.9536  10902.1  104.059
 26.9956  10780.5  103.479
 27.0376  10676.4  103.254
 27.0796  10976  104.383
 27.1216  10670.7  103.041
 27.1636  10562.6  102.651
 27.2056  10787.6  103.615
 27.2476  10648.7  102.95
 27.2896  10715.8  103.358
 27.3316  10641  102.733
 27.3736  10685.8  103.192
 27.4156  10474.3  102.067
 27.4576  10708.7  103.406
 27.4996  10604.6  102.529
 27.5416  10664.6  103.104
 27.5836  10578.5  102.502
 27.6256  10819.2  103.835
 27.6676  10828.2  103.861
 27.7096  10557  102.444
 27.7516  10560.8  102.59
 27.7936  10445.9  102.264
 27.8356  10559.4  102.4
 27.8776  10354.7  101.483
 27.9196  10439.8  101.709
 27.9616  10416.5  101.79
 28.0036  10349.4  101.436
 28.0456  10362.8  101.606
 28.0876  10300.2  101.42
 28.1296  10273.4  101.126
 28.1716  10243.5  101.025
 28.2136  10295.6  101.204
 28.2556  10171.1  100.744
 28.2976  10202.9  100.847
 28.3396  10281.1  100.96
 28.3816  10408.9  101.65
 28.4236  10290.4  101.197
 28.4656  10193.9  100.786
 28.5076  10168.4  100.284
 28.5496  10128  100.357
 28.5916  10282.9  100.921
 28.6336  10161.3  100.709
 28.6756  10164.4  99.8807
 28.7176  10139.5  100.308
 28.7596  9968.59  99.3618
 28.8016  10140.8  100.245
 28.8436  10053.8  100.064
 28.8856  10192  100.593
 28.9276  10109.8  100.438
 28.9696  10027.5  99.6842
 29.0116  10094  100.17
 29.0536  9919.34  99.5287
 29.0956  9989.37  99.5994
 29.1376  9959.94  99.4144
 29.1796  9983.5  99.602
 29.2216  9892.3  98.9523
 29.2636  9950.95  99.3548
 29.3056  10024.7  99.4879
 29.3476  9918.65  99.4886
 29.3896  10051.2  100.21
 29.4316  10025.6  99.3814
 29.4736  10035.5  99.4776
 29.5156  10153.1  99.9892
 29.5576  10060  100.307
 29.5996  10019.3  99.3344
 29.6416  9841.85  98.5888
 29.6836  10181.6  100.178
 29.7256  10063.4  100.178
 29.7676  10022  99.6049
 29.8096  9898.2  98.951
 29.8516  9670.64  98.1231
 29.8936  9883.04  99.3051
 29.9356  9995.94  99.6225
 29.9776  9845.91  99.0257
 30.0196  9803.93  98.2172
 30.0616  9782.09  98.466
 30.1036  9815.96  98.478
 30.1456  9719.1  98.1905
 30.1876  9767.33  98.4492
 30.2296  9747.56  98.2563
 30.2716  9701.28  97.6777
 30.3136  9913.53  99.6156
 30.3556  9749.76  98.8711
 30.3976  9712.87  100.224
 30.4396  9673.22  97.3725
 30.4816  9806.55  97.6012
 30.5236  9589.52  96.58
 30.5656  9585.56  97.1705
 30.6076  9622.44  97.0901
 30.6496  9720.56  97.6657
 30.6916  9652.04  97.3709
 30.7336  9738.25  98.0009
 30.7756  9607.07  97.4328
 30.8176  9694.75  97.7907
 30.8596  9722.23  97.6912
 30.9016  9610.69  97.0472
 30.9436  9808.12  98.2243
 30.9856  9702.4  97.8423
 31.0276  9720.3  97.488
 31.0696  9559.81  97.2653
 31.1116  9589.87  97.3969
 31.1536  9743.29  98.01
 31.1956  9634.31  97.5906
 31.2376  9464.31  96.6931
 31.2796  9408.64  95.9844
 31.3216  9473.53  96.2623
 31.3636  9547.89  97.3548
 31.4056  9517.19  98.5291
 31.4476  9543.34  96.5591
 31.4896  9463.4  96.667
 31.5316  9590.32  96.6719
 31.5736  9479.98  95.9575
 31.6156  9432.65  95.742
 31.6576  9608.93  96.7316
 31.6996  9498.54  95.844
 31.7416  9334.68  95.9595
 31.7836  9518.04  96.0196
 31.8256  9288.97  95.1521
 31.8676  9330.06  95.3328
 31.9096  9371.66  95.744
 31.9516  9179.21  95.0704
 31.9936  9229.91  95.1406
 32.0356  9364.78  95.9257
 32.0776  9331.36  95.6372
 32.1196  9380.48  95.9183
 32.1616  9439.36  95.7308
 32.2036  9308.39  95.6042
 32.2456  9346.86  96.1626
 32.2876  9366.92  95.7576
 32.3296  9367.17  95.7199
 32.3716  9210.43  94.9571
 32.4136  9320.23  95.7129
 32.4556  9420.65  95.6192
 32.4976  9334.95  95.1408
 32.5396  9418.38  95.5891
 32.5816  9178.16  94.5201
 32.6236  9368.49  95.5363
 32.6656  9305.28  95.7531
 32.7076  9222.46  94.9769
 32.7496  9301.11  95.0435
 32.7916  9245.89  94.7128
 32.8336  9222.54  94.6953
 32.8756  9305.91  94.851
 32.9176  9251.07  95.0578
 32.9596  9129.69  94.5115
 33.0016  9124.15  94.2686
 33.0436  9326.67  95.4617
 33.0856  9245.17  95.1388
 33.1276  8962.15  93.4105
 33.1696  9116.25  94.0509
 33.2116  9313.53  95.2841
 33.2536  9187.89  94.6765
 33.2956  9178.08  94.6806
 33.3376  9067.48  93.8971
 33.3796  9242.84  94.9598
 33.4216  9221.06  94.406
 33.4636  9293.52  94.9589
 33.5056  9078.58  94.0875
 33.5476  8995.78  93.6897
 33.5896  9217.57  94.5767
 33.6316  9028.48  93.9483
 33.6736  8990.97  93.9653
 33.7156  9009.99  94.112
 33.7576  9108.21  94.2474
 33.7996  9166.7  94.2762
 33.8416  8884.42  93.0255
 33.8836  9039.76  93.5885
 33.9256  9009.86  93.5495
 33.9676  9132.74  94.0533
 34.0096  8878.37  93.0836
 34.0516  8869.02  92.6412
 34.0936  8885.98  92.9915
 34.1356  8912.52  92.8684
 34.1776  8980.89  93.2182
 34.2196  8855.34  92.7705
 34.2616  8876.72  93.0131
 34.3036  8738.96  92.5762
 34.3456  8813.96  92.688
 34.3876  8902.12  93.2099
 34.4296  8834.24  92.4484
 34.4716  8992.59  93.4183
 34.5136  8848.19  92.8753
 34.5556  8847.33  93.1064
 34.5976  8870.23  93.1144
 34.6396  8842.41  92.6116
 34.6816  8813.75  92.6075
 34.7236  8815.44  92.3701
 34.7656  8818.41  92.5788
 34.8076  8717.32  92.3671
 34.8496  8789.61  92.5792
 34.8916  8856.09  92.8339
 34.9336  8868.47  92.8393
 34.9756  8877.81  92.8926
 35.0176  8861.83  93.2866
 35.0596  8643.78  91.9707
 35.1016  8698.59  92.0107
 35.1436  8901.72  92.7537
 35.1856  8739.02  92.0356
 35.2276  8772.32  92.3594
 35.2696  8833.01  92.9008
 35.3116  8788.3  92.7335
 35.3536  8645.48  91.7785
 35.3956  8749.22  91.9685
 35.4376  8657.34  92.061
 35.4796  8762.49  92.6627
 35.5216  8740.07  92.4984
 35.5636  8429.16  91.585
 35.6056  8706.86  92.0565
 35.6476  8741.88  92.1618
 35.6896  8732.94  92.2049
 35.7316  8570.8  91.3154
 35.7736  8680.78  92.1067
 35.8156  8609.78  91.7583
 35.8576  8713.48  92.5368
 35.8996  8684.58  92.341
 35.9416  8656.99  91.6993
 35.9836  8522.7  91.4015
 36.0256  8700.99  92.3044
 36.0676  8586.65  91.4505
 36.1096  8468.89  90.9585
 36.1516  8678.43  91.956
 36.1936  8554.97  91.1608
 36.2356  8586  91.9612
 36.2776  8564.38  91.3186
 36.3196  8592.17  91.1379
 36.3616  8530.53  90.9515
 36.4036  8550.34  91.1032
 36.4456  8536.98  91.273
 36.4876  8429.02  90.606
 36.5296  8549.43  91.2953
 36.5716  8513.01  91.8984
 36.6136  8686.98  91.5129
 36.6556  8619.31  91.344
 36.6976  8527.03  91.3759
 36.7396  8489.07  90.9174
 36.7816  8613.86  91.9455
 36.8236  8562.02  91.6071
 36.8656  8349.9  90.5257
 36.9076  8445.19  90.9309
 36.9496  8531.82  91.3444
 36.9916  8407.84  90.3249
 37.0336  8594.17  91.6271
 37.0756  8563.57  91.2658
 37.1176  8333.17  90.3034
 37.1596  8443.81  90.9049
 37.2016  8351.69  90.6345
 37.2436  8375.08  90.0759
 37.2856  8487.22  90.9491
 37.3276  8405.68  89.8417
 37.3696  8347.15  90.4358
 37.4116  8320.88  90.1683
 37.4536  8449.57  90.7445
 37.4956  8337.55  90.1635
 37.5376  8400.26  92.1416
 37.5796  8289.9  91.5171
 37.6216  8325.29  89.963
 37.6636  8062.47  88.4629
 37.7056  8409.31  90.5023
 37.7476  8315.6  89.5681
 37.7896  8437.47  90.642
 37.8316  8124.14  89.2065
 37.8736  8329.65  89.7538
 37.9156  8250.95  89.3807
 37.9576  8267.13  89.3471
 37.9996  8153.97  88.4542
 38.0416  8191.31  89.4839
 38.0836  8282.84  89.8671
 38.1256  8242.45  89.6012
 38.1676  7944.61  88.1235
 38.2096  8215.07  89.2665
 38.2516  8247.91  89.5687
 38.2936  8271.22  89.576
 38.3356  8296.8  89.5549
 38.3776  8003.69  88.266
 38.4196  8257.79  89.4667
 38.4616  8262.45  89.7698
 38.5036  8301.16  89.8183
 38.5456  8099.93  89.5658
 38.5876  8206.88  90.182
 38.6296  8014.37  88.1524
 38.6716  8148.83  88.6757
 38.7136  7952.25  87.5449
 38.7556  8047.44  88.5736
 38.7976  8093.35  88.7652
 38.8396  8063.47  89.0578
 38.8816  7940.4  88.1573
 38.9236  7886.55  87.6668
 38.9656  8082.5  88.6628
 39.0076  8089.63  88.1026
 39.0496  8140.52  88.9443
 39.0916  8155.87  88.6459
 39.1336  8040.68  88.4343
 39.1756  8091.11  88.7877
 39.2176  8072.27  89.1975
 39.2596  8034.97  88.9301
 39.3016  8132.69  89.0306
 39.3436  7974.99  88.5984
 39.3856  7948.41  87.8971
 39.4276  8109.67  89.3059
 39.4696  8078.77  88.7398
 39.5116  8006.91  88.8852
 39.5536  8274.18  90.7015
 39.5956  8174.46  89.2428
 39.6376  8103.39  88.8309
 39.6796  8118.74  88.6742
 39.7216  8198.81  89.1947
 39.7636  8184.03  89.717
 39.8056  8185.77  89.5083
 39.8476  8007.38  88.7769
 39.8896  8132.27  89.1172
 39.9316  8097.34  89.1535
 39.9736  8176.88  89.1563
 40.0156  8020.15  88.115
 40.0576  8182.08  89.3738
 40.0996  8292.71  89.1433
 40.1416  8136.92  89.1002
 40.1836  8295.16  89.8485
 40.2256  8134.43  89.0261
 40.2676  8064.66  88.7886
 40.3096  8219.01  89.5116
 40.3516  8210.94  89.583
 40.3936  8205.63  89.1102
 40.4356  8119.84  88.8275
 40.4776  8190.17  89.5026
 40.5196  8242.74  90.0553
 40.5616  8133.78  89.1264
 40.6036  8146.08  89.4134
 40.6456  8211.93  89.3538
 40.6876  8240.41  89.5215
 40.7296  8227.3  89.5666
 40.7716  8198.58  89.5703
 40.8136  8141.45  89.1925
 40.8556  8151.48  89.4179
 40.8976  8184.79  89.488
 40.9396  8082.74  89.316
 40.9816  8136.54  88.859
 41.0236  8239.06  89.1593
 41.0656  8263.28  89.8714
 41.1076  8271.25  89.6592
 41.1496  8195.89  89.1838
 41.1916  8193.75  89.494
 41.2336  8110.8  89.061
 41.2756  8105.15  88.6064
 41.3176  8084.1  89.1404
 41.3596  8226.67  89.6198
 41.4016  8229.09  89.8637
 41.4436  8161.59  89.3101
 41.4856  8267.28  90.0245
 41.5276  8110.99  89.2108
 41.5696  8114.46  88.85
 41.6116  8133.98  89.3992
 41.6536  8219.2  89.6912
 41.6956  8073.98  88.8769
 41.7376  8088.05  89.0549
 41.7796  8030.28  88.5915
 41.8216  8151.49  89.5243
 41.8636  8140.03  89.3757
 41.9056  8033.16  88.6003
 41.9476  8170.63  89.5866
 41.9896  8159.5  89.2185
 42.0316  8112.65  89.024
 42.0736  8099.92  89.0935
 42.1156  8132.81  89.0777
 42.1576  8163.99  89.3235
 42.1996  8127.44  89.2909
 42.2416  8109.75  88.7464
 42.2836  8050.56  88.5627
 42.3256  7967.08  88.2167
 42.3676  8029.07  88.3913
 42.4096  8066.87  88.5343
 42.4516  7991.3  88.2355
 42.4936  8062.03  88.6639
 42.5356  8061.89  88.7714
 42.5776  8057.67  88.7082
 42.6196  8133.78  89.1801
 42.6616  7917.78  88.1683
 42.7036  8187.57  89.0255
 42.7456  8060.29  88.7237
 42.7876  7993.41  88.427
 42.8296  7985.86  88.2195
 42.8716  7958.76  88.2259
 42.9136  8031.3  88.3456
 42.9556  7999.43  88.3745
 42.9976  8100.51  88.8882
 43.0396  8000.39  88.0697
 43.0816  7962.72  88.2365
 43.1236  7911.56  88.0188
 43.1656  8009.06  88.3866
 43.2076  7980.98  88.3363
 43.2496  7833.81  87.329
 43.2916  7955.92  88.3806
 43.3336  8075.33  88.877
 43.3756  7901.52  87.6872
 43.4176  7780.06  87.0737
 43.4596  7811.25  87.1019
 43.5016  7826.99  87.5981
 43.5436  7889.24  87.8403
 43.5856  7815.21  87.4288
 43.6276  7933.98  88.0133
 43.6696  7843.04  87.7411
 43.7116  7961.1  87.9154
 43.7536  7896.71  88.0791
 43.7956  7783.09  88.6253
 43.8376  7856.66  87.5187
 43.8796  7974.67  88.2373
 43.9216  7931.09  87.9114
 43.9636  7807.22  87.3173
 44.0056  7825.28  87.6681
 44.0476  7821.35  87.2548
 44.0896  7778.95  87.3821
 44.1316  7894.71  87.5449
 44.1736  7824.56  87.2792
 44.2156  7806.2  87.0406
 44.2576  7808.24  87.3734
 44.2996  7701.01  86.7569
 44.3416  7721.06  86.5959
 44.3836  7652.25  86.5585
 44.4256  7782.91  86.9143
 44.4676  7694.01  86.5907
 44.5096  7789.19  87.2676
 44.5516  7670.68  86.5592
 44.5936  7678.86  86.5648
 44.6356  7713.74  86.4978
 44.6776  7840.46  87.5431
 44.7196  7777.7  87.4763
 44.7616  7585.36  87.7868
 44.8036  7714.67  87.1581
 44.8456  7586.06  86.4281
 44.8876  7594.81  86.327
 44.9296  7804.16  86.953
 44.9716  7635.19  86.4812
 45.0136  7617.49  86.2711
 45.0556  7645.11  86.5076
 45.0976  7657.07  86.6341
 45.1396  7572.77  85.9016
 45.1816  7661.38  86.308
 45.2236  7695.79  86.4386
 45.2656  7601.16  86.3785
 45.3076  7503.76  85.644
 45.3496  7537.89  86.1047
 45.3916  7546.27  86.46
 45.4336  7590.12  86.5937
 45.4756  7571.53  86.3082
 45.5176  7557.77  85.8778
 45.5596  7674.64  86.6247
 45.6016  7495.57  86.0201
 45.6436  7579  85.6751
 45.6856  7604.01  86.4851
 45.7276  7459.19  86.9499
 45.7696  7559.98  87.2173
 45.8116  7487.88  86.2761
 45.8536  7396  85.6594
 45.8956  7589.49  86.1139
 45.9376  7535.14  85.2678
 45.9796  7500  85.7481
 46.0216  7437.25  85.7442
 46.0636  7588.19  85.7423
 46.1056  7429.87  84.8292
 46.1476  7559.54  86.1621
 46.1896  7527.37  86.1319
 46.2316  7555.37  86.1631
 46.2736  7477.42  85.9476
 46.3156  7483.41  85.703
 46.3576  7539.53  86.2308
 46.3996  7467.25  85.9758
 46.4416  7534.06  85.882
 46.4836  7394.27  85.4838
 46.5256  7495.34  86.0075
 46.5676  7364.72  85.3699
 46.6096  7403.19  85.5259
 46.6516  7549.89  85.4024
 46.6936  7505.37  85.6463
 46.7356  7499.96  85.7427
 46.7776  7369.88  85.7609
 46.8196  7337.91  85.3182
 46.8616  7222.64  84.42
 46.9036  7215.78  84.0644
 46.9456  7327.67  84.3327
 46.9876  7280.84  84.1741
 47.0296  7330.26  85.1214
 47.0716  7222.53  84.3422
 47.1136  7344.72  84.758
 47.1556  7326.59  84.4886
 47.1976  7358.23  84.816
 47.2396  7233.76  84.4324
 47.2816  7196.92  83.9151
 47.3236  7350.08  85.1838
 47.3656  7184.62  84.1452
 47.4076  7337.2  84.7682
 47.4496  7225.37  84.2811
 47.4916  7257.31  84.6566
 47.5336  7257.39  84.4731
 47.5756  7333.32  85.0317
 47.6176  7272.65  84.5774
 47.6596  7243.03  84.1144
 47.7016  7270.29  84.088
 47.7436  7290.6  84.5462
 47.7856  7374.63  85.0973
 47.8276  7213.27  84.18
 47.8696  7207.53  84.2245
 47.9116  7356.69  84.8041
 47.9536  7217.19  83.912
 47.9956  7183.74  84.4525
 48.0376  7228.78  84.485
 48.0796  7273.33  84.8758
 48.1216  7384.31  85.3376
 48.1636  7290.99  84.4024
 48.2056  7261.94  84.4703
 48.2476  7187.69  84.3789
 48.2896  7324.22  85.0515
 48.3316  7156.72  83.9884
 48.3736  7179.99  84.1764
 48.4156  7089.76  83.469
 48.4576  7107.28  83.8899
 48.4996  7223.39  84.0266
 48.5416  7146.85  83.9373
 48.5836  7121.1  83.4375
 48.6256  7211.62  84.2033
 48.6676  7093.5  83.9893
 48.7096  7154.45  83.5969
 48.7516  7172.09  83.8605
 48.7936  7035.47  83.1071
 48.8356  7123.48  83.6988
 48.8776  7223.69  84.8614
 48.9196  7246.93  84.3928
 48.9616  7069.38  83.702
 49.0036  7156.17  84.5933
 49.0456  6940.04  83.252
 49.0876  7031.43  83.3208
 49.1296  6938.86  82.9621
 49.1716  6937.75  82.7956
 49.2136  7051.91  83.4323
 49.2556  7134.57  83.9437
 49.2976  7101.61  83.8511
 49.3396  7061.81  83.6322
 49.3816  7185.93  83.8263
 49.4236  7101.87  83.7359
 49.4656  6925.19  82.6787
 49.5076  7150.44  83.7797
 49.5496  6954.06  82.6862
 49.5916  7044.26  83.1379
 49.6336  7088.97  83.6129
 49.6756  7031.72  83.5354
 49.7176  7065.32  83.6401
 49.7596  7091.96  83.567
 49.8016  7101.9  83.5347
 49.8436  6936.84  82.8333
 49.8856  6927.14  82.8091
 49.9276  6948.05  83.0288
 49.9696  7011.78  83.3969
 50.0116  6978.19  83.3363
 50.0536  6975.48  83.2605
 50.0956  6937.93  83.1048
 50.1376  7003.36  83.1956
 50.1796  6846.43  82.5237
 50.2216  6910.78  82.9033
 50.2636  6950.94  82.765
 50.3056  6817.03  82.1333
 50.3476  6873.63  82.4994
 50.3896  6845.74  82.3022
 50.4316  6968.42  82.8713
 50.4736  6851.58  82.391
 50.5156  6967.55  83.0507
 50.5576  6998.1  83.0068
 50.5996  6849.18  82.4014
 50.6416  6784.98  81.9527
 50.6836  6786.82  82.0351
 50.7256  6916.22  82.7222
 50.7676  6886.64  82.9135
 50.8096  6921.67  82.6071
 50.8516  6858.78  82.6446
 50.8936  6882.29  82.5461
 50.9356  7023.51  83.5208
 50.9776  6827.71  82.4699
 51.0196  6710.08  81.8587
 51.0616  6775.93  81.602
 51.1036  6923.32  82.8263
 51.1456  6782.33  81.9029
 51.1876  6932.09  82.1294
 51.2296  6944.92  82.8486
 51.2716  6757.34  81.4064
 51.3136  6738.31  81.7616
 51.3556  6808.31  81.7978
 51.3976  6727.97  81.4812
 51.4396  6724.24  81.7554
 51.4816  6754.95  81.7995
 51.5236  6813.67  82.2561
 51.5656  6801.67  81.7733
 51.6076  6759.65  81.6186
 51.6496  6799.33  82.0153
 51.6916  6713.62  81.8836
 51.7336  6699.96  81.8614
 51.7756  6771.12  82.0108
 51.8176  6706.4  81.72
 51.8596  6671.91  81.5256
 51.9016  6855.1  82.2412
 51.9436  6700.61  82.8095
 51.9856  6578.75  82.5226
 52.0276  6822.92  82.5153
 52.0696  6724.79  82.021
 52.1116  6644.18  81.5716
 52.1536  6701.95  81.7922
 52.1956  6784.51  81.7715
 52.2376  6801.15  82.078
 52.2796  6767.1  81.6855
 52.3216  6646.1  81.6475
 52.3636  6608  80.9908
 52.4056  6584.9  80.696
 52.4476  6556.16  80.8967
 52.4896  6695.35  81.7983
 52.5316  6570.39  81.1165
 52.5736  6592.87  80.9136
 52.6156  6654.5  81.7267
 52.6576  6709.88  81.447
 52.6996  6495.98  81.1358
 52.7416  6555.47  81.3256
 52.7836  6732.18  82.3174
 52.8256  6604.41  80.7515
 52.8676  6431.45  80.2803
 52.9096  6571.23  81.2346
 52.9516  6559.74  81.5275
 52.9936  6577.47  82.0463
 53.0356  6508.92  80.6542
 53.0776  6506.58  80.9043
 53.1196  6409.48  80.4215
 53.1616  6493.27  80.9929
 53.2036  6312.17  79.803
 53.2456  6315.09  79.9232
 53.2876  6486.24  80.7108
 53.3296  6511.56  81.1944
 53.3716  6461.4  80.642
 53.4136  6343.29  80.0329
 53.4556  6365.71  80.206
 53.4976  6469.17  80.7046
 53.5396  6425.88  80.8052
 53.5816  6486.16  80.836
 53.6236  6406.67  80.6733
 53.6656  6412.34  80.3471
 53.7076  6483.16  80.7504
 53.7496  6498.1  80.9819
 53.7916  6590.37  81.6613
 53.8336  6307.39  79.805
 53.8756  6307.52  80.3389
 53.9176  6460.45  80.627
 53.9596  6441.18  81.2244
 54.0016  6414.79  80.4078
 54.0436  6407.89  80.5517
 54.0856  6495.15  80.5499
 54.1276  6432.27  80.3616
 54.1696  6400.77  80.3346
 54.2116  6440.05  80.3648
 54.2536  6399.19  79.896
 54.2956  6506.44  80.608
 54.3376  6367.96  80.2293
 54.3796  6344.66  79.983
 54.4216  6462.43  80.7703
 54.4636  6386.12  80.2487
 54.5056  6434.82  80.3798
 54.5476  6368.68  80.2964
 54.5896  6420.58  80.4242
 54.6316  6479.34  80.6771
 54.6736  6535.78  81.1056
 54.7156  6433.18  80.4894
 54.7576  6362.82  80.0435
 54.7996  6367.61  80.2547
 54.8416  6360.24  80.2169
 54.8836  6308.33  80.0265
 54.9256  6372.61  80.1553
 54.9676  6451.5  80.4835
 55.0096  6366.52  80.0441
 55.0516  6393.15  80.4201
 55.0936  6354.76  79.8274
 55.1356  6341.63  79.7892
 55.1776  6361.4  80.2131
 55.2196  6496.89  80.8139
 55.2616  6368  80.2504
 55.3036  6337.69  80.1913
 55.3456  6390.24  80.648
 55.3876  6359.74  80.2225
 55.4296  6388.59  80.3584
 55.4716  6332.73  80.0629
 55.5136  6387.31  80.1615
 55.5556  6329.3  79.8982
 55.5976  6335.7  79.962
 55.6396  6366.95  80.0295
 55.6816  6363.81  79.9661
 55.7236  6431.19  80.4124
 55.7656  6384.79  79.8986
 55.8076  6403.77  79.9765
 55.8496  6319.39  79.9297
 55.8916  6325.79  80.0379
 55.9336  6348.55  80.0249
 55.9756  6383.25  80.1024
 56.0176  6334.61  79.9529
 56.0596  6289.5  79.6519
 56.1016  6399.94  80.3349
 56.1436  6247.08  79.6584
 56.1856  6357.14  80.0743
 56.2276  6292.98  79.7712
 56.2696  6300.57  79.7591
 56.3116  6275.52  80.0306
 56.3536  6297.62  79.8045
 56.3956  6320.04  79.9417
 56.4376  6317.92  79.9591
 56.4796  6406.78  80.2986
 56.5216  6281.32  79.9059
 56.5636  6415.93  80.3188
 56.6056  6243.73  79.5113
 56.6476  6293.8  79.429
 56.6896  6338.48  80.1886
 56.7316  6243.25  79.4619
 56.7736  6296.61  79.806
 56.8156  6399.44  80.4523
 56.8576  6297.97  79.7324
 56.8996  6296.9  79.6759
 56.9416  6287.08  79.9254
 56.9836  6220.48  79.034
 57.0256  6341.87  80.1067
 57.0676  6252.81  79.6889
 57.1096  6397.03  80.3592
 57.1516  6370.51  80.2385
 57.1936  6277.67  79.4185
 57.2356  6333.7  80.076
 57.2776  6235.06  79.4271
 57.3196  6294.57  80.1775
 57.3616  6271.92  79.5232
 57.4036  6306.1  79.8021
 57.4456  6240.53  79.379
 57.4876  6334.57  79.7949
 57.5296  6233.3  79.5027
 57.5716  6225.04  79.4381
 57.6136  6230.3  79.2685
 57.6556  6329.51  80.0595
 57.6976  6304.17  79.7179
 57.7396  6219.8  79.5619
 57.7816  6175.68  79.6427
 57.8236  6207.39  79.6379
 57.8656  6271.24  79.6991
 57.9076  6183.7  79.1735
 57.9496  6247.79  79.9378
 57.9916  6139.94  78.7673
 58.0336  6197.14  79.3967
 58.0756  6282.13  79.5386
 58.1176  6240.47  79.3044
 58.1596  6223.19  79.7639
 58.2016  6396.01  80.0032
 58.2436  6209.23  79.2524
 58.2856  6202.37  79.1145
 58.3276  6258.67  79.8667
 58.3696  6242.18  79.5243
 58.4116  6371.79  80.1909
 58.4536  6344.85  79.9214
 58.4956  6272.9  79.6354
 58.5376  6255.11  79.0893
 58.5796  6147.85  78.8196
 58.6216  6234.89  79.1983
 58.6636  6403.26  80.4686
 58.7056  6178.02  78.9126
 58.7476  6251.09  79.8277
 58.7896  6296.39  79.7484
 58.8316  6215.04  79.2487
 58.8736  6340.75  80.0338
 58.9156  6211.34  79.2774
 58.9576  6362.41  80.5297
 58.9996  6388.86  79.9483
 59.0416  6476.9  80.8375
 59.0836  6279.73  79.5449
 59.1256  6178.47  79.6127
 59.1676  6224.83  80.2212
 59.2096  6191.14  79.2636
 59.2516  6442.16  80.4225
 59.2936  6353.9  80.2057
 59.3356  6203.25  79.1254
 59.3776  6467.04  80.965
 59.4196  6225.73  79.3754
 59.4616  6173.3  78.8988
 59.5036  6273.16  79.5705
 59.5456  6390.26  79.9945
 59.5876  6400.53  80.2553
 59.6296  6179.97  78.9303
 59.6716  6178.7  78.9807
 59.7136  6337.28  79.9759
 59.7556  6353.52  80.2181
 59.7976  6119.7  78.4689
 59.8396  6245.37  79.1632
 59.8816  6265.87  79.8482
 59.9236  6340.49  79.9572
 59.9656  6115.54  78.788
 60.0076  6335.19  79.533
 60.0496  6383.2  80.3497
 60.0916  6313.98  79.3201
 60.1336  6085.32  78.9807
 60.1756  6329.37  81.7598
 60.1996  0.0000000E+00  0.0000000E+00