File: docs/examples/opeando_xrd/IS17_D/Data/IS17_D/17_Da_f00084.xye
# /beamlines/bl04/projects/cycle2025-II/20250340211-lsimonelli/DATA/IS17_D/17_Da_f00084.xye : mythproc.py merge -s 0.006 -l 0.5 -f /beamlines/bl04/inhouse/ff/FlatField/ff_20Nov2024rod8mm60s_17keV.raw -b True -c true -o xye /beamlines/bl04/projects/cycle2025-II/20250340211-lsimonelli/DATA/IS17_D/17_Da_00084.dat
# IsMon = [6794451, 6798292, 6796575]  IsPos = [-1.4999, -2.4884, -3.4988]
# Wave = 0.4962  CalPath /beamlines/bl04/projects/cycle2025-II/20250340211-lsimonelli/DATA/Align/Si_Pos1_25keV_f00001.cal
# Date = 2025-09-24_16:57:35 Dt = 4.8000  Bin = 0.0060  <imon> = 6796439 +/- 1571 (Min/Max) 6794451 / 6798292
# icurr 253.0853  mocoIn 1.7261E-05  mocoOut 0.8101  i15 7.10872e+06  imon 6.79644e+06  i7 6.3333  iEMpd_timer 4.8000  iEMpd_1 3.3393E-08  iEMpd_2 7.8261E-08  iEMpd_3 1.6593E-08  iEMpd_4 4.7210E-08  iEMhp_timer 4.8000  iEMhp_1 4.9420E-06  iEMhp_2 -2.5694E-08  iEMhp_3 -2.3704E-08  iEMhp_4 -2.2264E-08
#      9776
 1.5856  40434.7  206.511
 1.6276  47907.7  220.929
 1.6696  54655.5  235.143
 1.7116  63619.5  254.19
 1.7536  72737.3  270.638
 1.7956  77273  279.646
 1.8376  72947.6  272.137
 1.8796  61179.2  247.388
 1.9216  49139.4  222.596
 1.9636  41574.9  203.907
 2.0056  37244.6  192.249
 2.0476  34869.7  188.058
 2.0896  33068.2  182.061
 2.1316  32437  179.449
 2.1736  30867.9  176.443
 2.2156  30807.8  174.857
 2.2576  29937.6  172.988
 2.2996  29073  171.097
 2.3416  29399.4  170.68
 2.3836  28573.4  168.37
 2.4256  27726.8  166.398
 2.4676  27517.2  165.533
 2.5096  27403.8  165.245
 2.5516  28371.2  171.957
 2.5936  43964.8  209.77
 2.6356  27059.6  165.288
 2.6776  26226.8  161.622
 2.7196  25843.8  160.949
 2.7616  25911.3  160.938
 2.8036  25193.8  158.864
 2.8456  25299.1  159.798
 2.8876  24724.4  157.852
 2.9296  24339.2  156.746
 2.9716  24050.6  155.315
 3.0136  23884.9  154.845
 3.0556  23956.2  155.464
 3.0976  23970.9  154.464
 3.1396  23840.5  154.751
 3.1816  23504.3  153.592
 3.2236  23272.3  152.822
 3.2656  23315.5  152.006
 3.3076  23248.1  153.24
 3.3496  23515.1  153.055
 3.3916  23949.8  154.294
 3.4336  24551.1  156.8
 3.4756  24502.2  156.576
 3.5176  25438  159.323
 3.5596  25491.1  161.935
 3.6016  25540.8  159.705
 3.6436  24791.3  158.437
 3.6856  24330.8  155.267
 3.7276  23393.8  153.326
 3.7696  23285.6  153.171
 3.8116  22826.6  151.542
 3.8536  22833.6  151.503
 3.8956  22946.1  151.695
 3.9376  22939.8  151.926
 3.9796  22631.9  150.418
 4.0216  23007.3  150.688
 4.0636  22696.9  151.141
 4.1056  22798  151.114
 4.1476  22916.7  151.831
 4.1896  23145.4  152.441
 4.2316  23271.4  152.69
 4.2736  23888.3  154.482
 4.3156  24053.6  155.243
 4.3576  24747.1  157.396
 4.3996  25014.7  158.495
 4.4416  25628.4  160.016
 4.4836  26342  162.379
 4.5256  26582.5  163.739
 4.5676  26326.1  163.198
 4.6096  26840.2  163.449
 4.6516  27339.7  164.664
 4.6936  27783  166.813
 4.7356  27825.7  166.767
 4.7776  27679.3  166.157
 4.8196  27442.5  166.104
 4.8616  26936.1  164.033
 4.9036  26684.9  163.025
 4.9456  26652.5  163.574
 4.9876  26051.2  161.617
 5.0296  26321.4  162.273
 5.0716  26255  162.845
 5.1136  26401.9  163.011
 5.1556  26828.4  163.776
 5.1976  28528  168.885
 5.2396  27496.1  165.493
 5.2816  27195.2  165.045
 5.3236  27142.9  164.595
 5.3656  26855.4  164.639
 5.4076  26688.8  164.286
 5.4496  26855.5  164.271
 5.4916  26743.7  163.693
 5.5336  27060.4  164.659
 5.5756  26772.8  163.818
 5.6176  27175.5  164.475
 5.6596  27135.2  165.337
 5.7016  27309.1  165.124
 5.7436  27416.3  165.72
 5.7856  27325.2  165.503
 5.8276  27693.6  166.333
 5.8696  27843.4  166.962
 5.9116  27903.7  167.749
 5.9536  27950  167.642
 5.9956  28370.2  168.259
 6.0376  28480.8  169.224
 6.0796  28755.9  169.869
 6.1216  28703.8  169.918
 6.1636  28919.7  169.614
 6.2056  28844.1  170.057
 6.2476  29167.5  170.884
 6.2896  29426.9  171.321
 6.3316  28934.1  170.059
 6.3736  29235.7  170.832
 6.4156  29252.1  170.779
 6.4576  29538.2  171.212
 6.4996  29581.5  171.816
 6.5416  29753  172.456
 6.5836  29785.1  172.778
 6.6256  29705.4  172.109
 6.6676  30206.9  173.122
 6.7096  30040.7  173.502
 6.7516  30504  174.486
 6.7936  30742.6  174.596
 6.8356  30942.8  175.24
 6.8776  31168.6  176.68
 6.9196  31146.9  177.024
 6.9616  31772.9  178.228
 7.0036  32017  178.567
 7.0456  31933.8  177.629
 7.0876  32039.4  179.619
 7.1296  32068.7  178.832
 7.1716  31749.4  177.484
 7.2136  31598.4  176.838
 7.2556  31954.6  177.994
 7.2976  31947.8  178.474
 7.3396  31891.5  178.527
 7.3816  31535  177.745
 7.4236  31952.9  178.207
 7.4656  32240  178.49
 7.5076  32528.1  179.421
 7.5496  32556.2  180.042
 7.5916  32337.3  179.465
 7.6336  32750.3  180.504
 7.6756  32830.7  180.577
 7.7176  33332.9  182.267
 7.7596  33219.4  183.208
 7.8016  34589.1  189.178
 7.8436  34020.5  184.253
 7.8856  34425.6  184.954
 7.9276  34760.4  186.251
 7.9696  35190.8  187.713
 8.0116  36167.2  188.822
 8.0536  36367  189.602
 8.0956  36514.3  191.168
 8.1376  36613.7  190.902
 8.1796  36675.6  191.601
 8.2216  37648.7  192.864
 8.2636  38067.1  194.181
 8.3056  37720.9  194.078
 8.3476  38884.1  196.361
 8.3896  38106.4  194.47
 8.4316  38021.3  194.415
 8.4736  38545.2  195.209
 8.5156  37896.5  193.841
 8.5576  37590.1  194.029
 8.5996  37823.1  193.494
 8.6416  37691.3  194.421
 8.6836  37434  193.599
 8.7256  38016.9  194.531
 8.7676  37935.5  197.27
 8.8096  38058  194.881
 8.8516  37021.4  191.813
 8.8936  37660  193.362
 8.9356  36569.9  190.886
 8.9776  36985.1  192.056
 9.0196  36563.1  190.631
 9.0616  36912.9  191.003
 9.1036  36905  192.183
 9.1456  36611.1  190.768
 9.1876  36411.7  190.204
 9.2296  36537.6  189.929
 9.2716  35837.2  188.167
 9.3136  35856.1  188.2
 9.3556  36125.7  188.887
 9.3976  34525  185.184
 9.4396  35026.9  186.419
 9.4816  34725.4  185.473
 9.5236  34676.1  185.251
 9.5656  34411.4  184.87
 9.6076  34317.7  185.15
 9.6496  34239.1  184.86
 9.6916  34145.9  184.575
 9.7336  34181.4  184.453
 9.7756  34301.5  186.035
 9.8176  33502.7  183.348
 9.8596  33333.5  181.325
 9.9016  32899.1  180.134
 9.9436  32523.2  179.011
 9.9856  32182.9  178.302
 10.0276  32074.3  179.112
 10.0696  32547  179.456
 10.1116  31565.6  176.987
 10.1536  31582.7  177.209
 10.1956  30538.7  173.859
 10.2376  30529.5  173.339
 10.2796  30754.2  174.097
 10.3216  30372.8  173.285
 10.3636  30395.5  173.383
 10.4056  30529  174.153
 10.4476  30683.8  174.224
 10.4896  31343.9  175.527
 10.5316  30474.5  173.793
 10.5736  29850.5  172.427
 10.6156  29366.1  170.791
 10.6576  30560.8  172.746
 10.6996  29252.6  169.682
 10.7416  28777.8  168.544
 10.7836  29044  170.013
 10.8256  28311.9  168.299
 10.8676  28536.6  168.483
 10.9096  28042.7  167.072
 10.9516  27644.9  164.808
 10.9936  28023.2  166.134
 11.0356  27747.3  165.952
 11.0776  27978.5  165.94
 11.1196  27502.9  165.278
 11.1616  27056.8  163.62
 11.2036  27160  163.785
 11.2456  27487.4  165.481
 11.2876  26780.9  163.081
 11.3296  26506  162.135
 11.3716  26922.7  163.098
 11.4136  26926.3  164.016
 11.4556  27130.5  164.297
 11.4976  27636.2  164.769
 11.5396  27759  165.303
 11.5816  26941.1  163.317
 11.6236  26476.2  162.114
 11.6656  26271.8  160.653
 11.7076  25738.5  159.852
 11.7496  25644.9  163.508
 11.7916  25576.1  158.607
 11.8336  25365.1  158.841
 11.8756  25033.5  157.335
 11.9176  25158.4  157.372
 11.9596  24807.5  156.466
 12.0016  24821.7  157.307
 12.0436  24735.4  156.455
 12.0856  24569  156.454
 12.1276  24653.8  156.643
 12.1696  24690.3  155.89
 12.2116  25007.9  156.875
 12.2536  24775  156.985
 12.2956  24544.9  155.584
 12.3376  24316.2  155.071
 12.3796  24642.4  156.566
 12.4216  24313.3  154.738
 12.4636  24344.6  155.763
 12.5056  24189.3  154.532
 12.5476  24453.8  154.903
 12.5896  24440.8  155.493
 12.6316  24031.9  154.351
 12.6736  24150  155.217
 12.7156  24117.2  154.971
 12.7576  24028.6  154.93
 12.7996  24389.5  154.723
 12.8416  24236.6  155.294
 12.8836  24857.2  157.095
 12.9256  24810.3  155.949
 12.9676  24896.8  156.653
 13.0096  24629  156.919
 13.0516  24946.3  156.948
 13.0936  24706.5  156.595
 13.1356  24870.4  156.095
 13.1776  24778.9  156.802
 13.2196  24786.8  156.479
 13.2616  24827.8  156.92
 13.3036  24854.7  156.978
 13.3456  24687.6  156.803
 13.3876  24894.8  156.757
 13.4296  24725.5  156.367
 13.4716  24850.7  156.374
 13.5136  24883.8  156.633
 13.5556  24866.4  157.186
 13.5976  24886.7  157.391
 13.6396  25259  157.93
 13.6816  24802.7  157.001
 13.7236  25468.6  158.729
 13.7656  24820.2  157.24
 13.8076  25116.2  156.943
 13.8496  24472.7  155.522
 13.8916  24513  156.651
 13.9336  24501.3  155.834
 13.9756  24276.8  154.47
 14.0176  24185.8  154.856
 14.0596  24511.6  155.873
 14.1016  23835.7  154.095
 14.1436  23766.4  153.01
 14.1856  23467.8  152.337
 14.2276  23280.6  152.218
 14.2696  23772.1  153.656
 14.3116  23194.3  151.671
 14.3536  22843  150.701
 14.3956  22758.1  150.144
 14.4376  22886.5  150.351
 14.4796  22913.6  150.427
 14.5216  22436.4  149.657
 14.5636  22607.1  149.782
 14.6056  22475.9  148.927
 14.6476  22370.6  147.8
 14.6896  22060.7  147.314
 14.7316  21680.1  147.07
 14.7736  21741.3  146.416
 14.8156  21386.2  145.253
 14.8576  21370.1  145.053
 14.8996  20932.8  144.769
 14.9416  20637.6  143.744
 14.9836  20750.4  144.088
 15.0256  20472.9  142.04
 15.0676  20581.6  142.741
 15.1096  20381.3  141.78
 15.1516  20042.7  141.152
 15.1936  20226  141.222
 15.2356  19630.7  139.408
 15.2776  19531  138.639
 15.3196  19383.4  139.122
 15.3616  19377.4  138.856
 15.4036  19277.9  138.352
 15.4456  19368.6  138.326
 15.4876  19049  136.86
 15.5296  18912.9  136.656
 15.5716  18867.8  136.081
 15.6136  18710.9  135.854
 15.6556  19034.4  136.248
 15.6976  18666.3  135.22
 15.7396  18632.7  135.497
 15.7816  18411.7  134.19
 15.8236  18084.5  133.705
 15.8656  18161.2  133.774
 15.9076  18152.7  133.568
 15.9496  17862.1  135.303
 15.9916  17889.7  135.847
 16.0336  17603.8  131.65
 16.0756  17666.4  132.192
 16.1176  17530  131.754
 16.1596  17053.5  131.128
 16.2016  17287  130.763
 16.2436  17179.9  130.747
 16.2856  16935.6  129.354
 16.3276  16707.9  128.898
 16.3696  16834.2  129.203
 16.4116  16921.9  130.006
 16.4536  17007.4  130.117
 16.4956  16944.9  129.61
 16.5376  16894.7  129.611
 16.5796  16601.2  127.837
 16.6216  16699.3  128.52
 16.6636  16603.1  128.296
 16.7056  16669.9  128.428
 16.7476  16690  128.025
 16.7896  16526.1  128.15
 16.8316  16676.3  128.699
 16.8736  16396.5  127.878
 16.9156  16578.3  128.916
 16.9576  16276.9  128.535
 16.9996  16560.1  130.146
 17.0416  16500.4  128.241
 17.0836  16506.6  128.032
 17.1256  16144.5  126.628
 17.1676  16427.4  127.724
 17.2096  16109.4  126.355
 17.2516  15847.6  125.107
 17.2936  16040.3  126.193
 17.3356  15698.8  124.851
 17.3776  15664.2  124.903
 17.4196  15697.3  124.717
 17.4616  15622.1  124.346
 17.5036  15452.2  124.029
 17.5456  15318.6  124.14
 17.5876  15308  123.139
 17.6296  15379.6  123.245
 17.6716  15419.4  123.983
 17.7136  15219.8  123.326
 17.7556  15211.8  123.583
 17.7976  15141.5  123.036
 17.8396  15025.5  122.061
 17.8816  15063.1  122.76
 17.9236  15017.7  122.385
 17.9656  15291.4  124.04
 18.0076  15231.1  123.373
 18.0496  15265  122.629
 18.0916  16349.5  127.471
 18.1336  15716.8  125.079
 18.1756  15486.7  123.678
 18.2176  15398.9  123.568
 18.2596  15053.5  121.904
 18.3016  15240  122.913
 18.3436  15413.8  123.62
 18.3856  15073.8  122.388
 18.4276  15153.3  122.373
 18.4696  15071.6  122.151
 18.5116  15027.5  122.259
 18.5536  15043.1  122.693
 18.5956  14724.4  120.927
 18.6376  14804.8  121.663
 18.6796  14708.2  120.585
 18.7216  14805.1  121.475
 18.7636  14569.1  120.501
 18.8056  14560.7  120.403
 18.8476  14485.1  120.72
 18.8896  14502.3  120.118
 18.9316  14572.5  120.399
 18.9736  14375.6  119.274
 19.0156  14603.4  120.62
 19.0576  14359.1  118.475
 19.0996  14603.5  120.197
 19.1416  14201.3  118.927
 19.1836  14260.2  118.766
 19.2256  14290  119.106
 19.2676  14266.3  119.1
 19.3096  14373.8  119.797
 19.3516  14228.9  119.147
 19.3936  14155.7  118.742
 19.4356  14219  118.88
 19.4776  14277.9  119.224
 19.5196  14325.5  119.27
 19.5616  14294  119.399
 19.6036  14185  118.437
 19.6456  14174.3  118.511
 19.6876  14547.6  119.701
 19.7296  14226.1  118.835
 19.7716  14308.9  119.338
 19.8136  14384  119.867
 19.8556  14590.8  120.191
 19.8976  14627.1  120.411
 19.9396  14626.1  119.977
 19.9816  14727.1  120.636
 20.0236  14905.2  121.585
 20.0656  14721  120.824
 20.1076  14243.6  119.319
 20.1496  14158  118.961
 20.1916  14131.5  118.366
 20.2336  13898.2  117.32
 20.2756  13745  117.096
 20.3176  13583.8  116.153
 20.3596  13771.2  116.93
 20.4016  13703  116.445
 20.4436  13819.4  117.495
 20.4856  13476.1  115.824
 20.5276  13495.4  116.366
 20.5696  13543.8  116.035
 20.6116  13554.4  116.351
 20.6536  13542.2  115.813
 20.6956  13457.4  115.57
 20.7376  13393.3  115.523
 20.7796  13393.8  115.206
 20.8216  13570.5  115.674
 20.8636  13411.8  115.368
 20.9056  13614.5  116.185
 20.9476  13270.7  114.549
 20.9896  13674.7  116.144
 21.0316  13509.5  115.332
 21.0736  13432.7  115.528
 21.1156  13479.4  115.894
 21.1576  13544.3  116.222
 21.1996  13259.4  114.975
 21.2416  13267.3  114.841
 21.2836  13397.3  115.364
 21.3256  13223.4  114.694
 21.3676  13330.5  114.703
 21.4096  13317.7  114.961
 21.4516  13093  113.866
 21.4936  12965.3  113.562
 21.5356  13203.9  114.548
 21.5776  13309.9  114.836
 21.6196  13074.8  113.85
 21.6616  13072.5  113.934
 21.7036  12983.4  113.327
 21.7456  13051.5  113.695
 21.7876  12981.8  113.137
 21.8296  12928.5  112.758
 21.8716  12856.8  112.681
 21.9136  12973.4  113.394
 21.9556  13063  113.452
 21.9976  12919.3  112.842
 22.0396  12925.1  113.125
 22.0816  12965.8  113.851
 22.1236  13075.3  113.773
 22.1656  12864.7  112.979
 22.2076  12998.7  113.032
 22.2496  12877  112.525
 22.2916  12985.5  112.883
 22.3336  12904.2  113.256
 22.3756  12980.5  113.312
 22.4176  12892.6  112.777
 22.4596  12601.1  112.092
 22.5016  12870.9  112.764
 22.5436  13017  113.288
 22.5856  12826.9  112.704
 22.6276  12856  112.969
 22.6696  12851  113.296
 22.7116  12814.3  112.649
 22.7536  12749.4  112.342
 22.7956  12795.8  111.864
 22.8376  12718.7  112.064
 22.8796  12924.4  112.759
 22.9216  12967  113.506
 22.9636  12833.9  112.061
 23.0056  12718.2  111.691
 23.0476  12823.2  112.725
 23.0896  13073.8  113.187
 23.1316  12952.4  113.105
 23.1736  12836.3  115.577
 23.2156  12873.7  113.105
 23.2576  12824.4  113.017
 23.2996  12749.6  112.473
 23.3416  12741.8  112.954
 23.3836  12669  111.868
 23.4256  12810.9  112.611
 23.4676  12720.9  111.912
 23.5096  12672.5  112.376
 23.5516  12739.2  111.95
 23.5936  12763.3  112.97
 23.6356  12851.2  113.013
 23.6776  12720.7  112.649
 23.7196  12680.2  112.053
 23.7616  12682.7  111.977
 23.8036  12749.8  112.321
 23.8456  12757.7  111.917
 23.8876  12335.9  110.409
 23.9296  12597.1  112.058
 23.9716  12342.2  110.114
 24.0136  12550.5  111.937
 24.0556  12397.5  110.99
 24.0976  12305.4  110.39
 24.1396  12288.2  112.949
 24.1816  12323.4  111.54
 24.2236  12210.4  110.628
 24.2656  12246.2  110.264
 24.3076  12101.2  109.861
 24.3496  12166.8  110.045
 24.3916  11996.7  109.326
 24.4336  12026.8  109.673
 24.4756  12077  109.773
 24.5176  11858.3  108.42
 24.5596  11939.2  108.914
 24.6016  11664.9  107.943
 24.6436  11862  108.33
 24.6856  11797.8  107.808
 24.7276  11960.6  108.866
 24.7696  11774.3  108.132
 24.8116  11860.9  108.701
 24.8536  11557.6  107.309
 24.8956  11648.5  107.464
 24.9376  11548.7  106.943
 24.9796  11358.1  106.411
 25.0216  11388.4  106.666
 25.0636  11564.6  107.133
 25.1056  11276.4  106.497
 25.1476  11479.9  109.146
 25.1896  11505.1  107.711
 25.2316  11468.1  106.804
 25.2736  11382.5  106.055
 25.3156  11350.6  105.988
 25.3576  11397.5  106.63
 25.3996  11286.1  106.088
 25.4416  11372  106.47
 25.4836  11115.4  105.789
 25.5256  11228.6  105.689
 25.5676  11333.5  105.906
 25.6096  11120.3  105.484
 25.6516  11294.2  105.796
 25.6936  11162.7  105.495
 25.7356  11128.8  105.473
 25.7776  11160.3  105.227
 25.8196  10927.6  104.359
 25.8616  11109.6  105.139
 25.9036  11280.1  105.407
 25.9456  11211.9  105.688
 25.9876  10985.9  104.686
 26.0296  11184.9  105.134
 26.0716  11031.7  104.841
 26.1136  11223.5  105.692
 26.1556  11297.3  105.406
 26.1976  11115.4  105.488
 26.2396  11068.1  104.411
 26.2816  11126.5  105.301
 26.3236  11068.6  105.186
 26.3656  11101.7  105.073
 26.4076  11147.6  105.498
 26.4496  11605.7  107.108
 26.4916  11128.5  104.905
 26.5336  11089.5  105.043
 26.5756  11155.9  105.227
 26.6176  11021.2  104.63
 26.6596  10821.8  103.987
 26.7016  10839.9  103.83
 26.7436  10771.4  103.639
 26.7856  10792.8  103.722
 26.8276  10694.7  103.207
 26.8696  10816.1  103.664
 26.9116  10771.4  103.385
 26.9536  10722.1  103.2
 26.9956  10822.6  103.712
 27.0376  10688.8  103.29
 27.0796  10659.9  102.865
 27.1216  10561.8  102.482
 27.1636  10499.5  102.344
 27.2056  10659  102.999
 27.2476  10561.1  102.525
 27.2896  10612.4  102.883
 27.3316  10504.4  102.074
 27.3736  10498.7  102.309
 27.4156  10460.7  101.971
 27.4576  10373.1  101.773
 27.4996  10404.6  101.522
 27.5416  10479.3  102.205
 27.5836  10388.7  101.576
 27.6256  10787.4  103.671
 27.6676  10616.6  102.873
 27.7096  10363.5  101.496
 27.7516  10517  102.408
 27.7936  10495.9  102.477
 27.8356  10462.2  101.928
 27.8776  10325.8  101.301
 27.9196  10279  100.924
 27.9616  10434.4  101.878
 28.0036  10372  101.546
 28.0456  10358  101.607
 28.0876  10199.4  100.923
 28.1296  10151.4  100.524
 28.1716  10239.9  100.974
 28.2136  10290.3  101.183
 28.2556  10133.8  100.525
 28.2976  10127.6  100.487
 28.3396  10239  100.795
 28.3816  10231.9  100.782
 28.4236  10238.5  100.966
 28.4656  10024.3  99.9411
 28.5076  10148.1  100.195
 28.5496  9996.4  99.7012
 28.5916  10062.6  99.8413
 28.6336  10004.8  99.8958
 28.6756  10219.5  100.152
 28.7176  9990.38  99.5711
 28.7596  10005.3  99.5422
 28.8016  9980.64  99.4522
 28.8436  9980.14  99.6972
 28.8856  9966.48  99.4774
 28.9276  9959.53  99.6919
 28.9696  9932.03  99.2054
 29.0116  9949.32  99.4849
 29.0536  9742.57  98.6446
 29.0956  9948.86  99.3988
 29.1376  9894.03  99.0838
 29.1796  9847.07  98.8962
 29.2216  9844.47  98.7252
 29.2636  9879.13  98.9703
 29.3056  9749.17  98.1113
 29.3476  9816.45  98.9763
 29.3896  9892.65  99.4483
 29.4316  9993.04  99.2851
 29.4736  9878.99  98.7822
 29.5156  9872.56  98.665
 29.5576  9864.19  99.3725
 29.5996  9908.41  98.8465
 29.6416  9636.04  97.5898
 29.6836  9837.14  98.5337
 29.7256  9767.58  98.7549
 29.7676  9852.53  98.8374
 29.8096  9732.97  98.1818
 29.8516  9719.68  98.4546
 29.8936  9679.61  98.338
 29.9356  9852.94  98.9702
 29.9776  9786.67  98.7882
 30.0196  9715.09  97.808
 30.0616  9703.06  98.1307
 30.1036  9705.29  97.9617
 30.1456  9646.72  97.9073
 30.1876  9615.22  97.7198
 30.2296  9666.1  97.9245
 30.2716  9794.89  98.211
 30.3136  9682.39  98.5121
 30.3556  9703.05  98.6303
 30.3976  9659.7  99.9468
 30.4396  9665.49  97.3002
 30.4816  9813.8  97.6384
 30.5236  9695.62  97.0674
 30.5656  9665.35  97.5732
 30.6076  9638.92  96.8614
 30.6496  9762.89  97.878
 30.6916  9604.79  97.1749
 30.7336  9695.13  97.7853
 30.7756  9500.4  96.891
 30.8176  9478.59  96.6951
 30.8596  9504.6  96.5959
 30.9016  9475.29  96.7903
 30.9436  9430.6  96.3154
 30.9856  9494.26  96.7461
 31.0276  9523.04  96.491
 31.0696  9291.66  95.894
 31.1116  9539.94  97.1414
 31.1536  9506.75  96.8539
 31.1956  9374.9  96.2693
 31.2376  9283.1  95.8041
 31.2796  9459  96.2441
 31.3216  9386.56  95.8175
 31.3636  9414.73  96.6485
 31.4056  9503.15  98.4474
 31.4476  9339.85  95.4631
 31.4896  9314.25  95.8359
 31.5316  9419  95.7699
 31.5736  9539.37  96.1963
 31.6156  9539.44  96.222
 31.6576  9557.23  96.4113
 31.6996  9353.72  95.0509
 31.7416  9315.16  95.9118
 31.7836  9335.84  95.0346
 31.8256  9281.57  95.0337
 31.8676  9291.75  95.0812
 31.9096  9258.04  95.2645
 31.9516  9030.82  94.2411
 31.9936  9207.23  94.9844
 32.0356  9333.55  95.6957
 32.0776  9262.12  95.2217
 32.1196  9351.9  95.7658
 32.1616  9267.68  94.7973
 32.2036  9130.71  94.6078
 32.2456  9211.01  95.4026
 32.2876  9245.49  95.0738
 32.3296  9162.69  94.6112
 32.3716  9141.29  94.6051
 32.4136  9156.66  94.8975
 32.4556  9323.27  95.1242
 32.4976  9323.55  95.0359
 32.5396  9097.15  93.9512
 32.5816  9109.21  94.1308
 32.6236  9188.27  94.6127
 32.6656  9239.8  95.4201
 32.7076  9085.03  94.2698
 32.7496  9067.68  93.848
 32.7916  9043.71  93.6886
 32.8336  9125.98  94.2052
 32.8756  9148.43  94.0412
 32.9176  8968.01  93.5908
 32.9596  8980.42  93.7337
 33.0016  9030.24  93.7889
 33.0436  9099.58  94.3191
 33.0856  9046.32  94.1145
 33.1276  8973.49  93.4624
 33.1696  8977.82  93.3264
 33.2116  9169.57  94.5531
 33.2536  9059.24  93.9851
 33.2956  9100.86  94.2824
 33.3376  8950.45  93.2384
 33.3796  9100.45  94.2249
 33.4216  9146.31  94.0535
 33.4636  8971.38  93.3003
 33.5056  8880.18  93.0579
 33.5476  8868.5  92.9982
 33.5896  9079.21  93.8578
 33.6316  8951.67  93.5295
 33.6736  8791.75  92.9192
 33.7156  8930.3  93.6947
 33.7576  8927.42  93.3058
 33.7996  9046.9  93.695
 33.8416  8669.88  91.9008
 33.8836  8920.17  92.9971
 33.9256  8843.83  92.6643
 33.9676  8894.24  92.8194
 34.0096  8729.73  92.2759
 34.0516  8704.51  91.778
 34.0936  8683.98  91.9268
 34.1356  8811.65  92.347
 34.1776  8843.66  92.5216
 34.2196  8637.36  91.622
 34.2616  8691.46  92.038
 34.3036  8696.63  92.3181
 34.3456  8800.04  92.6152
 34.3876  8673.72  91.9165
 34.4296  8892.52  92.7525
 34.4716  8802.71  92.427
 34.5136  8664.87  91.9132
 34.5556  8685.65  92.2741
 34.5976  8837.18  92.8775
 34.6396  8756.22  92.1582
 34.6816  8783.13  92.4198
 34.7236  8819.2  92.3899
 34.7656  8746.15  92.1983
 34.8076  8644.22  91.9828
 34.8496  8709.86  92.1918
 34.8916  8700.97  92.0207
 34.9336  8784.58  92.4174
 34.9756  8669.59  91.7319
 35.0176  8723.31  92.5544
 35.0596  8647.57  91.9758
 35.1016  8542.25  91.1775
 35.1436  8777.95  92.1093
 35.1856  8600.61  91.3063
 35.2276  8575.43  91.3417
 35.2696  8595.85  91.6475
 35.3116  8644.69  92.0026
 35.3536  8520.51  91.0452
 35.3956  8513.95  90.7145
 35.4376  8540.68  91.4153
 35.4796  8620.08  91.9075
 35.5216  8557.33  91.5261
 35.5636  8321.69  91.0015
 35.6056  8560.73  91.3063
 35.6476  8581.69  91.319
 35.6896  8674  91.893
 35.7316  8534.48  91.1248
 35.7736  8457.19  90.9122
 35.8156  8406.43  90.64
 35.8576  8464.76  91.2043
 35.8996  8653.25  92.1768
 35.9416  8812.59  92.4675
 35.9836  8448.11  90.9304
 36.0256  8613.97  91.8414
 36.0676  8538.7  91.1931
 36.1096  8493.65  91.0937
 36.1516  8461.2  90.808
 36.1936  8513.97  90.9391
 36.2356  8444.35  91.2111
 36.2776  8438.54  90.6553
 36.3196  8462.01  90.4492
 36.3616  8557.45  91.0944
 36.4036  8462.2  90.6357
 36.4456  8489.69  90.9996
 36.4876  8333.97  90.1027
 36.5296  8392.47  90.4591
 36.5716  8361.31  91.0723
 36.6136  8501.91  90.5835
 36.6556  8659.85  91.6383
 36.6976  8388.54  90.6888
 36.7396  8347.44  90.1933
 36.7816  8442.07  91.0851
 36.8236  8322.17  90.3493
 36.8656  8234.89  89.9462
 36.9076  8392.89  90.6865
 36.9496  8300.64  90.1808
 36.9916  8298.81  89.7974
 37.0336  8533.34  91.379
 37.0756  8368.73  90.2811
 37.1176  8104.54  89.1123
 37.1596  8387.08  90.6599
 37.2016  8239.05  90.0827
 37.2436  8490.37  90.7458
 37.2856  8342.51  90.2101
 37.3276  8314.86  89.4076
 37.3696  8322.58  90.3445
 37.4116  8354.76  90.427
 37.4536  8294.31  89.9649
 37.4956  8144.33  89.1869
 37.5376  8328.59  91.7678
 37.5796  8221.87  91.1368
 37.6216  8074.78  88.5892
 37.6636  8126.97  88.7832
 37.7056  8124.85  88.9622
 37.7476  8184.32  88.8199
 37.7896  8166.05  89.2157
 37.8316  7988.42  88.4216
 37.8736  8373.42  90.0401
 37.9156  8106.85  88.5968
 37.9576  8130.4  88.6183
 37.9996  8024.13  87.7517
 38.0416  8174.8  89.3845
 38.0836  8246.87  89.6797
 38.1256  8125.41  88.973
 38.1676  8037.56  88.6376
 38.2096  8142.9  88.8392
 38.2516  8203.53  89.3724
 38.2936  8194.55  89.124
 38.3356  8139.51  88.7324
 38.3776  8195.24  89.3172
 38.4196  8163.87  88.9983
 38.4616  7982.26  88.2385
 38.5036  8222.53  89.3909
 38.5456  8011.45  89.0736
 38.5876  8075.91  89.4587
 38.6296  7940.09  87.6849
 38.6716  8008.92  87.8581
 38.7136  7936.76  87.4009
 38.7556  7982.91  88.1604
 38.7976  8154.21  89.0389
 38.8396  7851.03  87.8211
 38.8816  7933.81  88.0613
 38.9236  7887.76  87.6188
 38.9656  8083.17  88.6093
 39.0076  8138.39  88.3116
 39.0496  8076.11  88.5158
 39.0916  8145.87  88.5389
 39.1336  7989.6  88.1005
 39.1756  7905.64  87.706
 39.2176  8040.61  88.9843
 39.2596  7904.7  88.1538
 39.3016  8022.4  88.372
 39.3436  7913.43  88.2
 39.3856  8099.33  88.6715
 39.4276  8028.58  88.7771
 39.4696  8002.64  88.2644
 39.5116  7888.16  88.1455
 39.5536  8131.03  89.921
 39.5956  8074.43  88.6954
 39.6376  8031.71  88.4703
 39.6796  7943.03  87.7175
 39.7216  8079.74  88.5677
 39.7636  7991.99  88.6598
 39.8056  8052.41  88.7698
 39.8476  7958.74  88.5123
 39.8896  7979.3  88.2553
 39.9316  7873.95  87.9231
 39.9736  8082.9  88.6397
 40.0156  8103.18  88.5716
 40.0576  8063.45  88.7228
 40.0996  8069.92  87.9411
 40.1416  8036  88.5489
 40.1836  8165.9  89.1477
 40.2256  8121.31  88.9547
 40.2676  7960.93  88.1801
 40.3096  8073.23  88.7076
 40.3516  8102.17  88.9899
 40.3936  8081.99  88.4363
 40.4356  8006.74  88.2092
 40.4776  7999.26  88.5934
 40.5196  8094.61  89.242
 40.5616  8156.57  89.2258
 40.6036  8046.37  88.8688
 40.6456  8078.95  88.6577
 40.6876  8143.35  89.0006
 40.7296  8148.97  89.1656
 40.7716  8068.01  88.8506
 40.8136  8043.53  88.6593
 40.8556  8072.72  88.9573
 40.8976  8033.97  88.6569
 40.9396  7989.29  88.77
 40.9816  8114.89  88.7411
 41.0236  8049.13  88.1596
 41.0656  8108.99  89.0274
 41.1076  8120.83  88.8601
 41.1496  8126.35  88.804
 41.1916  8022.04  88.5535
 41.2336  7936.14  88.0691
 41.2756  8053.63  88.3229
 41.3176  7997.19  88.6322
 41.3596  8006.54  88.4085
 41.4016  8105.16  89.218
 41.4436  8097.61  88.9557
 41.4856  8052.43  88.8747
 41.5276  7982.15  88.4994
 41.5696  7994.78  88.2042
 41.6116  8072.6  89.0326
 41.6536  8075.07  88.9002
 41.6956  8024.16  88.6767
 41.7376  7986.19  88.4912
 41.7796  7956.87  88.221
 41.8216  7939.64  88.3535
 41.8636  8073.08  89.0305
 41.9056  7896.08  87.8372
 41.9476  8122.99  89.3253
 41.9896  8032.29  88.4915
 42.0316  8041.17  88.621
 42.0736  7992.95  88.4722
 42.1156  7884.04  87.7049
 42.1576  7955.39  88.1969
 42.1996  7981.31  88.4868
 42.2416  8055.75  88.4734
 42.2836  8045.62  88.5286
 42.3256  7991.13  88.348
 42.3676  8000.27  88.2021
 42.4096  8016.07  88.2531
 42.4516  7894.31  87.6719
 42.4936  7886.62  87.6943
 42.5356  7894.37  87.872
 42.5776  8002.38  88.41
 42.6196  8052.65  88.7356
 42.6616  7886.08  87.9907
 42.7036  8012.31  88.0684
 42.7456  7932.21  87.9869
 42.7876  7921.43  88.0297
 42.8296  7947.03  88.0048
 42.8716  7827.97  87.4959
 42.9136  7849.75  87.4093
 42.9556  7948.17  88.088
 42.9976  7898.91  87.777
 43.0396  7743.74  86.6461
 43.0816  7847.36  87.6006
 43.1236  7805.97  87.4307
 43.1656  7894.58  87.753
 43.2076  7786.97  87.2593
 43.2496  7832.95  87.3275
 43.2916  7796.38  87.4912
 43.3336  7886.74  87.832
 43.3756  7848.05  87.3664
 43.4176  7726.83  86.7756
 43.4596  7793.12  87.0015
 43.5016  7808.86  87.4958
 43.5436  7698.51  86.7745
 43.5856  7714.64  86.8916
 43.6276  7798.29  87.2569
 43.6696  7778.11  87.4034
 43.7116  7779.76  86.9098
 43.7536  7844.05  87.7607
 43.7956  7714.44  88.2359
 43.8376  7770.5  87.0726
 43.8796  7698.98  86.7528
 43.9216  7704.56  86.7017
 43.9636  7766.16  87.1572
 44.0056  7786.04  87.5046
 44.0476  7708.59  86.6944
 44.0896  7679.9  86.8795
 44.1316  7787.46  87.0024
 44.1736  7666.17  86.4478
 44.2156  7734.56  86.6795
 44.2576  7616.67  86.3498
 44.2996  7759.52  87.1246
 44.3416  7674.83  86.409
 44.3836  7496.21  85.7073
 44.4256  7536.24  85.5988
 44.4676  7550.45  85.8332
 44.5096  7700.97  86.8278
 44.5516  7517.69  85.7447
 44.5936  7549.62  85.8904
 44.6356  7572.7  85.7588
 44.6776  7605.15  86.2571
 44.7196  7523.35  86.1057
 44.7616  7634.56  88.0678
 44.8036  7514.87  85.8156
 44.8456  7660.62  86.8521
 44.8876  7536.84  85.9944
 44.9296  7744.99  86.6201
 44.9716  7532.27  85.8482
 45.0136  7607.27  86.2147
 45.0556  7584.27  86.0568
 45.0976  7448.82  85.4474
 45.1396  7406.64  84.9698
 45.1816  7381.24  84.7543
 45.2236  7536.05  85.5364
 45.2656  7455.21  85.5797
 45.3076  7398.21  85.0314
 45.3496  7543.94  86.1769
 45.3916  7377.68  85.4839
 45.4336  7399.39  85.4625
 45.4756  7372.82  85.1621
 45.5176  7554.27  85.8197
 45.5596  7594.17  86.1682
 45.6016  7318.36  85.0027
 45.6436  7489.52  85.1659
 45.6856  7371.18  85.147
 45.7276  7423.09  86.7668
 45.7696  7407.3  86.3383
 45.8116  7361.7  85.5106
 45.8536  7201.75  84.4735
 45.8956  7423.05  85.1116
 45.9376  7465.45  84.818
 45.9796  7403.1  85.1409
 46.0216  7503  86.0683
 46.0636  7499.41  85.1835
 46.1056  7460.67  84.9504
 46.1476  7315.74  84.709
 46.1896  7491.15  85.8671
 46.2316  7185.56  83.9736
 46.2736  7315.78  85.0949
 46.3156  7394.89  85.138
 46.3576  7327.43  84.9543
 46.3996  7239.71  84.5981
 46.4416  7415.93  85.202
 46.4836  7357.88  85.2175
 46.5256  7422.33  85.5335
 46.5676  7320.53  85.0576
 46.6096  7391.83  85.4081
 46.6516  7332.57  84.1107
 46.6936  7329.02  84.5762
 46.7356  7284.32  84.4247
 46.7776  7157.1  84.5157
 46.8196  7243.05  84.6197
 46.8616  7153.83  84.0422
 46.9036  7164.2  83.7685
 46.9456  7130.28  83.2117
 46.9876  7179.78  83.5855
 47.0296  7247.92  84.6663
 47.0716  7137.62  83.8437
 47.1136  7199.31  83.8858
 47.1556  7152.85  83.483
 47.1976  7326.94  84.5756
 47.2396  7126.8  83.805
 47.2816  7138.8  83.5748
 47.3236  7153.11  84.0297
 47.3656  7240.94  84.4696
 47.4076  7079.68  83.3341
 47.4496  7039.92  83.1924
 47.4916  7091.75  83.6896
 47.5336  7134.17  83.7552
 47.5756  7189.94  84.1987
 47.6176  7119.19  83.6819
 47.6596  7026.9  82.8536
 47.7016  7226.95  83.8392
 47.7436  7102.4  83.447
 47.7856  7224.65  84.1999
 47.8276  7107.64  83.5446
 47.8696  7139.74  83.8299
 47.9116  7179.47  83.7735
 47.9536  7117.41  83.3579
 47.9956  7057.92  83.7074
 48.0376  7075.7  83.5851
 48.0796  7157.8  84.1964
 48.1216  7281.56  84.7358
 48.1636  7272.79  84.2686
 48.2056  7232.26  84.2967
 48.2476  7168.26  84.23
 48.2896  7096.42  83.7198
 48.3316  7067.49  83.4852
 48.3736  6997.77  83.0993
 48.4156  6941.92  82.6178
 48.4576  7026.85  83.4133
 48.4996  7152.94  83.6161
 48.5416  7052.7  83.3543
 48.5836  7051.07  83.0187
 48.6256  7133.81  83.7153
 48.6676  7076.37  83.8832
 48.7096  7031.04  82.8921
 48.7516  7027.85  83.0219
 48.7936  6947.8  82.6074
 48.8356  7131.17  83.743
 48.8776  7042.96  83.7843
 48.9196  7127.4  83.6592
 48.9616  6935.46  82.9019
 49.0036  6996.18  83.6092
 49.0456  6967.26  83.4126
 49.0876  6944.22  82.8276
 49.1296  6924.6  82.8525
 49.1716  6864.86  82.3777
 49.2136  6999  83.1072
 49.2556  6885.71  82.4648
 49.2976  6987.45  83.1405
 49.3396  6880.56  82.5533
 49.3816  7019.61  82.8273
 49.4236  6914.1  82.6119
 49.4656  6891.04  82.4928
 49.5076  6968.31  82.7044
 49.5496  6840.69  82.0055
 49.5916  6839.41  81.912
 49.6336  6984.64  82.9716
 49.6756  6917.39  82.8245
 49.7176  6954.74  82.9792
 49.7596  6911.34  82.4947
 49.8016  7007.14  82.9815
 49.8436  6869.36  82.4532
 49.8856  6924.14  82.7871
 49.9276  6787.91  82.0657
 49.9696  6821.97  82.26
 50.0116  6946.8  83.1389
 50.0536  6822.11  82.3369
 50.0956  6857.24  82.6202
 50.1376  6885.68  82.4873
 50.1796  6778.23  82.1118
 50.2216  6808.37  82.2851
 50.2636  6870.62  82.2802
 50.3056  6820.78  82.1553
 50.3476  6749.02  81.7428
 50.3896  6805.79  82.0598
 50.4316  6841.1  82.1101
 50.4736  6728.86  81.6473
 50.5156  6850.19  82.3668
 50.5576  6889.9  82.3699
 50.5996  6795.42  82.0829
 50.6416  6746.1  81.7114
 50.6836  6792.13  82.0493
 50.7256  6749.26  81.7248
 50.7676  6792.71  82.2925
 50.8096  6742.87  81.5372
 50.8516  6719.65  81.8063
 50.8936  6707.97  81.521
 50.9356  6731.78  81.7657
 50.9776  6823.65  82.4762
 51.0196  6605.13  81.2683
 51.0616  6621.88  80.6979
 51.1036  6747.2  81.8202
 51.1456  6719.47  81.5622
 51.1876  6670.79  80.6194
 51.2296  6714.52  81.5118
 51.2716  6641.78  80.775
 51.3136  6722.24  81.7073
 51.3556  6639.36  80.8462
 51.3976  6548.17  80.4368
 51.4396  6574.92  80.8872
 51.4816  6641.87  81.1633
 51.5236  6689.33  81.5401
 51.5656  6721.39  81.3379
 51.6076  6682.81  81.1801
 51.6496  6675.92  81.3391
 51.6916  6546.16  80.8903
 51.7336  6594.86  81.2813
 51.7756  6655.56  81.3607
 51.8176  6683.09  81.6336
 51.8596  6544.5  80.7892
 51.9016  6609.03  80.8038
 51.9436  6600.81  82.1892
 51.9856  6524.18  82.1481
 52.0276  6621.49  81.2833
 52.0696  6592.6  81.1755
 52.1116  6664.65  81.7314
 52.1536  6527.17  80.7737
 52.1956  6570.87  80.5124
 52.2376  6709.68  81.5341
 52.2796  6567.01  80.4689
 52.3216  6460.45  80.5001
 52.3636  6514.74  80.4193
 52.4056  6462.44  79.9434
 52.4476  6553.38  80.8749
 52.4896  6460.94  80.3519
 52.5316  6431.84  80.2085
 52.5736  6562.61  80.7532
 52.6156  6575.69  81.2158
 52.6576  6647.59  81.1022
 52.6996  6332.53  80.1127
 52.7416  6529.17  81.1898
 52.7836  6515.16  80.9966
 52.8256  6541.27  80.3895
 52.8676  6388.57  80.013
 52.9096  6588.99  81.3397
 52.9516  6504.09  81.18
 52.9936  6418.47  81.0323
 53.0356  6560.64  80.9205
 53.0776  6334.15  79.7705
 53.1196  6374.51  80.1506
 53.1616  6283.7  79.6246
 53.2036  6324.58  79.8376
 53.2456  6311.81  79.8628
 53.2876  6361.11  79.8776
 53.3296  6404.49  80.4739
 53.3716  6391.4  80.1432
 53.4136  6349.67  80.0249
 53.4556  6300.27  79.7438
 53.4976  6289.93  79.5275
 53.5396  6273.09  79.8019
 53.5816  6399.22  80.2435
 53.6236  6238.65  79.5683
 53.6656  6333.32  79.8005
 53.7076  6373.98  80.0163
 53.7496  6355.53  80.0201
 53.7916  6345.44  80.0808
 53.8336  6200.83  79.0662
 53.8756  6285.29  80.1462
 53.9176  6309.89  79.6471
 53.9596  6415.67  81.0863
 54.0016  6417.37  80.4246
 54.0436  6377.85  80.3949
 54.0856  6426.85  80.1229
 54.1276  6321.38  79.6681
 54.1696  6338.17  79.9426
 54.2116  6367.86  79.8871
 54.2536  6411.09  79.9738
 54.2956  6367.75  79.7474
 54.3376  6224.09  79.3233
 54.3796  6314.77  79.7967
 54.4216  6345.83  80.0441
 54.4636  6284.42  79.6157
 54.5056  6326.53  79.6983
 54.5476  6168.32  79.0262
 54.5896  6431.29  80.5285
 54.6316  6376.65  80.0385
 54.6736  6284.28  79.5277
 54.7156  6302.7  79.6673
 54.7576  6202.27  79.0268
 54.7996  6362.87  80.1807
 54.8416  6390.36  80.408
 54.8836  6134.63  78.8895
 54.9256  6252.99  79.3985
 54.9676  6344.24  79.8339
 55.0096  6262.52  79.383
 55.0516  6305.5  79.8882
 55.0936  6288.4  79.41
 55.1356  6262.03  79.2882
 55.1776  6256.3  79.5173
 55.2196  6308.86  79.6353
 55.2616  6178.9  79.0263
 55.3036  6189.09  79.2454
 55.3456  6166.21  79.2418
 55.3876  6230.83  79.4072
 55.4296  6301.7  79.8298
 55.4716  6177.88  79.0779
 55.5136  6317.67  79.7215
 55.5556  6260.71  79.4352
 55.5976  6182.78  78.9978
 55.6396  6237.14  79.2948
 55.6816  6222.21  79.0756
 55.7236  6303.37  79.6265
 55.7656  6274.54  79.2059
 55.8076  6345  79.6328
 55.8496  6175.6  78.8769
 55.8916  6154.15  78.9447
 55.9336  6217.62  79.1597
 55.9756  6113.39  78.3928
 56.0176  6164.13  78.8705
 56.0596  6163.65  78.8509
 56.1016  6206.83  79.1372
 56.1436  6104.14  78.7414
 56.1856  6250.11  79.4148
 56.2276  6225.77  79.3143
 56.2696  6281.48  79.6432
 56.3116  6128.09  79.067
 56.3536  6165.19  78.9655
 56.3956  6152.55  78.8753
 56.4376  6147.32  78.8745
 56.4796  6253.42  79.3473
 56.5216  6252.23  79.7209
 56.5636  6190.94  78.9195
 56.6056  6237.1  79.4475
 56.6476  6196.91  78.8204
 56.6896  6274.66  79.7625
 56.7316  6101.07  78.5463
 56.7736  6214.28  79.2838
 56.8156  6283.85  79.7229
 56.8576  6152.01  78.8193
 56.8996  6177.73  78.9296
 56.9416  6169.68  79.1754
 56.9836  6065.98  78.027
 57.0256  6134.29  78.7798
 57.0676  6160.31  79.0748
 57.1096  6228.05  79.2958
 57.1516  6262  79.5743
 57.1936  6208.83  78.983
 57.2356  6166.6  79.0309
 57.2776  6202.16  79.2125
 57.3196  6175.83  79.4199
 57.3616  6132.67  78.6359
 57.4036  6122.67  78.6331
 57.4456  6084.7  78.3545
 57.4876  6201.48  78.9578
 57.5296  6131.21  78.8528
 57.5716  6072.43  78.461
 57.6136  6196.99  79.0751
 57.6556  6284.76  79.7788
 57.6976  6298.84  79.687
 57.7396  6125.18  78.956
 57.7816  6111.93  79.2319
 57.8236  6142.82  79.2266
 57.8656  6184.85  79.1511
 57.9076  6118.6  78.7498
 57.9496  6132.93  79.1958
 57.9916  6133.2  78.7125
 58.0336  6148.26  79.0813
 58.0756  6115.48  78.5101
 58.1176  6107.05  78.4535
 58.1596  6088.1  78.8987
 58.2016  6180.02  78.7076
 58.2436  6205.86  79.2799
 58.2856  6161.52  78.9193
 58.3276  6249.87  79.8635
 58.3696  6069.4  78.442
 58.4116  6065.48  78.2909
 58.4536  6225.14  79.1951
 58.4956  6084.56  78.4816
 58.5376  6193.74  78.7508
 58.5796  6107.25  78.6246
 58.6216  6191.1  78.9671
 58.6636  6260.88  79.6387
 58.7056  6130.67  78.657
 58.7476  6117.51  79.0227
 58.7896  6106.45  78.594
 58.8316  6249.76  79.5026
 58.8736  6187.14  79.1114
 58.9156  6205.96  79.2787
 58.9576  6294.73  80.1695
 58.9996  6283.24  79.3186
 59.0416  6334.44  80.0209
 59.0836  6160.89  78.847
 59.1256  6196.2  79.7727
 59.1676  6179.48  79.9817
 59.2096  6196.08  79.3961
 59.2516  6344.31  79.9109
 59.2936  6199.64  79.3268
 59.3356  6304.03  79.867
 59.3776  6293.59  79.9734
 59.4196  6104.78  78.7004
 59.4616  6259.25  79.5471
 59.5036  6174.35  79.0395
 59.5456  6417.48  80.2667
 59.5876  6302.84  79.7417
 59.6296  6123.47  78.6686
 59.6716  6115.39  78.675
 59.7136  6196.28  79.1818
 59.7556  6165.84  79.1249
 59.7976  6231.43  79.2827
 59.8396  6236.42  79.207
 59.8816  6204.85  79.5595
 59.9236  6234.96  79.3899
 59.9656  6108.05  78.84
 60.0076  6137.54  78.3821
 60.0496  6257.58  79.658
 60.0916  6283  79.2259
 60.1336  6163.08  79.5848
 60.1756  6057.44  80.0859
 60.1996  0.0000000E+00  0.0000000E+00