File: docs/examples/opeando_xrd/IS17_D/Data/IS17_D/17_Db_f00013.xye
# /beamlines/bl04/projects/cycle2025-II/20250340211-lsimonelli/DATA/IS17_D/17_Db_f00013.xye : mythproc.py merge -s 0.006 -l 0.5 -f /beamlines/bl04/inhouse/ff/FlatField/ff_20Nov2024rod8mm60s_17keV.raw -b True -c true -o xye /beamlines/bl04/projects/cycle2025-II/20250340211-lsimonelli/DATA/IS17_D/17_Db_00013.dat
# IsMon = [6779684, 6783458, 6783346]  IsPos = [-1.5000, -2.4885, -3.4986]
# Wave = 0.4962  CalPath /beamlines/bl04/projects/cycle2025-II/20250340211-lsimonelli/DATA/Align/Si_Pos1_25keV_f00001.cal
# Date = 2025-09-23_21:18:00 Dt = 4.8000  Bin = 0.0060  <imon> = 6782163 +/- 1753 (Min/Max) 6779684 / 6783458
# icurr 253.1038  mocoIn 1.7269E-05  mocoOut 0.8103  i15 7.0995e+06  imon 6.78216e+06  i7 4.3333  iEMpd_timer 4.8000  iEMpd_1 3.4216E-08  iEMpd_2 7.7153E-08  iEMpd_3 1.6905E-08  iEMpd_4 4.6282E-08  iEMhp_timer 4.8000  iEMhp_1 4.9452E-06  iEMhp_2 -2.4292E-08  iEMhp_3 -2.3587E-08  iEMhp_4 -2.0749E-08
#      9776
 1.5856  41198.6  208.46
 1.6276  48277.5  221.788
 1.6696  54205.5  234.182
 1.7116  61983.7  250.91
 1.7536  70186.7  265.86
 1.7956  74265.3  274.159
 1.8376  71021  268.529
 1.8796  60775.8  246.592
 1.9216  50018.3  224.586
 1.9636  42784  207.382
 2.0056  38527  195.538
 2.0476  36114.4  191.392
 2.0896  34621  186.294
 2.1316  33606.6  182.662
 2.1736  31981.3  179.604
 2.2156  32361.8  179.219
 2.2576  31408.4  177.192
 2.2996  30157.3  174.265
 2.3416  30689.4  174.393
 2.3836  30123.7  172.884
 2.4256  29300  171.06
 2.4676  29157.2  170.4
 2.5096  29635.2  171.848
 2.5516  39161.9  201.988
 2.5936  174088  417.483
 2.6356  33793.2  184.698
 2.6776  27738.9  166.242
 2.7196  26547.6  163.114
 2.7616  26142.4  161.655
 2.8036  25522.2  159.877
 2.8456  25516.4  160.499
 2.8876  25058.6  158.887
 2.9296  24471.9  157.168
 2.9716  24307.7  156.147
 3.0136  23938.6  155.017
 3.0556  24176.2  156.172
 3.0976  24232  155.278
 3.1396  23558.1  153.805
 3.1816  23358.3  153.098
 3.2236  23151.6  152.398
 3.2656  23111.2  151.348
 3.3076  22980.5  152.346
 3.3496  23364.8  152.809
 3.3916  23445  152.658
 3.4336  23813.6  154.415
 3.4756  24391.3  156.233
 3.5176  24975.8  157.871
 3.5596  24540.5  159.408
 3.6016  24944.3  157.82
 3.6436  23943.8  155.694
 3.6856  23682.3  153.196
 3.7276  22642.7  150.841
 3.7696  22690.4  150.992
 3.8116  22039.1  148.896
 3.8536  22206.2  149.394
 3.8956  22435.6  149.99
 3.9376  23106.2  152.508
 3.9796  22018.1  148.354
 4.0216  22064.7  147.569
 4.0636  22270.8  149.695
 4.1056  21923  148.182
 4.1476  22213.6  149.46
 4.1896  22332.6  149.726
 4.2316  22723.1  150.865
 4.2736  22873.1  151.166
 4.3156  23200.5  152.465
 4.3576  24058  155.171
 4.3996  24162.4  155.573
 4.4416  25060.7  158.226
 4.4836  26508.3  162.895
 4.5256  26344.8  163.005
 4.5676  25569.9  160.833
 4.6096  26267.4  162.048
 4.6516  26874.5  163.25
 4.6936  26822.1  163.903
 4.7356  27900.7  166.987
 4.7776  27042.3  164.224
 4.8196  26670.4  163.746
 4.8616  26015.1  161.341
 4.9036  26009.1  160.939
 4.9456  26157.7  162.04
 4.9876  25239.7  159.073
 5.0296  25244  158.925
 5.0716  25096.5  159.052
 5.1136  25010.6  158.654
 5.1556  25759.5  160.473
 5.1976  37314.1  193.131
 5.2396  26470.8  162.372
 5.2816  25824.4  160.842
 5.3236  25785.6  160.417
 5.3656  25594.5  160.733
 5.4076  25265.6  159.833
 5.4496  25137.3  158.928
 5.4916  25379.8  159.461
 5.5336  25124.9  158.665
 5.5756  25296.2  159.226
 5.6176  25163.3  158.257
 5.6596  25329.4  159.585
 5.7016  25525  159.633
 5.7436  25575.4  160.065
 5.7856  25529.6  159.986
 5.8276  25579.6  159.859
 5.8696  26068.3  161.447
 5.9116  25685.5  160.915
 5.9536  26085.1  161.944
 5.9956  26326.6  162.094
 6.0376  26418.4  162.975
 6.0796  26538.4  163.187
 6.1216  26622.5  163.626
 6.1636  27061.7  164.059
 6.2056  26794.2  163.897
 6.2476  27407.3  165.465
 6.2896  27377.7  165.238
 6.3316  27412  165.519
 6.3736  27348.8  165.212
 6.4156  27466.1  165.513
 6.4576  27989.6  166.659
 6.4996  27637.9  166.066
 6.5416  27941.3  167.113
 6.5836  28266.9  168.302
 6.6256  27953.5  166.942
 6.6676  28476.2  168.072
 6.7096  28468.5  168.901
 6.7516  28664.8  169.144
 6.7936  30610.6  173.949
 6.8356  30795.8  174.815
 6.8776  29950.1  173.183
 6.9196  29481.5  172.217
 6.9616  29761.4  172.459
 7.0036  30138.7  173.233
 7.0456  30506  173.607
 7.0876  30428.9  174.956
 7.1296  30052.7  173.115
 7.1716  30114.6  172.84
 7.2136  29802.1  171.721
 7.2556  29975.2  172.373
 7.2976  30120.8  173.28
 7.3396  29834.3  172.664
 7.3816  30038  173.466
 7.4236  30359.8  173.702
 7.4656  30769.4  174.344
 7.5076  30887.9  174.824
 7.5496  30322  173.736
 7.5916  30607.8  174.597
 7.6336  31726.8  177.655
 7.6756  31005.1  175.475
 7.7176  31685.1  177.707
 7.7596  31608.9  178.692
 7.8016  38992.4  200.903
 7.8436  32094.9  178.957
 7.8856  32029.9  178.399
 7.9276  32585.1  180.321
 7.9696  32644.1  180.787
 8.0116  33714.6  182.665
 8.0536  34367.5  184.307
 8.0956  37094.8  192.68
 8.1376  34729.9  185.924
 8.1796  34909.6  186.926
 8.2216  35753.1  187.934
 8.2636  37170.7  191.879
 8.3056  36024.3  189.656
 8.3476  38126.9  194.433
 8.3896  36827.1  191.607
 8.4316  35894.6  188.896
 8.4736  36334.1  189.527
 8.5156  36018.3  188.973
 8.5576  35639  188.922
 8.5996  35452.1  187.332
 8.6416  35416.2  188.468
 8.6836  34996.2  187.186
 8.7256  36278.9  190.039
 8.7676  39523.6  201.395
 8.8096  39919.8  199.598
 8.8516  36924.4  191.591
 8.8936  38700.4  196.041
 8.9356  36501  190.727
 8.9776  35904.9  189.229
 9.0196  35745.6  188.497
 9.0616  36448.1  189.834
 9.1036  38434.6  196.145
 9.1456  35052  186.65
 9.1876  34745.5  185.774
 9.2296  34253  183.9
 9.2716  34064  183.438
 9.3136  34030.6  183.342
 9.3556  34518  184.624
 9.3976  33039.7  181.145
 9.4396  33210.9  181.51
 9.4816  33184.7  181.31
 9.5236  32982.5  180.646
 9.5656  32386.2  179.354
 9.6076  31670.2  177.861
 9.6496  32242.6  179.342
 9.6916  31755  177.936
 9.7336  32077.9  178.632
 9.7756  32038.7  179.722
 9.8176  31520.8  177.828
 9.8596  31610.4  176.551
 9.9016  31065.5  175.01
 9.9436  31037  174.687
 9.9856  31519.9  176.488
 10.0276  30194.3  173.777
 10.0696  30721  174.34
 10.1116  30301.1  173.402
 10.1536  29922.7  171.987
 10.1956  29150.5  169.847
 10.2376  28951.7  168.81
 10.2796  28924.7  168.823
 10.3216  28604.3  168.008
 10.3636  28622.9  168.255
 10.4056  33272.8  181.823
 10.4476  33939.7  183.229
 10.4896  38999.8  195.783
 10.5316  35502.7  187.202
 10.5736  28993  169.937
 10.6156  28965.6  169.62
 10.6576  35324.1  185.716
 10.6996  28831.1  168.493
 10.7416  27617.8  165.118
 10.7836  28392.7  168.083
 10.8256  26434.6  162.607
 10.8676  26223  161.508
 10.9096  26442.6  162.22
 10.9516  25689.4  158.861
 10.9936  27065  163.27
 11.0356  26553.9  162.31
 11.0776  28658.3  167.944
 11.1196  28562.8  168.459
 11.1616  26052.1  160.552
 11.2036  27676.8  165.328
 11.2456  29528  171.521
 11.2876  25734.8  159.857
 11.3296  25657.5  159.527
 11.3716  25928.3  160.095
 11.4136  25246.3  158.812
 11.4556  25663.4  159.771
 11.4976  27396.1  164.053
 11.5396  27488.8  164.502
 11.5816  25442.7  158.695
 11.6236  24500.7  156.169
 11.6656  24868.6  156.298
 11.7076  24078.3  154.597
 11.7496  24305.3  159.273
 11.7916  25200.9  157.414
 11.8336  23598.8  153.226
 11.8756  24378.5  155.263
 11.9176  23685.5  152.954
 11.9596  23637.5  152.735
 12.0016  23339.8  152.521
 12.0436  23106.5  151.22
 12.0856  22899.4  151.029
 12.1276  22996.3  151.303
 12.1696  23218  151.16
 12.2116  23531.8  152.177
 12.2536  26592.5  162.614
 12.2956  23476.4  152.147
 12.3376  23450.6  152.288
 12.3796  23045  151.424
 12.4216  23408.6  151.827
 12.4636  24720.8  156.977
 12.5056  22884.3  150.309
 12.5476  23047.6  150.364
 12.5896  22465  149.079
 12.6316  22770.6  150.241
 12.6736  22680.7  150.276
 12.7156  23130.9  151.756
 12.7576  22862.5  151.105
 12.7996  23119.7  150.625
 12.8416  23366.8  152.473
 12.8836  24237  155.086
 12.9256  23618.6  152.165
 12.9676  23239.3  151.323
 13.0096  23358.3  152.82
 13.0516  23106.2  151.045
 13.0936  23082.7  151.094
 13.1356  23657.5  152.216
 13.1776  23492  152.686
 13.2196  23149  151.216
 13.2616  22867.2  150.598
 13.3036  23356.2  152.335
 13.3456  22802.2  150.479
 13.3876  23700.5  152.915
 13.4296  23199.2  151.449
 13.4716  23471.3  151.971
 13.5136  23449.2  152.029
 13.5556  23428.3  152.573
 13.5976  23354.2  152.503
 13.6396  23697  152.981
 13.6816  23761.5  153.535
 13.7236  24069  154.223
 13.7656  26100.4  161.058
 13.8076  27488.7  163.93
 13.8496  25329.7  158.218
 13.8916  24050.2  155.094
 13.9336  22914.1  150.669
 13.9756  23056.3  150.533
 14.0176  22808.4  150.382
 14.0596  23859.8  153.748
 14.1016  23005.9  151.394
 14.1436  22606  149.228
 14.1856  22346.7  148.655
 14.2276  22561.5  149.842
 14.2696  22902.6  150.819
 14.3116  21815.4  147.103
 14.3536  21527.2  146.29
 14.3956  21172.3  144.812
 14.4376  21626.9  146.148
 14.4796  21432.9  145.497
 14.5216  21004.9  144.799
 14.5636  21807.8  147.12
 14.6056  21228  144.713
 14.6476  20990.6  143.169
 14.6896  20552.8  142.196
 14.7316  20002.8  141.28
 14.7736  19982.8  140.372
 14.8156  19928.1  140.203
 14.8576  20142.7  140.814
 14.8996  19727.4  140.521
 14.9416  19419.8  139.446
 14.9836  19287.5  138.949
 15.0256  18832.7  136.236
 15.0676  18522.3  135.409
 15.1096  18340.5  134.493
 15.1516  18201.3  134.516
 15.1936  18304  134.34
 15.2356  18245.9  134.4
 15.2776  18135.4  133.593
 15.3196  17881.5  133.619
 15.3616  17709  132.737
 15.4036  17450.6  131.631
 15.4456  18035.8  133.26
 15.4876  17561.6  131.403
 15.5296  17389.3  131.035
 15.5716  17059.8  129.408
 15.6136  17150.7  130.065
 15.6556  19391.8  137.523
 15.6976  17722.7  131.55
 15.7396  17393.7  130.912
 15.7816  17306.4  130.099
 15.8236  16647.9  128.276
 15.8656  16633.2  128.022
 15.9076  16905.3  128.889
 15.9496  17945.8  135.63
 15.9916  16635.3  130.975
 16.0336  17077.5  129.629
 16.0756  16639.4  128.278
 16.1176  16509.5  127.672
 16.1596  16239.3  127.948
 16.2016  16186.6  126.521
 16.2436  16287.7  127.297
 16.2856  16284.4  126.807
 16.3276  15746.4  125.127
 16.3696  15906.5  125.588
 16.4116  15867  125.87
 16.4536  15828.5  125.523
 16.4956  17020.3  129.9
 16.5376  16268.8  127.177
 16.5796  15888.2  125.066
 16.6216  15676  124.48
 16.6636  15606.6  124.391
 16.7056  15715.3  124.688
 16.7476  15533.6  123.643
 16.7896  15851.4  125.503
 16.8316  15556.3  124.304
 16.8736  16297.3  127.489
 16.9156  16209.9  127.466
 16.9576  15495.5  125.401
 16.9996  15638.2  126.412
 17.0416  15477.4  124.203
 17.0836  15429.3  123.787
 17.1256  15262.7  123.126
 17.1676  15960.8  125.868
 17.2096  15833.1  125.254
 17.2516  15734  124.953
 17.2936  15065.4  122.32
 17.3356  14961.1  121.877
 17.3776  14595.6  120.568
 17.4196  14679.7  120.62
 17.4616  15133.5  122.373
 17.5036  15512.8  124.265
 17.5456  14710.6  121.63
 17.5876  14470.7  119.719
 17.6296  14783.5  120.822
 17.6716  14835.3  121.62
 17.7136  15728.5  125.364
 17.7556  14682.3  121.403
 17.7976  14551.6  120.463
 17.8396  14719.1  120.803
 17.8816  14170.9  119.079
 17.9236  14180.9  118.922
 17.9656  14366.7  120.379
 18.0076  15079.2  122.745
 18.0496  15995.4  125.513
 18.0916  22409.1  149.233
 18.1336  19277.2  138.519
 18.1756  16130.8  126.248
 18.2176  16545.9  128.083
 18.2596  14242.1  118.564
 18.3016  15120.5  122.436
 18.3436  15821.3  125.494
 18.3856  14898.1  121.669
 18.4276  14222.4  118.572
 18.4696  14354.3  119.199
 18.5116  14420.1  119.734
 18.5536  13909.5  117.966
 18.5956  14188.3  118.702
 18.6376  14316.6  119.639
 18.6796  13990.1  117.602
 18.7216  14144.7  118.78
 18.7636  13990.9  118.096
 18.8056  13432.6  115.625
 18.8476  13303.9  115.394
 18.8896  13285.1  114.965
 18.9316  13571.3  116.012
 18.9736  13428.6  115.265
 19.0156  14024.8  118.194
 19.0576  14099.7  117.38
 19.0996  13634.7  116.134
 19.1416  13775.3  117.127
 19.1836  13320.3  114.784
 19.2256  13050.7  113.831
 19.2676  13364.7  115.276
 19.3096  13141.6  114.544
 19.3516  13522.7  115.982
 19.3936  13422.1  115.682
 19.4356  13471.7  115.721
 19.4776  13300.8  115.069
 19.5196  13296.8  114.912
 19.5616  13289.8  115.128
 19.6036  13354.2  114.784
 19.6456  13425.3  115.338
 19.6876  13909.9  117.031
 19.7296  13497.3  115.747
 19.7716  13284.3  114.855
 19.8136  13733.8  117.121
 19.8556  14063  118.001
 19.8976  14302.8  119.056
 19.9396  13852.2  116.758
 19.9816  14097.1  118.033
 20.0236  14310  119.112
 20.0656  13489.6  115.645
 20.1076  13277.3  115.207
 20.1496  13144.8  114.62
 20.1916  13232.8  114.493
 20.2336  13286.7  114.688
 20.2756  12909.9  113.472
 20.3176  12943  113.375
 20.3596  12738.9  112.462
 20.4016  12781.5  112.453
 20.4436  12898.2  113.528
 20.4856  12805.5  112.912
 20.5276  12717.7  112.97
 20.5696  12756  112.698
 20.6116  12749.1  112.843
 20.6536  12570.5  111.627
 20.6956  12460.2  111.208
 20.7376  12550.5  111.817
 20.7796  12410.2  110.892
 20.8216  12744.3  112.093
 20.8636  13197.5  114.454
 20.9056  14555.6  120.124
 20.9476  13105.9  113.832
 20.9896  14032.6  117.651
 21.0316  12709.1  111.866
 21.0736  13152.3  114.316
 21.1156  13504  115.998
 21.1576  12903.7  113.426
 21.1996  12517.3  111.706
 21.2416  12647  112.112
 21.2836  12796.6  112.752
 21.3256  12640.4  112.134
 21.3676  12643.3  111.681
 21.4096  13020.6  113.713
 21.4516  12516.5  111.311
 21.4936  12179.5  110.056
 21.5356  12492.3  111.416
 21.5776  12651.8  111.963
 21.6196  12643.7  111.962
 21.6616  12733.2  112.444
 21.7036  12417.6  110.818
 21.7456  12294.3  110.337
 21.7876  12060.5  109.052
 21.8296  12015.4  108.699
 21.8716  12104.4  109.322
 21.9136  12444.4  111.049
 21.9556  12651.9  111.65
 21.9976  12463.3  110.841
 22.0396  12222.2  110.012
 22.0816  12209.6  110.466
 22.1236  12651.3  111.915
 22.1656  12210.3  110.135
 22.2076  11998.8  108.592
 22.2496  11991.8  108.589
 22.2916  12106.9  108.994
 22.3336  12126.8  109.775
 22.3756  12009.9  108.992
 22.4176  11834.7  108.049
 22.4596  11515.6  107.151
 22.5016  11899.1  108.435
 22.5436  12006.5  108.802
 22.5856  12253.5  110.158
 22.6276  12340.4  110.672
 22.6696  11881.1  108.948
 22.7116  11727.2  107.766
 22.7536  11773.5  107.955
 22.7956  11878.1  107.778
 22.8376  11649.2  107.246
 22.8796  11774  107.624
 22.9216  11797.6  108.261
 22.9636  11761.3  107.273
 23.0056  11823  107.685
 23.0476  11866.5  108.44
 23.0896  12176  109.232
 23.1316  12222.3  109.87
 23.1736  12047.8  111.961
 23.2156  12325.8  110.599
 23.2576  12319.4  110.778
 23.2996  12059.6  109.379
 23.3416  12280.9  110.906
 23.3836  12105.6  109.328
 23.4256  12302.1  110.357
 23.4676  12186.2  109.526
 23.5096  12320.1  110.779
 23.5516  12135.8  109.259
 23.5936  12296.1  110.881
 23.6356  12502.1  111.473
 23.6776  11992.2  109.697
 23.7196  12162.5  109.95
 23.7616  12053.5  109.16
 23.8036  12221.6  109.981
 23.8456  11915.5  108.155
 23.8876  11975.2  108.776
 23.9296  11693.9  107.962
 23.9716  12046  108.794
 24.0136  12167.3  110.232
 24.0556  11949.8  108.968
 24.0976  11826.3  108.221
 24.1396  11502  109.264
 24.1816  11739.1  109.169
 24.2236  11857.2  109.015
 24.2656  11849.4  108.452
 24.3076  11643.6  107.778
 24.3496  12062.5  109.573
 24.3916  12027.6  109.47
 24.4336  11849.1  108.856
 24.4756  11740.3  108.238
 24.5176  11552.9  106.992
 24.5596  11544.5  107.29
 24.6016  11370.6  106.57
 24.6436  11742  107.81
 24.6856  11573.7  106.772
 24.7276  11556.4  107.015
 24.7696  11502  106.872
 24.8116  11448.5  106.795
 24.8536  11351.7  106.355
 24.8956  11366.9  106.155
 24.9376  11430.1  106.629
 24.9796  11288.8  106.075
 25.0216  11378.4  106.621
 25.0636  11452.6  106.613
 25.1056  11042.3  105.103
 25.1476  10906.7  106.337
 25.1896  10994.4  105.289
 25.2316  10988.8  104.434
 25.2736  10934.9  103.948
 25.3156  10892.4  103.817
 25.3576  10804.4  103.82
 25.3996  10840.8  103.982
 25.4416  10964.8  104.55
 25.4836  10668.9  103.645
 25.5256  10790.2  103.602
 25.5676  10875.5  103.736
 25.6096  10727.3  103.601
 25.6516  10749.1  103.212
 25.6936  10744.4  103.509
 25.7356  10613.1  103.003
 25.7776  10756.7  103.374
 25.8196  10553.3  102.551
 25.8616  10670.1  103.05
 25.9036  11017.3  104.162
 25.9456  10608.3  102.803
 25.9876  10698.4  103.17
 26.0296  10780.6  103.307
 26.0716  10756.9  103.53
 26.1136  10950.1  104.377
 26.1556  10930.4  103.591
 26.1976  10517.4  102.609
 26.2396  10596.3  102.405
 26.2816  10587.4  102.722
 26.3236  10517.1  102.448
 26.3656  10804.6  103.652
 26.4076  10440  102.086
 26.4496  10768.1  103.274
 26.4916  10873.2  103.663
 26.5336  11172.5  105.43
 26.5756  11156.3  105.235
 26.6176  10862.7  103.859
 26.6596  10710.8  103.441
 26.7016  10363.8  101.547
 26.7436  10442  102.024
 26.7856  10141.5  100.535
 26.8276  10153.8  100.566
 26.8696  10355.8  101.43
 26.9116  10244  100.824
 26.9536  10330.5  101.296
 26.9956  10164.8  100.508
 27.0376  10176.8  100.791
 27.0796  10153.3  100.444
 27.1216  10357.2  101.459
 27.1636  10123.3  100.469
 27.2056  10146.2  100.485
 27.2476  10133.9  100.412
 27.2896  9996.48  99.7674
 27.3316  10014.2  99.6346
 27.3736  9936.67  99.5284
 27.4156  9999.01  99.6871
 27.4576  10062.3  100.211
 27.4996  10152.1  100.281
 27.5416  10041.7  100.028
 27.5836  10029.7  99.8114
 27.6256  9971.64  99.7055
 27.6676  9965.58  99.6552
 27.7096  10096.2  100.191
 27.7516  10648.5  103.048
 27.7936  10891  104.368
 27.8356  10579.2  102.458
 27.8776  10473.5  102.023
 27.9196  10261.6  100.843
 27.9616  10356.2  101.506
 28.0036  9990.05  99.6488
 28.0456  9826.74  98.9691
 28.0876  9884.68  99.348
 28.1296  9927.61  99.3964
 28.1716  9946  99.5114
 28.2136  9921.5  99.3559
 28.2556  9883.41  99.2776
 28.2976  9796.43  98.8303
 28.3396  9798.17  98.6391
 28.3816  9831.73  98.7745
 28.4236  9940.54  99.4771
 28.4656  9610.18  97.8541
 28.5076  9446.62  96.6632
 28.5496  9462.6  96.9866
 28.5916  9616.13  97.5908
 28.6336  9651.2  98.1009
 28.6756  9605.91  97.0859
 28.7176  9568.95  97.4437
 28.7596  9431.1  96.6349
 28.8016  9399.56  96.59
 28.8436  9495.69  97.2456
 28.8856  9567.91  97.4673
 28.9276  9573.81  97.7396
 28.9696  9516.4  97.1001
 29.0116  9420.36  96.782
 29.0536  9364.4  96.709
 29.0956  9546.61  97.3572
 29.1376  9524.78  97.2129
 29.1796  9405.96  96.6561
 29.2216  9342.83  96.1666
 29.2636  9443.29  96.6879
 29.3056  9330.73  95.9652
 29.3476  9402.17  96.8545
 29.3896  9408.35  97.0025
 29.4316  9209.07  95.306
 29.4736  9191.73  95.2818
 29.5156  9259.85  95.557
 29.5576  9194.34  95.9382
 29.5996  9136.04  94.9132
 29.6416  9020.4  94.4201
 29.6836  9235.42  95.4732
 29.7256  8962.05  94.5966
 29.7676  9142.29  95.2072
 29.8096  9027.49  94.5568
 29.8516  9010.35  94.7889
 29.8936  9158.6  95.6583
 29.9356  9058.91  94.8975
 29.9776  9145.26  95.4985
 30.0196  9169.77  95.0258
 30.0616  9226.75  95.6903
 30.1036  8996.93  94.3208
 30.1456  8909.72  94.1088
 30.1876  8817.98  93.5828
 30.2296  8980.88  94.3941
 30.2716  9071.5  94.5111
 30.3136  8836.74  93.8561
 30.3556  9324.78  96.6869
 30.3976  9162.11  97.3025
 30.4396  9461.2  96.2575
 30.4816  9412.09  95.6173
 30.5236  9330.8  95.1981
 30.5656  9266.47  95.5174
 30.6076  9164.47  94.7566
 30.6496  9198.59  94.9877
 30.6916  8997.13  94.0318
 30.7336  9100.31  94.7174
 30.7756  9102.09  95.0247
 30.8176  9128.28  94.8768
 30.8596  9053.37  94.2454
 30.9016  9156.54  94.6632
 30.9436  9155.41  94.8542
 30.9856  9284.9  95.6544
 31.0276  9051.27  94.0842
 31.0696  9209.85  95.3276
 31.1116  8955.41  94.1026
 31.1536  9018.47  94.2922
 31.1956  9051.38  94.5762
 31.2376  8813.11  93.3387
 31.2796  9007.94  93.9169
 31.3216  8951.6  93.5395
 31.3636  9048.75  94.7333
 31.4056  8885.38  95.1511
 31.4476  9140.56  94.4464
 31.4896  9117.01  94.8199
 31.5316  9235.9  94.8851
 31.5736  10161.3  99.3056
 31.6156  9622.25  96.6389
 31.6576  9414.96  95.67
 31.6996  9347.36  94.9995
 31.7416  9410.54  96.2716
 31.7836  9279.02  94.7429
 31.8256  9236.47  94.8612
 31.8676  9196.11  94.5666
 31.9096  8965.38  93.5835
 31.9516  8926.85  93.7069
 31.9936  8859.12  93.1717
 32.0356  9097.12  94.4621
 32.0776  9070.44  94.2264
 32.1196  9220.17  95.0207
 32.1616  8942.74  93.1109
 32.2036  8927.42  93.5521
 32.2456  8929.71  93.933
 32.2876  8869.12  92.9406
 32.3296  8866.53  93.072
 32.3716  8723.48  92.4245
 32.4136  8829.2  93.1721
 32.4556  8896.23  92.9818
 32.4976  8943.89  93.1286
 32.5396  8749.25  92.13
 32.5816  8762.86  92.2319
 32.6236  8727.38  92.185
 32.6656  8853.71  93.4066
 32.7076  8612.31  91.7775
 32.7496  8679.47  91.8163
 32.7916  8709.1  91.9381
 32.8336  8720.92  92.0906
 32.8756  8822.9  92.4462
 32.9176  8793.75  92.6827
 32.9596  8786.39  92.7168
 33.0016  8814.78  92.6332
 33.0436  8771.23  92.5877
 33.0856  8669.19  92.1336
 33.1276  8544.27  91.2048
 33.1696  8596.77  91.3152
 33.2116  8677.92  91.9791
 33.2536  8651.77  91.816
 33.2956  8582.53  91.5481
 33.3376  8609.63  91.4891
 33.3796  8645.58  91.8421
 33.4216  8554.99  90.9468
 33.4636  8572.79  91.2033
 33.5056  8419.51  90.4624
 33.5476  8566.32  91.3876
 33.5896  8638.09  91.5407
 33.6316  8606.2  91.6906
 33.6736  8382.38  90.7447
 33.7156  8454.91  91.1634
 33.7576  8521.67  91.1753
 33.7996  8554.35  91.1099
 33.8416  8450.57  90.7419
 33.8836  8434.38  90.4332
 33.9256  8608.63  91.4148
 33.9676  8584.49  91.1912
 34.0096  8472.21  90.8999
 34.0516  8330.5  89.7801
 34.0936  8375.03  90.287
 34.1356  8435.35  90.3583
 34.1776  8312.4  89.6835
 34.2196  8252.19  89.5466
 34.2616  8355.99  90.3056
 34.3036  8370  90.5653
 34.3456  8328.01  90.0903
 34.3876  8469.61  90.9169
 34.4296  8449.52  90.4077
 34.4716  8367.37  90.1214
 34.5136  8369.95  90.3216
 34.5556  8292.89  90.161
 34.5976  8452.3  90.8693
 34.6396  8311.85  89.7922
 34.6816  8481.43  90.8106
 34.7236  8385.12  90.0657
 34.7656  8288.04  89.756
 34.8076  8312.64  90.2178
 34.8496  8171.38  89.2948
 34.8916  8297.41  89.848
 34.9336  8330.73  90.0095
 34.9756  8566.57  91.2243
 35.0176  8327.88  90.4378
 35.0596  8433.86  90.8402
 35.1016  8313.33  89.9465
 35.1436  8458.61  90.4232
 35.1856  8367.98  90.0427
 35.2276  8288.13  89.7813
 35.2696  8257.24  89.8207
 35.3116  8280.71  90.0419
 35.3536  8279.81  89.7683
 35.3956  8209.43  89.0841
 35.4376  8334.36  90.3233
 35.4796  8377.98  90.589
 35.5216  8273.93  89.9246
 35.5636  8029.96  89.3745
 35.6056  8188.42  89.2895
 35.6476  8262.74  89.6032
 35.6896  8203.6  89.4488
 35.7316  8073.24  88.6331
 35.7736  8271.19  89.8988
 35.8156  8311.08  90.1158
 35.8576  8215.26  89.8387
 35.8996  8317.88  90.3698
 35.9416  8220.11  89.3345
 35.9836  8162.66  89.477
 36.0256  8389.73  90.621
 36.0676  8310.06  89.7164
 36.1096  8358.95  90.3521
 36.1516  8326.42  90.0756
 36.1936  8204.51  89.2488
 36.2356  8176.12  89.7451
 36.2776  8237.05  89.5447
 36.3196  8221.09  89.1456
 36.3616  8141.89  88.8352
 36.4036  8071.94  88.5188
 36.4456  8102.31  88.8952
 36.4876  7994.45  88.2426
 36.5296  8043.08  88.5567
 36.5716  8075.5  89.497
 36.6136  8264.28  89.3099
 36.6556  8149.45  88.8913
 36.6976  7939.67  88.2276
 36.7396  7927.06  87.9838
 36.7816  8068.48  89.0452
 36.8236  7817.36  87.5705
 36.8656  7883.26  88.0058
 36.9076  7901.53  88.1193
 36.9496  7873.14  87.9738
 36.9916  7839.55  87.2723
 37.0336  7984.16  88.3869
 37.0756  7880.47  87.6066
 37.1176  7718.9  87.0532
 37.1596  7728.72  87.022
 37.2016  7786.02  87.5196
 37.2436  7881.37  87.4301
 37.2856  7822.59  87.355
 37.3276  7929.2  87.3129
 37.3696  7704.95  86.9295
 37.4116  7816.59  87.4642
 37.4536  7679.33  86.5631
 37.4956  7549.24  85.8717
 37.5376  7936.14  89.6205
 37.5796  7820.63  88.8938
 37.6216  7869.78  87.4678
 37.6636  8013.54  88.1581
 37.7056  7864.29  87.5076
 37.7476  8087.28  88.2928
 37.7896  7829.17  87.3689
 37.8316  7850.93  87.6517
 37.8736  7840.75  87.112
 37.9156  7857.81  87.2135
 37.9576  7764.86  86.7475
 37.9996  7797.16  86.5059
 38.0416  7838.29  87.524
 38.0836  8070.19  88.7113
 38.1256  7950.47  88.0308
 38.1676  7902.44  87.8815
 38.2096  8098.66  88.5833
 38.2516  8057.49  88.4833
 38.2936  7972.6  87.9077
 38.3356  7842.72  87.1153
 38.3776  7819.04  87.234
 38.4196  7791.9  86.9333
 38.4616  7803.46  87.2413
 38.5036  7979.96  88.0704
 38.5456  7773.13  87.7344
 38.5876  7624.44  86.9093
 38.6296  7800.91  86.9024
 38.6716  7830.34  86.8669
 38.7136  7787.56  86.5811
 38.7556  7723.15  86.7173
 38.7976  7784.08  86.9857
 38.8396  7842.73  87.7711
 38.8816  7712.03  86.8354
 38.9236  7764.47  86.9324
 38.9656  7752.91  86.7805
 39.0076  7733.43  86.0802
 39.0496  7856.4  87.3126
 39.0916  8025.74  87.8917
 39.1336  7794.42  87.0184
 39.1756  7723.85  86.6929
 39.2176  7654.37  86.816
 39.2596  7767.15  87.3861
 39.3016  7633.33  86.2215
 39.3436  7727.67  87.1442
 39.3856  7810.29  87.0691
 39.4276  7893.6  88.0389
 39.4696  7796.35  87.121
 39.5116  7843.57  87.8976
 39.5536  7734.29  87.6919
 39.5956  7670.94  86.4508
 39.6376  7751.71  86.7325
 39.6796  7722.83  86.4903
 39.7216  7687.94  86.3917
 39.7636  7847.32  87.8439
 39.8056  7766.58  87.1852
 39.8476  7637.96  86.7067
 39.8896  7768.33  87.0747
 39.9316  7592.26  86.3283
 39.9736  7786.6  87.0036
 40.0156  7664.54  86.1545
 40.0576  7691.33  86.6454
 40.0996  7835.97  86.6542
 40.1416  7734.93  86.8777
 40.1836  7728.29  86.7319
 40.2256  7785.89  87.0839
 40.2676  7620.4  86.3285
 40.3096  7791.05  87.1511
 40.3516  7687.36  86.75
 40.3936  7824.96  87.0072
 40.4356  7706.88  86.5518
 40.4776  7886.59  87.7819
 40.5196  7790.15  87.5387
 40.5616  7822  87.3663
 40.6036  7647.63  86.6366
 40.6456  7685.76  86.4734
 40.6876  7886.67  87.5898
 40.7296  7741.71  86.9002
 40.7716  7698.23  86.7754
 40.8136  7700.35  86.7374
 40.8556  7782.95  87.3415
 40.8976  7703.15  86.8044
 40.9396  7779.79  87.5863
 40.9816  7788.81  86.9291
 41.0236  7723.63  86.3575
 41.0656  7912.11  87.9391
 41.1076  7764.61  86.8861
 41.1496  7797.91  86.9814
 41.1916  7696  86.7296
 41.2336  7785.86  87.2344
 41.2756  7694.96  86.3252
 41.3176  7758.61  87.2972
 41.3596  7786.96  87.1859
 41.4016  7676.97  86.8234
 41.4436  7659.86  86.5203
 41.4856  7731.62  87.0856
 41.5276  7815.83  87.5708
 41.5696  7772.21  86.9425
 41.6116  7740.45  87.177
 41.6536  7831.68  87.5338
 41.6956  7802.14  87.3595
 41.7376  7727.85  87.0497
 41.7796  7612.72  86.3264
 41.8216  7831.73  87.7384
 41.8636  7696.7  86.9237
 41.9056  7670.3  86.5764
 41.9476  7732.61  87.1561
 41.9896  7852.16  87.5
 42.0316  7777.6  87.1661
 42.0736  7749.58  87.1401
 42.1156  7723.03  86.79
 42.1576  7636.73  86.414
 42.1996  7842.79  87.6933
 42.2416  7742.49  86.7248
 42.2836  7673.91  86.4554
 42.3256  7693.63  86.6767
 42.3676  7862.55  87.4439
 42.4096  7765.15  86.8604
 42.4516  7826.59  87.2703
 42.4936  7629.98  86.2493
 42.5356  7673.75  86.6313
 42.5776  7716.62  86.8129
 42.6196  7728.3  86.852
 42.6616  7606.38  86.4121
 42.7036  7727.27  86.4823
 42.7456  7817.09  87.3408
 42.7876  7580.86  86.0922
 42.8296  7738.27  86.8903
 42.8716  7581.53  86.1123
 42.9136  7518.51  85.5023
 42.9556  7682.35  86.6009
 42.9976  7673.91  86.5169
 43.0396  7582.95  85.7321
 43.0816  7723.89  86.9115
 43.1236  7503.58  85.7068
 43.1656  7593.27  86.0559
 43.2076  7611.06  86.2676
 43.2496  7643.5  86.2691
 43.2916  7525.96  85.9501
 43.3336  7643.42  86.4489
 43.3756  7609.99  86.0285
 43.4176  7526.34  85.6364
 43.4596  7517.51  85.4453
 43.5016  7581.46  86.2024
 43.5436  7697.77  86.7696
 43.5856  7464.22  85.4735
 43.6276  7499.92  85.5666
 43.6696  7520.91  85.8225
 43.7116  7631.07  86.0671
 43.7536  7600.18  86.3894
 43.7956  7494  86.9742
 43.8376  7406.76  85.0092
 43.8796  7371.49  84.8863
 43.9216  7446.88  85.2399
 43.9636  7357.44  84.8348
 44.0056  7288.86  84.6551
 44.0476  7305.9  84.4004
 44.0896  7358.5  85.0396
 44.1316  7254.29  84.1068
 44.1736  7325.42  84.5048
 44.2156  7476.13  85.2138
 44.2576  7411.47  85.1773
 44.2996  7452.93  85.3842
 44.3416  7443.04  85.0922
 44.3836  7286.94  84.51
 44.4256  7198.11  83.6531
 44.4676  7333.23  84.5865
 44.5096  7268.85  84.3567
 44.5516  7322.33  84.6324
 44.5936  7284.62  84.3673
 44.6356  7230.98  83.7994
 44.6776  7329.42  84.6792
 44.7196  7362.61  85.1378
 44.7616  7367.49  86.5213
 44.8036  7482.28  85.8325
 44.8456  7445.35  85.6175
 44.8876  7520.86  85.8929
 44.9296  7476.32  85.1002
 44.9716  7503.67  85.6781
 45.0136  7498.07  85.5856
 45.0556  7445.25  85.3712
 45.0976  7556.04  86.0375
 45.1396  7331.52  84.5183
 45.1816  7267.14  83.9149
 45.2236  7505.35  85.3648
 45.2656  7339.32  84.9052
 45.3076  7271.49  84.2892
 45.3496  7266.81  84.5733
 45.3916  7324.68  85.1781
 45.4336  7448  85.7348
 45.4756  7400.49  85.3163
 45.5176  7402.56  84.9525
 45.5596  7465.8  85.4211
 45.6016  7387.37  85.4012
 45.6436  7443.13  84.8971
 45.6856  7285.44  84.6458
 45.7276  7358.9  86.8735
 45.7696  7315.69  85.8046
 45.8116  7328.11  85.3144
 45.8536  7272.1  84.8769
 45.8956  7428.64  85.1433
 45.9376  7395.44  84.4229
 45.9796  7447.72  85.4211
 46.0216  7449.74  85.749
 46.0636  7456.74  84.929
 46.1056  7452.33  84.9034
 46.1476  7251.16  84.3361
 46.1896  7455.11  85.6604
 46.2316  7363.69  84.9882
 46.2736  7378.87  85.3051
 46.3156  7413.36  85.2469
 46.3576  7375.91  85.2332
 46.3996  7377.85  85.404
 46.4416  7297.73  84.4896
 46.4836  7278.76  84.7514
 46.5256  7426.94  85.5615
 46.5676  7352.85  85.2476
 46.6096  7429.13  85.6122
 46.6516  7323.16  84.0565
 46.6936  7472.53  85.4078
 46.7356  7504  85.6815
 46.7776  7267.21  85.1626
 46.8196  7286.17  85.0075
 46.8616  7147.75  84.0101
 46.9036  7117.94  83.4889
 46.9456  7175.41  83.4782
 46.9876  7311.82  84.3408
 47.0296  7207.55  84.4271
 47.0716  7161.14  83.9812
 47.1136  7252.09  84.1942
 47.1556  7287.46  84.2637
 47.1976  7359.74  84.8269
 47.2396  7191.21  84.185
 47.2816  7182.97  83.8337
 47.3236  7263.4  84.6748
 47.3656  7250.72  84.5299
 47.4076  7217.43  84.0678
 47.4496  7207.82  84.1739
 47.4916  7212.83  84.3943
 47.5336  7272.2  84.5537
 47.5756  7219.38  84.3308
 47.6176  7235.46  84.3628
 47.6596  7163.42  83.6414
 47.7016  7359.38  84.6004
 47.7436  7252.35  84.3243
 47.7856  7355.84  84.9645
 47.8276  7235.1  84.2948
 47.8696  7180.67  84.0696
 47.9116  7316.69  84.5712
 47.9536  7223.58  83.9754
 47.9956  7100.33  83.9613
 48.0376  7139.18  83.9558
 48.0796  7192.39  84.4045
 48.1216  7130.49  83.8613
 48.1636  7233.32  84.0368
 48.2056  7283.99  84.596
 48.2476  7329.88  85.1704
 48.2896  7277.44  84.7794
 48.3316  7338.37  85.0673
 48.3736  7174.3  84.134
 48.4156  7205  84.1683
 48.4576  7240.59  84.6747
 48.4996  7305.82  84.5026
 48.5416  7233.29  84.4045
 48.5836  7258.8  84.2326
 48.6256  7165.28  83.8983
 48.6676  7182.77  84.5092
 48.7096  7159.93  83.6508
 48.7516  7210.86  84.0976
 48.7936  7083.63  83.4094
 48.8356  7210.69  84.208
 48.8776  7208.93  84.6955
 48.9196  7311.69  84.7332
 48.9616  7202.45  84.4866
 49.0036  7251.12  85.1246
 49.0456  7062.69  83.9835
 49.0876  7154.6  84.1728
 49.1296  7054.98  83.6437
 49.1716  7098.32  83.7646
 49.2136  7301.96  84.8859
 49.2556  7217.12  84.4252
 49.2976  7218.73  84.5072
 49.3396  7126.77  84.0225
 49.3816  7289.86  84.4045
 49.4236  7228.12  84.457
 49.4656  7046.76  83.4161
 49.5076  7242.44  84.3164
 49.5496  7169.42  83.83
 49.5916  7140.53  83.7044
 49.6336  7221  84.3735
 49.6756  7153.4  84.2167
 49.7176  6991.89  83.2023
 49.7596  7179.96  84.2578
 49.8016  7150.48  83.8264
 49.8436  7138.39  84.0506
 49.8856  7082.12  83.7243
 49.9276  7059.75  83.69
 49.9696  7170.75  84.3356
 50.0116  7136.73  84.2415
 50.0536  7237.72  84.7975
 50.0956  7094.72  84.0316
 50.1376  7140.01  83.996
 50.1796  6978.08  83.2979
 50.2216  7095  83.99
 50.2636  7036.18  83.2616
 50.3056  6992.38  83.1776
 50.3476  7056.67  83.581
 50.3896  7070.45  83.6392
 50.4316  7095.27  83.612
 50.4736  7019.63  83.3907
 50.5156  7019.65  83.38
 50.5576  7056.74  83.3609
 50.5996  7047.29  83.5879
 50.6416  7033.66  83.43
 50.6836  7140.9  84.1266
 50.7256  7218.47  84.4983
 50.7676  7111.85  84.1751
 50.8096  7033.87  83.2694
 50.8516  7123.32  84.2207
 50.8936  7105.91  83.8955
 50.9356  7039.36  83.6061
 50.9776  7023.32  83.6759
 51.0196  6899.89  83.0593
 51.0616  6867.16  82.1855
 51.1036  7039.3  83.5695
 51.1456  7039.32  83.4803
 51.1876  6929.44  82.1545
 51.2296  6980.5  83.1083
 51.2716  6843.96  81.9985
 51.3136  6791.32  82.1402
 51.3556  6913.43  82.4924
 51.3976  6906.86  82.597
 51.4396  6746  81.948
 51.4816  6854.28  82.4558
 51.5236  6920.54  82.941
 51.5656  6899.5  82.4074
 51.6076  6904.54  82.5219
 51.6496  6891.36  82.6381
 51.6916  6796.46  82.4206
 51.7336  6723.25  82.0723
 51.7756  6916.24  82.9343
 51.8176  6761.28  82.0967
 51.8596  6839.8  82.5921
 51.9016  6901.04  82.5707
 51.9436  6880.24  83.9512
 51.9856  6821.95  84.004
 52.0276  6883.86  82.8782
 52.0696  7028.64  83.8041
 52.1116  6778.33  82.4251
 52.1536  6906.22  83.0289
 52.1956  6796.46  81.8761
 52.2376  7063.42  83.6528
 52.2796  6926.11  82.6511
 52.3216  6824.06  82.7129
 52.3636  6856.74  82.4763
 52.4056  6943.66  82.8733
 52.4476  6759.56  82.1221
 52.4896  6773.11  82.2537
 52.5316  6929.02  83.2606
 52.5736  6700.24  81.5863
 52.6156  6984.09  83.7086
 52.6576  6795.71  81.9943
 52.6996  6562.91  81.5606
 52.7416  6756.54  82.6018
 52.7836  6949.24  83.6654
 52.8256  6922.72  82.7063
 52.8676  6726.96  82.1048
 52.9096  6725.35  82.1751
 52.9516  6741.25  82.657
 52.9936  6743.61  83.0415
 53.0356  6893.06  82.943
 53.0776  6836.98  82.9101
 53.1196  6779.4  82.6534
 53.1616  6811.82  82.8959
 53.2036  6797.68  82.7776
 53.2456  6821.02  83.0259
 53.2876  6830.01  82.7685
 53.3296  6866.58  83.3185
 53.3716  6960.62  83.6308
 53.4136  6978.15  83.8955
 53.4556  6716.4  82.3297
 53.4976  6729.91  82.2409
 53.5396  6642.46  82.1139
 53.5816  6785.77  82.6306
 53.6236  6699.84  82.4578
 53.6656  6780.39  82.5489
 53.7076  6785.69  82.5408
 53.7496  6886.96  83.2895
 53.7916  6840.16  83.1426
 53.8336  6815.67  82.8835
 53.8756  6712  82.8129
 53.9176  6771.69  82.5033
 53.9596  6536.55  81.8175
 54.0016  6495.13  80.8888
 54.0436  6442.43  80.7866
 54.0856  6676.14  81.6574
 54.1276  6576.62  81.2446
 54.1696  6594.56  81.5205
 54.2116  6573.64  81.1312
 54.2536  6571.84  80.9383
 54.2956  6587.77  81.0745
 54.3376  6464.98  80.8162
 54.3796  6417.82  80.4092
 54.4216  6588.71  81.533
 54.4636  6337.74  79.9396
 54.5056  6549.14  81.0551
 54.5476  6462.52  80.8637
 54.5896  6399.78  80.3139
 54.6316  6455.29  80.5109
 54.6736  6440.35  80.4527
 54.7156  6408.72  80.3277
 54.7576  6457.71  80.6035
 54.7996  6541.45  81.2963
 54.8416  6394.48  80.4121
 54.8836  6523.12  81.3053
 54.9256  6345.15  79.9634
 54.9676  6341.46  79.7977
 55.0096  6411.52  80.2723
 55.0516  6339.86  79.9887
 55.0936  6404.75  80.1237
 55.1356  6264.17  79.2858
 55.1776  6485.39  80.9291
 55.2196  6421.44  80.3038
 55.2616  6558.27  81.3829
 55.3036  6336.33  80.1657
 55.3456  6142.85  79.0712
 55.3876  6317.21  79.9161
 55.4296  6238.34  79.4108
 55.4716  6282.5  79.7123
 55.5136  6431.86  80.4156
 55.5556  6506.93  80.9538
 55.5976  6348.75  80.0373
 55.6396  6377.79  80.0856
 55.6816  6336.32  79.771
 55.7236  6321.21  79.8265
 55.7656  6325.08  79.4811
 55.8076  6282.33  79.1971
 55.8496  6395.84  80.3628
 55.8916  6353.85  80.1458
 55.9336  6403.6  80.3178
 55.9756  6255.98  79.2774
 56.0176  6324.46  79.8499
 56.0596  6329.7  79.8848
 56.1016  6175.87  78.9578
 56.1436  6191.13  79.2555
 56.1856  6149.18  78.7451
 56.2276  6412.76  80.4704
 56.2696  6286.3  79.6562
 56.3116  6307.92  80.164
 56.3536  6225.76  79.305
 56.3956  6156.06  78.8442
 56.4376  6195.86  79.1285
 56.4796  6200.46  78.9896
 56.5216  6086.32  78.629
 56.5636  6157.28  78.6667
 56.6056  6346.06  80.0861
 56.6476  6256.39  79.1201
 56.6896  6413.92  80.5964
 56.7316  6215.78  79.2636
 56.7736  6102.16  78.5283
 56.8156  6189.25  79.0942
 56.8576  6016.24  77.9381
 56.8996  6150.59  78.7078
 56.9416  6052.86  78.2506
 56.9836  6295.03  79.4584
 57.0256  6041.6  78.1486
 57.0676  6297.6  79.9176
 57.1096  6138.68  78.6889
 57.1516  6075.13  78.3044
 57.1936  6121.18  78.388
 57.2356  6012.34  77.9942
 57.2776  6151.12  78.8728
 57.3196  6139.13  79.1341
 57.3616  6116.37  78.4963
 57.4036  6157.99  78.8089
 57.4456  6202.59  79.0954
 57.4876  6153.8  78.6411
 57.5296  6112.09  78.5866
 57.5716  6043.41  78.2514
 57.6136  5994.74  77.7812
 57.6556  6084.47  78.473
 57.6976  6107.9  78.4596
 57.7396  6068.56  78.5529
 57.7816  5939.93  78.0954
 57.8236  5954.95  77.9753
 57.8656  6088.73  78.5169
 57.9076  6068.34  78.3983
 57.9496  6028.64  78.5009
 57.9916  6072.57  78.2608
 58.0336  6042.69  78.3859
 58.0756  6074.11  78.1877
 58.1176  6103.03  78.4158
 58.1596  6018.85  78.4516
 58.2016  5856.13  76.6296
 58.2436  5855.94  77.0147
 58.2856  5722.47  76.0561
 58.3276  5639.27  75.8577
 58.3696  5775.72  76.5308
 58.4116  5761.46  76.3043
 58.4536  5817.98  76.564
 58.4956  5714.13  76.0549
 58.5376  5733.47  75.7649
 58.5796  5781.47  76.4951
 58.6216  5774.33  76.2695
 58.6636  5901.41  77.3161
 58.7056  5849.69  76.8325
 58.7476  5782.44  76.8266
 58.7896  5765.02  76.3633
 58.8316  5813.78  76.6812
 58.8736  5853.58  76.9545
 58.9156  5816.24  76.7468
 58.9576  5848.43  77.1704
 58.9996  5805.15  76.2531
 59.0416  5821.03  76.7181
 59.0836  5826.07  76.6559
 59.1256  5777.69  76.7384
 59.1676  5799.96  77.4914
 59.2096  5804.98  76.8436
 59.2516  5782.11  76.2822
 59.2936  5859.83  77.1163
 59.3356  5711.19  76.013
 59.3776  5854.81  77.1293
 59.4196  5658.31  75.7625
 59.4616  5747.96  76.2232
 59.5036  5668.15  75.7265
 59.5456  5804.02  76.328
 59.5876  5875.73  76.9866
 59.6296  5686.26  75.8023
 59.6716  5755.87  76.3215
 59.7136  5817.87  76.7199
 59.7556  5777.92  76.5895
 59.7976  5713.08  75.9078
 59.8396  5763.37  76.1379
 59.8816  5759.43  76.6448
 59.9236  5886.84  77.1357
 59.9656  5713.17  76.2423
 60.0076  5716.1  75.6373
 60.0496  5721.01  76.1602
 60.0916  5894.72  76.7329
 60.1336  5693.21  76.485
 60.1756  5747.73  78.0056
 60.1996  0.0000000E+00  0.0000000E+00