File: docs/examples/opeando_xrd/IS17_D/Data/IS17_D/17_Da_f00006.xye
# /beamlines/bl04/projects/cycle2025-II/20250340211-lsimonelli/DATA/IS17_D/17_Da_f00006.xye : mythproc.py merge -s 0.006 -l 0.5 -f /beamlines/bl04/inhouse/ff/FlatField/ff_20Nov2024rod8mm60s_17keV.raw -b True -c true -o xye /beamlines/bl04/projects/cycle2025-II/20250340211-lsimonelli/DATA/IS17_D/17_Da_00006.dat
# IsMon = [6741878, 6742266, 6744574]  IsPos = [-1.5000, -2.4885, -3.4988]
# Wave = 0.4962  CalPath /beamlines/bl04/projects/cycle2025-II/20250340211-lsimonelli/DATA/Align/Si_Pos1_25keV_f00001.cal
# Date = 2025-09-23_19:13:56 Dt = 4.8000  Bin = 0.0060  <imon> = 6742906 +/- 1190 (Min/Max) 6741878 / 6744574
# icurr 249.2862  mocoIn 1.7012E-05  mocoOut 0.7982  i15 7.05584e+06  imon 6.74291e+06  i7 6.6667  iEMpd_timer 4.8000  iEMpd_1 3.4754E-08  iEMpd_2 7.7303E-08  iEMpd_3 1.6304E-08  iEMpd_4 4.7673E-08  iEMhp_timer 4.8000  iEMhp_1 4.8722E-06  iEMhp_2 -2.4617E-08  iEMhp_3 -2.3701E-08  iEMhp_4 -2.0747E-08
#      9776
 1.5856  38603.1  201.766
 1.6276  45849.7  216.116
 1.6696  52385.2  230.192
 1.7116  61666.1  250.24
 1.7536  71357.1  268.039
 1.7956  75331.8  276.091
 1.8376  71562.7  269.522
 1.8796  59734.1  244.435
 1.9216  47940  219.847
 1.9636  40998.2  202.987
 2.0056  36186.9  189.486
 2.0476  33362.5  183.936
 2.0896  31944.7  178.929
 2.1316  31095.2  175.686
 2.1736  29455  172.346
 2.2156  30013.1  172.575
 2.2576  28927.6  170.034
 2.2996  27782.2  167.244
 2.3416  28184.6  167.105
 2.3836  27397.7  164.858
 2.4256  27023.6  164.263
 2.4676  26335.8  161.929
 2.5096  26524.4  162.561
 2.5516  30974.3  179.73
 2.5936  69905.6  264.556
 2.6356  28339.1  169.16
 2.6776  25379.4  158.996
 2.7196  24698.5  157.347
 2.7616  24600.9  156.825
 2.8036  23985.8  155.015
 2.8456  24137.9  156.103
 2.8876  23376.8  153.479
 2.9296  23033.7  152.494
 2.9716  23322.9  152.956
 3.0136  22729.9  151.063
 3.0556  22777.6  151.605
 3.0976  22496.5  149.643
 3.1396  22456.2  150.2
 3.1816  22131.5  149.043
 3.2236  22178.8  149.205
 3.2656  22051.7  147.848
 3.3076  21773  148.307
 3.3496  22203.5  148.972
 3.3916  22671.7  150.129
 3.4336  22912.3  151.483
 3.4756  23585.1  153.623
 3.5176  24247.1  155.564
 3.5596  24148.7  158.147
 3.6016  24357.5  155.962
 3.6436  23357  153.792
 3.6856  23181.7  151.55
 3.7276  22230.7  149.473
 3.7696  22031.9  148.79
 3.8116  21584.5  147.362
 3.8536  21676.6  147.607
 3.8956  21713.5  147.566
 3.9376  21959.3  148.644
 3.9796  21531.3  146.713
 4.0216  21804.9  146.705
 4.0636  21625.6  147.531
 4.1056  21567.3  146.985
 4.1476  21707.8  147.765
 4.1896  22058.4  148.822
 4.2316  22198.9  149.123
 4.2736  22891.8  151.223
 4.3156  22819.3  151.208
 4.3576  23497.9  153.368
 4.3996  23934.2  155.043
 4.4416  24350.8  155.977
 4.4836  25071.5  158.421
 4.5256  25500.5  160.371
 4.5676  25434.4  160.41
 4.6096  25782.1  160.543
 4.6516  26344.2  161.64
 4.6936  26434.4  162.707
 4.7356  27017  164.326
 4.7776  26660.2  163.072
 4.8196  26264.5  162.495
 4.8616  25647.1  160.194
 4.9036  25366.7  158.947
 4.9456  25254.3  159.223
 4.9876  24669.5  157.273
 5.0296  25034.6  158.246
 5.0716  24970.2  158.669
 5.1136  24960  158.488
 5.1556  25467.8  159.571
 5.1976  28674.8  169.315
 5.2396  26039.9  161.053
 5.2816  25868  160.975
 5.3236  25746.5  160.303
 5.3656  25430.1  160.213
 5.4076  24996.2  158.988
 5.4496  25267.7  159.348
 5.4916  25375.3  159.451
 5.5336  25342.6  159.352
 5.5756  25193.1  158.906
 5.6176  25226.6  158.465
 5.6596  25382.2  159.755
 5.7016  25637  159.99
 5.7436  25739.9  160.573
 5.7856  25605.3  160.21
 5.8276  25941  160.985
 5.8696  26028.4  161.32
 5.9116  25872.4  161.525
 5.9536  26256  162.48
 5.9956  26541.9  162.741
 6.0376  26597.3  163.532
 6.0796  27023.6  164.671
 6.1216  26855.2  164.357
 6.1636  27102.9  164.196
 6.2056  27189.9  165.113
 6.2476  27570.2  165.961
 6.2896  27668.8  166.123
 6.3316  27387.6  165.447
 6.3736  27619.2  166.041
 6.4156  27474.8  165.563
 6.4576  27807.1  166.12
 6.4996  27990.8  167.134
 6.5416  27875.4  166.925
 6.5836  28226.9  168.199
 6.6256  28142  167.52
 6.6676  28725.5  168.824
 6.7096  28478.2  168.928
 6.7516  28999.4  170.125
 6.7936  29693.5  171.586
 6.8356  29899.5  172.259
 6.8776  29913.2  173.088
 6.9196  29655.8  172.735
 6.9616  30005  173.176
 7.0036  30580.4  174.516
 7.0456  30515  173.638
 7.0876  30531  175.259
 7.1296  30516.9  174.454
 7.1716  30479.4  173.891
 7.2136  30089.6  172.565
 7.2556  30485.9  173.857
 7.2976  30272  173.732
 7.3396  30218.2  173.786
 7.3816  30182.5  173.893
 7.4236  30572.8  174.318
 7.4656  30745.4  174.307
 7.5076  31230.8  175.807
 7.5496  30994.3  175.664
 7.5916  30722  174.928
 7.6336  31461  176.915
 7.6756  31499.5  176.88
 7.7176  31819  178.075
 7.7596  31900.1  179.528
 7.8016  34168.7  188.013
 7.8436  32985.9  181.436
 7.8856  32757.1  180.424
 7.9276  33327.4  182.371
 7.9696  33586.6  183.391
 8.0116  34778.8  185.164
 8.0536  35087.6  186.24
 8.0956  35420.1  188.295
 8.1376  35392  187.698
 8.1796  35493.5  188.508
 8.2216  36481.7  189.858
 8.2636  36699.5  190.668
 8.3056  36599.2  191.168
 8.3476  37559.7  192.993
 8.3896  36898  191.368
 8.4316  36809.2  191.297
 8.4736  36826.4  190.816
 8.5156  36489.6  190.209
 8.5576  36461.1  191.112
 8.5996  36296.4  189.556
 8.6416  36238.9  190.66
 8.6836  36197.6  190.372
 8.7256  36574.4  190.821
 8.7676  37065.9  194.989
 8.8096  36556.1  190.976
 8.8516  35979.2  189.132
 8.8936  36151.6  189.42
 8.9356  35195  187.247
 8.9776  35648  188.531
 9.0196  35525  187.892
 9.0616  35319.2  186.817
 9.1036  35522.4  188.545
 9.1456  35251.8  187.175
 9.1876  34932.4  186.282
 9.2296  34824.7  185.403
 9.2716  33946  183.114
 9.3136  34252.8  183.912
 9.3556  34199.3  183.763
 9.3976  32771.6  180.404
 9.4396  33531.9  182.378
 9.4816  32992.6  180.775
 9.5236  32764.9  180.057
 9.5656  32732.7  180.271
 9.6076  32577.8  180.369
 9.6496  32205.2  179.269
 9.6916  32445.2  179.905
 9.7336  32288.4  179.255
 9.7756  32425.1  180.826
 9.8176  31705.1  178.372
 9.8596  31673.2  176.761
 9.9016  31334  175.808
 9.9436  31065.3  174.805
 9.9856  30802.8  174.447
 10.0276  30438  174.49
 10.0696  30692.8  174.277
 10.1116  29803  171.993
 10.1536  29377.7  170.439
 10.1956  29205.3  170.025
 10.2376  28676.3  167.997
 10.2796  28905.8  168.792
 10.3216  28990.4  169.163
 10.3636  28766.9  168.683
 10.4056  29970.5  172.575
 10.4476  29869.3  171.906
 10.4896  31126.9  174.928
 10.5316  29378  170.323
 10.5736  27859.9  166.587
 10.6156  27606.6  165.599
 10.6576  29243.6  168.994
 10.6996  27435.7  164.331
 10.7416  26894.4  162.945
 10.7836  27495.5  165.427
 10.8256  26598.6  163.126
 10.8676  26553.1  162.535
 10.9096  26212.1  161.519
 10.9516  26071.1  160.043
 10.9936  26470  161.453
 11.0356  26096.5  160.94
 11.0776  26635.3  161.905
 11.1196  26263.5  161.512
 11.1616  25621.5  159.224
 11.2036  26174.4  160.786
 11.2456  26387.6  162.148
 11.2876  25407.7  158.845
 11.3296  25190.5  158.064
 11.3716  25625.5  159.153
 11.4136  25660.6  160.113
 11.4556  26160.9  161.332
 11.4976  26636.1  161.762
 11.5396  26494  161.5
 11.5816  25444.2  158.708
 11.6236  25075.9  157.995
 11.6656  24744.6  155.914
 11.7076  24249.6  155.157
 11.7496  24452  159.657
 11.7916  24403.8  154.928
 11.8336  23949.2  154.368
 11.8756  23985  153.999
 11.9176  23838.3  153.199
 11.9596  23520.4  152.358
 12.0016  23522.9  153.135
 12.0436  23671.5  153.051
 12.0856  23250  152.199
 12.1276  23323  152.352
 12.1696  23125.8  150.868
 12.2116  23733.1  152.829
 12.2536  23707.5  153.542
 12.2956  23528  152.331
 12.3376  23301.7  151.805
 12.3796  23303  152.257
 12.4216  23280.2  151.416
 12.4636  23203.2  152.058
 12.5056  23178.8  151.265
 12.5476  23232.6  150.986
 12.5896  23024.3  150.926
 12.6316  22828.7  150.426
 12.6736  22986.6  151.432
 12.7156  22723.3  150.424
 12.7576  23016.7  151.628
 12.7996  23361.8  151.428
 12.8416  23289  152.228
 12.8836  23675.2  153.314
 12.9256  23693.1  152.405
 12.9676  23706.4  152.863
 13.0096  23343.8  152.768
 13.0516  23509.2  152.359
 13.0936  23639.9  152.902
 13.1356  23752.1  152.546
 13.1776  23567.2  152.921
 13.2196  23687  152.969
 13.2616  23491.7  152.643
 13.3036  23424.1  152.558
 13.3456  23457.3  152.646
 13.3876  23639.9  152.751
 13.4296  23373.1  152.03
 13.4716  23618  152.44
 13.5136  23659.3  152.732
 13.5556  23677.7  153.384
 13.5976  23746.7  153.744
 13.6396  23842.7  153.444
 13.6816  23284.6  151.997
 13.7236  24163.6  154.585
 13.7656  23539.1  153.125
 13.8076  23917.5  153.15
 13.8496  23491.7  152.553
 13.8916  23313.7  152.772
 13.9336  23289.5  151.932
 13.9756  23291.6  151.306
 14.0176  23163.8  151.557
 14.0596  23364.3  152.175
 14.1016  22831.6  150.825
 14.1436  22510.7  148.915
 14.1856  22552.4  149.339
 14.2276  22133.7  148.415
 14.2696  22413  149.197
 14.3116  22119.5  148.116
 14.3536  21653.3  146.72
 14.3956  21701.1  146.619
 14.4376  21805.8  146.755
 14.4796  21786.1  146.686
 14.5216  21322.5  145.894
 14.5636  21322  145.461
 14.6056  21398.5  145.305
 14.6476  21316.9  144.281
 14.6896  20767.7  142.933
 14.7316  20556.3  143.193
 14.7736  20378.8  141.767
 14.8156  20266.3  141.401
 14.8576  20269.4  141.265
 14.8996  19792.6  140.774
 14.9416  19614.3  140.137
 14.9836  19611.2  140.081
 15.0256  19354.2  138.115
 15.0676  19283.8  138.172
 15.1096  19235.5  137.743
 15.1516  18900.5  137.082
 15.1936  18773.6  136.063
 15.2356  18706.9  136.091
 15.2776  18654.2  135.495
 15.3196  18221.3  134.891
 15.3616  18274.5  134.843
 15.4036  17992.7  133.667
 15.4456  18539.7  135.341
 15.4876  18032.7  133.158
 15.5296  17828.3  132.685
 15.5716  17661.6  131.673
 15.6136  17708.3  132.162
 15.6556  18431.4  134.076
 15.6976  17753.4  131.667
 15.7396  17580.8  131.617
 15.7816  17519  130.905
 15.8236  17080  129.933
 15.8656  17159.8  130.039
 15.9076  16858.1  128.721
 15.9496  16998.8  131.988
 15.9916  16782.2  131.578
 16.0336  16620  127.907
 16.0756  16672.9  128.412
 16.1176  16552.8  127.859
 16.1596  16116.1  127.461
 16.2016  16383.7  127.281
 16.2436  16117.4  126.627
 16.2856  16165.7  126.368
 16.3276  15752  125.147
 16.3696  16173  126.626
 16.4116  15772.9  125.511
 16.4536  15962.1  126.037
 16.4956  16129.4  126.437
 16.5376  16076.7  126.411
 16.5796  15872.6  124.984
 16.6216  16007.3  125.817
 16.6636  15912.6  125.587
 16.7056  15767.8  124.893
 16.7476  15859.5  124.79
 16.7896  15732.7  125.029
 16.8316  15687.5  124.814
 16.8736  15864.8  125.772
 16.9156  15743.7  125.621
 16.9576  15482.5  125.361
 16.9996  15569.5  126.19
 17.0416  15560.2  124.544
 17.0836  15348.4  123.459
 17.1256  15312.1  123.327
 17.1676  15499.5  124.072
 17.2096  15108.2  122.374
 17.2516  15098.9  122.413
 17.2936  15183.1  122.771
 17.3356  14770.6  121.113
 17.3776  14593.8  120.564
 17.4196  15037.4  122.082
 17.4616  14887  121.392
 17.5036  14733.1  121.119
 17.5456  14505.3  120.807
 17.5876  14378.2  119.348
 17.6296  14416.6  119.314
 17.6716  14540.5  120.401
 17.7136  14512.1  120.424
 17.7556  14313.9  119.886
 17.7976  14357.7  119.684
 17.8396  14143.2  118.429
 17.8816  14293  119.586
 17.9236  14080.9  118.513
 17.9656  14331.4  120.247
 18.0076  14464.4  120.223
 18.0496  14896.6  121.14
 18.0916  16502.2  128.066
 18.1336  15544.3  124.396
 18.1756  14900.6  121.317
 18.2176  14560.6  120.158
 18.2596  14145.7  118.175
 18.3016  14500.1  119.896
 18.3436  14677.7  120.87
 18.3856  13990.9  117.914
 18.4276  13986.9  117.581
 18.4696  14031.6  117.847
 18.5116  14046.6  118.201
 18.5536  14054.5  118.589
 18.5956  13981.8  117.836
 18.6376  13910  117.938
 18.6796  13626.5  116.074
 18.7216  13901.1  117.785
 18.7636  13589.2  116.373
 18.8056  13569.5  116.232
 18.8476  13473.9  116.427
 18.8896  13535.8  116.048
 18.9316  13648.2  116.353
 18.9736  13659.5  116.264
 19.0156  13703.4  116.849
 19.0576  13638.7  115.463
 19.0996  13754.5  116.649
 19.1416  13404.6  115.54
 19.1836  13504.9  115.577
 19.2256  13265.5  114.754
 19.2676  13412.3  115.487
 19.3096  13426.9  115.783
 19.3516  13352.8  115.25
 19.3936  13384.1  115.464
 19.4356  13408.9  115.44
 19.4776  13401.1  115.507
 19.5196  13452.7  115.582
 19.5616  13473  115.921
 19.6036  13430.4  115.241
 19.6456  13450.3  115.446
 19.6876  13679.9  116.079
 19.7296  13467.2  115.619
 19.7716  13665.8  116.477
 19.8136  13704.5  116.995
 19.8556  14048.3  117.939
 19.8976  14120  118.305
 19.9396  14214.3  118.276
 19.9816  14204.6  118.478
 20.0236  14211.7  118.724
 20.0656  13903.1  117.417
 20.1076  13542.7  116.344
 20.1496  13403.4  115.751
 20.1916  13359  115.044
 20.2336  13308.5  114.805
 20.2756  13138.6  114.485
 20.3176  13121.9  114.166
 20.3596  13088.2  113.994
 20.4016  12992.9  113.39
 20.4436  13129.4  114.538
 20.4856  12883.9  113.246
 20.5276  12863.7  113.609
 20.5696  12812  112.953
 20.6116  12895.6  113.494
 20.6536  12786.6  112.585
 20.6956  12663.7  112.11
 20.7376  12792.3  112.903
 20.7796  12538.3  111.473
 20.8216  12817.6  112.419
 20.8636  12711.4  112.307
 20.9056  13277.6  114.74
 20.9476  12830.8  112.633
 20.9896  13091.7  113.637
 21.0316  12989.5  113.091
 21.0736  12831.7  112.919
 21.1156  12901.6  113.382
 21.1576  12646.7  112.304
 21.1996  12578  111.982
 21.2416  12469.9  111.331
 21.2836  12729  112.449
 21.3256  12434.9  111.223
 21.3676  12744.1  112.152
 21.4096  12585.5  111.812
 21.4516  12499.1  111.25
 21.4936  12384.2  110.989
 21.5356  12404.4  111.023
 21.5776  12594.4  111.71
 21.6196  12377.1  110.77
 21.6616  12384.9  110.897
 21.7036  12316.3  110.374
 21.7456  12300.9  110.378
 21.7876  12265.7  109.976
 21.8296  12248.7  109.758
 21.8716  12279.4  110.125
 21.9136  12399.1  110.856
 21.9556  12148.8  109.412
 21.9976  12263.2  109.934
 22.0396  12132.7  109.603
 22.0816  12230.4  110.568
 22.1236  12359.8  110.621
 22.1656  12299.6  110.526
 22.2076  12407.3  110.433
 22.2496  12275.8  109.877
 22.2916  12282.2  109.785
 22.3336  12149.5  109.879
 22.3756  12282  110.225
 22.4176  12264.7  110.005
 22.4596  11939.6  109.106
 22.5016  12331.2  110.38
 22.5436  12366.8  110.419
 22.5856  12181.6  109.84
 22.6276  12088  109.553
 22.6696  12132.2  110.097
 22.7116  12184.7  109.857
 22.7536  12165  109.741
 22.7956  12301.5  109.699
 22.8376  12130.3  109.44
 22.8796  12049.6  108.882
 22.9216  12431.9  111.136
 22.9636  12120.1  108.904
 23.0056  12262.4  109.675
 23.0476  12354.9  110.65
 23.0896  12662  111.395
 23.1316  12433.7  110.815
 23.1736  12228.7  112.818
 23.2156  12218.8  110.166
 23.2576  12243.8  110.42
 23.2996  12077.6  109.454
 23.3416  12010.3  109.658
 23.3836  12148.4  109.54
 23.4256  12113.3  109.485
 23.4676  12191.8  109.546
 23.5096  12016  109.416
 23.5516  12085.1  109.029
 23.5936  12023.7  109.631
 23.6356  12371.2  110.877
 23.6776  12265.9  110.614
 23.7196  11901.7  108.76
 23.7616  12316.6  110.338
 23.8036  12017.6  109.038
 23.8456  12063  108.817
 23.8876  11845.6  108.181
 23.9296  11949.3  109.121
 23.9716  11960.2  108.393
 24.0136  11950.2  109.217
 24.0556  11805.9  108.3
 24.0976  11664.8  107.461
 24.1396  11824.7  110.818
 24.1816  11737.5  109.184
 24.2236  11641.5  108.031
 24.2656  11689.9  107.737
 24.3076  11565.6  107.403
 24.3496  11666.6  107.768
 24.3916  11643.4  107.706
 24.4336  11652.5  107.957
 24.4756  11454.1  106.909
 24.5176  11400.7  106.314
 24.5596  11264.5  105.993
 24.6016  11450.9  106.955
 24.6436  11258  105.555
 24.6856  11090.7  104.532
 24.7276  11473.3  106.636
 24.7696  11243.9  105.673
 24.8116  11200.9  105.652
 24.8536  11083  105.084
 24.8956  11044.8  104.65
 24.9376  11026.2  104.734
 24.9796  10969.8  104.58
 25.0216  10891.1  104.31
 25.0636  10922.3  104.125
 25.1056  10866.7  104.283
 25.1476  10877.8  106.213
 25.1896  10926.4  104.972
 25.2316  10984.9  104.527
 25.2736  11019.4  104.355
 25.3156  10843.6  103.588
 25.3576  10844.6  104.012
 25.3996  10867.5  104.099
 25.4416  10890.9  104.191
 25.4836  10702.2  103.805
 25.5256  10728.7  103.31
 25.5676  10746.9  103.133
 25.6096  10687.9  103.411
 25.6516  10721.5  103.082
 25.6936  10681.3  103.193
 25.7356  10579.3  102.834
 25.7776  10734.5  103.271
 25.8196  10587.1  102.716
 25.8616  10674.5  103.061
 25.9036  10769.7  103
 25.9456  10680.5  103.159
 25.9876  10587.6  102.637
 26.0296  10744.7  103.134
 26.0716  10508.7  102.321
 26.1136  10770.2  103.533
 26.1556  10822.5  103.166
 26.1976  10571.5  102.875
 26.2396  10614.7  102.501
 26.2816  10581.4  102.689
 26.3236  10646.7  103.17
 26.3656  10519.7  102.278
 26.4076  10637.5  103.053
 26.4496  10887.6  103.753
 26.4916  10506.6  101.931
 26.5336  10544.7  102.432
 26.5756  10721.5  103.145
 26.6176  10511.5  102.18
 26.6596  10407.1  101.97
 26.7016  10358.3  101.503
 26.7436  10292.4  101.303
 26.7856  10061.2  100.146
 26.8276  10218.9  100.887
 26.8696  10300.2  101.155
 26.9116  10312.3  101.158
 26.9536  10172.3  100.516
 26.9956  10225.2  100.812
 27.0376  10084.3  100.324
 27.0796  10101.9  100.226
 27.1216  10166.1  100.542
 27.1636  10073.1  100.244
 27.2056  10133.6  100.427
 27.2476  10082.7  100.172
 27.2896  10068.7  100.214
 27.3316  10017.8  99.6784
 27.3736  9953.57  99.6216
 27.4156  9802.92  98.7096
 27.4576  9958.19  99.7154
 27.4996  9886.25  98.9599
 27.5416  10028.5  99.9826
 27.5836  10023.9  99.7751
 27.6256  10333  101.47
 27.6676  10141.5  100.542
 27.7096  9960.44  99.5086
 27.7516  10117.6  100.446
 27.7936  10073.8  100.396
 27.8356  10000.9  99.656
 27.8776  9952.02  99.4565
 27.9196  9941.71  99.2487
 27.9616  9964.05  99.5629
 28.0036  9915.37  99.2809
 28.0456  9843.55  99.0531
 28.0876  9757.55  98.7064
 28.1296  9758.21  98.5599
 28.1716  9722.78  98.3883
 28.2136  9843.04  98.9553
 28.2556  9710.36  98.4012
 28.2976  9682.32  98.2533
 28.3396  9695.23  98.1169
 28.3816  9761.95  98.4399
 28.4236  9741  98.4872
 28.4656  9490.85  97.2469
 28.5076  9617.08  97.534
 28.5496  9555.83  97.4806
 28.5916  9582.58  97.4266
 28.6336  9419.76  96.9233
 28.6756  9618.82  97.1647
 28.7176  9580.58  97.5017
 28.7596  9460.11  96.7926
 28.8016  9579.12  97.4348
 28.8436  9395.59  96.736
 28.8856  9577.59  97.5178
 28.9276  9595.7  97.8479
 28.9696  9443.78  96.731
 29.0116  9371.89  96.5525
 29.0536  9361.68  96.6949
 29.0956  9535.29  97.3119
 29.1376  9377.75  96.4632
 29.1796  9332.09  96.2748
 29.2216  9392.93  96.4329
 29.2636  9388.81  96.4105
 29.3056  9298.05  95.8134
 29.3476  9314.01  96.4102
 29.3896  9479.46  97.349
 29.4316  9373.36  96.1598
 29.4736  9374.19  96.2243
 29.5156  9474.35  96.6619
 29.5576  9354.22  96.7779
 29.5996  9427.01  96.4188
 29.6416  9228.03  95.5121
 29.6836  9494.43  96.8051
 29.7256  9280.58  96.2675
 29.7676  9305.65  96.0605
 29.8096  9370.21  96.3383
 29.8516  9126.21  95.4
 29.8936  9287.73  96.333
 29.9356  9416.62  96.7576
 29.9776  9273.56  96.1716
 30.0196  9343.09  95.9272
 30.0616  9356.69  96.3669
 30.1036  9317.21  95.9929
 30.1456  9346.5  96.3691
 30.1876  9128.2  95.2218
 30.2296  9113.4  95.086
 30.2716  9231.41  95.3478
 30.3136  9271.67  96.4023
 30.3556  9290.19  96.5104
 30.3976  9110.06  97.061
 30.4396  9201.55  94.9333
 30.4816  9293.93  95.0053
 30.5236  9121.9  94.1456
 30.5656  9128.37  94.8161
 30.6076  9229.83  95.1185
 30.6496  9138.87  94.6874
 30.6916  9110.29  94.6262
 30.7336  9232.51  95.4154
 30.7756  9146.36  95.0607
 30.8176  9032.46  94.3833
 30.8596  8982.77  93.8963
 30.9016  9071.61  94.2357
 30.9436  9017  94.1711
 30.9856  9051.33  94.4508
 31.0276  9043.74  94.0212
 31.0696  8950.05  94.1059
 31.1116  8825.3  93.4246
 31.1536  9140.04  94.9569
 31.1956  8828.26  93.412
 31.2376  8939.74  94.0035
 31.2796  8926.33  93.4833
 31.3216  9146.66  94.5762
 31.3636  8957.91  94.2768
 31.4056  8947.2  95.5193
 31.4476  8936.8  93.3886
 31.4896  8848.59  93.4191
 31.5316  9058.02  93.9711
 31.5736  9379.7  95.3776
 31.6156  9140.27  94.1926
 31.6576  9127.31  94.2184
 31.6996  9065.01  93.5771
 31.7416  8847.89  93.3511
 31.7836  8908.93  92.8429
 31.8256  8845.81  92.8547
 31.8676  9003.71  93.6002
 31.9096  8890.23  93.2216
 31.9516  8765.49  92.8577
 31.9936  8779.47  92.7612
 32.0356  9034.99  94.1666
 32.0776  8828.45  92.9711
 32.1196  8825.67  92.9605
 32.1616  8901.52  92.9076
 32.2036  8658.48  92.1298
 32.2456  8711.18  92.7812
 32.2876  8646.22  91.7793
 32.3296  8726.64  92.3378
 32.3716  8712.84  92.367
 32.4136  8743.79  92.7359
 32.4556  8813.06  92.5401
 32.4976  8856.79  92.6678
 32.5396  8579.4  91.2385
 32.5816  8697.24  91.979
 32.6236  8817.61  92.6802
 32.6656  8884.04  93.5675
 32.7076  8583.51  91.6326
 32.7496  8653.64  91.6839
 32.7916  8668.31  91.7197
 32.8336  8721.92  92.0976
 32.8756  8809.15  92.2831
 32.9176  8653.58  91.9364
 32.9596  8602.4  91.732
 33.0016  8699.81  92.055
 33.0436  8757.23  92.5281
 33.0856  8625.42  91.8958
 33.1276  8488.9  90.9114
 33.1696  8736.13  92.0689
 33.2116  8743.82  92.3286
 33.2536  8692.83  92.0636
 33.2956  8561.22  91.4455
 33.3376  8576.22  91.3431
 33.3796  8520.69  91.1743
 33.4216  8668.22  91.559
 33.4636  8690.84  91.8268
 33.5056  8465.71  90.8656
 33.5476  8408.16  90.5477
 33.5896  8669.21  91.6837
 33.6316  8490.74  91.0851
 33.6736  8412.44  90.8947
 33.7156  8431.35  91.0382
 33.7576  8560.32  91.3684
 33.7996  8571.57  91.2023
 33.8416  8312.36  89.9882
 33.8836  8516.76  90.8682
 33.9256  8448.65  90.5675
 33.9676  8481.06  90.6351
 34.0096  8304.57  89.9984
 34.0516  8328.97  89.7773
 34.0936  8357.23  90.184
 34.1356  8468.65  90.535
 34.1776  8414.86  90.2584
 34.2196  8337.55  90.0149
 34.2616  8293.9  89.9133
 34.3036  8270.21  90.0265
 34.3456  8377.42  90.3648
 34.3876  8310.82  90.0515
 34.4296  8378.2  90.026
 34.4716  8350.61  90.0209
 34.5136  8340.86  90.166
 34.5556  8283.82  90.1162
 34.5976  8320.47  90.1567
 34.6396  8256.17  89.4909
 34.6816  8309.22  89.8916
 34.7236  8342.08  89.855
 34.7656  8364.17  90.1641
 34.8076  8238.38  89.8064
 34.8496  8220.72  89.5655
 34.8916  8270.48  89.712
 34.9336  8398.89  90.3653
 34.9756  8495.37  90.7979
 35.0176  8312.41  90.3426
 35.0596  8221.86  89.6834
 35.1016  8198.05  89.3242
 35.1436  8318.9  89.6703
 35.1856  8183.42  89.0641
 35.2276  8326.71  90.0123
 35.2696  8236.24  89.7078
 35.3116  8265.8  89.9636
 35.3536  8122.02  88.9284
 35.3956  8256.11  89.3389
 35.4376  8117.15  89.1256
 35.4796  8219.82  89.746
 35.5216  8088.33  88.9788
 35.5636  8035.21  89.4178
 35.6056  8237.64  89.5731
 35.6476  8265.6  89.6214
 35.6896  8225.05  89.5541
 35.7316  8131.29  88.9504
 35.7736  8087.74  88.9051
 35.8156  8136.93  89.1736
 35.8576  8124.69  89.346
 35.8996  8204.41  89.7514
 35.9416  8147.07  88.9481
 35.9836  8202.14  89.6921
 36.0256  8180.27  89.4999
 36.0676  8101.34  88.6137
 36.1096  8191.95  89.4632
 36.1516  8180.13  89.2873
 36.1936  8141.35  88.9157
 36.2356  8142.59  89.5637
 36.2776  8114.52  88.8896
 36.3196  8109.72  88.5478
 36.3616  8101.52  88.6322
 36.4036  8057.81  88.4493
 36.4456  8171.31  89.2745
 36.4876  7952.35  88.0088
 36.5296  8070.43  88.7059
 36.5716  8075.95  89.5071
 36.6136  8299.67  89.5086
 36.6556  8315.04  89.7921
 36.6976  8012.45  88.6357
 36.7396  8097.89  88.841
 36.7816  8022.93  88.7974
 36.8236  8004.66  88.6176
 36.8656  8040  88.8833
 36.9076  7960.31  88.4503
 36.9496  7956.17  88.2855
 36.9916  7933.51  87.7968
 37.0336  8156.69  89.3322
 37.0756  7935.46  87.9166
 37.1176  7937.82  88.1946
 37.1596  8012.64  88.613
 37.2016  8020.42  88.8356
 37.2436  8165.06  88.9955
 37.2856  8006.51  88.3881
 37.3276  7958.91  87.4788
 37.3696  8011.46  88.647
 37.4116  8020.23  88.5971
 37.4536  7903.87  87.8246
 37.4956  7892.29  87.8011
 37.5376  7906.58  89.4235
 37.5796  7878.96  89.2162
 37.6216  7819.02  87.1717
 37.6636  7759.01  86.74
 37.7056  7845.82  87.4115
 37.7476  7757.69  86.4609
 37.7896  7827.86  87.3435
 37.8316  7667.13  86.6156
 37.8736  7867.96  87.2688
 37.9156  7759.2  86.6687
 37.9576  7895.38  87.3221
 37.9996  7684.41  85.8669
 38.0416  7687.99  86.6818
 38.0836  7902.97  87.7837
 38.1256  7878.66  87.6218
 38.1676  7576.78  86.0456
 38.2096  7776.71  86.8033
 38.2516  7893  87.6563
 38.2936  7811.72  87.0062
 38.3356  7861.67  87.1977
 38.3776  7638.47  86.2218
 38.4196  7927.97  87.6958
 38.4616  7773.24  87.0618
 38.5036  7781.63  86.9602
 38.5456  7645.27  87.015
 38.5876  7733.88  87.5455
 38.6296  7657.11  86.1123
 38.6716  7722.57  86.2786
 38.7136  7568.31  85.3556
 38.7556  7629.44  86.191
 38.7976  7673.22  86.3773
 38.8396  7513.6  85.9171
 38.8816  7621.02  86.3087
 38.9236  7617.06  86.1065
 38.9656  7619.69  86.0367
 39.0076  7625.52  85.4863
 39.0496  7720.56  86.5483
 39.0916  7823.45  86.7649
 39.1336  7554.66  85.6759
 39.1756  7585.79  85.9204
 39.2176  7672.39  86.9321
 39.2596  7724.81  87.1463
 39.3016  7726.05  86.7374
 39.3436  7507.36  85.9117
 39.3856  7645.06  86.1558
 39.4276  7641.38  86.6225
 39.4696  7578.69  85.8953
 39.5116  7543.59  86.1939
 39.5536  7741.15  87.7412
 39.5956  7780.43  87.067
 39.6376  7711.03  86.6859
 39.6796  7678.85  86.2493
 39.7216  7712.74  86.5242
 39.7636  7636  86.6577
 39.8056  7704  86.8253
 39.8476  7664.97  86.8608
 39.8896  7633.78  86.3203
 39.9316  7536.01  86.0174
 39.9736  7783.37  86.9856
 40.0156  7597.28  85.7591
 40.0576  7757  87.0236
 40.0996  7760.56  86.2333
 40.1416  7706.8  86.7175
 40.1836  7683.99  86.4799
 40.2256  7727.17  86.7694
 40.2676  7646.25  86.4792
 40.3096  7760.48  86.9866
 40.3516  7754  87.058
 40.3936  7747.79  86.5849
 40.4356  7705.55  86.5438
 40.4776  7681.35  86.6513
 40.5196  7763.18  87.3966
 40.5616  7795.1  87.2253
 40.6036  7566.08  86.1792
 40.6456  7812.26  87.1764
 40.6876  7869.4  87.491
 40.7296  7749.5  86.9561
 40.7716  7702.1  86.8086
 40.8136  7669.04  86.5718
 40.8556  7738.54  87.0965
 40.8976  7714.43  86.8803
 40.9396  7664.01  86.9417
 40.9816  7782.76  86.907
 41.0236  7738.3  86.4344
 41.0656  7929.08  88.0368
 41.1076  7750.43  86.8155
 41.1496  7844.8  87.2504
 41.1916  7723.76  86.895
 41.2336  7618.09  86.2793
 41.2756  7706.11  86.3957
 41.3176  7726.12  87.1138
 41.3596  7760.03  87.0374
 41.4016  7663.96  86.7482
 41.4436  7789.89  87.2516
 41.4856  7725.03  87.0491
 41.5276  7703.03  86.9401
 41.5696  7726.1  86.6956
 41.6116  7669.46  86.779
 41.6536  7732.94  86.9972
 41.6956  7860.57  87.692
 41.7376  7719.06  87.0002
 41.7796  7678.76  86.6985
 41.8216  7712.51  87.0813
 41.8636  7787.98  87.4443
 41.9056  7689.69  86.6844
 41.9476  7719.36  87.082
 41.9896  7637.81  86.2896
 42.0316  7777.73  87.1607
 42.0736  7705.23  86.8955
 42.1156  7647.87  86.3813
 42.1576  7626.22  86.3501
 42.1996  7785.4  87.3954
 42.2416  7707.76  86.5427
 42.2836  7615.88  86.1369
 42.3256  7626.19  86.3097
 42.3676  7631.54  86.1489
 42.4096  7636.9  86.1335
 42.4516  7683.06  86.4881
 42.4936  7622.6  86.2142
 42.5356  7575.79  86.0812
 42.5776  7661.87  86.5051
 42.6196  7657.14  86.5324
 42.6616  7465.13  85.6115
 42.7036  7716.39  86.4275
 42.7456  7674.33  86.545
 42.7876  7549  85.9273
 42.8296  7608.39  86.1003
 42.8716  7466.95  85.4589
 42.9136  7546.42  85.6618
 42.9556  7656.11  86.4578
 42.9976  7700.36  86.6676
 43.0396  7579.32  85.7198
 43.0816  7593.05  86.1662
 43.1236  7399.1  85.1197
 43.1656  7579.13  85.9842
 43.2076  7516.84  85.726
 43.2496  7562.83  85.8051
 43.2916  7528.86  85.976
 43.3336  7472.03  85.4927
 43.3756  7540.52  85.638
 43.4176  7325.45  84.4904
 43.4596  7385.03  84.6933
 43.5016  7551.12  86.042
 43.5436  7488.51  85.5841
 43.5856  7417.59  85.1976
 43.6276  7474.43  85.4275
 43.6696  7510.15  85.7725
 43.7116  7563.14  85.6913
 43.7536  7506.45  85.8525
 43.7956  7291.21  85.7846
 43.8376  7453.69  85.2898
 43.8796  7432.88  85.2452
 43.9216  7459.8  85.3193
 43.9636  7475.44  85.5134
 44.0056  7420.12  85.4266
 44.0476  7371.62  84.7789
 44.0896  7316.81  84.8038
 44.1316  7421.76  85.08
 44.1736  7468.38  85.3262
 44.2156  7450.61  85.0876
 44.2576  7237.03  84.1716
 44.2996  7430.56  85.2639
 44.3416  7359.93  84.6186
 44.3836  7155.7  83.7482
 44.4256  7223.45  83.8015
 44.4676  7300.32  84.4003
 44.5096  7387.58  85.0469
 44.5516  7258.75  84.2683
 44.5936  7303.15  84.48
 44.6356  7256.76  83.9535
 44.6776  7243.82  84.1889
 44.7196  7219.53  84.3487
 44.7616  7252.95  85.8455
 44.8036  7196.59  84.1731
 44.8456  7229.55  84.3632
 44.8876  7168.06  83.855
 44.9296  7445.77  84.9221
 44.9716  7243.93  84.1872
 45.0136  7280.95  84.3362
 45.0556  7218.11  84.0532
 45.0976  7274.6  84.4407
 45.1396  7223.48  83.9009
 45.1816  7223.24  83.8346
 45.2236  7178.56  83.4789
 45.2656  7156.53  83.8409
 45.3076  7158.9  83.6471
 45.3496  7080.35  83.4778
 45.3916  7285.82  84.9468
 45.4336  7185.28  84.2087
 45.4756  7080.76  83.4516
 45.5176  7140.07  83.4266
 45.5596  7275.76  84.3327
 45.6016  6947.37  82.8117
 45.6436  7132.08  83.1028
 45.6856  7070.43  83.3847
 45.7276  7071.02  84.6809
 45.7696  7147.05  84.8099
 45.8116  7264.2  84.9504
 45.8536  7016.47  83.383
 45.8956  7162.99  83.6099
 45.9376  7145.56  82.9862
 45.9796  7114.56  83.4862
 46.0216  7033.6  83.335
 46.0636  7210.7  83.5344
 46.1056  7129.31  83.0447
 46.1476  7107.31  83.4996
 46.1896  7132.45  83.7953
 46.2316  7095.17  83.4483
 46.2736  7028.22  83.2575
 46.3156  7098.85  83.4235
 46.3576  7047.74  83.3207
 46.3996  7003.22  83.2129
 46.4416  7119.46  83.4678
 46.4836  7025.23  83.2803
 46.5256  7066.2  83.4606
 46.5676  6964.23  82.9669
 46.6096  7093.1  83.6734
 46.6516  7181.91  83.2432
 46.6936  7073.78  83.0973
 46.7356  7250.17  84.2226
 46.7776  7002.65  83.6017
 46.8196  7031.97  83.5234
 46.8616  6901.92  82.5425
 46.9036  6883.02  82.1041
 46.9456  6958.04  82.1962
 46.9876  6988.42  82.462
 47.0296  6874.06  82.454
 47.0716  6849.38  82.1326
 47.1136  6859.61  81.8841
 47.1556  6918.46  82.0988
 47.1976  6933.15  82.3438
 47.2396  6893.38  82.4191
 47.2816  6862.72  81.9453
 47.3236  6955.36  82.862
 47.3656  6921.43  82.5879
 47.4076  6997.64  82.7756
 47.4496  6833.32  81.9641
 47.4916  6819.7  82.0588
 47.5336  6896.4  82.3494
 47.5756  6985.33  82.9874
 47.6176  6838.61  82.0099
 47.6596  6878.65  81.9765
 47.7016  6995.41  82.4865
 47.7436  6858.71  82.0113
 47.7856  6905.22  82.3076
 47.8276  6909.48  82.3861
 47.8696  6847.38  82.0965
 47.9116  6861.93  81.9014
 47.9536  6833.52  81.6756
 47.9956  6803.53  82.1858
 48.0376  6721.68  81.4752
 48.0796  6858.2  82.4226
 48.1216  6872.05  82.33
 48.1636  6946.19  82.3525
 48.2056  6852.1  82.0513
 48.2476  6978.99  83.1115
 48.2896  6877.93  82.4155
 48.3316  6816.03  81.987
 48.3736  6797.88  81.9016
 48.4156  6755.25  81.4999
 48.4576  6804.82  82.0872
 48.4996  6830.25  81.711
 48.5416  6834.36  82.0509
 48.5836  6837.89  81.76
 48.6256  6839.21  81.9592
 48.6676  6847.14  82.5152
 48.7096  6812.44  81.593
 48.7516  6747.4  81.3475
 48.7936  6614.41  80.6025
 48.8356  6779.63  81.6503
 48.8776  6794.57  82.2169
 48.9196  6834.98  81.9304
 48.9616  6685.18  81.3962
 49.0036  6788.12  82.3603
 49.0456  6662.68  81.5681
 49.0876  6713.65  81.5323
 49.1296  6672.54  81.3474
 49.1716  6641.24  81.0284
 49.2136  6715.41  81.4109
 49.2556  6691.31  81.2922
 49.2976  6767.94  81.8233
 49.3396  6621.75  80.9833
 49.3816  6790.7  81.447
 49.4236  6707.58  81.3668
 49.4656  6647.66  81.0248
 49.5076  6759.73  81.4575
 49.5496  6551.3  80.2549
 49.5916  6732.84  81.2803
 49.6336  6592.7  80.62
 49.6756  6641.99  81.1529
 49.7176  6653.19  81.1623
 49.7596  6639.38  80.8511
 49.8016  6660.19  80.8925
 49.8436  6629.31  81.0004
 49.8856  6707.2  81.4803
 49.9276  6499.43  80.3014
 49.9696  6584.41  80.8118
 50.0116  6629.41  81.2115
 50.0536  6628.4  81.157
 50.0956  6511.5  80.5106
 50.1376  6587.41  80.6795
 50.1796  6523.73  80.5544
 50.2216  6579.12  80.8943
 50.2636  6569.41  80.4593
 50.3056  6488.89  80.1341
 50.3476  6531.27  80.4089
 50.3896  6522.21  80.3262
 50.4316  6604.69  80.674
 50.4736  6515.86  80.3446
 50.5156  6577.17  80.7083
 50.5576  6542.93  80.2657
 50.5996  6494.91  80.2459
 50.6416  6471.32  80.0298
 50.6836  6537.44  80.4985
 50.7256  6566.03  80.609
 50.7676  6619.36  81.1953
 50.8096  6442.79  79.699
 50.8516  6471.67  80.2794
 50.8936  6563.55  80.6379
 50.9356  6486.55  80.2653
 50.9776  6499.04  80.4881
 51.0196  6382.29  79.8857
 51.0616  6304.16  78.7484
 51.1036  6535.92  80.5253
 51.1456  6443.42  79.8774
 51.1876  6483.98  79.4814
 51.2296  6409.16  79.6431
 51.2716  6398.36  79.2837
 51.3136  6396.59  79.7213
 51.3556  6388.27  79.3019
 51.3976  6328.69  79.0789
 51.4396  6295.39  79.1676
 51.4816  6338.27  79.2916
 51.5236  6412.76  79.8451
 51.5656  6342.62  79.0187
 51.6076  6329.83  79.0199
 51.6496  6365.66  79.4251
 51.6916  6293.68  79.3209
 51.7336  6348.01  79.7471
 51.7756  6531.4  80.6009
 51.8176  6268.93  79.062
 51.8596  6300.17  79.2779
 51.9016  6439.42  79.7648
 51.9436  6187.84  79.5927
 51.9856  6265.83  80.5146
 52.0276  6424.36  80.0618
 52.0696  6373.37  79.8027
 52.1116  6416.47  80.1845
 52.1536  6215.52  78.752
 52.1956  6376.4  79.302
 52.2376  6531.88  80.4385
 52.2796  6339.69  79.056
 52.3216  6169.94  78.6632
 52.3636  6295.06  79.0429
 52.4056  6259.92  78.6852
 52.4476  6316.16  79.3961
 52.4896  6228.04  78.8856
 52.5316  6251.97  79.0841
 52.5736  6326.78  79.2875
 52.6156  6250.39  79.1763
 52.6576  6412.1  79.6456
 52.6996  6040.76  78.2383
 52.7416  6243.03  79.3963
 52.7836  6236.46  79.2111
 52.8256  6291.48  78.8187
 52.8676  6183.33  78.7036
 52.9096  6269.37  79.3371
 52.9516  6200.09  79.2498
 52.9936  6152.4  79.3367
 53.0356  6100.88  78.0402
 53.0776  6090.36  78.2504
 53.1196  6132.18  78.6163
 53.1616  6150.93  78.7805
 53.2036  6258.5  79.4222
 53.2456  6089.12  78.4407
 53.2876  6073.89  78.0574
 53.3296  6079.59  78.4097
 53.3716  6237.4  79.1726
 53.4136  6158.6  78.8137
 53.4556  6027.05  77.9982
 53.4976  6019.2  77.7996
 53.5396  6127.04  78.876
 53.5816  6034.71  77.929
 53.6236  6092.06  78.6265
 53.6656  6110.82  78.3902
 53.7076  6073.17  78.1106
 53.7496  6045.67  78.0441
 53.7916  6170.9  78.9738
 53.8336  5914.98  77.2239
 53.8756  5945.42  77.9535
 53.9176  6052.22  78.0137
 53.9596  6131.03  79.2655
 54.0016  6103.83  78.4398
 54.0436  6115.29  78.7235
 54.0856  6093.61  78.0236
 54.1276  6117.81  78.3722
 54.1696  6033.87  77.9949
 54.2116  6041.88  77.8171
 54.2536  6088.36  77.9337
 54.2956  6141.53  78.3203
 54.3376  6022.22  78.0267
 54.3796  6072.16  78.2507
 54.4216  6129.3  78.6481
 54.4636  6045.96  78.0847
 54.5056  6067.21  78.0472
 54.5476  6003.01  77.9609
 54.5896  6162.75  78.8205
 54.6316  6040.74  77.9025
 54.6736  6132.72  78.5167
 54.7156  6051.7  78.0662
 54.7576  6005.19  77.7665
 54.7996  6066.26  78.3051
 54.8416  6068.05  78.3461
 54.8836  5929.68  77.5624
 54.9256  6045.1  78.0667
 54.9676  6071.46  78.0915
 55.0096  6123.71  78.5023
 55.0516  6080.05  78.3817
 55.0936  6064.11  77.9847
 55.1356  5993.14  77.5706
 55.1776  6035.34  78.1018
 55.2196  5987  77.5749
 55.2616  6037.15  78.1006
 55.3036  5935.59  77.6013
 55.3456  5940.38  77.7745
 55.3876  5982.32  77.8074
 55.4296  6064.17  78.3127
 55.4716  5981.25  77.8066
 55.5136  6075.2  78.1811
 55.5556  6078.21  78.2708
 55.5976  5993.68  77.7731
 55.6396  6019.48  77.8174
 55.6816  5981.3  77.5256
 55.7236  5988.84  77.6114
 55.7656  6054.24  77.8032
 55.8076  6063.55  77.8458
 55.8496  5864.3  76.9751
 55.8916  6002.91  77.9321
 55.9336  6025.31  77.9327
 55.9756  6015.18  77.7611
 56.0176  5971.79  77.6233
 56.0596  5965.02  77.5704
 56.1016  6000.06  77.8376
 56.1436  5954.6  77.7724
 56.1856  5959.14  77.5476
 56.2276  5941.2  77.4808
 56.2696  6028.88  78.0213
 56.3116  5859.7  77.3129
 56.3536  5912.78  77.3301
 56.3956  5911.55  77.3151
 56.4376  5975.83  77.7637
 56.4796  6066.47  78.1524
 56.5216  5953.1  77.786
 56.5636  6078.25  78.1981
 56.6056  5920.6  77.4021
 56.6476  5952.72  77.2506
 56.6896  5980.52  77.8646
 56.7316  6016.65  78.0153
 56.7736  5972.7  77.7246
 56.8156  5974.56  77.735
 56.8576  5978.11  77.7015
 56.8996  5966.04  77.5663
 56.9416  5883.66  77.3244
 56.9836  5906.29  76.9974
 57.0256  5929.98  77.4599
 57.0676  5877.6  77.2401
 57.1096  5982.06  77.7134
 57.1516  5950.63  77.5323
 57.1936  5909.99  77.059
 57.2356  6024.06  78.1123
 57.2776  5984.01  77.8097
 57.3196  5988.14  78.1998
 57.3616  5981.91  77.663
 57.4036  5942.9  77.47
 57.4456  5884.36  77.0488
 57.4876  6030.22  77.8702
 57.5296  5837.83  76.846
 57.5716  5956.76  77.7114
 57.6136  5950.05  77.4872
 57.6556  5889.51  77.2314
 57.6976  5984.79  77.6778
 57.7396  5892.12  77.4428
 57.7816  5869.84  77.6459
 57.8236  5878.88  77.5052
 57.8656  5870.29  77.1123
 57.9076  5900.6  77.3373
 57.9496  5936.09  77.9163
 57.9916  5811.61  76.6224
 58.0336  5844.54  77.1067
 58.0756  5913.37  77.1542
 58.1176  5941.97  77.3831
 58.1596  5906.32  77.7124
 58.2016  5916.12  77.0084
 58.2436  5965.91  77.7405
 58.2856  5995.38  77.8484
 58.3276  5988.32  78.1772
 58.3696  5889.49  77.2873
 58.4116  5873.93  77.0488
 58.4536  6026.57  77.932
 58.4956  5876.03  77.1265
 58.5376  6087.39  78.074
 58.5796  5983.58  77.8223
 58.6216  5895.45  77.0704
 58.6636  5997.5  77.943
 58.7056  5880.33  77.0396
 58.7476  5923.56  77.7627
 58.7896  5878.69  77.1172
 58.8316  5861.85  77.004
 58.8736  5960.29  77.6498
 58.9156  5829.56  76.842
 58.9576  6073.73  78.7444
 58.9996  6067.72  77.9593
 59.0416  6056.43  78.2491
 59.0836  6036.76  78.0484
 59.1256  5893.43  77.8079
 59.1676  5846.51  77.7916
 59.2096  6104.27  78.7968
 59.2516  6088.6  78.275
 59.2936  6029.8  78.2239
 59.3356  6161.31  78.9488
 59.3776  6103.28  78.746
 59.4196  5948.58  77.6786
 59.4616  5925.55  77.3889
 59.5036  5982.84  77.7972
 59.5456  6108.31  78.3005
 59.5876  6081.42  78.3196
 59.6296  5990.52  77.8011
 59.6716  5919.42  77.3953
 59.7136  5998.26  77.8974
 59.7556  5943.89  77.6789
 59.7976  5968.37  77.5824
 59.8396  5878.23  76.89
 59.8816  5920.79  77.7078
 59.9236  6016.96  77.9807
 59.9656  5945.98  77.7771
 60.0076  5944.39  77.1301
 60.0496  5956.65  77.71
 60.0916  6095.44  78.0256
 60.1336  5915.57  77.9615
 60.1756  6002.24  79.7111
 60.1996  0.0000000E+00  0.0000000E+00