File: docs/examples/opeando_xrd/IS17_D/Data/IS17_D/17_Db_f00112.xye
# /beamlines/bl04/projects/cycle2025-II/20250340211-lsimonelli/DATA/IS17_D/17_Db_f00112.xye : mythproc.py merge -s 0.006 -l 0.5 -f /beamlines/bl04/inhouse/ff/FlatField/ff_20Nov2024rod8mm60s_17keV.raw -b True -c true -o xye /beamlines/bl04/projects/cycle2025-II/20250340211-lsimonelli/DATA/IS17_D/17_Db_00112.dat
# IsMon = [6742542, 6743968, 6741817]  IsPos = [-1.5000, -2.4884, -3.4988]
# Wave = 0.4962  CalPath /beamlines/bl04/projects/cycle2025-II/20250340211-lsimonelli/DATA/Align/Si_Pos1_25keV_f00001.cal
# Date = 2025-09-25_00:55:32 Dt = 4.8000  Bin = 0.0060  <imon> = 6742776 +/- 894 (Min/Max) 6741817 / 6743968
# icurr 249.0166  mocoIn 1.6999E-05  mocoOut 0.7974  i15 7.06769e+06  imon 6.74278e+06  i7 4.6667  iEMpd_timer 4.8000  iEMpd_1 3.5020E-08  iEMpd_2 7.8537E-08  iEMpd_3 1.7793E-08  iEMpd_4 4.7358E-08  iEMhp_timer 4.8000  iEMhp_1 4.8670E-06  iEMhp_2 -2.4710E-08  iEMhp_3 -2.4710E-08  iEMhp_4 -2.0858E-08
#      9776
 1.5856  44495  216.604
 1.6276  51599.8  229.255
 1.6696  57167.8  240.456
 1.7116  64225.6  255.365
 1.7536  71782.8  268.822
 1.7956  75871.2  277.061
 1.8376  73109.1  272.403
 1.8796  63050.3  251.113
 1.9216  52002.7  228.96
 1.9636  45517.6  213.87
 2.0056  41820.6  203.691
 2.0476  38603.7  197.845
 2.0896  37466.7  193.767
 2.1316  36800.8  191.114
 2.1736  34769.7  187.239
 2.2156  35544.2  187.794
 2.2576  34054.6  184.474
 2.2996  33171.4  182.736
 2.3416  33507.2  182.193
 2.3836  32806.8  180.389
 2.4256  32036  178.839
 2.4676  31613.7  177.404
 2.5096  31221.6  176.358
 2.5516  30074.2  177.037
 2.5936  30064.7  173.469
 2.6356  29543.7  172.692
 2.6776  29443.8  171.256
 2.7196  29084.8  170.72
 2.7616  28902.7  169.967
 2.8036  28583.9  169.191
 2.8456  28622.6  169.974
 2.8876  27751.9  167.228
 2.9296  27719.3  167.259
 2.9716  27223.8  165.228
 3.0136  26790.8  163.978
 3.0556  26993  165.003
 3.0976  26886.5  163.551
 3.1396  26714.9  163.778
 3.1816  26118.4  161.877
 3.2236  26155.9  161.982
 3.2656  25837.8  160.017
 3.3076  25801  161.417
 3.3496  25821.9  160.374
 3.3916  26074.8  160.975
 3.4336  26569  163.104
 3.4756  26825  163.824
 3.5176  27392.4  165.307
 3.5596  26884  166.844
 3.6016  26974.6  164.118
 3.6436  26150  162.715
 3.6856  25974  160.435
 3.7276  24819  157.919
 3.7696  24828.5  157.945
 3.8116  24205.8  156.047
 3.8536  24407.2  156.631
 3.8956  24092  155.433
 3.9376  24041.8  155.538
 3.9796  23981.6  154.817
 4.0216  24024.9  153.981
 4.0636  24053  155.565
 4.1056  24038.4  155.165
 4.1476  24244.4  156.148
 4.1896  24375.9  156.428
 4.2316  24656.5  157.152
 4.2736  24851.5  157.561
 4.3156  25017.4  158.332
 4.3576  25726.9  160.453
 4.3996  25829.8  161.052
 4.4416  26582.3  162.96
 4.4836  26834.7  163.894
 4.5256  27477.4  166.461
 4.5676  27366.1  166.385
 4.6096  27749.9  166.559
 4.6516  28364.6  167.716
 4.6936  28156.9  167.938
 4.7356  28446.2  168.614
 4.7776  28306.2  168.025
 4.8196  28375.1  168.888
 4.8616  27481.3  165.693
 4.9036  27511.1  165.512
 4.9456  27374.8  165.767
 4.9876  26782.8  163.861
 5.0296  26998.3  164.364
 5.0716  26669.2  164.114
 5.1136  26935.8  164.65
 5.1556  27123  164.672
 5.1976  27843.4  166.84
 5.2396  27657.7  165.965
 5.2816  27777.4  166.803
 5.3236  27836.5  166.678
 5.3656  27158.3  165.57
 5.4076  26803.8  164.629
 5.4496  26980.6  164.663
 5.4916  27331.2  165.473
 5.5336  26883.3  164.128
 5.5756  27072.9  164.717
 5.6176  27066.9  164.137
 5.6596  27347.4  165.82
 5.7016  27233.3  164.886
 5.7436  27746.7  166.718
 5.7856  27422.2  165.809
 5.8276  27696.8  166.349
 5.8696  27993.3  167.295
 5.9116  27717.6  167.186
 5.9536  28144.3  168.207
 5.9956  28432.7  168.454
 6.0376  28497.3  169.273
 6.0796  28693.1  169.681
 6.1216  28545.5  169.446
 6.1636  28686.4  168.911
 6.2056  28795.6  169.915
 6.2476  29364.4  171.266
 6.2896  29275.3  170.871
 6.3316  29336.2  171.226
 6.3736  29507.1  171.611
 6.4156  29455.2  171.409
 6.4576  29598.6  171.382
 6.4996  29489.3  171.544
 6.5416  29631.4  172.086
 6.5836  29576.7  172.171
 6.6256  29842.6  172.497
 6.6676  30304.9  173.384
 6.7096  30375.9  174.462
 6.7516  30522.2  174.538
 6.7936  30921.1  175.069
 6.8356  31223.1  176.017
 6.8776  31123.5  176.548
 6.9196  31149.3  177.024
 6.9616  31537.9  177.564
 7.0036  32030.6  178.597
 7.0456  31929.3  177.61
 7.0876  32666.2  181.268
 7.1296  32011.1  178.657
 7.1716  32124.6  178.52
 7.2136  31740  177.221
 7.2556  32153.3  178.531
 7.2976  32077.3  178.821
 7.3396  31888.4  178.508
 7.3816  31894.3  178.741
 7.4236  32171.3  178.813
 7.4656  32282.5  178.579
 7.5076  32469.9  179.257
 7.5496  32482.1  179.83
 7.5916  32782.8  180.699
 7.6336  32994.5  181.165
 7.6756  33053.5  181.183
 7.7176  33662.2  183.161
 7.7596  33248.2  183.266
 7.8016  34135.9  187.951
 7.8436  33412.5  182.608
 7.8856  33584.2  182.689
 7.9276  34208.3  184.779
 7.9696  34445.1  185.72
 8.0116  35470.1  187.008
 8.0536  35709.3  187.885
 8.0956  35701.4  189.046
 8.1376  36097  189.563
 8.1796  36331.3  190.712
 8.2216  36866.1  190.855
 8.2636  37085  191.673
 8.3056  36848.6  191.834
 8.3476  37859.4  193.764
 8.3896  37175.4  192.086
 8.4316  37482.9  193.047
 8.4736  37566.1  192.731
 8.5156  37177.4  192.005
 8.5576  36814.6  192.026
 8.5996  37033.2  191.477
 8.6416  36863.7  192.291
 8.6836  36435.7  191.019
 8.7256  37343.6  192.817
 8.7676  36987.1  194.824
 8.8096  37475  193.391
 8.8516  37609.2  193.36
 8.8936  37151.7  192.077
 8.9356  37276.8  192.731
 8.9776  36854.5  191.718
 9.0196  37238.3  192.382
 9.0616  36814.6  190.785
 9.1036  36621.4  191.457
 9.1456  36069.6  189.347
 9.1876  36350.3  189.997
 9.2296  36201.1  189.07
 9.2716  35861  188.213
 9.3136  36021.1  188.631
 9.3556  36423.7  189.659
 9.3976  35128  186.774
 9.4396  35236.5  186.965
 9.4816  35075.3  186.387
 9.5236  34461.5  184.643
 9.5656  34299.4  184.578
 9.6076  33632.8  183.3
 9.6496  34036.6  184.273
 9.6916  33783.4  183.552
 9.7336  33925.4  183.721
 9.7756  33835.1  184.602
 9.8176  33712.1  183.904
 9.8596  33522.3  181.81
 9.9016  33081.1  180.594
 9.9436  32402.2  178.486
 9.9856  32579.8  179.415
 10.0276  32014  178.927
 10.0696  32338.9  178.853
 10.1116  31564.2  176.98
 10.1536  31584.2  176.678
 10.1956  31017  175.195
 10.2376  30908.7  174.402
 10.2796  30495.1  173.339
 10.3216  30136.2  172.438
 10.3636  29977.8  172.179
 10.4056  29219.3  170.386
 10.4476  29677  171.322
 10.4896  30002.9  171.704
 10.5316  29273.4  169.987
 10.5736  29021.1  170.008
 10.6156  28775  169.04
 10.6576  28535.8  166.911
 10.6996  28437.5  167.324
 10.7416  28042.7  166.371
 10.7836  27709.1  166.055
 10.8256  27297.9  165.245
 10.8676  27158.1  164.364
 10.9096  27062.7  164.1
 10.9516  26995.1  162.847
 10.9936  26936.6  162.885
 11.0356  26775.3  162.999
 11.0776  26631.7  161.9
 11.1196  26146.8  161.176
 11.1616  25725.9  159.546
 11.2036  26020.3  160.306
 11.2456  25819.5  160.386
 11.2876  26026.9  160.757
 11.3296  25620.1  159.415
 11.3716  25815.1  159.757
 11.4136  25909.6  160.881
 11.4556  25868.7  160.418
 11.4976  26014.5  159.864
 11.5396  26266.1  160.803
 11.5816  27182.5  164.023
 11.6236  27380  164.868
 11.6656  27388.1  164.022
 11.7076  26309.6  161.596
 11.7496  25505.2  163.151
 11.7916  25549.8  158.511
 11.8336  25015.6  157.731
 11.8756  24772.8  156.514
 11.9176  24833.2  156.373
 11.9596  24812.2  156.482
 12.0016  24573.9  156.505
 12.0436  24738.9  156.474
 12.0856  24410.8  155.932
 12.1276  24207.9  155.24
 12.1696  24255.7  154.504
 12.2116  24391.8  154.935
 12.2536  24415.7  155.807
 12.2956  24036.3  153.959
 12.3376  24216.5  154.747
 12.3796  24039.7  154.662
 12.4216  24122.1  154.116
 12.4636  23776.9  153.951
 12.5056  23955.5  153.791
 12.5476  24275.7  154.323
 12.5896  23877.6  153.7
 12.6316  24044.3  154.383
 12.6736  23895.3  154.4
 12.7156  23912.9  154.291
 12.7576  23829.6  154.283
 12.7996  24121.2  153.85
 12.8416  23711.3  153.589
 12.8836  24026.9  154.44
 12.9256  24351.4  154.504
 12.9676  24254.4  154.6
 13.0096  24621.1  156.895
 13.0516  24380.5  155.154
 13.0936  24575.7  155.901
 13.1356  24937.7  156.287
 13.1776  24748.1  156.717
 13.2196  24873.6  156.753
 13.2616  24623.3  156.278
 13.3036  24986.9  157.567
 13.3456  24495.6  156.183
 13.3876  24978.2  156.995
 13.4296  24595  155.942
 13.4716  24709.8  155.93
 13.5136  24620  155.781
 13.5556  24594.3  156.328
 13.5976  24766.3  157.046
 13.6396  24614.5  155.918
 13.6816  25022.2  157.553
 13.7236  25114.5  157.547
 13.7656  26674  162.836
 13.8076  27373.8  163.606
 13.8496  26031.1  160.384
 13.8916  25083.3  158.394
 13.9336  24347  155.331
 13.9756  24311.8  154.586
 14.0176  23985.6  154.23
 14.0596  24155.6  154.702
 14.1016  24023.1  154.707
 14.1436  24036  153.868
 14.1856  23369.9  152.016
 14.2276  23290.5  152.237
 14.2696  23424.4  152.53
 14.3116  22710.8  150.093
 14.3536  22661.9  150.102
 14.3956  22751.8  150.114
 14.4376  22891.6  150.364
 14.4796  22669.1  149.631
 14.5216  22287.7  149.159
 14.5636  22183.7  148.381
 14.6056  22339.9  148.462
 14.6476  22381.7  147.834
 14.6896  21928.2  146.876
 14.7316  21641.5  146.954
 14.7736  21290.9  144.897
 14.8156  21233.8  144.723
 14.8576  21329.4  144.913
 14.8996  20727  144.042
 14.9416  20545.1  143.431
 14.9836  20616.4  143.659
 15.0256  19730.1  139.455
 15.0676  19888.6  140.327
 15.1096  19877.5  140.025
 15.1516  19526  139.333
 15.1936  19446  138.482
 15.2356  19297.3  138.227
 15.2776  18987.4  136.707
 15.3196  18814.2  137.071
 15.3616  18645.8  136.219
 15.4036  18514.7  135.594
 15.4456  18855.8  136.493
 15.4876  18671.1  135.505
 15.5296  18326.2  134.529
 15.5716  17844.9  132.363
 15.6136  18214.3  134.05
 15.6556  18249.6  133.422
 15.6976  18028.1  132.896
 15.7396  17930.9  132.934
 15.7816  17577.2  131.133
 15.8236  17497.7  131.524
 15.8656  17559.9  131.55
 15.9076  17223.8  130.11
 15.9496  18136.2  136.35
 15.9916  17711.3  135.138
 16.0336  17958.1  132.927
 16.0756  17638  132.065
 16.1176  17311  130.754
 16.1596  16986.1  130.835
 16.2016  17153.4  130.254
 16.2436  17078.1  130.343
 16.2856  17163.9  130.185
 16.3276  16963  129.874
 16.3696  16738.9  128.823
 16.4116  16732.2  129.25
 16.4536  16968  129.959
 16.4956  16905.6  129.452
 16.5376  16634.8  128.606
 16.5796  16528.5  127.564
 16.6216  16704.5  128.488
 16.6636  16240.1  126.896
 16.7056  16366  127.246
 16.7476  16471.4  127.185
 16.7896  16294.2  127.242
 16.8316  16589.2  128.368
 16.8736  16458.8  128.115
 16.9156  16470.4  128.491
 16.9576  16378.7  128.923
 16.9996  16355  129.288
 17.0416  16559.8  128.472
 17.0836  16582.5  128.32
 17.1256  16287.2  127.174
 17.1676  16370.9  127.464
 17.2096  16235.5  126.829
 17.2516  16400  127.568
 17.2936  16320.2  127.305
 17.3356  15997.2  126.026
 17.3776  15958.9  126.058
 17.4196  15724.1  124.828
 17.4616  15789.7  124.996
 17.5036  15440.4  123.97
 17.5456  15244.1  123.814
 17.5876  15241.6  122.845
 17.6296  15701.2  124.504
 17.6716  15239.6  123.256
 17.7136  15235  123.368
 17.7556  15166.3  123.385
 17.7976  15056  122.665
 17.8396  14890.9  121.502
 17.8816  14776.6  121.593
 17.9236  14831.8  121.61
 17.9656  14700.1  121.593
 18.0076  14663.2  121.041
 18.0496  14576.6  119.82
 18.0916  14582  120.39
 18.1336  14473.2  120.028
 18.1756  14598.3  120.102
 18.2176  14379.2  119.408
 18.2596  14351.6  119.02
 18.3016  14494.9  119.877
 18.3436  14380.2  119.399
 18.3856  14269.2  119.072
 18.4276  14229.9  118.602
 18.4696  14067.7  118.01
 18.5116  14158.9  118.653
 18.5536  14350.3  119.823
 18.5956  14148.1  118.53
 18.6376  14101.1  118.738
 18.6796  14148.3  118.265
 18.7216  14193.8  118.93
 18.7636  13969.3  118.002
 18.8056  14041.3  118.226
 18.8476  13759.4  117.657
 18.8896  14003.3  118.028
 18.9316  14047.7  118.2
 18.9736  13987.9  117.646
 19.0156  13916.3  117.756
 19.0576  14082  117.31
 19.0996  14086.3  118.031
 19.1416  14035.3  118.219
 19.1836  13871.3  117.135
 19.2256  13745.5  116.82
 19.2676  13833.1  117.27
 19.3096  13790  117.343
 19.3516  13947.1  117.779
 19.3936  13790.8  117.193
 19.4356  13929.9  117.67
 19.4776  13978.2  117.959
 19.5196  13960.2  117.738
 19.5616  13916.4  117.815
 19.6036  13801.7  116.829
 19.6456  13895.4  117.343
 19.6876  13760.5  116.4
 19.7296  13995.4  117.851
 19.7716  13676.5  116.676
 19.8136  14009.1  118.287
 19.8556  14083  118.079
 19.8976  13824.8  117.049
 19.9396  13907.3  116.995
 19.9816  14071  117.927
 20.0236  14405.3  119.504
 20.0656  14579.6  120.228
 20.1076  14881.7  121.965
 20.1496  15034.8  122.579
 20.1916  15135.8  122.454
 20.2336  14857.9  121.275
 20.2756  14530.3  120.389
 20.3176  14125.7  118.44
 20.3596  13913.2  117.536
 20.4016  13862.8  117.11
 20.4436  13724.7  117.097
 20.4856  13668.2  116.65
 20.5276  13448.1  116.169
 20.5696  13604.4  116.392
 20.6116  13448.1  115.888
 20.6536  13436.2  115.349
 20.6956  13298.4  114.891
 20.7376  13224.2  114.785
 20.7796  13266.7  114.647
 20.8216  13225.2  114.192
 20.8636  13378.8  115.232
 20.9056  13355.8  115.068
 20.9476  13252.8  114.471
 20.9896  13384.3  114.9
 21.0316  13168.5  113.867
 21.0736  13112.3  114.149
 21.1156  12970.4  113.685
 21.1576  13109.2  114.33
 21.1996  13063.2  114.116
 21.2416  13156.8  114.35
 21.2836  12995.8  113.619
 21.3256  13124.2  114.256
 21.3676  12967.3  113.101
 21.4096  12834.1  112.899
 21.4516  12789.3  112.53
 21.4936  12755.6  112.638
 21.5356  12977.5  113.56
 21.5776  13034.4  113.639
 21.6196  12854.3  112.9
 21.6616  12735.9  112.454
 21.7036  12803.2  112.51
 21.7456  12914.5  113.09
 21.7876  12718.7  111.993
 21.8296  12799.2  112.19
 21.8716  12759.4  112.244
 21.9136  12912.5  113.117
 21.9556  12742.7  112.048
 21.9976  12673.6  111.772
 22.0396  12596.7  111.686
 22.0816  12573.4  112.113
 22.1236  12917.9  113.091
 22.1656  12684.6  112.209
 22.2076  12485.1  110.775
 22.2496  12462.8  110.706
 22.2916  12475.1  110.647
 22.3336  12596.5  111.904
 22.3756  12621  111.739
 22.4176  12298  110.151
 22.4596  12182.7  110.223
 22.5016  12292.9  110.218
 22.5436  12513.7  111.087
 22.5856  12505.9  111.294
 22.6276  12755.4  112.532
 22.6696  12408.1  111.346
 22.7116  12481.2  111.182
 22.7536  12384.8  110.731
 22.7956  12428.5  110.258
 22.8376  12198.4  109.755
 22.8796  12461.7  110.732
 22.9216  12349.7  110.777
 22.9636  12383.5  110.076
 23.0056  12274.5  109.73
 23.0476  12359.3  110.677
 23.0896  12669.2  111.432
 23.1316  12493  111.089
 23.1736  12604  114.524
 23.2156  12777.3  112.681
 23.2576  12932.6  113.494
 23.2996  12664.7  112.088
 23.3416  12957.3  113.909
 23.3836  12788  112.39
 23.4256  13012.6  113.49
 23.4676  12756.2  112.054
 23.5096  12638.7  112.212
 23.5516  12584.2  111.257
 23.5936  12733.2  112.836
 23.6356  12819.1  112.872
 23.6776  12600.1  112.123
 23.7196  12615.1  111.977
 23.7616  12662.4  111.89
 23.8036  12810.4  112.594
 23.8456  12649.1  111.435
 23.8876  12623.8  111.669
 23.9296  12509.1  111.667
 23.9716  12516  110.89
 24.0136  12313.7  110.895
 24.0556  12310.9  110.591
 24.0976  12139.3  109.64
 24.1396  12127.6  112.216
 24.1816  12380.7  111.762
 24.2236  12175.8  110.463
 24.2656  12097.1  109.565
 24.3076  12265  110.608
 24.3496  12018  109.357
 24.3916  12242.3  110.437
 24.4336  12168.9  110.302
 24.4756  12156.1  110.133
 24.5176  11965.8  108.891
 24.5596  12053.8  109.609
 24.6016  11787.5  108.503
 24.6436  11890.3  108.476
 24.6856  11774.5  107.694
 24.7276  11630.3  107.352
 24.7696  11730.7  107.925
 24.8116  11545.6  107.24
 24.8536  11614.8  107.572
 24.8956  11392  106.259
 24.9376  11460.2  106.771
 24.9796  11387.3  106.529
 25.0216  11322.2  106.346
 25.0636  11543.7  107.035
 25.1056  11319.2  106.676
 25.1476  11381.7  108.641
 25.1896  11364.5  107.039
 25.2316  11135  105.236
 25.2736  11297.7  105.653
 25.3156  11212.9  105.335
 25.3576  11107.8  105.27
 25.3996  11189.4  105.644
 25.4416  11081.6  105.107
 25.4836  10985.3  105.166
 25.5256  11075.3  104.958
 25.5676  11074.6  104.686
 25.6096  10950.8  104.678
 25.6516  11052.3  104.659
 25.6936  11037.3  104.903
 25.7356  10958.7  104.665
 25.7776  11070.1  104.874
 25.8196  10853.6  104.004
 25.8616  10950.9  104.4
 25.9036  11061.8  104.377
 25.9456  10870.9  104.072
 25.9876  11059.8  104.886
 26.0296  10947  104.01
 26.0716  10942.4  104.418
 26.1136  10937.6  104.318
 26.1556  10894.8  103.513
 26.1976  10865.5  104.295
 26.2396  10871.7  103.478
 26.2816  10847.1  103.97
 26.3236  10851.4  104.143
 26.3656  10980.1  104.483
 26.4076  10807.4  103.87
 26.4496  10980.2  104.286
 26.4916  11030  104.401
 26.5336  11267.2  105.873
 26.5756  11616  107.379
 26.6176  11023.7  104.628
 26.6596  10961.2  104.643
 26.7016  10848.8  103.861
 26.7436  10975.7  104.606
 26.7856  10622.1  102.891
 26.8276  10687.7  103.173
 26.8696  10652.1  102.873
 26.9116  10751.4  103.277
 26.9536  10631.8  102.756
 26.9956  10471  102.015
 27.0376  10547.2  102.606
 27.0796  10513.1  102.164
 27.1216  10605.9  102.68
 27.1636  10366.7  101.685
 27.2056  10304.1  101.26
 27.2476  10418.8  101.808
 27.2896  10350.2  101.593
 27.3316  10344.9  101.285
 27.3736  10310.6  101.385
 27.4156  10427.8  101.796
 27.4576  10298.2  101.39
 27.4996  10365.7  101.32
 27.5416  10265.5  101.139
 27.5836  10253.3  100.916
 27.6256  10247.5  101.075
 27.6676  10336.7  101.498
 27.7096  10363.3  101.503
 27.7516  10291  101.302
 27.7936  10482.1  102.384
 27.8356  10406.4  101.624
 27.8776  10410.4  101.703
 27.9196  10271.9  100.892
 27.9616  10189.8  100.686
 28.0036  10048.8  99.9481
 28.0456  10028.9  99.9884
 28.0876  10070.6  100.279
 28.1296  10195.8  100.735
 28.1716  10115.1  100.351
 28.2136  10152.5  100.505
 28.2556  9958.6  99.6563
 28.2976  9913.91  99.4254
 28.3396  9902.64  99.1293
 28.3816  9982.44  99.537
 28.4236  9806.24  98.8018
 28.4656  9832.8  98.9834
 28.5076  9906.28  98.9854
 28.5496  9967.21  99.5552
 28.5916  9908.33  99.0649
 28.6336  9942.8  99.5846
 28.6756  9983.81  98.9751
 28.7176  9881.73  99.0289
 28.7596  9715.05  98.0875
 28.8016  9825.13  98.6734
 28.8436  9657.65  98.0644
 28.8856  9872.84  99.0114
 28.9276  9873.09  99.2593
 28.9696  9697.79  98.0306
 29.0116  9635.24  97.8991
 29.0536  9766.94  98.7705
 29.0956  9724.97  98.2514
 29.1376  9692.11  98.0651
 29.1796  9751.45  98.4088
 29.2216  9637.33  97.6781
 29.2636  9769.19  98.4157
 29.3056  9678.2  97.7285
 29.3476  9691.58  98.335
 29.3896  9760.05  98.7994
 29.4316  9516.48  96.8952
 29.4736  9413.39  96.4328
 29.5156  9514.07  96.8612
 29.5576  9425.34  97.1394
 29.5996  9437.7  96.4752
 29.6416  9390.95  96.3493
 29.6836  9522.5  96.9545
 29.7256  9349.7  96.6286
 29.7676  9425.27  96.6846
 29.8096  9388.15  96.4322
 29.8516  9208.57  95.8386
 29.8936  9252.86  96.1555
 29.9356  9427.62  96.8173
 29.9776  9299.18  96.3033
 30.0196  9399.37  96.2124
 30.0616  9252.95  95.8327
 30.1036  9452.67  96.6867
 30.1456  9246.28  95.8603
 30.1876  9338.83  96.3118
 30.2296  9260.41  95.8621
 30.2716  9429.56  96.3644
 30.3136  9415.38  97.1497
 30.3556  9466.38  97.4139
 30.3976  9419.74  98.6604
 30.4396  9825.93  98.0989
 30.4816  9608.73  96.6023
 30.5236  9689.66  97.0163
 30.5656  9596.59  97.2144
 30.6076  9388.77  95.92
 30.6496  9456.15  96.3146
 30.6916  9273.16  95.4669
 30.7336  9558.61  97.0795
 30.7756  9627.62  97.5094
 30.8176  9391.13  96.2399
 30.8596  9530.12  96.6844
 30.9016  9588.54  96.8735
 30.9436  9655.42  97.4286
 30.9856  9722.49  97.8836
 31.0276  9375.13  95.7525
 31.0696  9441.98  96.647
 31.1116  9352.69  96.1626
 31.1536  9309.26  95.819
 31.1956  9328.04  96.0042
 31.2376  9168.64  95.203
 31.2796  9287.15  95.3518
 31.3216  9418.54  95.9445
 31.3636  9380.83  96.4574
 31.4056  9302.42  97.3612
 31.4476  9355.82  95.544
 31.4896  9134.68  94.9006
 31.5316  9331.56  95.3246
 31.5736  9612.5  96.5792
 31.6156  9382.25  95.4181
 31.6576  9468.7  95.924
 31.6996  9492.22  95.7131
 31.7416  9331.92  95.8648
 31.7836  9352.59  95.1089
 31.8256  9363.22  95.424
 31.8676  9377.1  95.4933
 31.9096  9152.8  94.5659
 31.9516  9127.1  94.7455
 31.9936  9162.81  94.7492
 32.0356  9232.19  95.1691
 32.0776  9269.21  95.2395
 32.1196  9403.64  95.9505
 32.1616  9343.93  95.1752
 32.2036  9239.62  95.1602
 32.2456  9157.37  95.1085
 32.2876  9256.02  95.1188
 32.3296  9222.53  94.9112
 32.3716  8927.91  93.4979
 32.4136  8962.5  93.8865
 32.4556  9203.79  94.5157
 32.4976  9080.3  93.8385
 32.5396  9010.42  93.4956
 32.5816  8977.67  93.4492
 32.6236  9056.63  93.9278
 32.6656  9144.89  94.926
 32.7076  8960.88  93.6217
 32.7496  9024.15  93.626
 32.7916  9005.82  93.4892
 32.8336  9029.86  93.7077
 32.8756  9077.63  93.6711
 32.9176  8824.16  92.8376
 32.9596  8957.86  93.6135
 33.0016  8854.85  92.8366
 33.0436  8875.34  93.1408
 33.0856  8873.05  93.212
 33.1276  8802.24  92.5618
 33.1696  8911.82  92.9741
 33.2116  8940.86  93.3644
 33.2536  9014.89  93.7352
 33.2956  8906.05  93.2501
 33.3376  8763.95  92.3398
 33.3796  8899.08  93.1778
 33.4216  8826.99  92.3895
 33.4636  8944.32  93.1528
 33.5056  8830.18  92.8037
 33.5476  8903.48  93.1628
 33.5896  8859.3  92.7284
 33.6316  8895.89  93.2311
 33.6736  8780.3  92.8742
 33.7156  8747.49  92.73
 33.7576  8983.99  93.6142
 33.7996  8931.68  93.1041
 33.8416  8603.39  91.5591
 33.8836  8696.12  91.8241
 33.9256  8902.08  92.959
 33.9676  8846.69  92.5743
 34.0096  8632.99  91.7595
 34.0516  8667.96  91.5858
 34.0936  8736.53  92.218
 34.1356  8825.44  92.4233
 34.1776  8622.11  91.3396
 34.2196  8608.27  91.461
 34.2616  8630.33  91.7071
 34.3036  8694.97  92.2975
 34.3456  8607.72  91.587
 34.3876  8799.53  92.6707
 34.4296  8723.53  91.8723
 34.4716  8787.45  92.3583
 34.5136  8610.02  91.6087
 34.5556  8640.5  92.0266
 34.5976  8766.35  92.5374
 34.6396  8527.78  90.9537
 34.6816  8697.86  91.9579
 34.7236  8632.09  91.3923
 34.7656  8617.63  91.5158
 34.8076  8523.78  91.3555
 34.8496  8486.73  91.0066
 34.8916  8646.72  91.7279
 34.9336  8634.42  91.638
 34.9756  8697.88  91.9174
 35.0176  8471.91  91.2192
 35.0596  8647.62  91.9795
 35.1016  8590.3  91.4259
 35.1436  8807.22  92.2686
 35.1856  8584.18  91.2001
 35.2276  8500.92  90.9388
 35.2696  8588.97  91.6011
 35.3116  8585.99  91.6871
 35.3536  8614.7  91.57
 35.3956  8558.41  90.9557
 35.4376  8527.05  91.3511
 35.4796  8567.54  91.6118
 35.5216  8499.76  91.2142
 35.5636  8246.83  90.5776
 35.6056  8467.41  90.8028
 35.6476  8610.55  91.4613
 35.6896  8602.11  91.514
 35.7316  8438.29  90.6156
 35.7736  8389.11  90.5255
 35.8156  8519.1  91.2317
 35.8576  8465.8  91.19
 35.8996  8493.08  91.3136
 35.9416  8421.72  90.4313
 35.9836  8330.54  90.3982
 36.0256  8594.59  91.7262
 36.0676  8602.69  91.5203
 36.1096  8411.82  90.6392
 36.1516  8617.75  91.638
 36.1936  8507.86  90.8848
 36.2356  8496.54  91.4896
 36.2776  8480.76  90.8532
 36.3196  8399.84  90.1068
 36.3616  8429.88  90.3959
 36.4036  8368.9  90.14
 36.4456  8362.64  90.3137
 36.4876  8232.44  89.5477
 36.5296  8322.24  90.0745
 36.5716  8182.58  90.0859
 36.6136  8276.47  89.3908
 36.6556  8110.87  88.6915
 36.6976  8131.84  89.2953
 36.7396  8181.51  89.2968
 36.7816  8192.3  89.7313
 36.8236  8084.47  89.0586
 36.8656  7973.5  88.5224
 36.9076  8044.3  88.7868
 36.9496  8060.68  88.872
 36.9916  8015.1  88.2469
 37.0336  8174.3  89.4381
 37.0756  7991.39  88.2267
 37.1176  7943.94  88.2298
 37.1596  7983.06  88.4516
 37.2016  7924.22  88.3499
 37.2436  8231.17  89.3492
 37.2856  8037.41  88.5479
 37.3276  8044.03  87.9502
 37.3696  7880.6  87.9184
 37.4116  8080.23  88.937
 37.4536  8027.29  88.5084
 37.4956  7948.12  88.1235
 37.5376  8058.57  90.3045
 37.5796  8058.8  90.238
 37.6216  8176.65  89.155
 37.6636  8106.63  88.657
 37.7056  8084.16  88.7277
 37.7476  8199.93  88.8965
 37.7896  8022.88  88.4441
 37.8316  8119.41  89.1258
 37.8736  8004.32  88.0283
 37.9156  8139.73  88.7644
 37.9576  8059.66  88.237
 37.9996  7954.9  87.3723
 38.0416  8074.85  88.8294
 38.0836  8217.67  89.5202
 38.1256  8012.39  88.3727
 38.1676  7825.08  87.4494
 38.2096  8064.69  88.3915
 38.2516  8070.96  88.6475
 38.2936  8198.89  89.1341
 38.3356  8022.45  88.1118
 38.3776  7940.52  87.9007
 38.4196  8044.2  88.334
 38.4616  7939.57  88.0042
 38.5036  8135.85  88.9252
 38.5456  7977.58  88.8769
 38.5876  7916.96  88.5679
 38.6296  7975.06  87.8621
 38.6716  8058.22  88.1151
 38.7136  7850.88  86.914
 38.7556  7962.61  88.0404
 38.7976  8005.73  88.1999
 38.8396  7901.08  88.0931
 38.8816  7948.97  88.1523
 38.9236  7819.25  87.2313
 38.9656  7945.35  87.836
 39.0076  8075.53  87.9508
 39.0496  8000  88.1003
 39.0916  7933.49  87.3781
 39.1336  7970.26  87.9926
 39.1756  8058.17  88.5346
 39.2176  7878.43  88.0759
 39.2596  8008.33  88.7262
 39.3016  7933.02  87.8907
 39.3436  7917.92  88.2107
 39.3856  8078.31  88.5419
 39.4276  8157.05  89.4919
 39.4696  7957.44  88.0053
 39.5116  7922.86  88.3242
 39.5536  7937.79  88.8373
 39.5956  7951.01  88.0103
 39.6376  7914.91  87.8179
 39.6796  7868.99  87.305
 39.7216  7913.66  87.658
 39.7636  7963.55  88.4747
 39.8056  7968.71  88.3147
 39.8476  7928.18  88.3417
 39.8896  7983.16  88.2704
 39.9316  7853.02  87.8027
 39.9736  8029.82  88.3543
 40.0156  7938.9  87.684
 40.0576  7923.21  87.9458
 40.0996  8028.5  87.7157
 40.1416  7953.8  88.0978
 40.1836  8028.35  88.3983
 40.2256  7950.95  88.0021
 40.2676  7821.24  87.4627
 40.3096  7996.1  88.288
 40.3516  8077.19  88.8404
 40.3936  8045.88  88.2296
 40.4356  7972.14  88.0308
 40.4776  8087.6  88.9056
 40.5196  7871.59  88.0041
 40.5616  8116.55  89.0023
 40.6036  7920.66  88.1744
 40.6456  7949.55  87.9435
 40.6876  8057.63  88.5297
 40.7296  7991.71  88.2976
 40.7716  8089.18  88.961
 40.8136  7958.55  88.177
 40.8556  8140.98  89.3216
 40.8976  7996.99  88.456
 40.9396  8027.73  88.9709
 40.9816  8034.2  88.2948
 41.0236  7937.88  87.55
 41.0656  8175.11  89.3946
 41.1076  7863.66  87.4428
 41.1496  8029.32  88.2607
 41.1916  7918.1  87.9636
 41.2336  7975.87  88.2885
 41.2756  7920.79  87.5893
 41.3176  7981.61  88.5352
 41.3596  8013.04  88.4463
 41.4016  7892.23  88.0376
 41.4436  7960.71  88.1972
 41.4856  7942.91  88.2664
 41.5276  7975.01  88.4626
 41.5696  7904.42  87.7027
 41.6116  8000.98  88.6285
 41.6536  7917.82  88.0084
 41.6956  8002.4  88.4722
 41.7376  7964.97  88.3718
 41.7796  7822.35  87.4634
 41.8216  7925.48  88.2613
 41.8636  7959.53  88.4042
 41.9056  7860.06  87.6394
 41.9476  7943.98  88.3395
 41.9896  8001.41  88.322
 42.0316  8036.43  88.6044
 42.0736  8002.78  88.5496
 42.1156  7949.7  88.0578
 42.1576  8000.65  88.4487
 42.1996  8030.83  88.7475
 42.2416  7941.08  87.8409
 42.2836  7961.52  88.0722
 42.3256  7840.35  87.5073
 42.3676  8051.87  88.4753
 42.4096  7933.51  87.7909
 42.4516  7955.49  87.9947
 42.4936  7903.55  87.7771
 42.5356  7809.9  87.3989
 42.5776  7977.32  88.2657
 42.6196  7894.39  87.8628
 42.6616  7711.45  87.0095
 42.7036  7935.26  87.6347
 42.7456  7918.64  87.904
 42.7876  7834.33  87.5255
 42.8296  7959.83  88.0624
 42.8716  7785.77  87.2629
 42.9136  7727.8  86.6859
 42.9556  7894.34  87.7847
 42.9976  7916.45  87.875
 43.0396  7878.81  87.3945
 43.0816  7808.3  87.3888
 43.1236  7835.33  87.5924
 43.1656  7875  87.6345
 43.2076  7788.75  87.265
 43.2496  7711.87  86.6528
 43.2916  7765.26  87.3112
 43.3336  7851.11  87.6183
 43.3756  7790.91  87.0463
 43.4176  7711.9  86.6881
 43.4596  7833.61  87.219
 43.5016  7843.22  87.6841
 43.5436  7794.86  87.3194
 43.5856  7750.69  87.0982
 43.6276  7724.05  86.8336
 43.6696  7635.13  86.5938
 43.7116  7867.72  87.3969
 43.7536  7886.8  88.003
 43.7956  7735.97  88.367
 43.8376  7675.02  86.5427
 43.8796  7617.84  86.3017
 43.9216  7515.97  85.6396
 43.9636  7617.01  86.3263
 44.0056  7494.72  85.858
 44.0476  7575.35  85.9526
 44.0896  7470.97  85.6956
 44.1316  7716.5  86.6116
 44.1736  7560.97  85.8594
 44.2156  7701.19  86.5006
 44.2576  7474.31  85.5438
 44.2996  7524.59  85.7987
 44.3416  7578.85  85.8699
 44.3836  7531.86  85.9325
 44.4256  7560.37  85.735
 44.4676  7477.54  85.4233
 44.5096  7430.03  85.295
 44.5516  7541.75  85.9014
 44.5936  7357.45  84.7949
 44.6356  7686.21  86.4047
 44.6776  7502.73  85.6813
 44.7196  7579.91  86.4321
 44.7616  7634.35  88.0738
 44.8036  7641.33  86.7385
 44.8456  7698.43  87.0644
 44.8876  7766.57  87.2913
 44.9296  7750.93  86.6418
 44.9716  7751.94  87.0871
 45.0136  7622.43  86.2947
 45.0556  7710.35  86.8773
 45.0976  7598.66  86.2954
 45.1396  7649.54  86.3185
 45.1816  7657.38  86.3158
 45.2236  7694.66  86.4341
 45.2656  7681.7  86.8714
 45.3076  7693.9  86.7142
 45.3496  7594.44  86.4655
 45.3916  7612.16  86.8339
 45.4336  7649.59  86.8802
 45.4756  7607.78  86.5093
 45.5176  7681.7  86.5248
 45.5596  7760.69  87.0999
 45.6016  7544.25  86.3023
 45.6436  7546.47  85.4878
 45.6856  7543.98  86.1261
 45.7276  7498.77  87.1905
 45.7696  7478.89  86.7555
 45.8116  7459.9  86.0777
 45.8536  7459.12  85.9648
 45.8956  7571.37  85.9485
 45.9376  7543.8  85.2528
 45.9796  7553.52  85.9999
 46.0216  7614.91  86.6842
 46.0636  7507.79  85.2096
 46.1056  7584.13  85.6471
 46.1476  7564.89  86.1252
 46.1896  7530.47  86.0761
 46.2316  7568.4  86.1714
 46.2736  7618.36  86.673
 46.3156  7621.88  86.4341
 46.3576  7537.48  86.1575
 46.3996  7666.52  87.0425
 46.4416  7540.51  85.8818
 46.4836  7600.66  86.6013
 46.5256  7646.86  86.8143
 46.5676  7462.35  85.8751
 46.6096  7495.69  86.0016
 46.6516  7581.03  85.5178
 46.6936  7638.58  86.3389
 46.7356  7653.66  86.5217
 46.7776  7442.39  86.1866
 46.8196  7538.45  86.4725
 46.8616  7452.95  85.7897
 46.9036  7411.05  85.1978
 46.9456  7388.31  84.6999
 46.9876  7427.37  85.0104
 47.0296  7423.22  85.6832
 47.0716  7366.71  85.1785
 47.1136  7471.11  85.4514
 47.1556  7404.59  84.9393
 47.1976  7509.29  85.6977
 47.2396  7363.11  85.1863
 47.2816  7317.81  84.6191
 47.3236  7399.33  85.4543
 47.3656  7472.12  85.8069
 47.4076  7485.2  85.6184
 47.4496  7382.34  85.1904
 47.4916  7391.44  85.4374
 47.5336  7485.02  85.7883
 47.5756  7536.94  86.1973
 47.6176  7433.77  85.5071
 47.6596  7379.83  84.9084
 47.7016  7542.27  85.637
 47.7436  7587.82  86.2553
 47.7856  7527.3  85.9265
 47.8276  7356.26  84.9952
 47.8696  7487.78  85.8505
 47.9116  7478.24  85.505
 47.9536  7443.35  85.2438
 47.9956  7401.62  85.7236
 48.0376  7342.07  85.1481
 48.0796  7470.62  86.022
 48.1216  7391.73  85.3808
 48.1636  7445.78  85.2603
 48.2056  7447.25  85.5397
 48.2476  7597.49  86.7035
 48.2896  7493.47  86.0211
 48.3316  7443.48  85.6816
 48.3736  7328.37  85.0285
 48.4156  7399.85  85.299
 48.4576  7403.52  85.6223
 48.4996  7476.75  85.4853
 48.5416  7465.8  85.7574
 48.5836  7391.16  85.0002
 48.6256  7570.3  86.2418
 48.6676  7528.93  86.5278
 48.7096  7440  85.2677
 48.7516  7413.01  85.264
 48.7936  7343.21  84.9256
 48.8356  7358.51  85.0661
 48.8776  7442.25  86.1264
 48.9196  7554.14  86.1244
 48.9616  7369.95  85.457
 49.0036  7412.27  86.0582
 49.0456  7361.38  85.7416
 49.0876  7408.32  85.5418
 49.1296  7287.04  85.01
 49.1716  7292.08  84.9066
 49.2136  7399.12  85.44
 49.2556  7369.85  85.3087
 49.2976  7384.03  85.4662
 49.3396  7327.33  85.1949
 49.3816  7392.85  84.9907
 49.4236  7420.38  85.5775
 49.4656  7327.91  85.0672
 49.5076  7423.62  85.3664
 49.5496  7396.49  85.2727
 49.5916  7378.96  85.0884
 49.6336  7283.51  84.7405
 49.6756  7313.44  85.1427
 49.7176  7395  85.5674
 49.7596  7398.26  85.349
 49.8016  7349.18  84.9863
 49.8436  7282.41  84.8992
 49.8856  7289.93  84.9399
 49.9276  7241.95  84.7647
 49.9696  7324.37  85.2302
 50.0116  7288.05  85.1309
 50.0536  7293.4  85.1256
 50.0956  7207.33  84.6966
 50.1376  7267.3  84.7356
 50.1796  7314.04  85.2906
 50.2216  7291.1  85.1502
 50.2636  7323.83  84.9518
 50.3056  7254.16  84.7239
 50.3476  7259.46  84.774
 50.3896  7246.93  84.6779
 50.4316  7304.75  84.8418
 50.4736  7197.13  84.439
 50.5156  7278.85  84.9048
 50.5576  7353.67  85.0909
 50.5996  7254.32  84.8091
 50.6416  7349.41  85.2826
 50.6836  7276.2  84.9205
 50.7256  7335.76  85.1889
 50.7676  7404.52  85.9007
 50.8096  7218.83  84.3508
 50.8516  7176.58  84.5398
 50.8936  7187.8  84.3774
 50.9356  7343.87  85.3911
 50.9776  7226.2  84.8786
 51.0196  7076.26  84.114
 51.0616  7094.9  83.5401
 51.1036  7158.39  84.281
 51.1456  7186.15  84.3517
 51.1876  7151.74  83.4682
 51.2296  7077.84  83.6827
 51.2716  7019.09  83.0491
 51.3136  7021.43  83.5268
 51.3556  7049.81  83.314
 51.3976  7023.52  83.3062
 51.4396  7055.19  83.8107
 51.4816  7080.45  83.8093
 51.5236  7122.35  84.1441
 51.5656  7028.05  83.182
 51.6076  6978.96  82.9701
 51.6496  7085  83.7953
 51.6916  6978.2  83.5245
 51.7336  6968.9  83.5609
 51.7756  7047.13  83.7125
 51.8176  7103.69  84.1693
 51.8596  6922.88  83.106
 51.9016  7147.06  84.0365
 51.9436  7097.25  85.2661
 51.9856  7134.65  85.9038
 52.0276  7146.87  84.44
 52.0696  7206.52  84.8601
 52.1116  6971.71  83.5956
 52.1536  7146.7  84.4646
 52.1956  7076.14  83.5557
 52.2376  7320.15  85.1436
 52.2796  7171.3  84.094
 52.3216  6958.2  83.5343
 52.3636  6880.46  82.6296
 52.4056  7092.64  83.7569
 52.4476  6980.54  83.469
 52.4896  6925.63  83.1791
 52.5316  7120.35  84.3917
 52.5736  6917.25  82.8916
 52.6156  7145.88  84.668
 52.6576  7085.24  83.7316
 52.6996  6900  83.6299
 52.7416  6848.86  83.1638
 52.7836  6951.03  83.6755
 52.8256  6904.93  82.6011
 52.8676  6774.01  82.3956
 52.9096  6982.64  83.7232
 52.9516  7015.77  84.3118
 52.9936  6973.99  84.4424
 53.0356  6979.66  83.4636
 53.0776  7024.38  83.9932
 53.1196  6971.61  83.8056
 53.1616  6986.73  83.9505
 53.2036  7088.5  84.5232
 53.2456  6891  83.4418
 53.2876  7004.5  83.8084
 53.3296  7026.66  84.2784
 53.3716  7086.66  84.3789
 53.4136  7024.27  84.1664
 53.4556  6967.14  83.8485
 53.4976  6926.3  83.4321
 53.5396  6857.22  83.4218
 53.5816  6922.5  83.4467
 53.6236  6934.73  83.8758
 53.6656  7002.79  83.8789
 53.7076  7022.65  83.96
 53.7496  7007.82  84.0141
 53.7916  7072.11  84.533
 53.8336  6985.88  83.9103
 53.8756  6762.28  83.1158
 53.9176  6812.32  82.748
 53.9596  6669.92  82.6546
 54.0016  6661.44  81.919
 54.0436  6604.8  81.7955
 54.0856  6782.97  82.3062
 54.1276  6800.51  82.6132
 54.1696  6714.06  82.253
 54.2116  6899.36  83.1173
 54.2536  6754.92  82.049
 54.2956  6694.54  81.7402
 54.3376  6684.14  82.1804
 54.3796  6634.7  81.7459
 54.4216  6750.04  82.5326
 54.4636  6670.97  81.9986
 54.5056  6650.1  81.6854
 54.5476  6658.36  82.0769
 54.5896  6644.72  81.8279
 54.6316  6727.8  82.1759
 54.6736  6671.63  81.9276
 54.7156  6663.76  81.9013
 54.7576  6544.26  81.1486
 54.7996  6683.46  82.1778
 54.8416  6598.91  81.701
 54.8836  6715.26  82.5041
 54.9256  6564.01  81.3281
 54.9676  6526.82  80.9588
 55.0096  6571.81  81.26
 55.0516  6522.05  81.1989
 55.0936  6579.86  81.2322
 55.1356  6549.98  81.077
 55.1776  6752.82  82.5598
 55.2196  6641.76  81.6766
 55.2616  6672.66  82.0934
 55.3036  6511.94  81.2698
 55.3456  6455.46  81.0621
 55.3876  6552.58  81.3941
 55.4296  6412.24  80.5119
 55.4716  6473.45  80.9273
 55.5136  6564.66  81.2382
 55.5556  6722.96  82.2697
 55.5976  6514.85  81.077
 55.6396  6576.74  81.3027
 55.6816  6556.07  81.1384
 55.7236  6508.15  80.9114
 55.7656  6481.48  80.4538
 55.8076  6420.09  80.0902
 55.8496  6638.56  81.8635
 55.8916  6399.27  80.4682
 55.9336  6613.45  81.6288
 55.9756  6475.36  80.6586
 56.0176  6423.47  80.4765
 56.0596  6396.65  80.3082
 56.1016  6350.39  80.0375
 56.1436  6407.47  80.6351
 56.1856  6334.95  79.9362
 56.2276  6619.13  81.7584
 56.2696  6461.32  80.7543
 56.3116  6510.86  81.4352
 56.3536  6415.36  80.4944
 56.3956  6466.73  80.8115
 56.4376  6456.13  80.802
 56.4796  6330.14  79.8285
 56.5216  6347.68  80.3082
 56.5636  6383.8  80.0966
 56.6056  6447.46  80.7388
 56.6476  6326.37  79.5773
 56.6896  6478.92  81.0134
 56.7316  6398.55  80.4131
 56.7736  6452.25  80.7563
 56.8156  6359.32  80.192
 56.8576  6260.2  79.509
 56.8996  6374.1  80.1361
 56.9416  6233.48  79.561
 56.9836  6388.76  80.0592
 57.0256  6253.29  79.525
 57.0676  6465.39  80.9816
 57.1096  6363.52  80.128
 57.1516  6239.65  79.3778
 57.1936  6277.24  79.3984
 57.2356  6235.06  79.4544
 57.2776  6353.87  80.171
 57.3196  6405.84  80.8415
 57.3616  6300.82  79.6656
 57.4036  6328.36  79.8872
 57.4456  6380.53  80.2082
 57.4876  6291.01  79.5102
 57.5296  6239.88  79.5253
 57.5716  6191.86  79.2174
 57.6136  6151.62  78.7949
 57.6556  6252.81  79.5654
 57.6976  6255.16  79.4123
 57.7396  6103.77  78.7782
 57.7816  6111.54  79.2146
 57.8236  6211.41  79.6546
 57.8656  6328.85  80.0539
 57.9076  6267.61  79.6919
 57.9496  6269.73  80.0535
 57.9916  6249.79  79.4379
 58.0336  6248.32  79.7119
 58.0756  6150.57  78.7021
 58.1176  6297.17  79.6526
 58.1596  6157.64  79.3529
 58.2016  5988.38  77.4827
 58.2436  6001.79  77.9762
 58.2856  5972.18  77.7079
 58.3276  6000.41  78.2574
 58.3696  5963.18  77.7648
 58.4116  5948.9  77.542
 58.4536  6026.29  77.9276
 58.4956  5964.04  77.7064
 58.5376  6068.03  77.9522
 58.5796  5987.66  77.8537
 58.6216  6076.34  78.2478
 58.6636  6001.95  77.9808
 58.7056  5966.26  77.6029
 58.7476  5975.33  78.0976
 58.7896  5845.16  76.897
 58.8316  6025.89  78.0711
 58.8736  6001.52  77.9274
 58.9156  5956.42  77.669
 58.9576  5931.89  77.8376
 58.9996  6083.6  78.0692
 59.0416  5961.94  77.6493
 59.0836  6069.86  78.2642
 59.1256  5906.92  77.8991
 59.1676  6015.47  78.923
 59.2096  5844.18  77.1148
 59.2516  5935.96  77.3026
 59.2936  5951.35  77.7285
 59.3356  5866.2  77.0499
 59.3776  5979.69  77.9598
 59.4196  5940.8  77.6406
 59.4616  5824.97  76.7442
 59.5036  5907.21  77.3184
 59.5456  6117.67  78.3757
 59.5876  5982.67  77.6963
 59.6296  5954.26  77.5804
 59.6716  5834.77  76.8549
 59.7136  6077.69  78.4267
 59.7556  5941.29  77.677
 59.7976  5969.7  77.6061
 59.8396  6062.46  78.1008
 59.8816  5891.14  77.5284
 59.9236  5899.59  77.2314
 59.9656  5930.74  77.6908
 60.0076  5835.81  76.4373
 60.0496  6035.85  78.2394
 60.0916  6093.81  78.0303
 60.1336  5893.54  77.8314
 60.1756  5892.18  78.9922
 60.1996  0.0000000E+00  0.0000000E+00