File: docs/examples/opeando_xrd/IS17_D/Data/IS17_D/17_Da_f00015.xye
# /beamlines/bl04/projects/cycle2025-II/20250340211-lsimonelli/DATA/IS17_D/17_Da_f00015.xye : mythproc.py merge -s 0.006 -l 0.5 -f /beamlines/bl04/inhouse/ff/FlatField/ff_20Nov2024rod8mm60s_17keV.raw -b True -c true -o xye /beamlines/bl04/projects/cycle2025-II/20250340211-lsimonelli/DATA/IS17_D/17_Da_00015.dat
# IsMon = [6773868, 6773509, 6776858]  IsPos = [-1.5000, -2.4885, -3.4986]
# Wave = 0.4962  CalPath /beamlines/bl04/projects/cycle2025-II/20250340211-lsimonelli/DATA/Align/Si_Pos1_25keV_f00001.cal
# Date = 2025-09-23_21:42:53 Dt = 4.8000  Bin = 0.0060  <imon> = 6774745 +/- 1501 (Min/Max) 6773509 / 6776858
# icurr 251.9128  mocoIn 1.7187E-05  mocoOut 0.8070  i15 7.09117e+06  imon 6.77474e+06  i7 3.6667  iEMpd_timer 4.8000  iEMpd_1 3.5328E-08  iEMpd_2 7.6774E-08  iEMpd_3 1.7399E-08  iEMpd_4 4.7617E-08  iEMhp_timer 4.8000  iEMhp_1 4.9244E-06  iEMhp_2 -2.4080E-08  iEMhp_3 -2.3690E-08  iEMhp_4 -2.2044E-08
#      9776
 1.5856  37843.4  199.768
 1.6276  44403.2  212.677
 1.6696  51117.2  227.386
 1.7116  60231.4  247.309
 1.7536  69559.2  264.638
 1.7956  74588  274.722
 1.8376  70943.2  268.35
 1.8796  58856.7  242.633
 1.9216  46648.1  216.862
 1.9636  39799.9  199.996
 2.0056  35355.4  187.294
 2.0476  32395  181.247
 2.0896  31110.6  176.576
 2.1316  30621.8  174.341
 2.1736  28568.5  169.731
 2.2156  29214.1  170.26
 2.2576  28398  168.465
 2.2996  27394.1  166.07
 2.3416  27663  165.552
 2.3836  27016.9  163.707
 2.4256  26389.8  162.323
 2.4676  26391.5  162.098
 2.5096  27172.4  164.533
 2.5516  39889.5  203.877
 2.5936  208295  456.692
 2.6356  33000.1  182.544
 2.6776  26158.6  161.416
 2.7196  24467.4  156.614
 2.7616  24173  155.456
 2.8036  23695.1  154.077
 2.8456  23664.8  154.572
 2.8876  23140.9  152.706
 2.9296  22668.4  151.282
 2.9716  22523.4  150.314
 3.0136  22226.5  149.383
 3.0556  22261.6  149.883
 3.0976  22037.5  148.096
 3.1396  21833.2  148.104
 3.1816  21796.6  147.911
 3.2236  21625.4  147.334
 3.2656  21397.2  145.64
 3.3076  21531  147.483
 3.3496  21616.3  146.991
 3.3916  22066.6  148.116
 3.4336  22424.2  149.865
 3.4756  22819.4  151.105
 3.5176  23910.2  154.48
 3.5596  23635.9  156.464
 3.6016  23732.6  153.947
 3.6436  23107.5  152.97
 3.6856  22665.4  149.858
 3.7276  21603.2  147.352
 3.7696  21498.6  146.978
 3.8116  20960.2  145.213
 3.8536  21261.2  146.183
 3.8956  21272.4  146.06
 3.9376  22296.5  149.809
 3.9796  21123.7  145.319
 4.0216  21078.4  144.243
 4.0636  21040.8  145.526
 4.1056  21239.9  145.865
 4.1476  21277.2  146.297
 4.1896  21519.4  146.991
 4.2316  21689.8  147.404
 4.2736  22107.4  148.613
 4.3156  22502  150.152
 4.3576  23275.2  152.644
 4.3996  23344.3  152.922
 4.4416  24221.3  155.561
 4.4836  26054.6  161.497
 4.5256  25296  159.726
 4.5676  25111.6  159.389
 4.6096  25264.2  158.922
 4.6516  26251.5  161.354
 4.6936  26259.7  162.168
 4.7356  27384.4  165.442
 4.7776  26297.8  161.96
 4.8196  25961.9  161.554
 4.8616  25368.5  159.326
 4.9036  25135.2  158.216
 4.9456  25317.4  159.423
 4.9876  24735.1  157.481
 5.0296  24532.2  156.652
 5.0716  24617.3  157.542
 5.1136  24598.2  157.338
 5.1556  25262.7  158.926
 5.1976  38836  197.034
 5.2396  26203.9  161.559
 5.2816  25411.6  159.543
 5.3236  25560  159.723
 5.3656  24840.4  158.346
 5.4076  24527.5  157.493
 5.4496  24727.3  157.634
 5.4916  24655.1  157.171
 5.5336  24731.2  157.417
 5.5756  24450.7  156.553
 5.6176  24661.1  156.676
 5.6596  24915.3  158.283
 5.7016  25118  158.362
 5.7436  25203.8  158.891
 5.7856  25044  158.451
 5.8276  25361.9  159.183
 5.8696  25593.2  159.967
 5.9116  25422.1  160.084
 5.9536  25758.3  160.931
 5.9956  25959.2  160.95
 6.0376  26106.2  162.016
 6.0796  26169.2  162.048
 6.1216  26277.3  162.578
 6.1636  26552.5  162.525
 6.2056  26738.1  163.73
 6.2476  26818.8  163.687
 6.2896  27169.7  164.62
 6.3316  26754.4  163.525
 6.3736  26962.2  164.053
 6.4156  27132.3  164.526
 6.4576  27504.6  165.214
 6.4996  27373.9  165.284
 6.5416  27622  166.164
 6.5836  28320.9  168.479
 6.6256  27837  166.609
 6.6676  28240.9  167.395
 6.7096  28018.3  167.557
 6.7516  28507  168.678
 6.7936  30447.3  173.494
 6.8356  31007.6  175.422
 6.8776  29934.5  173.15
 6.9196  29222.9  171.47
 6.9616  29587.3  171.967
 7.0036  30192.3  173.405
 7.0456  30251.9  172.884
 7.0876  30098.2  174.013
 7.1296  29764.9  172.29
 7.1716  29679.8  171.591
 7.2136  29582.5  171.104
 7.2556  29918.8  172.231
 7.2976  29896.4  172.651
 7.3396  29669.9  172.203
 7.3816  29841.9  172.908
 7.4236  30295.6  173.523
 7.4656  30503.8  173.621
 7.5076  30620.3  174.08
 7.5496  30313  173.722
 7.5916  30679.2  174.798
 7.6336  31421.4  176.803
 7.6756  31017.9  175.52
 7.7176  31267.5  176.527
 7.7596  31298.7  177.831
 7.8016  39888  203.155
 7.8436  32594.3  180.356
 7.8856  32725.1  180.339
 7.9276  33186.7  181.984
 7.9696  33212.9  182.367
 8.0116  34316.4  184.287
 8.0536  35469.5  187.257
 8.0956  38368.7  195.975
 8.1376  35223.7  187.252
 8.1796  35250.3  187.863
 8.2216  36786.2  190.647
 8.2636  37415.3  192.518
 8.3056  36912.5  191.983
 8.3476  39142.4  197.02
 8.3896  37747.8  193.997
 8.4316  36779.8  191.223
 8.4736  36695.6  190.474
 8.5156  36365.8  189.894
 8.5576  36091.4  190.142
 8.5996  35886.7  188.486
 8.6416  35957.8  189.922
 8.6836  35961.6  189.747
 8.7256  37070.7  192.109
 8.7676  40251  203.205
 8.8096  40480.6  200.971
 8.8516  36316.2  190.012
 8.8936  39150.3  197.112
 8.9356  35679.5  188.519
 8.9776  35802.1  188.943
 9.0196  35257  187.179
 9.0616  36170.2  189.056
 9.1036  38908.4  197.323
 9.1456  35456.6  187.713
 9.1876  34709.8  185.685
 9.2296  34421.5  184.319
 9.2716  33642.6  182.285
 9.3136  33672.5  182.356
 9.3556  34412.5  184.32
 9.3976  32492.6  179.629
 9.4396  33074.1  181.119
 9.4816  32489.6  179.387
 9.5236  32790.7  180.126
 9.5656  32103.9  178.544
 9.6076  32073.3  178.962
 9.6496  31815.6  178.177
 9.6916  31946.7  178.513
 9.7336  32045.7  178.575
 9.7756  32211.1  180.225
 9.8176  31248.3  177.085
 9.8596  31216.2  175.484
 9.9016  30828.5  174.387
 9.9436  31172.1  175.109
 9.9856  31285.2  175.805
 10.0276  29945.9  173.08
 10.0696  30348.1  173.301
 10.1116  29877.5  172.208
 10.1536  29221.7  169.989
 10.1956  28825.9  168.925
 10.2376  28506.6  167.501
 10.2796  28649  168.047
 10.3216  28749.8  168.466
 10.3636  28248.7  167.161
 10.4056  34234.7  184.449
 10.4476  34909.7  185.848
 10.4896  40736.3  200.12
 10.5316  36008.1  188.562
 10.5736  29319.7  170.892
 10.6156  28376.6  167.891
 10.6576  36689.3  189.292
 10.6996  28499.4  167.501
 10.7416  27289.6  164.138
 10.7836  28965.4  169.795
 10.8256  26603.4  163.14
 10.8676  26504.7  162.387
 10.9096  26488.2  162.369
 10.9516  25987  159.786
 10.9936  27438.5  164.382
 11.0356  26947.6  163.541
 11.0776  29328.4  169.89
 11.1196  28955.3  169.576
 11.1616  26529.7  162.026
 11.2036  28446.9  167.618
 11.2456  30179.7  173.411
 11.2876  25660.9  159.628
 11.3296  25766.7  159.863
 11.3716  26135.5  160.721
 11.4136  25499.2  159.611
 11.4556  25738  160.022
 11.4976  27354.2  163.928
 11.5396  27608.9  164.86
 11.5816  25209.2  157.971
 11.6236  24389.1  155.811
 11.6656  24633.4  155.563
 11.7076  23939  154.161
 11.7496  24596.5  160.125
 11.7916  25229.9  157.53
 11.8336  23905.2  154.227
 11.8756  24650  156.124
 11.9176  23860  153.505
 11.9596  23420  152.032
 12.0016  23176.6  152.006
 12.0436  23302.4  151.856
 12.0856  22863.1  150.925
 12.1276  22984.4  151.243
 12.1696  23017  150.511
 12.2116  23998.3  153.683
 12.2536  27002.9  163.861
 12.2956  24099.5  154.168
 12.3376  23595.8  152.76
 12.3796  23457.7  152.759
 12.4216  23530.3  152.228
 12.4636  24984.9  157.785
 12.5056  22978.2  150.615
 12.5476  22846.2  149.724
 12.5896  22792.6  150.166
 12.6316  22622.1  149.753
 12.6736  22857.6  150.845
 12.7156  22991.1  151.305
 12.7576  22788.7  150.879
 12.7996  23181.9  150.846
 12.8416  23531.1  153.018
 12.8836  24674.5  156.502
 12.9256  23599.8  152.101
 12.9676  23531.5  152.299
 13.0096  22966  151.522
 13.0516  23338.7  151.805
 13.0936  23130.2  151.249
 13.1356  23472.2  151.643
 13.1776  23678.6  153.283
 13.2196  23345.2  151.865
 13.2616  23135.1  151.475
 13.3036  23139  151.628
 13.3456  23120.4  151.546
 13.3876  23542.3  152.435
 13.4296  23631.7  152.869
 13.4716  23712.9  152.745
 13.5136  23520.5  152.279
 13.5556  23876.1  154.031
 13.5976  23496.1  152.935
 13.6396  23909.5  153.657
 13.6816  23198.2  151.713
 13.7236  24491.5  155.65
 13.7656  23774.8  153.889
 13.8076  24791.5  155.925
 13.8496  23762.8  153.43
 13.8916  23492.6  153.363
 13.9336  23242.3  151.78
 13.9756  23013.6  150.405
 14.0176  23132.6  151.453
 14.0596  24487.3  155.793
 14.1016  23066.5  151.597
 14.1436  22450.4  148.714
 14.1856  22613.6  149.539
 14.2276  22644.5  150.122
 14.2696  23033  151.243
 14.3116  22091.9  148.021
 14.3536  21427.2  145.945
 14.3956  21603.1  146.291
 14.4376  21551.5  145.899
 14.4796  21659.9  146.254
 14.5216  21315.6  145.87
 14.5636  21966.1  147.637
 14.6056  21197.2  144.624
 14.6476  20952.4  143.041
 14.6896  20640.9  142.491
 14.7316  20294.4  142.288
 14.7736  20225.7  141.232
 14.8156  20115.8  140.871
 14.8576  20075.4  140.588
 14.8996  20148.1  142.027
 14.9416  19525.3  139.818
 14.9836  19862.5  140.968
 15.0256  19431  138.39
 15.0676  19192.7  137.845
 15.1096  18716.6  135.873
 15.1516  18861.6  136.951
 15.1936  18793  136.133
 15.2356  18830.6  136.543
 15.2776  18719.7  135.735
 15.3196  18598.5  136.281
 15.3616  18290  134.902
 15.4036  18199.7  134.435
 15.4456  18671.4  135.587
 15.4876  18218.3  133.849
 15.5296  17760.3  132.439
 15.5716  17582.3  131.379
 15.6136  17557.3  131.604
 15.6556  20706.8  142.118
 15.6976  18459.6  134.26
 15.7396  18133  133.663
 15.7816  17787.6  131.897
 15.8236  17217  130.456
 15.8656  17072  129.707
 15.9076  17366.6  130.648
 15.9496  17741.4  134.846
 15.9916  16653.7  131.057
 16.0336  16455.6  127.27
 16.0756  16672.7  128.405
 16.1176  16656.1  128.255
 16.1596  16063  127.24
 16.2016  16351.9  127.157
 16.2436  16039.9  126.315
 16.2856  16308.1  126.921
 16.3276  15557.2  124.362
 16.3696  15844.6  125.333
 16.4116  15450  124.216
 16.4536  16055.7  126.409
 16.4956  16852.6  129.246
 16.5376  16221.9  126.985
 16.5796  15799.5  124.695
 16.6216  15731.3  124.72
 16.6636  15868.8  125.41
 16.7056  15618.5  124.29
 16.7476  15697.8  124.29
 16.7896  15919.1  125.764
 16.8316  15475.9  123.96
 16.8736  16093.9  126.678
 16.9156  16107.8  127.059
 16.9576  15428.7  125.142
 16.9996  15586.5  126.259
 17.0416  15533.7  124.444
 17.0836  15259.6  123.101
 17.1256  15225.5  122.979
 17.1676  15899.3  125.664
 17.2096  15829.9  125.265
 17.2516  15330.9  123.351
 17.2936  14779.2  121.128
 17.3356  14450.6  119.79
 17.3776  14513.8  120.238
 17.4196  14681  120.625
 17.4616  14935.4  121.591
 17.5036  15640.6  124.794
 17.5456  14433.9  120.511
 17.5876  14293.7  118.999
 17.6296  14393.3  119.219
 17.6716  14714.9  121.127
 17.7136  15644.3  125.035
 17.7556  14685  121.429
 17.7976  14915.3  121.989
 17.8396  14592.3  120.297
 17.8816  14077.8  118.681
 17.9236  13953.4  117.976
 17.9656  14494.1  120.925
 18.0076  15255.6  123.465
 18.0496  16561.9  127.729
 18.0916  23638.7  153.269
 18.1336  19989.1  141.069
 18.1756  16333.9  127.013
 18.2176  17367.9  131.224
 18.2596  14490.9  119.609
 18.3016  15441.6  123.724
 18.3436  16321  127.459
 18.3856  14908.4  121.716
 18.4276  14314.8  118.932
 18.4696  14712.7  120.682
 18.5116  14636  120.657
 18.5536  14253.5  119.42
 18.5956  14419  119.663
 18.6376  14652.6  121.048
 18.6796  13954.1  117.458
 18.7216  14267  119.326
 18.7636  13917.3  117.769
 18.8056  13493.2  115.905
 18.8476  13314.5  115.442
 18.8896  13429.1  115.587
 18.9316  13758.9  116.824
 18.9736  13632.8  116.153
 19.0156  14507.6  120.206
 19.0576  14190.9  117.777
 19.0996  13759.1  116.67
 19.1416  13673.6  116.692
 19.1836  13458.9  115.384
 19.2256  13275.4  114.801
 19.2676  13377  115.333
 19.3096  13424.8  115.776
 19.3516  13345.5  115.223
 19.3936  13697.8  116.872
 19.4356  13521  115.922
 19.4776  13386.3  115.441
 19.5196  13215.3  114.557
 19.5616  13571.9  116.34
 19.6036  13444.8  115.16
 19.6456  13634.1  116.236
 19.6876  14237.3  118.417
 19.7296  13499.7  115.761
 19.7716  13358.5  115.167
 19.8136  13689.4  116.938
 19.8556  14040.5  117.905
 19.8976  14267  118.92
 19.9396  13927.8  117.08
 19.9816  14166  118.31
 20.0236  14447.7  119.704
 20.0656  13618.7  116.213
 20.1076  13141.6  114.607
 20.1496  12999.8  113.992
 20.1916  13247.8  114.562
 20.2336  13295.3  114.75
 20.2756  13003  113.891
 20.3176  12754.2  112.553
 20.3596  13008.4  113.645
 20.4016  13139.9  114.024
 20.4436  12976.8  113.871
 20.4856  12740  112.62
 20.5276  12929.1  113.891
 20.5696  12749.3  112.676
 20.6116  12837  113.236
 20.6536  12613.3  111.823
 20.6956  12688.8  112.217
 20.7376  12714.1  112.559
 20.7796  12653.7  111.986
 20.8216  12760.6  112.174
 20.8636  13186.9  114.399
 20.9056  15034.4  122.096
 20.9476  13254.7  114.479
 20.9896  14490  119.552
 21.0316  13036.4  113.297
 21.0736  13454.3  115.626
 21.1156  13782.2  117.188
 21.1576  12938.9  113.592
 21.1996  12632.5  112.219
 21.2416  12531.4  111.608
 21.2836  12902.2  113.209
 21.3256  12659.9  112.22
 21.3676  12786.8  112.34
 21.4096  13237.2  114.668
 21.4516  12700.7  112.146
 21.4936  12530.6  111.636
 21.5356  12613.9  111.955
 21.5776  12671.1  112.045
 21.6196  13048.3  113.734
 21.6616  12806.6  112.769
 21.7036  12571.1  111.508
 21.7456  12223.9  110.023
 21.7876  12174  109.562
 21.8296  12140  109.271
 21.8716  12196.7  109.756
 21.9136  12550.9  111.531
 21.9556  12830.2  112.436
 21.9976  12497.2  110.986
 22.0396  12272  110.233
 22.0816  12398.4  111.328
 22.1236  12856.6  112.817
 22.1656  12425.6  111.089
 22.2076  12500.1  110.845
 22.2496  12289.2  109.938
 22.2916  12520.5  110.843
 22.3336  12661.4  112.175
 22.3756  12409.5  110.796
 22.4176  12156.3  109.511
 22.4596  12077.4  109.732
 22.5016  12448.6  110.908
 22.5436  12396.1  110.554
 22.5856  12356.6  110.627
 22.6276  12203.5  110.076
 22.6696  12202.5  110.413
 22.7116  12113.3  109.537
 22.7536  12122.4  109.549
 22.7956  12395.5  110.12
 22.8376  11990.9  108.81
 22.8796  12052.2  108.894
 22.9216  12124.1  109.75
 22.9636  12056.4  108.618
 23.0056  12095.1  108.923
 23.0476  12255.6  110.207
 23.0896  12648.5  111.337
 23.1316  12689.8  111.952
 23.1736  12142.5  112.415
 23.2156  12347.6  110.662
 23.2576  12108.6  109.801
 23.2996  12050.2  109.33
 23.3416  12026.1  109.731
 23.3836  12131.8  109.432
 23.4256  12102.2  109.432
 23.4676  12198.1  109.574
 23.5096  12266  110.546
 23.5516  12047.1  108.849
 23.5936  12439.2  111.495
 23.6356  12416.3  111.065
 23.6776  12123.9  110.298
 23.7196  11870.6  108.614
 23.7616  12230.6  109.947
 23.8036  11996.2  108.928
 23.8456  12054.7  108.776
 23.8876  11858.5  108.237
 23.9296  11760.1  108.256
 23.9716  11863.3  107.947
 24.0136  12031.4  109.591
 24.0556  11866.8  108.581
 24.0976  11782.6  107.997
 24.1396  11610  109.794
 24.1816  11836.9  109.638
 24.2236  11874.6  109.11
 24.2656  11871.4  108.573
 24.3076  11770.1  108.356
 24.3496  12183.5  110.13
 24.3916  11820.1  108.525
 24.4336  11897.1  109.086
 24.4756  11732.1  108.201
 24.5176  11465.1  106.613
 24.5596  11360.4  106.44
 24.6016  11227.8  105.91
 24.6436  11498.6  106.678
 24.6856  11651.2  107.144
 24.7276  11704.2  107.705
 24.7696  11654.7  107.59
 24.8116  11517.7  107.137
 24.8536  11517.9  107.128
 24.8956  11386.6  106.258
 24.9376  11394.4  106.467
 24.9796  11203.3  105.691
 25.0216  11223.2  105.894
 25.0636  11415  106.449
 25.1056  11265.6  106.176
 25.1476  10985  106.757
 25.1896  11138.4  105.987
 25.2316  11060.8  104.775
 25.2736  11077.5  104.631
 25.3156  10936.2  104.03
 25.3576  10841.7  103.994
 25.3996  10956.1  104.509
 25.4416  10918.1  104.329
 25.4836  10778.8  104.177
 25.5256  10860.2  103.938
 25.5676  11118.6  104.901
 25.6096  10620.4  103.082
 25.6516  10895  103.911
 25.6936  10692.1  103.253
 25.7356  10748.4  103.653
 25.7776  10915  104.135
 25.8196  10770.4  103.602
 25.8616  10823.5  103.78
 25.9036  11061.4  104.383
 25.9456  10667.9  103.102
 25.9876  10680.5  103.086
 26.0296  10790  103.344
 26.0716  10737.4  103.43
 26.1136  11065.7  104.943
 26.1556  11076.3  104.282
 26.1976  10608.6  103.057
 26.2396  10733.7  103.072
 26.2816  10583.6  102.707
 26.3236  10812.5  103.887
 26.3656  10721.4  103.257
 26.4076  10604.1  102.891
 26.4496  11031.5  104.457
 26.4916  10768.8  103.194
 26.5336  10754.4  103.445
 26.5756  11080.9  104.863
 26.6176  10835.4  103.745
 26.6596  10565.1  102.745
 26.7016  10356.2  101.531
 26.7436  10161.6  100.661
 26.7856  10185  100.759
 26.8276  10345.1  101.505
 26.8696  10287.1  101.095
 26.9116  10336.4  101.274
 26.9536  10246.7  100.885
 26.9956  10151.2  100.446
 27.0376  10133.3  100.557
 27.0796  10371.4  101.516
 27.1216  10442  101.897
 27.1636  10182.7  100.786
 27.2056  10265  101.077
 27.2476  10149.3  100.507
 27.2896  10070.8  100.157
 27.3316  10038.1  99.7824
 27.3736  10001.1  99.8572
 27.4156  9988.34  99.6407
 27.4576  10183.2  100.837
 27.4996  10109.4  100.069
 27.5416  10174.8  100.709
 27.5836  10224.6  100.776
 27.6256  10373.5  101.657
 27.6676  10215.9  100.913
 27.7096  10199.8  100.699
 27.7516  11015.5  104.797
 27.7936  10760.9  103.762
 27.8356  10467  101.95
 27.8776  10481.6  102.065
 27.9196  10255.3  100.809
 27.9616  10597.1  102.674
 28.0036  10331.9  101.355
 28.0456  9978.38  99.73
 28.0876  9925.89  99.5587
 28.1296  10048.4  100.015
 28.1716  9953.75  99.5498
 28.2136  9854.48  99.0203
 28.2556  9884.64  99.2834
 28.2976  9835.66  99.0295
 28.3396  9946.19  99.3839
 28.3816  9875.97  99.0114
 28.4236  10192.1  100.741
 28.4656  9720.77  98.4169
 28.5076  9596.88  97.4251
 28.5496  9561.4  97.5094
 28.5916  9591.7  97.4743
 28.6336  9633.95  98.028
 28.6756  9730.62  97.7262
 28.7176  9736.46  98.2984
 28.7596  9647.43  97.7491
 28.8016  9542.61  97.3327
 28.8436  9560.46  97.5785
 28.8856  9642.62  97.8385
 28.9276  9780.19  98.7911
 28.9696  9634.18  97.7094
 29.0116  9422.33  96.7995
 29.0536  9376.15  96.7745
 29.0956  9587.24  97.5765
 29.1376  9592.2  97.564
 29.1796  9427.77  96.7688
 29.2216  9420.49  96.5774
 29.2636  9493.61  96.9411
 29.3056  9376.78  96.2197
 29.3476  9336.37  96.5251
 29.3896  9568.44  97.8102
 29.4316  9544.09  97.0314
 29.4736  9451.68  96.6209
 29.5156  9636.2  97.4843
 29.5576  9485.37  97.4556
 29.5996  9300.85  95.7717
 29.6416  9426.28  96.533
 29.6836  9362.41  96.1343
 29.7256  9357.12  96.6648
 29.7676  9549.44  97.3116
 29.8096  9286.47  95.9077
 29.8516  9247.8  96.0327
 29.8936  9389.38  96.8617
 29.9356  9430.59  96.8305
 29.9776  9356.85  96.6036
 30.0196  9439.42  96.4219
 30.0616  9683.17  98.0339
 30.1036  9344.86  96.1361
 30.1456  9221.79  95.7504
 30.1876  9213.88  95.6689
 30.2296  9200.06  95.5375
 30.2716  9356.15  95.9898
 30.3136  9235.91  95.9542
 30.3556  9258.8  96.3478
 30.3976  9294.71  98.0324
 30.4396  9441.02  96.1584
 30.4816  9299.73  95.0379
 30.5236  9262.3  94.8698
 30.5656  9274.45  95.5696
 30.6076  9271.42  95.3306
 30.6496  9165.12  94.8231
 30.6916  9075.07  94.4454
 30.7336  9143.52  94.9514
 30.7756  9071.33  94.8796
 30.8176  9197.29  95.2381
 30.8596  9065.52  94.3265
 30.9016  9009.61  93.9127
 30.9436  8998.08  94.0697
 30.9856  9180.48  95.1258
 31.0276  9050.1  94.0615
 31.0696  8936.6  93.9061
 31.1116  9167.58  95.2167
 31.1536  9262.79  95.5908
 31.1956  9224.79  95.4803
 31.2376  8962.69  94.1193
 31.2796  8932.36  93.5105
 31.3216  8900.3  93.2939
 31.3636  9054.45  94.7854
 31.4056  9005.54  95.8182
 31.4476  8982.23  93.6273
 31.4896  9078.59  94.627
 31.5316  9356.03  95.5005
 31.5736  9985.63  98.4284
 31.6156  9770.8  97.3839
 31.6576  9272.23  94.9674
 31.6996  9296.48  94.7643
 31.7416  9170.89  95.0415
 31.7836  9245.9  94.5839
 31.8256  9126.18  94.3167
 31.8676  9240.58  94.8221
 31.9096  9057.22  94.0963
 31.9516  8809.28  93.0882
 31.9936  8846.18  93.1157
 32.0356  8994.9  93.9604
 32.0776  8983.5  93.7856
 32.1196  8898.66  93.3454
 32.1616  8902.36  92.9162
 32.2036  8663  92.1528
 32.2456  8801.94  93.2669
 32.2876  8857.45  92.8983
 32.3296  8827.04  92.8663
 32.3716  8917.09  93.436
 32.4136  8900.31  93.5621
 32.4556  8974.94  93.3948
 32.4976  8965.41  93.2363
 32.5396  8712.61  91.9437
 32.5816  8774.32  92.2843
 32.6236  8814.13  92.6564
 32.6656  8946.43  93.8953
 32.7076  8630.75  91.8788
 32.7496  8720.04  92.0355
 32.7916  8703.46  91.8996
 32.8336  8818.94  92.6092
 32.8756  8725.03  91.9266
 32.9176  8880.06  93.1344
 32.9596  8865.73  93.1278
 33.0016  8910.18  93.1532
 33.0436  8793.44  92.7101
 33.0856  8691.99  92.2469
 33.1276  8639.9  91.7191
 33.1696  8690.9  91.8326
 33.2116  8750.77  92.3678
 33.2536  8623.68  91.6938
 33.2956  8676.27  92.0549
 33.3376  8518.02  91.0165
 33.3796  8698.57  92.1228
 33.4216  8736.37  91.9202
 33.4636  8759.26  92.1919
 33.5056  8541.01  91.1101
 33.5476  8522.58  91.1591
 33.5896  8648.11  91.5771
 33.6316  8478.37  91.0093
 33.6736  8523.27  91.4889
 33.7156  8520.15  91.5206
 33.7576  8517.62  91.1419
 33.7996  8647.6  91.61
 33.8416  8468.29  90.8289
 33.8836  8588.16  91.2497
 33.9256  8639.25  91.5825
 33.9676  8578.1  91.1585
 34.0096  8336.82  90.1717
 34.0516  8381.38  90.0538
 34.0936  8394.89  90.3846
 34.1356  8571.74  91.0828
 34.1776  8353.3  89.925
 34.2196  8310.76  89.8728
 34.2616  8454.07  90.836
 34.3036  8319.15  90.2947
 34.3456  8349.02  90.2151
 34.3876  8398.45  90.5289
 34.4296  8401.37  90.1544
 34.4716  8548.08  91.0819
 34.5136  8257.57  89.7267
 34.5556  8361.41  90.5346
 34.5976  8445.55  90.8308
 34.6396  8453.79  90.5569
 34.6816  8447.64  90.6346
 34.7236  8450.32  90.4359
 34.7656  8420.78  90.4661
 34.8076  8279.26  90.0258
 34.8496  8305.09  90.021
 34.8916  8333.03  90.0495
 34.9336  8500.65  90.9135
 34.9756  8754.5  92.1802
 35.0176  8392.3  90.7605
 35.0596  8311.55  90.1746
 35.1016  8381.02  90.3155
 35.1436  8404.82  90.1346
 35.1856  8323.15  89.8209
 35.2276  8353.92  90.1536
 35.2696  8324.33  90.1884
 35.3116  8342.54  90.3763
 35.3536  8286.71  89.8235
 35.3956  8170.01  88.8657
 35.4376  8242.37  89.8133
 35.4796  8372.37  90.5733
 35.5216  8136.09  89.166
 35.5636  8134.83  89.9743
 35.6056  8302.34  89.9169
 35.6476  8359.56  90.1272
 35.6896  8301.83  89.9677
 35.7316  8194.09  89.2839
 35.7736  8249.29  89.7867
 35.8156  8163.3  89.3134
 35.8576  8184.14  89.6736
 35.8996  8324.03  90.3971
 35.9416  8284.88  89.6998
 35.9836  8234.66  89.8699
 36.0256  8299.05  90.1477
 36.0676  8263.98  89.4987
 36.1096  8155.82  89.2618
 36.1516  8224.37  89.5296
 36.1936  8249.3  89.5173
 36.2356  8183.25  89.7894
 36.2776  8138.94  89.0214
 36.3196  8236.41  89.2306
 36.3616  8133.67  88.8058
 36.4036  8180.34  89.1212
 36.4456  8143.86  89.1294
 36.4876  8074.73  88.6871
 36.5296  8185.32  89.3351
 36.5716  8075.45  89.5051
 36.6136  8536.86  90.7803
 36.6556  8409.01  90.2999
 36.6976  8218.83  89.7697
 36.7396  8189.31  89.4328
 36.7816  8096.72  89.2052
 36.8236  8095.53  89.1241
 36.8656  8073.62  89.0796
 36.9076  8096.84  89.2068
 36.9496  7971.14  88.5244
 36.9916  7989.57  88.1112
 37.0336  8188.02  89.5092
 37.0756  8081.94  88.724
 37.1176  7982.56  88.5323
 37.1596  7995.97  88.5239
 37.2016  7974.38  88.5774
 37.2436  8024.59  88.226
 37.2856  8070.85  88.7419
 37.3276  8120.81  88.3661
 37.3696  8006.77  88.6239
 37.4116  8031.55  88.66
 37.4536  7939.89  88.0248
 37.4956  7931.04  88.0098
 37.5376  7996.07  89.9052
 37.5796  7823.61  88.9066
 37.6216  7862.55  87.4074
 37.6636  7759.06  86.7391
 37.7056  7858.04  87.4753
 37.7476  7832.68  86.8813
 37.7896  7851  87.4516
 37.8316  7700.76  86.8053
 37.8736  7958.79  87.7705
 37.9156  7907.11  87.489
 37.9576  7854  87.2196
 37.9996  7720.2  86.0555
 38.0416  7743.73  86.9866
 38.0836  7971.02  88.1645
 38.1256  8014.62  88.3679
 38.1676  7793.37  87.2662
 38.2096  8063.22  88.3933
 38.2516  8044.95  88.3926
 38.2936  7933.7  87.6857
 38.3356  7992.09  87.9124
 38.3776  7785.72  87.0437
 38.4196  7922.08  87.6604
 38.4616  7833.1  87.4019
 38.5036  7962.61  87.9599
 38.5456  7805.51  87.9254
 38.5876  7818.36  88.0249
 38.6296  7879.9  87.36
 38.6716  7709.74  86.2068
 38.7136  7600.55  85.5376
 38.7556  7712.03  86.6609
 38.7976  7761.44  86.8735
 38.8396  7681.29  86.8725
 38.8816  7673.62  86.5988
 38.9236  7613.86  86.0846
 38.9656  7755.74  86.8029
 39.0076  7790.03  86.4079
 39.0496  7730.66  86.6049
 39.0916  7796.79  86.6274
 39.1336  7645.55  86.1927
 39.1756  7696.54  86.5463
 39.2176  7691.75  87.0446
 39.2596  7738.99  87.2313
 39.3016  7730.72  86.7492
 39.3436  7651.3  86.7292
 39.3856  7847.65  87.2909
 39.4276  7780.51  87.4028
 39.4696  7708.4  86.6294
 39.5116  7600.66  86.5282
 39.5536  7799.43  88.071
 39.5956  7876.5  87.6083
 39.6376  7789.11  86.9587
 39.6796  7821.08  87.046
 39.7216  7708.86  86.508
 39.7636  7735.65  87.2246
 39.8056  7757.22  87.1276
 39.8476  7701.17  87.0655
 39.8896  7654.37  86.4363
 39.9316  7707.52  86.9879
 39.9736  7868.52  87.4655
 40.0156  7819.67  87.0118
 40.0576  7795.43  87.2347
 40.0996  7839.04  86.6693
 40.1416  7751.8  86.9681
 40.1836  7844.48  87.3713
 40.2256  7847.27  87.4392
 40.2676  7713.65  86.8576
 40.3096  7807.78  87.2449
 40.3516  7871.09  87.7886
 40.3936  7898.81  87.4279
 40.4356  7813.52  87.1446
 40.4776  7880.2  87.7612
 40.5196  7778.42  87.4832
 40.5616  7761.02  87.0336
 40.6036  7731.32  87.1164
 40.6456  7903.78  87.683
 40.6876  7899.68  87.652
 40.7296  7847.64  87.5004
 40.7716  7851.79  87.6465
 40.8136  7707.21  86.7904
 40.8556  7775.25  87.3022
 40.8976  7738.98  87.0162
 40.9396  7741.69  87.3806
 40.9816  7885.64  87.4778
 41.0236  7864.88  87.1396
 41.0656  7826.1  87.4628
 41.1076  7877.61  87.5232
 41.1496  7813.15  87.0732
 41.1916  7809.89  87.3816
 41.2336  7687.34  86.6786
 41.2756  7828.33  87.0795
 41.3176  7733.65  87.1575
 41.3596  7863.86  87.616
 41.4016  7779.2  87.3999
 41.4436  7744.59  86.9972
 41.4856  7860.34  87.8094
 41.5276  7797.67  87.4762
 41.5696  7755.84  86.8562
 41.6116  7797.8  87.5018
 41.6536  7789.28  87.3156
 41.6956  7886.79  87.8407
 41.7376  7609.98  86.3816
 41.7796  7733.49  87.0133
 41.8216  7789.4  87.515
 41.8636  7764.83  87.3117
 41.9056  7731.34  86.9194
 41.9476  7823.22  87.6646
 41.9896  7795.71  87.1773
 42.0316  7742.34  86.9652
 42.0736  7735.43  87.0625
 42.1156  7673.45  86.5254
 42.1576  7728.06  86.9289
 42.1996  7772.96  87.3194
 42.2416  7690.79  86.4475
 42.2836  7724.15  86.7456
 42.3256  7677.92  86.6027
 42.3676  7752.59  86.8266
 42.4096  7720.43  86.6113
 42.4516  7722.75  86.7113
 42.4936  7667.42  86.4664
 42.5356  7683.95  86.6932
 42.5776  7801.13  87.2919
 42.6196  7704.75  86.7231
 42.6616  7585.01  86.2925
 42.7036  7709.93  86.3917
 42.7456  7713.1  86.7611
 42.7876  7660.51  86.5656
 42.8296  7634.11  86.3138
 42.8716  7580.44  86.1031
 42.9136  7634.41  86.1623
 42.9556  7658.18  86.4673
 42.9976  7705.79  86.7012
 43.0396  7651.99  86.1291
 43.0816  7631.28  86.3766
 43.1236  7595.43  86.2405
 43.1656  7579.15  85.9816
 43.2076  7540.66  85.8623
 43.2496  7654.33  86.3246
 43.2916  7543.04  86.0542
 43.3336  7641.32  86.4561
 43.3756  7570.94  85.8053
 43.4176  7421.05  85.0412
 43.4596  7416.39  84.8712
 43.5016  7610.18  86.3747
 43.5436  7508.42  85.6999
 43.5856  7460.8  85.452
 43.6276  7599.78  86.1405
 43.6696  7539.55  85.9365
 43.7116  7538.56  85.5507
 43.7536  7595.85  86.3643
 43.7956  7458.83  86.7496
 43.8376  7444.55  85.2377
 43.8796  7390.09  84.9967
 43.9216  7469.52  85.3726
 43.9636  7394.68  85.0499
 44.0056  7546.01  86.1473
 44.0476  7491.02  85.4609
 44.0896  7424.82  85.4286
 44.1316  7392.88  84.9183
 44.1736  7453.99  85.2481
 44.2156  7449.98  85.0798
 44.2576  7442.83  85.3612
 44.2996  7426.69  85.2437
 44.3416  7388.11  84.7768
 44.3836  7243.96  84.2761
 44.4256  7327.96  84.4045
 44.4676  7188.04  83.7519
 44.5096  7318.61  84.6409
 44.5516  7340.6  84.7422
 44.5936  7208.79  83.9316
 44.6356  7423.37  84.9117
 44.6776  7347.09  84.7914
 44.7196  7336.7  84.9952
 44.7616  7348.39  86.4128
 44.8036  7244.46  84.4476
 44.8456  7301.66  84.7704
 44.8876  7150.77  83.7515
 44.9296  7373.05  84.5084
 44.9716  7278.2  84.3801
 45.0136  7281.37  84.3337
 45.0556  7195.99  83.9208
 45.0976  7194.08  83.9651
 45.1396  7071.27  83.0031
 45.1816  7293.82  84.0727
 45.2236  7121.9  83.1458
 45.2656  7300.66  84.6804
 45.3076  7229.94  84.0556
 45.3496  7179.67  84.0537
 45.3916  7194.9  84.4125
 45.4336  7206.48  84.33
 45.4756  7189.71  84.0834
 45.5176  7266.37  84.1586
 45.5596  7260.58  84.2438
 45.6016  7100.52  83.7177
 45.6436  7214.09  83.5801
 45.6856  7090.94  83.5019
 45.7276  7145.83  85.6364
 45.7696  7156.4  84.8621
 45.8116  7165.98  84.3777
 45.8536  7029.3  83.4565
 45.8956  7214.85  83.9166
 45.9376  7167.04  83.1121
 45.9796  7169.64  83.8017
 46.0216  7221.86  84.4467
 46.0636  7227.2  83.6341
 46.1056  7198.49  83.4487
 46.1476  7221.05  84.1657
 46.1896  7209.36  84.2469
 46.2316  7252.93  84.3709
 46.2736  7123.4  83.8121
 46.3156  7223.18  84.1526
 46.3576  7121.89  83.7596
 46.3996  7064.6  83.5799
 46.4416  7126.75  83.5064
 46.4836  7035.12  83.3403
 46.5256  7159.98  84.0147
 46.5676  7170.11  84.1855
 46.6096  7157.57  84.0515
 46.6516  7061.96  82.5448
 46.6936  7145.16  83.5185
 46.7356  7138.97  83.5822
 46.7776  6978.67  83.4576
 46.8196  7081.16  83.8163
 46.8616  6864.67  82.3252
 46.9036  6918.75  82.3223
 46.9456  6945.62  82.1264
 46.9876  6899.83  81.9358
 47.0296  6918.16  82.7121
 47.0716  6982.56  82.918
 47.1136  7014.95  82.8079
 47.1556  6989.44  82.5187
 47.1976  7092.66  83.2847
 47.2396  7028.9  83.227
 47.2816  6818.35  81.683
 47.3236  6916.14  82.6285
 47.3656  6965.02  82.8423
 47.4076  6972.24  82.625
 47.4496  6893.27  82.315
 47.4916  6870.16  82.3631
 47.5336  6971.97  82.7989
 47.5756  6932.25  82.6338
 47.6176  6898.73  82.3698
 47.6596  6884.79  82.0142
 47.7016  6976.59  82.3659
 47.7436  6908.48  82.3059
 47.7856  6980.68  82.7565
 47.8276  6848.43  82.0174
 47.8696  6951.63  82.7165
 47.9116  6971.17  82.5539
 47.9536  6908.95  82.1226
 47.9956  6800.27  82.1679
 48.0376  6845.27  82.2192
 48.0796  6971.83  83.0995
 48.1216  6939.94  82.7373
 48.1636  6975.91  82.5301
 48.2056  6889.15  82.2709
 48.2476  6905.52  82.6738
 48.2896  6752.56  81.6568
 48.3316  6875.35  82.3413
 48.3736  6899.87  82.5095
 48.4156  6763.52  81.5538
 48.4576  6739.93  81.6955
 48.4996  6886.67  82.0484
 48.5416  6865.23  82.2359
 48.5836  6781.23  81.4153
 48.6256  6859.28  82.0809
 48.6676  6745.2  81.9015
 48.7096  6870.4  81.9373
 48.7516  6910.98  82.3285
 48.7936  6740.65  81.3643
 48.8356  6807.67  81.8198
 48.8776  6804.26  82.2801
 48.9196  6961.73  82.6799
 48.9616  6826.35  82.2496
 49.0036  6852.8  82.7496
 49.0456  6733.52  82.0022
 49.0876  6861.04  82.4236
 49.1296  6729.69  81.6925
 49.1716  6662.92  81.1623
 49.2136  6801.15  81.9212
 49.2556  6859.31  82.3035
 49.2976  6747.94  81.7067
 49.3396  6792.46  82.0303
 49.3816  6824.39  81.6596
 49.4236  6801.18  81.9352
 49.4656  6650.91  81.0465
 49.5076  6736  81.3137
 49.5496  6797.95  81.6286
 49.5916  6701.29  81.087
 49.6336  6764.51  81.6718
 49.6756  6693.19  81.4586
 49.7176  6633.25  81.0364
 49.7596  6775.58  81.8512
 49.8016  6732.55  81.3396
 49.8436  6607.76  80.8651
 49.8856  6732.74  81.6378
 49.9276  6540.2  80.5588
 49.9696  6629.44  81.0893
 50.0116  6662.9  81.4065
 50.0536  6692.73  81.5523
 50.0956  6619.98  81.1741
 50.1376  6654.77  81.095
 50.1796  6561.55  80.7855
 50.2216  6558.93  80.7634
 50.2636  6555.09  80.3695
 50.3056  6538.96  80.4452
 50.3476  6584  80.7447
 50.3896  6600.69  80.8121
 50.4316  6685.41  81.1676
 50.4736  6450.23  79.9402
 50.5156  6612.81  80.9304
 50.5576  6589.52  80.5547
 50.5996  6534.81  80.4932
 50.6416  6588.82  80.7486
 50.6836  6566.3  80.6711
 50.7256  6632.42  80.9959
 50.7676  6605.62  81.1054
 50.8096  6506.31  80.0869
 50.8516  6553  80.7778
 50.8936  6513.99  80.3274
 50.9356  6611.48  81.0351
 50.9776  6511.62  80.57
 51.0196  6335.67  79.597
 51.0616  6473.86  79.8056
 51.1036  6397.24  79.6714
 51.1456  6530.64  80.4148
 51.1876  6558.25  79.9384
 51.2296  6554.25  80.5398
 51.2716  6497.21  79.8935
 51.3136  6342.97  79.3841
 51.3556  6382.66  79.2659
 51.3976  6307.54  78.9474
 51.4396  6328.19  79.3703
 51.4816  6403.89  79.7008
 51.5236  6448.16  80.0616
 51.5656  6412.2  79.4519
 51.6076  6397.98  79.4444
 51.6496  6537.16  80.4871
 51.6916  6309.42  79.4245
 51.7336  6346.2  79.737
 51.7756  6485.77  80.3188
 51.8176  6445.29  80.151
 51.8596  6404.01  79.9171
 51.9016  6458.24  79.8803
 51.9436  6317.29  80.4183
 51.9856  6262.3  80.4926
 52.0276  6321.36  79.4157
 52.0696  6380.25  79.8462
 52.1116  6381.5  79.964
 52.1536  6253.38  79.0053
 52.1956  6394.29  79.4136
 52.2376  6397.91  79.6068
 52.2796  6326.63  78.9794
 52.3216  6183.34  78.7456
 52.3636  6436.68  79.9271
 52.4056  6336.85  79.1597
 52.4476  6261.67  79.0486
 52.4896  6167.05  78.5008
 52.5316  6330.48  79.5757
 52.5736  6282.26  79.0024
 52.6156  6316.89  79.5934
 52.6576  6432.08  79.7697
 52.6996  6113.5  78.7063
 52.7416  6255.01  79.4684
 52.7836  6323.68  79.781
 52.8256  6343.5  79.1478
 52.8676  6197.27  78.794
 52.9096  6297.19  79.509
 52.9516  6312.48  79.9737
 52.9936  6187.48  79.5598
 53.0356  6241.57  78.9356
 53.0776  6106.55  78.3543
 53.1196  6110.64  78.4776
 53.1616  6028.72  77.9976
 53.2036  6168.86  78.8531
 53.2456  5937.55  77.4656
 53.2876  6096.11  78.201
 53.3296  6102.6  78.5596
 53.3716  6123.97  78.4504
 53.4136  6026.92  77.9676
 53.4556  6128.76  78.6514
 53.4976  6200.98  78.9679
 53.5396  6235.79  79.5777
 53.5816  6105.91  78.3883
 53.6236  6074.5  78.5191
 53.6656  6201.42  78.9711
 53.7076  6179.58  78.792
 53.7496  6126.24  78.567
 53.7916  6147.41  78.8299
 53.8336  6113.98  78.5083
 53.8756  6049.63  78.6348
 53.9176  6121.91  78.4662
 53.9596  6233.65  79.9213
 54.0016  6073.95  78.2483
 54.0436  6090.93  78.5563
 54.0856  6171.22  78.5212
 54.1276  6128.64  78.442
 54.1696  6060.54  78.1683
 54.2116  6096.49  78.1651
 54.2536  6094.6  77.9776
 54.2956  6128.91  78.2407
 54.3376  6112.63  78.6073
 54.3796  6098.56  78.4235
 54.4216  6238.23  79.3612
 54.4636  6047.59  78.0949
 54.5056  6143.77  78.5377
 54.5476  6076.57  78.4342
 54.5896  6140.81  78.6769
 54.6316  6130.7  78.4781
 54.6736  6152.64  78.6454
 54.7156  6086.87  78.2905
 54.7576  6033.56  77.9499
 54.7996  6062.1  78.2805
 54.8416  6080.68  78.4323
 54.8836  5944.45  77.6595
 54.9256  6075.33  78.2594
 54.9676  6051.33  77.9687
 55.0096  6052.69  78.046
 55.0516  6082.2  78.3988
 55.0936  6104.99  78.2495
 55.1356  5963.58  77.3769
 55.1776  6008.14  77.9251
 55.2196  6083.63  78.2011
 55.2616  5981.81  77.7503
 55.3036  5968.39  77.8224
 55.3456  6025.79  78.336
 55.3876  6052.53  78.2622
 55.4296  5985.47  77.8016
 55.4716  5981.18  77.8075
 55.5136  6117.07  78.4511
 55.5556  5950.06  77.4395
 55.5976  6005.13  77.8549
 55.6396  6041.31  77.9564
 55.6816  5983.16  77.5391
 55.7236  6061.26  78.1865
 55.7656  6069.86  77.9033
 55.8076  6058.89  77.8132
 55.8496  5935.12  77.4383
 55.8916  6052.18  78.2554
 55.9336  6011.48  77.8434
 55.9756  5948.54  77.3219
 56.0176  5889.76  77.0938
 56.0596  5877.59  76.9959
 56.1016  5994.79  77.7999
 56.1436  5903.53  77.4346
 56.1856  6070.17  78.2682
 56.2276  6045.3  78.1485
 56.2696  6038.47  78.0828
 56.3116  5995.96  78.2086
 56.3536  6077.18  78.4
 56.3956  6016.79  77.9997
 56.4376  6043.92  78.2085
 56.4796  5996.39  77.7011
 56.5216  5999.58  78.0853
 56.5636  6005.1  77.7262
 56.6056  6000.85  77.9246
 56.6476  5997.09  77.5395
 56.6896  5985.54  77.8929
 56.7316  5928.76  77.4321
 56.7736  5955.41  77.6154
 56.8156  6030.95  78.0936
 56.8576  5942.59  77.4696
 56.8996  5961.68  77.5341
 56.9416  6017.96  78.0636
 56.9836  5918.6  77.07
 57.0256  5876.91  77.1128
 57.0676  5927.97  77.5716
 57.1096  5927.3  77.3584
 57.1516  6070.41  78.313
 57.1936  6017.99  77.7591
 57.2356  6014.65  78.0514
 57.2776  5989.94  77.8481
 57.3196  5988.08  78.2022
 57.3616  5985.3  77.6829
 57.4036  5926.22  77.3591
 57.4456  5911.25  77.2277
 57.4876  6030.87  77.8659
 57.5296  5865.56  77.0269
 57.5716  5971.55  77.8052
 57.6136  5989.07  77.7386
 57.6556  6006.34  77.9885
 57.6976  5999.68  77.7637
 57.7396  5939.12  77.7464
 57.7816  5857.57  77.5614
 57.8236  5898.01  77.623
 57.8656  5940.49  77.5688
 57.9076  5945.83  77.6375
 57.9496  5937.07  77.9222
 57.9916  5931.85  77.3614
 58.0336  5894.78  77.4355
 58.0756  5999.71  77.7245
 58.1176  5902.26  77.1199
 58.1596  5878.02  77.5204
 58.2016  6009.66  77.6327
 58.2436  5991.68  77.9084
 58.2856  6026.02  78.0506
 58.3276  5891.16  77.5405
 58.3696  5951.3  77.692
 58.4116  6037.8  78.1124
 58.4536  5998.9  77.7548
 58.4956  5950.78  77.6181
 58.5376  5983.44  77.4055
 58.5796  5883.87  77.1674
 58.6216  6049.05  78.062
 58.6636  6030.15  78.155
 58.7056  6013.86  77.9053
 58.7476  5870.48  77.4125
 58.7896  5936.33  77.4936
 58.8316  5990.62  77.8447
 58.8736  6012.19  77.9917
 58.9156  5810.36  76.7184
 58.9576  6096.47  78.7709
 58.9996  6084.67  78.0424
 59.0416  6158.68  78.9069
 59.0836  6059.51  78.1963
 59.1256  5927.15  77.7213
 59.1676  5919.75  78.2842
 59.2096  5918.17  77.5838
 59.2516  6016.7  77.8089
 59.2936  5971.3  77.841
 59.3356  6087.81  78.4739
 59.3776  6121.58  78.8614
 59.4196  5984.3  77.9083
 59.4616  5991.42  77.8153
 59.5036  5932.17  77.4644
 59.5456  6057.14  77.9693
 59.5876  6044.36  78.0781
 59.6296  5888.25  77.1316
 59.6716  5926.94  77.442
 59.7136  6009.73  77.9693
 59.7556  5990.77  77.9821
 59.7976  5966.99  77.5709
 59.8396  5947.41  77.3387
 59.8816  5968.34  78.0171
 59.9236  6017.56  77.9821
 59.9656  6034.08  78.3496
 60.0076  6024.9  77.6482
 60.0496  5961.36  77.7363
 60.0916  6258.15  79.0576
 60.1336  6113.62  79.2533
 60.1756  5854.57  78.7219
 60.1996  0.0000000E+00  0.0000000E+00