File: docs/examples/opeando_xrd/IS17_D/Data/IS17_D/17_Da_f00032.xye
# /beamlines/bl04/projects/cycle2025-II/20250340211-lsimonelli/DATA/IS17_D/17_Da_f00032.xye : mythproc.py merge -s 0.006 -l 0.5 -f /beamlines/bl04/inhouse/ff/FlatField/ff_20Nov2024rod8mm60s_17keV.raw -b True -c true -o xye /beamlines/bl04/projects/cycle2025-II/20250340211-lsimonelli/DATA/IS17_D/17_Da_00032.dat
# IsMon = [6763619, 6759539, 6764271]  IsPos = [-1.5000, -2.4885, -3.4986]
# Wave = 0.4962  CalPath /beamlines/bl04/projects/cycle2025-II/20250340211-lsimonelli/DATA/Align/Si_Pos1_25keV_f00001.cal
# Date = 2025-09-24_02:29:27 Dt = 4.8000  Bin = 0.0060  <imon> = 6762476 +/- 2094 (Min/Max) 6759539 / 6764271
# icurr 250.3482  mocoIn 1.7083E-05  mocoOut 0.8012  i15 7.07652e+06  imon 6.76248e+06  i7 5.3333  iEMpd_timer 4.8000  iEMpd_1 3.6844E-08  iEMpd_2 7.8809E-08  iEMpd_3 1.7542E-08  iEMpd_4 4.8439E-08  iEMhp_timer 4.8000  iEMhp_1 4.8919E-06  iEMhp_2 -2.5700E-08  iEMhp_3 -2.3393E-08  iEMhp_4 -2.1105E-08
#      9776
 1.5856  40096.5  205.598
 1.6276  47091.4  218.988
 1.6696  53962  233.593
 1.7116  62168.2  251.216
 1.7536  71511.9  268.287
 1.7956  76309.8  277.833
 1.8376  72588.8  271.404
 1.8796  60593.7  246.15
 1.9216  48995.8  222.219
 1.9636  41516.4  204.232
 2.0056  37133.7  191.918
 2.0476  34198.8  186.197
 2.0896  32763.6  181.179
 2.1316  31606  177.094
 2.1736  30218  174.536
 2.2156  30764.3  174.693
 2.2576  29819.6  172.608
 2.2996  28656.3  169.827
 2.3416  28890.3  169.156
 2.3836  28166.1  167.127
 2.4256  27495.7  165.664
 2.4676  26942  163.756
 2.5096  26509.9  162.49
 2.5516  26232.5  165.406
 2.5936  26106.5  161.674
 2.6356  25562.3  160.658
 2.6776  25372.4  158.977
 2.7196  25063.3  158.508
 2.7616  25170.9  158.632
 2.8036  24789.8  157.595
 2.8456  24765.6  158.122
 2.8876  24396  156.79
 2.9296  23804.6  155.027
 2.9716  23904.2  154.851
 3.0136  23475  153.519
 3.0556  23541.7  154.128
 3.0976  23421.5  152.679
 3.1396  23182.5  152.61
 3.1816  23063.9  152.154
 3.2236  22960  151.8
 3.2656  23012.9  151.044
 3.3076  22803  151.775
 3.3496  23050.2  151.793
 3.3916  23265.4  152.085
 3.4336  23786.9  154.349
 3.4756  24270.4  155.828
 3.5176  25194.1  158.569
 3.5596  24808.1  160.281
 3.6016  25197  158.626
 3.6436  24293.8  156.854
 3.6856  23886.2  153.839
 3.7276  22726.3  151.136
 3.7696  22671.8  150.933
 3.8116  22196.7  149.435
 3.8536  22362  149.917
 3.8956  22217.9  149.271
 3.9376  22308.3  149.851
 3.9796  22283.2  149.252
 4.0216  22333.8  148.481
 4.0636  22184.1  149.423
 4.1056  22413.2  149.847
 4.1476  22435.5  150.217
 4.1896  22716.7  151.026
 4.2316  22850.6  151.288
 4.2736  23335  152.678
 4.3156  23492.7  153.422
 4.3576  24242.4  155.777
 4.3996  24554.8  156.845
 4.4416  25092.8  158.335
 4.4836  25469.8  159.68
 4.5256  25806.8  161.325
 4.5676  25819.3  161.62
 4.6096  26527  162.844
 4.6516  26775.4  162.959
 4.6936  27084  164.692
 4.7356  27150.7  164.734
 4.7776  27113.5  164.457
 4.8196  26911.3  164.478
 4.8616  26260.2  162.098
 4.9036  26154.8  161.39
 4.9456  26094.4  161.846
 4.9876  25353.6  159.439
 5.0296  25746.7  160.489
 5.0716  25627.9  160.749
 5.1136  25814.4  161.182
 5.1556  26304.5  162.177
 5.1976  26592.6  163.048
 5.2396  26687.6  163.044
 5.2816  26654.4  163.395
 5.3236  26682.6  163.193
 5.3656  26474.1  163.466
 5.4076  25981.2  162.094
 5.4496  26043.5  161.78
 5.4916  26170.2  161.929
 5.5336  26281.9  162.284
 5.5756  25868.7  161.022
 5.6176  26242.6  161.624
 5.6596  26488.1  163.196
 5.7016  26601.9  162.971
 5.7436  26713.3  163.583
 5.7856  26620.3  163.355
 5.8276  26945.5  164.077
 5.8696  26868.8  163.899
 5.9116  26877.1  164.603
 5.9536  27096.3  165.053
 5.9956  27540.7  165.776
 6.0376  27565.5  166.483
 6.0796  27838.5  167.136
 6.1216  27896.2  167.518
 6.1636  28086.7  167.152
 6.2056  28100.8  167.86
 6.2476  28115.4  167.591
 6.2896  28300.4  168.008
 6.3316  28233.7  167.976
 6.3736  28377.4  168.303
 6.4156  28450  168.475
 6.4576  28521.9  168.242
 6.4996  28798  169.533
 6.5416  28849  169.815
 6.5836  28951.6  170.347
 6.6256  28952.3  169.913
 6.6676  29482.5  171.031
 6.7096  29283.1  171.292
 6.7516  29645.5  172.016
 6.7936  29830.4  171.726
 6.8356  29923.5  172.33
 6.8776  30126  173.708
 6.9196  30123.7  174.093
 6.9616  30707  175.19
 7.0036  31134.9  176.089
 7.0456  31352.4  176.004
 7.0876  30847.7  176.161
 7.1296  30884.9  175.499
 7.1716  30861.7  174.972
 7.2136  30740.8  174.422
 7.2556  30782.2  174.698
 7.2976  30854.2  175.393
 7.3396  30753.3  175.326
 7.3816  30490.6  174.776
 7.4236  31054.6  175.687
 7.4656  31073  175.228
 7.5076  31405.1  176.298
 7.5496  31391.6  176.787
 7.5916  31217.6  176.332
 7.6336  31676.7  177.521
 7.6756  31521.3  176.94
 7.7176  32026.5  178.653
 7.7596  31896.8  179.519
 7.8016  32160.7  182.393
 7.8436  32838.3  181.043
 7.8856  32896.1  180.822
 7.9276  33467  182.761
 7.9696  33784.4  183.944
 8.0116  34680.8  185.278
 8.0536  34554.7  184.838
 8.0956  34615.3  186.161
 8.1376  35346.2  187.591
 8.1796  35255.6  187.894
 8.2216  35839.4  188.191
 8.2636  36141.1  189.227
 8.3056  36162.9  190.035
 8.3476  36872.2  191.235
 8.3896  36465.3  190.684
 8.4316  36757.5  191.18
 8.4736  36966.3  191.194
 8.5156  36473.1  190.188
 8.5576  35965.5  189.827
 8.5996  36165.9  189.232
 8.6416  36055.6  190.195
 8.6836  35908.9  189.62
 8.7256  36315.3  190.163
 8.7676  35658.8  191.258
 8.8096  35570.9  188.36
 8.8516  35253.6  187.195
 8.8936  34974.8  186.304
 8.9356  34946  186.552
 8.9776  35232.1  187.417
 9.0196  34762.7  185.842
 9.0616  35020.3  186.007
 9.1036  34613.1  186.092
 9.1456  34561  185.322
 9.1876  34517.5  185.157
 9.2296  34506.3  184.542
 9.2716  34187.3  183.748
 9.3136  33975  183.158
 9.3556  34123.1  183.537
 9.3976  33114.8  181.329
 9.4396  33575.9  182.487
 9.4816  32716.3  179.995
 9.5236  33065.8  180.868
 9.5656  32631.2  179.981
 9.6076  32253  179.457
 9.6496  32066.4  178.867
 9.6916  32440.6  179.88
 9.7336  32460  179.716
 9.7756  32425.5  180.828
 9.8176  31428.4  177.592
 9.8596  31622.7  176.621
 9.9016  31145.3  175.278
 9.9436  31133  175.005
 9.9856  30559.5  173.744
 10.0276  30499  174.668
 10.0696  30500.7  173.736
 10.1116  29709.8  171.717
 10.1536  29429.1  170.581
 10.1956  29011.8  169.467
 10.2376  28933  168.739
 10.2796  29129.4  169.446
 10.3216  29119.9  169.55
 10.3636  28607.3  168.214
 10.4056  28340.1  167.827
 10.4476  28674.3  168.433
 10.4896  28787.5  168.228
 10.5316  27879.4  165.912
 10.5736  28026.3  167.087
 10.6156  27364.7  164.863
 10.6576  27782.9  164.719
 10.6996  27134.1  163.429
 10.7416  26864  162.855
 10.7836  27029.2  164.027
 10.8256  26579.7  163.068
 10.8676  26824.2  163.369
 10.9096  26366.7  161.99
 10.9516  26094.3  160.112
 10.9936  26123.3  160.39
 11.0356  25834.3  160.127
 11.0776  25688  159.009
 11.1196  25385.5  158.794
 11.1616  25095.1  157.587
 11.2036  25371.7  158.302
 11.2456  25297.7  158.771
 11.2876  25146.8  158.018
 11.3296  24790.9  156.797
 11.3716  25357.4  158.314
 11.4136  25364.9  159.191
 11.4556  25363.6  158.855
 11.4976  25442.1  158.095
 11.5396  25790  159.347
 11.5816  25910.4  160.149
 11.6236  25608.2  159.662
 11.6656  25269.1  157.551
 11.7076  24610.4  156.306
 11.7496  24332.7  159.251
 11.7916  24393.9  154.897
 11.8336  24015.5  154.587
 11.8756  24015.1  154.097
 11.9176  24076.7  154.206
 11.9596  23615.2  152.65
 12.0016  23567  153.281
 12.0436  23589.9  152.783
 12.0856  23468.5  152.911
 12.1276  23381.4  152.55
 12.1696  23333.6  151.545
 12.2116  23711.6  152.762
 12.2536  23120  151.622
 12.2956  23279.2  151.529
 12.3376  23097  151.129
 12.3796  23440  152.695
 12.4216  23351.7  151.651
 12.4636  22944.4  151.214
 12.5056  23225.3  151.424
 12.5476  23304.4  151.216
 12.5896  23379.6  152.087
 12.6316  22978.9  150.928
 12.6736  23179.4  151.904
 12.7156  22849.2  150.84
 12.7576  23171.3  152.142
 12.7996  23180  150.839
 12.8416  22950.2  151.118
 12.8836  23318.5  152.144
 12.9256  23568.6  152.006
 12.9676  23680.7  152.783
 13.0096  23251.3  152.453
 13.0516  23478.8  152.267
 13.0936  23557.6  152.634
 13.1356  24041.3  153.472
 13.1776  23650.2  153.191
 13.2196  23820.5  153.402
 13.2616  23663.6  153.202
 13.3036  23664  153.329
 13.3456  23714.1  153.483
 13.3876  23678.2  152.867
 13.4296  23720.7  153.159
 13.4716  23710.9  152.744
 13.5136  23693.1  152.839
 13.5556  23753.6  153.643
 13.5976  23773.7  153.829
 13.6396  23940.3  153.752
 13.6816  23411.7  152.409
 13.7236  24159.1  154.58
 13.7656  23428.5  152.758
 13.8076  23837.1  152.894
 13.8496  23504.3  152.594
 13.8916  23422.4  153.133
 13.9336  23317.3  152.031
 13.9756  23255.8  151.185
 14.0176  23188.1  151.642
 14.0596  23331.8  152.071
 14.1016  22999.2  151.376
 14.1436  22648.2  149.358
 14.1856  22454  149.012
 14.2276  22318.1  149.028
 14.2696  22449  149.313
 14.3116  22257.9  148.58
 14.3536  21851.7  147.393
 14.3956  21815.7  147.015
 14.4376  22108.5  147.77
 14.4796  21960.9  147.265
 14.5216  21556.2  146.688
 14.5636  21455.6  145.918
 14.6056  21668.4  146.216
 14.6476  21495.4  144.884
 14.6896  21092.6  144.05
 14.7316  20784.9  144
 14.7736  20837.7  143.352
 14.8156  20363.9  141.744
 14.8576  20349.9  141.548
 14.8996  20151.3  142.04
 14.9416  19756.8  140.653
 14.9836  19916.2  141.172
 15.0256  19826.5  139.797
 15.0676  19687.6  139.623
 15.1096  19464.1  138.569
 15.1516  19181.2  138.114
 15.1936  19080  137.179
 15.2356  18989.7  137.13
 15.2776  18876.5  136.308
 15.3196  18596.3  136.283
 15.3616  18613.9  136.099
 15.4036  18352.7  135.01
 15.4456  18620.5  135.412
 15.4876  18217.5  133.855
 15.5296  18123.7  133.789
 15.5716  17813.6  132.252
 15.6136  17789.5  132.485
 15.6556  17944.7  132.31
 15.6976  17818.7  131.921
 15.7396  17768.7  132.323
 15.7816  17471.3  130.739
 15.8236  17123.2  130.105
 15.8656  17249.6  130.388
 15.9076  17058.8  129.495
 15.9496  17058  132.214
 15.9916  16945.8  132.226
 16.0336  16715.3  128.259
 16.0756  16766.8  128.761
 16.1176  16731.2  128.538
 16.1596  16402.8  128.58
 16.2016  16529.7  127.839
 16.2436  16364.5  127.581
 16.2856  16139.8  126.258
 16.3276  15905.3  125.744
 16.3696  16109.7  126.366
 16.4116  15852.5  125.811
 16.4536  16121.9  126.654
 16.4956  16025.4  126.018
 16.5376  15894.9  125.687
 16.5796  15914.7  125.132
 16.6216  16016.6  125.841
 16.6636  15857.6  125.367
 16.7056  15872.8  125.293
 16.7476  15880.1  125.009
 16.7896  15586.4  124.434
 16.8316  15765  125.102
 16.8736  15640.6  124.871
 16.9156  15824.3  125.931
 16.9576  15649.5  126.036
 16.9996  15698.4  126.707
 17.0416  16084.2  126.634
 17.0836  15590.2  124.422
 17.1256  15427.3  123.784
 17.1676  15414.6  123.733
 17.2096  15203.2  122.759
 17.2516  15322  123.31
 17.2936  15227.8  122.961
 17.3356  15002.7  122.052
 17.3776  15026.1  122.335
 17.4196  14994.9  121.915
 17.4616  14906.9  121.474
 17.5036  14801.4  121.408
 17.5456  14660  121.45
 17.5876  14499.9  119.851
 17.6296  14729.4  120.599
 17.6716  14469.9  120.113
 17.7136  14218.3  119.196
 17.7556  14192  119.374
 17.7976  14269.3  119.321
 17.8396  14194.9  118.646
 17.8816  14170.1  119.076
 17.9236  13922.1  117.843
 17.9656  14256.9  119.936
 18.0076  14166.6  118.976
 18.0496  14180.3  118.191
 18.0916  14210.9  118.843
 18.1336  14206.1  118.924
 18.1756  14372.3  119.144
 18.2176  14195.9  118.642
 18.2596  14255.5  118.639
 18.3016  14302.1  119.082
 18.3436  14308  119.332
 18.3856  14098.3  118.358
 18.4276  14096.3  118.027
 18.4696  14049.5  117.928
 18.5116  14068.7  118.297
 18.5536  14175.4  119.095
 18.5956  13772.7  116.955
 18.6376  13804.2  117.495
 18.6796  13636.1  116.105
 18.7216  13810.6  117.401
 18.7636  13625.2  116.513
 18.8056  13683.9  116.721
 18.8476  13642.4  116.857
 18.8896  13587.7  116.27
 18.9316  13772.5  116.885
 18.9736  13663.6  116.279
 19.0156  13599  116.39
 19.0576  13463.6  114.715
 19.0996  13738.1  116.581
 19.1416  13405.4  115.539
 19.1836  13568.4  115.851
 19.2256  13330  115.036
 19.2676  13568.6  116.155
 19.3096  13503.7  116.12
 19.3516  13407.4  115.488
 19.3936  13526.5  116.142
 19.4356  13432.9  115.533
 19.4776  13394.6  115.477
 19.5196  13465.7  115.634
 19.5616  13400.7  115.608
 19.6036  13344.1  114.736
 19.6456  13361.6  115.067
 19.6876  13475.4  115.211
 19.7296  13416.9  115.399
 19.7716  13546.6  115.97
 19.8136  13555  116.357
 19.8556  13804.2  116.909
 19.8976  13714.8  116.596
 19.9396  13793.4  116.509
 19.9816  13834.9  116.925
 20.0236  13888.9  117.364
 20.0656  14157.9  118.496
 20.1076  14076.1  118.612
 20.1496  14003  118.312
 20.1916  13840.4  117.099
 20.2336  13619.4  116.139
 20.2756  13487.5  115.995
 20.3176  13148.8  114.283
 20.3596  13291.6  114.881
 20.4016  13238.7  114.457
 20.4436  13242.5  115.032
 20.4856  13011.8  113.8
 20.5276  13027.9  114.333
 20.5696  12941.9  113.525
 20.6116  13054.5  114.191
 20.6536  12868.2  112.947
 20.6956  12820  112.799
 20.7376  12889.8  113.337
 20.7796  12825.2  112.744
 20.8216  12927.8  112.899
 20.8636  12722.9  112.359
 20.9056  12835.1  112.811
 20.9476  12604.4  111.635
 20.9896  12901.8  112.813
 21.0316  12852.9  112.503
 21.0736  12686.8  112.276
 21.1156  12762.7  112.772
 21.1576  12774.1  112.868
 21.1996  12586.3  112.019
 21.2416  12553.4  111.702
 21.2836  12747.1  112.529
 21.3256  12567.9  111.814
 21.3676  12701  111.961
 21.4096  12536.5  111.595
 21.4516  12441.3  110.997
 21.4936  12402.4  111.066
 21.5356  12552.5  111.686
 21.5776  12554.7  111.529
 21.6196  12384.4  110.808
 21.6616  12287  110.456
 21.7036  12413.7  110.805
 21.7456  12506.1  111.294
 21.7876  12363.1  110.412
 21.8296  12171.5  109.413
 21.8716  12317.4  110.295
 21.9136  12511.6  111.355
 21.9556  12446.4  110.742
 21.9976  12152.7  109.44
 22.0396  12214.7  109.974
 22.0816  12248  110.648
 22.1236  12450  111.014
 22.1656  12277.2  110.434
 22.2076  12518.6  110.937
 22.2496  12289.6  109.948
 22.2916  12216.5  109.494
 22.3336  12336.9  110.736
 22.3756  12220.9  109.959
 22.4176  12080.7  109.183
 22.4596  12138  110.016
 22.5016  12250.2  110.016
 22.5436  12317.9  110.211
 22.5856  12347.4  110.592
 22.6276  12192.7  110.038
 22.6696  12268.3  110.71
 22.7116  12200.8  109.94
 22.7536  12353.9  110.599
 22.7956  12234.3  109.407
 22.8376  12151.4  109.541
 22.8796  12125.9  109.235
 22.9216  12331.9  110.694
 22.9636  12322.3  109.818
 23.0056  12167.5  109.259
 23.0476  12413.4  110.924
 23.0896  12510.9  110.737
 23.1316  12360.2  110.496
 23.1736  12212  112.745
 23.2156  12488.6  111.296
 23.2576  12254.8  110.458
 23.2996  12236.7  110.17
 23.3416  12267.5  110.821
 23.3836  12292  110.149
 23.4256  12174.8  109.762
 23.4676  12213.9  109.642
 23.5096  12186.4  110.18
 23.5516  12094.7  109.06
 23.5936  12107  109.996
 23.6356  12458.5  111.261
 23.6776  12122.1  110.277
 23.7196  12082.5  109.57
 23.7616  12243.3  110.001
 23.8036  12215.2  109.919
 23.8456  12270.2  109.74
 23.8876  11982.7  108.789
 23.9296  12040.3  109.538
 23.9716  11970.9  108.42
 24.0136  11941  109.18
 24.0556  11915  108.792
 24.0976  11848  108.296
 24.1396  11771.7  110.573
 24.1816  11877.2  109.827
 24.2236  11627.9  107.969
 24.2656  11539.7  107.044
 24.3076  11557.5  107.362
 24.3496  11788.9  108.338
 24.3916  11605.6  107.536
 24.4336  11502.4  107.262
 24.4756  11460.6  106.935
 24.5176  11358.7  106.118
 24.5596  11271  106.018
 24.6016  11306.5  106.28
 24.6436  11330.3  105.877
 24.6856  11234.2  105.208
 24.7276  11323.2  105.932
 24.7696  11132.7  105.151
 24.8116  11229.2  105.792
 24.8536  11129  105.304
 24.8956  11046.7  104.657
 24.9376  10971.3  104.471
 24.9796  10886.8  104.182
 25.0216  10885  104.279
 25.0636  10858.1  103.816
 25.1056  10895.7  104.423
 25.1476  10892.8  106.309
 25.1896  11052  105.579
 25.2316  10977.1  104.381
 25.2736  10930.4  103.931
 25.3156  10805.8  103.404
 25.3576  10736.9  103.489
 25.3996  10772  103.634
 25.4416  10760  103.57
 25.4836  10623.7  103.422
 25.5256  10715.9  103.249
 25.5676  10676.1  102.797
 25.6096  10538.3  102.685
 25.6516  10835.5  103.632
 25.6936  10677.5  103.175
 25.7356  10618.7  103.023
 25.7776  10749.5  103.343
 25.8196  10560.2  102.579
 25.8616  10703.7  103.207
 25.9036  10764.8  102.974
 25.9456  10565.3  102.604
 25.9876  10463.6  102.031
 26.0296  10796.4  103.383
 26.0716  10586.9  102.701
 26.1136  10724.8  103.312
 26.1556  10598  102.002
 26.1976  10461.9  102.343
 26.2396  10569.5  102.282
 26.2816  10514.1  102.366
 26.3236  10698.2  103.338
 26.3656  10341  101.404
 26.4076  10541.4  102.59
 26.4496  10927.2  103.967
 26.4916  10645.6  102.604
 26.5336  10666.9  103.022
 26.5756  10948.7  104.218
 26.6176  10477.9  102.024
 26.6596  10350.4  101.697
 26.7016  10409.7  101.797
 26.7436  10318.2  101.428
 26.7856  10126.2  100.467
 26.8276  10290.8  101.238
 26.8696  10391.2  101.607
 26.9116  10252.1  100.867
 26.9536  10371.9  101.496
 26.9956  10232.7  100.849
 27.0376  10152  100.654
 27.0796  10211.3  100.73
 27.1216  10010.4  99.7657
 27.1636  10017.6  99.9688
 27.2056  10128.7  100.404
 27.2476  10118  100.352
 27.2896  10094.6  100.278
 27.3316  10071.5  99.9475
 27.3736  10125.3  100.48
 27.4156  9892.81  99.1581
 27.4576  10018.5  100.016
 27.4996  9936.81  99.2086
 27.5416  9992.22  99.8015
 27.5836  10054.8  99.9363
 27.6256  10197.9  100.809
 27.6676  10060.3  100.145
 27.7096  10067.6  100.053
 27.7516  9939.86  99.5657
 27.7936  9841.06  99.2271
 27.8356  9829.93  98.803
 27.8776  9898.88  99.1891
 27.9196  9839.3  98.7446
 27.9616  9868.81  99.077
 28.0036  9880.31  99.1166
 28.0456  9873.98  99.2066
 28.0876  9713.82  98.4883
 28.1296  9770.38  98.6184
 28.1716  9685.06  98.1881
 28.2136  9759.23  98.5378
 28.2556  9621.37  97.9515
 28.2976  9677.62  98.2295
 28.3396  9750.29  98.3991
 28.3816  9698.95  98.1218
 28.4236  9745.21  98.5107
 28.4656  9564.07  97.6204
 28.5076  9675.52  97.8309
 28.5496  9638.46  97.9019
 28.5916  9713.52  98.0933
 28.6336  9508.55  97.3829
 28.6756  9557.23  96.8509
 28.7176  9547.31  97.3388
 28.7596  9443.03  96.7075
 28.8016  9517.69  97.208
 28.8436  9414.16  96.828
 28.8856  9536.24  97.3048
 28.9276  9512.18  97.4203
 28.9696  9471.39  96.8834
 29.0116  9408.18  96.7284
 29.0536  9271.13  96.2276
 29.0956  9456.2  96.9074
 29.1376  9441.47  96.7956
 29.1796  9386.61  96.5554
 29.2216  9497.41  96.9702
 29.2636  9407.11  96.4918
 29.3056  9329.32  95.9766
 29.3476  9317.34  96.4274
 29.3896  9406.65  96.9817
 29.4316  9519.4  96.9148
 29.4736  9358.02  96.1459
 29.5156  9400.23  96.279
 29.5576  9263.15  96.3155
 29.5996  9384.33  96.2057
 29.6416  9312.97  95.9605
 29.6836  9376.92  96.2006
 29.7256  9365.84  96.7168
 29.7676  9315.78  96.1128
 29.8096  9328  96.13
 29.8516  9206.04  95.8225
 29.8936  9321.72  96.5169
 29.9356  9300.04  96.1654
 29.9776  9247.07  96.0381
 30.0196  9372.44  96.0848
 30.0616  9367.77  96.4315
 30.1036  9283.89  95.8286
 30.1456  9233.64  95.8185
 30.1876  9169.56  95.4443
 30.2296  9244.25  95.771
 30.2716  9169.99  95.0369
 30.3136  9227.7  95.9183
 30.3556  9251.03  96.3075
 30.3976  9197.96  97.535
 30.4396  9217.83  95.0064
 30.4816  9141.02  94.2114
 30.5236  9307.2  95.0881
 30.5656  9066.3  94.4834
 30.6076  9179.52  94.8571
 30.6496  9223.64  95.1102
 30.6916  9071.95  94.426
 30.7336  9084.22  94.6381
 30.7756  9088.64  94.9678
 30.8176  9115.17  94.8067
 30.8596  9014.21  94.0517
 30.9016  9070.42  94.2216
 30.9436  9116.29  94.6763
 30.9856  9147.36  94.9463
 31.0276  9074.32  94.1851
 31.0696  8928.02  93.8497
 31.1116  9110.27  94.9115
 31.1536  9188.7  95.2052
 31.1956  8781.41  93.1555
 31.2376  9005.49  94.3447
 31.2796  8962.96  93.67
 31.3216  8883.19  93.1986
 31.3636  9031.4  94.6625
 31.4056  9001.56  95.8098
 31.4476  8954.78  93.4835
 31.4896  8867.15  93.5145
 31.5316  8872.33  92.9988
 31.5736  8993.2  93.3941
 31.6156  8966.19  93.2915
 31.6576  8846.56  92.7642
 31.6996  9078.74  93.6473
 31.7416  8863.74  93.4321
 31.7836  9012.33  93.3805
 31.8256  8899.89  93.1383
 31.8676  8885.81  92.9819
 31.9096  8844.15  92.9857
 31.9516  8694.39  92.4832
 31.9936  8778.58  92.7615
 32.0356  8860.19  93.2521
 32.0776  8873.45  93.2072
 32.1196  8822.47  92.9322
 32.1616  8915.59  92.9839
 32.2036  8635  92.0002
 32.2456  8700.64  92.7261
 32.2876  8845.4  92.8388
 32.3296  8702.44  92.2104
 32.3716  8679.39  92.1937
 32.4136  8799.2  93.0284
 32.4556  8780.4  92.3774
 32.4976  8845.11  92.6067
 32.5396  8676.42  91.7507
 32.5816  8826.45  92.5526
 32.6236  8829.26  92.7449
 32.6656  8749.82  92.8584
 32.7076  8657.86  92.0287
 32.7496  8704.51  91.9601
 32.7916  8719.52  91.9879
 32.8336  8685.59  91.9082
 32.8756  8754.86  92.0859
 32.9176  8615.99  91.7391
 32.9596  8553.86  91.4724
 33.0016  8639.18  91.7368
 33.0436  8748.39  92.4801
 33.0856  8624.31  91.8865
 33.1276  8482.22  90.8813
 33.1696  8758.64  92.1824
 33.2116  8623.73  91.7009
 33.2536  8580.26  91.4574
 33.2956  8490.2  91.0649
 33.3376  8607.91  91.4945
 33.3796  8635.4  91.7714
 33.4216  8635.4  91.3873
 33.4636  8671.25  91.7243
 33.5056  8544.12  91.1302
 33.5476  8387.12  90.4332
 33.5896  8570.04  91.1605
 33.6316  8489.49  91.0737
 33.6736  8371.4  90.677
 33.7156  8459.82  91.1961
 33.7576  8616.81  91.6708
 33.7996  8673.1  91.7369
 33.8416  8345.24  90.1721
 33.8836  8485.47  90.7073
 33.9256  8391.63  90.2601
 33.9676  8537.88  90.9399
 34.0096  8325.43  90.1103
 34.0516  8416.58  90.2482
 34.0936  8381.3  90.3122
 34.1356  8467.29  90.524
 34.1776  8424.19  90.3035
 34.2196  8349.14  90.0791
 34.2616  8337.05  90.2097
 34.3036  8297.66  90.1736
 34.3456  8325.26  90.085
 34.3876  8458.12  90.8546
 34.4296  8240.25  89.2882
 34.4716  8462.69  90.6305
 34.5136  8416.8  90.5868
 34.5556  8304.37  90.2307
 34.5976  8443.17  90.8158
 34.6396  8219.53  89.2948
 34.6816  8254.33  89.5901
 34.7236  8331.35  89.7984
 34.7656  8410.52  90.415
 34.8076  8202.96  89.6033
 34.8496  8358.98  90.3161
 34.8916  8295.17  89.8453
 34.9336  8409.17  90.4291
 34.9756  8586.77  91.2948
 35.0176  8307.53  90.3142
 35.0596  8160.7  89.3453
 35.1016  8129.89  88.9525
 35.1436  8446.7  90.3576
 35.1856  8237.28  89.3572
 35.2276  8274.11  89.7294
 35.2696  8206.88  89.5502
 35.3116  8197.15  89.5905
 35.3536  8091.42  88.7564
 35.3956  8205.58  89.0604
 35.4376  8002.44  88.4917
 35.4796  8217.74  89.7386
 35.5216  8129.23  89.1307
 35.5636  7949.6  88.9436
 35.6056  8246.01  89.6179
 35.6476  8247.34  89.5201
 35.6896  8342.48  90.1858
 35.7316  8179.29  89.2152
 35.7736  8084.16  88.8829
 35.8156  8043.94  88.6593
 35.8576  8168.88  89.5869
 35.8996  8264.88  90.0814
 35.9416  8200.95  89.2428
 35.9836  8065.64  88.948
 36.0256  8196.65  89.5897
 36.0676  8230.26  89.3159
 36.1096  8043.95  88.6513
 36.1516  8171.46  89.2399
 36.1936  8129.44  88.8633
 36.2356  8017.63  88.8732
 36.2776  8055.34  88.5609
 36.3196  8050.24  88.2228
 36.3616  8091.15  88.5704
 36.4036  8168.46  89.0537
 36.4456  8113.93  88.9594
 36.4876  8044.18  88.51
 36.5296  7969.71  88.1501
 36.5716  8041.88  89.3137
 36.6136  8118.32  88.5288
 36.6556  8104.49  88.6541
 36.6976  8069.78  88.9595
 36.7396  8067.93  88.7756
 36.7816  8103.65  89.2503
 36.8236  8022.21  88.7273
 36.8656  7997.54  88.661
 36.9076  7948.52  88.3924
 36.9496  8005.44  88.7166
 36.9916  8063.17  88.5226
 37.0336  8080.08  88.9233
 37.0756  8075.27  88.695
 37.1176  7849.38  87.7951
 37.1596  8057.74  88.8679
 37.2016  7959.49  88.5069
 37.2436  8006.21  88.1352
 37.2856  7884.24  87.7195
 37.3276  8184.51  88.7192
 37.3696  7830.45  87.6516
 37.4116  7948.15  88.2024
 37.4536  7876.66  87.6797
 37.4956  7821.92  87.4148
 37.5376  7919.57  89.4935
 37.5796  7919  89.4462
 37.6216  7838.68  87.2767
 37.6636  7799.75  86.9605
 37.7056  7704  86.6114
 37.7476  7803.5  86.7089
 37.7896  7861.6  87.5358
 37.8316  7592.81  86.1865
 37.8736  7867.1  87.2595
 37.9156  7858.31  87.2128
 37.9576  7779.5  86.8109
 37.9996  7798.81  86.4961
 38.0416  7687.27  86.6696
 38.0836  7840.27  87.4308
 38.1256  7820.82  87.2865
 38.1676  7606.46  86.2127
 38.2096  7659.92  86.1456
 38.2516  7900.69  87.5936
 38.2936  7702.65  86.3889
 38.3356  7872.41  87.2592
 38.3776  7611.58  86.063
 38.4196  7776.51  86.8487
 38.4616  7719.55  86.7593
 38.5036  7889.43  87.5439
 38.5456  7770.66  87.7281
 38.5876  7733.2  87.5497
 38.6296  7639.2  86.014
 38.6716  7781.98  86.6093
 38.7136  7630.04  85.7041
 38.7556  7538.64  85.6744
 38.7976  7663.86  86.3271
 38.8396  7506.92  85.8804
 38.8816  7631.33  86.373
 38.9236  7582.23  85.9094
 38.9656  7652.77  86.2214
 39.0076  7868.6  86.8409
 39.0496  7713.32  86.5091
 39.0916  7606.41  85.5596
 39.1336  7650.86  86.2208
 39.1756  7524.19  85.5699
 39.2176  7651.83  86.8202
 39.2596  7583.4  86.3487
 39.3016  7571.6  85.8459
 39.3436  7549.43  86.1536
 39.3856  7555.95  85.6525
 39.4276  7636.47  86.5828
 39.4696  7748.34  86.856
 39.5116  7577.08  86.3878
 39.5536  7701.46  87.5138
 39.5956  7757.19  86.9433
 39.6376  7709.15  86.5139
 39.6796  7737.19  86.5821
 39.7216  7737.5  86.6704
 39.7636  7691.56  86.9807
 39.8056  7637.28  86.4493
 39.8476  7591.6  86.4446
 39.8896  7695.09  86.6631
 39.9316  7719.05  87.0499
 39.9736  7772.73  86.9344
 40.0156  7676.63  86.2073
 40.0576  7721.76  86.8301
 40.0996  7796.28  86.4284
 40.1416  7788.43  87.1726
 40.1836  7670.75  86.4016
 40.2256  7683.77  86.5237
 40.2676  7726.41  86.9327
 40.3096  7769.8  87.0416
 40.3516  7726.49  86.9801
 40.3936  7815.1  86.9639
 40.4356  7701.22  86.5252
 40.4776  7682.6  86.6555
 40.5196  7820.17  87.7163
 40.5616  7749.58  86.9658
 40.6036  7729.39  87.1055
 40.6456  7785.57  87.0318
 40.6876  7829.66  87.2713
 40.7296  7816.66  87.3343
 40.7716  7772.75  87.2118
 40.8136  7724.14  86.8891
 40.8556  7751.39  87.164
 40.8976  7915.67  88.0084
 40.9396  7591.73  86.5262
 40.9816  7750.33  86.7255
 41.0236  7781.27  86.6759
 41.0656  7740.25  86.9857
 41.1076  7858.43  87.4202
 41.1496  7753  86.7369
 41.1916  7751.25  87.0552
 41.2336  7675.08  86.6069
 41.2756  7692.35  86.3177
 41.3176  7746.29  87.2256
 41.3596  7661.69  86.4848
 41.4016  7750.58  87.2351
 41.4436  7819.94  87.4169
 41.4856  7790.87  87.4186
 41.5276  7731.41  87.1033
 41.5696  7786.77  87.0317
 41.6116  7619.75  86.4938
 41.6536  7680.3  86.6994
 41.6956  7860.23  87.6916
 41.7376  7691.67  86.8468
 41.7796  7623.8  86.3853
 41.8216  7779.24  87.4544
 41.8636  7760.17  87.291
 41.9056  7566.45  85.9808
 41.9476  7652.98  86.7087
 41.9896  7721.01  86.7515
 42.0316  7757.08  87.0438
 42.0736  7623.3  86.4282
 42.1156  7657.9  86.4359
 42.1576  7668.92  86.5977
 42.1996  7673.52  86.7622
 42.2416  7642.28  86.1776
 42.2836  7565.48  85.8513
 42.3256  7505.38  85.6235
 42.3676  7613.65  86.0437
 42.4096  7670.07  86.3234
 42.4516  7629.62  86.1841
 42.4936  7575.08  85.9454
 42.5356  7576.73  86.084
 42.5776  7654.61  86.4633
 42.6196  7656.99  86.4547
 42.6616  7459.61  85.574
 42.7036  7671.8  86.1777
 42.7456  7576.74  85.9908
 42.7876  7584.97  86.1405
 42.8296  7559.95  85.8883
 42.8716  7483.57  85.5508
 42.9136  7543.01  85.6435
 42.9556  7637.98  86.3505
 42.9976  7616.5  86.2021
 43.0396  7561.21  85.6191
 43.0816  7516.43  85.7321
 43.1236  7567.43  86.0843
 43.1656  7558.84  85.8693
 43.2076  7478.97  85.5095
 43.2496  7587.03  85.9451
 43.2916  7434.78  85.4379
 43.3336  7538.61  85.8716
 43.3756  7398.3  84.8267
 43.4176  7371.42  84.7563
 43.4596  7443.28  85.0269
 43.5016  7514.2  85.8308
 43.5436  7416.13  85.1697
 43.5856  7501  85.679
 43.6276  7350.2  84.7116
 43.6696  7470.05  85.5443
 43.7116  7451.67  85.0559
 43.7536  7457.3  85.5713
 43.7956  7332.02  86.0036
 43.8376  7445.56  85.2524
 43.8796  7340.62  84.7189
 43.9216  7472.54  85.3974
 43.9636  7477.74  85.5291
 44.0056  7496.67  85.8734
 44.0476  7330.02  84.5466
 44.0896  7417.39  85.3912
 44.1316  7314.88  84.4732
 44.1736  7352.9  84.677
 44.2156  7432.97  84.9967
 44.2576  7427.5  85.2803
 44.2996  7361.52  84.8775
 44.3416  7342.9  84.525
 44.3836  7246.07  84.2944
 44.4256  7378.7  84.6984
 44.4676  7272.01  84.2448
 44.5096  7356.08  84.8714
 44.5516  7222.64  84.0644
 44.5936  7182.81  83.7856
 44.6356  7303.75  84.2316
 44.6776  7274.36  84.3778
 44.7196  7285.56  84.7055
 44.7616  7250.27  85.8381
 44.8036  7194.43  84.1465
 44.8456  7239.48  84.4139
 44.8876  7197.47  84.0183
 44.9296  7415.53  84.7446
 44.9716  7165.09  83.7238
 45.0136  7242.86  84.1063
 45.0556  7245.12  84.2015
 45.0976  7115.24  83.4961
 45.1396  7064.99  82.9648
 45.1816  7237.52  83.7409
 45.2236  7357.1  84.5042
 45.2656  7041.01  83.1564
 45.3076  7240.08  84.1179
 45.3496  7150.08  83.8851
 45.3916  7201.51  84.4462
 45.4336  7127.69  83.857
 45.4756  7149.18  83.8516
 45.5176  7136.12  83.3927
 45.5596  7143.54  83.5577
 45.6016  7027.25  83.2804
 45.6436  7069.65  82.7337
 45.6856  7126.18  83.7076
 45.7276  7127.2  85.5284
 45.7696  7038.72  84.1589
 45.8116  7096.49  83.9657
 45.8536  7048.54  83.5722
 45.8956  7136.95  83.4611
 45.9376  7228.15  83.4643
 45.9796  7185.91  83.8987
 46.0216  7145.68  83.9924
 46.0636  7204.81  83.4953
 46.1056  6990.26  82.2328
 46.1476  7016.69  82.9658
 46.1896  7094.87  83.5743
 46.2316  7252.36  84.363
 46.2736  6906.87  82.5285
 46.3156  7092.48  83.3867
 46.3576  7045.27  83.3063
 46.3996  7049.76  83.4907
 46.4416  7133.76  83.5531
 46.4836  7021.02  83.2542
 46.5256  7117.8  83.7659
 46.5676  7036.41  83.3949
 46.6096  7083.82  83.6063
 46.6516  7062.05  82.5485
 46.6936  7045.05  82.9304
 46.7356  7123.16  83.4849
 46.7776  6916.34  83.0823
 46.8196  6993.91  83.2997
 46.8616  6854.7  82.2592
 46.9036  6907.72  82.2588
 46.9456  6969.02  82.2637
 46.9876  6919.84  82.0588
 47.0296  6914.72  82.6927
 47.0716  6889.71  82.3754
 47.1136  6907.73  82.168
 47.1556  7039.93  82.8243
 47.1976  7000.1  82.7367
 47.2396  6850.02  82.1554
 47.2816  6825.34  81.7278
 47.3236  6875.53  82.3848
 47.3656  6936.18  82.6801
 47.4076  6921.89  82.3256
 47.4496  6929.33  82.535
 47.4916  6826.08  82.1076
 47.5336  6894.2  82.3262
 47.5756  6890.92  82.39
 47.6176  6844.46  82.0524
 47.6596  6861.17  81.8772
 47.7016  6955.75  82.2578
 47.7436  6986.57  82.7666
 47.7856  6942.51  82.5208
 47.8276  6826.59  81.8843
 47.8696  6751.53  81.512
 47.9116  6954.5  82.4504
 47.9536  6862.91  81.851
 47.9956  6803.09  82.185
 48.0376  6745.17  81.6191
 48.0796  6887.4  82.5943
 48.1216  6878.88  82.3743
 48.1636  6964.09  82.4564
 48.2056  6754.96  81.4667
 48.2476  6928.71  82.809
 48.2896  6757.52  81.6976
 48.3316  6833.01  82.0876
 48.3736  6734.25  81.5175
 48.4156  6807.72  81.8222
 48.4576  6739.9  81.6936
 48.4996  6856.12  81.8696
 48.5416  6827.43  82.0029
 48.5836  6707.98  80.9758
 48.6256  6842.27  81.9815
 48.6676  6727.74  81.7938
 48.7096  6740.41  81.1601
 48.7516  6752.94  81.3832
 48.7936  6633.57  80.7219
 48.8356  6721.87  81.3016
 48.8776  6722.62  81.7816
 48.9196  6994.01  82.869
 48.9616  6685.38  81.3957
 49.0036  6686  81.7297
 49.0456  6683.49  81.7047
 49.0876  6681.4  81.3346
 49.1296  6670.52  81.3231
 49.1716  6548.96  80.4695
 49.2136  6681.32  81.2107
 49.2556  6642.22  80.989
 49.2976  6726.95  81.5752
 49.3396  6631.6  81.0522
 49.3816  6607.92  80.3531
 49.4236  6749.69  81.6229
 49.4656  6603.32  80.7508
 49.5076  6681.43  80.9865
 49.5496  6553.33  80.1484
 49.5916  6796.84  81.6494
 49.6336  6641.55  80.915
 49.6756  6691.58  81.442
 49.7176  6653.77  81.1647
 49.7596  6640.88  81.0252
 49.8016  6729.27  81.3154
 49.8436  6580.85  80.7062
 49.8856  6508.48  80.2671
 49.9276  6551.4  80.6284
 49.9696  6598.47  80.9017
 50.0116  6598.28  81.0187
 50.0536  6627.44  81.151
 50.0956  6413.82  79.9026
 50.1376  6512.3  80.2141
 50.1796  6599.05  81.0183
 50.2216  6531.55  80.6002
 50.2636  6591.94  80.5931
 50.3056  6452.88  79.9145
 50.3476  6564.98  80.6237
 50.3896  6500.79  80.1982
 50.4316  6532.44  80.2355
 50.4736  6406.71  79.6698
 50.5156  6486.81  80.1533
 50.5576  6602.59  80.6275
 50.5996  6497.34  80.2583
 50.6416  6468.08  80.0086
 50.6836  6502.72  80.2814
 50.7256  6566.3  80.5995
 50.7676  6578.35  80.938
 50.8096  6510.98  80.1173
 50.8516  6410.57  79.9013
 50.8936  6426.02  79.7838
 50.9356  6595.2  80.934
 50.9776  6482.94  80.3851
 51.0196  6320.51  79.5079
 51.0616  6475.4  79.8211
 51.1036  6472.99  80.1417
 51.1456  6480.73  80.1138
 51.1876  6394.04  78.9379
 51.2296  6377.18  79.445
 51.2716  6317.8  78.7885
 51.3136  6274.26  78.9624
 51.3556  6428.53  79.5556
 51.3976  6299.61  78.9046
 51.4396  6223.84  78.7213
 51.4816  6316.66  79.1614
 51.5236  6381.53  79.6438
 51.5656  6381.26  79.2646
 51.6076  6449.15  79.77
 51.6496  6305.62  79.0507
 51.6916  6364.34  79.7744
 51.7336  6334.04  79.6674
 51.7756  6314.35  79.2554
 51.8176  6351.09  79.572
 51.8596  6308.81  79.3369
 51.9016  6531.57  80.3372
 51.9436  6369.39  80.7589
 51.9856  6297.33  80.7181
 52.0276  6286.5  79.1872
 52.0696  6216.23  78.8088
 52.1116  6341.13  79.7089
 52.1536  6330.23  79.4842
 52.1956  6387.03  79.3702
 52.2376  6291.26  78.9333
 52.2796  6329  78.9881
 52.3216  6233.21  79.0586
 52.3636  6239.39  78.6878
 52.4056  6233.52  78.5057
 52.4476  6314.62  79.3797
 52.4896  6291.82  79.286
 52.5316  6245.7  79.0347
 52.5736  6222.74  78.624
 52.6156  6225.04  78.996
 52.6576  6307.92  78.9914
 52.6996  6181.37  79.1408
 52.7416  6297.98  79.731
 52.7836  6222.46  79.1367
 52.8256  6263.13  78.6485
 52.8676  6054.73  77.8787
 52.9096  6246.83  79.1882
 52.9516  6211.11  79.3328
 52.9936  6194.25  79.6041
 53.0356  6116.31  78.1389
 53.0776  6086.27  78.2128
 53.1196  6068.17  78.2056
 53.1616  6109.2  78.5143
 53.2036  6078.08  78.2682
 53.2456  6077.05  78.3654
 53.2876  5988.46  77.5054
 53.3296  6080.77  78.4184
 53.3716  6125.6  78.4563
 53.4136  6203.63  79.1054
 53.4556  6053.29  78.1685
 53.4976  5944.57  77.3181
 53.5396  6097.39  78.6929
 53.5816  6072.26  78.1656
 53.6236  5990.67  77.9667
 53.6656  6148.06  78.6297
 53.7076  6136.44  78.5151
 53.7496  6006.08  77.7868
 53.7916  6092.56  78.4744
 53.8336  5939.94  77.3819
 53.8756  5933.18  77.8719
 53.9176  6109.59  78.3899
 53.9596  6091.71  79.0091
 54.0016  6084.23  78.3155
 54.0436  6065.67  78.399
 54.0856  6115.71  78.1653
 54.1276  6047.14  77.9159
 54.1696  6119  78.5504
 54.2116  6008.22  77.5893
 54.2536  6058.36  77.7426
 54.2956  6145.56  78.3453
 54.3376  6161.17  78.9194
 54.3796  6064.24  78.2028
 54.4216  6077.49  78.3334
 54.4636  6036.78  78.0282
 54.5056  6070.27  78.0645
 54.5476  5960.23  77.6807
 54.5896  6101.37  78.4168
 54.6316  6110  78.3481
 54.6736  6001.76  77.6718
 54.7156  6067.47  78.1655
 54.7576  5978.7  77.59
 54.7996  6057.22  78.2462
 54.8416  6057.37  78.2822
 54.8836  5934.1  77.5881
 54.9256  5955.43  77.4829
 54.9676  6057.63  78.0105
 55.0096  5969.94  77.5094
 55.0516  6073.45  78.3475
 55.0936  6002.32  77.5809
 55.1356  5956.39  77.3336
 55.1776  5957.83  77.5942
 55.2196  6017.39  77.7748
 55.2616  6044.94  78.1553
 55.3036  5873.26  77.1988
 55.3456  6010.03  78.2355
 55.3876  5929.47  77.4628
 55.4296  6016.57  78.0079
 55.4716  5920.83  77.416
 55.5136  6075.73  78.1878
 55.5556  5962.27  77.5181
 55.5976  5939.25  77.4269
 55.6396  6084.12  78.2326
 55.6816  5926.66  77.1722
 55.7236  6049.06  78.105
 55.7656  6015.15  77.5506
 55.8076  6068.15  77.8739
 55.8496  5988.53  77.7823
 55.8916  5876.8  77.1138
 55.9336  5960.8  77.5118
 55.9756  5927.81  77.1958
 56.0176  5974.56  77.6488
 56.0596  5946.95  77.4548
 56.1016  6025.41  77.9995
 56.1436  5966.28  77.8365
 56.1856  5986.69  77.7268
 56.2276  5929.42  77.4027
 56.2696  5985.38  77.7443
 56.3116  5941.12  77.8498
 56.3536  5938.25  77.4979
 56.3956  5946.24  77.5414
 56.4376  5802.97  76.6327
 56.4796  5990.08  77.6611
 56.5216  5980.11  77.9649
 56.5636  6016  77.7972
 56.6056  5871.48  77.0791
 56.6476  5959.6  77.2953
 56.6896  5934.27  77.5644
 56.7316  5925.04  77.4195
 56.7736  6042.21  78.1758
 56.8156  6005.33  77.9408
 56.8576  5929.77  77.3904
 56.8996  5945.63  77.4328
 56.9416  5964.96  77.7149
 56.9836  5855.41  76.6566
 57.0256  5954.94  77.621
 57.0676  5861.56  77.1305
 57.1096  5897.85  77.1639
 57.1516  5997.25  77.8395
 57.1936  5868.23  76.7867
 57.2356  5943.26  77.5933
 57.2776  5880.23  77.1342
 57.3196  5972.2  78.0989
 57.3616  5916.88  77.2395
 57.4036  5874.29  77.0174
 57.4456  5908.94  77.2113
 57.4876  5935.77  77.2519
 57.5296  5913.24  77.3409
 57.5716  5902.69  77.3549
 57.6136  5911.59  77.2327
 57.6556  5952.79  77.6394
 57.6976  5910.32  77.199
 57.7396  5852.93  77.1831
 57.7816  5747.47  76.8329
 57.8236  5835.87  77.2205
 57.8656  5799.26  76.6454
 57.9076  5849.95  77.0125
 57.9496  5755.9  76.7218
 57.9916  5878.72  77.0156
 58.0336  5881.86  77.3518
 58.0756  5932.82  77.2804
 58.1176  5851.81  76.7896
 58.1596  5830.1  77.2132
 58.2016  5916.3  77.0324
 58.2436  5912.9  77.4015
 58.2856  5917.62  77.349
 58.3276  5850.11  77.275
 58.3696  5861.06  77.1062
 58.4116  5899.07  77.2205
 58.4536  5939.66  77.3738
 58.4956  5776.82  76.4807
 58.5376  6001.95  77.5307
 58.5796  5887.38  77.1997
 58.6216  5872.7  76.9239
 58.6636  5868.31  77.1056
 58.7056  5908.04  77.227
 58.7476  5775.07  76.788
 58.7896  5858.87  76.9933
 58.8316  5960.53  77.6571
 58.8736  5932.42  77.4791
 58.9156  5863.04  77.0726
 58.9576  6000.2  78.1736
 58.9996  5999.81  77.529
 59.0416  5998.35  77.8816
 59.0836  5896.83  77.1456
 59.1256  5827.79  77.0753
 59.1676  5795.02  77.4611
 59.2096  6013.76  78.2097
 59.2516  6122.26  78.4903
 59.2936  5948.93  77.6968
 59.3356  5993.24  77.8639
 59.3776  5856.25  77.1352
 59.4196  5827.31  76.882
 59.4616  5983.79  77.7675
 59.5036  5836.09  76.8366
 59.5456  6059.41  77.9857
 59.5876  6133.83  78.6557
 59.6296  5812.36  76.6347
 59.6716  5884.74  77.1676
 59.7136  6001.11  77.9152
 59.7556  5847.3  77.0445
 59.7976  5974.2  77.6196
 59.8396  5894.03  76.9926
 59.8816  5999.66  78.2214
 59.9236  6039.59  78.1266
 59.9656  5855.61  77.182
 60.0076  6145.02  78.4202
 60.0496  5945.23  77.6338
 60.0916  5876.17  76.6086
 60.1336  5868.77  77.6518
 60.1756  5745.32  77.9857
 60.1996  0.0000000E+00  0.0000000E+00