File: docs/examples/opeando_xrd/IS17_D/Data/IS17_D/17_Da_f00139.xye
# /beamlines/bl04/projects/cycle2025-II/20250340211-lsimonelli/DATA/IS17_D/17_Da_f00139.xye : mythproc.py merge -s 0.006 -l 0.5 -f /beamlines/bl04/inhouse/ff/FlatField/ff_20Nov2024rod8mm60s_17keV.raw -b True -c true -o xye /beamlines/bl04/projects/cycle2025-II/20250340211-lsimonelli/DATA/IS17_D/17_Da_00139.dat
# IsMon = [6791507, 6787351, 6789875]  IsPos = [-1.4999, -2.4883, -3.4989]
# Wave = 0.4962  CalPath /beamlines/bl04/projects/cycle2025-II/20250340211-lsimonelli/DATA/Align/Si_Pos1_25keV_f00001.cal
# Date = 2025-09-25_08:19:30 Dt = 4.8000  Bin = 0.0060  <imon> = 6789578 +/- 1710 (Min/Max) 6787351 / 6791507
# icurr 252.7490  mocoIn 1.7243E-05  mocoOut 0.8090  i15 7.10481e+06  imon 6.78958e+06  i7 6.0000  iEMpd_timer 4.8000  iEMpd_1 3.6516E-08  iEMpd_2 7.8283E-08  iEMpd_3 1.7641E-08  iEMpd_4 4.7698E-08  iEMhp_timer 4.8000  iEMhp_1 4.9373E-06  iEMhp_2 -2.5376E-08  iEMhp_3 -2.3713E-08  iEMhp_4 -2.0489E-08
#      9776
 1.5856  40808.7  207.404
 1.6276  48007.7  221.095
 1.6696  54382.8  234.488
 1.7116  63029.5  252.936
 1.7536  72122.4  269.414
 1.7956  76783.5  278.678
 1.8376  73402.9  272.906
 1.8796  61446.7  247.851
 1.9216  49632.8  223.646
 1.9636  41752.3  204.284
 2.0056  37100.2  191.82
 2.0476  34618.8  187.326
 2.0896  33660.7  183.632
 2.1316  32382  179.245
 2.1736  30971  176.687
 2.2156  31376.4  176.412
 2.2576  30205.7  173.708
 2.2996  28796  170.231
 2.3416  29601.1  171.216
 2.3836  28762.5  168.878
 2.4256  27695.8  166.257
 2.4676  27570.6  165.645
 2.5096  27496.3  165.476
 2.5516  29328.5  174.898
 2.5936  66964.1  258.739
 2.6356  27546.8  166.77
 2.6776  26114.7  161.278
 2.7196  25777.7  160.354
 2.7616  25595.9  159.956
 2.8036  25017.5  158.307
 2.8456  25257.2  159.672
 2.8876  24684.4  157.739
 2.9296  24209.4  156.331
 2.9716  23990.3  155.122
 3.0136  23728.6  154.338
 3.0556  23901.3  155.293
 3.0976  23822.8  153.975
 3.1396  23618.7  154.035
 3.1816  23387.2  152.913
 3.2236  23336.8  153.039
 3.2656  23357.1  152.161
 3.3076  23013.1  152.462
 3.3496  23381.6  152.637
 3.3916  23814.3  153.859
 3.4336  24383.6  156.261
 3.4756  24377.3  156.15
 3.5176  25286.2  158.858
 3.5596  25335.4  161.432
 3.6016  25635.9  160.002
 3.6436  24541.6  157.646
 3.6856  24047.5  154.358
 3.7276  23302.4  153.04
 3.7696  23190.2  152.85
 3.8116  22741.1  151.256
 3.8536  22718.2  151.106
 3.8956  22693.7  150.859
 3.9376  23280  153.045
 3.9796  22512.2  150.02
 4.0216  22729.3  149.791
 4.0636  22707.6  151.18
 4.1056  22764.1  151.013
 4.1476  22711.2  151.137
 4.1896  22933.8  151.743
 4.2316  23325.3  152.857
 4.2736  23676.4  153.793
 4.3156  23921.8  154.813
 4.3576  24556.1  156.787
 4.3996  24915.1  158.189
 4.4416  25527.2  159.7
 4.4836  26375.9  162.495
 4.5256  26513.8  163.513
 4.5676  26395.3  163.412
 4.6096  26696.3  162.992
 4.6516  27413.2  164.887
 4.6936  27474.6  165.88
 4.7356  27833  166.791
 4.7776  27665.7  166.126
 4.8196  27154.5  165.215
 4.8616  26899  163.937
 4.9036  26583  162.698
 4.9456  26649  163.56
 4.9876  25904.7  161.162
 5.0296  25934.6  161.075
 5.0716  26016  162.098
 5.1136  25990.4  161.732
 5.1556  26510  162.807
 5.1976  29908  172.894
 5.2396  27179.3  164.539
 5.2816  26802  163.84
 5.3236  27048.1  164.306
 5.3656  26453.2  163.407
 5.4076  26361.6  163.274
 5.4496  26449.2  163.036
 5.4916  26592.6  163.229
 5.5336  26521.8  163.105
 5.5756  26197  162.041
 5.6176  26685.5  162.984
 5.6596  26822.6  164.371
 5.7016  26928.6  163.97
 5.7436  27204.3  164.697
 5.7856  27060.4  164.705
 5.8276  27604  166.074
 5.8696  27561.2  166.112
 5.9116  27639.8  166.66
 5.9536  27748.7  167.026
 5.9956  28093.3  167.437
 6.0376  28299.3  168.686
 6.0796  28455.9  168.982
 6.1216  28541  169.487
 6.1636  28734.5  169.07
 6.2056  28658.5  169.52
 6.2476  28803.4  169.812
 6.2896  29154.8  170.528
 6.3316  28963.6  170.133
 6.3736  28936.8  169.958
 6.4156  29089.1  170.288
 6.4576  29383.9  170.766
 6.4996  29547.2  171.727
 6.5416  29219  170.901
 6.5836  29851.3  172.829
 6.6256  29483.3  171.464
 6.6676  30085.7  172.772
 6.7096  29792  172.773
 6.7516  30400.7  174.191
 6.7936  30997.1  175.304
 6.8356  31231.5  176.051
 6.8776  31375.2  177.274
 6.9196  30965.6  176.509
 6.9616  31464.5  177.373
 7.0036  32058.6  178.684
 7.0456  32034  177.902
 7.0876  31857.7  179.11
 7.1296  31984  178.598
 7.1716  31643.7  177.176
 7.2136  31354.9  176.155
 7.2556  31762.1  177.457
 7.2976  31694.9  177.768
 7.3396  31817.2  178.332
 7.3816  31809.3  178.514
 7.4236  32024.7  178.409
 7.4656  32436.6  179.039
 7.5076  32524.7  179.412
 7.5496  32398.6  179.605
 7.5916  32493  179.9
 7.6336  33000.6  181.273
 7.6756  33144  181.436
 7.7176  33309.1  182.199
 7.7596  33384  183.658
 7.8016  35864.4  192.609
 7.8436  34229.1  184.99
 7.8856  34338.1  184.747
 7.9276  35128  187.252
 7.9696  35241.1  187.872
 8.0116  36457.8  189.608
 8.0536  36452.1  189.851
 8.0956  37802.9  194.545
 8.1376  36893  191.656
 8.1796  37263.8  193.174
 8.2216  38158  193.9
 8.2636  38878  196.301
 8.3056  38165.7  195.237
 8.3476  39741.4  198.543
 8.3896  38866.7  196.425
 8.4316  38584.3  195.878
 8.4736  38499.6  195.12
 8.5156  38298.8  194.892
 8.5576  37788.8  195.202
 8.5996  38139.4  194.327
 8.6416  37900.4  195.001
 8.6836  37829.9  194.638
 8.7256  38599.1  196.046
 8.7676  39379.3  200.983
 8.8096  39034  197.316
 8.8516  37560.5  193.177
 8.8936  38484.3  195.421
 8.9356  37090.9  192.198
 8.9776  37406.2  193.119
 9.0196  37022.8  191.792
 9.0616  37451.6  192.442
 9.1036  38309.8  195.789
 9.1456  37221.4  192.335
 9.1876  36601.3  190.67
 9.2296  37021.5  191.163
 9.2716  36301.9  189.35
 9.3136  36258.9  189.219
 9.3556  36409.2  189.597
 9.3976  34881.1  186.1
 9.4396  35570.3  187.828
 9.4816  34870.7  185.829
 9.5236  35104.8  186.367
 9.5656  34926  186.217
 9.6076  34602.9  185.891
 9.6496  34367.9  185.18
 9.6916  34656.1  185.933
 9.7336  34588.4  185.52
 9.7756  34829.4  187.457
 9.8176  33434.7  183.163
 9.8596  33788  182.559
 9.9016  33162.6  180.856
 9.9436  33150.1  180.732
 9.9856  32963.9  180.455
 10.0276  32120.6  179.221
 10.0696  32658  179.763
 10.1116  31702.9  177.376
 10.1536  31635.8  177.359
 10.1956  31237.1  175.833
 10.2376  30614.5  173.565
 10.2796  30830.3  174.315
 10.3216  30533.5  173.744
 10.3636  30382.4  173.346
 10.4056  32393.1  179.409
 10.4476  32370.2  178.948
 10.4896  34594.9  184.564
 10.5316  32530.4  179.562
 10.5736  30194.9  173.425
 10.6156  29651.4  171.601
 10.6576  33485  180.825
 10.6996  29686.9  170.937
 10.7416  29131.9  169.573
 10.7836  29691.4  171.911
 10.8256  28666.1  169.352
 10.8676  28724.6  169.057
 10.9096  28205.4  167.548
 10.9516  28050.2  166.005
 10.9936  28461.1  167.414
 11.0356  28159.5  167.179
 11.0776  29108  169.258
 11.1196  28337.6  167.759
 11.1616  27386.4  164.624
 11.2036  28000.2  166.298
 11.2456  29181.1  170.517
 11.2876  27245  164.472
 11.3296  27318.3  164.603
 11.3716  27576.3  165.06
 11.4136  27440.5  165.572
 11.4556  27789.4  166.282
 11.4976  28651.8  167.766
 11.5396  28545.6  167.642
 11.5816  27187.9  164.061
 11.6236  26571.6  162.423
 11.6656  26587.5  161.606
 11.7076  26050.6  160.818
 11.7496  26213.2  164.479
 11.7916  26160.6  160.407
 11.8336  25682.3  159.83
 11.8756  25713.5  159.456
 11.9176  25594.8  158.742
 11.9596  25070.8  157.286
 12.0016  25191.6  158.197
 12.0436  24958  157.152
 12.0856  24661.4  156.749
 12.1276  24877.4  157.238
 12.1696  24810  156.267
 12.2116  25257.9  157.669
 12.2536  26081.2  161.073
 12.2956  24842.4  156.415
 12.3376  24723.4  156.353
 12.3796  24753.4  156.925
 12.4216  24692.9  155.945
 12.4636  24994.7  157.828
 12.5056  24523.7  155.671
 12.5476  24737.7  155.8
 12.5896  24522.2  155.761
 12.6316  24229.2  154.97
 12.6736  24341.7  156.021
 12.7156  24330.3  155.648
 12.7576  24405  156.132
 12.7996  24564.3  155.278
 12.8416  24636.2  156.569
 12.8836  25125.5  157.852
 12.9256  25070.7  156.775
 12.9676  25184  157.563
 13.0096  24816.5  157.505
 13.0516  25057.4  157.297
 13.0936  24778.4  156.82
 13.1356  25310  157.469
 13.1776  24949.1  157.333
 13.2196  24997.7  157.145
 13.2616  25117.3  157.843
 13.3036  24924.4  157.197
 13.3456  24969.5  157.892
 13.3876  25040  157.198
 13.4296  24926.6  157.004
 13.4716  25270.1  157.681
 13.5136  25017.9  157.052
 13.5556  25310.9  158.219
 13.5976  24995.4  157.742
 13.6396  25412.3  158.421
 13.6816  24980.1  157.558
 13.7236  25711  159.483
 13.7656  25154.8  158.286
 13.8076  25630.2  158.534
 13.8496  24876.4  156.788
 13.8916  24621.9  156.998
 13.9336  24667.9  156.374
 13.9756  24563.3  155.387
 14.0176  24306.7  155.158
 14.0596  24938  157.221
 14.1016  24074.2  154.873
 14.1436  23757.7  152.974
 14.1856  23747  153.244
 14.2276  23649.5  153.365
 14.2696  23905.3  154.086
 14.3116  23529.9  152.774
 14.3536  22860.8  150.759
 14.3956  23172.1  151.515
 14.4376  23163.6  151.255
 14.4796  22959.9  150.583
 14.5216  22696.7  150.518
 14.5636  22646.1  149.905
 14.6056  22706.5  149.68
 14.6476  22503.3  148.241
 14.6896  22191.2  147.758
 14.7316  21955.9  148.01
 14.7736  21549.9  145.781
 14.8156  21446.9  145.456
 14.8576  21506.7  145.514
 14.8996  21200.8  145.691
 14.9416  20720.1  144.03
 14.9836  20951.7  144.794
 15.0256  20899.8  143.538
 15.0676  20821.1  143.651
 15.1096  20381.2  141.8
 15.1516  20023.8  141.114
 15.1936  20179.4  141.081
 15.2356  19954.9  140.456
 15.2776  19890.1  140.352
 15.3196  19538.2  139.696
 15.3616  19471  139.203
 15.4036  19485.7  139.116
 15.4456  19639.3  139.311
 15.4876  19392.4  138.108
 15.5296  19039.5  137.133
 15.5716  18819.6  135.932
 15.6136  18825.4  136.292
 15.6556  19579.8  138.588
 15.6976  18815.7  135.785
 15.7396  18720.2  135.832
 15.7816  18511.2  134.577
 15.8236  18379.3  134.751
 15.8656  18430.5  134.78
 15.9076  18145.6  133.559
 15.9496  18206.8  136.591
 15.9916  17953.6  136.096
 16.0336  17482.9  131.172
 16.0756  17687.9  132.254
 16.1176  17371.7  131.139
 16.1596  17352.7  132.252
 16.2016  17276.4  130.709
 16.2436  17030.4  130.149
 16.2856  17256.2  130.554
 16.3276  16988.6  129.954
 16.3696  17059.7  130.047
 16.4116  16703.2  129.143
 16.4536  16947.7  129.864
 16.4956  17127.1  130.277
 16.5376  16880.3  129.534
 16.5796  16708.1  128.226
 16.6216  16711.2  128.542
 16.6636  16735.5  128.79
 16.7056  16912.6  129.337
 16.7476  16904.8  128.832
 16.7896  16549.1  128.219
 16.8316  16630.8  128.507
 16.8736  16784  129.349
 16.9156  16723.6  129.461
 16.9576  16418.2  129.09
 16.9996  16494.7  129.886
 17.0416  16607.8  128.661
 17.0836  16481.4  127.932
 17.1256  16171  126.733
 17.1676  16647.6  128.574
 17.2096  16276.6  127.012
 17.2516  15987.8  125.662
 17.2936  15965.7  125.9
 17.3356  15573.7  124.347
 17.3776  15659.6  124.883
 17.4196  15615.2  124.406
 17.4616  15774.7  124.952
 17.5036  15821  125.511
 17.5456  15353  124.278
 17.5876  15404.5  123.528
 17.6296  15451.9  123.53
 17.6716  15435.2  124.048
 17.7136  15874.3  125.939
 17.7556  15272.9  123.83
 17.7976  15364.2  123.94
 17.8396  15270.5  123.052
 17.8816  15130.2  123.043
 17.9236  14900.7  121.908
 17.9656  15253.8  123.895
 18.0076  15650.5  125.055
 18.0496  15776.4  124.666
 18.0916  17434.8  131.539
 18.1336  16648.1  128.737
 18.1756  15747.1  124.725
 18.2176  15652.2  124.575
 18.2596  15022.2  121.782
 18.3016  15543.6  124.135
 18.3436  15556.6  124.195
 18.3856  15171.4  122.977
 18.4276  15120.6  122.235
 18.4696  15153  122.47
 18.5116  15156.7  122.786
 18.5536  15055.1  122.738
 18.5956  14800.8  121.244
 18.6376  14979.7  122.389
 18.6796  14927.4  121.481
 18.7216  14898.7  121.866
 18.7636  14758  121.266
 18.8056  14486.3  120.095
 18.8476  14398  120.354
 18.8896  14444.1  119.879
 18.9316  14695.3  120.903
 18.9736  14450.6  119.583
 19.0156  14745.5  121.212
 19.0576  14627.1  119.564
 19.0996  14723.3  120.831
 19.1416  14382.7  119.671
 19.1836  14424.7  119.454
 19.2256  14430.3  119.782
 19.2676  14298.6  119.235
 19.3096  14458.8  120.159
 19.3516  14216.8  119.101
 19.3936  14431.9  119.903
 19.4356  14390.3  119.586
 19.4776  14380.7  119.653
 19.5196  14454.5  119.803
 19.5616  14304.1  119.439
 19.6036  14289.4  118.871
 19.6456  14224.4  118.726
 19.6876  14630.5  120.05
 19.7296  14409.2  119.589
 19.7716  14236  119.044
 19.8136  14571.5  120.637
 19.8556  14913.7  121.511
 19.8976  14854.1  121.342
 19.9396  14910.2  121.138
 19.9816  15063.6  122.078
 20.0236  15138.6  122.531
 20.0656  14670.1  120.622
 20.1076  14247.8  119.329
 20.1496  14181.9  119.061
 20.1916  14069.8  118.098
 20.2336  14006.9  117.779
 20.2756  13819.9  117.416
 20.3176  13681.8  116.572
 20.3596  13828.8  117.176
 20.4016  13861.9  117.12
 20.4436  13793.1  117.296
 20.4856  13617.1  116.423
 20.5276  13660.4  117.077
 20.5696  13651.7  116.486
 20.6116  13532.9  116.262
 20.6536  13693.1  116.414
 20.6956  13501.6  115.758
 20.7376  13473.9  115.876
 20.7796  13500.4  115.675
 20.8216  13704.3  116.241
 20.8636  13528  115.857
 20.9056  14036.5  117.975
 20.9476  13365.1  114.952
 20.9896  13973.2  117.406
 21.0316  13669.3  116.023
 21.0736  13491.5  115.785
 21.1156  13722.8  116.941
 21.1576  13560.4  116.289
 21.1996  13351.4  115.372
 21.2416  13326.4  115.089
 21.2836  13491.2  115.766
 21.3256  13315.9  115.139
 21.3676  13520.3  115.517
 21.4096  13403.4  115.332
 21.4516  13176.4  114.229
 21.4936  13063.2  113.998
 21.5356  13237.9  114.693
 21.5776  13189.1  114.311
 21.6196  13254.6  114.63
 21.6616  13247.1  114.686
 21.7036  13033.9  113.541
 21.7456  13151.8  114.13
 21.7876  12959.5  113.042
 21.8296  12901.8  112.646
 21.8716  12856.8  112.683
 21.9136  13276.4  114.711
 21.9556  13203.3  114.056
 21.9976  12968  113.053
 22.0396  13005.4  113.477
 22.0816  13037.9  114.166
 22.1236  13264.3  114.593
 22.1656  13049  114.149
 22.2076  13089.2  113.439
 22.2496  12963.3  112.921
 22.2916  13259.5  114.083
 22.3336  13118.1  114.214
 22.3756  13005.5  113.435
 22.4176  12834.6  112.544
 22.4596  12793.4  112.953
 22.5016  12855.5  112.711
 22.5436  13164.7  114.064
 22.5856  13019.8  113.568
 22.6276  12886.1  113.158
 22.6696  12999.4  113.972
 22.7116  12815.5  112.677
 22.7536  12829.4  112.71
 22.7956  13029  112.91
 22.8376  12788.2  112.378
 22.8796  12816.8  112.305
 22.9216  12896.8  113.208
 22.9636  12807  111.959
 23.0056  12906.8  112.532
 23.0476  13046.7  113.717
 23.0896  13150.1  113.535
 23.1316  13216.6  114.263
 23.1736  12784.1  115.137
 23.2156  12956.2  113.45
 23.2576  12829.9  113.016
 23.2996  12796.6  112.668
 23.3416  12772.4  113.075
 23.3836  12688.9  111.939
 23.4256  12836  112.703
 23.4676  12901.9  112.685
 23.5096  12738.8  112.653
 23.5516  12746.8  111.959
 23.5936  12915.2  113.621
 23.6356  13021.6  113.739
 23.6776  12976.7  113.767
 23.7196  12621.2  111.769
 23.7616  12848.7  112.696
 23.8036  12778.5  112.416
 23.8456  12875.1  112.259
 23.8876  12537.2  111.273
 23.9296  12599.4  112.052
 23.9716  12506.4  110.829
 24.0136  12815.7  113.105
 24.0556  12488.9  111.386
 24.0976  12353.8  110.582
 24.1396  12421.8  113.573
 24.1816  12407.6  111.914
 24.2236  12338.7  111.214
 24.2656  12195.8  110.038
 24.3076  12260.9  110.578
 24.3496  12425.2  111.217
 24.3916  12337  110.862
 24.4336  12196.7  110.445
 24.4756  12202  110.341
 24.5176  12103.1  109.534
 24.5596  12023.3  109.302
 24.6016  11832.8  108.717
 24.6436  12062.9  109.239
 24.6856  11924.2  108.384
 24.7276  11958.1  108.867
 24.7696  11907.9  108.744
 24.8116  11816.7  108.516
 24.8536  11703.7  107.986
 24.8956  11858.2  108.43
 24.9376  11671.2  107.51
 24.9796  11693  107.966
 25.0216  11434.7  106.873
 25.0636  11560  107.111
 25.1056  11470.2  107.409
 25.1476  11575  109.588
 25.1896  11531.8  107.843
 25.2316  11560.9  107.235
 25.2736  11554.4  106.861
 25.3156  11432.3  106.362
 25.3576  11410.8  106.689
 25.3996  11354.3  106.406
 25.4416  11542.6  107.274
 25.4836  11416  107.214
 25.5256  11291.7  105.986
 25.5676  11499.6  106.685
 25.6096  11277.7  106.23
 25.6516  11364.7  106.133
 25.6936  11121.9  105.3
 25.7356  11248.5  106.041
 25.7776  11397.4  106.333
 25.8196  11170.3  105.509
 25.8616  11262.3  105.861
 25.9036  11400.1  105.97
 25.9456  11202.6  105.654
 25.9876  11134.9  105.395
 26.0296  11234.4  105.372
 26.0716  11237.4  105.804
 26.1136  11336  106.219
 26.1556  11451.2  106.122
 26.1976  11241.2  106.081
 26.2396  11181.4  104.942
 26.2816  11226.8  105.785
 26.3236  11194.5  105.793
 26.3656  11150.3  105.296
 26.4076  11117.7  105.336
 26.4496  11755.3  107.79
 26.4916  11286.5  105.637
 26.5336  11116.7  105.255
 26.5756  11709.6  107.754
 26.6176  11146.5  105.198
 26.6596  11004.3  104.862
 26.7016  10946  104.345
 26.7436  10863.7  104.074
 26.7856  10777.3  103.648
 26.8276  10829.7  103.847
 26.8696  10913.8  104.133
 26.9116  10922.9  104.114
 26.9536  10751.2  103.338
 26.9956  10751.8  103.377
 27.0376  10690.8  103.292
 27.0796  10730.5  103.226
 27.1216  10796.1  103.603
 27.1636  10599  102.827
 27.2056  10677.7  103.089
 27.2476  10626.1  102.835
 27.2896  10749.5  103.575
 27.3316  10626.6  102.667
 27.3736  10602.8  102.821
 27.4156  10589.7  102.589
 27.4576  10638.1  103.064
 27.4996  10583.9  102.386
 27.5416  10589.6  102.74
 27.5836  10565.8  102.442
 27.6256  10932.9  104.365
 27.6676  10768.5  103.605
 27.7096  10607.6  102.691
 27.7516  10847.4  103.912
 27.7936  10708.7  103.506
 27.8356  10607  102.629
 27.8776  10476  102.035
 27.9196  10428.2  101.653
 27.9616  10573.6  102.57
 28.0036  10517.7  102.247
 28.0456  10370.3  101.67
 28.0876  10274.1  101.291
 28.1296  10409.6  101.735
 28.1716  10312.7  101.327
 28.2136  10256.5  101.016
 28.2556  10239.4  101.042
 28.2976  10267.6  101.177
 28.3396  10369.7  101.44
 28.3816  10288.2  101.059
 28.4236  10409.5  101.814
 28.4656  10149.7  100.567
 28.5076  10170.6  100.309
 28.5496  10107.3  100.254
 28.5916  10298.7  101.002
 28.6336  10122.8  100.477
 28.6756  10270.3  100.4
 28.7176  10047.3  99.7355
 28.7596  9989.12  99.4634
 28.8016  10057.9  99.8467
 28.8436  9906.81  99.3308
 28.8856  10141.4  100.399
 28.9276  9987.82  99.8303
 28.9696  9945  99.2761
 29.0116  10093.3  100.195
 29.0536  9956.77  99.7234
 29.0956  9981.12  99.5532
 29.1376  9931.67  99.2724
 29.1796  9823.86  98.7784
 29.2216  9940.49  99.2047
 29.2636  9883.35  98.9961
 29.3056  9956.63  99.1507
 29.3476  9817.24  98.9772
 29.3896  10074  100.347
 29.4316  10025.4  99.4601
 29.4736  9964.43  99.2162
 29.5156  10009.6  99.3633
 29.5576  10000.5  100.077
 29.5996  9824.54  98.4413
 29.6416  9786.59  98.3709
 29.6836  10099.5  99.8507
 29.7256  9898.43  99.1927
 29.7676  9945.35  99.3145
 29.8096  9689.43  97.9785
 29.8516  9748.95  98.6063
 29.8936  9836.51  99.1513
 29.9356  9731.09  98.3716
 29.9776  9745.37  98.5978
 30.0196  9738.41  98.2165
 30.0616  9886.19  99.0658
 30.1036  9665.41  97.7813
 30.1456  9658.1  97.9729
 30.1876  9679.98  98.0658
 30.2296  9777.13  98.4948
 30.2716  9731.48  97.9063
 30.3136  9738.12  98.8083
 30.3556  9728.51  98.7627
 30.3976  9675.58  100.043
 30.4396  9808.96  98.0029
 30.4816  9750.5  97.2978
 30.5236  9731.47  97.227
 30.5656  9697.66  97.7222
 30.6076  9715.53  97.2419
 30.6496  9729.57  97.6962
 30.6916  9680.85  97.5486
 30.7336  9514.4  96.8526
 30.7756  9628.94  97.5263
 30.8176  9484.83  96.7118
 30.8596  9653.78  97.3372
 30.9016  9614.17  97.4826
 30.9436  9549.1  96.9015
 30.9856  9581.16  97.172
 31.0276  9528.47  96.5035
 31.0696  9491.24  96.9041
 31.1116  9449.52  96.6665
 31.1536  9706.03  97.852
 31.1956  9520.79  97.0012
 31.2376  9417.75  96.4859
 31.2796  9393.23  95.8931
 31.3216  9545.9  96.6145
 31.3636  9456.75  96.8617
 31.4056  9393.36  97.8661
 31.4476  9412.48  95.8331
 31.4896  9446.05  96.5161
 31.5316  9519.61  96.2919
 31.5736  9789.97  97.44
 31.6156  9772.89  97.3941
 31.6576  9565.19  96.4354
 31.6996  9552.18  96.0512
 31.7416  9345.18  96.0675
 31.7836  9376.96  95.2456
 31.8256  9308.76  95.1621
 31.8676  9596.06  96.6251
 31.9096  9332.32  95.643
 31.9516  9228.83  95.2763
 31.9936  9309.18  95.5192
 32.0356  9440.66  96.2539
 32.0776  9401.14  95.9341
 32.1196  9407.76  96.0516
 32.1616  9189.98  94.4002
 32.2036  9181.77  94.8639
 32.2456  9122.26  94.9397
 32.2876  9233.29  95.0123
 32.3296  9263.98  95.1335
 32.3716  9286.59  95.3604
 32.4136  9328.39  95.7846
 32.4556  9375.32  95.3986
 32.4976  9317.65  95.0081
 32.5396  9273.18  94.8555
 32.5816  9167.81  94.4287
 32.6236  9201.13  94.6765
 32.6656  9428.39  96.3893
 32.7076  9218.09  94.9551
 32.7496  9203.73  94.5515
 32.7916  9231.82  94.6506
 32.8336  9294.82  95.0806
 32.8756  9207.68  94.3451
 32.9176  9146.11  94.5132
 32.9596  9165.02  94.6899
 33.0016  9165.99  94.4904
 33.0436  9270.88  94.9282
 33.0856  9106.88  94.4173
 33.1276  9028.67  93.7547
 33.1696  9044.34  93.6754
 33.2116  9221  94.8221
 33.2536  9134.17  94.3664
 33.2956  9193.72  94.7634
 33.3376  9032.29  93.6618
 33.3796  9217.12  94.8261
 33.4216  9169.37  94.1779
 33.4636  9184.31  94.4032
 33.5056  8972.61  93.5515
 33.5476  8934.5  93.3354
 33.5896  9172.64  94.3484
 33.6316  8935.04  93.4315
 33.6736  8802.67  92.9786
 33.7156  8989.66  93.7282
 33.7576  9017.08  93.7768
 33.7996  9123.52  94.0948
 33.8416  8872.96  92.964
 33.8836  8943.2  93.2628
 33.9256  8989.36  93.4134
 33.9676  9021.15  93.4734
 34.0096  8828.66  92.7929
 34.0516  8889.43  92.7472
 34.0936  8864.81  92.7872
 34.1356  8963.63  93.1427
 34.1776  8849.05  92.5621
 34.2196  8761.31  92.2755
 34.2616  8870.96  92.9923
 34.3036  8753.17  92.6155
 34.3456  8854.99  92.9069
 34.3876  8789.82  92.5284
 34.4296  8891.83  92.7538
 34.4716  8891.78  92.8482
 34.5136  8811.04  92.6835
 34.5556  8859.56  93.1947
 34.5976  8874.35  93.0696
 34.6396  8759.28  92.3093
 34.6816  8746.7  92.2207
 34.7236  8870.7  92.6587
 34.7656  8814.42  92.5564
 34.8076  8678.19  92.1651
 34.8496  8787.63  92.6749
 34.8916  8661.46  91.8045
 34.9336  8943.19  93.2565
 34.9756  8794.01  92.3862
 35.0176  8826.61  93.0938
 35.0596  8684.76  92.1666
 35.1016  8780.15  92.4391
 35.1436  8821.16  92.3357
 35.1856  8674.48  91.6967
 35.2276  8705.57  92.0358
 35.2696  8680.76  92.1012
 35.3116  8688.1  92.2213
 35.3536  8684.45  91.9238
 35.3956  8668.08  91.5389
 35.4376  8577  91.6117
 35.4796  8719.21  92.4352
 35.5216  8680.4  92.1744
 35.5636  8473.35  91.824
 35.6056  8656.58  91.8161
 35.6476  8723.8  92.0642
 35.6896  8705.69  92.0639
 35.7316  8683.09  91.9216
 35.7736  8503.4  91.1613
 35.8156  8549.99  91.4031
 35.8576  8667.81  92.284
 35.8996  8713.16  92.4967
 35.9416  8524.02  90.9952
 35.9836  8581.28  91.6456
 36.0256  8598.7  91.7609
 36.0676  8654  91.8144
 36.1096  8538.32  91.333
 36.1516  8654.5  91.8368
 36.1936  8505.45  90.8876
 36.2356  8466.43  91.3251
 36.2776  8556.09  91.2879
 36.3196  8615.65  91.2661
 36.3616  8485.43  90.6581
 36.4036  8622.01  91.4861
 36.4456  8505.01  91.0694
 36.4876  8325.16  90.0539
 36.5296  8421.58  90.6116
 36.5716  8528.11  91.7398
 36.6136  8662.14  91.4494
 36.6556  8598.7  91.3207
 36.6976  8581.42  91.7353
 36.7396  8298.11  90.1138
 36.7816  8630.5  92.1091
 36.8236  8551.06  91.6095
 36.8656  8476.74  91.2727
 36.9076  8439.03  90.9549
 36.9496  8430.66  90.89
 36.9916  8481.13  90.791
 37.0336  8612.63  91.8126
 37.0756  8536.02  91.1926
 37.1176  8290.1  90.1402
 37.1596  8423.48  90.8631
 37.2016  8390.32  90.9188
 37.2436  8565.75  91.1666
 37.2856  8302.32  90.0117
 37.3276  8538.42  90.7908
 37.3696  8415.01  90.8643
 37.4116  8428.29  90.832
 37.4536  8262.37  89.6554
 37.4956  8112.9  89.2379
 37.5376  8322.65  91.7202
 37.5796  8148.5  90.727
 37.6216  8127.57  88.8612
 37.6636  8254.21  89.4547
 37.7056  8163.7  89.1598
 37.7476  8229.04  89.0399
 37.7896  8308.33  89.9876
 37.8316  8075.65  88.8816
 37.8736  8337.62  89.8368
 37.9156  8290.66  89.5826
 37.9576  8287.46  89.4553
 37.9996  8150.18  88.4222
 38.0416  8231.12  89.6813
 38.0836  8229.66  89.5814
 38.1256  8303.59  89.941
 38.1676  7934.95  88.0557
 38.2096  8243.64  89.3676
 38.2516  8375.54  90.2967
 38.2936  8276.86  89.5526
 38.3356  8304.18  89.6171
 38.3776  8228.22  89.4831
 38.4196  8336.8  89.9228
 38.4616  8140.7  89.0933
 38.5036  8265.73  89.6185
 38.5456  8161.7  89.9016
 38.5876  8201.48  90.3258
 38.6296  8086.64  88.4801
 38.6716  8097.75  88.3428
 38.7136  7991.2  87.7041
 38.7556  7994.1  88.2221
 38.7976  8186.44  89.2084
 38.8396  7991.71  88.4146
 38.8816  7974.34  88.291
 38.9236  8014.14  88.3137
 38.9656  7944.15  87.845
 39.0076  8054.56  87.8569
 39.0496  8013.48  88.1685
 39.0916  8139.37  88.5005
 39.1336  8171.91  89.1029
 39.1756  8151.28  89.0608
 39.2176  8126.48  89.4665
 39.2596  7912.49  88.1966
 39.3016  7963.01  87.9851
 39.3436  7973.11  88.5327
 39.3856  8002.39  88.1405
 39.4276  8221  89.833
 39.4696  7992.48  88.2081
 39.5116  8011.56  88.8214
 39.5536  8193.53  90.2683
 39.5956  8130.11  89.0096
 39.6376  8114.41  88.9222
 39.6796  8128.22  88.7435
 39.7216  8142.64  88.9112
 39.7636  8165.75  89.6125
 39.8056  8100.37  89.0283
 39.8476  7996.22  88.7213
 39.8896  8053.55  88.6551
 39.9316  8030.46  88.7915
 39.9736  8158.76  89.1346
 40.0156  8017.65  88.1116
 40.0576  8192.08  89.4371
 40.0996  8222.38  88.7664
 40.1416  8052.08  88.6486
 40.1836  8126.71  88.9337
 40.2256  8125.68  88.9762
 40.2676  8119.73  89.0483
 40.3096  8293.38  89.919
 40.3516  8207.86  89.556
 40.3936  8289.46  89.5644
 40.4356  8144.79  88.9794
 40.4776  8247.35  89.953
 40.5196  8209.49  89.7983
 40.5616  8080.64  88.8021
 40.6036  8094.38  89.1365
 40.6456  8243.44  89.5492
 40.6876  8262.59  89.6521
 40.7296  8156.32  89.0896
 40.7716  8171.82  89.4235
 40.8136  8040.76  88.6513
 40.8556  8187.33  89.5803
 40.8976  8196.88  89.5556
 40.9396  8009.68  88.8756
 40.9816  8137.4  88.8616
 41.0236  8177.04  88.8548
 41.0656  8235.18  89.7233
 41.1076  8221.49  89.4104
 41.1496  8131.31  88.8315
 41.1916  8126.02  89.1333
 41.2336  8080.26  88.8626
 41.2756  8097.85  88.5662
 41.3176  8082.61  89.0927
 41.3596  8194.84  89.4456
 41.4016  8164.2  89.5403
 41.4436  8164.39  89.3225
 41.4856  8137.23  89.3392
 41.5276  8193.97  89.6701
 41.5696  8068.86  88.6143
 41.6116  8099.37  89.1729
 41.6536  8137.8  89.2466
 41.6956  8145.9  89.3396
 41.7376  8084.29  89.0354
 41.7796  8033.62  88.6356
 41.8216  8047.92  88.955
 41.8636  8119.84  89.2926
 41.9056  7992.6  88.3726
 41.9476  8195.21  89.6207
 41.9896  8133.27  89.037
 42.0316  8086.76  88.8745
 42.0736  7970.7  88.3444
 42.1156  7973.62  88.201
 42.1576  8128.06  89.1289
 42.1996  8147.13  89.4017
 42.2416  8156.56  88.9408
 42.2836  7985.66  88.2018
 42.3256  8028.39  88.5573
 42.3676  8021.93  88.3186
 42.4096  7991.15  88.1128
 42.4516  8044.12  88.5555
 42.4936  7916.84  87.8632
 42.5356  8060.04  88.7932
 42.5776  8066.31  88.7567
 42.6196  8100.76  89.0111
 42.6616  7866.38  87.8819
 42.7036  8013.77  88.0775
 42.7456  8053.29  88.6519
 42.7876  7972.17  88.3136
 42.8296  7955.25  88.0438
 42.8716  7951.4  88.1881
 42.9136  7936.72  87.8901
 42.9556  7904.02  87.8439
 42.9976  7981.32  88.2404
 43.0396  7956.16  87.8258
 43.0816  7946.53  88.1452
 43.1236  7900.45  87.9572
 43.1656  7967.75  88.1569
 43.2076  7888.65  87.8231
 43.2496  7895.58  87.6729
 43.2916  7859.17  87.8438
 43.3336  7966.44  88.2757
 43.3756  7929.79  87.8198
 43.4176  7868.69  87.5684
 43.4596  7969.4  87.9775
 43.5016  7937.49  88.2136
 43.5436  7882.05  87.799
 43.5856  7893.68  87.8931
 43.6276  7899.29  87.8219
 43.6696  7781.79  87.3738
 43.7116  7889.86  87.5226
 43.7536  7916.46  88.1637
 43.7956  7718.98  88.2542
 43.8376  7821.31  87.3718
 43.8796  7902.06  87.9041
 43.9216  7856.47  87.5647
 43.9636  7737.47  87.0086
 44.0056  7914.28  88.2346
 44.0476  7751.19  87.0667
 44.0896  7777.48  87.4421
 44.1316  7848.51  87.3561
 44.1736  7694.46  86.6226
 44.2156  7822.96  87.1919
 44.2576  7738.42  87.044
 44.2996  7838.86  87.5789
 44.3416  7642.33  86.2305
 44.3836  7612.15  86.3987
 44.4256  7600.33  85.9693
 44.4676  7577.1  85.9964
 44.5096  7638.37  86.4862
 44.5516  7669.7  86.6255
 44.5936  7594.93  86.1604
 44.6356  7671.34  86.3276
 44.6776  7710.78  86.7902
 44.7196  7637.59  86.7654
 44.7616  7585.93  87.8025
 44.8036  7655.21  86.5981
 44.8456  7591.78  86.4471
 44.8876  7654.52  86.7472
 44.9296  7807.25  86.9471
 44.9716  7678.37  86.6654
 45.0136  7615.23  86.247
 45.0556  7647.91  86.3999
 45.0976  7506.18  85.7634
 45.1396  7493.72  85.4534
 45.1816  7445.14  85.1126
 45.2236  7669.77  86.2831
 45.2656  7517.4  85.9286
 45.3076  7523.89  85.7236
 45.3496  7441.36  85.5805
 45.3916  7470.98  86.0118
 45.4336  7490.37  85.9658
 45.4756  7428.48  85.4696
 45.5176  7626.58  86.2124
 45.5596  7477.53  85.4804
 45.6016  7442.27  85.7066
 45.6436  7437.97  84.8632
 45.6856  7448.77  85.5831
 45.7276  7408.37  86.6724
 45.7696  7485.12  86.7907
 45.8116  7522.33  86.4423
 45.8536  7481.4  86.0942
 45.8956  7495.64  85.5265
 45.9376  7521.03  85.1337
 45.9796  7514.21  85.7791
 46.0216  7523.07  86.1786
 46.0636  7591.71  85.6996
 46.1056  7544.01  85.4242
 46.1476  7485.34  85.6871
 46.1896  7459.69  85.6886
 46.2316  7457.14  85.5469
 46.2736  7373.01  85.4286
 46.3156  7419.68  85.2837
 46.3576  7453.45  85.6769
 46.3996  7307.42  84.9973
 46.4416  7442.72  85.3576
 46.4836  7402.37  85.4773
 46.5256  7368.33  85.2242
 46.5676  7360.49  85.2896
 46.6096  7409.96  85.5097
 46.6516  7502.51  85.0757
 46.6936  7451.34  85.2777
 46.7356  7488.95  85.6014
 46.7776  7194.73  84.7985
 46.8196  7365.63  85.3246
 46.8616  7281.14  84.7871
 46.9036  7350.57  84.8511
 46.9456  7270.07  84.0267
 46.9876  7324.52  84.4293
 47.0296  7359.96  85.2293
 47.0716  7261.3  84.566
 47.1136  7215.54  83.9801
 47.1556  7227.47  83.9176
 47.1976  7347.95  84.6852
 47.2396  7245.9  84.4975
 47.2816  7283.57  84.425
 47.3236  7240.61  84.5407
 47.3656  7339.99  85.056
 47.4076  7242.84  84.284
 47.4496  7195.49  84.108
 47.4916  7153.65  84.0423
 47.5336  7320.99  84.8408
 47.5756  7341.04  85.0774
 47.6176  7134.52  83.7693
 47.6596  7172.76  83.7109
 47.7016  7336.79  84.4733
 47.7436  7204.02  84.0544
 47.7856  7250.22  84.3276
 47.8276  7296.87  84.6619
 47.8696  7209.49  84.2348
 47.9116  7310.97  84.5369
 47.9536  7182.61  83.7377
 47.9956  7105.23  83.9877
 48.0376  7122.34  83.8659
 48.0796  7222.38  84.5827
 48.1216  7222.12  84.397
 48.1636  7289.57  84.3579
 48.2056  7128.16  83.6853
 48.2476  7208.96  84.4536
 48.2896  7123.62  83.8753
 48.3316  7166.97  84.0731
 48.3736  7137.5  83.9246
 48.4156  7130.94  83.853
 48.4576  7137.6  84.0709
 48.4996  7167.6  83.7085
 48.5416  7196.22  84.1902
 48.5836  7230.84  84.072
 48.6256  7194.6  84.0585
 48.6676  7139.76  84.2624
 48.7096  7200.81  83.8889
 48.7516  7196.76  84.0093
 48.7936  6945.2  82.6948
 48.8356  7068.27  83.3719
 48.8776  7150.8  84.4245
 48.9196  7196.32  84.0594
 48.9616  7024.26  83.4379
 49.0036  7140.26  84.4643
 49.0456  6973.71  83.463
 49.0876  7052.11  83.4656
 49.1296  6947.56  83.0024
 49.1716  6938.03  83.0412
 49.2136  7090.56  83.6414
 49.2556  7070.88  83.678
 49.2976  7040.72  83.4496
 49.3396  6981.83  83.1587
 49.3816  7099.17  83.4318
 49.4236  7064.93  83.5045
 49.4656  6960.58  82.8732
 49.5076  7073.6  83.3301
 49.5496  6998.46  82.9525
 49.5916  6960.12  82.6403
 49.6336  7040.86  83.3207
 49.6756  7081.93  83.7832
 49.7176  7005.97  83.286
 49.7596  7055.68  83.3393
 49.8016  7056.94  83.2712
 49.8436  6948.86  82.9364
 49.8856  6937.6  82.8664
 49.9276  6981.6  83.2297
 49.9696  7007.32  83.3692
 50.0116  7019.2  83.5717
 50.0536  6795.56  82.1758
 50.0956  6944.72  83.1453
 50.1376  6920.57  82.6941
 50.1796  6859.61  82.6029
 50.2216  6916  82.934
 50.2636  6794.86  81.8255
 50.3056  6870.23  82.4591
 50.3476  6852.29  82.3715
 50.3896  6842.93  82.2809
 50.4316  6904.28  82.4869
 50.4736  6710.59  81.5318
 50.5156  6891.68  82.6245
 50.5576  6910.28  82.4939
 50.5996  6877.98  82.6937
 50.6416  6861.2  82.4058
 50.6836  6870.03  82.5168
 50.7256  6881.27  82.5245
 50.7676  6904.1  82.9622
 50.8096  6821.09  82.011
 50.8516  6848.54  82.589
 50.8936  6769.02  81.885
 50.9356  6898.02  82.7716
 50.9776  6844.22  82.5961
 51.0196  6592.29  81.1961
 51.0616  6679.19  81.0677
 51.1036  6845.11  82.4208
 51.1456  6873.03  82.5058
 51.1876  6769.98  81.2272
 51.2296  6744.88  81.8286
 51.2716  6740.81  81.3876
 51.3136  6587.61  80.9012
 51.3556  6757.5  81.5682
 51.3976  6678.03  81.2388
 51.4396  6567.56  80.8557
 51.4816  6653.59  81.2412
 51.5236  6774.75  82.0844
 51.5656  6594.85  80.5838
 51.6076  6728.3  81.4755
 51.6496  6789.46  82.0359
 51.6916  6678.34  81.7125
 51.7336  6694.82  81.9076
 51.7756  6674.16  81.4839
 51.8176  6778.93  82.2278
 51.8596  6617.53  81.2581
 51.9016  6725.7  81.5284
 51.9436  6604.47  82.2231
 51.9856  6573.6  82.4626
 52.0276  6629.54  81.3253
 52.0696  6703.88  81.8404
 52.1116  6662.03  81.7054
 52.1536  6648.57  81.5063
 52.1956  6681.82  81.1802
 52.2376  6804.88  82.0938
 52.2796  6681.35  81.1579
 52.3216  6406.07  80.1452
 52.3636  6697.07  81.5248
 52.4056  6575.55  80.6333
 52.4476  6574.98  81.0017
 52.4896  6560.95  80.9638
 52.5316  6580.78  81.1298
 52.5736  6622.64  81.117
 52.6156  6639.67  81.5968
 52.6576  6738.5  81.6496
 52.6996  6500.66  81.1588
 52.7416  6641  81.9495
 52.7836  6548.36  81.1869
 52.8256  6669.5  81.1602
 52.8676  6416.34  80.1723
 52.9096  6641.84  81.6526
 52.9516  6560.6  81.5317
 52.9936  6479.09  81.412
 53.0356  6483.38  80.4453
 53.0776  6410.21  80.2492
 53.1196  6493.87  80.8968
 53.1616  6339  79.9735
 53.2036  6442.35  80.5824
 53.2456  6451.13  80.7358
 53.2876  6368.35  79.9231
 53.3296  6482.69  80.9606
 53.3716  6418.89  80.3095
 53.4136  6449.9  80.655
 53.4556  6396.64  80.3495
 53.4976  6347.23  79.8892
 53.5396  6481.93  81.1309
 53.5816  6412.26  80.3258
 53.6236  6350.72  80.2173
 53.6656  6424.06  80.3696
 53.7076  6473  80.6365
 53.7496  6404.37  80.3218
 53.7916  6366.37  80.2164
 53.8336  6388.01  80.2434
 53.8756  6360.54  80.6243
 53.9176  6449.32  80.5353
 53.9596  6393.68  80.9476
 54.0016  6400.27  80.3237
 54.0436  6403.83  80.5558
 54.0856  6427.83  80.1331
 54.1276  6385.61  80.0581
 54.1696  6417.56  80.4395
 54.2116  6415.78  80.1834
 54.2536  6449.75  80.2116
 54.2956  6483.58  80.4087
 54.3376  6349.39  80.1166
 54.3796  6472.49  80.79
 54.4216  6487.11  80.7483
 54.4636  6405.54  80.4337
 54.5056  6431.53  80.3565
 54.5476  6408.7  80.5511
 54.5896  6379.99  80.1983
 54.6316  6479.2  80.6787
 54.6736  6439.58  80.5093
 54.7156  6324.88  79.8074
 54.7576  6347.85  79.9537
 54.7996  6468.37  80.8402
 54.8416  6379.32  80.2435
 54.8836  6307.19  79.9824
 54.9256  6286.41  79.6082
 54.9676  6390.18  80.1225
 55.0096  6418.79  80.3705
 55.0516  6380.32  80.366
 55.0936  6409.21  80.171
 55.1356  6313.33  79.6161
 55.1776  6381.91  80.311
 55.2196  6316.34  79.7454
 55.2616  6334.25  80.0063
 55.3036  6288.99  79.8781
 55.3456  6363.34  80.5022
 55.3876  6318.58  79.9624
 55.4296  6329.35  80.048
 55.4716  6310.99  79.9244
 55.5136  6338.24  79.8504
 55.5556  6285.94  79.5931
 55.5976  6307.03  79.79
 55.6396  6294.91  79.6553
 55.6816  6298.87  79.5614
 55.7236  6403.13  80.256
 55.7656  6400.22  79.9957
 55.8076  6427.94  80.1541
 55.8496  6291.8  79.6159
 55.8916  6273.78  79.7137
 55.9336  6244.43  79.3264
 55.9756  6228.14  79.126
 56.0176  6259.69  79.4782
 56.0596  6323.74  79.8679
 56.1016  6284.82  79.6315
 56.1436  6240.08  79.6115
 56.1856  6358.39  80.1022
 56.2276  6291.4  79.7314
 56.2696  6237.66  79.3956
 56.3116  6265.06  79.9394
 56.3536  6336.45  80.0529
 56.3956  6330.39  80.0052
 56.4376  6315.75  79.9453
 56.4796  6336.06  79.881
 56.5216  6186.31  79.2979
 56.5636  6319.85  79.741
 56.6056  6258.31  79.5775
 56.6476  6250.26  79.1574
 56.6896  6277.47  79.7735
 56.7316  6344.45  80.1095
 56.7736  6371.92  80.2548
 56.8156  6314.04  79.9067
 56.8576  6216.09  79.2343
 56.8996  6279.88  79.5776
 56.9416  6305.53  80.0466
 56.9836  6278.97  79.3812
 57.0256  6166.65  78.9874
 57.0676  6256.29  79.6773
 57.1096  6338.04  79.99
 57.1516  6404.97  80.4756
 57.1936  6209.39  78.9875
 57.2356  6296.94  79.8678
 57.2776  6265.42  79.6186
 57.3196  6215.7  79.4691
 57.3616  6307.03  79.7463
 57.4036  6223.85  79.2761
 57.4456  6172.46  78.9132
 57.4876  6294.07  79.5428
 57.5296  6199.41  79.286
 57.5716  6161.42  79.0311
 57.6136  6256.45  79.4671
 57.6556  6158.35  78.9695
 57.6976  6326.94  79.775
 57.7396  6140.35  79.0571
 57.7816  6201.75  79.8074
 57.8236  6181.41  79.5169
 57.8656  6265.77  79.6657
 57.9076  6236.35  79.5044
 57.9496  6206.94  79.6692
 57.9916  6267.18  79.5624
 58.0336  6226.62  79.586
 58.0756  6170.29  78.8628
 58.1176  6215.74  79.1474
 58.1596  6223.85  79.7718
 58.2016  6378.25  79.9666
 58.2436  6366.46  80.3171
 58.2856  6269.93  79.6231
 58.3276  6175.9  79.4008
 58.3696  6137.58  78.9039
 58.4116  6195.78  79.1408
 58.4536  6248.95  79.3629
 58.4956  6209.2  79.2912
 58.5376  6239.29  79.1774
 58.5796  6261.47  79.6171
 58.6216  6171.63  78.8644
 58.6636  6285.03  79.7936
 58.7056  6267.92  79.5468
 58.7476  6074.14  78.7533
 58.7896  6114.79  78.654
 58.8316  6278.52  79.8098
 58.8736  6307.81  79.8954
 58.9156  6269.54  79.6986
 58.9576  6215.05  79.6737
 58.9996  6378.9  79.9428
 59.0416  6381.63  80.3269
 59.0836  6250.78  79.4279
 59.1256  6127.38  79.3452
 59.1676  6174.71  79.9547
 59.2096  6280.46  79.934
 59.2516  6374.96  80.1027
 59.2936  6186.68  79.243
 59.3356  6130.94  78.762
 59.3776  6356.42  80.3706
 59.4196  6172.33  79.1327
 59.4616  6391.64  80.383
 59.5036  6311.76  79.915
 59.5456  6408.36  80.2087
 59.5876  6402.79  80.3706
 59.6296  6188.63  79.0851
 59.6716  6277.26  79.7085
 59.7136  6336.46  80.0715
 59.7556  6181.45  79.2241
 59.7976  6285.8  79.6269
 59.8396  6403.26  80.2586
 59.8816  6272.17  79.9862
 59.9236  6386.16  80.3457
 59.9656  6367.3  80.4949
 60.0076  6299.22  79.4068
 60.0496  6268.25  79.2367
 60.0916  6380.94  79.8401
 60.1336  6287.48  80.383
 60.1756  6179.12  80.8853
 60.1996  6422.12  84.7666