File: docs/examples/opeando_xrd/IS17_D/Data/IS17_D/17_Db_f00041.xye
# /beamlines/bl04/projects/cycle2025-II/20250340211-lsimonelli/DATA/IS17_D/17_Db_f00041.xye : mythproc.py merge -s 0.006 -l 0.5 -f /beamlines/bl04/inhouse/ff/FlatField/ff_20Nov2024rod8mm60s_17keV.raw -b True -c true -o xye /beamlines/bl04/projects/cycle2025-II/20250340211-lsimonelli/DATA/IS17_D/17_Db_00041.dat
# IsMon = [6767143, 6762270, 6770569]  IsPos = [-1.5000, -2.4885, -3.4988]
# Wave = 0.4962  CalPath /beamlines/bl04/projects/cycle2025-II/20250340211-lsimonelli/DATA/Align/Si_Pos1_25keV_f00001.cal
# Date = 2025-09-24_05:06:32 Dt = 4.8000  Bin = 0.0060  <imon> = 6766661 +/- 3405 (Min/Max) 6762270 / 6770569
# icurr 251.0496  mocoIn 1.7126E-05  mocoOut 0.8039  i15 7.08597e+06  imon 6.76666e+06  i7 4.3333  iEMpd_timer 4.8000  iEMpd_1 3.4599E-08  iEMpd_2 7.8673E-08  iEMpd_3 1.6664E-08  iEMpd_4 4.8210E-08  iEMhp_timer 4.8000  iEMhp_1 4.9050E-06  iEMhp_2 -2.6358E-08  iEMhp_3 -2.5278E-08  iEMhp_4 -2.1266E-08
#      9776
 1.5856  44504.5  216.616
 1.6276  51285.1  228.542
 1.6696  57570.1  241.288
 1.7116  64378.3  255.655
 1.7536  72858.8  270.815
 1.7956  76674.3  278.509
 1.8376  73308.2  272.759
 1.8796  63096.3  251.19
 1.9216  53004.1  231.141
 1.9636  45187.3  213.081
 2.0056  41376.7  202.596
 2.0476  38693.3  198.064
 2.0896  37139.4  192.909
 2.1316  36233.6  189.626
 2.1736  34649  186.904
 2.2156  35205.9  186.888
 2.2576  33825.6  183.846
 2.2996  32516.2  180.912
 2.3416  32846.5  180.373
 2.3836  32198.4  178.699
 2.4256  31403.6  177.055
 2.4676  31018.8  175.717
 2.5096  30591.9  174.561
 2.5516  29393.6  175.053
 2.5936  29409.1  171.595
 2.6356  28879.1  170.757
 2.6776  28537.6  168.633
 2.7196  28452.9  168.88
 2.7616  28164.5  167.81
 2.8036  27929.2  167.274
 2.8456  27728  167.327
 2.8876  27346.6  165.991
 2.9296  26733.6  164.286
 2.9716  26587  163.316
 3.0136  25998.5  161.571
 3.0556  26052.2  162.129
 3.0976  26281.4  161.722
 3.1396  25776.5  160.91
 3.1816  25457.2  159.839
 3.2236  25350.5  159.518
 3.2656  25077.3  157.685
 3.3076  24929.9  158.701
 3.3496  25330.2  159.123
 3.3916  25592.7  159.513
 3.4336  25907.1  161.083
 3.4756  26085.7  161.565
 3.5176  26955.2  164.009
 3.5596  26391.7  165.306
 3.6016  26518.9  162.729
 3.6436  25606.2  161.037
 3.6856  25438.7  158.775
 3.7276  24324.3  156.356
 3.7696  24297.4  156.236
 3.8116  23734.4  154.521
 3.8536  23956.2  155.156
 3.8956  23822.4  154.551
 3.9376  23587.9  154.064
 3.9796  23714.1  153.963
 4.0216  23739.1  153.076
 4.0636  23431.5  153.544
 4.1056  23655.1  153.942
 4.1476  23948.6  155.188
 4.1896  23834.1  154.676
 4.2316  24082.9  155.302
 4.2736  24638.2  156.89
 4.3156  24525.7  156.751
 4.3576  25425.2  159.506
 4.3996  25632.6  160.453
 4.4416  26026.4  161.247
 4.4836  26465.6  162.78
 4.5256  27083.6  165.263
 4.5676  26870.3  164.869
 4.6096  27282.7  165.151
 4.6516  27709.9  165.751
 4.6936  27794.4  166.839
 4.7356  28116.1  167.637
 4.7776  27844.8  166.65
 4.8196  27780.3  167.108
 4.8616  27138.3  164.792
 4.9036  27078.9  164.205
 4.9456  26817  164.067
 4.9876  26393.4  162.657
 5.0296  26508.2  162.86
 5.0716  26280.5  162.773
 5.1136  26455.6  163.175
 5.1556  26690.3  163.354
 5.1976  27218.4  164.954
 5.2396  27283.7  164.841
 5.2816  27286.1  165.322
 5.3236  27223.7  164.829
 5.3656  26775.5  164.399
 5.4076  26490.4  163.652
 5.4496  26399.9  162.883
 5.4916  26567.1  163.147
 5.5336  26528.2  163.039
 5.5756  26660.6  163.449
 5.6176  26575.7  162.636
 5.6596  26821  164.218
 5.7016  26914.1  163.919
 5.7436  26973.9  164.378
 5.7856  26730.4  163.704
 5.8276  26996.4  164.233
 5.8696  27506.2  165.831
 5.9116  27347.2  166.065
 5.9536  27729.9  166.963
 5.9956  27754.2  166.434
 6.0376  27798.5  167.178
 6.0796  28012.8  167.656
 6.1216  27848.9  167.364
 6.1636  28136  167.285
 6.2056  28123.8  167.926
 6.2476  28573  168.941
 6.2896  28684.9  169.135
 6.3316  28623.3  169.124
 6.3736  28740.2  169.37
 6.4156  28624.3  168.965
 6.4576  28873.3  169.273
 6.4996  28875.6  169.752
 6.5416  28806.2  169.674
 6.5836  28880.1  170.132
 6.6256  29324.7  170.986
 6.6676  29591.3  171.335
 6.7096  29579.9  172.157
 6.7516  29847.2  172.599
 6.7936  30070  172.629
 6.8356  30414.7  173.723
 6.8776  30310.7  174.228
 6.9196  30563.6  175.354
 6.9616  31067.7  176.202
 7.0036  31377.1  176.765
 7.0456  31333.6  175.942
 7.0876  31460.9  177.896
 7.1296  31191.8  176.363
 7.1716  31285.7  176.155
 7.2136  31046.7  175.269
 7.2556  31259.5  176.034
 7.2976  31112.9  176.106
 7.3396  31049.7  176.161
 7.3816  31115.9  176.552
 7.4236  31478.5  176.878
 7.4656  31537.2  176.503
 7.5076  31945.6  177.79
 7.5496  31620.7  177.41
 7.5916  31813.2  178.008
 7.6336  31911.5  178.17
 7.6756  32160.9  178.709
 7.7176  32665.6  180.443
 7.7596  32348.2  180.767
 7.8016  33131.3  185.161
 7.8436  32418.7  179.876
 7.8856  32887  180.782
 7.9276  33304.6  182.303
 7.9696  33509.8  183.186
 8.0116  34557.8  184.593
 8.0536  34430.4  184.496
 8.0956  34569.1  186.05
 8.1376  34685.8  185.827
 8.1796  35202.7  187.746
 8.2216  35844.1  188.198
 8.2636  35976.7  188.792
 8.3056  35840.2  189.169
 8.3476  36179.1  189.417
 8.3896  36107.1  189.311
 8.4316  36307.5  189.997
 8.4736  36645.2  190.359
 8.5156  35982.7  188.901
 8.5576  35900.3  189.656
 8.5996  35468  187.394
 8.6416  35697  189.255
 8.6836  35303.8  188.005
 8.7256  35967.9  189.261
 8.7676  35604.5  191.135
 8.8096  36371.3  190.484
 8.8516  36289.4  189.91
 8.8936  35712.1  188.279
 8.9356  35847.7  188.969
 8.9776  35709.7  188.677
 9.0196  35781.2  188.553
 9.0616  35546.2  187.432
 9.1036  34833.3  186.69
 9.1456  34641.7  185.507
 9.1876  35141.2  186.787
 9.2296  34596.8  184.781
 9.2716  34669.9  185.015
 9.3136  34659.8  184.995
 9.3556  34848.5  185.473
 9.3976  33733.2  182.995
 9.4396  33954.6  183.498
 9.4816  33490.1  182.102
 9.5236  33158.4  181.091
 9.5656  33195  181.537
 9.6076  32603.9  180.425
 9.6496  32673.3  180.514
 9.6916  32280.1  179.357
 9.7336  32226.3  179.01
 9.7756  32410.4  180.765
 9.8176  32217.5  179.806
 9.8596  32061  177.831
 9.9016  31573.5  176.466
 9.9436  31068  174.807
 9.9856  31156.6  175.485
 10.0276  30732.4  175.346
 10.0696  30982  175.092
 10.1116  30031.4  172.652
 10.1536  30049.3  172.354
 10.1956  29661.1  171.357
 10.2376  29717.2  171.023
 10.2796  29182.7  169.59
 10.3216  29027.6  169.287
 10.3636  28778.3  168.727
 10.4056  28134.7  167.231
 10.4476  28269.6  167.241
 10.4896  28350  166.944
 10.5316  28134.2  166.67
 10.5736  27560.1  165.702
 10.6156  27428.2  165.054
 10.6576  27422  163.65
 10.6996  27105.9  163.389
 10.7416  26698.5  162.362
 10.7836  26345.2  161.925
 10.8256  26131.1  161.678
 10.8676  26123.1  161.218
 10.9096  25946.7  160.675
 10.9516  25677.8  158.814
 10.9936  25709.3  159.119
 11.0356  25586.5  159.339
 11.0776  25185.9  157.444
 11.1196  24825.8  157.053
 11.1616  24705.8  156.361
 11.2036  25021.3  157.196
 11.2456  24631.6  156.672
 11.2876  24933.3  157.342
 11.3296  24451.3  155.733
 11.3716  24468.6  155.517
 11.4136  24523.1  156.51
 11.4556  24383.7  155.729
 11.4976  24837.2  156.205
 11.5396  24893.8  156.563
 11.5816  25690.2  159.459
 11.6236  26148.4  161.336
 11.6656  26462.7  161.226
 11.7076  25354.5  158.644
 11.7496  24760  160.749
 11.7916  24616  155.573
 11.8336  23893.5  154.181
 11.8756  23931.5  153.837
 11.9176  23820.5  153.17
 11.9596  23935.3  153.692
 12.0016  23436.4  152.831
 12.0436  23458.1  152.37
 12.0856  23540.9  153.125
 12.1276  23271.2  152.205
 12.1696  23369.2  151.652
 12.2116  23308.6  151.454
 12.2536  23371.9  152.442
 12.2956  22845.5  150.103
 12.3376  23365.8  152.005
 12.3796  23004.6  151.298
 12.4216  23308  151.497
 12.4636  22989.3  151.378
 12.5056  23104.2  151.033
 12.5476  23190.5  150.839
 12.5896  22913.3  150.562
 12.6316  23058.9  151.18
 12.6736  23027.8  151.571
 12.7156  23120.3  151.715
 12.7576  22911.1  151.275
 12.7996  23156.1  150.742
 12.8416  22990.4  151.24
 12.8836  23060.5  151.308
 12.9256  23674.7  152.347
 12.9676  23361.7  151.733
 13.0096  23810.4  154.29
 13.0516  23566.3  152.541
 13.0936  23811.5  153.457
 13.1356  23967.3  153.204
 13.1776  23608  153.062
 13.2196  24069.3  154.198
 13.2616  23669.6  153.223
 13.3036  24147.1  154.884
 13.3456  23604  153.101
 13.3876  24041.9  154.017
 13.4296  23683.4  153.031
 13.4716  23944.9  153.495
 13.5136  23689.4  152.808
 13.5556  23511.7  152.863
 13.5976  23811.8  153.991
 13.6396  23952.9  153.811
 13.6816  23917.1  154.029
 13.7236  24383.7  155.213
 13.7656  25914.3  160.475
 13.8076  26711  161.619
 13.8496  25098.9  157.462
 13.8916  24345.8  156.021
 13.9336  23534  152.708
 13.9756  23409.9  151.688
 14.0176  23020.6  151.09
 14.0596  23261  151.805
 14.1016  23072.2  151.609
 14.1436  23061.1  150.715
 14.1856  22512.9  149.203
 14.2276  22440  149.432
 14.2696  22729.7  150.25
 14.3116  21969.1  147.628
 14.3536  21886.1  147.502
 14.3956  21682.3  146.563
 14.4376  22068.7  147.637
 14.4796  21943.7  147.22
 14.5216  21540.9  146.636
 14.5636  21441.2  145.875
 14.6056  21594.5  145.947
 14.6476  21539.5  145.031
 14.6896  21150.7  144.237
 14.7316  20803.8  144.084
 14.7736  20592.2  142.508
 14.8156  20673.7  142.799
 14.8576  20414  141.763
 14.8996  20082.4  141.791
 14.9416  19795  140.784
 14.9836  19676.8  140.337
 15.0256  19329  138.035
 15.0676  19299.4  138.232
 15.1096  19090  137.228
 15.1516  18697.2  136.361
 15.1936  18948.6  136.703
 15.2356  18476.1  135.258
 15.2776  18277.7  134.129
 15.3196  18082.7  134.385
 15.3616  18026.9  133.926
 15.4036  17829.7  133.069
 15.4456  18032.2  133.481
 15.4876  17794.7  132.29
 15.5296  17828.3  132.709
 15.5716  17395.6  130.689
 15.6136  17414.3  131.087
 15.6556  17449.9  130.469
 15.6976  17380  130.285
 15.7396  17103.1  129.816
 15.7816  17128.1  129.45
 15.8236  16850.6  129.057
 15.8656  16941.2  129.216
 15.9076  16594.2  127.712
 15.9496  17551.3  134.129
 15.9916  17178.2  133.083
 16.0336  17324.1  130.538
 16.0756  16885  129.186
 16.1176  16791.6  128.743
 16.1596  16393  128.508
 16.2016  16479.8  127.637
 16.2436  16267.6  127.188
 16.2856  16398.3  127.216
 16.3276  15927.3  125.818
 16.3696  16400.6  127.494
 16.4116  16294  127.528
 16.4536  16104.3  126.584
 16.4956  16314.5  127.15
 16.5376  15851.5  125.512
 16.5796  15849.1  124.881
 16.6216  15927.3  125.443
 16.6636  15731.4  124.862
 16.7056  15872.9  125.283
 16.7476  15938.6  125.079
 16.7896  15835.9  125.407
 16.8316  15762.7  125.102
 16.8736  15973.9  126.19
 16.9156  15806.1  125.842
 16.9576  15649.6  126.019
 16.9996  15603.3  126.285
 17.0416  15855.2  125.741
 17.0836  16064.5  126.32
 17.1256  15889.3  125.639
 17.1676  15772.3  125.121
 17.2096  15919.9  125.62
 17.2516  15788.9  125.181
 17.2936  15629.7  124.605
 17.3356  15344.8  123.43
 17.3776  15452.4  124.07
 17.4196  15216  122.828
 17.4616  15227.7  122.775
 17.5036  14814.6  121.469
 17.5456  14814  122.074
 17.5876  14696.3  120.653
 17.6296  14964.1  121.557
 17.6716  14718.5  121.154
 17.7136  14489.5  120.328
 17.7556  14500.9  120.668
 17.7976  14292.6  119.411
 17.8396  14285  119.021
 17.8816  14069.9  118.679
 17.9236  14058.7  118.42
 17.9656  14143.5  119.437
 18.0076  14096.6  118.652
 18.0496  13876.1  116.9
 18.0916  14022.5  118.047
 18.1336  13837.4  117.361
 18.1756  14043  117.797
 18.2176  13705.7  116.581
 18.2596  13631.1  116.009
 18.3016  14019.4  117.894
 18.3436  13907.6  117.66
 18.3856  13751.3  116.89
 18.4276  13727.2  116.488
 18.4696  13557.4  115.84
 18.5116  13671.9  116.598
 18.5536  13643.3  116.818
 18.5956  13657.7  116.464
 18.6376  13503.7  116.203
 18.6796  13582.5  115.874
 18.7216  13651.8  116.719
 18.7636  13608.1  116.456
 18.8056  13505  115.936
 18.8476  13289.5  115.617
 18.8896  13523.4  115.987
 18.9316  13498  115.701
 18.9736  13360.3  114.976
 19.0156  13284.4  115.065
 19.0576  13656.2  115.512
 19.0996  13523.6  115.661
 19.1416  13429.9  115.641
 19.1836  13317.5  114.766
 19.2256  13276.5  114.811
 19.2676  13322.7  115.093
 19.3096  13277.9  115.142
 19.3516  13368.4  115.305
 19.3936  13265.2  114.944
 19.4356  13378.4  115.311
 19.4776  13333.5  115.212
 19.5196  13215.1  114.554
 19.5616  13151.7  114.528
 19.6036  13191  114.205
 19.6456  13186  114.304
 19.6876  13214.2  114.072
 19.7296  13412.1  115.372
 19.7716  13105.2  114.074
 19.8136  13496.9  116.099
 19.8556  13598.4  116.029
 19.8976  13315.7  114.873
 19.9396  13526.8  115.378
 19.9816  13578.6  115.847
 20.0236  13617.7  116.199
 20.0656  13833  117.118
 20.1076  14028.5  118.414
 20.1496  14223.3  119.226
 20.1916  14458.3  119.671
 20.2336  14630.1  120.343
 20.2756  14242.7  119.191
 20.3176  13778.2  116.977
 20.3596  13546.8  115.977
 20.4016  13672.8  116.309
 20.4436  13224.7  114.947
 20.4856  13300.1  115.066
 20.5276  13166.6  114.944
 20.5696  13009.5  113.815
 20.6116  12999.9  113.951
 20.6536  12933  113.233
 20.6956  12843.1  112.905
 20.7376  12709.4  112.531
 20.7796  12733.8  112.337
 20.8216  12860.2  112.609
 20.8636  13033.9  113.733
 20.9056  12843.5  112.838
 20.9476  12775.5  112.388
 20.9896  12939  112.971
 21.0316  12730.7  111.96
 21.0736  12691  112.296
 21.1156  12567.2  111.904
 21.1576  12724.1  112.642
 21.1996  12505.2  111.65
 21.2416  12571.7  111.774
 21.2836  12575.6  111.768
 21.3256  12490.7  111.459
 21.3676  12607.6  111.52
 21.4096  12358.3  110.793
 21.4516  12468.4  111.107
 21.4936  12120.8  109.81
 21.5356  12466.2  111.303
 21.5776  12506.6  111.315
 21.6196  12381.6  110.798
 21.6616  12229.2  110.199
 21.7036  12382.9  110.652
 21.7456  12433  110.959
 21.7876  12301.8  110.14
 21.8296  12174.9  109.418
 21.8716  12385  110.588
 21.9136  12354.9  110.648
 21.9556  12214.2  109.692
 21.9976  12085.8  109.148
 22.0396  12337.1  110.527
 22.0816  12224.9  110.531
 22.1236  12429.6  110.929
 22.1656  12184  110.021
 22.2076  11971.8  108.477
 22.2496  12034.2  108.804
 22.2916  12006.4  108.553
 22.3336  11852.3  108.537
 22.3756  11892.5  108.468
 22.4176  11913  108.413
 22.4596  11690.9  107.961
 22.5016  11775  107.879
 22.5436  11989.2  108.721
 22.5856  12150.3  109.704
 22.6276  12379.5  110.872
 22.6696  12140.1  110.143
 22.7116  11983.5  108.956
 22.7536  12028.8  109.132
 22.7956  11979.7  108.269
 22.8376  11743  107.676
 22.8796  11872.9  108.087
 22.9216  11966  109.033
 22.9636  11798.7  107.455
 23.0056  11789.2  107.545
 23.0476  11989.1  109.01
 23.0896  12064.4  108.74
 23.1316  11941.9  108.615
 23.1736  12022.6  111.859
 23.2156  12330.3  110.66
 23.2576  12620.8  112.098
 23.2996  12294.4  110.412
 23.3416  12438.6  111.585
 23.3836  12481.7  111.016
 23.4256  12594.7  111.637
 23.4676  12403.2  110.476
 23.5096  12386.1  111.053
 23.5516  12107.7  109.108
 23.5936  12178.7  110.325
 23.6356  12481.6  111.356
 23.6776  12206.9  110.335
 23.7196  12192  110.065
 23.7616  12134.9  109.51
 23.8036  12429.3  110.887
 23.8456  12103.6  108.982
 23.8876  12139  109.501
 23.9296  12109.3  109.844
 23.9716  11972.6  108.437
 24.0136  12137  110.074
 24.0556  12009.9  109.221
 24.0976  11873.5  108.413
 24.1396  11772.6  110.54
 24.1816  11993  110.336
 24.2236  12022.8  109.782
 24.2656  11752.1  108.021
 24.3076  11873.4  108.847
 24.3496  11837.3  108.566
 24.3916  11728.3  108.108
 24.4336  11773.6  108.517
 24.4756  11558.9  107.413
 24.5176  11553.5  107.023
 24.5596  11670.9  107.876
 24.6016  11513.8  107.249
 24.6436  11591.2  107.115
 24.6856  11468.9  106.307
 24.7276  11388.6  106.255
 24.7696  11358  106.206
 24.8116  11329.6  106.262
 24.8536  11323.2  106.231
 24.8956  11065.2  104.75
 24.9376  11365  106.321
 24.9796  10918.3  104.337
 25.0216  11134.8  105.474
 25.0636  11086.1  104.901
 25.1056  10941.9  104.65
 25.1476  10908.4  106.309
 25.1896  10912.8  104.902
 25.2316  10937  104.292
 25.2736  10863.1  103.6
 25.3156  10892.7  103.807
 25.3576  10753.2  103.576
 25.3996  10887.9  104.204
 25.4416  10713.9  103.348
 25.4836  10609.6  103.352
 25.5256  10642.7  102.889
 25.5676  10687.9  102.85
 25.6096  10571  102.842
 25.6516  10661.9  102.805
 25.6936  10753  103.541
 25.7356  10723.4  103.536
 25.7776  10606.6  102.642
 25.8196  10401.4  101.804
 25.8616  10546.6  102.447
 25.9036  10765  102.967
 25.9456  10641.1  102.97
 25.9876  10604.3  102.696
 26.0296  10656.7  102.708
 26.0716  10625.5  102.895
 26.1136  10685  103.119
 26.1556  10539.8  101.804
 26.1976  10368.1  101.881
 26.2396  10493.1  101.911
 26.2816  10547.2  102.532
 26.3236  10398.1  101.948
 26.3656  10726.2  103.266
 26.4076  10471.7  102.238
 26.4496  10669.2  102.795
 26.4916  10787  103.256
 26.5336  11109.7  105.138
 26.5756  11110.6  105.021
 26.6176  10647.8  102.829
 26.6596  10760.1  103.675
 26.7016  10498.3  102.177
 26.7436  10522.5  102.422
 26.7856  10394.4  101.779
 26.8276  10410.4  101.829
 26.8696  10285.2  101.079
 26.9116  10339.2  101.29
 26.9536  10230.7  100.804
 26.9956  10227.4  100.821
 27.0376  10209.5  100.952
 27.0796  10188.2  100.65
 27.1216  10245.1  100.911
 27.1636  10005.7  99.8946
 27.2056  10022.4  99.8641
 27.2476  10073.6  100.11
 27.2896  10005.4  99.8836
 27.3316  10008.9  99.6341
 27.3736  9918.6  99.4391
 27.4156  9971.69  99.5368
 27.4576  9956.29  99.6986
 27.4996  9991.08  99.4753
 27.5416  9995.32  99.8018
 27.5836  9936.98  99.351
 27.6256  9884.06  99.2533
 27.6676  9760.36  98.631
 27.7096  9937.79  99.4054
 27.7516  9853.98  99.1308
 27.7936  10132.8  100.652
 27.8356  9956.92  99.4026
 27.8776  10093.4  100.151
 27.9196  9861.88  98.8541
 27.9616  9883.39  99.1585
 28.0036  9821.03  98.8085
 28.0456  9744.84  98.5573
 28.0876  9698.78  98.4102
 28.1296  9686.75  98.1781
 28.1716  9762.42  98.5849
 28.2136  9754.18  98.5108
 28.2556  9786.13  98.7865
 28.2976  9596.83  97.8172
 28.3396  9568.1  97.4786
 28.3816  9676.26  97.9961
 28.4236  9601.18  97.7682
 28.4656  9471.38  97.1427
 28.5076  9603.02  97.4599
 28.5496  9667.02  98.0369
 28.5916  9697.32  98.0061
 28.6336  9649.72  98.0949
 28.6756  9646.46  97.2917
 28.7176  9582.89  97.5184
 28.7596  9296.82  95.9526
 28.8016  9524.56  97.1616
 28.8436  9236.4  95.9071
 28.8856  9514.61  97.1966
 28.9276  9610.48  97.9266
 28.9696  9431.14  96.676
 29.0116  9370.98  96.5403
 29.0536  9394.97  96.8728
 29.0956  9363.79  96.4157
 29.1376  9448.66  96.8295
 29.1796  9344.29  96.3418
 29.2216  9364.33  96.2845
 29.2636  9413.75  96.5335
 29.3056  9266.73  95.6384
 29.3476  9397.91  96.833
 29.3896  9312.34  96.4975
 29.4316  9345.88  96.0237
 29.4736  9078.99  94.6932
 29.5156  9231.17  95.4104
 29.5576  9126.32  95.6018
 29.5996  8954.55  93.9767
 29.6416  9094.7  94.8287
 29.6836  9168.23  95.1373
 29.7256  9120.09  95.4335
 29.7676  9031.51  94.6346
 29.8096  9174.34  95.3334
 29.8516  8859.56  93.9923
 29.8936  8939.12  94.5143
 29.9356  9210.85  95.7007
 29.9776  9013.54  94.8161
 30.0196  9035.31  94.348
 30.0616  9012.55  94.5783
 30.1036  8976.47  94.2342
 30.1456  8872.51  93.8934
 30.1876  8978.05  94.4471
 30.2296  9023.73  94.6176
 30.2716  8956.82  93.9218
 30.3136  8997.83  94.9745
 30.3556  9178.09  95.9206
 30.3976  9158.87  97.2872
 30.4396  9519.43  96.5369
 30.4816  9193.88  94.4787
 30.5236  9223.67  94.6319
 30.5656  9140.04  94.8386
 30.6076  9061.19  94.205
 30.6496  9359.4  95.8061
 30.6916  9013.72  94.1067
 30.7336  9179.56  95.1098
 30.7756  8997.31  94.2431
 30.8176  9198.69  95.2167
 30.8596  9207  94.9959
 30.9016  9205.19  94.8882
 30.9436  9137.35  94.7619
 30.9856  9387.93  96.1694
 31.0276  9114.68  94.3916
 31.0696  9017.94  94.44
 31.1116  9071.47  94.6871
 31.1536  8990.48  94.1321
 31.1956  9038.93  94.4945
 31.2376  8923.84  93.9019
 31.2796  9219.89  94.9895
 31.3216  9175.35  94.6714
 31.3636  8980.4  94.3869
 31.4056  8991.74  95.7245
 31.4476  9155.88  94.5333
 31.4896  9055.76  94.5086
 31.5316  8892.98  93.1115
 31.5736  9134.17  94.163
 31.6156  8968.24  93.3052
 31.6576  9189.92  94.5274
 31.6996  9121.63  93.8554
 31.7416  9020.21  94.2597
 31.7836  9143.26  94.0492
 31.8256  9058.97  93.9552
 31.8676  9049.4  93.8129
 31.9096  8946.18  93.5144
 31.9516  8700.86  92.5218
 31.9936  8826.67  93.0145
 32.0356  8886.76  93.3887
 32.0776  9072.1  94.248
 32.1196  9132.51  94.5661
 32.1616  9298.69  94.9654
 32.2036  9050.4  94.1894
 32.2456  8838.56  93.4511
 32.2876  8848.44  92.861
 32.3296  8804.86  92.7555
 32.3716  8680.67  92.2065
 32.4136  8607.59  92.003
 32.4556  8843.8  92.7063
 32.4976  8856.92  92.6656
 32.5396  8655.65  91.6307
 32.5816  8663.03  91.7983
 32.6236  8753.44  92.3337
 32.6656  8853.44  93.4049
 32.7076  8609.22  91.7571
 32.7496  8779.73  92.3545
 32.7916  8662.98  91.6972
 32.8336  8644.54  91.6922
 32.8756  8807.22  92.2646
 32.9176  8518.96  91.2141
 32.9596  8542.83  91.4113
 33.0016  8574.65  91.3573
 33.0436  8799.21  92.7156
 33.0856  8536.99  91.4283
 33.1276  8480.11  90.8624
 33.1696  8664.46  91.6815
 33.2116  8758.16  92.4075
 33.2536  8738.02  92.2699
 33.2956  8574.58  91.5038
 33.3376  8511.22  90.9851
 33.3796  8581.6  91.5036
 33.4216  8654.27  91.48
 33.4636  8575.45  91.2192
 33.5056  8516.09  91.148
 33.5476  8598.07  91.5546
 33.5896  8714.23  91.947
 33.6316  8637.77  91.8698
 33.6736  8402.87  90.8522
 33.7156  8510.11  91.4626
 33.7576  8653.23  91.8722
 33.7996  8447.93  90.544
 33.8416  8382.16  90.3736
 33.8836  8417.34  90.3453
 33.9256  8667.08  91.7263
 33.9676  8551.85  91.0151
 34.0096  8461.73  90.839
 34.0516  8379.03  90.0355
 34.0936  8356.25  90.188
 34.1356  8474.32  90.5645
 34.1776  8371.86  90.0087
 34.2196  8310.28  89.8596
 34.2616  8286.81  89.8756
 34.3036  8381.04  90.6137
 34.3456  8274.81  89.8038
 34.3876  8368.32  90.366
 34.4296  8387.4  90.0842
 34.4716  8479.87  90.724
 34.5136  8349.62  90.2045
 34.5556  8317.73  90.2967
 34.5976  8351.73  90.3221
 34.6396  8408.17  90.3086
 34.6816  8458.36  90.6786
 34.7236  8395.64  90.1311
 34.7656  8241.5  89.5077
 34.8076  8298.04  90.1379
 34.8496  8253.4  89.7448
 34.8916  8368.63  90.2263
 34.9336  8307.29  89.8875
 34.9756  8456.67  90.6296
 35.0176  8421.89  90.9494
 35.0596  8421.35  90.7698
 35.1016  8371.6  90.262
 35.1436  8686.08  91.6211
 35.1856  8278.64  89.568
 35.2276  8348.86  90.1134
 35.2696  8336.87  90.246
 35.3116  8224.11  89.7362
 35.3536  8443.15  90.6617
 35.3956  8265.33  89.3877
 35.4376  8430.5  90.8373
 35.4796  8375.05  90.5785
 35.5216  8394.08  90.6374
 35.5636  8071.44  89.6017
 35.6056  8245.79  89.6037
 35.6476  8284.62  89.7198
 35.6896  8275.65  89.8416
 35.7316  8078.71  88.6651
 35.7736  8102.2  88.976
 35.8156  8215.02  89.5905
 35.8576  8309.5  90.3289
 35.8996  8229.75  89.884
 35.9416  8140.59  88.9082
 35.9836  8100.89  89.144
 36.0256  8349.5  90.4089
 36.0676  8405.8  90.222
 36.1096  8257.01  89.8065
 36.1516  8283.73  89.8385
 36.1936  8319.41  89.8749
 36.2356  8141.13  89.5558
 36.2776  8262.29  89.6773
 36.3196  8051.09  88.2195
 36.3616  8183.81  89.068
 36.4036  8060.26  88.4613
 36.4456  8129.88  89.0583
 36.4876  8024.7  88.4151
 36.5296  8033.8  88.4993
 36.5716  8066.8  89.4523
 36.6136  7876.65  87.2064
 36.6556  7942.81  87.7595
 36.6976  7888.21  87.9479
 36.7396  7879.31  87.645
 36.7816  7798.47  87.5515
 36.8236  7882.45  87.9531
 36.8656  7782.2  87.4498
 36.9076  7912.36  88.1892
 36.9496  7819.52  87.5253
 36.9916  7815.89  87.147
 37.0336  7934.4  88.1103
 37.0756  7935.21  87.9205
 37.1176  7698.9  86.8618
 37.1596  7791.06  87.3843
 37.2016  7730.22  87.2257
 37.2436  8004.3  88.1188
 37.2856  7778.01  87.125
 37.3276  7719.18  86.1577
 37.3696  7748.26  87.1904
 37.4116  7762.08  87.1582
 37.4536  7674.54  86.5462
 37.4956  7664.48  86.5263
 37.5376  7943.49  89.6629
 37.5796  7901.39  89.351
 37.6216  7799.13  87.0561
 37.6636  7942.88  87.7462
 37.7056  7823.65  87.2697
 37.7476  8074.54  88.2029
 37.7896  7795.24  87.1555
 37.8316  7893.98  87.8645
 37.8736  7785.99  86.7947
 37.9156  7752.58  86.6064
 37.9576  7921.26  87.4577
 37.9996  7786.63  86.4288
 38.0416  7786.91  87.2176
 38.0836  7886.96  87.6773
 38.1256  7767.15  86.9916
 38.1676  7685.49  86.6419
 38.2096  7852.91  87.215
 38.2516  7871.62  87.5279
 38.2936  7869.54  87.31
 38.3356  7788.52  86.7936
 38.3776  7660.47  86.3195
 38.4196  7708.64  86.4492
 38.4616  7817.37  87.3061
 38.5036  7903.16  87.6296
 38.5456  7676.27  87.19
 38.5876  7740.53  87.5794
 38.6296  7828.42  87.0612
 38.6716  7767.22  86.5281
 38.7136  7758.01  86.4209
 38.7556  7725.51  86.7387
 38.7976  7814.2  87.1656
 38.8396  7714.68  87.0532
 38.8816  7664.91  86.5783
 38.9236  7743.12  86.8173
 38.9656  7699.34  86.4859
 39.0076  7807.44  86.4912
 39.0496  7970.45  87.9449
 39.0916  7858.01  86.9764
 39.1336  7759.92  86.8352
 39.1756  7649.76  86.2713
 39.2176  7679  86.9756
 39.2596  7764.91  87.3797
 39.3016  7823.24  87.2949
 39.3436  7657.5  86.7667
 39.3856  7793.77  86.9897
 39.4276  7907.04  88.1187
 39.4696  7684.83  86.5041
 39.5116  7823.29  87.7731
 39.5536  7686.05  87.4155
 39.5956  7717.74  86.7227
 39.6376  7776.17  87.0403
 39.6796  7722.84  86.4991
 39.7216  7733.2  86.6416
 39.7636  7751.58  87.2956
 39.8056  7763.81  87.1643
 39.8476  7610.85  86.5518
 39.8896  7728.87  86.8523
 39.9316  7681.95  86.8324
 39.9736  7695.34  86.4969
 40.0156  7619.88  85.9026
 40.0576  7734.42  86.8974
 40.0996  7726.52  86.0431
 40.1416  7708.92  86.7315
 40.1836  7712.66  86.6377
 40.2256  7685.77  86.5255
 40.2676  7531.4  85.8142
 40.3096  7738.05  86.8572
 40.3516  7740.38  86.9874
 40.3936  7734.38  86.4996
 40.4356  7636.18  86.1598
 40.4776  7779.07  87.1815
 40.5196  7703.97  87.064
 40.5616  7781.58  87.1345
 40.6036  7743.19  87.1805
 40.6456  7696.23  86.5162
 40.6876  7821.6  87.2243
 40.7296  7709.76  86.7244
 40.7716  7765.99  87.1699
 40.8136  7686.93  86.6687
 40.8556  7915.58  88.0773
 40.8976  7707.06  86.8381
 40.9396  7784.31  87.6021
 40.9816  7664.59  86.2359
 41.0236  7765.82  86.5883
 41.0656  7852.24  87.6099
 41.1076  7754.76  86.8384
 41.1496  7754.94  86.7506
 41.1916  7669.89  86.5887
 41.2336  7840.85  87.535
 41.2756  7821.04  87.0391
 41.3176  7817.43  87.62
 41.3596  7817.69  87.3633
 41.4016  7738.62  87.1633
 41.4436  7780.52  87.1942
 41.4856  7692.35  86.8659
 41.5276  7686.86  86.8518
 41.5696  7748.66  86.8182
 41.6116  7720.27  87.0505
 41.6536  7808.43  87.4106
 41.6956  7813.05  87.413
 41.7376  7675.45  86.7436
 41.7796  7685.02  86.7338
 41.8216  7612.97  86.5106
 41.8636  7611.62  86.4463
 41.9056  7651.55  86.4706
 41.9476  7782.76  87.4405
 41.9896  7805.21  87.2262
 42.0316  7853.98  87.593
 42.0736  7763.27  87.2173
 42.1156  7646.6  86.365
 42.1576  7672.19  86.6196
 42.1996  7778.1  87.331
 42.2416  7766.42  86.8642
 42.2836  7689.07  86.5495
 42.3256  7741.69  86.9516
 42.3676  7866.04  87.4461
 42.4096  7716.56  86.5876
 42.4516  7871.75  87.5341
 42.4936  7595.93  86.0545
 42.5356  7643  86.4598
 42.5776  7782.37  87.1719
 42.6196  7685.08  86.6965
 42.6616  7557.34  86.137
 42.7036  7650.53  86.0535
 42.7456  7791.35  87.1935
 42.7876  7645.78  86.4591
 42.8296  7696.83  86.5843
 42.8716  7537.03  85.8577
 42.9136  7514.51  85.4844
 42.9556  7602.52  86.143
 42.9976  7690.98  86.6241
 43.0396  7657.67  86.1617
 43.0816  7625.22  86.3551
 43.1236  7547.4  85.9608
 43.1656  7485.84  85.4377
 43.2076  7524.92  85.7625
 43.2496  7507.31  85.4957
 43.2916  7555.75  86.1288
 43.3336  7569.83  86.0395
 43.3756  7669.3  86.3688
 43.4176  7466.32  85.2926
 43.4596  7360.28  84.5508
 43.5016  7468.73  85.5454
 43.5436  7549.75  85.9354
 43.5856  7502.83  85.687
 43.6276  7569.57  85.9588
 43.6696  7455.56  85.4533
 43.7116  7595.11  85.8677
 43.7536  7603  86.4038
 43.7956  7447.87  86.7066
 43.8376  7320.01  84.5314
 43.8796  7352.38  84.787
 43.9216  7349.07  84.6839
 43.9636  7376.91  84.9444
 44.0056  7374.1  85.1654
 44.0476  7376.42  84.807
 44.0896  7318.84  84.82
 44.1316  7321.46  84.5176
 44.1736  7397.62  84.9325
 44.2156  7442.89  85.046
 44.2576  7493.09  85.6534
 44.2996  7368.69  84.9158
 44.3416  7368.36  84.6636
 44.3836  7141.74  83.6818
 44.4256  7300.57  84.2469
 44.4676  7267.68  84.2171
 44.5096  7376.22  84.9874
 44.5516  7320.94  84.6366
 44.5936  7237.98  84.1069
 44.6356  7400.51  84.7857
 44.6776  7257.61  84.2814
 44.7196  7224.38  84.3754
 44.7616  7386.64  86.6431
 44.8036  7426.5  85.4913
 44.8456  7441.99  85.5844
 44.8876  7442.77  85.4358
 44.9296  7561.57  85.5562
 44.9716  7453.02  85.3709
 45.0136  7493.83  85.5278
 45.0556  7486.89  85.5919
 45.0976  7526.1  85.8675
 45.1396  7365.12  84.7071
 45.1816  7259.85  84.0211
 45.2236  7583.98  85.7927
 45.2656  7413.62  85.3139
 45.3076  7399.04  85.0142
 45.3496  7338  84.9677
 45.3916  7341.16  85.2568
 45.4336  7388.41  85.3729
 45.4756  7237.84  84.3565
 45.5176  7532.35  85.6749
 45.5596  7475.43  85.459
 45.6016  7325.11  85.0223
 45.6436  7291.93  84.0135
 45.6856  7328.11  84.8751
 45.7276  7271.32  85.855
 45.7696  7377.41  86.161
 45.8116  7280.35  85.0534
 45.8536  7323.92  85.1979
 45.8956  7345.43  84.674
 45.9376  7343  84.123
 45.9796  7470.85  85.5528
 46.0216  7386.44  85.3968
 46.0636  7454.23  84.9295
 46.1056  7360.15  84.3847
 46.1476  7385.76  85.1214
 46.1896  7417.47  85.4568
 46.2316  7383.37  85.1304
 46.2736  7320.94  84.959
 46.3156  7404.5  85.2061
 46.3576  7300.88  84.803
 46.3996  7254.8  84.6945
 46.4416  7260.6  84.2933
 46.4836  7279.27  84.7728
 46.5256  7456.76  85.7325
 46.5676  7273.93  84.794
 46.6096  7310.41  84.9328
 46.6516  7399.7  84.5039
 46.6936  7398.87  84.9892
 46.7356  7439.61  85.3158
 46.7776  7225.7  84.9204
 46.8196  7178.78  84.392
 46.8616  7072.93  83.5592
 46.9036  7059.75  83.1602
 46.9456  7186.12  83.5285
 46.9876  7277.92  84.1521
 47.0296  7164.09  84.1687
 47.0716  7117.83  83.7281
 47.1136  7231.89  84.0744
 47.1556  7167.68  83.5604
 47.1976  7254.1  84.2342
 47.2396  7168.1  84.0467
 47.2816  7138.93  83.587
 47.3236  7250.51  84.6021
 47.3656  7287.59  84.75
 47.4076  7377.92  84.9825
 47.4496  7211.55  84.1952
 47.4916  7154.68  84.0477
 47.5336  7225.95  84.2857
 47.5756  7288.46  84.7696
 47.6176  7228.7  84.3173
 47.6596  7084.63  83.1993
 47.7016  7433.74  85.0268
 47.7436  7273.77  84.4536
 47.7856  7207.85  84.0899
 47.8276  7209.38  84.1547
 47.8696  7247.52  84.4552
 47.9116  7230.54  84.0692
 47.9536  7266.95  84.2218
 47.9956  7076.68  83.8211
 48.0376  7198.99  84.32
 48.0796  7251.35  84.7422
 48.1216  7188.74  84.2088
 48.1636  7318.99  84.53
 48.2056  7233.29  84.3014
 48.2476  7291.9  84.9438
 48.2896  7171.35  84.1603
 48.3316  7382.31  85.3158
 48.3736  7226.47  84.4382
 48.4156  7164.79  83.9348
 48.4576  7263.6  84.8094
 48.4996  7323.61  84.6119
 48.5416  7290.57  84.7443
 48.5836  7295.4  84.4499
 48.6256  7235.72  84.302
 48.6676  7198.09  84.5995
 48.7096  7108.06  83.3231
 48.7516  7168.54  83.8487
 48.7936  7094.12  83.4759
 48.8356  7161.86  83.9216
 48.8776  7256.5  84.959
 48.9196  7319.33  84.777
 48.9616  7156.72  84.2114
 49.0036  7216.75  84.9074
 49.0456  7138.2  84.4251
 49.0876  7087.22  83.7783
 49.1296  7077.07  83.7788
 49.1716  7034  83.3864
 49.2136  7205.27  84.3301
 49.2556  7235.28  84.5344
 49.2976  7214.58  84.4716
 49.3396  7095.52  83.8351
 49.3816  7292.43  84.4002
 49.4236  7128.48  83.886
 49.4656  7098.79  83.7309
 49.5076  7146.94  83.7574
 49.5496  7108.75  83.6065
 49.5916  7245.18  84.3059
 49.6336  7194.29  84.2222
 49.6756  7254.43  84.8127
 49.7176  7128.23  84.0071
 49.7596  7150.81  83.9004
 49.8016  7149.48  83.8135
 49.8436  7102.09  83.8396
 49.8856  7041.17  83.4792
 49.9276  6984.66  83.2538
 49.9696  7126.29  84.0697
 50.0116  7067.07  83.8385
 50.0536  7127.12  84.1513
 50.0956  7073.59  83.9041
 50.1376  7115.65  83.8473
 50.1796  7018.9  83.5505
 50.2216  7107.79  84.0734
 50.2636  7057.51  83.392
 50.3056  7060.1  83.589
 50.3476  7133.02  84.0243
 50.3896  7030.67  83.4056
 50.4316  7162.92  84.0119
 50.4736  7033.93  83.4726
 50.5156  6996.53  83.2334
 50.5576  7091.58  83.5658
 50.5996  7050.71  83.6087
 50.6416  7075  83.6759
 50.6836  7079.01  83.7656
 50.7256  7175.3  84.249
 50.7676  7241  84.9324
 50.8096  7040.74  83.3073
 50.8516  6925.55  83.05
 50.8936  6970.05  83.0853
 50.9356  7133  84.1556
 50.9776  7014.68  83.6215
 51.0196  6894.2  83.0292
 51.0616  6984.73  82.8996
 51.1036  6975.21  83.1984
 51.1456  6962.3  83.0417
 51.1876  7006.97  82.6314
 51.2296  6967.3  83.0269
 51.2716  6828.08  81.9004
 51.3136  6821.52  82.3309
 51.3556  6950.12  82.7118
 51.3976  6848.82  82.2669
 51.4396  6707.92  81.7272
 51.4816  6838.08  82.3676
 51.5236  6899.25  82.831
 51.5656  6673.05  81.0525
 51.6076  6879.29  82.3905
 51.6496  6821.46  82.2184
 51.6916  6782.91  82.3569
 51.7336  6714.5  82.019
 51.7756  6787.18  82.1632
 51.8176  6751.06  82.0548
 51.8596  6773.19  82.2039
 51.9016  6943.52  82.8287
 51.9436  6890.59  84.0127
 51.9856  6876  84.3218
 52.0276  7010.23  83.614
 52.0696  7030.74  83.8011
 52.1116  6923.1  83.2835
 52.1536  6912.38  83.0493
 52.1956  6787.25  81.8114
 52.2376  7039.72  83.4942
 52.2796  7039.79  83.3102
 52.3216  6900.26  83.1708
 52.3636  6916.08  82.831
 52.4056  6874.1  82.4455
 52.4476  6882.27  82.8507
 52.4896  6743.96  82.0734
 52.5316  6963.91  83.4507
 52.5736  6759.65  81.9334
 52.6156  6930.68  83.3679
 52.6576  6777.5  81.8671
 52.6996  6655.03  82.1162
 52.7416  6798.82  82.8361
 52.7836  6856.98  83.0916
 52.8256  6958.62  82.9024
 52.8676  6696.92  81.8952
 52.9096  6818.44  82.7224
 52.9516  6778.81  82.8711
 52.9936  6788.93  83.3221
 53.0356  6936.69  83.2114
 53.0776  6876.44  83.1476
 53.1196  6750.45  82.4869
 53.1616  6872.6  83.2755
 53.2036  6799.43  82.7963
 53.2456  6616.63  81.7808
 53.2876  6741.9  82.2396
 53.3296  6752.12  82.6386
 53.3716  6878.12  83.1395
 53.4136  6867.95  83.239
 53.4556  6746.26  82.5265
 53.4976  6727.58  82.2357
 53.5396  6795.38  83.0716
 53.5816  6899.23  83.3306
 53.6236  6759.75  82.8317
 53.6656  6922.34  83.4178
 53.7076  6891.16  83.1961
 53.7496  6822.26  82.9026
 53.7916  6723.31  82.4346
 53.8336  6814.65  82.8801
 53.8756  6609.81  82.175
 53.9176  6675.92  81.9308
 53.9596  6444.25  81.2371
 54.0016  6620.25  81.68
 54.0436  6420.5  80.6457
 54.0856  6573.99  81.032
 54.1276  6519.03  80.8786
 54.1696  6605.35  81.5781
 54.2116  6637.83  81.5393
 54.2536  6516.44  80.5927
 54.2956  6548.77  80.8482
 54.3376  6495.54  81.0105
 54.3796  6442.23  80.5758
 54.4216  6681.45  82.1025
 54.4636  6524.77  81.1015
 54.5056  6499.52  80.7524
 54.5476  6409.6  80.5374
 54.5896  6407.99  80.3578
 54.6316  6479.6  80.6452
 54.6736  6520.89  80.9559
 54.7156  6417.37  80.3842
 54.7576  6395.94  80.2174
 54.7996  6545.49  81.3255
 54.8416  6510.24  81.1287
 54.8836  6408.44  80.5756
 54.9256  6415.5  80.4079
 54.9676  6363.07  79.9263
 55.0096  6395.5  80.171
 55.0516  6356.34  80.1062
 55.0936  6407.59  80.1593
 55.1356  6337.84  79.7603
 55.1776  6556.98  81.3522
 55.2196  6327.26  79.7201
 55.2616  6465.79  80.8073
 55.3036  6332.39  80.1321
 55.3456  6257.05  79.8028
 55.3876  6356.14  80.1566
 55.4296  6267.15  79.5896
 55.4716  6347.59  80.1279
 55.5136  6293.18  79.5401
 55.5556  6527.27  81.0655
 55.5976  6256.23  79.4352
 55.6396  6376.02  80.0595
 55.6816  6341.61  79.7945
 55.7236  6292.61  79.5387
 55.7656  6432.94  80.1474
 55.8076  6281.81  79.2125
 55.8496  6406.56  80.4083
 55.8916  6261.62  79.539
 55.9336  6421.61  80.4421
 55.9756  6274.08  79.383
 56.0176  6266.99  79.4801
 56.0596  6222.8  79.1948
 56.1016  6177.06  78.9596
 56.1436  6245.22  79.609
 56.1856  6093.52  78.3912
 56.2276  6454.67  80.745
 56.2696  6255.08  79.4504
 56.3116  6358.19  80.4855
 56.3536  6260.11  79.5091
 56.3956  6211.8  79.1954
 56.4376  6214.82  79.2647
 56.4796  6161.07  78.7507
 56.5216  6242.6  79.6358
 56.5636  6168.2  78.7398
 56.6056  6272.07  79.6423
 56.6476  6202.25  78.8114
 56.6896  6324.17  80.031
 56.7316  6201.82  79.173
 56.7736  6150.19  78.8527
 56.8156  6249.31  79.4909
 56.8576  6071.19  78.2956
 56.8996  6164.46  78.7805
 56.9416  6154.65  79.0495
 56.9836  6217.51  78.9727
 57.0256  6112.47  78.6148
 57.0676  6201.44  79.2944
 57.1096  6067.97  78.235
 57.1516  6077.19  78.3289
 57.1936  6067.18  78.0431
 57.2356  5980.2  77.8047
 57.2776  6104.25  78.5521
 57.3196  6158.59  79.266
 57.3616  6054.98  78.0839
 57.4036  6186.05  79.0005
 57.4456  6172.7  78.8765
 57.4876  6191.27  78.8699
 57.5296  6071.11  78.3385
 57.5716  6058.91  78.3622
 57.6136  6008.65  77.8768
 57.6556  6147.64  78.8859
 57.6976  6132.86  78.6326
 57.7396  6056.6  78.4817
 57.7816  6070.71  78.9444
 57.8236  5995.9  78.2464
 57.8656  6129.28  78.7743
 57.9076  6052.05  78.3052
 57.9496  6046.41  78.6209
 57.9916  6085.08  78.3802
 58.0336  6023.34  78.2584
 58.0756  5988.28  77.6203
 58.1176  6036.19  77.9839
 58.1596  5986.53  78.2428
 58.2016  5787.21  76.1615
 58.2436  5901.7  77.3233
 58.2856  5777.5  76.4224
 58.3276  5801.04  76.9441
 58.3696  5771.53  76.5142
 58.4116  5723.68  76.0615
 58.4536  5821.05  76.6011
 58.4956  5732.46  76.1816
 58.5376  5794.65  76.175
 58.5796  5727.43  76.139
 58.6216  5769.77  76.252
 58.6636  5719.58  76.1142
 58.7056  5910.22  77.2248
 58.7476  5786.29  76.8598
 58.7896  5759.35  76.3343
 58.8316  5721.6  76.0835
 58.8736  5843.05  76.8939
 58.9156  5807.76  76.7102
 58.9576  5746.71  76.5995
 58.9996  5863.89  76.6582
 59.0416  5836.78  76.8218
 59.0836  5768.56  76.2898
 59.1256  5805.97  77.2324
 59.1676  5818.38  77.6221
 59.2096  5720.13  76.2645
 59.2516  5749  76.0481
 59.2936  5846.64  77.0139
 59.3356  5511.35  74.6563
 59.3776  5840.65  77.0204
 59.4196  5702.88  76.0448
 59.4616  5549.91  74.8834
 59.5036  5690.65  75.8593
 59.5456  5798.69  76.2776
 59.5876  5827.79  76.6564
 59.6296  5618.71  75.3355
 59.6716  5747.63  76.2514
 59.7136  5803.68  76.6108
 59.7556  5736.22  76.2973
 59.7976  5736.54  76.0481
 59.8396  5777.94  76.2187
 59.8816  5656.54  75.9393
 59.9236  6011.02  77.9293
 59.9656  5799.21  76.7996
 60.0076  5680.85  75.3885
 60.0496  5807.59  76.7186
 60.0916  5850.33  76.4281
 60.1336  5757.05  76.8971
 60.1756  5730.31  77.8716
 60.1996  0.0000000E+00  0.0000000E+00