File: docs/examples/opeando_xrd/IS17_D/Data/IS17_D/17_Db_f00138.xye
# /beamlines/bl04/projects/cycle2025-II/20250340211-lsimonelli/DATA/IS17_D/17_Db_f00138.xye : mythproc.py merge -s 0.006 -l 0.5 -f /beamlines/bl04/inhouse/ff/FlatField/ff_20Nov2024rod8mm60s_17keV.raw -b True -c true -o xye /beamlines/bl04/projects/cycle2025-II/20250340211-lsimonelli/DATA/IS17_D/17_Db_00138.dat
# IsMon = [6753628, 6750245, 6751948]  IsPos = [-1.4999, -2.4884, -3.4988]
# Wave = 0.4962  CalPath /beamlines/bl04/projects/cycle2025-II/20250340211-lsimonelli/DATA/Align/Si_Pos1_25keV_f00001.cal
# Date = 2025-09-25_08:11:14 Dt = 4.8000  Bin = 0.0060  <imon> = 6751940 +/- 1381 (Min/Max) 6750245 / 6753628
# icurr 249.9647  mocoIn 1.7047E-05  mocoOut 0.7996  i15 7.07516e+06  imon 6.75194e+06  i7 3.0000  iEMpd_timer 4.8000  iEMpd_1 3.6607E-08  iEMpd_2 7.8817E-08  iEMpd_3 1.7796E-08  iEMpd_4 4.7981E-08  iEMhp_timer 4.8000  iEMhp_1 4.8831E-06  iEMhp_2 -2.5839E-08  iEMhp_3 -2.5296E-08  iEMhp_4 -2.1237E-08
#      9776
 1.5856  44499.4  216.584
 1.6276  51193.5  228.318
 1.6696  55786.4  237.499
 1.7116  63010  252.901
 1.7536  70896.3  267.119
 1.7956  74772.9  275.01
 1.8376  71579.2  269.499
 1.8796  61705  248.367
 1.9216  51408.7  227.616
 1.9636  43924.9  209.535
 2.0056  39957.5  199.073
 2.0476  37440  194.813
 2.0896  35868.7  189.563
 2.1316  34877.3  186.026
 2.1736  32931.4  182.196
 2.2156  33797.9  183.096
 2.2576  32628.1  180.546
 2.2996  31197.5  177.19
 2.3416  31761.4  177.358
 2.3836  30893.4  175.025
 2.4256  30278.4  173.839
 2.4676  29897.5  172.497
 2.5096  29664.1  171.879
 2.5516  30709.5  178.904
 2.5936  84718.1  290.964
 2.6356  29364  172.167
 2.6776  27722.7  166.185
 2.7196  27303.6  165.413
 2.7616  26907.5  164.002
 2.8036  26489.1  162.879
 2.8456  26487.3  163.516
 2.8876  25679.7  160.875
 2.9296  25572.7  160.663
 2.9716  25218.7  159.031
 3.0136  25148.7  158.881
 3.0556  25198  159.433
 3.0976  25289.4  158.616
 3.1396  24478.2  156.786
 3.1816  24461.3  156.668
 3.2236  24126.4  155.57
 3.2656  24185.2  154.834
 3.3076  23999.2  155.684
 3.3496  24188  155.233
 3.3916  24496.5  156.038
 3.4336  24900.8  157.908
 3.4756  25197.1  158.771
 3.5176  26024.3  161.141
 3.5596  25878.9  163.121
 3.6016  25716  160.239
 3.6436  25102.6  159.432
 3.6856  24512.7  155.859
 3.7276  23885.2  154.929
 3.7696  23588.6  154.138
 3.8116  23198.4  152.764
 3.8536  23407.4  153.378
 3.8956  23244.5  152.663
 3.9376  23808.5  154.778
 3.9796  23082.4  151.896
 4.0216  23147.4  151.154
 4.0636  23129.1  152.547
 4.1056  22984.9  151.741
 4.1476  23513.5  153.783
 4.1896  23581.3  153.843
 4.2316  23589.8  153.71
 4.2736  24034.4  154.956
 4.3156  24151.8  155.562
 4.3576  24915.4  157.903
 4.3996  25147.8  158.918
 4.4416  25838.3  160.667
 4.4836  26893.6  164.083
 4.5256  26972.9  164.923
 4.5676  26319.6  163.174
 4.6096  27263.8  164.718
 4.6516  27727.9  165.819
 4.6936  27502.4  165.973
 4.7356  28175.1  167.811
 4.7776  27561.6  165.803
 4.8196  27608  166.579
 4.8616  26648.5  163.172
 4.9036  26707.1  163.076
 4.9456  26531.3  163.189
 4.9876  26044.1  161.59
 5.0296  26248.2  162.061
 5.0716  25841  161.551
 5.1136  26159.8  162.261
 5.1556  26248.6  162.001
 5.1976  30888.7  175.697
 5.2396  27066.9  164.192
 5.2816  27062.9  164.64
 5.3236  27012.9  164.189
 5.3656  26656.2  164.034
 5.4076  26386.5  163.34
 5.4496  26345.9  162.716
 5.4916  26449.4  162.785
 5.5336  26435.8  162.759
 5.5756  26529.7  163.044
 5.6176  26547.4  162.556
 5.6596  26875  164.532
 5.7016  26939.9  163.996
 5.7436  27197.6  165.057
 5.7856  26896.8  164.211
 5.8276  27109.7  164.582
 5.8696  27445.4  165.764
 5.9116  27281.6  165.869
 5.9536  27812.3  167.205
 5.9956  27905.9  166.888
 6.0376  27923.8  167.558
 6.0796  28235.4  168.324
 6.1216  27979  167.757
 6.1636  28292.6  167.749
 6.2056  28138.2  167.974
 6.2476  28379.6  168.56
 6.2896  28796.3  169.47
 6.3316  28582.8  169.006
 6.3736  28762.1  169.431
 6.4156  28871.4  169.63
 6.4576  28808.4  169.077
 6.4996  28768.7  169.442
 6.5416  29025  170.307
 6.5836  29044.9  170.617
 6.6256  29078.2  170.277
 6.6676  29667.9  171.558
 6.7096  29610.9  172.243
 6.7516  29907  172.767
 6.7936  30651.2  174.287
 6.8356  31387.8  176.488
 6.8776  30696.6  175.34
 6.9196  30410.7  174.914
 6.9616  30944  175.889
 7.0036  31364.5  176.733
 7.0456  31274.5  175.782
 7.0876  31213.8  177.287
 7.1296  31392.6  176.931
 7.1716  31264.9  176.103
 7.2136  30928.1  174.934
 7.2556  31357.2  176.304
 7.2976  31278.6  176.573
 7.3396  31173.3  176.506
 7.3816  31225.3  176.862
 7.4236  31497.4  176.929
 7.4656  32006  177.805
 7.5076  31979.4  177.882
 7.5496  31680.5  177.596
 7.5916  31941.3  178.355
 7.6336  32558.5  179.964
 7.6756  32545.4  179.774
 7.7176  32930.9  181.163
 7.7596  32672.8  181.674
 7.8016  35853.2  192.628
 7.8436  33121  181.821
 7.8856  33249.7  181.777
 7.9276  33805  183.686
 7.9696  34120  184.859
 8.0116  34949.3  185.642
 8.0536  35226.3  186.62
 8.0956  36715.6  191.728
 8.1376  35762.7  188.698
 8.1796  35980.6  189.809
 8.2216  36749.8  190.57
 8.2636  37401.7  192.503
 8.3056  36558.4  191.08
 8.3476  38355  195.04
 8.3896  37143.1  192.014
 8.4316  37060.2  191.969
 8.4736  37285  192.023
 8.5156  37093.9  191.804
 8.5576  37023.4  192.596
 8.5996  36472.2  190.036
 8.6416  36596.4  191.617
 8.6836  36363.1  190.831
 8.7256  37170.5  192.39
 8.7676  38663.6  199.192
 8.8096  38614.4  196.284
 8.8516  37488  192.972
 8.8936  38246.6  194.867
 8.9356  36949.9  191.86
 8.9776  36843.4  191.669
 9.0196  36834.8  191.31
 9.0616  37000.6  191.246
 9.1036  38425.5  196.101
 9.1456  36119.6  189.458
 9.1876  36159  189.505
 9.2296  35843.9  188.117
 9.2716  35671.9  187.701
 9.3136  35400.9  186.982
 9.3556  35870.6  188.185
 9.3976  34936.7  186.242
 9.4396  34740.9  185.628
 9.4816  34990.6  186.143
 9.5236  34455.2  184.604
 9.5656  34258.7  184.446
 9.6076  33733.3  183.557
 9.6496  33795.8  183.604
 9.6916  33569.6  182.941
 9.7336  33940.3  183.738
 9.7756  33548.2  183.949
 9.8176  33356  182.925
 9.8596  33353.7  181.363
 9.9016  32517.6  179.06
 9.9436  32640.2  179.312
 9.9856  32654.1  179.627
 10.0276  31822.2  178.391
 10.0696  32523.9  179.388
 10.1116  31358.3  176.405
 10.1536  31250.9  176.252
 10.1956  30829.7  174.679
 10.2376  30587.7  173.49
 10.2796  30775.5  174.142
 10.3216  30193.5  172.778
 10.3636  30135.3  172.634
 10.4056  31443.5  176.762
 10.4476  32110.8  178.215
 10.4896  34546.4  184.262
 10.5316  32689.1  180.006
 10.5736  29850.7  172.426
 10.6156  29450.3  171.013
 10.6576  33741.7  181.476
 10.6996  29169.2  169.469
 10.7416  28353.6  167.296
 10.7836  28877.4  169.528
 10.8256  27782.2  166.699
 10.8676  27734.5  166.107
 10.9096  27782.7  166.278
 10.9516  27314.4  163.811
 10.9936  28085.4  166.316
 11.0356  27367.4  164.796
 11.0776  28221.3  166.657
 11.1196  27989.5  166.758
 11.1616  26704.1  162.559
 11.2036  27333.3  164.304
 11.2456  28408.9  168.255
 11.2876  27043.3  163.869
 11.3296  26648.1  162.582
 11.3716  27281.8  164.178
 11.4136  26775  163.545
 11.4556  27087.7  164.158
 11.4976  27919.8  165.614
 11.5396  27660  165.021
 11.5816  26426.5  161.741
 11.6236  25840.5  160.17
 11.6656  26171.9  160.329
 11.7076  25331.9  158.572
 11.7496  25406.5  162.824
 11.7916  25652  158.826
 11.8336  24817.4  157.104
 11.8756  25204.3  157.878
 11.9176  24720.6  156.028
 11.9596  24763.3  156.32
 12.0016  24511.3  156.304
 12.0436  24606.4  156.045
 12.0856  24380.8  155.846
 12.1276  24058.1  154.755
 12.1696  24148.7  154.161
 12.2116  24303  154.66
 12.2536  26159.9  161.279
 12.2956  24304.3  154.822
 12.3376  24378.9  155.261
 12.3796  24002.3  154.546
 12.4216  24345.7  154.834
 12.4636  24384.6  155.904
 12.5056  23918.4  153.666
 12.5476  23945.6  153.277
 12.5896  23677  153.057
 12.6316  23829.3  153.689
 12.6736  23809.3  154.123
 12.7156  24083.8  154.835
 12.7576  23740.5  153.982
 12.7996  23902  153.157
 12.8416  23962.2  154.394
 12.8836  24410  155.67
 12.9256  24224.7  154.107
 12.9676  24385.5  155.023
 13.0096  24494.7  156.487
 13.0516  24272.1  154.802
 13.0936  24667.7  156.469
 13.1356  24770.2  155.76
 13.1776  24512.3  155.968
 13.2196  24184.7  154.563
 13.2616  24042  154.427
 13.3036  24460.5  155.717
 13.3456  23973.4  154.518
 13.3876  24718.8  156.165
 13.4296  24449.8  155.485
 13.4716  24369.6  154.853
 13.5136  24509.3  155.433
 13.5556  24281.5  155.335
 13.5976  24452.4  156.049
 13.6396  24606.1  155.896
 13.6816  24626.6  156.432
 13.7236  24941.5  156.991
 13.7656  26504.5  162.308
 13.8076  27696.9  164.555
 13.8496  26837.2  162.679
 13.8916  24866.3  157.704
 13.9336  24017.1  154.278
 13.9756  24093.6  153.893
 14.0176  23746.6  153.461
 14.0596  24346.1  155.302
 14.1016  23646.8  153.491
 14.1436  23785.8  153.06
 14.1856  23232.6  151.569
 14.2276  23289.3  152.23
 14.2696  23312.5  152.158
 14.3116  22734.1  150.178
 14.3536  22412  149.269
 14.3956  22341.2  148.767
 14.4376  22577.6  149.328
 14.4796  22421.2  148.813
 14.5216  21941.9  147.993
 14.5636  22292.3  148.737
 14.6056  22058.1  147.517
 14.6476  21852.5  146.078
 14.6896  21490.7  145.401
 14.7316  21278.3  145.717
 14.7736  21040.7  144.048
 14.8156  20958.2  143.782
 14.8576  20767.9  142.981
 14.8996  20629.7  143.707
 14.9416  20299.1  142.563
 14.9836  20245.6  142.359
 15.0256  19913.3  140.112
 15.0676  19655.9  139.509
 15.1096  19365.4  138.22
 15.1516  19122.2  137.901
 15.1936  19154  137.448
 15.2356  19036.1  137.3
 15.2776  18920.8  136.476
 15.3196  18632.6  136.418
 15.3616  18445.8  135.49
 15.4036  18308  134.854
 15.4456  18878.5  136.583
 15.4876  18251.4  133.983
 15.5296  18009.9  133.377
 15.5716  18003.2  132.958
 15.6136  17948.7  133.083
 15.6556  18582.9  134.644
 15.6976  18038.7  132.955
 15.7396  17904.1  132.839
 15.7816  17856.1  132.175
 15.8236  17163.7  130.268
 15.8656  17566  131.583
 15.9076  17155.2  129.859
 15.9496  18223.8  136.671
 15.9916  17611.1  134.755
 16.0336  17732  132.069
 16.0756  17453.2  131.356
 16.1176  17308.8  130.889
 16.1596  16957.1  130.731
 16.2016  16945.1  129.453
 16.2436  17046.9  130.213
 16.2856  16809  128.804
 16.3276  16460.8  127.907
 16.3696  16812.1  129.088
 16.4116  16533.4  128.448
 16.4536  16586.3  128.475
 16.4956  17078.8  130.098
 16.5376  16832.5  129.355
 16.5796  16365.3  126.909
 16.6216  16390.5  127.292
 16.6636  16284  127.053
 16.7056  16429.2  127.475
 16.7476  16475.4  127.186
 16.7896  16561.1  128.258
 16.8316  16354.5  127.441
 16.8736  16871.9  129.691
 16.9156  16330.2  127.929
 16.9576  16262.1  128.464
 16.9996  16043  128.055
 17.0416  16221.2  127.161
 17.0836  16279.5  127.143
 17.1256  15785.5  125.211
 17.1676  16537.4  128.116
 17.2096  16147.2  126.488
 17.2516  15815.6  124.978
 17.2936  15821.6  125.35
 17.3356  15667.1  124.713
 17.3776  15504.6  124.262
 17.4196  15513.8  124.002
 17.4616  15783.1  124.976
 17.5036  15711.3  125.065
 17.5456  15273.1  123.941
 17.5876  15362  123.339
 17.6296  15242.2  122.695
 17.6716  15390.1  123.868
 17.7136  15793.8  125.601
 17.7556  15183.5  123.461
 17.7976  15150.9  123.055
 17.8396  15103.5  122.369
 17.8816  14854.8  121.925
 17.9236  14932  122.024
 17.9656  14905.2  122.454
 18.0076  15118.3  122.894
 18.0496  15268.1  122.631
 18.0916  18075.1  134.026
 18.1336  16754.1  129.151
 18.1756  15415.7  123.42
 18.2176  15499.2  123.971
 18.2596  14776.7  120.778
 18.3016  15219.9  122.841
 18.3436  15409.1  123.607
 18.3856  15075.7  122.391
 18.4276  14633.4  120.271
 18.4696  14938.8  121.597
 18.5116  14810.3  121.359
 18.5536  14625.1  120.953
 18.5956  14599.8  120.41
 18.6376  14663.1  121.075
 18.6796  14533.7  119.851
 18.7216  14480  120.135
 18.7636  14499.5  120.208
 18.8056  14142.5  118.647
 18.8476  13948.6  118.46
 18.8896  14073.4  118.324
 18.9316  14276.7  119.152
 18.9736  14185.9  118.47
 19.0156  14361.9  119.632
 19.0576  14531.4  119.159
 19.0996  14278.9  118.849
 19.1416  14248.4  119.112
 19.1836  13993  117.646
 19.2256  13923.5  117.572
 19.2676  14124.7  118.51
 19.3096  13908.5  117.849
 19.3516  14063.3  118.455
 19.3936  14024  118.182
 19.4356  14281.5  119.139
 19.4776  14056.4  118.295
 19.5196  14001.7  117.913
 19.5616  13920.5  117.831
 19.6036  13913.3  117.3
 19.6456  13925.8  117.466
 19.6876  14327.6  118.781
 19.7296  14156.8  118.534
 19.7716  13890.4  117.589
 19.8136  14330.2  119.626
 19.8556  14613.8  120.283
 19.8976  14658.1  120.524
 19.9396  14664.5  120.132
 19.9816  14617.6  120.2
 20.0236  14817.6  121.197
 20.0656  14058.6  118.07
 20.1076  14072.5  118.595
 20.1496  13612.8  116.647
 20.1916  14003.3  117.818
 20.2336  13759.8  116.718
 20.2756  13370.6  115.486
 20.3176  13418.7  115.441
 20.3596  13403  115.361
 20.4016  13523.1  115.672
 20.4436  13412.6  115.759
 20.4856  13421  115.582
 20.5276  13207.3  115.122
 20.5696  13397.6  115.388
 20.6116  13398.6  115.679
 20.6536  13227.9  114.452
 20.6956  13110.7  114.076
 20.7376  13074.9  114.139
 20.7796  13132.3  114.073
 20.8216  13321.9  114.61
 20.8636  13467.7  115.61
 20.9056  13793  116.936
 20.9476  13275.7  114.564
 20.9896  13757.3  116.49
 21.0316  13104.7  113.598
 21.0736  13331.4  115.092
 21.1156  13399.1  115.557
 21.1576  13084.6  114.221
 21.1996  13173.9  114.603
 21.2416  13068.1  113.962
 21.2836  13114.9  114.143
 21.3256  13175.3  114.473
 21.3676  13136.1  113.833
 21.4096  13241.2  114.624
 21.4516  12864.2  112.855
 21.4936  12661.5  112.228
 21.5356  12947.5  113.429
 21.5776  12955.3  113.301
 21.6196  12864.1  112.939
 21.6616  12980.8  113.53
 21.7036  12842.6  112.695
 21.7456  12742  112.33
 21.7876  12580.2  111.381
 21.8296  12584.2  111.242
 21.8716  12758.6  112.24
 21.9136  12907.5  113.099
 21.9556  12762.7  112.131
 21.9976  12670.9  111.758
 22.0396  12681.1  112.06
 22.0816  12658.9  112.489
 22.1236  13007.2  113.477
 22.1656  12685.8  112.213
 22.2076  12450.8  110.633
 22.2496  12348.8  110.211
 22.2916  12486.3  110.71
 22.3336  12422.8  111.144
 22.3756  12505.3  111.234
 22.4176  12393.4  110.59
 22.4596  12033.5  109.548
 22.5016  12364.5  110.556
 22.5436  12500.5  111.032
 22.5856  12665.8  112.012
 22.6276  12602  111.862
 22.6696  12499.3  111.763
 22.7116  12405.5  110.857
 22.7536  12459.6  111.074
 22.7956  12430.9  110.284
 22.8376  12130  109.45
 22.8796  12337.1  110.184
 22.9216  12296  110.54
 22.9636  12297.3  109.708
 23.0056  12378.9  110.2
 23.0476  12429.1  110.997
 23.0896  12736.8  111.737
 23.1316  12566.9  111.425
 23.1736  12411.4  113.654
 23.2156  12530.9  111.578
 23.2576  12836.2  113.054
 23.2996  12490.1  111.305
 23.3416  12590.6  112.271
 23.3836  12600.2  111.55
 23.4256  12757.1  112.36
 23.4676  12646.1  111.555
 23.5096  12683.3  112.395
 23.5516  12534.7  111.031
 23.5936  12634.5  112.386
 23.6356  12868.6  113.077
 23.6776  12384.1  111.149
 23.7196  12223.9  110.001
 23.7616  12423.3  110.818
 23.8036  12624.4  111.758
 23.8456  12335.6  110.03
 23.8876  12440.4  110.849
 23.9296  12265.5  110.558
 23.9716  12346.6  110.13
 24.0136  12427.9  111.397
 24.0556  12329.2  110.669
 24.0976  12165  109.745
 24.1396  12156.4  112.329
 24.1816  12367.7  111.705
 24.2236  12201.5  110.584
 24.2656  12183.7  109.971
 24.3076  12094.5  109.84
 24.3496  12090.7  109.702
 24.3916  12185.9  110.18
 24.4336  12210.4  110.5
 24.4756  12037.1  109.597
 24.5176  12017.2  109.14
 24.5596  11850.9  108.486
 24.6016  11731.4  108.245
 24.6436  12039.2  109.152
 24.6856  11791.9  107.765
 24.7276  11732.8  107.832
 24.7696  11822.1  108.345
 24.8116  11614.2  107.574
 24.8536  11722.6  108.07
 24.8956  11499.2  106.771
 24.9376  11631.5  107.303
 24.9796  11594.5  107.509
 25.0216  11548.8  107.402
 25.0636  11524.6  106.945
 25.1056  11244.4  106.341
 25.1476  11398  108.688
 25.1896  11369.1  107.069
 25.2316  11266.6  105.862
 25.2736  11154  104.983
 25.3156  11222.6  105.373
 25.3576  11210.4  105.755
 25.3996  11143.1  105.421
 25.4416  11061.6  105.013
 25.4836  11012.5  105.292
 25.5256  11207.1  105.583
 25.5676  11245.3  105.493
 25.6096  10946.5  104.656
 25.6516  11068.9  104.743
 25.6936  11056.6  104.995
 25.7356  11016.3  104.939
 25.7776  11161.8  105.221
 25.8196  11021.1  104.806
 25.8616  10982.1  104.549
 25.9036  11159.6  104.833
 25.9456  10849.7  103.974
 25.9876  10862.6  104.094
 26.0296  10979.9  104.175
 26.0716  11007.9  104.726
 26.1136  11099.9  105.098
 26.1556  11019.3  104.097
 26.1976  10897.6  104.454
 26.2396  10854.2  103.4
 26.2816  10896.2  104.198
 26.3236  10893.6  104.349
 26.3656  11095.5  105.023
 26.4076  10829.2  103.97
 26.4496  11144.4  105.058
 26.4916  11156.3  105.011
 26.5336  11251.9  105.808
 26.5756  11545.2  107.046
 26.6176  10947.2  104.268
 26.6596  10852  104.107
 26.7016  10758.9  103.434
 26.7436  10858.8  104.038
 26.7856  10490.9  102.255
 26.8276  10636.9  102.929
 26.8696  10690.3  103.059
 26.9116  10511.5  102.122
 26.9536  10602  102.615
 26.9956  10443.2  101.885
 27.0376  10521.1  102.478
 27.0796  10444.3  101.838
 27.1216  10610.3  102.702
 27.1636  10335.4  101.52
 27.2056  10303.8  101.258
 27.2476  10453.1  101.97
 27.2896  10276.5  101.238
 27.3316  10317.5  101.136
 27.3736  10308.3  101.381
 27.4156  10392.5  101.623
 27.4576  10372.9  101.755
 27.4996  10480.1  101.878
 27.5416  10324.4  101.437
 27.5836  10278.7  101.044
 27.6256  10385.8  101.747
 27.6676  10239.7  101.02
 27.7096  10319.9  101.295
 27.7516  10665.5  103.137
 27.7936  10859.6  104.209
 27.8356  10511.5  102.145
 27.8776  10628.4  102.764
 27.9196  10401.7  101.519
 27.9616  10542.3  102.409
 28.0036  10224  100.814
 28.0456  10077.5  100.229
 28.0876  10098.6  100.414
 28.1296  10115.6  100.336
 28.1716  10269.6  101.109
 28.2136  10119.8  100.342
 28.2556  10112.7  100.415
 28.2976  10061.1  100.161
 28.3396  9978.06  99.5048
 28.3816  10017.1  99.7052
 28.4236  10082.4  100.185
 28.4656  9963.79  99.6354
 28.5076  9827.94  98.5946
 28.5496  9908.83  99.2513
 28.5916  9961.34  99.3227
 28.6336  9957.83  99.6506
 28.6756  10074.6  99.4267
 28.7176  9822.68  98.7338
 28.7596  9854.82  98.7918
 28.8016  9799.29  98.5491
 28.8436  9917.94  99.3822
 28.8856  9888.47  99.0794
 28.9276  9771.14  98.7424
 28.9696  9794.77  98.5068
 29.0116  9718.99  98.3215
 29.0536  9519.2  97.5105
 29.0956  9810.06  98.6895
 29.1376  9798.48  98.5982
 29.1796  9718.87  98.2518
 29.2216  9756.51  98.2826
 29.2636  9738.53  98.2593
 29.3056  9650.28  97.6003
 29.3476  9646.81  98.0973
 29.3896  9679.74  98.3903
 29.4316  9517.4  96.9063
 29.4736  9422.19  96.4804
 29.5156  9399.95  96.2929
 29.5576  9539.02  97.7369
 29.5996  9399.02  96.2841
 29.6416  9565.99  97.2525
 29.6836  9572.29  97.2137
 29.7256  9279.71  96.2715
 29.7676  9495.94  97.0473
 29.8096  9411.63  96.5629
 29.8516  9244.16  96.0252
 29.8936  9314.81  96.4848
 29.9356  9321.79  96.2795
 29.9776  9385.25  96.7568
 30.0196  9427.66  96.3712
 30.0616  9327.33  96.2253
 30.1036  9306.29  95.9447
 30.1456  9303.97  96.1606
 30.1876  9291.72  96.0806
 30.2296  9247.25  95.7933
 30.2716  9298.37  95.7023
 30.3136  9259.98  96.3517
 30.3556  9534.01  97.7541
 30.3976  9453.57  98.8412
 30.4396  9781.87  97.8477
 30.4816  9562.04  96.3627
 30.5236  9728.36  97.1855
 30.5656  9556.03  96.9728
 30.6076  9586.54  96.5569
 30.6496  9553.2  96.8047
 30.6916  9301.94  95.6149
 30.7336  9530.82  96.92
 30.7756  9558.17  97.1399
 30.8176  9443.21  96.4803
 30.8596  9579.94  96.91
 30.9016  9352.57  96.1266
 30.9436  9327.19  95.7507
 30.9856  9600.02  97.2448
 31.0276  9456.31  96.153
 31.0696  9336.62  96.0971
 31.1116  9473.49  96.7722
 31.1536  9369.45  96.1144
 31.1956  9415.49  96.4359
 31.2376  9127.81  94.981
 31.2796  9311.87  95.4706
 31.3216  9238.55  95.013
 31.3636  9344.01  96.2668
 31.4056  9222.83  96.9678
 31.4476  9342.1  95.4796
 31.4896  9383.66  96.1886
 31.5316  9416.99  95.7683
 31.5736  9864.05  97.8366
 31.6156  9771.21  97.3804
 31.6576  9603.29  96.6234
 31.6996  9530  95.9074
 31.7416  9496.63  96.8482
 31.7836  9359.33  95.1524
 31.8256  9458.52  95.9079
 31.8676  9573.97  96.4947
 31.9096  9181.23  94.8502
 31.9516  9183.52  95.0373
 31.9936  9103.49  94.4494
 32.0356  9286.07  95.4407
 32.0776  9426.09  96.0301
 32.1196  9227.68  95.1409
 32.1616  9311.53  95.0056
 32.2036  9224.53  95.074
 32.2456  9250.81  95.6072
 32.2876  9231.63  95.0018
 32.3296  9277.23  95.1837
 32.3716  8989.83  93.8265
 32.4136  9120.74  94.7095
 32.4556  9207.9  94.5413
 32.4976  9003.86  93.3975
 32.5396  8926.35  93.058
 32.5816  8984.87  93.4868
 32.6236  9078.24  94.0341
 32.6656  9130.25  94.8498
 32.7076  8937.16  93.5008
 32.7496  8981.22  93.3989
 32.7916  9040.2  93.6708
 32.8336  8988.23  93.4971
 32.8756  9037.5  93.4614
 32.9176  8905.45  93.2633
 32.9596  8996.24  93.8109
 33.0016  9159.19  94.4327
 33.0436  9084.19  94.2236
 33.0856  8844.78  93.0639
 33.1276  8881.01  92.9842
 33.1696  8909.29  92.9663
 33.2116  8982.6  93.5853
 33.2536  9079.4  94.0683
 33.2956  9048.87  94.001
 33.3376  8876.44  92.8358
 33.3796  8931.26  93.3451
 33.4216  8929.66  92.9242
 33.4636  8921.32  93.0407
 33.5056  8761.54  92.449
 33.5476  8905.31  93.1755
 33.5896  8859.83  92.7374
 33.6316  8842.41  92.9424
 33.6736  8683.13  92.3574
 33.7156  8732.78  92.6489
 33.7576  8831.25  92.8094
 33.7996  8901.21  92.9421
 33.8416  8638.52  91.7443
 33.8836  8791.41  92.3322
 33.9256  8850.99  92.691
 33.9676  8758.36  92.1092
 34.0096  8764.56  92.45
 34.0516  8627.66  91.3673
 34.0936  8600.63  91.4936
 34.1356  8825.17  92.4215
 34.1776  8590.16  91.1874
 34.2196  8613.47  91.4842
 34.2616  8557.44  91.3283
 34.3036  8627.86  91.9374
 34.3456  8616.39  91.6435
 34.3876  8682.95  91.9568
 34.4296  8703.63  91.7546
 34.4716  8781.04  92.323
 34.5136  8565.04  91.3773
 34.5556  8551.71  91.5603
 34.5976  8675  92.0234
 34.6396  8615.44  91.4162
 34.6816  8697.05  91.9588
 34.7236  8695.56  91.7184
 34.7656  8644.13  91.6577
 34.8076  8519.77  91.331
 34.8496  8565.95  91.4305
 34.8916  8620.11  91.5816
 34.9336  8705.42  92.0159
 34.9756  8617.92  91.4683
 35.0176  8620.43  92.0147
 35.0596  8720.44  92.3637
 35.1016  8718.66  92.1087
 35.1436  8796.57  92.2093
 35.1856  8574.8  91.1559
 35.2276  8548.88  91.2039
 35.2696  8494.73  91.0932
 35.3116  8456.8  90.9976
 35.3536  8490.08  90.879
 35.3956  8483.24  90.5523
 35.4376  8522.32  91.3217
 35.4796  8422.42  90.8449
 35.5216  8485.95  91.1351
 35.5636  8234.97  90.512
 35.6056  8381.99  90.354
 35.6476  8562.25  91.2034
 35.6896  8509.19  91.017
 35.7316  8453.47  90.6937
 35.7736  8388.29  90.5365
 35.8156  8475.97  90.9866
 35.8576  8536.39  91.5816
 35.8996  8434.32  90.9951
 35.9416  8420.93  90.4293
 35.9836  8490.45  91.1443
 36.0256  8623.31  91.8625
 36.0676  8564.71  91.3166
 36.1096  8581.66  91.5554
 36.1516  8543.83  91.2455
 36.1936  8467.87  90.685
 36.2356  8386.77  90.8968
 36.2776  8378.69  90.3246
 36.3196  8516.68  90.7375
 36.3616  8385.77  90.1663
 36.4036  8380.4  90.2018
 36.4456  8328.25  90.1277
 36.4876  8301.1  89.9258
 36.5296  8276.61  89.8269
 36.5716  8282.47  90.6397
 36.6136  8333.5  89.7051
 36.6556  8314.65  89.7954
 36.6976  8193.68  89.6408
 36.7396  8144.02  89.1039
 36.7816  8048.45  88.9463
 36.8236  8117.35  89.2512
 36.8656  8153.22  89.5181
 36.9076  8022.85  88.682
 36.9496  8090.12  89.0353
 36.9916  8010.61  88.2317
 37.0336  8154.69  89.335
 37.0756  8178.82  89.2607
 37.1176  8033.26  88.7292
 37.1596  8088.29  89.0412
 37.2016  8000.3  88.7798
 37.2436  8234.11  89.376
 37.2856  8060.1  88.6884
 37.3276  8128.36  88.4163
 37.3696  7977.54  88.4671
 37.4116  8044.52  88.7423
 37.4536  8061.45  88.7015
 37.4956  7858.26  87.6234
 37.5376  8285.25  91.5667
 37.5796  8056.12  90.2134
 37.6216  7978.83  88.0626
 37.6636  8206.16  89.1842
 37.7056  8199.66  89.3459
 37.7476  8240.08  89.1025
 37.7896  8004.59  88.3364
 37.8316  8072.6  88.8589
 37.8736  8039.65  88.2147
 37.9156  8205.99  89.1063
 37.9576  8140.64  88.6688
 37.9996  8022.93  87.7354
 38.0416  7955.68  88.1684
 38.0836  8106.69  88.9046
 38.1256  7971.4  88.1366
 38.1676  7999.74  88.4154
 38.2096  8198.64  89.1122
 38.2516  8206.16  89.3805
 38.2936  8244.57  89.3775
 38.3356  8091.62  88.4825
 38.3776  8088.64  88.7207
 38.4196  8038.53  88.2992
 38.4616  7998.6  88.317
 38.5036  8216.83  89.3496
 38.5456  8019.93  89.1152
 38.5876  7995.95  89.0012
 38.6296  7929.34  87.6098
 38.6716  8051.4  88.0877
 38.7136  8037.78  87.9537
 38.7556  7957.66  88.0184
 38.7976  8068.14  88.5562
 38.8396  7986.52  88.5697
 38.8816  7960.2  88.2128
 38.9236  7979.08  88.1211
 38.9656  8024.55  88.2789
 39.0076  8054.61  87.8403
 39.0496  8097.15  88.6303
 39.0916  8112.8  88.3629
 39.1336  8025  88.2956
 39.1756  8044.27  88.4596
 39.2176  7901.08  88.2034
 39.2596  7896.97  88.1068
 39.3016  7965.2  88.071
 39.3436  7849  87.835
 39.3856  8068.05  88.4927
 39.4276  8013.38  88.6978
 39.4696  8018.55  88.3439
 39.5116  8143.3  89.5528
 39.5536  8068.49  89.5712
 39.5956  8051.66  88.5731
 39.6376  7891.48  87.6908
 39.6796  7784.79  86.8369
 39.7216  7933.9  87.767
 39.7636  7929.1  88.2949
 39.8056  8091.2  88.9832
 39.8476  7839.33  87.8424
 39.8896  7951.14  88.0913
 39.9316  7861.11  87.8408
 39.9736  8009.58  88.2411
 40.0156  7927.02  87.6176
 40.0576  7881.13  87.7128
 40.0996  7972.84  87.4044
 40.1416  7943.42  88.0375
 40.1836  7989.52  88.1815
 40.2256  8041.1  88.4968
 40.2676  7933.78  88.0129
 40.3096  7964.25  88.1175
 40.3516  7955.01  88.1763
 40.3936  7996.86  87.9565
 40.4356  7866.06  87.4443
 40.4776  8067.15  88.9523
 40.5196  8017.75  88.812
 40.5616  8139.88  89.1248
 40.6036  7922.23  88.1794
 40.6456  7943.43  87.9036
 40.6876  8116.06  88.8468
 40.7296  7902.46  87.8095
 40.7716  8058.05  88.7886
 40.8136  7871.58  87.7037
 40.8556  7999.25  88.5377
 40.8976  7966.67  88.2775
 40.9396  8037.64  89.0198
 40.9816  8074.71  88.5087
 41.0236  7968.49  87.7194
 41.0656  8064.49  88.7797
 41.1076  7985.73  88.1216
 41.1496  7949.69  87.8235
 41.1916  8015.79  88.5037
 41.2336  7899.05  87.8626
 41.2756  7967.24  87.842
 41.3176  7890.69  88.0262
 41.3596  7974.13  88.2308
 41.4016  7881.23  87.9732
 41.4436  7935.54  88.0632
 41.4856  7976.84  88.4618
 41.5276  7825.89  87.631
 41.5696  7905.86  87.7165
 41.6116  7945.95  88.3147
 41.6536  8049.34  88.7421
 41.6956  8054.82  88.8395
 41.7376  7884.35  87.9252
 41.7796  7897.43  87.8799
 41.8216  8109.04  89.28
 41.8636  7911.27  88.1366
 41.9056  7825.3  87.4431
 41.9476  7916.85  88.187
 41.9896  8012.23  88.3791
 42.0316  8023.35  88.5308
 42.0736  8023.05  88.6318
 42.1156  7957.15  88.1001
 42.1576  7909.24  87.9461
 42.1996  8005.47  88.6031
 42.2416  7922  87.7358
 42.2836  7843.84  87.4144
 42.3256  7879.73  87.7246
 42.3676  8044.55  88.4316
 42.4096  7914.85  87.6952
 42.4516  8029.19  88.3906
 42.4936  7900.15  87.7633
 42.5356  7812  87.4152
 42.5776  7969.9  88.2283
 42.6196  7962.16  88.2418
 42.6616  7767.16  87.3251
 42.7036  7910.77  87.503
 42.7456  7929.23  87.9545
 42.7876  7870.08  87.7139
 42.8296  7865.26  87.5301
 42.8716  7714.96  86.8588
 42.9136  7806.54  87.1629
 42.9556  7852.88  87.5578
 42.9976  7852.73  87.526
 43.0396  7785.01  86.8692
 43.0816  7830.07  87.5074
 43.1236  7753.33  87.1333
 43.1656  7861.05  87.5611
 43.2076  7852.48  87.6215
 43.2496  7761.93  86.9336
 43.2916  7778.86  87.3866
 43.3336  7840  87.563
 43.3756  7844.67  87.3423
 43.4176  7655.42  86.3629
 43.4596  7708.58  86.5213
 43.5016  7694.38  86.8432
 43.5436  7813.45  87.4138
 43.5856  7752.1  87.1029
 43.6276  7719.53  86.8099
 43.6696  7712.23  87.0293
 43.7116  7814.94  87.0926
 43.7536  7741.54  87.1869
 43.7956  7659.38  87.9325
 43.8376  7553.8  85.8668
 43.8796  7700.2  86.7664
 43.9216  7773.68  87.0975
 43.9636  7621.53  86.3565
 44.0056  7669.31  86.8583
 44.0476  7585.54  86.0118
 44.0896  7535.67  86.0717
 44.1316  7675.53  86.3877
 44.1736  7448.4  85.218
 44.2156  7633.31  86.1344
 44.2576  7454.67  85.4348
 44.2996  7643.22  86.4684
 44.3416  7634.97  86.1941
 44.3836  7461.07  85.5335
 44.4256  7534.06  85.5931
 44.4676  7511.18  85.6202
 44.5096  7564.88  86.0717
 44.5516  7519.82  85.7767
 44.5936  7455.87  85.3637
 44.6356  7590.83  85.8707
 44.6776  7502.63  85.69
 44.7196  7564.18  86.3474
 44.7616  7597.95  87.869
 44.8036  7474.95  85.5824
 44.8456  7632.96  86.684
 44.8876  7689.4  86.8435
 44.9296  7815.72  87.0021
 44.9716  7662.63  86.5674
 45.0136  7733.37  86.9053
 45.0556  7767.56  87.0749
 45.0976  7748.53  87.1325
 45.1396  7469.6  85.3143
 45.1816  7609.63  86.0352
 45.2236  7679.15  86.334
 45.2656  7527.58  85.9811
 45.3076  7524.41  85.7457
 45.3496  7587.08  86.4143
 45.3916  7493.68  86.1465
 45.4336  7701.8  87.1713
 45.4756  7562.89  86.2337
 45.5176  7690.59  86.5717
 45.5596  7632.78  86.3642
 45.6016  7552.75  86.3415
 45.6436  7578.6  85.6549
 45.6856  7478.98  85.7556
 45.7276  7423.55  86.7575
 45.7696  7481.5  86.7629
 45.8116  7512.93  86.3811
 45.8536  7565.88  86.5741
 45.8956  7679.7  86.5691
 45.9376  7681.23  86.0324
 45.9796  7586.2  86.1867
 46.0216  7674.65  87.0335
 46.0636  7641.1  85.9629
 46.1056  7535.36  85.3716
 46.1476  7457.03  85.5194
 46.1896  7658.16  86.8206
 46.2316  7612.79  86.4232
 46.2736  7514.49  86.2379
 46.3156  7523.71  85.8776
 46.3576  7551.55  86.2386
 46.3996  7499.02  86.0965
 46.4416  7553.9  85.9924
 46.4836  7505.02  86.0676
 46.5256  7570.5  86.3687
 46.5676  7548.69  86.3697
 46.6096  7661.75  86.9338
 46.6516  7521.09  85.1783
 46.6936  7572.16  85.9713
 46.7356  7637.2  86.4317
 46.7776  7508.36  86.5633
 46.8196  7514.2  86.1859
 46.8616  7318.16  85.0071
 46.9036  7357.46  84.8873
 46.9456  7458.05  85.1035
 46.9876  7411.37  84.918
 47.0296  7469.58  85.9519
 47.0716  7321.81  84.919
 47.1136  7522.56  85.7463
 47.1556  7397.43  84.8963
 47.1976  7588.36  86.064
 47.2396  7478.17  85.8461
 47.2816  7428.7  85.2611
 47.3236  7423.24  85.5972
 47.3656  7500.31  85.9715
 47.4076  7372.11  85.0359
 47.4496  7278.48  84.5933
 47.4916  7379.18  85.3611
 47.5336  7500.48  85.874
 47.5756  7489.92  85.9373
 47.6176  7271.7  84.573
 47.6596  7367.04  84.8381
 47.7016  7485.34  85.3289
 47.7436  7464.17  85.5543
 47.7856  7460.42  85.547
 47.8276  7461.01  85.5973
 47.8696  7384.93  85.2512
 47.9116  7481.36  85.5223
 47.9536  7421.16  85.1126
 47.9956  7337.66  85.3514
 48.0376  7289.2  84.8427
 48.0796  7446.68  85.8772
 48.1216  7408.85  85.4846
 48.1636  7464.33  85.3618
 48.2056  7512.79  85.9153
 48.2476  7577.14  86.5938
 48.2896  7478.22  85.9357
 48.3316  7463.34  85.7958
 48.3736  7405.81  85.4724
 48.4156  7388.43  85.2371
 48.4576  7412.16  85.6719
 48.4996  7484.89  85.5392
 48.5416  7450.08  85.6594
 48.5836  7392.65  84.9998
 48.6256  7489.11  85.7775
 48.6676  7426.79  85.9407
 48.7096  7350.55  84.757
 48.7516  7421.97  85.3166
 48.7936  7184.14  84.0059
 48.8356  7371.77  85.1432
 48.8776  7452.34  86.1891
 48.9196  7479.9  85.7021
 48.9616  7349.02  85.3416
 49.0036  7507.47  86.6074
 49.0456  7317.45  85.4939
 49.0876  7435.87  85.6992
 49.1296  7315.16  85.1655
 49.1716  7334.44  85.1552
 49.2136  7426.23  85.6118
 49.2556  7351.44  85.211
 49.2976  7460.73  85.9056
 49.3396  7293.74  84.9975
 49.3816  7421.75  85.1533
 49.4236  7376  85.3339
 49.4656  7276.83  84.7706
 49.5076  7463.97  85.5958
 49.5496  7370.34  85.1225
 49.5916  7332.47  84.8163
 49.6336  7242.45  84.4953
 49.6756  7442.09  85.8968
 49.7176  7297.98  84.9978
 49.7596  7389.38  85.293
 49.8016  7423.58  85.4166
 49.8436  7296.41  84.9844
 49.8856  7269.77  84.8306
 49.9276  7176.06  84.3837
 49.9696  7295.28  85.0579
 50.0116  7353.09  85.5416
 50.0536  7312.61  85.2426
 50.0956  7251.5  84.9534
 50.1376  7294.53  84.9036
 50.1796  7121.87  84.1586
 50.2216  7289.3  85.1469
 50.2636  7283.32  84.7169
 50.3056  7218.29  84.5169
 50.3476  7299.41  85.01
 50.3896  7215.33  84.4928
 50.4316  7206.85  84.2657
 50.4736  7043.18  83.5258
 50.5156  7148.62  84.1454
 50.5576  7335.16  84.9872
 50.5996  7239.36  84.7203
 50.6416  7263.66  84.781
 50.6836  7346.88  85.3247
 50.7256  7268.12  84.7905
 50.7676  7281.58  85.1905
 50.8096  7303.99  84.8452
 50.8516  7153.29  84.3912
 50.8936  7222.86  84.5784
 50.9356  7399.34  85.7207
 50.9776  7216.74  84.8226
 51.0196  7111.48  84.3371
 51.0616  7122.21  83.7123
 51.1036  7187.8  84.4611
 51.1456  7173.7  84.2875
 51.1876  7149.94  83.4706
 51.2296  7129.35  83.9972
 51.2716  7000.83  82.9417
 51.3136  7083.09  83.8998
 51.3556  6952.96  82.7398
 51.3976  6980.91  83.0506
 51.4396  7002.76  83.5072
 51.4816  7061.63  83.7091
 51.5236  7170.82  84.4421
 51.5656  7093.1  83.5703
 51.6076  6976.43  82.962
 51.6496  6886.93  82.6222
 51.6916  6995.46  83.6307
 51.7336  6893.5  83.1157
 51.7756  6940.53  83.0907
 51.8176  7000.65  83.5625
 51.8596  6907.6  83.0194
 51.9016  7263.47  84.7239
 51.9436  7086.57  85.1983
 51.9856  7093.56  85.6453
 52.0276  6949.42  83.2583
 52.0696  7248.83  85.0982
 52.1116  6992.62  83.712
 52.1536  7111.67  84.2851
 52.1956  7057.34  83.4247
 52.2376  7339.86  85.2528
 52.2796  7123.81  83.8141
 52.3216  6895.61  83.1513
 52.3636  7218.91  84.6284
 52.4056  6962.64  82.9753
 52.4476  6886.05  82.8818
 52.4896  7008.81  83.6756
 52.5316  7121.98  84.3916
 52.5736  6796.74  82.1688
 52.6156  7057.85  84.1287
 52.6576  6962.08  82.9903
 52.6996  6841.04  83.2618
 52.7416  6839.18  83.1035
 52.7836  6987.42  83.8865
 52.8256  7000.87  83.1636
 52.8676  6921.32  83.2727
 52.9096  7089.03  84.3346
 52.9516  6921.62  83.7494
 52.9936  6996.02  84.5694
 53.0356  6989.46  83.5188
 53.0776  7055.83  84.1915
 53.1196  7000.32  83.9817
 53.1616  7092.66  84.5866
 53.2036  6898.17  83.3834
 53.2456  6818.8  83.0084
 53.2876  6988.55  83.7218
 53.3296  7035.09  84.3342
 53.3716  6990.3  83.8016
 53.4136  6937.82  83.6487
 53.4556  6946.12  83.7228
 53.4976  6896.53  83.261
 53.5396  6912.56  83.7646
 53.5816  6908.57  83.3628
 53.6236  6906.63  83.7164
 53.6656  6950.41  83.5828
 53.7076  6999.05  83.8247
 53.7496  7006.48  84.0014
 53.7916  6932.38  83.6997
 53.8336  7003.96  84.0072
 53.8756  6864.89  83.7313
 53.9176  6853.72  83.0046
 53.9596  6743.93  83.1065
 54.0016  6677.6  82.0288
 54.0436  6587.74  81.6943
 54.0856  6774.03  82.2557
 54.1276  6693.41  81.9553
 54.1696  6661.26  81.9271
 54.2116  6802.25  82.5295
 54.2536  6700.08  81.7081
 54.2956  6706.16  81.8192
 54.3376  6575.98  81.5011
 54.3796  6586.74  81.4692
 54.4216  6724.75  82.3739
 54.4636  6650.14  81.8612
 54.5056  6660.44  81.7381
 54.5476  6504.59  81.132
 54.5896  6696.15  82.1422
 54.6316  6645.48  81.6554
 54.6736  6660.03  81.8471
 54.7156  6552.52  81.2165
 54.7576  6430.89  80.4496
 54.7996  6686.3  82.1634
 54.8416  6546.13  81.3733
 54.8836  6675.23  82.2571
 54.9256  6511.49  81.002
 54.9676  6552.22  81.1145
 55.0096  6495.33  80.7762
 55.0516  6441.79  80.6946
 55.0936  6546.79  81.0181
 55.1356  6447  80.4355
 55.1776  6637.33  81.8475
 55.2196  6565.96  81.1925
 55.2616  6683.55  82.1495
 55.3036  6531.38  81.3896
 55.3456  6436.07  80.9299
 55.3876  6397.8  80.4043
 55.4296  6438.46  80.6785
 55.4716  6449.56  80.7799
 55.5136  6449.4  80.5181
 55.5556  6679.28  82.0162
 55.5976  6430.41  80.5447
 55.6396  6540.13  81.1511
 55.6816  6439.6  80.4124
 55.7236  6397.34  80.2053
 55.7656  6555.73  80.9272
 55.8076  6390.77  79.9012
 55.8496  6476.45  80.7351
 55.8916  6398.78  80.4573
 55.9336  6524.28  81.0634
 55.9756  6513.42  80.8915
 56.0176  6461.67  80.706
 56.0596  6264.83  79.4836
 56.1016  6291.62  79.6535
 56.1436  6412.03  80.6713
 56.1856  6294.75  79.6772
 56.2276  6553.33  81.3439
 56.2696  6496.05  80.9748
 56.3116  6533.61  81.5986
 56.3536  6455.52  80.7513
 56.3956  6392.24  80.3252
 56.4376  6338.94  80.0689
 56.4796  6311.18  79.7071
 56.5216  6311.41  80.0771
 56.5636  6404.45  80.2405
 56.6056  6478.87  80.9204
 56.6476  6424.55  80.2081
 56.6896  6621.47  81.893
 56.7316  6362.93  80.2101
 56.7736  6397.57  80.4251
 56.8156  6336.91  80.0463
 56.8576  6247.23  79.4261
 56.8996  6410.99  80.3484
 56.9416  6285.15  79.8825
 56.9836  6401.35  80.1352
 57.0256  6305.11  79.8377
 57.0676  6424.73  80.7092
 57.1096  6255.62  79.4481
 57.1516  6172.92  78.9668
 57.1936  6223.79  79.0351
 57.2356  6213.69  79.3127
 57.2776  6388.99  80.3882
 57.3196  6279.83  80.0523
 57.3616  6214.92  79.1216
 57.4036  6310.78  79.7964
 57.4456  6415.43  80.424
 57.4876  6359.27  79.9466
 57.5296  6229.61  79.4501
 57.5716  6210.68  79.3326
 57.6136  6164.25  78.8798
 57.6556  6246.82  79.5235
 57.6976  6291.67  79.6491
 57.7396  6174  79.2479
 57.7816  6053.92  78.8351
 57.8236  6150.66  79.2296
 57.8656  6275.7  79.7224
 57.9076  6252.02  79.5713
 57.9496  6248.75  79.9332
 57.9916  6230.93  79.3179
 58.0336  6234.81  79.6268
 58.0756  6304.53  79.7026
 58.1176  6301.49  79.6752
 58.1596  6250.74  79.9512
 58.2016  6143.29  78.4801
 58.2436  6039.25  78.2189
 58.2856  5977.58  77.745
 58.3276  6017.13  78.3625
 58.3696  5936.15  77.6005
 58.4116  6057.23  78.2475
 58.4536  6023.03  77.9149
 58.4956  5914.99  77.3918
 58.5376  6146.79  78.4618
 58.5796  5879.61  77.1539
 58.6216  5871.42  76.9239
 58.6636  5960.45  77.7119
 58.7056  5915.46  77.276
 58.7476  6045.51  78.5662
 58.7896  5889.91  77.1976
 58.8316  5914.92  77.3583
 58.8736  6112.89  78.6511
 58.9156  5925.81  77.4796
 58.9576  5908.78  77.6825
 58.9996  5967.6  77.3304
 59.0416  6008.09  77.9518
 59.0836  5994.23  77.7619
 59.1256  5925.28  78.0258
 59.1676  5975.7  78.6635
 59.2096  5984.88  78.032
 59.2516  6118.91  78.4792
 59.2936  5960.35  77.7817
 59.3356  5886.11  77.175
 59.3776  5922.74  77.5821
 59.4196  5805.17  76.746
 59.4616  5864.69  76.9999
 59.5036  5908.81  77.3237
 59.5456  6009.22  77.6723
 59.5876  5913.42  77.2398
 59.6296  5866.34  76.9999
 59.6716  5978.18  77.7881
 59.7136  5944.39  77.5563
 59.7556  5908.92  77.4596
 59.7976  5845.92  76.7918
 59.8396  5915.47  77.1426
 59.8816  5879.93  77.4483
 59.9236  5848.29  76.8894
 59.9656  5911.14  77.5596
 60.0076  5996.8  77.4789
 60.0496  5941.76  77.6224
 60.0916  5946.79  77.0778
 60.1336  5871.29  77.6787
 60.1756  5899.84  79.0379
 60.1996  0.0000000E+00  0.0000000E+00