File: docs/examples/opeando_xrd/IS17_D/Data/IS17_D/17_Da_f00117.xye
# /beamlines/bl04/projects/cycle2025-II/20250340211-lsimonelli/DATA/IS17_D/17_Da_f00117.xye : mythproc.py merge -s 0.006 -l 0.5 -f /beamlines/bl04/inhouse/ff/FlatField/ff_20Nov2024rod8mm60s_17keV.raw -b True -c true -o xye /beamlines/bl04/projects/cycle2025-II/20250340211-lsimonelli/DATA/IS17_D/17_Da_00117.dat
# IsMon = [6755273, 6756480, 6758574]  IsPos = [-1.4999, -2.4884, -3.4988]
# Wave = 0.4962  CalPath /beamlines/bl04/projects/cycle2025-II/20250340211-lsimonelli/DATA/Align/Si_Pos1_25keV_f00001.cal
# Date = 2025-09-25_02:10:17 Dt = 4.8000  Bin = 0.0060  <imon> = 6756776 +/- 1364 (Min/Max) 6755273 / 6758574
# icurr 250.1648  mocoIn 1.7061E-05  mocoOut 0.8009  i15 7.07919e+06  imon 6.75678e+06  i7 6.0000  iEMpd_timer 4.8000  iEMpd_1 3.5124E-08  iEMpd_2 7.9749E-08  iEMpd_3 1.7032E-08  iEMpd_4 4.7601E-08  iEMhp_timer 4.8000  iEMhp_1 4.8878E-06  iEMhp_2 -2.4095E-08  iEMhp_3 -2.4665E-08  iEMhp_4 -2.0869E-08
#      9776
 1.5856  40807.5  207.454
 1.6276  47889.6  220.879
 1.6696  54119.6  233.979
 1.7116  62983.6  252.908
 1.7536  72530.5  270.243
 1.7956  76748.1  278.684
 1.8376  72642.9  271.558
 1.8796  61764.1  248.558
 1.9216  50059.8  224.663
 1.9636  42321  205.723
 2.0056  38497.3  195.448
 2.0476  35350.6  189.343
 2.0896  33973.2  184.53
 2.1316  33320.6  181.87
 2.1736  31530.3  178.32
 2.2156  32049.6  178.34
 2.2576  30855.5  175.612
 2.2996  29698.9  172.923
 2.3416  30355  173.428
 2.3836  29816.8  171.989
 2.4256  28705.7  169.304
 2.4676  28562.2  168.641
 2.5096  28215.2  167.668
 2.5516  27622.8  169.735
 2.5936  27880.3  167.081
 2.6356  27182.9  165.674
 2.6776  26932.4  163.796
 2.7196  26756.9  163.776
 2.7616  26800.9  163.686
 2.8036  26402.5  162.639
 2.8456  26451.8  163.415
 2.8876  25913.2  161.616
 2.9296  25459.2  160.324
 2.9716  25215.1  159.04
 3.0136  25066.4  158.637
 3.0556  25106.3  159.167
 3.0976  24948.8  157.586
 3.1396  24620.2  157.267
 3.1816  24447.4  156.652
 3.2236  24412.4  156.533
 3.2656  24193.8  154.862
 3.3076  23942.5  155.518
 3.3496  24400.3  155.925
 3.3916  24644.4  156.527
 3.4336  25046  158.381
 3.4756  25356.9  159.29
 3.5176  26205.8  161.722
 3.5596  25979.3  163.468
 3.6016  26173.8  161.672
 3.6436  25327.3  160.146
 3.6856  24850.6  156.912
 3.7276  23910.9  155.017
 3.7696  23717.3  154.576
 3.8116  23251.1  152.939
 3.8536  23469.7  153.59
 3.8956  23392  153.162
 3.9376  23191.3  152.759
 3.9796  23128.2  152.055
 4.0216  23307.6  151.674
 4.0636  23317.9  153.199
 4.1056  23329.1  152.869
 4.1476  23445.4  153.574
 4.1896  23647.2  154.084
 4.2316  23825.1  154.489
 4.2736  24213.8  155.53
 4.3156  24504.3  156.689
 4.3576  25264.7  159.03
 4.3996  25452.3  159.881
 4.4416  25954.8  161.032
 4.4836  26288.7  162.217
 4.5256  26760.5  164.286
 4.5676  26724.9  164.43
 4.6096  27311.4  164.867
 4.6516  27550.3  165.295
 4.6936  27888  167.119
 4.7356  27988  167.253
 4.7776  27964.1  167.012
 4.8196  27707.9  166.9
 4.8616  27216  164.893
 4.9036  26874.6  163.6
 4.9456  26863.4  164.214
 4.9876  26300.3  162.388
 5.0296  26591.3  163.096
 5.0716  26529.2  163.687
 5.1136  26653.1  163.775
 5.1556  26835.8  163.799
 5.1976  27277.1  165.139
 5.2396  27456.7  165.376
 5.2816  27455.3  165.84
 5.3236  27567.9  165.879
 5.3656  26915.3  164.824
 5.4076  26833  164.728
 5.4496  26903.4  164.424
 5.4916  27145.6  164.916
 5.5336  27061.2  164.666
 5.5756  26744.7  163.731
 5.6176  26924.1  163.716
 5.6596  27197.1  165.524
 5.7016  27261.9  164.982
 5.7436  27596.8  166.267
 5.7856  27347.9  165.572
 5.8276  27954.4  167.116
 5.8696  27914.8  167.173
 5.9116  27807  167.455
 5.9536  27977.6  167.724
 5.9956  28312.1  168.085
 6.0376  28299.2  168.685
 6.0796  28827.3  170.082
 6.1216  28770.8  170.115
 6.1636  28936.4  169.661
 6.2056  28841.9  170.049
 6.2476  29085.9  170.646
 6.2896  29386.5  171.202
 6.3316  29154.6  170.702
 6.3736  29377.6  171.245
 6.4156  29573.8  171.714
 6.4576  29793.1  171.951
 6.4996  29991.3  173
 6.5416  29763.7  172.486
 6.5836  29816.8  172.871
 6.6256  30133.7  173.345
 6.6676  30621.8  174.307
 6.7096  30294.5  174.235
 6.7516  30746.4  175.18
 6.7936  31203.3  175.893
 6.8356  31158.9  175.846
 6.8776  31434.8  177.435
 6.9196  31507.2  178.044
 6.9616  31913.1  178.628
 7.0036  32274.1  179.281
 7.0456  32330.8  178.73
 7.0876  32211.6  180.099
 7.1296  32245.1  179.326
 7.1716  32333.3  179.102
 7.2136  32058.3  178.12
 7.2556  32209.8  178.703
 7.2976  32303  179.463
 7.3396  32219.2  179.447
 7.3816  32023.6  179.117
 7.4236  32679.9  180.224
 7.4656  32590  179.453
 7.5076  32924  180.509
 7.5496  32738.2  180.539
 7.5916  32808.6  180.767
 7.6336  33207.8  181.759
 7.6756  33432.8  182.225
 7.7176  33757.7  183.424
 7.7596  33588.3  184.217
 7.8016  34130.7  187.912
 7.8436  34485.2  185.511
 7.8856  34910.4  186.262
 7.9276  35464.5  188.125
 7.9696  35621.6  188.859
 8.0116  36449.3  189.56
 8.0536  36691.2  190.448
 8.0956  36685.4  191.618
 8.1376  37277.4  192.628
 8.1796  37239.2  193.077
 8.2216  37993.1  193.746
 8.2636  38235.2  194.614
 8.3056  38205.3  195.316
 8.3476  38848.9  196.273
 8.3896  38415.9  195.259
 8.4316  38727.9  196.218
 8.4736  38756.1  195.747
 8.5156  38623.9  195.693
 8.5576  38549.9  196.506
 8.5996  38173.3  194.394
 8.6416  38186.2  195.71
 8.6836  38129.2  195.384
 8.7256  38475.6  195.711
 8.7676  37745.2  196.77
 8.8096  37751.2  194.073
 8.8516  37512.4  193.067
 8.8936  37073.2  191.818
 8.9356  37228.8  192.58
 8.9776  37560.6  193.535
 9.0196  37086.4  191.977
 9.0616  37492.4  192.494
 9.1036  37044.2  192.54
 9.1456  36824.2  191.307
 9.1876  36729.8  191.016
 9.2296  37041.3  191.226
 9.2716  36382.5  189.576
 9.3136  36463.6  189.764
 9.3556  36707.6  190.389
 9.3976  35334.5  187.333
 9.4396  35764.1  188.358
 9.4816  35159.6  186.618
 9.5236  35227.9  186.707
 9.5656  34872.4  186.086
 9.6076  34937.8  186.798
 9.6496  34358.1  185.166
 9.6916  34481.3  185.463
 9.7336  34645.9  185.688
 9.7756  34886.1  187.605
 9.8176  33812.6  184.205
 9.8596  33847.1  182.729
 9.9016  33348.1  181.37
 9.9436  33108.9  180.631
 9.9856  32571.6  179.387
 10.0276  32386.9  179.994
 10.0696  32848.7  180.294
 10.1116  31834.4  177.756
 10.1536  31787.5  177.793
 10.1956  31402.5  176.31
 10.2376  30755  173.987
 10.2796  31072.2  175.008
 10.3216  30631.9  174.031
 10.3636  30365  173.306
 10.4056  30005.9  172.679
 10.4476  29944.4  172.123
 10.4896  29795.7  171.148
 10.5316  29340.4  170.546
 10.5736  29363.4  171.023
 10.6156  28654.3  168.716
 10.6576  29082.1  168.526
 10.6996  28599.2  167.782
 10.7416  28388  167.406
 10.7836  28514.7  168.464
 10.8256  28075.8  167.595
 10.8676  28234.7  167.602
 10.9096  27668.2  165.951
 10.9516  27740.6  165.09
 10.9936  27667.7  165.066
 11.0356  27482.2  165.156
 11.0776  27469.2  164.424
 11.1196  26871.8  163.373
 11.1616  26895.1  163.134
 11.2036  26910.2  163.032
 11.2456  26838.1  163.522
 11.2876  26635.3  162.632
 11.3296  26436.6  161.921
 11.3716  26661.9  162.306
 11.4136  26758.3  163.506
 11.4556  26989.5  163.865
 11.4976  27170.3  163.378
 11.5396  27723.5  165.203
 11.5816  28137  166.907
 11.6236  27712.8  165.868
 11.6656  27041.7  162.992
 11.7076  26512.3  162.236
 11.7496  26038.9  164.757
 11.7916  25891.5  159.582
 11.8336  25711.2  159.916
 11.8756  25427.1  158.566
 11.9176  25689.4  159.03
 11.9596  25196.8  157.686
 12.0016  25132.3  158.29
 12.0436  25003.1  157.304
 12.0856  24767.7  157.087
 12.1276  24814.7  157.154
 12.1696  24939.3  156.67
 12.2116  25169.1  157.382
 12.2536  24707.5  156.774
 12.2956  24693.7  156.056
 12.3376  24536.2  155.776
 12.3796  24718.1  156.802
 12.4216  24698.7  155.963
 12.4636  24254.1  155.467
 12.5056  24488.2  155.481
 12.5476  24774.6  155.914
 12.5896  24614  156.045
 12.6316  24263.8  155.09
 12.6736  24304.7  155.708
 12.7156  24295  155.541
 12.7576  24705.2  157.097
 12.7996  24585.4  155.345
 12.8416  24190.6  155.148
 12.8836  24849.9  157.072
 12.9256  25080.4  156.796
 12.9676  25027.3  157.064
 13.0096  24708.1  157.173
 13.0516  25023.7  157.193
 13.0936  24980.2  157.46
 13.1356  25515  158.105
 13.1776  25096.7  157.802
 13.2196  25244  157.918
 13.2616  25103  157.79
 13.3036  25198.8  158.064
 13.3456  25128.9  158.2
 13.3876  25119.4  157.46
 13.4296  25140.2  157.674
 13.4716  25199.1  157.456
 13.5136  25190.8  157.584
 13.5556  25219.1  158.298
 13.5976  25022.8  157.83
 13.6396  25355.4  158.234
 13.6816  25037.4  157.742
 13.7236  25584.5  159.094
 13.7656  24741.9  156.99
 13.8076  25178.3  157.134
 13.8496  24798.9  156.556
 13.8916  24868.5  157.78
 13.9336  24906.8  157.124
 13.9756  24623.4  155.572
 14.0176  24703.4  156.515
 14.0596  24489.5  155.803
 14.1016  24350.5  155.756
 14.1436  24174.1  154.315
 14.1856  23822.8  153.489
 14.2276  23615.8  153.307
 14.2696  23899.4  154.059
 14.3116  23529.6  152.753
 14.3536  23050.4  151.383
 14.3956  23182.4  151.543
 14.4376  23210.1  151.406
 14.4796  23306.6  151.711
 14.5216  22777.8  150.786
 14.5636  22617.2  149.817
 14.6056  22733.9  149.775
 14.6476  22807.6  149.241
 14.6896  22417.3  148.504
 14.7316  21941.9  147.961
 14.7736  21945.2  147.107
 14.8156  21782.6  146.595
 14.8576  21724.7  146.254
 14.8996  21304.8  146.052
 14.9416  20731.1  144.069
 14.9836  20928.2  144.704
 15.0256  20872.7  143.423
 15.0676  20874.1  143.754
 15.1096  20722.4  142.965
 15.1516  20126.6  141.458
 15.1936  20137.6  140.917
 15.2356  19953.5  140.553
 15.2776  20140  140.787
 15.3196  19617.4  139.961
 15.3616  19807.8  140.386
 15.4036  19485.8  139.091
 15.4456  19591.5  139.124
 15.4876  19317.4  137.817
 15.5296  19376.3  138.329
 15.5716  18887.1  136.161
 15.6136  18973.6  136.812
 15.6556  18893.6  135.749
 15.6976  18545.9  134.788
 15.7396  18603.3  135.389
 15.7816  18546  134.69
 15.8236  18192.4  134.099
 15.8656  18424.2  134.74
 15.9076  17932.2  132.757
 15.9496  17946.7  135.621
 15.9916  17900.7  135.903
 16.0336  17598.8  131.624
 16.0756  17822.4  132.766
 16.1176  17624.5  132.095
 16.1596  17245.6  131.853
 16.2016  17511.4  131.589
 16.2436  17297.1  131.181
 16.2856  17123.4  130.058
 16.3276  17041.1  130.167
 16.3696  17115.3  130.266
 16.4116  16687.7  129.091
 16.4536  17138.9  130.611
 16.4956  16917.8  129.502
 16.5376  16675  128.752
 16.5796  16741  128.363
 16.6216  16922.8  129.367
 16.6636  16755.2  128.879
 16.7056  16667.2  128.406
 16.7476  16690.6  128.024
 16.7896  16725.4  128.91
 16.8316  16656.3  128.612
 16.8736  16656.6  128.878
 16.9156  16611.2  129.034
 16.9576  16504.1  129.431
 16.9996  16640.6  130.455
 17.0416  16810.7  129.454
 17.0836  16659.3  128.628
 17.1256  16486.1  127.97
 17.1676  16441.8  127.787
 17.2096  16364.1  127.36
 17.2516  16193.9  126.471
 17.2936  16089.8  126.406
 17.3356  15795.7  125.242
 17.3776  15801  125.451
 17.4196  15989  125.889
 17.4616  15650.7  124.467
 17.5036  15595.4  124.615
 17.5456  15539.7  125.04
 17.5876  15378.3  123.43
 17.6296  15397.7  123.325
 17.6716  15232.8  123.236
 17.7136  15176.1  123.152
 17.7556  15227.6  123.649
 17.7976  15054.9  122.693
 17.8396  15082.8  122.301
 17.8816  14972  122.392
 17.9236  14875.7  121.813
 17.9656  15053.1  123.071
 18.0076  15093.9  122.81
 18.0496  14984.8  121.498
 18.0916  14927.9  121.807
 18.1336  14836.1  121.53
 18.1756  14985.5  121.667
 18.2176  14724.1  120.831
 18.2596  14801.1  120.883
 18.3016  14756.5  120.955
 18.3436  14783  121.065
 18.3856  14556.7  120.273
 18.4276  14777.7  120.857
 18.4696  14563.1  120.068
 18.5116  14702.5  120.931
 18.5536  14758.7  121.518
 18.5956  14495.2  119.983
 18.6376  14475.4  120.311
 18.6796  14341.5  119.073
 18.7216  14577.8  120.544
 18.7636  14470.3  120.085
 18.8056  14477.2  120.056
 18.8476  14308.6  119.98
 18.8896  14382.3  119.622
 18.9316  14487.5  120.042
 18.9736  14356.1  119.189
 19.0156  14296.6  119.353
 19.0576  14357.9  118.469
 19.0996  14555.6  119.998
 19.1416  14384.2  119.69
 19.1836  14254.2  118.745
 19.2256  14241.4  118.903
 19.2676  14273.2  119.135
 19.3096  14378.6  119.818
 19.3516  14277  119.354
 19.3936  14278.6  119.258
 19.4356  14272.7  119.102
 19.4776  14328.6  119.436
 19.5196  14410  119.622
 19.5616  14264.6  119.276
 19.6036  14197.3  118.486
 19.6456  14216.9  118.692
 19.6876  14300.3  118.681
 19.7296  14299.9  119.143
 19.7716  14078.2  118.378
 19.8136  14326.5  119.628
 19.8556  14454.4  119.63
 19.8976  14401.1  119.476
 19.9396  14483  119.389
 19.9816  14881.6  121.261
 20.0236  14991.8  121.938
 20.0656  15225.5  122.877
 20.1076  15148.9  123.054
 20.1496  15167.1  123.131
 20.1916  14789.8  121.092
 20.2336  14774.1  120.956
 20.2756  14295.3  119.419
 20.3176  14257.9  119.003
 20.3596  14099.2  118.314
 20.4016  14009  117.737
 20.4436  14093.9  118.657
 20.4856  13731.3  116.915
 20.5276  13762.8  117.51
 20.5696  13839  117.292
 20.6116  13741.1  117.155
 20.6536  13760.8  116.731
 20.6956  13538.5  115.915
 20.7376  13611  116.458
 20.7796  13580.4  116.013
 20.8216  13740  116.395
 20.8636  13428.2  115.432
 20.9056  13455.3  115.503
 20.9476  13397.9  115.1
 20.9896  13507  115.431
 21.0316  13566.6  115.574
 21.0736  13443.5  115.58
 21.1156  13406.5  115.571
 21.1576  13406.4  115.626
 21.1996  13368.3  115.447
 21.2416  13235  114.702
 21.2836  13390.5  115.325
 21.3256  13188  114.547
 21.3676  13351  114.792
 21.4096  13261  114.715
 21.4516  13301.3  114.77
 21.4936  13068.3  114.018
 21.5356  13192.2  114.489
 21.5776  13305  114.818
 21.6196  13104.8  113.987
 21.6616  12967.6  113.473
 21.7036  13101.2  113.836
 21.7456  13299.6  114.77
 21.7876  12999.6  113.216
 21.8296  12998.2  113.068
 21.8716  12957.5  113.127
 21.9136  13220.7  114.471
 21.9556  12928  112.867
 21.9976  12798.2  112.315
 22.0396  12901.3  113.019
 22.0816  13038.3  114.168
 22.1236  13101.7  113.892
 22.1656  13095.8  113.996
 22.2076  13187.1  113.848
 22.2496  13032.7  113.21
 22.2916  13218.3  113.887
 22.3336  12987  113.626
 22.3756  13079.5  113.745
 22.4176  12926.4  112.932
 22.4596  12652.1  112.314
 22.5016  13075.5  113.656
 22.5436  13025.6  113.327
 22.5856  13027.5  113.587
 22.6276  12922.6  113.269
 22.6696  12812.5  113.136
 22.7116  12895  113.012
 22.7536  12999.1  113.44
 22.7956  13005.4  112.789
 22.8376  12921.6  112.95
 22.8796  12785.4  112.152
 22.9216  13019  113.729
 22.9636  12940.6  112.529
 23.0056  12781  111.966
 23.0476  13027.2  113.614
 23.0896  13233.9  113.88
 23.1316  12912.2  112.932
 23.1736  12911.6  115.915
 23.2156  13111.3  114.13
 23.2576  12976.1  113.678
 23.2996  12941.1  113.301
 23.3416  12853.8  113.449
 23.3836  12865.8  112.725
 23.4256  13017.2  113.504
 23.4676  12729.1  111.939
 23.5096  12832.4  113.074
 23.5516  12931.7  112.785
 23.5936  12962.3  113.83
 23.6356  13142.5  114.276
 23.6776  12767.1  112.852
 23.7196  12594.8  111.662
 23.7616  12912.4  112.974
 23.8036  12919.9  113.046
 23.8456  12877.4  112.428
 23.8876  12533.7  111.279
 23.9296  12675.6  112.403
 23.9716  12598.9  111.249
 24.0136  12686  112.538
 24.0556  12556  111.689
 24.0976  12277.8  110.255
 24.1396  12350.2  113.25
 24.1816  12526.4  112.455
 24.2236  12303.2  111.06
 24.2656  12259.2  110.33
 24.3076  12182.7  110.234
 24.3496  12272.9  110.533
 24.3916  12207.4  110.289
 24.4336  12039.2  109.733
 24.4756  12113.2  109.934
 24.5176  11867.8  108.471
 24.5596  11985.3  109.131
 24.6016  11720.9  108.21
 24.6436  12014.3  109.041
 24.6856  11895.9  108.262
 24.7276  11880.4  108.51
 24.7696  11635.2  107.497
 24.8116  11781.6  108.355
 24.8536  11650  107.745
 24.8956  11568  107.101
 24.9376  11625.7  107.306
 24.9796  11530.1  107.22
 25.0216  11402.4  106.734
 25.0636  11629.9  107.443
 25.1056  11403.2  107.101
 25.1476  11560.1  109.511
 25.1896  11638.6  108.338
 25.2316  11556.2  107.211
 25.2736  11575.9  106.957
 25.3156  11398.9  106.209
 25.3576  11365.5  106.477
 25.3996  11434.2  106.785
 25.4416  11297  106.124
 25.4836  11185.4  106.124
 25.5256  11214.9  105.625
 25.5676  11357.8  106.021
 25.6096  11126.7  105.511
 25.6516  11318.2  105.914
 25.6936  11129.8  105.34
 25.7356  11245.8  106.025
 25.7776  11335.9  106.046
 25.8196  10962.8  104.525
 25.8616  11216.3  105.639
 25.9036  11147.3  104.79
 25.9456  11232  105.79
 25.9876  11054.1  105.012
 26.0296  11240.6  105.401
 26.0716  11073.4  105.041
 26.1136  11172.6  105.448
 26.1556  11305.4  105.443
 26.1976  11052.6  105.195
 26.2396  11136.4  104.733
 26.2816  11246.1  105.871
 26.3236  11053.4  105.117
 26.3656  10967.8  104.432
 26.4076  11135.7  105.447
 26.4496  11596.5  107.071
 26.4916  11186.2  105.167
 26.5336  11131  105.241
 26.5756  11583.5  107.175
 26.6176  10993  104.497
 26.6596  10814.7  103.948
 26.7016  10930.9  104.267
 26.7436  10778  103.671
 26.7856  10728.6  103.41
 26.8276  10863.1  104.016
 26.8696  10812.3  103.647
 26.9116  10797.5  103.512
 26.9536  10661.9  102.905
 26.9956  10784.2  103.525
 27.0376  10670.9  103.201
 27.0796  10840.3  103.752
 27.1216  10526.9  102.311
 27.1636  10608.5  102.872
 27.2056  10679.7  103.099
 27.2476  10670.7  103.056
 27.2896  10652.2  103.077
 27.3316  10573  102.398
 27.3736  10506.6  102.352
 27.4156  10413.8  101.743
 27.4576  10587.6  102.817
 27.4996  10427.4  101.635
 27.5416  10527.5  102.437
 27.5836  10569.9  102.463
 27.6256  10792.2  103.697
 27.6676  10723.4  103.382
 27.7096  10508.3  102.216
 27.7516  10456.8  102.113
 27.7936  10406.9  102.044
 27.8356  10303.2  101.152
 27.8776  10411.5  101.726
 27.9196  10253.7  100.806
 27.9616  10303.7  101.234
 28.0036  10204.3  100.72
 28.0456  10291.3  101.278
 28.0876  10266.3  101.254
 28.1296  10236.1  100.943
 28.1716  10197.9  100.763
 28.2136  10315.4  101.3
 28.2556  10142.9  100.573
 28.2976  10229.8  100.99
 28.3396  10226.6  100.73
 28.3816  10211.4  100.681
 28.4236  10240.4  100.978
 28.4656  10108.5  100.362
 28.5076  10087.2  99.8926
 28.5496  10288.4  101.149
 28.5916  10197.5  100.503
 28.6336  10140.6  100.573
 28.6756  10097.4  99.551
 28.7176  10047.4  99.859
 28.7596  9909.92  99.0667
 28.8016  10076  99.9318
 28.8436  9935.22  99.4705
 28.8856  9945.44  99.3746
 28.9276  9989.26  99.8368
 28.9696  9866.5  98.8748
 29.0116  10025.2  99.859
 29.0536  9866.06  99.2622
 29.0956  9875.54  99.0299
 29.1376  9860.12  98.9147
 29.1796  9855.59  98.9436
 29.2216  9963.38  99.3181
 29.2636  9814.45  98.6524
 29.3056  9775.28  98.2417
 29.3476  9856.9  99.1788
 29.3896  9950.61  99.747
 29.4316  9962.19  99.132
 29.4736  9832.15  98.5458
 29.5156  9992.57  99.2637
 29.5576  9904.22  99.5812
 29.5996  9919.88  98.9051
 29.6416  9714.51  97.9916
 29.6836  10021.8  99.4557
 29.7256  9775.15  98.7967
 29.7676  9892.64  99.0419
 29.8096  9729.22  98.1665
 29.8516  9811.76  98.9113
 29.8936  9679.56  98.3418
 29.9356  9920.03  99.3081
 29.9776  9754.44  98.6307
 30.0196  9845.42  98.4712
 30.0616  9772.4  98.4827
 30.1036  9719.81  98.0394
 30.1456  9677.02  98.0565
 30.1876  9782.66  98.5721
 30.2296  9688.14  98.0379
 30.2716  9797.85  98.2275
 30.3136  9858.87  99.4046
 30.3556  9772.75  98.9872
 30.3976  9602.54  99.6476
 30.4396  9653.74  97.2401
 30.4816  9770.95  97.4095
 30.5236  9621.33  96.6909
 30.5656  9550.93  96.9859
 30.6076  9644.89  96.8912
 30.6496  9687.71  97.4931
 30.6916  9566.29  96.968
 30.7336  9596.76  97.281
 30.7756  9501.76  96.8907
 30.8176  9621.05  97.4113
 30.8596  9827.76  98.2169
 30.9016  9556.44  97.1936
 30.9436  9737.61  97.8599
 30.9856  9561.93  97.0848
 31.0276  9652.34  97.138
 31.0696  9457.66  96.7357
 31.1116  9523.3  97.0484
 31.1536  9528.13  96.9535
 31.1956  9350.7  96.1372
 31.2376  9408.72  96.4339
 31.2796  9471.85  96.3017
 31.3216  9440.23  96.0849
 31.3636  9510.89  97.1427
 31.4056  9513.02  98.4809
 31.4476  9393.81  95.7487
 31.4896  9374.47  96.1559
 31.5316  9432.93  95.8479
 31.5736  9423.84  95.6146
 31.6156  9419.62  95.6218
 31.6576  9508.27  96.1661
 31.6996  9491.86  95.7514
 31.7416  9315.96  95.9294
 31.7836  9268.38  94.6977
 31.8256  9299.98  95.1303
 31.8676  9489.18  96.0834
 31.9096  9213.74  95.0388
 31.9516  9167.88  94.9671
 31.9936  9260.66  95.2684
 32.0356  9339.72  95.7405
 32.0776  9293.89  95.3909
 32.1196  9237.49  95.1911
 32.1616  9571.05  96.3425
 32.2036  9314.85  95.5591
 32.2456  9241.55  95.5663
 32.2876  9272.04  95.2149
 32.3296  9264.12  95.139
 32.3716  9135.65  94.5841
 32.4136  9163.09  94.9283
 32.4556  9306.44  95.0458
 32.4976  9179  94.3016
 32.5396  9232.96  94.6505
 32.5816  9134.77  94.2658
 32.6236  9201.7  94.6831
 32.6656  9275.12  95.6047
 32.7076  9107.71  94.3888
 32.7496  9155.96  94.3061
 32.7916  9217.88  94.5828
 32.8336  9029.77  93.7097
 32.8756  9258.31  94.6065
 32.9176  9120.97  94.3894
 32.9596  9047.63  94.0789
 33.0016  9060.17  93.9409
 33.0436  9269.64  95.1971
 33.0856  9100.43  94.3903
 33.1276  8984.23  93.5246
 33.1696  9185.14  94.4036
 33.2116  9239.65  94.9128
 33.2536  9165.34  94.5318
 33.2956  9179.17  94.6877
 33.3376  9050.6  93.7592
 33.3796  9113.77  94.2964
 33.4216  9159.18  94.122
 33.4636  9147.88  94.2147
 33.5056  9000  93.6948
 33.5476  8914.95  93.2395
 33.5896  9080.77  93.8697
 33.6316  8911.97  93.3179
 33.6736  8900.95  93.4919
 33.7156  8973.3  93.9253
 33.7576  9097.49  94.1857
 33.7996  9179.67  94.3722
 33.8416  8847.18  92.8424
 33.8836  8949.36  93.1476
 33.9256  8896.17  92.9368
 33.9676  9051.65  93.6365
 34.0096  8848.97  92.9014
 34.0516  8949.73  93.0626
 34.0936  8897.69  93.0586
 34.1356  9016.58  93.418
 34.1776  8847.87  92.5477
 34.2196  8827.56  92.624
 34.2616  8777.98  92.4967
 34.3036  8709.93  92.3923
 34.3456  8691.81  92.0474
 34.3876  8907.24  93.144
 34.4296  8837.49  92.4612
 34.4716  8849.73  92.6828
 34.5136  8701.75  92.1095
 34.5556  8758.19  92.6593
 34.5976  8842.44  92.9063
 34.6396  8705.97  91.8979
 34.6816  8791.31  92.4604
 34.7236  8739.95  91.9737
 34.7656  8738.59  92.1608
 34.8076  8635.97  91.9438
 34.8496  8738.06  92.3409
 34.8916  8745  92.2514
 34.9336  8807.74  92.5353
 34.9756  8690.6  91.8361
 35.0176  8726.45  92.5752
 35.0596  8738.01  92.4555
 35.1016  8731.5  92.1797
 35.1436  8958.52  93.0586
 35.1856  8607.2  91.3426
 35.2276  8741.3  92.2218
 35.2696  8665.1  92.0127
 35.3116  8714.09  92.3679
 35.3536  8488.89  90.8795
 35.3956  8645.23  91.4188
 35.4376  8578.1  91.6264
 35.4796  8671.01  92.1708
 35.5216  8612.07  91.8144
 35.5636  8561.08  92.3006
 35.6056  8616.22  91.6037
 35.6476  8695.95  91.9208
 35.6896  8706.48  92.0694
 35.7316  8561.15  91.2733
 35.7736  8579.36  91.5623
 35.8156  8461.78  90.9321
 35.8576  8658.57  92.2449
 35.8996  8622.17  92.0126
 35.9416  8439.23  90.5388
 35.9836  8495.92  91.1928
 36.0256  8552.29  91.5143
 36.0676  8618.94  91.6275
 36.1096  8631.82  91.8307
 36.1516  8556.72  91.3168
 36.1936  8422.39  90.4496
 36.2356  8512.76  91.5783
 36.2776  8519.83  91.0891
 36.3196  8491.25  90.6067
 36.3616  8581.76  91.2208
 36.4036  8514.6  90.9204
 36.4456  8516.76  91.1511
 36.4876  8422.32  90.5779
 36.5296  8555.34  91.326
 36.5716  8458.71  91.6011
 36.6136  8564.35  90.9255
 36.6556  8596.33  91.2992
 36.6976  8525.57  91.4282
 36.7396  8468.87  90.8548
 36.7816  8439.51  91.0717
 36.8236  8464.27  91.1295
 36.8656  8428.09  91.0086
 36.9076  8308.64  90.2372
 36.9496  8347.65  90.4311
 36.9916  8407.39  90.3823
 37.0336  8569.67  91.5717
 37.0756  8381.22  90.3503
 37.1176  8241.07  89.862
 37.1596  8467.38  91.0934
 37.2016  8268.49  90.2445
 37.2436  8627.1  91.4803
 37.2856  8378.02  90.413
 37.3276  8441.8  90.094
 37.3696  8263.43  90.028
 37.4116  8477.85  91.0869
 37.4536  8178.84  89.3372
 37.4956  8264.6  89.8432
 37.5376  8311.07  91.6779
 37.5796  8200.85  91.0247
 37.6216  8085.99  88.6528
 37.6636  8219.58  89.2771
 37.7056  8270.14  89.7417
 37.7476  8268.78  89.2726
 37.7896  8252.46  89.6838
 37.8316  8065.1  88.8393
 37.8736  8242.52  89.3217
 37.9156  8270.06  89.4763
 37.9576  8184.15  88.8948
 37.9996  8135.66  88.3494
 38.0416  8126.37  89.1211
 38.0836  8330.46  90.1341
 38.1256  8234.75  89.5668
 38.1676  8082.11  88.8756
 38.2096  8003.22  88.0642
 38.2516  8299.46  89.8854
 38.2936  8135.66  88.7973
 38.3356  8316.83  89.6878
 38.3776  8192.79  89.2958
 38.4196  8255.71  89.4892
 38.4616  8215.98  89.5123
 38.5036  8260.07  89.5932
 38.5456  8186.83  90.0486
 38.5876  8129.73  89.7629
 38.6296  8063.34  88.3688
 38.6716  7997.78  87.7983
 38.7136  7955.98  87.5152
 38.7556  7985.91  88.1819
 38.7976  8123.16  88.8765
 38.8396  8049.76  88.929
 38.8816  7961.47  88.214
 38.9236  8066.99  88.6142
 38.9656  8023.82  88.2896
 39.0076  8037.73  87.7699
 39.0496  8027.39  88.2526
 39.0916  8078.46  88.1699
 39.1336  8015.75  88.2518
 39.1756  8028.88  88.394
 39.2176  8032.09  88.9464
 39.2596  8087.52  89.1729
 39.3016  7990.39  88.1934
 39.3436  7943.88  88.3747
 39.3856  8098.53  88.6737
 39.4276  8133.62  89.3621
 39.4696  8023.08  88.3778
 39.5116  7949.47  88.4879
 39.5536  8207.73  90.3477
 39.5956  8179.6  89.2782
 39.6376  8161.62  89.1805
 39.6796  8053.49  88.3291
 39.7216  8066.2  88.4939
 39.7636  8051.44  88.9898
 39.8056  8073.84  88.893
 39.8476  8009.93  88.794
 39.8896  8036.47  88.5679
 39.9316  7907.84  88.113
 39.9736  8197.75  89.2741
 40.0156  8064.61  88.3631
 40.0576  8017.58  88.474
 40.0996  8181.33  88.5419
 40.1416  8105.51  88.9329
 40.1836  8167.6  89.1555
 40.2256  8007.08  88.3236
 40.2676  8030.77  88.5622
 40.3096  8200.7  89.4116
 40.3516  8156.83  89.2861
 40.3936  8180.19  88.9719
 40.4356  8129.14  88.8806
 40.4776  8084.32  89.0609
 40.5196  8078.73  89.1556
 40.5616  8166.99  89.2805
 40.6036  8062.79  88.9556
 40.6456  8130.57  88.9424
 40.6876  8206.9  89.3474
 40.7296  8201.3  89.4561
 40.7716  8067.19  88.8507
 40.8136  8085.67  88.8947
 40.8556  8090.3  89.0549
 40.8976  8187.88  89.5064
 40.9396  8089.97  89.3265
 40.9816  8188.33  89.1418
 41.0236  8245.39  89.2244
 41.0656  8280.13  89.9662
 41.1076  8130.64  88.9172
 41.1496  8152.23  88.9446
 41.1916  8037.32  88.6423
 41.2336  8078.96  88.8621
 41.2756  8050.31  88.3039
 41.3176  7998.53  88.6384
 41.3596  8246.35  89.7273
 41.4016  8124.09  89.3176
 41.4436  8154.74  89.2709
 41.4856  8147.3  89.3975
 41.5276  8058.87  88.929
 41.5696  8065.44  88.5929
 41.6116  7964.03  88.4316
 41.6536  8117.38  89.1299
 41.6956  8072.38  88.946
 41.7376  8117.02  89.2147
 41.7796  8021.1  88.5662
 41.8216  8013.03  88.7618
 41.8636  8082.05  89.0809
 41.9056  7976.2  88.28
 41.9476  8065.3  89.0145
 41.9896  8019.91  88.4256
 42.0316  8035.62  88.5959
 42.0736  7966.37  88.3269
 42.1156  8007.82  88.3903
 42.1576  7999.57  88.4419
 42.1996  8038.63  88.8038
 42.2416  8128.61  88.8745
 42.2836  8003.42  88.3041
 42.3256  8020.63  88.5138
 42.3676  8000.96  88.2096
 42.4096  7963.13  87.954
 42.4516  7991.23  88.204
 42.4936  7940.02  87.9914
 42.5356  8029.7  88.6219
 42.5776  8004.7  88.4216
 42.6196  8038.29  88.6623
 42.6616  7820.99  87.6283
 42.7036  8042.75  88.2363
 42.7456  7936.02  88.0088
 42.7876  7931.98  88.0766
 42.8296  7956.36  88.0518
 42.8716  7968.18  88.2773
 42.9136  7983.37  88.1518
 42.9556  7879.99  87.7076
 42.9976  8010.04  88.3938
 43.0396  7991.76  88.016
 43.0816  7861.23  87.6819
 43.1236  7806.27  87.4321
 43.1656  7893.6  87.7493
 43.2076  7843.37  87.5744
 43.2496  7793.45  87.1047
 43.2916  7916.82  88.1627
 43.3336  7850.48  87.6315
 43.3756  7830.39  87.2759
 43.4176  7721.35  86.7436
 43.4596  7819.69  87.1479
 43.5016  7953.23  88.3024
 43.5436  7835.45  87.535
 43.5856  7833.13  87.5554
 43.6276  7777.37  87.1389
 43.6696  7794.5  87.4948
 43.7116  7940.28  87.8002
 43.7536  7860.9  87.8585
 43.7956  7687.07  88.0788
 43.8376  7729.6  86.8518
 43.8796  7775.97  87.1884
 43.9216  7629.93  86.2833
 43.9636  7755.68  87.1017
 44.0056  7680.2  86.9097
 44.0476  7661.28  86.4296
 44.0896  7611.73  86.4946
 44.1316  7866.53  87.446
 44.1736  7633.56  86.2679
 44.2156  7805.36  87.0794
 44.2576  7728.27  86.9763
 44.2996  7844.27  87.6026
 44.3416  7749.88  86.8303
 44.3836  7512.33  85.818
 44.4256  7666.3  86.331
 44.4676  7611.44  86.1811
 44.5096  7608.93  86.3111
 44.5516  7669.27  86.6067
 44.5936  7566.87  85.9903
 44.6356  7608.39  85.9621
 44.6776  7777.64  87.2351
 44.7196  7674.69  86.9667
 44.7616  7707.95  88.4987
 44.8036  7558.6  86.0556
 44.8456  7574.13  86.3462
 44.8876  7575.32  86.2074
 44.9296  7734.96  86.5586
 44.9716  7587.48  86.1646
 45.0136  7601.87  86.1723
 45.0556  7648.31  86.4117
 45.0976  7610.58  86.3597
 45.1396  7530.31  85.6671
 45.1816  7435.63  85.0597
 45.2236  7594.14  85.8629
 45.2656  7485.02  85.7448
 45.3076  7552.57  85.9072
 45.3496  7420.93  85.4642
 45.3916  7506.47  86.2216
 45.4336  7540.18  86.2624
 45.4756  7485  85.7969
 45.5176  7535.05  85.699
 45.5596  7548.53  85.9009
 45.6016  7438.99  85.6893
 45.6436  7444.53  84.9039
 45.6856  7419.39  85.4207
 45.7276  7459.98  86.981
 45.7696  7495.38  86.8517
 45.8116  7456.5  86.0665
 45.8536  7467.5  86.0227
 45.8956  7483.69  85.4618
 45.9376  7430.52  84.6251
 45.9796  7407.97  85.1789
 46.0216  7481.86  85.9503
 46.0636  7600.76  85.7589
 46.1056  7404.25  84.6339
 46.1476  7364.41  84.9966
 46.1896  7448.39  85.6285
 46.2316  7487.31  85.7195
 46.2736  7231.42  84.6092
 46.3156  7428.13  85.3371
 46.3576  7418.94  85.4873
 46.3996  7378.89  85.4168
 46.4416  7448.16  85.3833
 46.4836  7431.36  85.6529
 46.5256  7449.03  85.691
 46.5676  7381.58  85.4163
 46.6096  7460.87  85.8034
 46.6516  7475.72  84.9205
 46.6936  7461.66  85.343
 46.7356  7508.45  85.7194
 46.7776  7327.82  85.5208
 46.8196  7299.81  84.954
 46.8616  7298.41  84.8886
 46.9036  7237.43  84.1995
 46.9456  7333.96  84.39
 46.9876  7279.79  84.1639
 47.0296  7191.71  84.3327
 47.0716  7195.72  84.1826
 47.1136  7302.52  84.4874
 47.1556  7259.54  84.1006
 47.1976  7280.84  84.3082
 47.2396  7237.4  84.449
 47.2816  7272.13  84.356
 47.3236  7323.25  85.0248
 47.3656  7328.93  84.9859
 47.4076  7172.93  83.8709
 47.4496  7197.05  84.1103
 47.4916  7174.77  84.1674
 47.5336  7184.75  84.0518
 47.5756  7249.76  84.5458
 47.6176  7169.66  83.9702
 47.6596  7175.5  83.7231
 47.7016  7347.99  84.5436
 47.7436  7259.66  84.3707
 47.7856  7272.46  84.4696
 47.8276  7109.86  83.5704
 47.8696  7160.86  83.9527
 47.9116  7250.97  84.1876
 47.9536  7166.14  83.64
 47.9956  7074.25  83.8037
 48.0376  7103.18  83.7544
 48.0796  7229.3  84.6142
 48.1216  7287.53  84.7724
 48.1636  7309.01  84.4784
 48.2056  7213.7  84.1871
 48.2476  7256.65  84.7473
 48.2896  7150.4  84.0374
 48.3316  7113.36  83.7614
 48.3736  7033.59  83.3089
 48.4156  7091.47  83.5037
 48.4576  7011.4  83.3206
 48.4996  7163.42  83.6758
 48.5416  7228.37  84.3846
 48.5836  7143.33  83.5655
 48.6256  7202.69  84.1147
 48.6676  7119.32  84.1422
 48.7096  7121.45  83.4256
 48.7516  7032.72  83.0484
 48.7936  7051.61  83.2225
 48.8356  6993.53  82.9309
 48.8776  7091.59  84.0788
 48.9196  7197.02  84.0709
 48.9616  6972.72  83.1306
 49.0036  7066.88  84.0346
 49.0456  6971.26  83.4358
 49.0876  7111.58  83.8118
 49.1296  6911.72  82.7794
 49.1716  6928  82.7547
 49.2136  7041.04  83.3521
 49.2556  7052.73  83.4611
 49.2976  6925.39  82.7727
 49.3396  6964.83  83.0565
 49.3816  7146.63  83.5695
 49.4236  6920.26  82.6553
 49.4656  7036.09  83.3561
 49.5076  7054.72  83.2169
 49.5496  6940.7  82.6086
 49.5916  6968.72  82.6867
 49.6336  6981.16  82.9686
 49.6756  7058.02  83.6601
 49.7176  7016.52  83.3494
 49.7596  6965.75  82.8152
 49.8016  7059.71  83.2938
 49.8436  6890.93  82.5795
 49.8856  6964.37  83.0314
 49.9276  6932.72  82.9341
 49.9696  6961.35  83.0964
 50.0116  6997.4  83.4399
 50.0536  6913.51  82.8882
 50.0956  6879.23  82.747
 50.1376  6922.74  82.7089
 50.1796  6952.13  83.1583
 50.2216  6904.69  82.865
 50.2636  6862.68  82.2338
 50.3056  6815.55  82.1266
 50.3476  6842.32  82.3048
 50.3896  6821.79  82.1511
 50.4316  6895.49  82.4353
 50.4736  6878.4  82.5522
 50.5156  6879.24  82.5494
 50.5576  6880.51  82.3141
 50.5996  6832.73  82.307
 50.6416  6813.22  82.1218
 50.6836  6909.05  82.7511
 50.7256  6839.4  82.2445
 50.7676  6896.56  82.9259
 50.8096  6793.22  81.8421
 50.8516  6790.09  82.2367
 50.8936  6774.01  81.9134
 50.9356  6763.38  81.9594
 50.9776  6834.75  82.5388
 51.0196  6636.22  81.4615
 51.0616  6708.77  81.2355
 51.1036  6677.01  81.394
 51.1456  6857.05  82.3968
 51.1876  6788.21  81.3267
 51.2296  6754.69  81.7569
 51.2716  6717.17  81.2343
 51.3136  6724.46  81.7368
 51.3556  6885.22  82.3267
 51.3976  6743.39  81.6279
 51.4396  6610.77  81.1236
 51.4816  6688.23  81.4506
 51.5236  6723.37  81.748
 51.5656  6720.75  81.3366
 51.6076  6682.5  81.1895
 51.6496  6746.26  81.7627
 51.6916  6605.9  81.2653
 51.7336  6630.84  81.507
 51.7756  6625.31  81.169
 51.8176  6667.65  81.5377
 51.8596  6648.11  81.4361
 51.9016  6788.81  81.8985
 51.9436  6639.09  82.4464
 51.9856  6569.85  82.4448
 52.0276  6616.43  81.2491
 52.0696  6602.32  81.2308
 52.1116  6653.53  81.6542
 52.1536  6616.85  81.3225
 52.1956  6724.73  81.4339
 52.2376  6722.95  81.6056
 52.2796  6617.77  80.7818
 52.3216  6525.13  80.8963
 52.3636  6505.25  80.3531
 52.4056  6603.2  80.8089
 52.4476  6610.14  81.2236
 52.4896  6562.18  80.9796
 52.5316  6525.23  80.7884
 52.5736  6659.76  81.3436
 52.6156  6614  81.4391
 52.6576  6596.8  80.7861
 52.6996  6367.78  80.3315
 52.7416  6572.46  81.4607
 52.7836  6606.3  81.5515
 52.8256  6642.44  80.988
 52.8676  6433.95  80.2845
 52.9096  6554.38  81.1215
 52.9516  6579.38  81.6481
 52.9936  6488.07  81.4719
 53.0356  6378.25  79.7944
 53.0776  6409.09  80.2452
 53.1196  6458.65  80.6828
 53.1616  6384.35  80.263
 53.2036  6456.08  80.6705
 53.2456  6373.63  80.257
 53.2876  6467.64  80.5463
 53.3296  6468.28  80.877
 53.3716  6421.7  80.3322
 53.4136  6434.7  80.565
 53.4556  6390.77  80.3171
 53.4976  6469.97  80.6623
 53.5396  6354.27  80.3261
 53.5816  6435.72  80.4763
 53.6236  6283.3  79.8497
 53.6656  6352.36  79.9257
 53.7076  6459.63  80.5556
 53.7496  6475.73  80.776
 53.7916  6592.57  81.6298
 53.8336  6303.85  79.7181
 53.8756  6255.86  79.9634
 53.9176  6491.82  80.7978
 53.9596  6494.88  81.5799
 54.0016  6409.64  80.3798
 54.0436  6354.85  80.2489
 54.0856  6431.99  80.159
 54.1276  6408.03  80.2089
 54.1696  6398.58  80.3251
 54.2116  6444.54  80.3677
 54.2536  6354.66  79.6192
 54.2956  6490.94  80.5155
 54.3376  6374.29  80.2733
 54.3796  6411.12  80.4059
 54.4216  6509.46  81.0653
 54.4636  6417  80.448
 54.5056  6339.12  79.7779
 54.5476  6374.41  80.3358
 54.5896  6357.51  80.0611
 54.6316  6362.67  79.9496
 54.6736  6402.41  80.2754
 54.7156  6453.22  80.6146
 54.7576  6300.83  79.6552
 54.7996  6407.22  80.46
 54.8416  6424.93  80.6207
 54.8836  6270.57  79.7616
 54.9256  6323  79.8386
 54.9676  6461.06  80.5612
 55.0096  6322.55  79.7677
 55.0516  6366.23  80.2752
 55.0936  6403.47  80.1338
 55.1356  6249.53  79.2127
 55.1776  6307.54  79.8452
 55.2196  6290.27  79.5151
 55.2616  6333.92  80.001
 55.3036  6218.8  79.4373
 55.3456  6379.12  80.5975
 55.3876  6356.81  80.2045
 55.4296  6369.51  80.2557
 55.4716  6276.13  79.7071
 55.5136  6342.74  79.8832
 55.5556  6223.46  79.2007
 55.5976  6239.98  79.3577
 55.6396  6212.33  79.1296
 55.6816  6287.14  79.4868
 55.7236  6402.91  80.2452
 55.7656  6310.96  79.4352
 55.8076  6350.85  79.6687
 55.8496  6277.46  79.525
 55.8916  6251.88  79.5701
 55.9336  6261.5  79.4473
 55.9756  6261.37  79.3302
 56.0176  6259.68  79.478
 56.0596  6330.58  79.9135
 56.1016  6311.61  79.793
 56.1436  6282.85  79.8799
 56.1856  6232.96  79.3081
 56.2276  6270.77  79.6022
 56.2696  6323.21  79.9113
 56.3116  6234.4  79.7473
 56.3536  6297.02  79.8058
 56.3956  6321.53  79.9497
 56.4376  6255.33  79.556
 56.4796  6341.05  79.9072
 56.5216  6282.54  79.9098
 56.5636  6272.41  79.4377
 56.6056  6242  79.4733
 56.6476  6307.59  79.5204
 56.6896  6243.44  79.5626
 56.7316  6223.83  79.3487
 56.7736  6273.32  79.6606
 56.8156  6282.12  79.7045
 56.8576  6242.51  79.3966
 56.8996  6284.67  79.6078
 56.9416  6277.81  79.8674
 56.9836  6228  79.0613
 57.0256  6151.86  78.8957
 57.0676  6193.38  79.2861
 57.1096  6270.21  79.5647
 57.1516  6267.16  79.6077
 57.1936  6251.82  79.2569
 57.2356  6260.63  79.6308
 57.2776  6248.22  79.5105
 57.3196  6289.56  80.1498
 57.3616  6218.4  79.1827
 57.4036  6243.8  79.4036
 57.4456  6229.13  79.2796
 57.4876  6240.02  79.2031
 57.5296  6175.71  79.1347
 57.5716  6270.41  79.7302
 57.6136  6258.93  79.4722
 57.6556  6289.9  79.8141
 57.6976  6209.93  79.1153
 57.7396  6087.45  78.7155
 57.7816  6113.73  79.2371
 57.8236  6157.1  79.3172
 57.8656  6216.41  79.3517
 57.9076  6201.54  79.2848
 57.9496  6190.86  79.5693
 57.9916  6181.24  79.018
 58.0336  6131.11  78.9758
 58.0756  6202.09  79.0654
 58.1176  6215.77  79.1459
 58.1596  6141.7  79.2383
 58.2016  6352.84  79.7981
 58.2436  6340.66  80.1454
 58.2856  6231.49  79.3691
 58.3276  6275.39  80.0277
 58.3696  6206.95  79.333
 58.4116  6167.6  78.947
 58.4536  6211.25  79.1135
 58.4956  6117.97  78.6994
 58.5376  6213.55  78.8765
 58.5796  6268.81  79.6548
 58.6216  6181.43  78.9179
 58.6636  6313.81  79.9718
 58.7056  6279.35  79.6089
 58.7476  6103.67  78.9342
 58.7896  6144.32  78.8323
 58.8316  6151.01  78.8746
 58.8736  6268.22  79.6308
 58.9156  6208.19  79.2962
 58.9576  6326.3  80.3753
 58.9996  6338.94  79.681
 59.0416  6381.9  80.319
 59.0836  6281.82  79.6152
 59.1256  6123.88  79.3122
 59.1676  6134.51  79.6865
 59.2096  6287.91  79.9725
 59.2516  6364.6  80.0287
 59.2936  6120.3  78.808
 59.3356  6455.62  80.8117
 59.3776  6290.08  79.9412
 59.4196  6142.71  78.9346
 59.4616  6287.37  79.7159
 59.5036  6166.99  78.9846
 59.5456  6405.94  80.1846
 59.5876  6423.17  80.4894
 59.6296  6153.62  78.8523
 59.6716  6166.23  78.9916
 59.7136  6228.35  79.3766
 59.7556  6203.71  79.3577
 59.7976  6293.33  79.6657
 59.8396  6260.72  79.3514
 59.8816  6361.49  80.5465
 59.9236  6284.85  79.697
 59.9656  6299.04  80.0525
 60.0076  6230.91  78.9663
 60.0496  6234.85  79.5014
 60.0916  6238.43  78.9347
 60.1336  6138.22  79.4144
 60.1756  6307.1  81.7095
 60.1996  0.0000000E+00  0.0000000E+00