File: docs/examples/opeando_xrd/IS17_D/Data/IS17_D/17_Db_f00089.xye
# /beamlines/bl04/projects/cycle2025-II/20250340211-lsimonelli/DATA/IS17_D/17_Db_f00089.xye : mythproc.py merge -s 0.006 -l 0.5 -f /beamlines/bl04/inhouse/ff/FlatField/ff_20Nov2024rod8mm60s_17keV.raw -b True -c true -o xye /beamlines/bl04/projects/cycle2025-II/20250340211-lsimonelli/DATA/IS17_D/17_Db_00089.dat
# IsMon = [6757475, 6761299, 6758455]  IsPos = [-1.4999, -2.4884, -3.4988]
# Wave = 0.4962  CalPath /beamlines/bl04/projects/cycle2025-II/20250340211-lsimonelli/DATA/Align/Si_Pos1_25keV_f00001.cal
# Date = 2025-09-24_18:28:47 Dt = 4.8000  Bin = 0.0060  <imon> = 6759076 +/- 1622 (Min/Max) 6757475 / 6761299
# icurr 250.5906  mocoIn 1.7086E-05  mocoOut 0.8022  i15 7.08417e+06  imon 6.75908e+06  i7 5.3333  iEMpd_timer 4.8000  iEMpd_1 3.4732E-08  iEMpd_2 7.8799E-08  iEMpd_3 1.5508E-08  iEMpd_4 4.6513E-08  iEMhp_timer 4.8000  iEMhp_1 4.8933E-06  iEMhp_2 -2.5346E-08  iEMhp_3 -2.4210E-08  iEMhp_4 -2.0305E-08
#      9776
 1.5856  43689.1  214.655
 1.6276  50536.9  226.904
 1.6696  56096.4  238.216
 1.7116  63907.6  254.758
 1.7536  71487.3  268.295
 1.7956  75896.8  277.136
 1.8376  72067.4  270.482
 1.8796  61897.1  248.827
 1.9216  51627.3  228.155
 1.9636  44186.3  210.209
 2.0056  39633.1  198.312
 2.0476  37488.8  194.987
 2.0896  36397.2  191.001
 2.1316  35027.3  186.471
 2.1736  33367.1  183.442
 2.2156  33959.5  183.578
 2.2576  32716.9  180.835
 2.2996  31480.9  178.037
 2.3416  31919.8  177.844
 2.3836  31424.7  176.567
 2.4256  30190  173.627
 2.4676  29747.2  172.105
 2.5096  29560.1  171.619
 2.5516  28213.2  171.462
 2.5936  28329.1  168.378
 2.6356  27648.8  167.051
 2.6776  27631  165.906
 2.7196  27300.8  165.4
 2.7616  27233.8  164.984
 2.8036  26743.3  163.651
 2.8456  26558.8  163.727
 2.8876  26203.6  162.484
 2.9296  25888.6  161.641
 2.9716  25542.8  160.055
 3.0136  25394.9  159.654
 3.0556  25620.8  160.753
 3.0976  25381.9  158.924
 3.1396  25021.1  158.49
 3.1816  24824.6  157.813
 3.2236  24446.5  156.6
 3.2656  24413.7  155.542
 3.3076  24339.3  156.773
 3.3496  24420.5  155.951
 3.3916  24773.6  156.912
 3.4336  25248.5  159.001
 3.4756  25672.1  160.27
 3.5176  26320.2  162.03
 3.5596  26063.4  163.704
 3.6016  26202.7  161.756
 3.6436  25358.4  160.234
 3.6856  24905.9  157.106
 3.7276  23783.8  154.591
 3.7696  23768.1  154.733
 3.8116  23554.1  153.932
 3.8536  23576  153.939
 3.8956  23499.5  153.505
 3.9376  23373  153.359
 3.9796  23434.7  153.037
 4.0216  23450.2  152.124
 4.0636  23203.7  152.798
 4.1056  23265.8  152.651
 4.1476  23657.4  154.243
 4.1896  23881.8  154.825
 4.2316  23840  154.534
 4.2736  24367.4  156.022
 4.3156  24485  156.635
 4.3576  25332  159.221
 4.3996  25347.4  159.539
 4.4416  26015  161.21
 4.4836  26256.8  162.117
 4.5256  27026.2  165.097
 4.5676  26746.5  164.49
 4.6096  27333.8  164.937
 4.6516  27626.5  165.52
 4.6936  27669.1  166.477
 4.7356  28010.5  167.316
 4.7776  27703.4  166.223
 4.8196  27768.2  167.074
 4.8616  27215.5  164.886
 4.9036  27044.3  164.104
 4.9456  26846.7  164.158
 4.9876  26191.6  162.046
 5.0296  26705  163.461
 5.0716  26265.9  162.871
 5.1136  26499.9  163.313
 5.1556  26806  163.705
 5.1976  27481.7  165.753
 5.2396  27412.2  165.231
 5.2816  27460.1  165.855
 5.3236  27428.2  165.449
 5.3656  26854.9  164.645
 5.4076  26747.9  164.453
 5.4496  26683.8  163.751
 5.4916  27035.6  164.58
 5.5336  26894.3  164.156
 5.5756  26922.2  164.26
 5.6176  27029.5  164.023
 5.6596  27415  166.184
 5.7016  27435.6  165.502
 5.7436  27447.9  165.818
 5.7856  27257.5  165.311
 5.8276  27574.5  165.976
 5.8696  27880.9  167.073
 5.9116  27685.5  167.088
 5.9536  28204.5  168.392
 5.9956  28244  167.894
 6.0376  28343.8  168.811
 6.0796  28553.4  169.265
 6.1216  28475.3  169.228
 6.1636  28841.1  169.366
 6.2056  28346.2  168.579
 6.2476  29017.7  170.438
 6.2896  28948.4  169.916
 6.3316  29048.6  170.387
 6.3736  28879.2  169.779
 6.4156  29109.9  170.332
 6.4576  29115.6  169.976
 6.4996  29204.4  170.713
 6.5416  29416.4  171.459
 6.5836  29178.3  171.001
 6.6256  29645.6  171.925
 6.6676  29928.7  172.313
 6.7096  30096.6  173.662
 6.7516  29971  172.953
 6.7936  30312.2  173.335
 6.8356  30355.2  173.561
 6.8776  30435.3  174.579
 6.9196  30643.2  175.579
 6.9616  31167.5  176.508
 7.0036  31417.4  176.88
 7.0456  31541.8  176.529
 7.0876  31318.9  177.583
 7.1296  31431.2  177.039
 7.1716  31314.7  176.255
 7.2136  31094.1  175.4
 7.2556  31262.2  176.038
 7.2976  31254.1  176.504
 7.3396  31137.4  176.388
 7.3816  31276.5  177.01
 7.4236  31612.3  177.251
 7.4656  31622.9  176.732
 7.5076  31855.4  177.538
 7.5496  31663.9  177.54
 7.5916  31925.4  178.321
 7.6336  32173.2  178.895
 7.6756  32301.8  179.101
 7.7176  32733.1  180.614
 7.7596  32631.6  181.559
 7.8016  33181.7  185.32
 7.8436  32596.7  180.357
 7.8856  32913.3  180.842
 7.9276  33422.3  182.636
 7.9696  33581.7  183.36
 8.0116  34941.6  185.6
 8.0536  34894.4  185.72
 8.0956  34778.6  186.572
 8.1376  35101.6  186.922
 8.1796  35483.4  188.461
 8.2216  36207.7  189.133
 8.2636  36532.7  190.231
 8.3056  36034.5  189.691
 8.3476  36643.6  190.618
 8.3896  36385.9  190.027
 8.4316  36673.1  190.941
 8.4736  36405  189.719
 8.5156  36319.2  189.766
 8.5576  36171.4  190.327
 8.5996  36110.2  189.068
 8.6416  36175  190.476
 8.6836  35831.9  189.419
 8.7256  36356.4  190.235
 8.7676  36219.1  192.791
 8.8096  36724.1  191.448
 8.8516  36159.9  189.537
 8.8936  35951.3  188.953
 8.9356  36357.5  190.348
 8.9776  35950  189.361
 9.0196  36201  189.693
 9.0616  35888.5  188.378
 9.1036  35542.1  188.628
 9.1456  35272.3  187.24
 9.1876  35573.9  187.981
 9.2296  35371.9  186.896
 9.2716  35179.8  186.427
 9.3136  35082.3  186.162
 9.3556  35272.4  186.642
 9.3976  34231.5  184.38
 9.4396  34088.1  183.898
 9.4816  34247.5  184.178
 9.5236  33838.4  182.986
 9.5656  33475.4  182.353
 9.6076  32901.8  181.302
 9.6496  33493.1  182.806
 9.6916  33016.1  181.467
 9.7336  33298.7  182.007
 9.7756  32961.8  182.333
 9.8176  32530.9  180.65
 9.8596  32854.1  179.985
 9.9016  32531.4  179.092
 9.9436  32000.5  177.551
 9.9856  31741.4  177.093
 10.0276  31605.2  177.785
 10.0696  31975.7  177.862
 10.1116  30618.5  174.298
 10.1536  30708.5  174.707
 10.1956  30462.3  173.627
 10.2376  30225.2  172.47
 10.2796  29948.6  171.781
 10.3216  29698.3  171.348
 10.3636  29727.9  171.455
 10.4056  29130.6  170.119
 10.4476  29672.4  171.31
 10.4896  29715.8  170.884
 10.5316  29110.6  169.861
 10.5736  29003.3  169.957
 10.6156  28940.1  169.537
 10.6576  28907.4  167.994
 10.6996  28404.7  167.231
 10.7416  28233.9  166.935
 10.7836  27736.8  166.127
 10.8256  27280.9  165.197
 10.8676  27357.1  164.954
 10.9096  27076.9  164.153
 10.9516  26823.2  162.329
 10.9936  26943.3  162.904
 11.0356  26766.5  162.974
 11.0776  26664.4  161.994
 11.1196  26151.6  161.192
 11.1616  25982.7  160.336
 11.2036  26160.5  160.738
 11.2456  26008.5  160.969
 11.2876  26355.1  161.772
 11.3296  25620.4  159.417
 11.3716  26180.7  160.84
 11.4136  26192.3  161.757
 11.4556  26172.8  161.357
 11.4976  26575.7  161.578
 11.5396  26656.5  161.991
 11.5816  26532.6  162.066
 11.6236  25826.1  160.108
 11.6656  26030.9  159.907
 11.7076  25170.5  158.067
 11.7496  24767.9  160.769
 11.7916  24772.4  156.067
 11.8336  24275.4  155.385
 11.8756  24201.2  154.698
 11.9176  24230.6  154.462
 11.9596  24340.4  154.995
 12.0016  24176.9  155.234
 12.0436  24304.9  155.097
 12.0856  23974.9  154.534
 12.1276  23871.6  154.158
 12.1696  23779  152.972
 12.2116  23949.6  153.524
 12.2536  23500.8  152.888
 12.2956  23487.9  152.194
 12.3376  23786.7  153.373
 12.3796  23628.4  153.332
 12.4216  23694.7  152.745
 12.4636  23473.4  152.962
 12.5056  23512.3  152.36
 12.5476  23798.2  152.801
 12.5896  23518.6  152.534
 12.6316  23567.8  152.849
 12.6736  23549.5  153.278
 12.7156  23455.5  152.805
 12.7576  23317.2  152.613
 12.7996  23526.7  151.94
 12.8416  23396.3  152.566
 12.8836  23654  153.237
 12.9256  24009  153.418
 12.9676  24022.9  153.859
 13.0096  24099  155.225
 13.0516  24008.6  153.956
 13.0936  24252.4  155.157
 13.1356  24395  154.569
 13.1776  24019.5  154.393
 13.2196  24110  154.326
 13.2616  23745.8  153.463
 13.3036  24005.4  154.263
 13.3456  23836.1  154.064
 13.3876  24260.6  154.699
 13.4296  23951.1  153.887
 13.4716  24032.3  153.778
 13.5136  24119.2  154.16
 13.5556  24042.9  154.558
 13.5976  24249.2  155.397
 13.6396  24251.4  154.76
 13.6816  24101.1  154.75
 13.7236  24672.8  156.175
 13.7656  26279.3  161.634
 13.8076  26628  161.315
 13.8496  26315  161.057
 13.8916  24393  156.177
 13.9336  23737.5  153.358
 13.9756  23738.5  152.754
 14.0176  23465.9  152.548
 14.0596  23603.9  152.932
 14.1016  23476.8  152.934
 14.1436  23430.1  151.918
 14.1856  22811.7  150.185
 14.2276  22924.9  151.038
 14.2696  22772.7  150.39
 14.3116  22386.1  149.016
 14.3536  22146.3  148.384
 14.3956  22035.2  147.739
 14.4376  22324  148.485
 14.4796  22195.4  148.056
 14.5216  21740.4  147.311
 14.5636  21655.3  146.602
 14.6056  21939  147.118
 14.6476  21695.4  145.552
 14.6896  21478.1  145.363
 14.7316  21165.2  145.33
 14.7736  20861.4  143.418
 14.8156  20806.1  143.26
 14.8576  20679.5  142.684
 14.8996  20310.8  142.587
 14.9416  19951  141.335
 14.9836  19982.9  141.436
 15.0256  19434.9  138.401
 15.0676  19523.1  139.021
 15.1096  19502  138.69
 15.1516  19072  137.692
 15.1936  18849.6  136.332
 15.2356  18673.1  135.965
 15.2776  18712.7  135.707
 15.3196  18267.6  135.058
 15.3616  18266.1  134.82
 15.4036  18028.2  133.804
 15.4456  18578.9  135.478
 15.4876  18082.9  133.346
 15.5296  17863.6  132.811
 15.5716  17856.3  132.398
 15.6136  17697.4  132.124
 15.6556  17846.9  131.935
 15.6976  17606.6  131.329
 15.7396  17396.8  130.935
 15.7816  17371.8  130.36
 15.8236  17163.6  130.259
 15.8656  17005  129.449
 15.9076  16908.8  128.907
 15.9496  17775.4  134.991
 15.9916  17482.4  134.264
 16.0336  17709.1  132.008
 16.0756  17423.7  131.267
 16.1176  17101.6  130.122
 16.1596  16779  130.054
 16.2016  16814.8  128.968
 16.2436  16715.9  128.968
 16.2856  16578.6  127.96
 16.3276  16423.9  127.796
 16.3696  16628.6  128.406
 16.4116  16419  128.028
 16.4536  16583.2  128.487
 16.4956  16555  128.104
 16.5376  16366.7  127.567
 16.5796  16352.6  126.885
 16.6216  16506.6  127.73
 16.6636  16077.4  126.26
 16.7056  16221.8  126.678
 16.7476  16380.9  126.838
 16.7896  16401.1  127.66
 16.8316  16351.5  127.447
 16.8736  16300.6  127.499
 16.9156  15961.2  126.482
 16.9576  16114.1  127.877
 16.9996  16198.1  128.678
 17.0416  16208.3  127.096
 17.0836  16126.3  126.543
 17.1256  15923.1  125.748
 17.1676  16028  126.135
 17.2096  15775.3  125.023
 17.2516  15756.4  124.737
 17.2936  15659.5  124.702
 17.3356  15628.6  124.568
 17.3776  15427.7  123.946
 17.4196  15468  123.805
 17.4616  15435.8  123.592
 17.5036  15013.4  122.241
 17.5456  15198.5  123.636
 17.5876  15078.8  122.199
 17.6296  15198.1  122.512
 17.6716  15034.8  122.423
 17.7136  14954  122.235
 17.7556  14843.9  122.069
 17.7976  14864.5  121.891
 17.8396  14694.3  120.701
 17.8816  14695.7  121.257
 17.9236  14686  120.999
 17.9656  14659.9  121.42
 18.0076  14571  120.66
 18.0496  14700.1  120.319
 18.0916  14602.6  120.479
 18.1336  14475.2  120.036
 18.1756  14970  121.623
 18.2176  14664.7  120.591
 18.2596  14561.5  119.89
 18.3016  14692.9  120.699
 18.3436  14673.4  120.61
 18.3856  14756  121.095
 18.4276  14594.8  120.113
 18.4696  14504.5  119.825
 18.5116  14563.3  120.341
 18.5536  14520.2  120.525
 18.5956  14223.3  118.85
 18.6376  14184.4  119.089
 18.6796  14328.3  118.994
 18.7216  14257.1  119.199
 18.7636  14314.8  119.448
 18.8056  14116.5  118.537
 18.8476  13936  118.402
 18.8896  14063.9  118.28
 18.9316  13991.4  117.961
 18.9736  13954.3  117.505
 19.0156  13840.9  117.433
 19.0576  14107.1  117.415
 19.0996  14119.8  118.174
 19.1416  14090.5  118.456
 19.1836  13996.8  117.663
 19.2256  13802.7  117.066
 19.2676  13799.7  117.136
 19.3096  13779.3  117.291
 19.3516  13910.3  117.81
 19.3936  13627.5  116.494
 19.4356  13924  117.646
 19.4776  13794  117.184
 19.5196  13828.3  117.183
 19.5616  13729.4  117.019
 19.6036  13732.8  116.538
 19.6456  13879.2  117.268
 19.6876  13837.2  116.73
 19.7296  14052  118.102
 19.7716  13690.8  116.736
 19.8136  14098.7  118.663
 19.8556  14137.5  118.309
 19.8976  14028.3  117.909
 19.9396  14159.2  118.04
 19.9816  14203.1  118.48
 20.0236  14566  120.176
 20.0656  14474.7  119.801
 20.1076  14309.3  119.597
 20.1496  13895.6  117.846
 20.1916  13846.6  117.163
 20.2336  13563.2  115.874
 20.2756  13484.2  115.973
 20.3176  13323  115.023
 20.3596  13186.7  114.421
 20.4016  13244.2  114.473
 20.4436  13230.1  114.962
 20.4856  13215.7  114.701
 20.5276  13219.5  115.175
 20.5696  13325.7  115.092
 20.6116  13158.8  114.633
 20.6536  12852.2  112.822
 20.6956  12955.1  113.399
 20.7376  12975.3  113.696
 20.7796  13014.6  113.562
 20.8216  13155.9  113.892
 20.8636  13024.7  113.697
 20.9056  12910.4  113.122
 20.9476  12857.5  112.755
 20.9896  12980.5  113.149
 21.0316  13091.7  113.538
 21.0736  12908.5  113.256
 21.1156  12826.6  113.053
 21.1576  12992.6  113.812
 21.1996  12839.8  113.138
 21.2416  12876.3  113.117
 21.2836  13003.1  113.653
 21.3256  12778.1  112.741
 21.3676  12962.2  113.085
 21.4096  12716.3  112.323
 21.4516  12705.9  112.161
 21.4936  12485.5  111.434
 21.5356  12733.5  112.49
 21.5776  12782.2  112.536
 21.6196  12457.6  111.133
 21.6616  12470  111.28
 21.7036  12750.9  112.297
 21.7456  12706.4  112.173
 21.7876  12603.8  111.483
 21.8296  12515.4  110.938
 21.8716  12526.2  111.214
 21.9136  12805.1  112.648
 21.9556  12558.9  111.238
 21.9976  12493.9  110.977
 22.0396  12390.3  110.767
 22.0816  12546.7  111.992
 22.1236  12736.1  112.292
 22.1656  12428.7  111.072
 22.2076  12109.1  109.097
 22.2496  12349.6  110.197
 22.2916  12205.4  109.445
 22.3336  12156.5  109.927
 22.3756  12257.8  110.114
 22.4176  12169.4  109.573
 22.4596  12010.5  109.433
 22.5016  12169.7  109.659
 22.5436  12284.2  110.057
 22.5856  12305.5  110.39
 22.6276  12367.1  110.795
 22.6696  12187.9  110.346
 22.7116  12159.5  109.73
 22.7536  12145.7  109.652
 22.7956  12250.9  109.465
 22.8376  11963.2  108.687
 22.8796  12312.5  110.061
 22.9216  12217.9  110.179
 22.9636  12156.4  109.061
 23.0056  11981.6  108.41
 23.0476  12259.6  110.224
 23.0896  12565.9  110.971
 23.1316  12342.9  110.413
 23.1736  12446.6  113.801
 23.2156  12473.2  111.331
 23.2576  12736.4  112.636
 23.2996  12376.3  110.804
 23.3416  12550  112.109
 23.3836  12363.2  110.508
 23.4256  12696.4  112.113
 23.4676  12671  111.693
 23.5096  12461.9  111.419
 23.5516  12436.5  110.614
 23.5936  12424.4  111.461
 23.6356  12643.1  112.101
 23.6776  12420.3  111.322
 23.7196  12356.7  110.615
 23.7616  12361.8  110.553
 23.8036  12595.4  111.65
 23.8456  12217.4  109.518
 23.8876  12425.3  110.801
 23.9296  12087.5  109.768
 23.9716  12250  109.714
 24.0136  12218.6  110.471
 24.0556  12079.8  109.56
 24.0976  12145.4  109.676
 24.1396  12032.5  111.748
 24.1816  12116.2  110.566
 24.2236  12109.2  110.143
 24.2656  11955.4  108.941
 24.3076  11953.3  109.195
 24.3496  11810.8  108.416
 24.3916  12058  109.601
 24.4336  11963.4  109.369
 24.4756  11890.3  108.923
 24.5176  11743.1  107.878
 24.5596  11679.3  107.705
 24.6016  11769.2  108.419
 24.6436  11754.9  107.863
 24.6856  11646.4  107.097
 24.7276  11592  107.169
 24.7696  11718.1  107.867
 24.8116  11446.1  106.782
 24.8536  11491.1  106.998
 24.8956  11408.2  106.342
 24.9376  11325.2  105.886
 24.9796  11236.7  105.823
 25.0216  11242.9  105.978
 25.0636  11247.3  105.65
 25.1056  11017.2  105.25
 25.1476  11158.2  107.555
 25.1896  11112  105.842
 25.2316  11125.3  105.198
 25.2736  11045.5  104.466
 25.3156  11079.6  104.709
 25.3576  10991.8  104.715
 25.3996  10971.6  104.613
 25.4416  10976.3  104.601
 25.4836  10890.7  104.713
 25.5256  10983.5  104.516
 25.5676  10970.3  104.19
 25.6096  10816  104.028
 25.6516  10896.7  103.916
 25.6936  10972.1  104.597
 25.7356  10940  104.575
 25.7776  10862.7  103.81
 25.8196  10686.9  103.202
 25.8616  10802.4  103.689
 25.9036  10858.3  103.409
 25.9456  10899.1  104.198
 25.9876  10748.1  103.543
 26.0296  10840  103.502
 26.0716  10682.1  103.17
 26.1136  10711.2  103.236
 26.1556  10802.9  103.073
 26.1976  10734.8  103.667
 26.2396  10695.5  102.643
 26.2816  10804.5  103.77
 26.3236  10712.2  103.473
 26.3656  10892.4  104.058
 26.4076  10725.4  103.469
 26.4496  10870.3  103.77
 26.4916  11005.6  104.297
 26.5336  11306  106.061
 26.5756  11647.3  107.528
 26.6176  10839.7  103.75
 26.6596  10676.2  103.267
 26.7016  10728.9  103.274
 26.7436  10735.2  103.448
 26.7856  10453.6  102.073
 26.8276  10387.2  101.71
 26.8696  10518.6  102.22
 26.9116  10429.7  101.727
 26.9536  10403.5  101.653
 26.9956  10300.8  101.183
 27.0376  10424.1  102.011
 27.0796  10391.1  101.568
 27.1216  10448.4  101.91
 27.1636  10295.5  101.333
 27.2056  10246  100.97
 27.2476  10427.3  101.854
 27.2896  10167.6  100.691
 27.3316  10272.5  100.928
 27.3736  10127.4  100.483
 27.4156  10210.1  100.736
 27.4576  10151.6  100.672
 27.4996  10333.1  101.166
 27.5416  9961.52  99.6302
 27.5836  10222.2  100.764
 27.6256  10275.5  101.209
 27.6676  10099  100.321
 27.7096  10246.8  100.935
 27.7516  10140.9  100.558
 27.7936  10399.6  101.977
 27.8356  10286.1  101.033
 27.8776  10264.5  100.995
 27.9196  9981.27  99.4543
 27.9616  10080.6  100.143
 28.0036  10034.7  99.8718
 28.0456  9934.22  99.512
 28.0876  9884.3  99.3506
 28.1296  9977.35  99.6535
 28.1716  10100.1  100.278
 28.2136  9952.75  99.5133
 28.2556  10063.5  100.171
 28.2976  9894.23  99.3247
 28.3396  9928.44  99.2538
 28.3816  9839.18  98.8206
 28.4236  9719.72  98.3698
 28.4656  9756.65  98.596
 28.5076  9836.03  98.6382
 28.5496  9863.95  99.0283
 28.5916  9976.32  99.4074
 28.6336  9813.67  98.9346
 28.6756  9772.36  97.9297
 28.7176  9830.48  98.7728
 28.7596  9695.32  97.9824
 28.8016  9654.77  97.8116
 28.8436  9709.74  98.3332
 28.8856  9665.39  97.9595
 28.9276  9658.78  98.1755
 28.9696  9579.22  97.4256
 29.0116  9568.64  97.5542
 29.0536  9543.69  97.6355
 29.0956  9723.94  98.2567
 29.1376  9489.56  97.0253
 29.1796  9608.21  97.6839
 29.2216  9544.69  97.2093
 29.2636  9498.78  97.0438
 29.3056  9601.32  97.3544
 29.3476  9558.96  97.6639
 29.3896  9622.67  98.1041
 29.4316  9494.31  96.7767
 29.4736  9270.47  95.6927
 29.5156  9247.14  95.4917
 29.5576  9212.13  96.0319
 29.5996  9276.56  95.644
 29.6416  9329.12  96.0257
 29.6836  9372.07  96.1811
 29.7256  9317.27  96.4557
 29.7676  9376.73  96.4314
 29.8096  9279.04  95.8678
 29.8516  9178.63  95.6784
 29.8936  9173.59  95.7378
 29.9356  9307.75  96.1953
 29.9776  9174.42  95.6506
 30.0196  9219.54  95.2825
 30.0616  9030.9  94.6717
 30.1036  9233.31  95.5433
 30.1456  9023.04  94.6895
 30.1876  9172.01  95.4427
 30.2296  9158.78  95.3299
 30.2716  9293.65  95.6665
 30.3136  9237.89  96.2246
 30.3556  9437.23  97.2631
 30.3976  9300.43  98.0474
 30.4396  9625.8  97.0814
 30.4816  9502.05  96.0783
 30.5236  9528.43  96.2125
 30.5656  9359.36  96.0068
 30.6076  9502.93  96.1419
 30.6496  9485.01  96.4624
 30.6916  9214.23  95.1721
 30.7336  9466.44  96.6093
 30.7756  9281.53  95.7377
 30.8176  9437.58  96.4637
 30.8596  9418.8  96.1037
 30.9016  9305.31  95.9033
 30.9436  9307.83  95.6551
 30.9856  9527.19  96.8984
 31.0276  9149.89  94.5976
 31.0696  9170.23  95.2489
 31.1116  9282.18  95.8
 31.1536  9120.36  94.8379
 31.1956  9214.97  95.4236
 31.2376  8965.86  94.1525
 31.2796  9248.58  95.1572
 31.3216  9239.53  95.0266
 31.3636  9281.27  95.9457
 31.4056  9107.49  96.3501
 31.4476  9216.2  94.8297
 31.4896  9364.17  96.0888
 31.5316  9162.19  94.4545
 31.5736  9177.15  94.3686
 31.6156  9200.1  94.4844
 31.6576  9294.97  95.0513
 31.6996  9372.43  95.1274
 31.7416  8988.67  94.2205
 31.7836  9437.72  95.5408
 31.8256  9172.85  94.4624
 31.8676  9344.32  95.3122
 31.9096  9100.27  94.4316
 31.9516  8975.53  93.9553
 31.9936  9042.42  94.117
 32.0356  9134.94  94.6442
 32.0776  9131.52  94.5387
 32.1196  9279.48  95.4052
 32.1616  9347.85  95.1925
 32.2036  9140.98  94.6563
 32.2456  9139.4  95.0109
 32.2876  9189.73  94.7835
 32.3296  8967.61  93.5864
 32.3716  8820.22  92.933
 32.4136  8782.34  92.9332
 32.4556  9033.98  93.6389
 32.4976  8903.06  92.8762
 32.5396  8871.7  92.7683
 32.5816  8797.58  92.5102
 32.6236  8901.29  93.111
 32.6656  9029.22  94.3273
 32.7076  8832.94  92.948
 32.7496  8828.06  92.6002
 32.7916  8926.72  93.0769
 32.8336  8824.49  92.6316
 32.8756  8878.54  92.6409
 32.9176  8746.22  92.4298
 32.9596  8850.97  93.0549
 33.0016  8730.52  92.1862
 33.0436  8845.27  92.9844
 33.0856  8798.82  92.8188
 33.1276  8624.38  91.6254
 33.1696  8932.2  93.0796
 33.2116  8827.9  92.7668
 33.2536  8941.62  93.3494
 33.2956  8833.47  92.8666
 33.3376  8718.03  92.0124
 33.3796  8832.88  92.8291
 33.4216  8726.24  91.8678
 33.4636  8785.37  92.3267
 33.5056  8619.92  91.6924
 33.5476  8774.68  92.4926
 33.5896  8818.94  92.5172
 33.6316  8779.17  92.6191
 33.6736  8460.31  91.1662
 33.7156  8593.18  91.9033
 33.7576  8847.56  92.9004
 33.7996  8655.74  91.652
 33.8416  8463.5  90.8085
 33.8836  8540.42  91
 33.9256  8790.11  92.3733
 33.9676  8557.62  91.0449
 34.0096  8603.23  91.6022
 34.0516  8531.35  90.8504
 34.0936  8546.34  91.2061
 34.1356  8571.44  91.083
 34.1776  8523.49  90.8177
 34.2196  8482.05  90.7805
 34.2616  8415.05  90.5587
 34.3036  8550.52  91.5301
 34.3456  8559.7  91.3353
 34.3876  8609.31  91.5711
 34.4296  8522.53  90.8082
 34.4716  8607.05  91.405
 34.5136  8520.97  91.1318
 34.5556  8379.36  90.6218
 34.5976  8621.28  91.739
 34.6396  8469.91  90.6462
 34.6816  8537.58  91.1143
 34.7236  8522.22  90.8007
 34.7656  8445.01  90.6033
 34.8076  8404.55  90.7116
 34.8496  8331.48  90.1675
 34.8916  8445.12  90.6383
 34.9336  8440.02  90.6001
 34.9756  8480.51  90.7316
 35.0176  8552.21  91.6468
 35.0596  8536.62  91.3924
 35.1016  8516.76  91.0403
 35.1436  8652.19  91.4438
 35.1856  8415.58  90.3091
 35.2276  8385.61  90.3135
 35.2696  8434.49  90.7721
 35.3116  8437.72  90.8919
 35.3536  8348.9  90.1196
 35.3956  8226.07  89.1705
 35.4376  8458.19  90.9878
 35.4796  8485.55  91.176
 35.5216  8401.22  90.6805
 35.5636  8197.88  90.3092
 35.6056  8316.61  89.9909
 35.6476  8270.58  89.6441
 35.6896  8267.13  89.713
 35.7316  8219.31  89.4293
 35.7736  8181.18  89.4003
 35.8156  8419.17  90.7031
 35.8576  8175.57  89.6222
 35.8996  8421.71  90.9337
 35.9416  8252.54  89.5208
 35.9836  8289.76  90.0676
 36.0256  8378.06  90.5476
 36.0676  8484.1  90.8662
 36.1096  8413.95  90.6433
 36.1516  8388.64  90.4137
 36.1936  8430.9  90.4752
 36.2356  8325.25  90.5535
 36.2776  8216.09  89.4442
 36.3196  8287.71  89.5078
 36.3616  8281.84  89.5931
 36.4036  8229.29  89.381
 36.4456  8295.78  89.9545
 36.4876  8065.44  88.6405
 36.5296  8146.12  89.1128
 36.5716  8146.29  89.8875
 36.6136  8084.98  88.3467
 36.6556  8171.84  89.0189
 36.6976  7995.32  88.5389
 36.7396  8029.73  88.4562
 36.7816  8050.54  88.949
 36.8236  8011.04  88.6441
 36.8656  7860.25  87.8843
 36.9076  7955.79  88.2949
 36.9496  7821.04  87.5395
 36.9916  7833.57  87.2379
 37.0336  8010.29  88.5333
 37.0756  8001.9  88.2806
 37.1176  7913.88  88.0517
 37.1596  7814.85  87.5001
 37.2016  7893.42  88.1704
 37.2436  8004.36  88.1172
 37.2856  7936.41  87.9738
 37.3276  7981.81  87.6051
 37.3696  7779.51  87.3453
 37.4116  7925.16  88.0752
 37.4536  7597.57  86.1047
 37.4956  7821.75  87.4113
 37.5376  8013.1  90.0488
 37.5796  8004.01  89.9222
 37.6216  7900.82  87.6438
 37.6636  8118.13  88.7284
 37.7056  7976.13  88.1325
 37.7476  8222.78  89.0233
 37.7896  7792.69  87.1696
 37.8316  7980.45  88.3669
 37.8736  8002.57  88.0206
 37.9156  8014.8  88.0791
 37.9576  8155.17  88.7614
 37.9996  7838.22  86.7353
 38.0416  7944.22  88.1177
 38.0836  8122.68  89.0113
 38.1256  7973.1  88.1589
 38.1676  7799.76  87.303
 38.2096  8001.38  88.0448
 38.2516  7892.4  87.6593
 38.2936  8043.94  88.2986
 38.3356  7922.78  87.5625
 38.3776  7749.36  86.8427
 38.4196  7878  87.4179
 38.4616  7886.56  87.7083
 38.5036  8075.36  88.5959
 38.5456  7804.6  87.9086
 38.5876  7824.63  88.0454
 38.6296  8011.22  88.0644
 38.6716  7885.86  87.1738
 38.7136  7909.22  87.2386
 38.7556  7864.64  87.5028
 38.7976  7829.82  87.2359
 38.8396  7772.4  87.3676
 38.8816  7811.87  87.3898
 38.9236  7890.76  87.6314
 38.9656  7903.75  87.6139
 39.0076  7888.28  86.9387
 39.0496  7959.27  87.8781
 39.0916  7855.26  86.9474
 39.1336  7950.75  87.8748
 39.1756  7800.04  87.0929
 39.2176  7887.67  88.1245
 39.2596  7832.95  87.7481
 39.3016  7925.77  87.8509
 39.3436  7911.32  88.1801
 39.3856  7860.32  87.3469
 39.4276  8020.65  88.7383
 39.4696  7998.78  88.233
 39.5116  7881.5  88.1023
 39.5536  7879.59  88.5074
 39.5956  7869.43  87.5628
 39.6376  7865.6  87.5497
 39.6796  7766.26  86.735
 39.7216  7808.26  87.0711
 39.7636  7738.69  87.2402
 39.8056  7890.19  87.8796
 39.8476  7759.26  87.393
 39.8896  7858.79  87.5887
 39.9316  7685.6  86.8518
 39.9736  7803.43  87.0975
 40.0156  7801.53  86.9151
 40.0576  7747.62  86.9569
 40.0996  7937.03  87.2116
 40.1416  7800.04  87.2433
 40.1836  7857.64  87.4579
 40.2256  7778.3  87.0339
 40.2676  7849.33  87.5479
 40.3096  7834.5  87.3945
 40.3516  7873.64  87.7181
 40.3936  7903.19  87.4381
 40.4356  7749.41  86.7909
 40.4776  7946.55  88.2905
 40.5196  7853.3  87.8817
 40.5616  7913.12  87.8764
 40.6036  7779.41  87.3838
 40.6456  7790.45  87.0594
 40.6876  7857.45  87.4227
 40.7296  7793.25  87.1941
 40.7716  7945.16  88.1611
 40.8136  7769.85  87.1268
 40.8556  7996.76  88.5293
 40.8976  7886.73  87.8343
 40.9396  7919.71  88.378
 40.9816  7970.72  87.9455
 41.0236  7799.36  86.7821
 41.0656  7949.18  88.1444
 41.1076  7860.91  87.4276
 41.1496  7934.15  87.7383
 41.1916  7802.16  87.3137
 41.2336  7796.62  87.2891
 41.2756  7844.56  87.1654
 41.3176  7894.89  88.0498
 41.3596  7779.55  87.1472
 41.4016  7891.67  88.0296
 41.4436  7820.34  87.42
 41.4856  7877.44  87.9011
 41.5276  7868.75  87.8707
 41.5696  7837.92  87.3241
 41.6116  7856.75  87.8279
 41.6536  7827.79  87.5188
 41.6956  7939.15  88.2057
 41.7376  7827.67  87.6073
 41.7796  7767.08  87.149
 41.8216  7826.49  87.7117
 41.8636  7813.63  87.5861
 41.9056  7699.8  86.7411
 41.9476  7807.45  87.5776
 41.9896  7979.14  88.1947
 42.0316  7828.78  87.453
 42.0736  7938.4  88.1652
 42.1156  7824.4  87.3617
 42.1576  7816.55  87.4258
 42.1996  7847.62  87.7323
 42.2416  7809.57  87.1081
 42.2836  7767.08  86.9847
 42.3256  7768.22  87.1009
 42.3676  7916.74  87.7262
 42.4096  7851  87.3324
 42.4516  7807.75  87.1779
 42.4936  7755.58  86.9564
 42.5356  7642.13  86.4501
 42.5776  7798.3  87.2712
 42.6196  7747.51  87.0415
 42.6616  7576.39  86.2473
 42.7036  7765.58  86.6995
 42.7456  7879.88  87.6905
 42.7876  7823.64  87.4767
 42.8296  7755.59  86.9234
 42.8716  7659.73  86.5489
 42.9136  7710.24  86.6278
 42.9556  7779.59  87.1418
 42.9976  7718.37  86.7679
 43.0396  7677.32  86.2707
 43.0816  7599.58  86.2128
 43.1236  7659.48  86.6029
 43.1656  7687.59  86.5822
 43.2076  7663.3  86.5555
 43.2496  7625.42  86.1643
 43.2916  7753.91  87.2473
 43.3336  7688.16  86.7127
 43.3756  7715.3  86.6198
 43.4176  7619.68  86.1654
 43.4596  7652.91  86.2095
 43.5016  7581.58  86.2079
 43.5436  7683.49  86.6906
 43.5856  7548.91  85.9566
 43.6276  7577.5  86
 43.6696  7609.18  86.4475
 43.7116  7680.3  86.3487
 43.7536  7706.5  86.988
 43.7956  7557.49  87.3417
 43.8376  7497.02  85.5241
 43.8796  7426.41  85.2063
 43.9216  7511.19  85.6072
 43.9636  7520.83  85.767
 44.0056  7408.74  85.3571
 44.0476  7420.3  85.0606
 44.0896  7412.84  85.3566
 44.1316  7568.22  85.7715
 44.1736  7453.64  85.2399
 44.2156  7530.36  85.5289
 44.2576  7485.44  85.602
 44.2996  7378.41  84.9542
 44.3416  7535.99  85.6263
 44.3836  7320  84.7067
 44.4256  7320.22  84.361
 44.4676  7337.3  84.6092
 44.5096  7287.21  84.4666
 44.5516  7493.92  85.6192
 44.5936  7233.73  84.0757
 44.6356  7478.96  85.2274
 44.6776  7375.66  84.9453
 44.7196  7320.87  84.941
 44.7616  7420.83  86.8356
 44.8036  7384  85.0705
 44.8456  7582.73  86.411
 44.8876  7498.97  85.7767
 44.9296  7634.87  85.9941
 44.9716  7551.79  85.9591
 45.0136  7560.61  85.9325
 45.0556  7636.31  86.3526
 45.0976  7341.28  84.8202
 45.1396  7531.05  85.6523
 45.1816  7470.67  85.2591
 45.2236  7599.5  85.8978
 45.2656  7378.98  85.137
 45.3076  7453.03  85.3386
 45.3496  7455.66  85.6699
 45.3916  7482.84  86.0964
 45.4336  7524.89  86.1743
 45.4756  7441.62  85.5545
 45.5176  7601.36  86.0862
 45.5596  7508.12  85.6721
 45.6016  7495.23  86.0253
 45.6436  7411.28  84.7112
 45.6856  7434.33  85.5068
 45.7276  7348.68  86.3172
 45.7696  7387.46  86.2222
 45.8116  7422.42  85.8494
 45.8536  7380.88  85.5072
 45.8956  7516.53  85.6402
 45.9376  7479.62  84.8941
 45.9796  7382.62  85.0234
 46.0216  7536.18  86.2178
 46.0636  7558.21  85.4947
 46.1056  7503.55  85.189
 46.1476  7493.97  85.7288
 46.1896  7500.36  85.9161
 46.2316  7314.04  84.7068
 46.2736  7377.95  85.4541
 46.3156  7394.72  85.1301
 46.3576  7320.81  84.9078
 46.3996  7405.17  85.5574
 46.4416  7498.37  85.6625
 46.4836  7281.9  84.7759
 46.5256  7527.82  86.127
 46.5676  7332.44  85.1216
 46.6096  7345.84  85.1208
 46.6516  7561.56  85.4088
 46.6936  7460.17  85.3278
 46.7356  7407.5  85.1153
 46.7776  7414.39  86.0215
 46.8196  7356.86  85.2762
 46.8616  7195.38  84.29
 46.9036  7224.13  84.1106
 46.9456  7286.09  84.1201
 46.9876  7423.07  84.9893
 47.0296  7367.96  85.3661
 47.0716  7268.7  84.6105
 47.1136  7268.28  84.2868
 47.1556  7251.25  84.0548
 47.1976  7343.64  84.6723
 47.2396  7300.56  84.8191
 47.2816  7335.48  84.7181
 47.3236  7210.99  84.3598
 47.3656  7361.6  85.1704
 47.4076  7247.82  84.3175
 47.4496  7253.4  84.4434
 47.4916  7262.54  84.6888
 47.5336  7278.59  84.594
 47.5756  7411.71  85.4818
 47.6176  7324.47  84.8736
 47.6596  7280.78  84.3323
 47.7016  7380.25  84.725
 47.7436  7296.7  84.5756
 47.7856  7379.47  85.0859
 47.8276  7326.23  84.8299
 47.8696  7324.67  84.9086
 47.9116  7329.36  84.6412
 47.9536  7332.56  84.6062
 47.9956  7261.69  84.9093
 48.0376  7277.55  84.7698
 48.0796  7197.27  84.4309
 48.1216  7221.34  84.3894
 48.1636  7355.28  84.7421
 48.2056  7339.69  84.9202
 48.2476  7404.7  85.6082
 48.2896  7308.78  84.9583
 48.3316  7309  84.9056
 48.3736  7260.95  84.6405
 48.4156  7257.16  84.4753
 48.4576  7310.59  85.0819
 48.4996  7332.73  84.6548
 48.5416  7360.82  85.1524
 48.5836  7305.25  84.5024
 48.6256  7328.47  84.8544
 48.6676  7315.54  85.2875
 48.7096  7309.46  84.5186
 48.7516  7337.94  84.8316
 48.7936  7123.35  83.6442
 48.8356  7328.14  84.8912
 48.8776  7291.66  85.2586
 48.9196  7389.27  85.1856
 48.9616  7285.1  84.9707
 49.0036  7284.79  85.3206
 49.0456  7263.68  85.1708
 49.0876  7303.69  84.936
 49.1296  7135.14  84.1146
 49.1716  7178.89  84.2405
 49.2136  7297.83  84.8629
 49.2556  7286.6  84.8246
 49.2976  7275.29  84.8262
 49.3396  7244.8  84.7179
 49.3816  7387.72  84.9644
 49.4236  7279.85  84.77
 49.4656  7162.8  84.1019
 49.5076  7110.4  83.5423
 49.5496  7189.01  84.0686
 49.5916  7227.83  84.215
 49.6336  7136.74  83.8912
 49.6756  7263.48  84.8616
 49.7176  7256.21  84.7607
 49.7596  7187.63  84.1232
 49.8016  7259.59  84.4645
 49.8436  7153.47  84.1426
 49.8856  7235.58  84.6286
 49.9276  7197.75  84.5011
 49.9696  7144.32  84.1769
 50.0116  7146.4  84.3129
 50.0536  7197.19  84.569
 50.0956  7133.69  84.2604
 50.1376  7214.01  84.4343
 50.1796  7141.12  84.2801
 50.2216  7200.72  84.6157
 50.2636  7143.33  83.895
 50.3056  7099.48  83.812
 50.3476  7121.7  83.9685
 50.3896  7050.89  83.5216
 50.4316  7200.5  84.2339
 50.4736  7101.87  83.8799
 50.5156  7144.46  84.119
 50.5576  7185.73  84.1125
 50.5996  7125.64  84.0516
 50.6416  7042.84  83.4907
 50.6836  7132.25  84.0756
 50.7256  7048.51  83.506
 50.7676  7203.46  84.7336
 50.8096  7177.09  84.1197
 50.8516  7110.44  84.1371
 50.8936  6987.48  83.1902
 50.9356  7103.36  83.9844
 50.9776  7154.9  84.4562
 51.0196  6956.72  83.4047
 51.0616  7014.95  83.0604
 51.1036  6999.73  83.3386
 51.1456  6970.83  83.0731
 51.1876  7031.38  82.7699
 51.2296  6973.52  83.0618
 51.2716  6901.86  82.3502
 51.3136  7007.1  83.4377
 51.3556  6949.29  82.7134
 51.3976  6970.44  82.99
 51.4396  6809.49  82.3366
 51.4816  6898.03  82.7155
 51.5236  6971.36  83.2451
 51.5656  6906.98  82.4584
 51.6076  7022.12  83.2232
 51.6496  6847.89  82.3815
 51.6916  6968.51  83.4572
 51.7336  6812.77  82.6214
 51.7756  6994.13  83.3938
 51.8176  6815.23  82.4372
 51.8596  6875.28  82.8153
 51.9016  6950.11  82.8666
 51.9436  6961.95  84.4435
 51.9856  7030.52  85.2828
 52.0276  6880.81  82.8393
 52.0696  7060.2  83.9976
 52.1116  6960.4  83.525
 52.1536  7063.07  84.0214
 52.1956  6933.32  82.7085
 52.2376  7024.23  83.4176
 52.2796  7032.63  83.2881
 52.3216  6979.76  83.6729
 52.3636  7003.31  83.3605
 52.4056  6956.16  82.9495
 52.4476  6824.04  82.5176
 52.4896  6815.99  82.5115
 52.5316  7026.84  83.8451
 52.5736  6867.2  82.6109
 52.6156  6943.14  83.4587
 52.6576  6874.79  82.4803
 52.6996  6716.03  82.5107
 52.7416  6840.42  83.1201
 52.7836  6912.68  83.4483
 52.8256  6969.79  82.9873
 52.8676  6669.64  81.7611
 52.9096  6889.58  83.1538
 52.9516  6854.16  83.3426
 52.9936  6860.69  83.7443
 53.0356  6931.95  83.1734
 53.0776  6908.2  83.3033
 53.1196  6888.21  83.3106
 53.1616  6897.57  83.4198
 53.2036  6910.83  83.458
 53.2456  6879.41  83.3742
 53.2876  6777.62  82.4479
 53.3296  6908.48  83.56
 53.3716  7036.95  84.0898
 53.4136  6922.63  83.5535
 53.4556  6856.49  83.1813
 53.4976  6780.54  82.5574
 53.5396  6815.41  83.1756
 53.5816  6843.62  82.9734
 53.6236  6898.98  83.6711
 53.6656  6929.9  83.4556
 53.7076  6907.89  83.2834
 53.7496  6912.24  83.4436
 53.7916  6856.8  83.2418
 53.8336  6743.37  82.4326
 53.8756  6678.82  82.6023
 53.9176  6754.1  82.382
 53.9596  6480.94  81.463
 54.0016  6597.07  81.5219
 54.0436  6516.86  81.2521
 54.0856  6692.45  81.7569
 54.1276  6638.18  81.6242
 54.1696  6585.19  81.4639
 54.2116  6708.5  81.965
 54.2536  6530.37  80.6675
 54.2956  6631.17  81.3421
 54.3376  6545.95  81.316
 54.3796  6562.22  81.3079
 54.4216  6596.51  81.5934
 54.4636  6580.47  81.4486
 54.5056  6659.8  81.7387
 54.5476  6548.8  81.4063
 54.5896  6587.13  81.4781
 54.6316  6546.3  81.0676
 54.6736  6626.64  81.652
 54.7156  6429.84  80.449
 54.7576  6385.87  80.1305
 54.7996  6568.98  81.4382
 54.8416  6420.82  80.5814
 54.8836  6519.89  81.2817
 54.9256  6504.63  80.9523
 54.9676  6381.94  80.0528
 55.0096  6421.16  80.3502
 55.0516  6355.17  80.1581
 55.0936  6515  80.8153
 55.1356  6314.4  79.6056
 55.1776  6529.23  81.163
 55.2196  6533.12  81.002
 55.2616  6520.05  81.1452
 55.3036  6381.74  80.4495
 55.3456  6250.15  79.7549
 55.3876  6435.21  80.6541
 55.4296  6251.76  79.4994
 55.4716  6420.04  80.5944
 55.5136  6399.07  80.2104
 55.5556  6525.43  81.0673
 55.5976  6443.33  80.6362
 55.6396  6497.9  80.912
 55.6816  6345.17  79.8277
 55.7236  6358.34  79.9637
 55.7656  6439.18  80.2073
 55.8076  6335.2  79.5462
 55.8496  6424.43  80.4432
 55.8916  6260.58  79.5963
 55.9336  6429.87  80.4838
 55.9756  6334.32  79.767
 56.0176  6316.41  79.7884
 56.0596  6335.18  79.9076
 56.1016  6156.63  78.8108
 56.1436  6195.17  79.301
 56.1856  6204.6  79.1092
 56.2276  6457.61  80.7577
 56.2696  6388.03  80.2969
 56.3116  6284.88  80.0292
 56.3536  6192.51  79.1032
 56.3956  6284.89  79.6711
 56.4376  6264.07  79.586
 56.4796  6193.55  78.9542
 56.5216  6220.04  79.5066
 56.5636  6199.07  78.9313
 56.6056  6394.46  80.4073
 56.6476  6205.05  78.8211
 56.6896  6400.63  80.5128
 56.7316  6168.63  78.9505
 56.7736  6149.08  78.842
 56.8156  6255.06  79.5342
 56.8576  6186.83  79.0412
 56.8996  6259.56  79.3813
 56.9416  6130.86  78.8932
 56.9836  6327.6  79.6669
 57.0256  6128.88  78.7184
 57.0676  6255.13  79.6526
 57.1096  6220.05  79.2068
 57.1516  6127.2  78.6921
 57.1936  6218.16  79.0073
 57.2356  6072.89  78.4087
 57.2776  6165.29  78.9645
 57.3196  6225.72  79.6877
 57.3616  6132.77  78.5877
 57.4036  6178.58  78.9325
 57.4456  6218.67  79.1849
 57.4876  6066.19  78.0919
 57.5296  6146.1  78.8979
 57.5716  6181.77  79.1485
 57.6136  6097.68  78.4466
 57.6556  6139.26  78.8285
 57.6976  6190.67  78.9957
 57.7396  6072.94  78.5835
 57.7816  6059.66  78.8772
 57.8236  6042.99  78.5518
 57.8656  6154.32  78.9477
 57.9076  6137.02  78.8342
 57.9496  6063.35  78.7307
 57.9916  6090.65  78.418
 58.0336  6066.49  78.5501
 58.0756  6085.58  78.3032
 58.1176  6052.83  78.0856
 58.1596  6040.76  78.5919
 58.2016  5918.11  77.0213
 58.2436  5910.59  77.359
 58.2856  5846.69  76.8812
 58.3276  5874.55  77.4243
 58.3696  5805.71  76.7275
 58.4116  5698.65  75.8874
 58.4536  5848.82  76.7637
 58.4956  5825.63  76.7958
 58.5376  5946.75  77.1658
 58.5796  5787.41  76.5418
 58.6216  5926.57  77.275
 58.6636  5794.3  76.6165
 58.7056  5768.29  76.2976
 58.7476  5726.6  76.4547
 58.7896  5814.67  76.6946
 58.8316  5920.45  77.3773
 58.8736  5861.13  77.0038
 58.9156  5883.52  77.1929
 58.9576  5803.94  76.9906
 58.9996  5850.05  76.5513
 59.0416  5768.99  76.3799
 59.0836  5886.45  77.0599
 59.1256  5837.2  77.4331
 59.1676  5819.45  77.6211
 59.2096  5835.04  77.0525
 59.2516  5830.35  76.6099
 59.2936  5883.07  77.2793
 59.3356  5913.35  77.357
 59.3776  5875.07  77.2729
 59.4196  5742.11  76.3316
 59.4616  5830.61  76.7794
 59.5036  5698.77  75.9409
 59.5456  6019.74  77.7439
 59.5876  5830.7  76.7012
 59.6296  5754.08  76.2632
 59.6716  5848.31  76.9421
 59.7136  5862.91  77.0266
 59.7556  5774.54  76.5773
 59.7976  5826.63  76.6686
 59.8396  5897.13  77.0266
 59.8816  5851.52  77.2637
 59.9236  5843.89  76.8641
 59.9656  5912.61  77.5717
 60.0076  5900.45  76.8576
 60.0496  5882.49  77.2375
 60.0916  5967.37  77.2146
 60.1336  5736.57  76.786
 60.1756  5757.76  78.0841
 60.1996  0.0000000E+00  0.0000000E+00