File: docs/examples/opeando_xrd/IS17_D/Data/IS17_D/17_Da_f00137.xye
# /beamlines/bl04/projects/cycle2025-II/20250340211-lsimonelli/DATA/IS17_D/17_Da_f00137.xye : mythproc.py merge -s 0.006 -l 0.5 -f /beamlines/bl04/inhouse/ff/FlatField/ff_20Nov2024rod8mm60s_17keV.raw -b True -c true -o xye /beamlines/bl04/projects/cycle2025-II/20250340211-lsimonelli/DATA/IS17_D/17_Da_00137.dat
# IsMon = [6767897, 6767436, 6766334]  IsPos = [-1.5000, -2.4883, -3.4988]
# Wave = 0.4962  CalPath /beamlines/bl04/projects/cycle2025-II/20250340211-lsimonelli/DATA/Align/Si_Pos1_25keV_f00001.cal
# Date = 2025-09-25_07:46:23 Dt = 4.8000  Bin = 0.0060  <imon> = 6767222 +/- 656 (Min/Max) 6766334 / 6767897
# icurr 250.9747  mocoIn 1.7120E-05  mocoOut 0.8031  i15 7.08819e+06  imon 6.76722e+06  i7 6.6667  iEMpd_timer 4.8000  iEMpd_1 3.5269E-08  iEMpd_2 8.0200E-08  iEMpd_3 1.7308E-08  iEMpd_4 4.8077E-08  iEMhp_timer 4.8000  iEMhp_1 4.9021E-06  iEMhp_2 -2.7273E-08  iEMhp_3 -2.5485E-08  iEMhp_4 -2.1255E-08
#      9776
 1.5856  40326.9  206.195
 1.6276  47560  220.083
 1.6696  53671.1  232.97
 1.7116  62556.6  252.009
 1.7536  71712.5  268.672
 1.7956  75788.1  276.891
 1.8376  72172.2  270.633
 1.8796  60831.2  246.629
 1.9216  48578.6  221.279
 1.9636  41575.9  204.386
 2.0056  37391.3  192.589
 2.0476  34013.8  185.699
 2.0896  32949.4  181.699
 2.1316  32053.5  178.35
 2.1736  30622.7  175.707
 2.2156  31096  175.638
 2.2576  29916.8  172.894
 2.2996  28806.3  170.277
 2.3416  28870.3  169.106
 2.3836  28499.7  168.12
 2.4256  27667.8  166.188
 2.4676  27153.8  164.404
 2.5096  27494.4  165.486
 2.5516  29232.4  174.583
 2.5936  75596  275.05
 2.6356  27566.8  166.823
 2.6776  25861.3  160.492
 2.7196  25285.1  158.813
 2.7616  25227.1  158.793
 2.8036  24697.2  157.283
 2.8456  24907.8  158.56
 2.8876  24297.7  156.482
 2.9296  24123.8  156.047
 2.9716  23675.9  154.095
 3.0136  23777  154.489
 3.0556  23727.3  154.717
 3.0976  23520.6  152.986
 3.1396  23086.1  152.27
 3.1816  23043.9  151.789
 3.2236  22801.6  151.262
 3.2656  22911.4  150.686
 3.3076  22620.1  151.15
 3.3496  22993.3  151.347
 3.3916  23383.6  152.456
 3.4336  23695.9  154.038
 3.4756  24143.4  155.413
 3.5176  25108.8  158.293
 3.5596  24924.6  160.665
 3.6016  25169.2  158.539
 3.6436  24121.9  156.289
 3.6856  23856.4  153.748
 3.7276  22983.7  151.983
 3.7696  22939  151.827
 3.8116  22573.1  150.697
 3.8536  22608.7  150.749
 3.8956  22499.9  150.214
 3.9376  22767.2  151.357
 3.9796  22355.7  149.497
 4.0216  22406.3  148.713
 4.0636  22265.6  149.7
 4.1056  22397.7  149.787
 4.1476  22556.9  150.628
 4.1896  22830  151.401
 4.2316  23049.4  151.956
 4.2736  23420.6  152.962
 4.3156  23561.4  153.653
 4.3576  24389.3  156.25
 4.3996  24480.9  156.801
 4.4416  25195  158.658
 4.4836  26036.4  161.437
 4.5256  26079.7  162.176
 4.5676  26064.6  162.385
 4.6096  26491.4  162.734
 4.6516  27024.8  163.714
 4.6936  27225.8  165.136
 4.7356  27544.7  165.923
 4.7776  27319.3  165.079
 4.8196  26843.6  164.277
 4.8616  26633.7  163.118
 4.9036  26254.9  161.696
 4.9456  26180.9  162.116
 4.9876  25683  160.472
 5.0296  25656.5  160.21
 5.0716  25696.3  161.11
 5.1136  25655  160.68
 5.1556  26219.4  161.912
 5.1976  29833.3  172.687
 5.2396  26840.2  163.506
 5.2816  26576  163.153
 5.3236  26767.8  163.454
 5.3656  26129.1  162.401
 5.4076  25920  161.901
 5.4496  26171.8  162.175
 5.4916  26268  162.232
 5.5336  26262.9  162.225
 5.5756  26078.7  161.677
 5.6176  26366.2  162.009
 5.6596  26754.4  164.018
 5.7016  26901.6  163.887
 5.7436  26927.2  164.234
 5.7856  26742  163.73
 5.8276  27065  164.444
 5.8696  27254.7  165.072
 5.9116  27477.5  166.165
 5.9536  27367.6  165.878
 5.9956  27865.7  166.751
 6.0376  27771.2  167.104
 6.0796  27969.7  167.531
 6.1216  28228.4  168.56
 6.1636  28476  168.303
 6.2056  28326  168.531
 6.2476  28432.8  168.533
 6.2896  28884.5  169.733
 6.3316  28570.7  168.977
 6.3736  28830.7  169.645
 6.4156  28729.3  169.299
 6.4576  29063.9  169.832
 6.4996  29232.1  170.805
 6.5416  28939.4  170.08
 6.5836  29254.8  171.24
 6.6256  29204.5  170.652
 6.6676  29665.4  171.564
 6.7096  29475.2  171.852
 6.7516  30062.3  173.217
 6.7936  30578.5  174.126
 6.8356  31471.8  176.728
 6.8776  31038.5  176.316
 6.9196  30677.7  175.686
 6.9616  31422.9  177.248
 7.0036  31562.3  177.293
 7.0456  31407.6  176.158
 7.0876  31673.6  178.503
 7.1296  31538.2  177.349
 7.1716  31451.7  176.644
 7.2136  31216.6  175.767
 7.2556  31507.1  176.743
 7.2976  31518.7  177.273
 7.3396  31606  177.732
 7.3816  31445.1  177.491
 7.4236  31943  178.181
 7.4656  32026.6  177.893
 7.5076  32178.1  178.452
 7.5496  32001.3  178.505
 7.5916  32109.3  178.828
 7.6336  32786.2  180.603
 7.6756  32713.3  180.256
 7.7176  33141.2  181.734
 7.7596  33017.1  182.641
 7.8016  35768.1  192.356
 7.8436  33774.3  183.603
 7.8856  34214.6  184.407
 7.9276  34763.7  186.279
 7.9696  34918  187.002
 8.0116  36157.7  188.815
 8.0536  36268.3  189.36
 8.0956  37319.1  193.275
 8.1376  36709.3  191.17
 8.1796  36834.9  192.04
 8.2216  37924.5  193.587
 8.2636  38531.4  195.406
 8.3056  37770.7  194.225
 8.3476  39318.7  197.472
 8.3896  38669  195.919
 8.4316  38552.8  195.789
 8.4736  38470.1  195.032
 8.5156  38241  194.736
 8.5576  37838  195.32
 8.5996  37742.7  193.303
 8.6416  37788.9  194.696
 8.6836  37652.3  194.175
 8.7256  38390.9  195.504
 8.7676  39212.3  200.57
 8.8096  39177.9  197.701
 8.8516  37594.4  193.327
 8.8936  38297.1  194.953
 8.9356  36929.6  191.8
 8.9776  37173.8  192.532
 9.0196  36610.4  190.738
 9.0616  37226  191.804
 9.1036  37800.7  194.5
 9.1456  36621.1  190.792
 9.1876  36280.7  189.849
 9.2296  36595.5  190.078
 9.2716  36161.1  188.998
 9.3136  35979.5  188.512
 9.3556  36247.4  189.189
 9.3976  34830.3  185.981
 9.4396  35175.6  186.801
 9.4816  34835.6  185.751
 9.5236  35279.2  186.846
 9.5656  34573.3  185.291
 9.6076  34305.4  185.115
 9.6496  34157.3  184.626
 9.6916  34392.3  185.237
 9.7336  34301.3  184.766
 9.7756  34234.4  185.71
 9.8176  33296.8  182.776
 9.8596  33393.2  181.48
 9.9016  32831.9  179.943
 9.9436  32803  179.612
 9.9856  32724.3  179.783
 10.0276  32142.5  179.27
 10.0696  32641  179.706
 10.1116  31685.1  177.321
 10.1536  31027.1  175.141
 10.1956  30873.9  174.799
 10.2376  30450.6  173.102
 10.2796  30789.5  174.189
 10.3216  30552.4  173.654
 10.3636  30581.9  173.905
 10.4056  32171.2  178.775
 10.4476  32140.9  178.305
 10.4896  34860.8  185.264
 10.5316  32552.6  179.265
 10.5736  29812.8  172.31
 10.6156  29571.6  171.369
 10.6576  32695.8  178.672
 10.6996  29259.7  169.705
 10.7416  28694.4  168.284
 10.7836  29593.1  171.615
 10.8256  28324.7  168.337
 10.8676  28532.2  168.477
 10.9096  28117.9  167.292
 10.9516  27889.1  165.526
 10.9936  28340.3  167.064
 11.0356  28059.2  166.88
 11.0776  28896.8  168.64
 11.1196  28614.5  168.588
 11.1616  27409.3  164.684
 11.2036  28125.2  166.674
 11.2456  28911.2  169.72
 11.2876  27128.4  164.129
 11.3296  27054  163.806
 11.3716  27819.1  165.828
 11.4136  27530  165.843
 11.4556  27883.1  166.565
 11.4976  28645.4  167.752
 11.5396  27759.9  165.31
 11.5816  26543.7  162.095
 11.6236  26176  161.206
 11.6656  26086.9  160.076
 11.7076  25805.7  160.058
 11.7496  26030.6  164.723
 11.7916  25938.3  159.727
 11.8336  25449.5  159.109
 11.8756  25501.4  158.794
 11.9176  25393  158.11
 11.9596  24911  156.786
 12.0016  25019.9  157.65
 12.0436  24846  156.799
 12.0856  24510.4  156.269
 12.1276  24803.4  157.115
 12.1696  24605.8  155.62
 12.2116  24934.4  156.653
 12.2536  25780.3  160.103
 12.2956  24848.1  156.549
 12.3376  24406.5  155.354
 12.3796  24617.1  156.484
 12.4216  24589.5  155.616
 12.4636  24904.7  157.544
 12.5056  24423.7  155.283
 12.5476  24268.5  154.314
 12.5896  24455.3  155.548
 12.6316  23855.3  153.776
 12.6736  24074.5  155.144
 12.7156  24230.1  155.323
 12.7576  24252.5  155.648
 12.7996  24375.7  154.68
 12.8416  24402.6  155.827
 12.8836  24969  157.361
 12.9256  24986.7  156.508
 12.9676  25013.2  157.024
 13.0096  24533.5  156.606
 13.0516  24929.3  156.896
 13.0936  24851  156.771
 13.1356  25105.9  156.832
 13.1776  24722.9  156.628
 13.2196  24639  156.016
 13.2616  24773.2  156.755
 13.3036  24621.4  156.404
 13.3456  24666.9  156.743
 13.3876  24754.8  156.305
 13.4296  24718  156.345
 13.4716  24911.9  156.564
 13.5136  24935.1  156.796
 13.5556  24936.7  157.41
 13.5976  24890.8  157.405
 13.6396  25319.7  158.126
 13.6816  24434.7  155.702
 13.7236  25342.1  158.336
 13.7656  24689.7  156.82
 13.8076  25602  158.447
 13.8496  24711.1  156.461
 13.8916  24522.5  156.68
 13.9336  24485.3  155.79
 13.9756  24306.8  154.565
 14.0176  24228  155.001
 14.0596  24675.4  156.39
 14.1016  23879.1  154.237
 14.1436  23690.7  152.76
 14.1856  23523.9  152.52
 14.2276  23314.1  152.316
 14.2696  23638.6  153.219
 14.3116  23179.8  151.632
 14.3536  22692.2  150.204
 14.3956  22807.7  150.313
 14.4376  22854  150.242
 14.4796  22618.3  149.454
 14.5216  22407.2  149.554
 14.5636  22542.4  149.569
 14.6056  22451.4  148.844
 14.6476  22517.5  148.29
 14.6896  21979  147.043
 14.7316  21721.4  147.211
 14.7736  21359.1  145.126
 14.8156  21319  145.025
 14.8576  21362.3  145.025
 14.8996  21022.4  145.081
 14.9416  20466.7  143.15
 14.9836  20798.3  144.263
 15.0256  20444.8  141.961
 15.0676  20409.2  142.289
 15.1096  20131.6  140.919
 15.1516  19851.1  140.495
 15.1936  19908.7  140.125
 15.2356  19793.3  139.872
 15.2776  19527.2  138.641
 15.3196  19378.7  139.118
 15.3616  19429.1  139.055
 15.4036  19084  137.666
 15.4456  19289.8  138.059
 15.4876  18963.7  136.567
 15.5296  18913.2  136.665
 15.5716  18723.7  135.581
 15.6136  18713.7  135.872
 15.6556  19346.1  137.377
 15.6976  18842.4  135.868
 15.7396  18658.7  135.598
 15.7816  18344.9  133.965
 15.8236  17987.2  133.358
 15.8656  17978.6  133.11
 15.9076  17975.1  132.926
 15.9496  17891.7  135.408
 15.9916  17763.9  135.366
 16.0336  17362.5  130.732
 16.0756  17439.5  131.334
 16.1176  17576.6  131.767
 16.1596  17066.4  131.17
 16.2016  17240.3  130.583
 16.2436  17102.2  130.436
 16.2856  16922.4  129.298
 16.3276  16607.4  128.498
 16.3696  16860.4  129.294
 16.4116  16615.7  128.817
 16.4536  16804.9  129.329
 16.4956  17059.4  130.032
 16.5376  16607.5  128.497
 16.5796  16680  128.129
 16.6216  16468.8  127.622
 16.6636  16554.5  128.111
 16.7056  16591.1  128.114
 16.7476  16499.9  127.292
 16.7896  16606  128.452
 16.8316  16504.4  128.019
 16.8736  16889.4  129.772
 16.9156  16539.5  128.757
 16.9576  16421  129.098
 16.9996  16435.5  129.654
 17.0416  16417.9  127.921
 17.0836  16148.6  126.625
 17.1256  16213.8  126.885
 17.1676  16248  127.018
 17.2096  16166.6  126.576
 17.2516  15936.6  125.75
 17.2936  15530.7  124.171
 17.3356  15522  124.141
 17.3776  15527.3  124.35
 17.4196  15598.2  124.328
 17.4616  15583.4  124.184
 17.5036  15638.3  124.77
 17.5456  15154.1  123.467
 17.5876  15296.4  123.088
 17.6296  15333.2  123.038
 17.6716  15409  123.93
 17.7136  15497.1  124.432
 17.7556  15265.6  123.792
 17.7976  15246.5  123.458
 17.8396  14926.1  121.651
 17.8816  15005.8  122.514
 17.9236  14885.7  121.836
 17.9656  15236.9  123.818
 18.0076  15379.1  123.967
 18.0496  15962  125.398
 18.0916  18032  133.831
 18.1336  16899.3  129.705
 18.1756  15757.4  124.763
 18.2176  15707.3  124.798
 18.2596  14943.8  121.463
 18.3016  15429.3  123.678
 18.3436  15561.2  124.211
 18.3856  15037  122.237
 18.4276  14902  121.364
 18.4696  15176.2  122.571
 18.5116  15005.1  122.169
 18.5536  15021.7  122.606
 18.5956  14916.7  121.717
 18.6376  14942.7  122.229
 18.6796  14567.7  120.014
 18.7216  15003.5  122.291
 18.7636  14650.9  120.829
 18.8056  14325.5  119.426
 18.8476  14410.7  120.409
 18.8896  14362.1  119.531
 18.9316  14612.4  120.563
 18.9736  14537.5  119.943
 19.0156  14662.5  120.87
 19.0576  14623  119.551
 19.0996  14518.8  119.983
 19.1416  14315.7  119.394
 19.1836  14382.3  119.277
 19.2256  14051.2  118.099
 19.2676  14247.3  119.023
 19.3096  14337.1  119.648
 19.3516  14223  118.948
 19.3936  14292.3  119.315
 19.4356  14216.8  118.871
 19.4776  14301.2  119.318
 19.5196  14299.7  119.166
 19.5616  14132.8  118.725
 19.6036  14261  118.755
 19.6456  14387  119.397
 19.6876  14589.6  119.877
 19.7296  14257.5  118.96
 19.7716  14157.8  118.705
 19.8136  14538.7  120.505
 19.8556  14974.6  121.765
 19.8976  14935.4  121.672
 19.9396  14877.6  121.001
 19.9816  14758.9  120.84
 20.0236  14700.3  120.746
 20.0656  14309.2  119.128
 20.1076  13948.8  118.076
 20.1496  13974  118.19
 20.1916  13846.7  117.126
 20.2336  13826.6  117.015
 20.2756  13761.1  117.165
 20.3176  13700.5  116.656
 20.3596  13751.2  116.85
 20.4016  13671.5  116.312
 20.4436  13684.6  116.924
 20.4856  13524.4  116.027
 20.5276  13545.3  116.58
 20.5696  13527.9  116.066
 20.6116  13507.6  116.158
 20.6536  13489  115.582
 20.6956  13478.4  115.655
 20.7376  13328.6  115.249
 20.7796  13344.7  114.999
 20.8216  13383.3  114.875
 20.8636  13487.2  115.688
 20.9056  14118.9  118.319
 20.9476  13349.2  114.883
 20.9896  13825  116.776
 21.0316  13543.9  115.482
 21.0736  13525.6  115.928
 21.1156  13580.6  116.331
 21.1576  13460.3  115.863
 21.1996  13185.7  114.655
 21.2416  13102.9  114.123
 21.2836  13294.5  114.92
 21.3256  13154.8  114.393
 21.3676  13397  114.99
 21.4096  13484.7  115.738
 21.4516  13023.9  113.566
 21.4936  12969  113.577
 21.5356  13126.9  114.216
 21.5776  13145.5  114.121
 21.6196  13191.3  114.349
 21.6616  13111.4  114.103
 21.7036  13100.5  113.835
 21.7456  13102.6  113.917
 21.7876  12937.8  112.944
 21.8296  12823.3  112.299
 21.8716  12814.4  112.495
 21.9136  13192.9  114.349
 21.9556  13196  114.029
 21.9976  12874.8  112.649
 22.0396  12764  112.411
 22.0816  12959.6  113.824
 22.1236  13101  113.883
 22.1656  12988.7  113.519
 22.2076  12967.6  112.908
 22.2496  12868.6  112.501
 22.2916  13001.6  112.961
 22.3336  12933.9  113.393
 22.3756  12853.7  112.768
 22.4176  12835.7  112.545
 22.4596  12632.6  112.241
 22.5016  12843.1  112.649
 22.5436  13040.7  113.405
 22.5856  12893.4  113.01
 22.6276  12792  112.738
 22.6696  12719.8  112.738
 22.7116  12724.8  112.266
 22.7536  12868.4  112.877
 22.7956  12942.2  112.521
 22.8376  12695.8  111.972
 22.8796  12873.6  112.55
 22.9216  12841.6  112.965
 22.9636  12776.2  111.817
 23.0056  12799.6  112.059
 23.0476  12940.7  113.254
 23.0896  13104.9  113.333
 23.1316  12996.5  113.309
 23.1736  12647.4  114.524
 23.2156  12715.6  112.402
 23.2576  12670.9  112.33
 23.2996  12805.5  112.716
 23.3416  12628.7  112.44
 23.3836  12748.9  112.216
 23.4256  12715  112.17
 23.4676  12930.1  112.822
 23.5096  12747.1  112.699
 23.5516  12485.4  110.82
 23.5936  12665.2  112.522
 23.6356  13000.4  113.665
 23.6776  12627.5  112.23
 23.7196  12577.9  111.803
 23.7616  12791.4  112.456
 23.8036  12632.3  111.771
 23.8456  12574.2  111.105
 23.8876  12343.5  110.424
 23.9296  12413.4  111.235
 23.9716  12541.1  110.987
 24.0136  12637.9  112.321
 24.0556  12317.1  110.627
 24.0976  12326.7  110.471
 24.1396  12369.5  113.339
 24.1816  12286.7  111.363
 24.2236  12335  111.188
 24.2656  12087.7  109.543
 24.3076  12108.3  109.889
 24.3496  12241.6  110.384
 24.3916  12260.6  110.509
 24.4336  12127.4  110.127
 24.4756  12054.2  109.664
 24.5176  11959.8  108.879
 24.5596  11779.2  108.376
 24.6016  11780.4  108.473
 24.6436  11954.6  108.757
 24.6856  11864.6  108.107
 24.7276  12037.9  109.219
 24.7696  11716.5  107.862
 24.8116  11752.5  108.211
 24.8536  11640.1  107.684
 24.8956  11617.8  107.318
 24.9376  11603.2  107.433
 24.9796  11490.2  107.023
 25.0216  11398.5  106.706
 25.0636  11565.8  107.135
 25.1056  11209.4  106.176
 25.1476  11522.2  109.315
 25.1896  11516.5  107.767
 25.2316  11564  107.249
 25.2736  11431.7  106.287
 25.3156  11331.5  105.897
 25.3576  11216.8  105.783
 25.3996  11339.2  106.336
 25.4416  11331.7  106.288
 25.4836  11138.4  105.9
 25.5256  11263.1  105.851
 25.5676  11364.1  106.053
 25.6096  11140.2  105.579
 25.6516  11251.2  105.597
 25.6936  11100.6  105.196
 25.7356  11107.5  105.369
 25.7776  11269.5  105.814
 25.8196  11196.9  105.632
 25.8616  11173.9  105.448
 25.9036  11410.4  106.019
 25.9456  11120.6  105.264
 25.9876  11082.2  105.005
 26.0296  11200.6  105.214
 26.0716  11113  105.217
 26.1136  11159  105.381
 26.1556  11262.8  105.249
 26.1976  10968.9  104.79
 26.2396  11116.6  104.643
 26.2816  11160.6  105.472
 26.3236  11126.9  105.469
 26.3656  11058.5  104.864
 26.4076  11126.6  105.376
 26.4496  11631.2  107.221
 26.4916  11296.3  105.683
 26.5336  10925  104.261
 26.5756  11586.8  107.18
 26.6176  11074.3  104.86
 26.6596  10881.9  104.279
 26.7016  10706.6  103.19
 26.7436  10781.7  103.684
 26.7856  10630.6  102.936
 26.8276  10763.6  103.533
 26.8696  10735.9  103.277
 26.9116  10747.5  103.275
 26.9536  10743.5  103.3
 26.9956  10721.9  103.234
 27.0376  10483.9  102.292
 27.0796  10821.6  103.66
 27.1216  10651.4  102.91
 27.1636  10598.3  102.817
 27.2056  10603.6  102.731
 27.2476  10635.8  102.886
 27.2896  10635.4  103.028
 27.3316  10538.6  102.236
 27.3736  10491.9  102.282
 27.4156  10400.7  101.666
 27.4576  10557.5  102.671
 27.4996  10541.9  102.185
 27.5416  10439.5  102.009
 27.5836  10504.7  102.137
 27.6256  10735  103.415
 27.6676  10688.6  103.223
 27.7096  10539.8  102.363
 27.7516  10822.8  103.883
 27.7936  10698.3  103.455
 27.8356  10492.7  102.074
 27.8776  10517.4  102.238
 27.9196  10400.3  101.524
 27.9616  10562.4  102.501
 28.0036  10427.7  101.813
 28.0456  10356.7  101.609
 28.0876  10173.3  100.793
 28.1296  10298.5  101.185
 28.1716  10294.5  101.239
 28.2136  10220  100.838
 28.2556  10132.1  100.515
 28.2976  10167.7  100.685
 28.3396  10268.6  100.928
 28.3816  10277.9  101.007
 28.4236  10297.9  101.263
 28.4656  10073.6  100.185
 28.5076  10066.3  99.7919
 28.5496  10083  100.133
 28.5916  10151.5  100.279
 28.6336  9931.91  99.5294
 28.6756  10078.7  99.4602
 28.7176  10074.6  99.877
 28.7596  9980.23  99.4201
 28.8016  10035.3  99.729
 28.8436  9873.01  99.1628
 28.8856  10010.9  99.7489
 28.9276  9933.26  99.5561
 28.9696  9829.29  98.6981
 29.0116  9963.81  99.5556
 29.0536  9758.08  98.7239
 29.0956  9915.89  99.2322
 29.1376  9947.51  99.352
 29.1796  9755.97  98.4367
 29.2216  9885.71  98.9323
 29.2636  9868.8  98.9232
 29.3056  9752.32  98.1251
 29.3476  9838.44  99.0872
 29.3896  9918.56  99.5797
 29.4316  10113  99.8876
 29.4736  9909.34  98.9427
 29.5156  9885.71  98.7396
 29.5576  9785.65  98.9862
 29.5996  9841.4  98.5212
 29.6416  9776.42  98.3126
 29.6836  9781.94  98.2698
 29.7256  9770.85  98.5441
 29.7676  9889.06  99.0358
 29.8096  9765.71  98.3588
 29.8516  9574.43  97.7225
 29.8936  9731.97  98.6181
 29.9356  9703.98  98.2298
 29.9776  9742.39  98.5797
 30.0196  9710.06  98.0655
 30.0616  9766.43  98.4559
 30.1036  9857.12  98.7353
 30.1456  9595.7  97.656
 30.1876  9577.01  97.5353
 30.2296  9607.32  97.6393
 30.2716  9694.92  97.7182
 30.3136  9732.72  98.7773
 30.3556  9689.66  98.564
 30.3976  9592.96  99.6146
 30.4396  9732.76  97.6304
 30.4816  9873.25  97.9264
 30.5236  9617.21  96.6648
 30.5656  9707.22  97.7757
 30.6076  9667  97.3562
 30.6496  9727.22  97.6929
 30.6916  9583.95  97.0678
 30.7336  9406.22  96.3107
 30.7756  9488.38  96.8232
 30.8176  9512.78  96.8624
 30.8596  9503.96  96.5872
 30.9016  9497.5  96.4227
 30.9436  9576.01  97.0491
 30.9856  9559.61  97.0724
 31.0276  9518.37  96.4718
 31.0696  9332.02  96.0975
 31.1116  9519.54  97.0321
 31.1536  9595.25  97.302
 31.1956  9390.38  96.3428
 31.2376  9315.71  95.9733
 31.2796  9504.3  96.4631
 31.3216  9346.38  95.6004
 31.3636  9449.06  96.8244
 31.4056  9471.6  98.2696
 31.4476  9494.79  96.2529
 31.4896  9429.77  96.423
 31.5316  9631.11  96.8435
 31.5736  9697.11  96.9664
 31.6156  9625.18  96.6493
 31.6576  9541.82  96.3321
 31.6996  9521.78  95.8945
 31.7416  9421.68  96.3212
 31.7836  9395.97  95.3355
 31.8256  9274.3  94.9897
 31.8676  9482.27  96.0374
 31.9096  9209.17  94.8677
 31.9516  9159.56  94.915
 31.9936  9237.86  95.1443
 32.0356  9355.17  95.8141
 32.0776  9312.46  95.4767
 32.1196  9275.74  95.2903
 32.1616  9408.27  95.5097
 32.2036  9188.22  94.8975
 32.2456  9188.15  95.2796
 32.2876  9349.41  95.6034
 32.3296  9287.15  95.2486
 32.3716  9224.56  95.0334
 32.4136  9252.91  95.4011
 32.4556  9304.21  95.0308
 32.4976  9334.52  95.1408
 32.5396  9174.68  94.3507
 32.5816  9092.6  94.0475
 32.6236  9167.04  94.5022
 32.6656  9149.49  94.9566
 32.7076  9137.15  94.5413
 32.7496  9118.44  94.1108
 32.7916  9066.96  93.805
 32.8336  9146.8  94.3154
 32.8756  9137.67  93.9871
 32.9176  9197.61  94.7817
 32.9596  9079.18  94.2463
 33.0016  9117.62  94.2402
 33.0436  9158.69  94.6264
 33.0856  9079.59  94.2884
 33.1276  8972.52  93.4545
 33.1696  9154.19  94.2426
 33.2116  9117.86  94.287
 33.2536  9042.27  93.8926
 33.2956  9012.07  93.8222
 33.3376  9025.28  93.7126
 33.3796  9213.14  94.8048
 33.4216  9045.11  93.54
 33.4636  9051.85  93.7194
 33.5056  8872.45  93.0287
 33.5476  8856.48  92.9282
 33.5896  9024.23  93.5766
 33.6316  8906.95  93.2895
 33.6736  8785.55  92.8907
 33.7156  8906.82  93.5704
 33.7576  8980.64  93.5892
 33.7996  9148.63  94.2165
 33.8416  8786.68  92.5181
 33.8836  8974.33  93.2799
 33.9256  8969.61  93.3157
 33.9676  8995.89  93.3489
 34.0096  8732.41  92.2856
 34.0516  8896.21  92.7827
 34.0936  8833.42  92.7216
 34.1356  8929.71  92.9667
 34.1776  8768.93  92.1353
 34.2196  8688.2  91.8887
 34.2616  8735.46  92.2735
 34.3036  8792.36  92.8221
 34.3456  8791.31  92.5719
 34.3876  8857.05  92.9746
 34.4296  8853.57  92.5454
 34.4716  8994.17  93.4291
 34.5136  8772.98  92.4824
 34.5556  8726.35  92.4904
 34.5976  8722.34  92.3043
 34.6396  8759.4  92.3052
 34.6816  8704.45  92.0008
 34.7236  8809.92  92.3412
 34.7656  8766.74  92.3126
 34.8076  8665.36  92.0907
 34.8496  8720.66  92.3263
 34.8916  8692.79  91.9758
 34.9336  8825.77  92.6326
 34.9756  8804.88  92.4821
 35.0176  8807.73  92.993
 35.0596  8549.04  91.4448
 35.1016  8647.09  91.7402
 35.1436  8752.73  91.983
 35.1856  8570.3  91.1467
 35.2276  8724.64  92.1331
 35.2696  8635.13  91.8525
 35.3116  8601.2  91.7608
 35.3536  8587.49  91.4371
 35.3956  8513.49  90.7191
 35.4376  8551.84  91.4752
 35.4796  8679.56  92.2232
 35.5216  8549.95  91.4876
 35.5636  8367.82  91.2529
 35.6056  8623.11  91.6431
 35.6476  8534.28  91.0558
 35.6896  8671.08  91.8777
 35.7316  8542.41  91.1717
 35.7736  8495.94  91.1196
 35.8156  8458.87  90.9215
 35.8576  8574.61  91.7945
 35.8996  8558.08  91.6721
 35.9416  8498.61  90.8532
 35.9836  8533.29  91.4971
 36.0256  8583.63  91.6819
 36.0676  8507.48  91.0321
 36.1096  8456.03  90.8934
 36.1516  8574.58  91.4173
 36.1936  8580.17  91.2901
 36.2356  8526.8  91.6489
 36.2776  8465.11  90.7891
 36.3196  8484.02  90.5626
 36.3616  8403.9  90.2684
 36.4036  8545.69  91.0815
 36.4456  8596.61  91.5742
 36.4876  8341.84  90.1436
 36.5296  8505.65  91.0625
 36.5716  8449.4  91.5533
 36.6136  8605.68  91.1514
 36.6556  8640.56  91.5451
 36.6976  8386.1  90.6844
 36.7396  8493.76  91.1661
 36.7816  8430.15  91.0294
 36.8236  8323.99  90.3759
 36.8656  8435.55  91.0592
 36.9076  8465.2  91.0872
 36.9496  8282.08  90.0848
 36.9916  8376.17  90.2237
 37.0336  8514.21  91.2843
 37.0756  8366.59  90.279
 37.1176  8304.67  90.2152
 37.1596  8423.77  90.8595
 37.2016  8354.31  90.7195
 37.2436  8370.02  90.1153
 37.2856  8240.81  89.6692
 37.3276  8429.66  90.0365
 37.3696  8276.95  90.1056
 37.4116  8420.29  90.7896
 37.4536  8153.15  89.0523
 37.4956  8238.1  89.712
 37.5376  8294.83  91.5817
 37.5796  8235.27  91.2139
 37.6216  8043.86  88.4187
 37.6636  8158.13  88.9417
 37.7056  8127.91  88.9734
 37.7476  8231.36  89.0644
 37.7896  8156.72  89.1615
 37.8316  7935.17  88.1142
 37.8736  8198.22  89.084
 37.9156  8185.32  89.0191
 37.9576  8139.57  88.6519
 37.9996  8051.52  87.894
 38.0416  8047.63  88.6888
 38.0836  8203.06  89.442
 38.1256  8144.28  89.0764
 38.1676  8121.3  89.0923
 38.2096  8169.02  88.9717
 38.2516  8312.85  89.9652
 38.2936  8207.43  89.1834
 38.3356  8282.02  89.5096
 38.3776  8098.96  88.7866
 38.4196  8221.94  89.3138
 38.4616  8130.38  89.0529
 38.5036  8235.38  89.4676
 38.5456  8046.48  89.2695
 38.5876  8112.85  89.843
 38.6296  8155.48  88.8655
 38.6716  8029.15  87.9604
 38.7136  7803.53  86.6643
 38.7556  7967.79  88.0742
 38.7976  8075.34  88.6075
 38.8396  7996.64  88.4278
 38.8816  7973  88.2653
 38.9236  7921.38  87.8017
 38.9656  8047.45  88.4107
 39.0076  8042.98  87.7887
 39.0496  8030.55  88.2662
 39.0916  8044.08  87.9799
 39.1336  8063.13  88.5057
 39.1756  7934.79  87.8658
 39.2176  7923.48  88.3359
 39.2596  7894.16  88.0916
 39.3016  7889.9  87.5792
 39.3436  7886.15  88.0452
 39.3856  8065.44  88.4843
 39.4276  8000.91  88.6259
 39.4696  8058.51  88.5671
 39.5116  7950.29  88.4848
 39.5536  8077.73  89.6202
 39.5956  8068.84  88.6651
 39.6376  8015.43  88.3819
 39.6796  8124.15  88.7148
 39.7216  8134.4  88.8731
 39.7636  8035.8  88.9048
 39.8056  8154.26  89.3275
 39.8476  8018.52  88.8418
 39.8896  7975.01  88.226
 39.9316  7982.77  88.5107
 39.9736  8186.08  89.2894
 40.0156  8028.12  88.1704
 40.0576  8044.74  88.6216
 40.0996  8138.46  88.3101
 40.1416  8055.69  88.6646
 40.1836  8001.1  88.246
 40.2256  8076.71  88.7102
 40.2676  8021.6  88.5787
 40.3096  8205.24  89.4455
 40.3516  8232.92  89.6989
 40.3936  8205.13  89.1063
 40.4356  8100.4  88.7295
 40.4776  8042.17  88.6599
 40.5196  8069.1  89.0212
 40.5616  8031.64  88.5341
 40.6036  8090.42  89.1148
 40.6456  8144.5  89.0186
 40.6876  8198.31  89.2971
 40.7296  8147.24  89.0432
 40.7716  8135.85  89.2289
 40.8136  8060.54  88.7551
 40.8556  8050.08  88.829
 40.8976  8137.05  89.2281
 40.9396  7976.63  88.694
 40.9816  8198.98  89.1998
 41.0236  8191.26  88.9382
 41.0656  8159.16  89.3082
 41.1076  8180.32  89.1926
 41.1496  8024.94  88.2483
 41.1916  8095.2  88.9597
 41.2336  8028.21  88.5802
 41.2756  7957.59  87.7945
 41.3176  7973.97  88.4973
 41.3596  8121.71  89.0411
 41.4016  8030.54  88.8099
 41.4436  8108.19  89.0149
 41.4856  8093.58  89.0983
 41.5276  8046.18  88.8572
 41.5696  8139.39  88.9955
 41.6116  8036.57  88.8279
 41.6536  7933.2  88.1166
 41.6956  8069.02  88.8496
 41.7376  7960.84  88.3494
 41.7796  8072.63  88.8593
 41.8216  8014.28  88.7684
 41.8636  8066.01  88.9948
 41.9056  7912.84  87.9258
 41.9476  8108.82  89.1443
 41.9896  8030.63  88.4833
 42.0316  8074.99  88.8138
 42.0736  8055.88  88.8506
 42.1156  7972.46  88.1953
 42.1576  7938.77  88.0881
 42.1996  8066.79  88.9589
 42.2416  7981.19  88.0644
 42.2836  7934.33  87.9194
 42.3256  7912.72  87.917
 42.3676  7960.79  87.9839
 42.4096  8024.04  88.2987
 42.4516  7901.35  87.7041
 42.4936  7885.14  87.6866
 42.5356  7898.23  87.888
 42.5776  7994.15  88.3597
 42.6196  8030.53  88.6211
 42.6616  7911.05  88.1275
 42.7036  7940.9  87.6754
 42.7456  7902.05  87.8172
 42.7876  7972.62  88.3132
 42.8296  7875.11  87.6011
 42.8716  7847.62  87.6051
 42.9136  7859.34  87.4242
 42.9556  7968.04  88.2016
 42.9976  7955.26  88.0938
 43.0396  7965.05  87.8727
 43.0816  7876.45  87.7545
 43.1236  7881.91  87.8532
 43.1656  7930.22  87.9514
 43.2076  7846.4  87.5927
 43.2496  7849.7  87.4212
 43.2916  7824.17  87.648
 43.3336  7891.61  87.8609
 43.3756  7880.49  87.5475
 43.4176  7744.26  86.8732
 43.4596  7712.5  86.5501
 43.5016  7843.55  87.6907
 43.5436  7765.31  87.1489
 43.5856  7757.14  87.133
 43.6276  7739.52  86.9285
 43.6696  7762.9  87.3217
 43.7116  7809.56  87.0736
 43.7536  7813.15  87.584
 43.7956  7659.31  87.8861
 43.8376  7693.27  86.6498
 43.8796  7707.24  86.8085
 43.9216  7800.61  87.2511
 43.9636  7773.34  87.206
 44.0056  7748.73  87.3039
 44.0476  7681.2  86.551
 44.0896  7664.8  86.8029
 44.1316  7736.54  86.7261
 44.1736  7630.39  86.2483
 44.2156  7774.7  86.9186
 44.2576  7735.23  87.0271
 44.2996  7708.68  86.8476
 44.3416  7629.96  86.1637
 44.3836  7597.14  86.3046
 44.4256  7497.34  85.3827
 44.4676  7497.97  85.537
 44.5096  7679.54  86.7164
 44.5516  7494.17  85.627
 44.5936  7553.89  85.9226
 44.6356  7620.15  86.0352
 44.6776  7627.26  86.3144
 44.7196  7558.59  86.3158
 44.7616  7651.63  88.175
 44.8036  7491.83  85.8802
 44.8456  7573.58  86.3523
 44.8876  7477.32  85.6482
 44.9296  7648.56  86.0723
 44.9716  7592.92  86.185
 45.0136  7443.82  85.2715
 45.0556  7578.03  86.1254
 45.0976  7457.44  85.4939
 45.1396  7469.42  85.3225
 45.1816  7500.32  85.4317
 45.2236  7646.38  86.1579
 45.2656  7403.37  85.2818
 45.3076  7460.89  85.3986
 45.3496  7438.34  85.571
 45.3916  7521.59  86.3129
 45.4336  7316.8  84.9694
 45.4756  7353.08  85.0442
 45.5176  7460.6  85.2764
 45.5596  7509.41  85.6791
 45.6016  7363.72  85.2606
 45.6436  7533.6  85.4127
 45.6856  7331.58  84.9113
 45.7276  7343.47  86.2935
 45.7696  7381.51  86.1795
 45.8116  7437.27  85.9423
 45.8536  7464.15  85.9945
 45.8956  7410.23  85.0356
 45.9376  7485.55  84.929
 45.9796  7370.83  84.9561
 46.0216  7432.87  85.656
 46.0636  7517.58  85.28
 46.1056  7520.56  85.2873
 46.1476  7500.14  85.7672
 46.1896  7449.48  85.628
 46.2316  7433.03  85.3928
 46.2736  7405.92  85.452
 46.3156  7275.47  84.4467
 46.3576  7420.47  85.4885
 46.3996  7436.79  85.7416
 46.4416  7471.59  85.4917
 46.4836  7331.79  85.0663
 46.5256  7290.67  84.7573
 46.5676  7329.03  85.1035
 46.6096  7354.07  85.1774
 46.6516  7445.4  84.7477
 46.6936  7418.14  85.0855
 46.7356  7368.5  84.9039
 46.7776  7230.8  84.9492
 46.8196  7325.78  85.2493
 46.8616  7193.19  84.2781
 46.9036  7188.48  83.9054
 46.9456  7190.94  83.5698
 46.9876  7307.49  84.328
 47.0296  7157.83  84.1379
 47.0716  7198.53  84.1992
 47.1136  7310.68  84.5311
 47.1556  7272.95  84.1774
 47.1976  7285.08  84.4099
 47.2396  7226.55  84.3887
 47.2816  7156.66  83.6821
 47.3236  7177.7  84.1693
 47.3656  7314.2  84.9049
 47.4076  7255.08  84.2861
 47.4496  7130.66  83.7254
 47.4916  7169.9  84.1441
 47.5336  7237.45  84.3533
 47.5756  7246.31  84.5299
 47.6176  7148.62  83.8578
 47.6596  7121.23  83.4081
 47.7016  7240.8  83.9229
 47.7436  7225.98  84.1711
 47.7856  7192.92  83.9953
 47.8276  7126.19  83.6619
 47.8696  7093.71  83.5583
 47.9116  7150.97  83.6104
 47.9536  7168.79  83.6599
 47.9956  7031.66  83.5532
 48.0376  7063.9  83.5171
 48.0796  7196.09  84.4259
 48.1216  7297.78  84.8326
 48.1636  7408.81  85.0496
 48.2056  7179.4  83.987
 48.2476  7137.84  84.0523
 48.2896  7125.69  83.8892
 48.3316  7142.84  83.9282
 48.3736  7025.35  83.2613
 48.4156  6967.89  82.7769
 48.4576  6979.86  83.1351
 48.4996  7139.75  83.5394
 48.5416  7103.81  83.65
 48.5836  7066.75  83.1141
 48.6256  7103.84  83.5184
 48.6676  7070.13  83.8477
 48.7096  7205.61  83.9166
 48.7516  7060.72  83.2135
 48.7936  6986.38  82.8381
 48.8356  7176.06  84.0053
 48.8776  7027.81  83.6964
 48.9196  7174.56  83.9309
 48.9616  7008.22  83.3373
 49.0036  7033.03  83.828
 49.0456  7003.2  83.6367
 49.0876  7105.4  83.7785
 49.1296  6888.02  82.6479
 49.1716  6994.56  83.1572
 49.2136  6994.92  83.0792
 49.2556  6990.22  83.1973
 49.2976  7005.94  83.2502
 49.3396  6835.9  82.2843
 49.3816  7058.64  83.0454
 49.4236  7016.33  83.2273
 49.4656  6903.08  82.5314
 49.5076  6944.63  82.5662
 49.5496  6948.01  82.6503
 49.5916  7018.2  82.9853
 49.6336  6940.64  82.7133
 49.6756  6931.6  82.9
 49.7176  6919.16  82.7682
 49.7596  6926.31  82.5823
 49.8016  6891.31  82.2965
 49.8436  6994.09  83.2018
 49.8856  6970.01  83.0626
 49.9276  6798.02  82.1311
 49.9696  6869.48  82.5455
 50.0116  6826.41  82.4246
 50.0536  6906.02  82.8419
 50.0956  6855.11  82.6022
 50.1376  6892.06  82.5276
 50.1796  6916.08  82.9424
 50.2216  6902.89  82.8522
 50.2636  6853.78  82.1844
 50.3056  6788.36  81.9617
 50.3476  6894.41  82.6174
 50.3896  6827.14  82.1873
 50.4316  6848.44  82.1538
 50.4736  6774.54  81.9264
 50.5156  6873.48  82.5144
 50.5576  6910.07  82.4852
 50.5996  6823.93  82.3677
 50.6416  6769.62  81.8584
 50.6836  6813.31  82.1735
 50.7256  6814.48  82.1039
 50.7676  6823.27  82.4694
 50.8096  6746.99  81.5635
 50.8516  6695.67  81.6595
 50.8936  6735.86  81.6871
 50.9356  6878.56  82.6558
 50.9776  6809.69  82.3884
 51.0196  6591.96  81.1947
 51.0616  6732.04  81.3796
 51.1036  6832.96  82.3429
 51.1456  6752.46  81.7689
 51.1876  6846.6  81.6829
 51.2296  6592.36  80.8878
 51.2716  6668.52  80.9501
 51.3136  6779.96  82.0792
 51.3556  6751.83  81.5347
 51.3976  6712.83  81.45
 51.4396  6653.84  81.3876
 51.4816  6660.16  81.2759
 51.5236  6676.32  81.4716
 51.5656  6654.65  80.9418
 51.6076  6690.97  81.2438
 51.6496  6695.34  81.4654
 51.6916  6654.49  81.5673
 51.7336  6724.92  82.0882
 51.7756  6677.48  81.5025
 51.8176  6672.5  81.5706
 51.8596  6648.58  81.4453
 51.9016  6738.82  81.6027
 51.9436  6585.25  82.1036
 51.9856  6532.96  82.2033
 52.0276  6513.49  80.6134
 52.0696  6555.46  80.9353
 52.1116  6623.23  81.4664
 52.1536  6617.2  81.2754
 52.1956  6727.8  81.4678
 52.2376  6595.33  80.8213
 52.2796  6654.08  80.9947
 52.3216  6464.35  80.5181
 52.3636  6484.93  80.2284
 52.4056  6484.96  80.0875
 52.4476  6471.88  80.3715
 52.4896  6536.08  80.8183
 52.5316  6559.07  80.9957
 52.5736  6540.53  80.6255
 52.6156  6513.48  80.8269
 52.6576  6651.23  81.1253
 52.6996  6422.49  80.6757
 52.7416  6501.84  81.0237
 52.7836  6475.43  80.754
 52.8256  6570.29  80.5502
 52.8676  6335.37  79.6749
 52.9096  6523.6  80.9286
 52.9516  6514.06  81.2357
 52.9936  6425.61  81.075
 53.0356  6543.21  80.8093
 53.0776  6348.33  79.8566
 53.1196  6297.13  79.6596
 53.1616  6295.52  79.6962
 53.2036  6372.02  80.1306
 53.2456  6374.37  80.2396
 53.2876  6338.56  79.7326
 53.3296  6489.75  81.0034
 53.3716  6423.06  80.3284
 53.4136  6470.23  80.7761
 53.4556  6360.31  80.1162
 53.4976  6339.94  79.84
 53.5396  6489.3  81.1695
 53.5816  6404.96  80.2723
 53.6236  6338.45  80.1308
 53.6656  6441.57  80.4771
 53.7076  6464.67  80.5801
 53.7496  6327.16  79.8329
 53.7916  6515.65  81.1362
 53.8336  6311.55  79.7567
 53.8756  6210.8  79.6659
 53.9176  6379.94  80.0905
 53.9596  6416.69  81.0928
 54.0016  6330.83  79.8836
 54.0436  6337.44  80.1406
 54.0856  6391.34  79.9072
 54.1276  6348.9  79.8407
 54.1696  6336.76  79.9283
 54.2116  6376.1  79.9325
 54.2536  6399.9  79.9054
 54.2956  6357.04  79.6226
 54.3376  6359.04  80.1792
 54.3796  6438.05  80.5743
 54.4216  6406.21  80.4152
 54.4636  6395.77  80.372
 54.5056  6390.17  80.0998
 54.5476  6394.54  80.4604
 54.5896  6404.23  80.3496
 54.6316  6394.97  80.1539
 54.6736  6428.84  80.4386
 54.7156  6379.82  80.1545
 54.7576  6257.06  79.3752
 54.7996  6321.63  79.9385
 54.8416  6341.8  80.0066
 54.8836  6194.13  79.2718
 54.9256  6396.72  80.3096
 54.9676  6366.48  79.97
 55.0096  6295.64  79.5923
 55.0516  6272.79  79.6856
 55.0936  6304.6  79.514
 55.1356  6311.21  79.6042
 55.1776  6275.67  79.6408
 55.2196  6251.6  79.332
 55.2616  6248.49  79.4649
 55.3036  6210.11  79.3829
 55.3456  6300.83  80.1066
 55.3876  6371.72  80.2989
 55.4296  6342.62  80.1309
 55.4716  6231.88  79.4246
 55.5136  6250.46  79.3002
 55.5556  6352.38  80.0138
 55.5976  6276.86  79.598
 55.6396  6268.12  79.4081
 55.6816  6343.34  79.841
 55.7236  6275.65  79.4579
 55.7656  6338.86  79.6101
 55.8076  6393.61  79.9367
 55.8496  6256  79.5027
 55.8916  6241.26  79.5022
 55.9336  6229.14  79.2404
 55.9756  6264.79  79.3598
 56.0176  6235.69  79.3223
 56.0596  6288.54  79.6479
 56.1016  6264.31  79.506
 56.1436  6288.83  79.9176
 56.1856  6260.01  79.4842
 56.2276  6194.16  79.1112
 56.2696  6289.33  79.7233
 56.3116  6199.74  79.5259
 56.3536  6228.99  79.3709
 56.3956  6204.09  79.203
 56.4376  6171.28  79.0274
 56.4796  6299.13  79.6462
 56.5216  6161.46  79.143
 56.5636  6274.28  79.4509
 56.6056  6224.85  79.3621
 56.6476  6174.8  78.678
 56.6896  6222.96  79.429
 56.7316  6176.43  79.0268
 56.7736  6225.48  79.3536
 56.8156  6215.92  79.2942
 56.8576  6236.96  79.367
 56.8996  6130.4  78.626
 56.9416  6273.5  79.8366
 56.9836  6145.72  78.5329
 57.0256  6183.69  79.0997
 57.0676  6208.41  79.3759
 57.1096  6307.68  79.7984
 57.1516  6223.04  79.3321
 57.1936  6170.1  78.7322
 57.2356  6218.35  79.3647
 57.2776  6155.28  78.9169
 57.3196  6264.48  79.7714
 57.3616  6305.48  79.7349
 57.4036  6293.13  79.7197
 57.4456  6163.59  78.8576
 57.4876  6205.52  78.9882
 57.5296  6208.67  79.3486
 57.5716  6131.78  78.8422
 57.6136  6174.1  78.9357
 57.6556  6197.72  79.2243
 57.6976  6191.37  78.9069
 57.7396  6156.87  79.1607
 57.7816  6093.67  79.1092
 57.8236  6159.53  79.3288
 57.8656  6201.26  79.2552
 57.9076  6228.17  79.4583
 57.9496  6235.67  79.8578
 57.9916  6156.8  78.8622
 58.0336  6160.05  79.1611
 58.0756  6284.35  79.563
 58.1176  6217.94  79.162
 58.1596  6156.98  79.3428
 58.2016  6264.87  79.2514
 58.2436  6283.5  79.7756
 58.2856  6206.93  79.2221
 58.3276  6121.25  79.0444
 58.3696  6169.73  79.1038
 58.4116  6230.89  79.36
 58.4536  6300.14  79.6802
 58.4956  6093.7  78.5491
 58.5376  6162.99  78.6803
 58.5796  6163.55  78.991
 58.6216  6266.43  79.4628
 58.6636  6203.87  79.2833
 58.7056  6240.67  79.3701
 58.7476  6119.17  79.0411
 58.7896  6111.29  78.6328
 58.8316  6216.44  79.4078
 58.8736  6253.19  79.5433
 58.9156  6132.33  78.8089
 58.9576  6284.23  80.1119
 58.9996  6247.36  79.1083
 59.0416  6390.34  80.3765
 59.0836  6235.83  79.3207
 59.1256  6113.68  79.253
 59.1676  6109.45  79.5213
 59.2096  6334.64  80.2851
 59.2516  6222.06  79.1432
 59.2936  6233.09  79.5466
 59.3356  6158.7  78.947
 59.3776  6289.62  79.9542
 59.4196  6214.56  79.4112
 59.4616  6178.08  79.0357
 59.5036  6182.98  79.0998
 59.5456  6323.81  79.6848
 59.5876  6216.56  79.2
 59.6296  6126.38  78.6932
 59.6716  6248.72  79.534
 59.7136  6213.03  79.2947
 59.7556  6348  80.2913
 59.7976  6264.1  79.4963
 59.8396  6245.32  79.2695
 59.8816  6231.2  79.7336
 59.9236  6229.97  79.3641
 59.9656  6118.79  78.9153
 60.0076  6300.32  79.4208
 60.0496  6155.05  79.0064
 60.0916  6306.98  79.383
 60.1336  6226.3  79.998
 60.1756  6043.24  79.998
 60.1996  0.0000000E+00  0.0000000E+00