File: docs/examples/opeando_xrd/IS17_D/Data/IS17_D/17_Da_f00126.xye
# /beamlines/bl04/projects/cycle2025-II/20250340211-lsimonelli/DATA/IS17_D/17_Da_f00126.xye : mythproc.py merge -s 0.006 -l 0.5 -f /beamlines/bl04/inhouse/ff/FlatField/ff_20Nov2024rod8mm60s_17keV.raw -b True -c true -o xye /beamlines/bl04/projects/cycle2025-II/20250340211-lsimonelli/DATA/IS17_D/17_Da_00126.dat
# IsMon = [6783020, 6779092, 6777369]  IsPos = [-1.5000, -2.4884, -3.4988]
# Wave = 0.4962  CalPath /beamlines/bl04/projects/cycle2025-II/20250340211-lsimonelli/DATA/Align/Si_Pos1_25keV_f00001.cal
# Date = 2025-09-25_04:41:47 Dt = 4.8000  Bin = 0.0060  <imon> = 6779827 +/- 2365 (Min/Max) 6777369 / 6783020
# icurr 252.1596  mocoIn 1.7205E-05  mocoOut 0.8077  i15 7.09787e+06  imon 6.77983e+06  i7 3.3333  iEMpd_timer 4.8000  iEMpd_1 3.5771E-08  iEMpd_2 7.9340E-08  iEMpd_3 1.6747E-08  iEMpd_4 4.8890E-08  iEMhp_timer 4.8000  iEMhp_1 4.9258E-06  iEMhp_2 -2.6191E-08  iEMhp_3 -2.5213E-08  iEMhp_4 -2.0413E-08
#      9776
 1.5856  41116.7  208.166
 1.6276  48578.7  222.386
 1.6696  54967.6  235.724
 1.7116  62868.1  252.588
 1.7536  73096.8  271.202
 1.7956  76964.6  278.98
 1.8376  73577.3  273.204
 1.8796  61567.8  248.086
 1.9216  49749.4  223.888
 1.9636  42288.6  206.092
 2.0056  37986  194.079
 2.0476  35418.8  189.46
 2.0896  34112.2  184.843
 2.1316  33024.6  180.998
 2.1736  31219  177.376
 2.2156  31797.7  177.576
 2.2576  30485.2  174.496
 2.2996  29168.9  171.314
 2.3416  29644.6  171.327
 2.3836  29122  169.914
 2.4256  28630.7  169.024
 2.4676  27701  166.021
 2.5096  27538.4  165.587
 2.5516  27193.9  168.383
 2.5936  26926.2  164.171
 2.6356  26499.5  163.552
 2.6776  26391.1  162.106
 2.7196  25916.9  161.16
 2.7616  26112.9  161.546
 2.8036  25423.1  159.571
 2.8456  25534.4  160.533
 2.8876  24961.9  158.607
 2.9296  24590.5  157.539
 2.9716  24557.7  156.929
 3.0136  24297.4  156.162
 3.0556  24512.5  157.248
 3.0976  24301  155.497
 3.1396  23972.6  155.168
 3.1816  23908.4  154.891
 3.2236  23612.9  153.929
 3.2656  23789.1  153.543
 3.3076  23231.3  153.166
 3.3496  23841.1  154.113
 3.3916  24276  155.329
 3.4336  24505  156.637
 3.4756  25173.2  158.673
 3.5176  25895.8  160.744
 3.5596  25605.2  162.845
 3.6016  25887.3  160.784
 3.6436  25099  159.423
 3.6856  24635.9  156.232
 3.7276  23447.4  153.51
 3.7696  23665.5  154.208
 3.8116  23106.1  152.466
 3.8536  23242.1  152.843
 3.8956  23220.3  152.601
 3.9376  23258.4  152.98
 3.9796  23107.6  151.989
 4.0216  22992.1  150.642
 4.0636  22936.2  151.937
 4.1056  22942.7  151.601
 4.1476  23218.1  152.813
 4.1896  23390.1  153.247
 4.2316  23557.3  153.617
 4.2736  23975.9  154.763
 4.3156  24416.3  156.418
 4.3576  25000.2  158.2
 4.3996  25195.7  159.074
 4.4416  25886.6  160.82
 4.4836  26317.4  162.303
 4.5256  26655.6  163.949
 4.5676  26805.2  164.676
 4.6096  27121.2  164.659
 4.6516  27505.7  165.165
 4.6936  27684.8  166.524
 4.7356  28157.5  167.76
 4.7776  27878.7  166.768
 4.8196  27413  165.996
 4.8616  26980.1  164.177
 4.9036  26713.8  163.097
 4.9456  26667.1  163.612
 4.9876  26126  161.85
 5.0296  26591.6  163.1
 5.0716  26238.4  162.802
 5.1136  26420.5  163.064
 5.1556  26853.3  163.864
 5.1976  27108.7  164.614
 5.2396  27423.3  165.274
 5.2816  27169.9  164.956
 5.3236  27389.9  165.342
 5.3656  26858.9  164.656
 5.4076  26865.5  164.827
 5.4496  26897  164.415
 5.4916  27146.3  164.92
 5.5336  26798.9  163.875
 5.5756  26735.7  163.694
 5.6176  27117.8  164.303
 5.6596  27278.8  165.618
 5.7016  27461.4  165.584
 5.7436  27542.6  166.103
 5.7856  27361.9  165.613
 5.8276  27927.1  167.049
 5.8696  27884.4  166.962
 5.9116  28018  168.093
 5.9536  28175.1  168.301
 5.9956  28658.2  169.106
 6.0376  28444  169.117
 6.0796  28915.6  170.341
 6.1216  28972.8  170.723
 6.1636  29071.6  170.058
 6.2056  29012.5  170.564
 6.2476  29099.2  170.489
 6.2896  29333.6  171.047
 6.3316  29179.5  170.765
 6.3736  29287.6  170.979
 6.4156  29325.8  171.047
 6.4576  29811.5  172.004
 6.4996  29872.7  172.674
 6.5416  29871.5  172.799
 6.5836  29919.3  173.179
 6.6256  29854.9  172.542
 6.6676  30563.7  174.143
 6.7096  30305.6  174.25
 6.7516  30848.1  175.469
 6.7936  30924.9  175.107
 6.8356  30894.4  175.099
 6.8776  31318.4  177.118
 6.9196  31509.7  178.05
 6.9616  31781.2  178.259
 7.0036  32484  179.862
 7.0456  32268.1  178.553
 7.0876  32328.9  180.334
 7.1296  32311.9  179.513
 7.1716  32345.6  179.13
 7.2136  31969.7  177.874
 7.2556  32428.2  179.308
 7.2976  32137.6  179.003
 7.3396  32330.1  179.756
 7.3816  31987.4  179.017
 7.4236  32458.4  179.613
 7.4656  32518.9  179.263
 7.5076  32925.3  180.513
 7.5496  32798.6  180.719
 7.5916  32921.3  181.079
 7.6336  33278.9  181.954
 7.6756  33312  181.894
 7.7176  33715.7  183.29
 7.7596  33595.5  184.236
 7.8016  33988.9  187.502
 7.8436  34684.6  186.078
 7.8856  35021.7  186.586
 7.9276  35248.5  187.593
 7.9696  35738.5  189.203
 8.0116  36751.4  190.379
 8.0536  36584.2  190.206
 8.0956  36357  190.792
 8.1376  37012  191.974
 8.1796  37514  193.818
 8.2216  38025.7  193.863
 8.2636  38526.1  195.384
 8.3056  38075.2  195.025
 8.3476  38966.1  196.604
 8.3896  38626.8  195.827
 8.4316  38931  196.766
 8.4736  39081.8  196.602
 8.5156  38632.8  195.751
 8.5576  38424.9  196.211
 8.5996  38245  194.608
 8.6416  38059.6  195.406
 8.6836  38369.4  196.038
 8.7256  38566.1  195.965
 8.7676  38065.3  197.627
 8.8096  37777.7  194.128
 8.8516  37732.7  193.666
 8.8936  37329.5  192.48
 8.9356  37155.3  192.358
 8.9776  37428  193.186
 9.0196  37162.5  192.15
 9.0616  37284.7  191.951
 9.1036  37132.1  192.764
 9.1456  37227.6  192.368
 9.1876  37098  191.965
 9.2296  37168.5  191.561
 9.2716  36399.7  189.615
 9.3136  36576  190.058
 9.3556  37035.7  191.224
 9.3976  35253.6  187.093
 9.4396  35776.7  188.379
 9.4816  35369.8  187.154
 9.5236  35364.1  187.063
 9.5656  35090.1  186.656
 9.6076  34987.5  186.945
 9.6496  34756.5  186.234
 9.6916  34888.7  186.574
 9.7336  34375.9  184.959
 9.7756  34988  187.739
 9.8176  34216.7  185.274
 9.8596  33981  183.062
 9.9016  33509  181.779
 9.9436  33511  181.535
 9.9856  32898.2  180.261
 10.0276  32211.9  179.479
 10.0696  32994.4  180.664
 10.1116  31807  177.653
 10.1536  31526.1  176.527
 10.1956  31514.1  176.593
 10.2376  30941.7  174.474
 10.2796  31517.5  176.228
 10.3216  31195.5  175.463
 10.3636  30622.9  174.015
 10.4056  30413  173.831
 10.4476  30403.5  173.41
 10.4896  30328.1  172.644
 10.5316  29831.5  171.593
 10.5736  29587.7  171.649
 10.6156  29217.9  170.325
 10.6576  29429.4  169.5
 10.6996  28998.9  168.938
 10.7416  28845.5  168.726
 10.7836  28877.4  169.536
 10.8256  28677.4  169.38
 10.8676  28642.8  168.812
 10.9096  28370.1  168.04
 10.9516  28053.8  166.017
 10.9936  28137.8  166.466
 11.0356  27807.2  166.132
 11.0776  27718.5  165.168
 11.1196  27420.6  165.031
 11.1616  27214.5  164.101
 11.2036  27300.3  164.202
 11.2456  27267.8  164.831
 11.2876  27256.7  164.511
 11.3296  26945.9  163.48
 11.3716  27538.4  164.996
 11.4136  27622.4  166.124
 11.4556  27791.6  166.296
 11.4976  28297.5  166.73
 11.5396  28108.1  166.345
 11.5816  27378.5  164.614
 11.6236  27011.1  163.758
 11.6656  26686.2  161.9
 11.7076  26143.9  161.105
 11.7496  25923.8  164.405
 11.7916  26100.1  160.224
 11.8336  25756.9  160.07
 11.8756  25516  158.837
 11.9176  25730.7  159.161
 11.9596  25364.3  158.197
 12.0016  25058.2  158.053
 12.0436  25316.5  158.282
 12.0856  25027  157.909
 12.1276  24918.2  157.479
 12.1696  25107.8  157.195
 12.2116  25091.8  157.154
 12.2536  24603.7  156.407
 12.2956  24928.7  156.811
 12.3376  24666.7  156.175
 12.3796  24908.4  157.405
 12.4216  24692.8  155.945
 12.4636  24462.5  156.135
 12.5056  24697.2  156.145
 12.5476  24753.5  155.85
 12.5896  24647.5  156.154
 12.6316  24209.4  154.907
 12.6736  24367.3  155.907
 12.7156  24161.2  155.103
 12.7576  24576.9  156.683
 12.7996  24756.8  155.884
 12.8416  24494.3  156.12
 12.8836  25011.5  157.593
 12.9256  25175.9  157.101
 12.9676  25361.5  158.12
 13.0096  25020.4  158.143
 13.0516  25214.1  157.789
 13.0936  25207.2  157.884
 13.1356  25499.4  158.057
 13.1776  24935  157.295
 13.2196  25209  157.809
 13.2616  25156.5  157.967
 13.3036  25117.5  157.96
 13.3456  25125  158.199
 13.3876  25041  157.198
 13.4296  24935.6  157.033
 13.4716  25190.3  157.428
 13.5136  25284.1  157.891
 13.5556  25244.6  158.383
 13.5976  25061.4  157.946
 13.6396  25404.1  158.403
 13.6816  24898.7  157.164
 13.7236  25595  159.123
 13.7656  24875.7  157.402
 13.8076  24835.9  156.062
 13.8496  24795.1  156.726
 13.8916  24736  157.356
 13.9336  24944.1  157.248
 13.9756  24614.1  155.538
 14.0176  24620.7  156.255
 14.0596  24568.9  156.054
 14.1016  24345  155.74
 14.1436  24060  153.942
 14.1856  23917.3  153.794
 14.2276  23630.7  153.343
 14.2696  23974.9  154.311
 14.3116  23508.5  152.709
 14.3536  23073.4  151.457
 14.3956  23261.1  151.803
 14.4376  23243  151.514
 14.4796  23163  151.249
 14.5216  22867.1  151.079
 14.5636  22444.6  149.242
 14.6056  22710.1  149.697
 14.6476  22936  149.656
 14.6896  22327.9  148.204
 14.7316  22045.6  148.303
 14.7736  22056.8  147.48
 14.8156  21615.1  146.026
 14.8576  21580  145.764
 14.8996  21263.8  145.907
 14.9416  21049.3  145.175
 14.9836  21066.3  145.192
 15.0256  20901.7  143.549
 15.0676  20763.5  143.399
 15.1096  20727.6  143.007
 15.1516  20292.5  142.054
 15.1936  20109.6  140.843
 15.2356  19856.3  140.234
 15.2776  19926  140.054
 15.3196  19609.2  139.955
 15.3616  19616  139.735
 15.4036  19369.2  138.699
 15.4456  19711.2  139.57
 15.4876  19196.5  137.414
 15.5296  19097.3  137.346
 15.5716  19051.7  136.778
 15.6136  18949.1  136.744
 15.6556  18855.8  135.636
 15.6976  18742  135.522
 15.7396  18597.1  135.393
 15.7816  18527.7  134.641
 15.8236  18324.6  134.615
 15.8656  18524.2  135.128
 15.9076  18085.2  133.345
 15.9496  17911.1  135.487
 15.9916  17825.9  135.616
 16.0336  17613.2  131.66
 16.0756  17904.2  133.066
 16.1176  17908.9  133.007
 16.1596  17280.6  131.986
 16.2016  17547.6  131.743
 16.2436  17111.8  130.472
 16.2856  17208.6  130.381
 16.3276  17037.9  130.149
 16.3696  17315.8  131.026
 16.4116  16980.3  130.209
 16.4536  17166  130.706
 16.4956  16941.2  129.578
 16.5376  16971.6  129.892
 16.5796  16818  128.649
 16.6216  17025.9  129.753
 16.6636  16984.5  129.767
 16.7056  16708.8  128.567
 16.7476  17035.4  129.337
 16.7896  16681.9  128.744
 16.8316  16914.9  129.604
 16.8736  16841.8  129.576
 16.9156  16852.3  129.967
 16.9576  16593.8  129.775
 16.9996  16757.8  130.917
 17.0416  16926.4  129.889
 17.0836  16606.4  128.4
 17.1256  16151.5  126.642
 17.1676  16456.8  127.829
 17.2096  16119.7  126.385
 17.2516  16176.4  126.682
 17.2936  16226.2  126.914
 17.3356  15902.3  125.638
 17.3776  15813.3  125.48
 17.4196  16013.4  125.969
 17.4616  15814  125.095
 17.5036  15648.6  124.813
 17.5456  15374.6  124.355
 17.5876  15455.7  123.719
 17.6296  15534.7  123.832
 17.6716  15458.6  124.117
 17.7136  15163.6  123.075
 17.7556  15298.9  123.924
 17.7976  15372.6  123.961
 17.8396  15186.2  122.7
 17.8816  15198.7  123.303
 17.9236  15144.7  122.89
 17.9656  15266.4  123.945
 18.0076  15240.9  123.409
 18.0496  15252.5  122.579
 18.0916  15251.3  123.117
 18.1336  15128.6  122.726
 18.1756  15352.3  123.143
 18.2176  14953  121.768
 18.2596  15066.3  121.96
 18.3016  15040.9  122.113
 18.3436  15173.7  122.653
 18.3856  14832.7  121.396
 18.4276  15050.3  121.949
 18.4696  14885  121.393
 18.5116  15075.8  122.454
 18.5536  15046.9  122.713
 18.5956  14689.4  120.783
 18.6376  14804.4  121.67
 18.6796  14588  120.086
 18.7216  14793.7  121.432
 18.7636  14752.5  121.243
 18.8056  14686  120.92
 18.8476  14478.6  120.699
 18.8896  14489.9  120.064
 18.9316  14805.1  121.36
 18.9736  14567.9  120.069
 19.0156  14490.3  120.16
 19.0576  14568.1  119.324
 19.0996  14653.1  120.397
 19.1416  14469.2  120.03
 19.1836  14591.9  120.139
 19.2256  14422.7  119.657
 19.2676  14520.1  120.158
 19.3096  14453  120.135
 19.3516  14294  119.234
 19.3936  14348.4  119.551
 19.4356  14422.2  119.719
 19.4776  14484.6  120.086
 19.5196  14461.6  119.835
 19.5616  14299.3  119.415
 19.6036  14374.1  119.231
 19.6456  14323.4  119.128
 19.6876  14505.3  119.537
 19.7296  14441  119.718
 19.7716  14416.4  119.789
 19.8136  14604  120.773
 19.8556  14876.7  121.367
 19.8976  14794.6  121.098
 19.9396  14938.6  121.248
 19.9816  15129.3  122.28
 20.0236  15179.7  122.7
 20.0656  14909.7  121.606
 20.1076  14473.2  120.262
 20.1496  14344.9  119.747
 20.1916  14365.6  119.298
 20.2336  14269.3  118.869
 20.2756  14029.1  118.301
 20.3176  14010.6  117.969
 20.3596  14018.9  117.982
 20.4016  13921.6  117.368
 20.4436  13887.3  117.792
 20.4856  13867.1  117.481
 20.5276  13762.7  117.519
 20.5696  13700.4  116.804
 20.6116  13701.4  116.985
 20.6536  13707.6  116.515
 20.6956  13622.4  116.275
 20.7376  13659.5  116.676
 20.7796  13619.1  116.174
 20.8216  13686.4  116.167
 20.8636  13435.2  115.458
 20.9056  13551.1  115.915
 20.9476  13413  115.152
 20.9896  13726.5  116.366
 21.0316  13675.3  116.046
 21.0736  13405  115.414
 21.1156  13363  115.399
 21.1576  13490  115.991
 21.1996  13412.2  115.633
 21.2416  13214.6  114.601
 21.2836  13398  115.368
 21.3256  13185.4  114.524
 21.3676  13404.8  115.023
 21.4096  13383.1  115.306
 21.4516  13251.1  114.554
 21.4936  13003.4  113.737
 21.5356  13293.8  114.936
 21.5776  13228.7  114.481
 21.6196  13114.8  114.025
 21.6616  13066.8  113.911
 21.7036  13067.5  113.69
 21.7456  13318.6  114.854
 21.7876  13079  113.561
 21.8296  13013  113.131
 21.8716  13056.6  113.551
 21.9136  13305.7  114.838
 21.9556  12941.7  112.928
 21.9976  13041.4  113.372
 22.0396  13028.7  113.577
 22.0816  12995.6  113.984
 22.1236  13085.7  113.818
 22.1656  13113.8  114.06
 22.2076  12992.4  113.02
 22.2496  12992.6  113.051
 22.2916  13146.6  113.605
 22.3336  12948  113.47
 22.3756  12994.4  113.394
 22.4176  13051.8  113.498
 22.4596  12841.2  113.174
 22.5016  12930.7  113.046
 22.5436  13165.4  113.958
 22.5856  13035.5  113.64
 22.6276  12848.3  112.957
 22.6696  12892.2  113.511
 22.7116  12851.5  112.834
 22.7536  13016.4  113.534
 22.7956  13037.5  112.941
 22.8376  12811.9  112.494
 22.8796  13033.3  113.249
 22.9216  13074.8  113.996
 22.9636  13049.2  113.019
 23.0056  13088.1  113.324
 23.0476  13228.2  114.513
 23.0896  13464.7  114.892
 23.1316  13300.8  114.637
 23.1736  12981.8  116.231
 23.2156  13076.2  113.99
 23.2576  12984.7  113.689
 23.2996  12996.7  113.556
 23.3416  12709.6  112.792
 23.3836  12746.4  112.194
 23.4256  12986.8  113.359
 23.4676  12868.1  112.545
 23.5096  12863.8  113.21
 23.5516  12766.1  112.055
 23.5936  12942.9  113.746
 23.6356  13063.1  113.932
 23.6776  12814.6  113.064
 23.7196  12603.6  111.906
 23.7616  12929.3  113.063
 23.8036  12959.9  113.225
 23.8456  12770.3  111.972
 23.8876  12638.1  111.719
 23.9296  12560.1  111.888
 23.9716  12671.7  111.558
 24.0136  12927.6  113.597
 24.0556  12490.3  111.394
 24.0976  12372.8  110.675
 24.1396  12473.2  113.81
 24.1816  12486.8  112.27
 24.2236  12401.7  111.485
 24.2656  12276.9  110.391
 24.3076  12175.7  110.188
 24.3496  12054.5  109.537
 24.3916  12231.3  110.377
 24.4336  12173.9  110.331
 24.4756  12134.9  110.026
 24.5176  11904.9  108.623
 24.5596  11864.5  108.758
 24.6016  11817.7  108.638
 24.6436  11902.5  108.502
 24.6856  12018.4  108.796
 24.7276  11957.9  108.852
 24.7696  11756.1  108.038
 24.8116  11779.6  108.333
 24.8536  11593.3  107.453
 24.8956  11718.8  107.775
 24.9376  11540.2  107.124
 24.9796  11423.8  106.707
 25.0216  11452.8  106.947
 25.0636  11469  106.681
 25.1056  11482.1  107.452
 25.1476  11685.2  110.108
 25.1896  11557.1  107.96
 25.2316  11685.2  107.815
 25.2736  11514.3  106.672
 25.3156  11447.5  106.436
 25.3576  11409.2  106.678
 25.3996  11409.2  106.664
 25.4416  11415.4  106.678
 25.4836  11228.1  106.326
 25.5256  11266.9  105.87
 25.5676  11371.2  106.086
 25.6096  11228.8  105.992
 25.6516  11402.4  106.304
 25.6936  11232.8  105.818
 25.7356  11271.4  106.145
 25.7776  11374.6  106.311
 25.8196  10979.6  104.601
 25.8616  11287.7  105.992
 25.9036  11259.8  105.317
 25.9456  11253.2  105.89
 25.9876  11131.3  105.23
 26.0296  11286.8  105.615
 26.0716  11108.7  105.199
 26.1136  11307.9  106.085
 26.1556  11376.4  105.78
 26.1976  11053.8  105.195
 26.2396  11194.3  105.012
 26.2816  11171.7  105.519
 26.3236  11231.1  105.965
 26.3656  11139.9  105.244
 26.4076  11308.8  106.261
 26.4496  11706.8  107.567
 26.4916  11322.1  105.807
 26.5336  11053.1  104.868
 26.5756  11673  107.596
 26.6176  11051.4  104.779
 26.6596  11011.8  104.899
 26.7016  10977.8  104.492
 26.7436  10849.9  104.005
 26.7856  10867.8  104.083
 26.8276  10926.8  104.311
 26.8696  10864.8  103.89
 26.9116  10756.4  103.313
 26.9536  10740.8  103.282
 26.9956  10878.1  103.983
 27.0376  10649.2  103.083
 27.0796  10870.1  103.888
 27.1216  10615  102.73
 27.1636  10660  103.12
 27.2056  10680.9  103.105
 27.2476  10680.9  103.106
 27.2896  10737.5  103.495
 27.3316  10620.2  102.628
 27.3736  10655.4  103.079
 27.4156  10493.6  102.121
 27.4576  10553.5  102.655
 27.4996  10599.2  102.458
 27.5416  10522.7  102.417
 27.5836  10545.1  102.336
 27.6256  10839  103.91
 27.6676  10809.6  103.81
 27.7096  10454  101.952
 27.7516  10472.6  102.197
 27.7936  10435.8  102.176
 27.8356  10450.4  101.872
 27.8776  10414.5  101.732
 27.9196  10364.3  101.339
 27.9616  10442.1  101.923
 28.0036  10484  102.092
 28.0456  10449.8  102.061
 28.0876  10351.2  101.673
 28.1296  10316.9  101.341
 28.1716  10267.4  101.1
 28.2136  10319  101.324
 28.2556  10157.1  100.634
 28.2976  10073  100.216
 28.3396  10333.1  101.263
 28.3816  10285.5  101.046
 28.4236  10229.7  100.93
 28.4656  10082.7  100.235
 28.5076  10041.5  99.6643
 28.5496  10184.2  100.636
 28.5916  10162.1  100.33
 28.6336  10150.8  100.613
 28.6756  10210.2  100.106
 28.7176  10108.2  100.153
 28.7596  10087.3  99.9492
 28.8016  10120.1  100.151
 28.8436  9947.08  99.5346
 28.8856  10099.5  100.141
 28.9276  10147.5  100.621
 28.9696  10006.2  99.5766
 29.0116  9941.19  99.4489
 29.0536  9763.55  98.7518
 29.0956  9976.13  99.5323
 29.1376  9949.86  99.362
 29.1796  9948.76  99.3991
 29.2216  9954.41  99.2754
 29.2636  9975.68  99.4555
 29.3056  9864.52  98.691
 29.3476  9902.67  99.4097
 29.3896  9988.33  99.9419
 29.4316  9955.13  99.1089
 29.4736  10102.6  99.9144
 29.5156  9941.77  99.0224
 29.5576  9827.47  99.2066
 29.5996  9835.61  98.5009
 29.6416  9970.19  99.2911
 29.6836  10038.3  99.5569
 29.7256  9806.91  98.9673
 29.7676  9967.46  99.4356
 29.8096  9842.33  98.7436
 29.8516  9598.01  97.8548
 29.8936  9795.12  98.9473
 29.9356  9789.25  98.6696
 29.9776  9780.35  98.7784
 30.0196  9803.49  98.2777
 30.0616  9791.91  98.598
 30.1036  9773.44  98.3237
 30.1456  9668.75  98.0371
 30.1876  9697.11  98.1513
 30.2296  9751.11  98.3773
 30.2716  9945.35  98.9818
 30.3136  9973.61  99.9974
 30.3556  9811.22  99.18
 30.3976  9561.41  99.447
 30.4396  9809.64  98.0095
 30.4816  9757.97  97.3508
 30.5236  9632.37  96.7246
 30.5656  9635.47  97.4113
 30.6076  9768.23  97.8656
 30.6496  9689.51  97.5009
 30.6916  9603.34  97.1673
 30.7336  9665.63  97.6279
 30.7756  9673.83  97.7633
 30.8176  9831.65  98.4698
 30.8596  9686.01  97.5067
 30.9016  9477.83  96.3147
 30.9436  9735.1  97.8493
 30.9856  9529.89  96.9102
 31.0276  9548.68  96.6182
 31.0696  9511.34  97.0121
 31.1116  9549.67  97.1826
 31.1536  9571.53  97.1838
 31.1956  9298.81  95.8692
 31.2376  9345.22  96.1244
 31.2796  9465.51  96.2675
 31.3216  9481.6  96.291
 31.3636  9637.03  97.7804
 31.4056  9502.13  98.4394
 31.4476  9489.59  96.22
 31.4896  9414.53  96.3463
 31.5316  9517.88  96.2704
 31.5736  9477.1  95.8701
 31.6156  9351.31  95.2596
 31.6576  9517.68  96.2033
 31.6996  9586.69  96.2133
 31.7416  9289.37  95.6341
 31.7836  9375.59  95.2289
 31.8256  9375.2  95.4958
 31.8676  9362.39  95.4316
 31.9096  9422.54  95.9633
 31.9516  9211.43  95.1739
 31.9936  9170.01  94.7917
 32.0356  9314.2  95.5985
 32.0776  9368.08  95.7556
 32.1196  9278.06  95.2946
 32.1616  9363.91  95.2796
 32.2036  9191.34  94.9029
 32.2456  9226.01  95.4709
 32.2876  9303.41  95.3621
 32.3296  9362.88  95.6263
 32.3716  9324.68  95.552
 32.4136  9265.39  95.4669
 32.4556  9493.8  95.9987
 32.4976  9324.11  95.0843
 32.5396  9240.23  94.6876
 32.5816  9064.42  93.8937
 32.6236  9201.96  94.683
 32.6656  9351.11  95.9964
 32.7076  9148.79  94.6029
 32.7496  9225.41  94.6682
 32.7916  9312.78  95.0711
 32.8336  9264.81  94.9216
 32.8756  9341.12  95.0292
 32.9176  9054.86  94.0493
 32.9596  9069.99  94.1987
 33.0016  9130.62  94.3054
 33.0436  9235.19  95.027
 33.0856  9082.94  94.3036
 33.1276  9054.07  93.8851
 33.1696  9172.81  94.3367
 33.2116  9252.41  94.9761
 33.2536  9238.99  94.9027
 33.2956  9127.21  94.419
 33.3376  9060.25  93.8941
 33.3796  9155.58  94.509
 33.4216  9184.91  94.261
 33.4636  9178.63  94.367
 33.5056  8987.5  93.6285
 33.5476  8943.73  93.3738
 33.5896  9139.21  94.1712
 33.6316  8925.55  93.3791
 33.6736  8952.9  93.7686
 33.7156  8912.07  93.5916
 33.7576  9137.48  94.4044
 33.7996  9228.79  94.6347
 33.8416  8809.17  92.644
 33.8836  8997.51  93.402
 33.9256  8949.55  93.2042
 33.9676  9021.56  93.4792
 34.0096  8873.46  93.0228
 34.0516  8980.59  93.2207
 34.0936  8806.66  92.5846
 34.1356  9005.28  93.3559
 34.1776  8834.81  92.4871
 34.2196  8903.37  93.0225
 34.2616  8820.75  92.7253
 34.3036  8841.93  93.0825
 34.3456  8811.43  92.675
 34.3876  8825.42  92.8079
 34.4296  8895.95  92.7709
 34.4716  8863.52  92.7572
 34.5136  8853.63  92.9066
 34.5556  8795.61  92.8604
 34.5976  8788.69  92.6447
 34.6396  8853.94  92.6766
 34.6816  8721.01  92.081
 34.7236  8836.6  92.4814
 34.7656  8798.19  92.4731
 34.8076  8695.13  92.2484
 34.8496  8732.41  92.3139
 34.8916  8691.9  91.9681
 34.9336  8800.71  92.5074
 34.9756  8799.26  92.4431
 35.0176  8832.65  93.1279
 35.0596  8655.68  92.0109
 35.1016  8710.78  92.0752
 35.1436  8817.58  92.3197
 35.1856  8602.3  91.3145
 35.2276  8668.04  91.8411
 35.2696  8667.27  92.024
 35.3116  8719.12  92.3967
 35.3536  8640.34  91.7136
 35.3956  8497.8  90.6344
 35.4376  8583.77  91.6338
 35.4796  8673.91  92.1947
 35.5216  8662.86  92.0902
 35.5636  8445.34  91.6746
 35.6056  8688.7  91.9958
 35.6476  8683.97  91.8603
 35.6896  8692.36  91.9851
 35.7316  8601.83  91.4771
 35.7736  8489.85  91.0858
 35.8156  8508.83  91.1723
 35.8576  8626.05  92.0701
 35.8996  8628.84  92.0469
 35.9416  8611.07  91.4632
 35.9836  8503.66  91.3359
 36.0256  8656.14  92.0682
 36.0676  8654.56  91.8149
 36.1096  8586.95  91.5897
 36.1516  8540.32  91.2309
 36.1936  8578.58  91.283
 36.2356  8580.21  91.9389
 36.2776  8615.16  91.5878
 36.3196  8537.37  90.854
 36.3616  8524.18  90.9143
 36.4036  8513.56  90.9153
 36.4456  8454.68  90.8074
 36.4876  8442.29  90.6869
 36.5296  8491.03  90.9831
 36.5716  8440.06  91.4996
 36.6136  8642.13  91.3561
 36.6556  8640.97  91.554
 36.6976  8420.92  90.8811
 36.7396  8453.68  90.7813
 36.7816  8376.31  90.7468
 36.8236  8486.27  91.2605
 36.8656  8398.61  90.8664
 36.9076  8422.24  90.8636
 36.9496  8424.64  90.866
 36.9916  8549  91.158
 37.0336  8454.3  90.9739
 37.0756  8503.79  91.0242
 37.1176  8310.3  90.254
 37.1596  8437.15  90.9442
 37.2016  8344.25  90.6733
 37.2436  8380.23  90.1765
 37.2856  8342.24  90.2249
 37.3276  8520.27  90.521
 37.3696  8306.19  90.2737
 37.4116  8482.55  91.1325
 37.4536  8400.23  90.5551
 37.4956  8244.31  89.7592
 37.5376  8466.21  92.5074
 37.5796  8279.89  91.4539
 37.6216  8214.36  89.342
 37.6636  8182.01  89.0665
 37.7056  8382.15  90.3515
 37.7476  8304.02  89.4469
 37.7896  8237.19  89.606
 37.8316  8104.13  89.0422
 37.8736  8343.86  89.8801
 37.9156  8340.75  89.8573
 37.9576  8263.14  89.3266
 37.9996  7990.91  87.5652
 38.0416  8226.38  89.6617
 38.0836  8231.32  89.5949
 38.1256  8224.51  89.5235
 38.1676  8181.54  89.416
 38.2096  8208.64  89.1762
 38.2516  8340.09  90.1047
 38.2936  8202.6  89.1465
 38.3356  8309.74  89.6541
 38.3776  8136.27  88.9867
 38.4196  8230.37  89.3613
 38.4616  8352.05  90.2531
 38.5036  8247.86  89.5295
 38.5456  8141.42  89.7942
 38.5876  8178.25  90.0305
 38.6296  8132.71  88.7365
 38.6716  8168.15  88.7168
 38.7136  8055.31  88.0459
 38.7556  8109.87  88.8528
 38.7976  8156.28  89.0454
 38.8396  8091.82  89.1493
 38.8816  7887.64  87.7936
 38.9236  7999.82  88.2306
 38.9656  7934.9  87.7848
 39.0076  7980.93  87.4455
 39.0496  8100.07  88.6332
 39.0916  8169.31  88.6478
 39.1336  8119.97  88.8093
 39.1756  8040.2  88.4429
 39.2176  8098.11  89.3013
 39.2596  8006.39  88.7107
 39.3016  8110.19  88.8384
 39.3436  8021.45  88.7921
 39.3856  8096.28  88.6479
 39.4276  8076.58  89.0346
 39.4696  8129.49  88.9476
 39.5116  8115.08  89.3848
 39.5536  8239.29  90.516
 39.5956  8181.49  89.2879
 39.6376  8098.79  88.8414
 39.6796  8098.32  88.5687
 39.7216  8160.93  89.0204
 39.7636  8092.24  89.2159
 39.8056  8117.32  89.1274
 39.8476  8056.63  89.0517
 39.8896  8111.86  88.9691
 39.9316  8126.42  89.3191
 39.9736  8238.55  89.4924
 40.0156  8035.38  88.205
 40.0576  8131.55  89.1033
 40.0996  8174.16  88.4973
 40.1416  8109.62  88.9493
 40.1836  8213.55  89.4063
 40.2256  8198  89.3725
 40.2676  8120.3  89.1274
 40.3096  8096.09  88.8403
 40.3516  8227.56  89.6713
 40.3936  8278.16  89.503
 40.4356  8061.29  88.5182
 40.4776  8168.27  89.3496
 40.5196  8162.73  89.6202
 40.5616  8217.24  89.5473
 40.6036  8124.37  89.3005
 40.6456  8233.76  89.5141
 40.6876  8182.94  89.2125
 40.7296  8156.92  89.2166
 40.7716  8140.64  89.2508
 40.8136  8026.89  88.5704
 40.8556  8125.17  89.2385
 40.8976  8110.45  89.0843
 40.9396  8068.52  89.1987
 40.9816  8165.87  89.0161
 41.0236  8131.21  88.6127
 41.0656  8226.32  89.6734
 41.1076  8149.67  89.027
 41.1496  8164.01  89.0103
 41.1916  7989.24  88.3776
 41.2336  8061.18  88.7539
 41.2756  8094.62  88.5474
 41.3176  8107.34  89.2296
 41.3596  8037.17  88.5741
 41.4016  8129.73  89.3492
 41.4436  8099.17  88.9648
 41.4856  8234.96  89.875
 41.5276  8024.83  88.7393
 41.5696  8141.64  89.0098
 41.6116  8132.03  89.3521
 41.6536  8161.18  89.3738
 41.6956  8161.5  89.356
 41.7376  8096.29  89.1
 41.7796  8016.24  88.5461
 41.8216  8148.29  89.5056
 41.8636  8207.23  89.7754
 41.9056  7963.49  88.2105
 41.9476  8006.77  88.6867
 41.9896  8126.09  88.997
 42.0316  8110.74  89.0074
 42.0736  8050.68  88.8198
 42.1156  8088.46  88.8351
 42.1576  8032.34  88.6317
 42.1996  8088.51  89.0803
 42.2416  8059.68  88.4993
 42.2836  8000.43  88.2877
 42.3256  7876.56  87.7146
 42.3676  7986.97  88.1251
 42.4096  8006.99  88.2003
 42.4516  7996.61  88.2272
 42.4936  7966.2  88.1364
 42.5356  7940.09  88.1325
 42.5776  8127.04  89.0932
 42.6196  8035.67  88.6476
 42.6616  7809.09  87.5611
 42.7036  8121.07  88.6645
 42.7456  8054.12  88.652
 42.7876  7980.63  88.3511
 42.8296  7928.34  87.8968
 42.8716  8016.07  88.5437
 42.9136  7890.57  87.6009
 42.9556  7996.78  88.3605
 42.9976  8075.08  88.7528
 43.0396  7992.98  88.0285
 43.0816  7968.82  88.2706
 43.1236  7931.97  88.1324
 43.1656  7958.58  88.1086
 43.2076  7885.62  87.8052
 43.2496  7868.23  87.5231
 43.2916  7791.67  87.4627
 43.3336  7986.28  88.385
 43.3756  7905.77  87.6866
 43.4176  7875.58  87.6038
 43.4596  7736.62  86.6845
 43.5016  7822.96  87.5764
 43.5436  7895.94  87.8829
 43.5856  7841.74  87.6107
 43.6276  7809.05  87.3194
 43.6696  7840.23  87.7569
 43.7116  7907.14  87.6176
 43.7536  7943.02  88.3091
 43.7956  7725.86  88.2843
 43.8376  7827.15  87.4103
 43.8796  7753.63  87.0773
 43.9216  7791.82  87.2099
 43.9636  7942.52  88.1579
 44.0056  7852.61  87.892
 44.0476  7719.19  86.7747
 44.0896  7783.79  87.482
 44.1316  7791.57  87.0434
 44.1736  7780.32  87.1079
 44.2156  7875.85  87.4894
 44.2576  7708.77  86.887
 44.2996  7828.52  87.5286
 44.3416  7759.94  86.903
 44.3836  7608.74  86.3809
 44.4256  7557.52  85.7323
 44.4676  7591.31  86.0822
 44.5096  7596.71  86.256
 44.5516  7650.93  86.5256
 44.5936  7556.77  85.9475
 44.6356  7611.85  85.9941
 44.6776  7677.5  86.686
 44.7196  7686.56  87.0492
 44.7616  7635.42  88.083
 44.8036  7573.5  86.3468
 44.8456  7597.81  86.4763
 44.8876  7599.34  86.3393
 44.9296  7778.62  86.7919
 44.9716  7642.35  86.4586
 45.0136  7621.56  86.2851
 45.0556  7663.93  86.6065
 45.0976  7499.65  85.7228
 45.1396  7575.86  85.9101
 45.1816  7511.32  85.5007
 45.2236  7596.16  85.8702
 45.2656  7565.77  86.2084
 45.3076  7517.77  85.7099
 45.3496  7454.89  85.6637
 45.3916  7476.81  86.0517
 45.4336  7460.2  85.7891
 45.4756  7565.92  86.2584
 45.5176  7530.83  85.669
 45.5596  7551.3  85.9152
 45.6016  7473.3  85.8892
 45.6436  7421.19  84.7652
 45.6856  7519.07  85.9864
 45.7276  7455.02  86.9489
 45.7696  7449.89  86.5821
 45.8116  7420.84  85.8524
 45.8536  7372.21  85.4566
 45.8956  7471.02  85.3781
 45.9376  7535.59  85.2072
 45.9796  7509.27  85.742
 46.0216  7523.73  86.176
 46.0636  7587.61  85.6776
 46.1056  7507.77  85.2098
 46.1476  7476.17  85.6259
 46.1896  7565.43  86.2872
 46.2316  7412.36  85.2805
 46.2736  7438.12  85.625
 46.3156  7491.83  85.6876
 46.3576  7481.08  85.8324
 46.3996  7316.53  85.043
 46.4416  7518.45  85.7554
 46.4836  7254.79  84.6159
 46.5256  7550.61  86.2617
 46.5676  7346.6  85.2015
 46.6096  7542.7  86.2635
 46.6516  7522.05  85.1809
 46.6936  7372.82  84.8224
 46.7356  7480.33  85.5332
 46.7776  7324.79  85.5011
 46.8196  7329.76  85.2738
 46.8616  7182.48  84.2161
 46.9036  7226.12  84.1278
 46.9456  7241.89  83.8646
 46.9876  7393.91  84.8229
 47.0296  7241.8  84.6341
 47.0716  7235.94  84.4196
 47.1136  7306.27  84.4987
 47.1556  7280.12  84.2246
 47.1976  7427.56  85.2251
 47.2396  7318.8  84.92
 47.2816  7242.44  84.1852
 47.3236  7219.02  84.4091
 47.3656  7274.65  84.6726
 47.4076  7273.04  84.3893
 47.4496  7249.04  84.4179
 47.4916  7187.12  84.2459
 47.5336  7392.57  85.2558
 47.5756  7291.52  84.7742
 47.6176  7217.12  84.2496
 47.6596  7157.53  83.6224
 47.7016  7327.63  84.4219
 47.7436  7270.8  84.4386
 47.7856  7300.35  84.6207
 47.8276  7170.47  83.9268
 47.8696  7147.88  83.8761
 47.9116  7268.3  84.2909
 47.9536  7225.73  83.9909
 47.9956  7137.78  84.1804
 48.0376  7078.67  83.6011
 48.0796  7199.92  84.4434
 48.1216  7304.58  84.872
 48.1636  7291.89  84.3695
 48.2056  7258.73  84.45
 48.2476  7239.38  84.6432
 48.2896  7192.42  84.2816
 48.3316  7118.39  83.7937
 48.3736  7080.56  83.5895
 48.4156  7043.51  83.2292
 48.4576  7110.98  83.9121
 48.4996  7211.62  83.9625
 48.5416  7207.59  84.2556
 48.5836  7055.05  83.0432
 48.6256  7230.35  84.2745
 48.6676  7083.92  83.92
 48.7096  7138.94  83.5315
 48.7516  7088.91  83.3816
 48.7936  7018.88  83.0337
 48.8356  7171.27  83.9754
 48.8776  7131.48  84.311
 48.9196  7231.02  84.2609
 48.9616  7081.12  83.7685
 49.0036  7002.64  83.6435
 49.0456  7031.69  83.8028
 49.0876  7033.83  83.3629
 49.1296  6943.65  82.9802
 49.1716  6875.28  82.4457
 49.2136  7167.2  84.0959
 49.2556  7121.44  83.8583
 49.2976  7104.14  83.8291
 49.3396  6992.09  83.221
 49.3816  7065.11  83.0755
 49.4236  7044.95  83.3898
 49.4656  6896.21  82.53
 49.5076  7039.94  83.1309
 49.5496  6978.78  82.8279
 49.5916  7084.78  83.3769
 49.6336  7042.04  83.3197
 49.6756  7009.56  83.3579
 49.7176  6963.99  83.0372
 49.7596  7023.45  83.1548
 49.8016  7084.2  83.4315
 49.8436  6996.6  83.2201
 49.8856  6979.62  83.1238
 49.9276  6908.08  82.7934
 49.9696  6999.55  83.3234
 50.0116  6864.3  82.6453
 50.0536  6951.28  83.1084
 50.0956  6894.08  82.8387
 50.1376  6916.32  82.677
 50.1796  6955  83.1754
 50.2216  6864.87  82.6241
 50.2636  6934.42  82.6608
 50.3056  6906.02  82.6714
 50.3476  6925.26  82.8068
 50.3896  6891.61  82.5745
 50.4316  6810.41  81.9248
 50.4736  6783.71  81.977
 50.5156  6924.66  82.8254
 50.5576  7004.04  83.0477
 50.5996  6798.94  82.1039
 50.6416  6841.95  82.2923
 50.6836  6812.53  82.1667
 50.7256  6919.37  82.7453
 50.7676  6816.43  82.427
 50.8096  6816.01  81.9775
 50.8516  6770.87  82.1174
 50.8936  6889.07  82.6192
 50.9356  6904.13  82.8047
 50.9776  6793.95  82.3002
 51.0196  6768.07  82.2811
 51.0616  6686.78  81.1144
 51.1036  6712.46  81.6249
 51.1456  6819.22  82.1805
 51.1876  6900.69  82.0125
 51.2296  6778.17  81.9145
 51.2716  6785.4  81.6657
 51.3136  6782.05  82.1016
 51.3556  6797.57  81.8189
 51.3976  6740.39  81.6246
 51.4396  6609.81  81.133
 51.4816  6711.56  81.6091
 51.5236  6791.51  82.1738
 51.5656  6777.82  81.6962
 51.6076  6838.02  82.1403
 51.6496  6724.78  81.649
 51.6916  6600.34  81.2402
 51.7336  6723.83  82.0833
 51.7756  6700.43  81.6457
 51.8176  6529.7  80.702
 51.8596  6675.54  81.614
 51.9016  6830.75  82.1614
 51.9436  6710.68  82.8739
 51.9856  6631.17  82.8213
 52.0276  6718.51  81.8709
 52.0696  6667.91  81.6215
 52.1116  6780.58  82.4406
 52.1536  6686.06  81.6959
 52.1956  6729.16  81.4765
 52.2376  6789.79  82.0106
 52.2796  6792.95  81.8393
 52.3216  6391.89  80.0644
 52.3636  6525.61  80.4786
 52.4056  6585.09  80.6928
 52.4476  6639.2  81.3988
 52.4896  6587.48  81.1342
 52.5316  6600.62  81.2506
 52.5736  6652.87  81.3091
 52.6156  6548.57  81.0305
 52.6576  6608.84  80.8656
 52.6996  6436.04  80.7607
 52.7416  6580.89  81.5216
 52.7836  6555.61  81.2306
 52.8256  6539.46  80.3506
 52.8676  6504.57  80.7293
 52.9096  6540.49  81.0355
 52.9516  6609.21  81.8403
 52.9936  6525.47  81.7007
 53.0356  6458.09  80.2786
 53.0776  6405.47  80.2073
 53.1196  6346.37  79.9657
 53.1616  6402.71  80.3668
 53.2036  6318.79  79.7831
 53.2456  6417.64  80.5209
 53.2876  6457.09  80.4633
 53.3296  6442.9  80.7069
 53.3716  6489.87  80.7348
 53.4136  6417.54  80.4389
 53.4556  6436.01  80.5901
 53.4976  6341.06  79.8414
 53.5396  6391.14  80.5528
 53.5816  6402.02  80.2534
 53.6236  6280.9  79.8227
 53.6656  6428.33  80.3871
 53.7076  6434.92  80.3906
 53.7496  6476.24  80.7621
 53.7916  6556.27  81.3896
 53.8336  6356.08  80.0349
 53.8756  6252.98  79.9323
 53.9176  6421.81  80.3558
 53.9596  6547.76  81.9235
 54.0016  6384.31  80.2207
 54.0436  6388.14  80.4638
 54.0856  6416.89  80.0588
 54.1276  6402.24  80.1748
 54.1696  6406.69  80.373
 54.2116  6408.03  80.1341
 54.2536  6381.83  79.7861
 54.2956  6481.46  80.4576
 54.3376  6353.59  80.1433
 54.3796  6349.71  80.0189
 54.4216  6472.1  80.8287
 54.4636  6368.13  80.1423
 54.5056  6472.59  80.6134
 54.5476  6386.43  80.4073
 54.5896  6468.98  80.7584
 54.6316  6428.57  80.3609
 54.6736  6511.59  80.9584
 54.7156  6387.36  80.2078
 54.7576  6286.47  79.5587
 54.7996  6377.53  80.284
 54.8416  6418.82  80.5845
 54.8836  6236.07  79.5356
 54.9256  6367.04  80.1201
 54.9676  6505.59  80.8451
 55.0096  6392.49  80.2054
 55.0516  6417.48  80.6028
 55.0936  6330.53  79.6794
 55.1356  6315.98  79.6318
 55.1776  6362.1  80.1821
 55.2196  6375.84  80.0581
 55.2616  6358.23  80.154
 55.3036  6323.82  80.1
 55.3456  6329.61  80.2947
 55.3876  6373.19  80.3104
 55.4296  6361.43  80.2166
 55.4716  6317.85  79.9695
 55.5136  6367.42  80.039
 55.5556  6334.67  79.8991
 55.5976  6335.02  79.9636
 55.6396  6360.5  79.9927
 55.6816  6331.24  79.763
 55.7236  6412.92  80.3252
 55.7656  6402.11  80.0075
 55.8076  6390.02  79.9197
 55.8496  6249.86  79.4602
 55.8916  6328.1  80.0551
 55.9336  6294.14  79.6472
 55.9756  6317.66  79.6932
 56.0176  6288.81  79.6625
 56.0596  6207.79  79.1343
 56.1016  6366.04  80.1535
 56.1436  6206.25  79.3899
 56.1856  6355.6  80.0874
 56.2276  6297.51  79.7645
 56.2696  6320.82  79.8904
 56.3116  6246.1  79.8161
 56.3536  6297.44  79.8072
 56.3956  6227.73  79.3555
 56.4376  6255.72  79.5651
 56.4796  6279.44  79.522
 56.5216  6232.11  79.5852
 56.5636  6365.22  80.028
 56.6056  6216.71  79.3102
 56.6476  6288.2  79.3985
 56.6896  6207.8  79.3229
 56.7316  6239.87  79.4484
 56.7736  6372.2  80.2799
 56.8156  6310.14  79.8894
 56.8576  6217.09  79.2398
 56.8996  6368.05  80.1345
 56.9416  6225.53  79.5363
 56.9836  6195.65  78.8492
 57.0256  6177.4  79.0616
 57.0676  6184.65  79.2267
 57.1096  6247.55  79.4207
 57.1516  6290.84  79.7627
 57.1936  6214.24  79.0152
 57.2356  6293.1  79.8439
 57.2776  6241.98  79.4699
 57.3196  6213.14  79.6572
 57.3616  6265.77  79.4841
 57.4036  6246.49  79.4215
 57.4456  6235.79  79.3159
 57.4876  6265.22  79.3651
 57.5296  6145.3  78.9378
 57.5716  6170.95  79.085
 57.6136  6220.78  79.2386
 57.6556  6223.79  79.3867
 57.6976  6363.86  80.0999
 57.7396  6256.26  79.799
 57.7816  6136.35  79.3893
 57.8236  6191.15  79.5337
 57.8656  6183.07  79.1417
 57.9076  6203.36  79.2973
 57.9496  6283.47  80.1628
 57.9916  6214.75  79.2281
 58.0336  6216.48  79.5235
 58.0756  6253.76  79.3666
 58.1176  6240.77  79.3042
 58.1596  6166.06  79.4043
 58.2016  6334.27  79.699
 58.2436  6307.58  79.9496
 58.2856  6274.86  79.6623
 58.3276  6154.41  79.2663
 58.3696  6219.1  79.4275
 58.4116  6218.3  79.2824
 58.4536  6295.93  79.6595
 58.4956  6205.46  79.2733
 58.5376  6407.89  80.1157
 58.5796  6291.5  79.8165
 58.6216  6317.17  79.7924
 58.6636  6251.35  79.5924
 58.7056  6158.45  78.8525
 58.7476  6182.75  79.4563
 58.7896  6265.91  79.6281
 58.8316  6247.71  79.5038
 58.8736  6203.66  79.2335
 58.9156  6087.87  78.5348
 58.9576  6272.87  80.0462
 58.9996  6367.86  79.8717
 59.0416  6430.93  80.6447
 59.0836  6209.62  79.1725
 59.1256  6169.33  79.6206
 59.1676  6281.51  80.654
 59.2096  6267.28  79.8663
 59.2516  6464.02  80.6766
 59.2936  6428.68  80.7944
 59.3356  6170.01  79.0287
 59.3776  6305.85  80.0665
 59.4196  6259.78  79.7088
 59.4616  6219.09  79.3067
 59.5036  6226.19  79.387
 59.5456  6380.08  80.0478
 59.5876  6327.06  79.9101
 59.6296  6354.46  80.154
 59.6716  6312.43  79.9477
 59.7136  6349.91  80.1727
 59.7556  6275.59  79.8412
 59.7976  6265.55  79.5147
 59.8396  6382.99  80.1477
 59.8816  6305.24  80.2155
 59.9236  6401.62  80.4593
 59.9656  6241.63  79.7126
 60.0076  6329.76  79.6153
 60.0496  6199.18  79.299
 60.0916  6428.6  80.154
 60.1336  6099.25  79.1868
 60.1756  6144.79  80.6766
 60.1996  0.0000000E+00  0.0000000E+00