File: docs/examples/opeando_xrd/IS17_D/Data/IS17_D/17_Da_f00138.xye
# /beamlines/bl04/projects/cycle2025-II/20250340211-lsimonelli/DATA/IS17_D/17_Da_f00138.xye : mythproc.py merge -s 0.006 -l 0.5 -f /beamlines/bl04/inhouse/ff/FlatField/ff_20Nov2024rod8mm60s_17keV.raw -b True -c true -o xye /beamlines/bl04/projects/cycle2025-II/20250340211-lsimonelli/DATA/IS17_D/17_Da_00138.dat
# IsMon = [6775814, 6781025, 6779960]  IsPos = [-1.4999, -2.4884, -3.4988]
# Wave = 0.4962  CalPath /beamlines/bl04/projects/cycle2025-II/20250340211-lsimonelli/DATA/Align/Si_Pos1_25keV_f00001.cal
# Date = 2025-09-25_08:02:59 Dt = 4.8000  Bin = 0.0060  <imon> = 6778933 +/- 2248 (Min/Max) 6775814 / 6781025
# icurr 251.8910  mocoIn 1.7189E-05  mocoOut 0.8061  i15 7.09798e+06  imon 6.77893e+06  i7 4.3333  iEMpd_timer 4.8000  iEMpd_1 3.6035E-08  iEMpd_2 8.0067E-08  iEMpd_3 1.7813E-08  iEMpd_4 4.9256E-08  iEMhp_timer 4.8000  iEMhp_1 4.9231E-06  iEMhp_2 -2.6037E-08  iEMhp_3 -2.4815E-08  iEMhp_4 -2.0269E-08
#      9776
 1.5856  40767.9  207.378
 1.6276  48020.8  221.208
 1.6696  54209.6  234.202
 1.7116  62372.8  251.709
 1.7536  71194.2  267.774
 1.7956  76389.2  278.065
 1.8376  72693.7  271.685
 1.8796  61304.5  247.649
 1.9216  49355.1  223.103
 1.9636  41654.3  204.12
 2.0056  36977.6  191.574
 2.0476  34752.2  187.756
 2.0896  33115.7  182.207
 2.1316  32253.9  178.957
 2.1736  30486.1  175.363
 2.2156  31158.8  175.865
 2.2576  30041.6  173.296
 2.2996  28844.3  170.437
 2.3416  29150.7  169.971
 2.3836  28301.8  167.582
 2.4256  27645.2  166.167
 2.4676  27496.7  165.485
 2.5096  27123.1  164.411
 2.5516  29686.5  175.956
 2.5936  78051.6  279.489
 2.6356  27985.4  168.097
 2.6776  25933.9  160.725
 2.7196  25538.6  159.994
 2.7616  25505.7  159.679
 2.8036  25105.9  158.591
 2.8456  25016.4  158.916
 2.8876  24591.8  157.43
 2.9296  24030  155.755
 2.9716  23880.4  154.77
 3.0136  23740.1  154.38
 3.0556  23908.2  155.32
 3.0976  23702.2  153.606
 3.1396  23251.1  152.828
 3.1816  23239.1  152.725
 3.2236  23023.5  152.004
 3.2656  23114.7  151.354
 3.3076  22817.4  151.819
 3.3496  23167.7  151.923
 3.3916  23579.5  153.103
 3.4336  23907.9  154.737
 3.4756  24331  156.039
 3.5176  25208.1  158.609
 3.5596  25074.4  160.6
 3.6016  25256.8  158.815
 3.6436  24490.3  157.472
 3.6856  23919  153.954
 3.7276  23085.7  152.314
 3.7696  22984.9  152.175
 3.8116  22574.2  150.701
 3.8536  22714.6  151.106
 3.8956  22617.7  150.607
 3.9376  23043.7  152.273
 3.9796  22260.4  149.178
 4.0216  22627.2  149.438
 4.0636  22381.1  150.089
 4.1056  22446.5  149.942
 4.1476  22677.2  151.04
 4.1896  22877.5  151.56
 4.2316  22914.7  151.515
 4.2736  23760.3  154.067
 4.3156  23777.2  154.346
 4.3576  24356.9  156.149
 4.3996  24701.2  157.497
 4.4416  25278.5  158.92
 4.4836  26144  161.765
 4.5256  26293.6  162.849
 4.5676  26061.6  162.376
 4.6096  26605.3  162.727
 4.6516  27153  164.102
 4.6936  27317.7  165.407
 4.7356  28039  167.407
 4.7776  27414.8  165.358
 4.8196  27135.7  165.173
 4.8616  26668.6  163.219
 4.9036  26324.3  161.921
 4.9456  26456.7  162.967
 4.9876  25634.8  160.32
 5.0296  25938.8  161.091
 5.0716  25871.5  161.648
 5.1136  26018  161.82
 5.1556  26406.9  162.48
 5.1976  30342.2  174.145
 5.2396  26856.9  163.556
 5.2816  26855.5  164.02
 5.3236  26840.2  163.675
 5.3656  26494.2  163.532
 5.4076  26039.5  162.273
 5.4496  26432.3  162.97
 5.4916  26414.2  162.682
 5.5336  26370.7  162.549
 5.5756  26125.6  161.83
 5.6176  26629.7  162.814
 5.6596  26499.7  163.396
 5.7016  26919.4  163.942
 5.7436  27059.5  164.642
 5.7856  26868.8  164.116
 5.8276  27396  165.437
 5.8696  27335.3  165.43
 5.9116  27315.9  165.973
 5.9536  27577.4  166.525
 5.9956  28147.3  167.592
 6.0376  27978.6  167.727
 6.0796  28235.1  168.326
 6.1216  28322.9  168.782
 6.1636  28448.1  168.225
 6.2056  28497.7  169.026
 6.2476  28425.3  168.694
 6.2896  29032.1  170.168
 6.3316  28634.3  169.18
 6.3736  28837  169.663
 6.4156  28918.9  169.807
 6.4576  29101.8  169.943
 6.4996  29357.7  171.161
 6.5416  29125.4  170.627
 6.5836  29623.2  172.305
 6.6256  29412.8  171.258
 6.6676  30028  172.609
 6.7096  29694.3  172.503
 6.7516  30071.4  173.243
 6.7936  30908.2  175.062
 6.8356  31296.3  176.237
 6.8776  31154.7  176.638
 6.9196  30601.9  175.469
 6.9616  31318.3  176.944
 7.0036  31735.7  177.781
 7.0456  31661.7  176.865
 7.0876  31599.5  178.382
 7.1296  31598.6  177.517
 7.1716  31545.3  176.912
 7.2136  31474.6  176.492
 7.2556  31596.3  176.992
 7.2976  31645.8  177.631
 7.3396  31584.1  177.662
 7.3816  31673.4  178.134
 7.4236  31868.5  177.974
 7.4656  32180.4  178.329
 7.5076  32366  178.974
 7.5496  32362.3  179.501
 7.5916  32129.4  178.888
 7.6336  33219.1  181.791
 7.6756  32825.8  180.564
 7.7176  33012.6  181.383
 7.7596  33307.2  183.447
 7.8016  36014.7  193.016
 7.8436  34269.9  184.92
 7.8856  34154.4  184.214
 7.9276  34813.3  186.385
 7.9696  34729.5  186.469
 8.0116  36287.9  189.125
 8.0536  36480.6  189.89
 8.0956  37347.5  193.322
 8.1376  36946.5  191.76
 8.1796  36949.4  192.314
 8.2216  37860.3  193.395
 8.2636  38643.6  195.637
 8.3056  37819.5  194.322
 8.3476  39754.1  198.537
 8.3896  38876  196.416
 8.4316  38666.5  196.05
 8.4736  38509.4  195.105
 8.5156  38164.5  194.518
 8.5576  38197.7  195.585
 8.5996  37974.9  193.874
 8.6416  37861.9  194.857
 8.6836  37757.2  194.423
 8.7256  38436.4  195.587
 8.7676  39439.8  201.136
 8.8096  39131.2  197.596
 8.8516  37593  193.29
 8.8936  38637.7  195.825
 8.9356  37103.1  192.278
 8.9776  37302.3  192.881
 9.0196  37077.3  191.977
 9.0616  37556.9  192.657
 9.1036  38194.2  195.525
 9.1456  37142  192.139
 9.1876  36514.9  190.472
 9.2296  36817.6  190.661
 9.2716  36266.8  189.291
 9.3136  36159.7  188.993
 9.3556  36585.4  190.089
 9.3976  34941.5  186.307
 9.4396  35475.8  187.613
 9.4816  34966.9  186.126
 9.5236  34969.4  186.037
 9.5656  34913  186.208
 9.6076  34560.6  185.799
 9.6496  34416.4  185.34
 9.6916  34302.6  184.997
 9.7336  34440  185.151
 9.7756  34726.9  187.181
 9.8176  33528.1  183.423
 9.8596  33664.9  182.231
 9.9016  33077.7  180.628
 9.9436  33100  180.6
 9.9856  32990.5  180.53
 10.0276  32247  179.601
 10.0696  32619  179.66
 10.1116  31758.9  177.536
 10.1536  31620  177.319
 10.1956  30925.1  174.957
 10.2376  30608.5  173.572
 10.2796  31136.8  175.184
 10.3216  30405.6  173.386
 10.3636  30338.5  173.223
 10.4056  32603.7  179.977
 10.4476  32403.2  179.043
 10.4896  35220  186.067
 10.5316  32922.6  180.643
 10.5736  29838.5  172.395
 10.6156  29654.5  171.637
 10.6576  33576.5  181.077
 10.6996  29401.3  170.124
 10.7416  28931.4  168.993
 10.7836  29738.5  172.033
 10.8256  28410.5  168.592
 10.8676  28473.1  168.3
 10.9096  28388.1  168.1
 10.9516  27903.8  165.574
 10.9936  28573.9  167.754
 11.0356  28254.8  167.462
 11.0776  28982.9  168.897
 11.1196  28710.1  168.863
 11.1616  27481  164.895
 11.2036  28273.2  167.111
 11.2456  29117.4  170.318
 11.2876  27135.5  164.159
 11.3296  27128.5  164.026
 11.3716  27712.3  165.472
 11.4136  27542.3  165.882
 11.4556  27947.6  166.752
 11.4976  28716  167.961
 11.5396  28165.1  166.505
 11.5816  27008.1  163.519
 11.6236  26461.2  162.072
 11.6656  26426.3  161.13
 11.7076  25870.8  160.264
 11.7496  26029.5  164.726
 11.7916  26184.2  160.481
 11.8336  25517.2  159.312
 11.8756  25747.6  159.561
 11.9176  25581.7  158.687
 11.9596  24999.1  157.083
 12.0016  24856.8  157.42
 12.0436  24852.4  156.829
 12.0856  24723.1  156.945
 12.1276  24714.5  156.825
 12.1696  24663.8  155.805
 12.2116  25073.7  157.082
 12.2536  26420.6  162.109
 12.2956  25001.4  157.023
 12.3376  24619.6  156.043
 12.3796  24748.4  156.908
 12.4216  24705.9  155.985
 12.4636  24886.3  157.485
 12.5056  24386.3  155.162
 12.5476  24717.5  155.737
 12.5896  24478.8  155.614
 12.6316  24193.7  154.876
 12.6736  24204.9  155.39
 12.7156  24281  155.503
 12.7576  24523.6  156.517
 12.7996  24563.5  155.275
 12.8416  24620.4  156.522
 12.8836  25301.6  158.492
 12.9256  25244.4  157.315
 12.9676  25149.8  157.443
 13.0096  24788.6  157.431
 13.0516  24988.8  157.084
 13.0936  24602.2  156.275
 13.1356  25032.5  156.603
 13.1776  24960.1  157.373
 13.2196  24846.3  156.671
 13.2616  24705.9  156.533
 13.3036  24813.7  156.849
 13.3456  24897.4  157.463
 13.3876  24911.8  156.81
 13.4296  24744.6  156.429
 13.4716  25024  156.913
 13.5136  25058.9  157.175
 13.5556  25048.5  157.753
 13.5976  25077.6  158.006
 13.6396  25364.2  158.254
 13.6816  24897.4  157.3
 13.7236  25625.5  159.227
 13.7656  24949.1  157.653
 13.8076  25825.2  159.135
 13.8496  24763.3  156.444
 13.8916  24815  157.615
 13.9336  24615  156.195
 13.9756  24253.9  154.4
 14.0176  24300.7  155.229
 14.0596  24828.8  156.877
 14.1016  24105  154.969
 14.1436  23673.3  152.719
 14.1856  23815.7  153.465
 14.2276  23474.2  152.851
 14.2696  23799.4  153.745
 14.3116  23521.7  152.735
 14.3536  22758.2  150.421
 14.3956  22999.8  150.94
 14.4376  23028.1  150.814
 14.4796  22997.5  150.708
 14.5216  22484.6  149.816
 14.5636  22950  150.916
 14.6056  22657.8  149.526
 14.6476  22438.8  148.027
 14.6896  22193.2  147.762
 14.7316  21838.6  147.604
 14.7736  21469.2  145.497
 14.8156  21311.3  144.999
 14.8576  21404.2  145.163
 14.8996  21043.7  145.149
 14.9416  20689.2  143.929
 14.9836  20820.4  144.33
 15.0256  20643.3  142.63
 15.0676  20508.8  142.482
 15.1096  20498.2  142.18
 15.1516  20094.6  141.335
 15.1936  19974.6  140.337
 15.2356  19856.5  140.202
 15.2776  19754.7  139.423
 15.3196  19669.6  140.139
 15.3616  19156.4  138.055
 15.4036  19265.1  138.293
 15.4456  19749.3  139.675
 15.4876  19098.7  137.032
 15.5296  19071.5  137.22
 15.5716  18695.7  135.452
 15.6136  18651.4  135.623
 15.6556  19497.2  137.892
 15.6976  18930.9  136.169
 15.7396  18685.5  135.684
 15.7816  18656.2  135.074
 15.8236  18051.3  133.574
 15.8656  18216.5  133.973
 15.9076  18099.6  133.365
 15.9496  18008.2  135.857
 15.9916  17622.6  134.841
 16.0336  17397.6  130.88
 16.0756  17647.3  132.123
 16.1176  17352.7  131.084
 16.1596  17157.2  131.525
 16.2016  17405  131.206
 16.2436  17109.5  130.477
 16.2856  17159.3  130.206
 16.3276  16602.3  128.49
 16.3696  17085.9  130.168
 16.4116  16758.1  129.376
 16.4536  16898.6  129.701
 16.4956  17269.9  130.843
 16.5376  16952  129.823
 16.5796  16723.4  128.307
 16.6216  16770.8  128.795
 16.6636  16775.9  128.962
 16.7056  16589.7  128.113
 16.7476  16727.4  128.171
 16.7896  16699.3  128.814
 16.8316  16554  128.213
 16.8736  16729.7  129.162
 16.9156  16666.9  129.261
 16.9576  16382.9  128.952
 16.9996  16533.8  130.037
 17.0416  16468.9  128.118
 17.0836  16342.4  127.387
 17.1256  16157.9  126.683
 17.1676  16427.1  127.73
 17.2096  16117.7  126.391
 17.2516  16046.5  125.892
 17.2936  15842.4  125.421
 17.3356  15447.8  123.856
 17.3776  15473.5  124.144
 17.4196  15582.2  124.26
 17.4616  15822.6  125.143
 17.5036  15839.6  125.567
 17.5456  15270.5  123.949
 17.5876  15338.3  123.266
 17.6296  15490.5  123.693
 17.6716  15322.6  123.597
 17.7136  15664.7  125.122
 17.7556  15197.2  123.525
 17.7976  15501.1  124.494
 17.8396  15313.5  123.229
 17.8816  15046.9  122.689
 17.9236  15119.5  122.804
 17.9656  15292.6  124.044
 18.0076  15565  124.716
 18.0496  15811.7  124.805
 18.0916  17932.8  133.496
 18.1336  17248  131.04
 18.1756  15852.2  125.132
 18.2176  15844.1  125.342
 18.2596  14951.2  121.488
 18.3016  15521.4  124.046
 18.3436  15811.2  125.197
 18.3856  15061.6  122.343
 18.4276  15024.8  121.852
 18.4696  15208.7  122.708
 18.5116  15071.1  122.438
 18.5536  14905.9  122.124
 18.5956  15021.8  122.14
 18.6376  14820.7  121.734
 18.6796  14778.7  120.871
 18.7216  14923.2  121.954
 18.7636  14622.6  120.723
 18.8056  14483.8  120.084
 18.8476  14435.2  120.514
 18.8896  14553.4  120.323
 18.9316  14682.1  120.848
 18.9736  14492.9  119.759
 19.0156  14695.5  120.999
 19.0576  14643.1  119.642
 19.0996  14751.4  120.805
 19.1416  14280.2  119.257
 19.1836  14337.5  119.091
 19.2256  14265.6  119.006
 19.2676  14262.7  119.083
 19.3096  14340.7  119.656
 19.3516  14336  119.597
 19.3936  14445.4  119.949
 19.4356  14332.7  119.349
 19.4776  14393.7  119.708
 19.5196  14322.6  119.256
 19.5616  14234.4  119.155
 19.6036  14268  118.782
 19.6456  14311.4  119.083
 19.6876  14700  120.325
 19.7296  14217.9  118.804
 19.7716  14300.4  119.298
 19.8136  14487.4  120.301
 19.8556  14830.6  121.173
 19.8976  15009.4  121.975
 19.9396  14942.4  121.269
 19.9816  14946.1  121.528
 20.0236  14856.1  121.385
 20.0656  14449.7  119.704
 20.1076  14115.8  118.783
 20.1496  13985.9  118.24
 20.1916  13994.6  117.795
 20.2336  14033.8  117.889
 20.2756  13755.1  117.14
 20.3176  13611  116.273
 20.3596  13736.7  116.781
 20.4016  13777.5  116.757
 20.4436  13763.3  117.253
 20.4856  13631  116.496
 20.5276  13701.9  117.253
 20.5696  13550.3  116.06
 20.6116  13601.3  116.556
 20.6536  13531  115.763
 20.6956  13290.5  114.85
 20.7376  13531.2  116.114
 20.7796  13350.2  115.023
 20.8216  13441.4  115.126
 20.8636  13504.9  115.769
 20.9056  14354.8  119.299
 20.9476  13437.8  115.274
 20.9896  14040.4  117.686
 21.0316  13576.1  115.618
 21.0736  13617.7  116.318
 21.1156  13860.9  117.517
 21.1576  13557.1  116.272
 21.1996  13306.7  115.178
 21.2416  13208.2  114.586
 21.2836  13337.4  115.099
 21.3256  13342.2  115.208
 21.3676  13404.3  115.018
 21.4096  13399.8  115.318
 21.4516  13198.2  114.319
 21.4936  13078  114.055
 21.5356  13189  114.48
 21.5776  13170.4  114.23
 21.6196  13274.3  114.717
 21.6616  13317.9  114.992
 21.7036  13132  113.973
 21.7456  13303.1  114.786
 21.7876  12891.5  112.744
 21.8296  12951.3  112.864
 21.8716  12938.5  113.04
 21.9136  13308.9  114.851
 21.9556  13188.4  113.999
 21.9976  12967.4  113.049
 22.0396  12966.8  113.31
 22.0816  13000.4  113.999
 22.1236  13188.2  114.263
 22.1656  13105.5  114.028
 22.2076  13106.5  113.494
 22.2496  13046.7  113.259
 22.2916  12858.1  112.316
 22.3336  13091.2  114.065
 22.3756  12966.4  113.246
 22.4176  12853.6  112.604
 22.4596  12641.7  112.266
 22.5016  13050.3  113.546
 22.5436  12992.7  113.181
 22.5856  12962.1  113.294
 22.6276  12853.7  112.956
 22.6696  12846.7  113.277
 22.7116  12771.5  112.458
 22.7536  12859.8  112.82
 22.7956  12951.4  112.545
 22.8376  12790.7  112.375
 22.8796  12969.3  112.948
 22.9216  13003.7  113.655
 22.9636  12895.6  112.326
 23.0056  12914.3  112.544
 23.0476  12976.4  113.39
 23.0896  13260.6  113.991
 23.1316  13017.9  113.386
 23.1736  12809.5  115.454
 23.2156  12986.4  113.601
 23.2576  12796.9  112.9
 23.2996  12829  112.818
 23.3416  12627.1  112.456
 23.3836  12895.1  112.86
 23.4256  12810.4  112.609
 23.4676  12846.4  112.454
 23.5096  12822.3  113.037
 23.5516  12759.1  112.035
 23.5936  13025  114.117
 23.6356  13094.8  114.083
 23.6776  12673.8  112.448
 23.7196  12722.5  112.236
 23.7616  12822.1  112.583
 23.8036  12667.2  111.965
 23.8456  12666.1  111.511
 23.8876  12392.7  110.664
 23.9296  12516.7  111.692
 23.9716  12586.3  111.204
 24.0136  12504.8  111.744
 24.0556  12410.8  111.051
 24.0976  12271.1  110.239
 24.1396  12300.8  113.038
 24.1816  12339.5  111.617
 24.2236  12272.2  110.917
 24.2656  12285.8  110.445
 24.3076  12268.8  110.617
 24.3496  12396.6  111.082
 24.3916  12292.3  110.672
 24.4336  12136.7  110.176
 24.4756  12169.7  110.194
 24.5176  11858.7  108.425
 24.5596  12000.4  109.2
 24.6016  11659.8  107.921
 24.6436  11910  108.569
 24.6856  11944.4  108.479
 24.7276  12056.5  109.305
 24.7696  11925.7  108.829
 24.8116  11818.1  108.515
 24.8536  11683.6  107.892
 24.8956  11604.3  107.266
 24.9376  11675.4  107.533
 24.9796  11536.9  107.249
 25.0216  11418  106.81
 25.0636  11659  107.577
 25.1056  11357.5  106.882
 25.1476  11463.5  109.074
 25.1896  11649.5  108.382
 25.2316  11608.8  107.455
 25.2736  11433.6  106.292
 25.3156  11420.5  106.314
 25.3576  11381.7  106.558
 25.3996  11421.4  106.73
 25.4416  11442.3  106.806
 25.4836  11215.5  106.265
 25.5256  11325.7  106.145
 25.5676  11441.6  106.41
 25.6096  11206  105.891
 25.6516  11300.2  105.821
 25.6936  11148  105.431
 25.7356  11225.3  105.93
 25.7776  11251.2  105.656
 25.8196  11160.7  105.463
 25.8616  11282.9  105.959
 25.9036  11418.3  106.054
 25.9456  11191.2  105.592
 25.9876  10958  104.55
 26.0296  11209.8  105.251
 26.0716  11174.9  105.523
 26.1136  11431.7  106.661
 26.1556  11419  105.971
 26.1976  11104.3  105.436
 26.2396  11189.7  104.985
 26.2816  11072.6  105.046
 26.3236  11292.9  106.25
 26.3656  11049.7  104.825
 26.4076  11238.2  105.93
 26.4496  11637.3  107.227
 26.4916  11207.6  105.27
 26.5336  11086.5  105.027
 26.5756  11625.3  107.378
 26.6176  11144.5  105.209
 26.6596  10976.1  104.727
 26.7016  10856.1  103.907
 26.7436  10748.6  103.531
 26.7856  10679.5  103.177
 26.8276  10789  103.661
 26.8696  10856.7  103.855
 26.9116  10812.7  103.568
 26.9536  10733  103.249
 26.9956  10780.6  103.508
 27.0376  10616.7  102.93
 27.0796  10787.4  103.48
 27.1216  10729.3  103.293
 27.1636  10702  103.324
 27.2056  10637.6  102.896
 27.2476  10633.5  102.877
 27.2896  10609.1  102.866
 27.3316  10595.2  102.513
 27.3736  10533.9  102.478
 27.4156  10539.5  102.357
 27.4576  10590.5  102.831
 27.4996  10580  102.378
 27.5416  10526.8  102.437
 27.5836  10452.2  101.882
 27.6256  10798.8  103.723
 27.6676  10763.8  103.577
 27.7096  10558.8  102.453
 27.7516  10875.2  104.136
 27.7936  10803.4  103.973
 27.8356  10648.3  102.832
 27.8776  10650  102.888
 27.9196  10544.2  102.219
 27.9616  10632  102.844
 28.0036  10383  101.597
 28.0456  10414  101.881
 28.0876  10208.6  100.97
 28.1296  10288.9  101.202
 28.1716  10262  101.087
 28.2136  10305  101.257
 28.2556  10168.9  100.707
 28.2976  10252.4  101.101
 28.3396  10332.1  101.252
 28.3816  10274.5  100.991
 28.4236  10299.1  101.266
 28.4656  10070.9  100.176
 28.5076  9981.28  99.3669
 28.5496  10062  100.03
 28.5916  10150.3  100.273
 28.6336  10021.1  99.9795
 28.6756  10142.4  99.7738
 28.7176  10066.4  99.9439
 28.7596  9966.77  99.351
 28.8016  10062.9  99.8616
 28.8436  10017  99.8837
 28.8856  10056.9  99.9249
 28.9276  10109.8  100.438
 28.9696  10017.9  99.6326
 29.0116  9959.39  99.5346
 29.0536  9838.36  99.1199
 29.0956  9965.36  99.4823
 29.1376  9877.12  99.0035
 29.1796  9827.12  98.7941
 29.2216  9875.27  98.8803
 29.2636  9937.12  99.2666
 29.3056  9916.77  98.9516
 29.3476  9975.6  99.7743
 29.3896  9991.17  99.9399
 29.4316  9869.27  98.6628
 29.4736  9891.04  98.8381
 29.5156  10020.6  99.3991
 29.5576  9949  99.796
 29.5996  9978.52  99.1903
 29.6416  9779.83  98.3118
 29.6836  9910.93  98.9014
 29.7256  9886.23  99.3511
 29.7676  9890.81  99.0295
 29.8096  9763.87  98.3359
 29.8516  9678.89  98.241
 29.8936  9634.86  98.1076
 29.9356  9959.26  99.499
 29.9776  9760.79  98.6546
 30.0196  9903.56  98.7495
 30.0616  9885.06  99.0397
 30.1036  9808.95  98.4809
 30.1456  9668.35  98.0089
 30.1876  9666.16  97.9754
 30.2296  9622.41  97.7043
 30.2716  9728.26  97.8717
 30.3136  9812.38  99.1625
 30.3556  9756.8  98.9025
 30.3976  9614.32  99.7145
 30.4396  9857.33  98.2639
 30.4816  9693.44  97.0382
 30.5236  9629.84  96.7409
 30.5656  9663.06  97.5629
 30.6076  9709.42  97.2232
 30.6496  9746.46  97.7903
 30.6916  9580.99  97.0518
 30.7336  9588.73  97.2482
 30.7756  9694.25  97.8744
 30.8176  9571  97.1655
 30.8596  9487.19  96.5101
 30.9016  9390.6  96.3571
 30.9436  9554.32  96.9464
 30.9856  9573.04  97.1544
 31.0276  9618.56  96.9804
 31.0696  9481.45  96.869
 31.1116  9506.93  96.9721
 31.1536  9563.19  97.1386
 31.1956  9459.19  96.7012
 31.2376  9387.3  96.3375
 31.2796  9511.01  96.5053
 31.3216  9445.65  96.119
 31.3636  9420.12  96.6778
 31.4056  9483.41  98.3282
 31.4476  9404.86  95.7987
 31.4896  9345.89  96.0068
 31.5316  9466.76  96.012
 31.5736  9909.46  98.0484
 31.6156  9727.39  97.1697
 31.6576  9683.29  97.046
 31.6996  9595.79  96.2688
 31.7416  9507.2  96.9032
 31.7836  9540.99  96.0773
 31.8256  9361.68  95.4499
 31.8676  9414.92  95.7099
 31.9096  9328.15  95.6238
 31.9516  8955.19  93.8553
 31.9936  9161.39  94.748
 32.0356  9287.08  95.4692
 32.0776  9227.49  95.0466
 32.1196  9299.09  95.5056
 32.1616  9388.39  95.4143
 32.2036  9188.37  94.9067
 32.2456  9411.55  96.4386
 32.2876  9316.06  95.4401
 32.3296  9118.26  94.3848
 32.3716  9195.1  94.8757
 32.4136  9282.72  95.5536
 32.4556  9369.73  95.3652
 32.4976  9246.62  94.6427
 32.5396  9321.73  95.1016
 32.5816  9122.72  94.2077
 32.6236  9206.81  94.7107
 32.6656  9230.83  95.3713
 32.7076  9178.78  94.7593
 32.7496  9115.63  94.0876
 32.7916  9100  93.9712
 32.8336  9184.54  94.502
 32.8756  9249.26  94.5513
 32.9176  9198.28  94.7836
 32.9596  9108.51  94.3994
 33.0016  9288.82  95.1225
 33.0436  9235.24  95.0221
 33.0856  9021.29  93.9821
 33.1276  9085.39  94.0405
 33.1696  9265.43  94.8165
 33.2116  9158.17  94.4902
 33.2536  9138.45  94.3961
 33.2956  9079.53  94.1716
 33.3376  8950.87  93.2433
 33.3796  9123.47  94.345
 33.4216  9112.73  93.8863
 33.4636  9054.33  93.7274
 33.5056  8935.77  93.3502
 33.5476  8955.81  93.4528
 33.5896  9109.47  94.0197
 33.6316  8869.74  93.0914
 33.6736  8737.41  92.6414
 33.7156  8923.22  93.6581
 33.7576  9035.74  93.8673
 33.7996  9045.45  93.6836
 33.8416  8763.38  92.3999
 33.8836  8919.76  92.9903
 33.9256  8884.96  92.8773
 33.9676  9089.05  93.8251
 34.0096  8820.38  92.7527
 34.0516  8860.48  92.5965
 34.0936  8854.67  92.831
 34.1356  8943.72  93.0335
 34.1776  8881.43  92.7244
 34.2196  8779.65  92.3715
 34.2616  8715.28  92.1656
 34.3036  8790.21  92.8203
 34.3456  8744.89  92.3297
 34.3876  8704.76  92.0874
 34.4296  8832.08  92.4335
 34.4716  8991.24  93.4149
 34.5136  8896.04  93.1315
 34.5556  8830.79  93.041
 34.5976  8758.66  92.4637
 34.6396  8899.02  92.904
 34.6816  8760.14  92.3032
 34.7236  8809.93  92.336
 34.7656  8678.56  91.8474
 34.8076  8800.87  92.8151
 34.8496  8783.21  92.5758
 34.8916  8769.22  92.376
 34.9336  8886.18  92.9529
 34.9756  8683.57  91.8127
 35.0176  8935.4  93.6656
 35.0596  8673.1  92.1165
 35.1016  8730.93  92.1799
 35.1436  8764.5  92.0405
 35.1856  8595.44  91.28
 35.2276  8660.52  91.7933
 35.2696  8665.8  92.0179
 35.3116  8718.92  92.3889
 35.3536  8563.47  91.2778
 35.3956  8617.53  91.2686
 35.4376  8565.6  91.5604
 35.4796  8638.47  92.0047
 35.5216  8623.46  91.8825
 35.5636  8377.45  91.3031
 35.6056  8628.56  91.6687
 35.6476  8721.69  92.0464
 35.6896  8727.21  92.1757
 35.7316  8589.14  91.4201
 35.7736  8406.58  90.6399
 35.8156  8439.99  90.8112
 35.8576  8550.3  91.6629
 35.8996  8710.03  92.485
 35.9416  8580.53  91.288
 35.9836  8490.94  91.163
 36.0256  8521.01  91.347
 36.0676  8562.39  91.3215
 36.1096  8494.02  91.0976
 36.1516  8579.46  91.4408
 36.1936  8536.89  91.0596
 36.2356  8564.82  91.8562
 36.2776  8540.89  91.2036
 36.3196  8487.98  90.5887
 36.3616  8517.17  90.8757
 36.4036  8577.69  91.2575
 36.4456  8582.14  91.4915
 36.4876  8386.95  90.3893
 36.5296  8480.85  90.9351
 36.5716  8507.3  91.8625
 36.6136  8583.59  91.0216
 36.6556  8698.59  91.837
 36.6976  8495.49  91.2614
 36.7396  8359.18  90.2534
 36.7816  8480.35  91.2866
 36.8236  8541.2  91.5355
 36.8656  8480.81  91.2907
 36.9076  8419.12  90.8253
 36.9496  8368.74  90.5383
 36.9916  8444.26  90.5767
 37.0336  8598.94  91.7256
 37.0756  8426.87  90.5887
 37.1176  8273.26  90.032
 37.1596  8345.03  90.4276
 37.2016  8427.47  91.1029
 37.2436  8519.76  90.9017
 37.2856  8533.16  91.2333
 37.3276  8434.36  90.0467
 37.3696  8276.3  90.0878
 37.4116  8335.85  90.3199
 37.4536  8384.25  90.4458
 37.4956  8198.26  89.4753
 37.5376  8243.64  91.3044
 37.5796  8155.83  90.7657
 37.6216  8162.8  89.0736
 37.6636  8213.3  89.2544
 37.7056  8231.77  89.5434
 37.7476  8221.39  89.0269
 37.7896  8349.69  90.2117
 37.8316  7963.61  88.2842
 37.8736  8270.01  89.4809
 37.9156  8131.76  88.734
 37.9576  8278.22  89.4135
 37.9996  8136.98  88.3707
 38.0416  8207.54  89.568
 38.0836  8329.73  90.1357
 38.1256  8197.78  89.3715
 38.1676  8108.87  89.0253
 38.2096  8301.84  89.704
 38.2516  8296.14  89.8697
 38.2936  8212.18  89.223
 38.3356  8279.69  89.4837
 38.3776  8102.29  88.8075
 38.4196  8304.02  89.7552
 38.4616  8180.2  89.3276
 38.5036  8288.63  89.7533
 38.5456  8079.49  89.4521
 38.5876  8102.78  89.6115
 38.6296  8026.33  88.1627
 38.6716  8004.82  87.838
 38.7136  8110.99  88.3612
 38.7556  7907.81  87.7502
 38.7976  8130.56  88.913
 38.8396  8033.91  88.8407
 38.8816  7865.57  87.6906
 38.9236  8021.85  88.3633
 38.9656  8085.66  88.6266
 39.0076  8027.11  87.701
 39.0496  8041.06  88.334
 39.0916  8022.52  87.8699
 39.1336  8033.17  88.3448
 39.1756  8040.79  88.4563
 39.2176  8091  89.2644
 39.2596  7974.98  88.5475
 39.3016  7941.16  87.9366
 39.3436  7872.65  87.9754
 39.3856  8108.61  88.7246
 39.4276  8100.02  89.1738
 39.4696  7997.89  88.2348
 39.5116  7973.38  88.6241
 39.5536  8153.74  90.0494
 39.5956  8115.83  88.9227
 39.6376  8133.84  89.0296
 39.6796  7959.43  87.8074
 39.7216  8051.25  88.4156
 39.7636  8057.75  89.0234
 39.8056  8158.81  89.3559
 39.8476  8062.71  89.0887
 39.8896  8062.91  88.7136
 39.9316  8048.96  88.8969
 39.9736  8147.89  88.9941
 40.0156  7993.5  87.9771
 40.0576  8144.89  89.1704
 40.0996  8206.34  88.6779
 40.1416  8139.87  89.1203
 40.1836  8156.5  89.0995
 40.2256  8081.14  88.7322
 40.2676  8076.15  88.8152
 40.3096  8160.27  89.1963
 40.3516  8161.48  89.3112
 40.3936  8244.17  89.3189
 40.4356  8132.92  88.9046
 40.4776  8142.17  89.3814
 40.5196  8118.85  89.3725
 40.5616  8286.53  89.9337
 40.6036  8044.76  88.866
 40.6456  8283.49  89.7743
 40.6876  8208.9  89.3426
 40.7296  8181.16  89.3432
 40.7716  8210.22  89.6324
 40.8136  7965.58  88.2238
 40.8556  8127.98  89.264
 40.8976  8164.36  89.3804
 40.9396  7962.36  88.6217
 40.9816  8077.76  88.5389
 41.0236  8124.65  88.5692
 41.0656  8138.36  89.1893
 41.1076  8103.91  88.766
 41.1496  8144.74  88.9051
 41.1916  8121.53  89.1026
 41.2336  8078.62  88.8612
 41.2756  8058.28  88.3434
 41.3176  7989.99  88.5936
 41.3596  8140.26  89.1435
 41.4016  8087.86  89.1138
 41.4436  8126.26  89.1165
 41.4856  8244.19  89.9256
 41.5276  8063.76  88.9523
 41.5696  8105.77  88.8093
 41.6116  8081.72  89.0842
 41.6536  8036.73  88.6916
 41.6956  8101.36  89.1055
 41.7376  7988.85  88.5061
 41.7796  8062.56  88.8016
 41.8216  8057.1  89.0055
 41.8636  8149.99  89.451
 41.9056  7978  88.2962
 41.9476  8020.52  88.7657
 41.9896  7992.74  88.2814
 42.0316  8140.52  89.1697
 42.0736  7964.15  88.3175
 42.1156  8090.98  88.8477
 42.1576  8105.46  89.0247
 42.1996  8130.35  89.3086
 42.2416  8085.9  88.6385
 42.2836  8078.17  88.7145
 42.3256  7986.65  88.325
 42.3676  8031.16  88.3757
 42.4096  7993.88  88.126
 42.4516  7967.72  88.0781
 42.4936  8005  88.3507
 42.5356  7984.23  88.3615
 42.5776  8062.88  88.7356
 42.6196  8136.23  89.1985
 42.6616  7918.9  88.1724
 42.7036  7956.96  87.7641
 42.7456  7956.47  88.1203
 42.7876  7912.44  87.9777
 42.8296  8014.28  88.377
 42.8716  7926.53  88.0437
 42.9136  7947.68  87.9534
 42.9556  7900.74  87.8193
 42.9976  7976.09  88.2054
 43.0396  8014.91  88.149
 43.0816  7894.7  87.8659
 43.1236  7877.92  87.8327
 43.1656  7917.39  87.8803
 43.2076  7854.46  87.6304
 43.2496  7836.94  87.346
 43.2916  7900.49  88.0717
 43.3336  7978.48  88.3418
 43.3756  7808.5  87.1457
 43.4176  7787.16  87.1091
 43.4596  7890.35  87.5423
 43.5016  7749.77  87.1614
 43.5436  7745.28  87.0368
 43.5856  7852.71  87.6668
 43.6276  7823.44  87.3972
 43.6696  7729.31  87.1276
 43.7116  7962.13  87.9221
 43.7536  7916.43  88.1636
 43.7956  7685.32  88.065
 43.8376  7781.93  87.1377
 43.8796  7799.15  87.3125
 43.9216  7909.88  87.8395
 43.9636  7763.92  87.1452
 44.0056  7826.51  87.7184
 44.0476  7693.58  86.6099
 44.0896  7688.49  86.9249
 44.1316  7786.92  86.9972
 44.1736  7687.66  86.5621
 44.2156  7859.33  87.378
 44.2576  7655.23  86.5647
 44.2996  7702.8  86.7985
 44.3416  7740.8  86.7761
 44.3836  7609.29  86.3662
 44.4256  7572.03  85.7941
 44.4676  7576.84  85.9801
 44.5096  7685.2  86.7383
 44.5516  7551.37  85.9451
 44.5936  7591.78  86.1239
 44.6356  7768.53  86.8561
 44.6776  7613.46  86.303
 44.7196  7668.33  86.9243
 44.7616  7620.47  87.9925
 44.8036  7479.5  85.6122
 44.8456  7542.75  86.1804
 44.8876  7579.97  86.2397
 44.9296  7689.54  86.3032
 44.9716  7450.25  85.3875
 45.0136  7652.79  86.4706
 45.0556  7596.7  86.1301
 45.0976  7624.07  86.4459
 45.1396  7492.22  85.4566
 45.1816  7541.79  85.6696
 45.2236  7484.44  85.2452
 45.2656  7446.49  85.5306
 45.3076  7447.83  85.3201
 45.3496  7477.56  85.7964
 45.3916  7447.64  85.888
 45.4336  7537.11  86.2535
 45.4756  7497.53  85.8855
 45.5176  7431.51  85.1219
 45.5596  7441.58  85.2916
 45.6016  7407.41  85.5185
 45.6436  7393.62  84.6192
 45.6856  7599.72  86.4614
 45.7276  7357.87  86.3885
 45.7696  7442.29  86.5407
 45.8116  7555.67  86.621
 45.8536  7387.62  85.5594
 45.8956  7508.66  85.5994
 45.9376  7564.99  85.385
 45.9796  7404.36  85.1529
 46.0216  7498.31  86.0335
 46.0636  7658.83  86.0902
 46.1056  7480.81  85.0678
 46.1476  7522.14  85.8988
 46.1896  7470.31  85.7494
 46.2316  7390.46  85.164
 46.2736  7322.19  85.1357
 46.3156  7250.28  84.3065
 46.3576  7397.43  85.3603
 46.3996  7454.03  85.8485
 46.4416  7441.74  85.349
 46.4836  7388.27  85.4026
 46.5256  7469.49  85.8076
 46.5676  7395.61  85.493
 46.6096  7514.54  86.1198
 46.6516  7396.1  84.4746
 46.6936  7515.79  85.6477
 46.7356  7425.27  85.2347
 46.7776  7338.4  85.5807
 46.8196  7326.51  85.1096
 46.8616  7167.87  84.1257
 46.9036  7211.27  84.0416
 46.9456  7238.65  83.8391
 46.9876  7246.99  83.9768
 47.0296  7219.93  84.5007
 47.0716  7254.41  84.5261
 47.1136  7224.16  84.0363
 47.1556  7349.1  84.6225
 47.1976  7363.17  84.7803
 47.2396  7217.31  84.334
 47.2816  7151.04  83.6471
 47.3236  7168.35  84.101
 47.3656  7275.69  84.676
 47.4076  7235  84.2398
 47.4496  7137.31  83.7639
 47.4916  7149.41  84.0292
 47.5336  7270.19  84.551
 47.5756  7341.38  85.0808
 47.6176  7143.57  83.8263
 47.6596  7159.05  83.6271
 47.7016  7366.96  84.6472
 47.7436  7297.43  84.5831
 47.7856  7211.62  84.1228
 47.8276  7188.2  84.0191
 47.8696  7189.85  84.1265
 47.9116  7256.35  84.2242
 47.9536  7177.34  83.7048
 47.9956  7017.57  83.4672
 48.0376  7115.84  83.8229
 48.0796  7179.13  84.3286
 48.1216  7219.33  84.3637
 48.1636  7371.68  84.8423
 48.2056  7131.03  83.7024
 48.2476  7167.42  84.2316
 48.2896  7242.12  84.5713
 48.3316  7182.93  84.1702
 48.3736  7074.86  83.5555
 48.4156  6976.87  82.8263
 48.4576  7078.12  83.719
 48.4996  7226.2  84.0418
 48.5416  7084.55  83.5447
 48.5836  7166.04  83.6986
 48.6256  7177.36  83.9721
 48.6676  7149.55  84.3212
 48.7096  7144.2  83.5481
 48.7516  7118.5  83.5541
 48.7936  6986.42  82.835
 48.8356  7116.15  83.6547
 48.8776  7052.29  83.8413
 48.9196  7162.45  83.8749
 48.9616  7078.19  83.7513
 49.0036  7074.67  84.0849
 49.0456  7066.57  84.0122
 49.0876  7046.23  83.4175
 49.1296  6926.06  82.8744
 49.1716  6949.39  82.8819
 49.2136  7068.36  83.5017
 49.2556  7188.02  84.256
 49.2976  7008.45  83.2645
 49.3396  6999.69  83.2707
 49.3816  7089.75  83.2374
 49.4236  7105.91  83.757
 49.4656  6885.4  82.4587
 49.5076  7058.48  83.2391
 49.5496  6865.78  82.1565
 49.5916  6988.1  82.8043
 49.6336  7046.32  83.349
 49.6756  7032.62  83.505
 49.7176  6928.55  82.8255
 49.7596  7012.75  83.0899
 49.8016  7034.09  83.1447
 49.8436  6919.5  82.7459
 49.8856  6956.88  82.9861
 49.9276  6925.41  82.8904
 49.9696  6947.8  83.0106
 50.0116  6941.25  83.1041
 50.0536  6949.11  83.1011
 50.0956  6804.45  82.2977
 50.1376  6895.17  82.5498
 50.1796  6834.46  82.4499
 50.2216  6951.98  83.1538
 50.2636  6884.6  82.3684
 50.3056  6776.32  81.8859
 50.3476  6836.84  82.2774
 50.3896  6878.16  82.4948
 50.4316  6796.2  81.8401
 50.4736  6825.77  82.2345
 50.5156  6836.38  82.2896
 50.5576  6910.48  82.4905
 50.5996  6830.81  82.296
 50.6416  6821.39  82.1697
 50.6836  6812.49  82.17
 50.7256  6874.46  82.4749
 50.7676  6853.52  82.6623
 50.8096  6902.03  82.4951
 50.8516  6794.72  82.2616
 50.8936  6759.76  81.8239
 50.9356  6883.67  82.6846
 50.9776  6816.38  82.4302
 51.0196  6697.91  81.8344
 51.0616  6654.91  80.901
 51.1036  6839.97  82.376
 51.1456  6803.53  82.0669
 51.1876  6806.15  81.4298
 51.2296  6748.2  81.7152
 51.2716  6681.5  81.0193
 51.3136  6782.75  82.0812
 51.3556  6749.65  81.5114
 51.3976  6600.8  80.7558
 51.4396  6627.55  81.2217
 51.4816  6789.07  82.0596
 51.5236  6831.65  82.4017
 51.5656  6702.11  81.2217
 51.6076  6772.45  81.7252
 51.6496  6745.45  81.7574
 51.6916  6632.95  81.4227
 51.7336  6724.81  82.0801
 51.7756  6636.98  81.2418
 51.8176  6547.85  80.7933
 51.8596  6768.11  82.1587
 51.9016  6840.64  82.2053
 51.9436  6632.9  82.4061
 51.9856  6582.33  82.5233
 52.0276  6633.61  81.3579
 52.0696  6654.95  81.5596
 52.1116  6689.02  81.8737
 52.1536  6558.11  80.9675
 52.1956  6684.49  81.1993
 52.2376  6682.97  81.3727
 52.2796  6623.76  80.8234
 52.3216  6537.26  80.9785
 52.3636  6576.67  80.793
 52.4056  6624.98  80.9389
 52.4476  6554.8  80.8902
 52.4896  6522.41  80.74
 52.5316  6659.69  81.6301
 52.5736  6520.25  80.5
 52.6156  6589.3  81.2967
 52.6576  6647.25  81.1004
 52.6996  6548.44  81.4709
 52.7416  6688.68  82.1844
 52.7836  6537.79  81.1245
 52.8256  6696.7  81.3343
 52.8676  6429.43  80.2581
 52.9096  6549.19  81.0952
 52.9516  6582.52  81.6648
 52.9936  6435.94  81.1432
 53.0356  6398.76  79.9204
 53.0776  6418.04  80.2986
 53.1196  6409.55  80.3732
 53.1616  6448.76  80.6659
 53.2036  6224.99  79.1994
 53.2456  6386.99  80.332
 53.2876  6362.82  79.8905
 53.3296  6371.12  80.266
 53.3716  6395.17  80.164
 53.4136  6409.58  80.404
 53.4556  6333.94  79.9585
 53.4976  6431.99  80.4235
 53.5396  6424.78  80.7653
 53.5816  6413.52  80.3355
 53.6236  6387.36  80.5116
 53.6656  6339.06  79.8367
 53.7076  6356.72  79.9112
 53.7496  6480.86  80.8116
 53.7916  6485.37  80.9618
 53.8336  6421.18  80.4626
 53.8756  6318.81  80.3616
 53.9176  6386.85  80.1375
 53.9596  6439.63  81.2338
 54.0016  6326.92  79.8546
 54.0436  6420.77  80.6609
 54.0856  6391.97  79.9134
 54.1276  6368.8  79.9677
 54.1696  6419.45  80.4543
 54.2116  6471.76  80.5348
 54.2536  6352.88  79.6072
 54.2956  6388.46  79.8764
 54.3376  6359.57  80.1782
 54.3796  6431.52  80.5301
 54.4216  6498.92  80.9876
 54.4636  6363.18  80.1049
 54.5056  6530.06  80.9731
 54.5476  6285.94  79.7742
 54.5896  6428.24  80.5056
 54.6316  6385.96  80.0974
 54.6736  6357.87  79.9948
 54.7156  6301.4  79.6608
 54.7576  6278.77  79.5104
 54.7996  6427.87  80.5895
 54.8416  6376.61  80.3186
 54.8836  6279.24  79.8173
 54.9256  6287.7  79.6218
 54.9676  6458.57  80.5422
 55.0096  6272.18  79.4472
 55.0516  6358.53  80.2203
 55.0936  6294.73  79.4522
 55.1356  6289.23  79.4565
 55.1776  6347.29  80.1001
 55.2196  6247.66  79.249
 55.2616  6310.28  79.8619
 55.3036  6277.76  79.812
 55.3456  6328.56  80.2802
 55.3876  6326.61  80.0097
 55.4296  6339.09  80.0641
 55.4716  6256.31  79.5733
 55.5136  6271.93  79.4319
 55.5556  6343.15  79.9574
 55.5976  6319.53  79.8638
 55.6396  6291.31  79.6398
 55.6816  6334.7  79.7871
 55.7236  6366.71  80.0321
 55.7656  6385.63  79.9043
 55.8076  6392.48  79.9261
 55.8496  6258.16  79.4054
 55.8916  6248.95  79.5496
 55.9336  6285.19  79.6014
 55.9756  6290.64  79.5229
 56.0176  6170.54  78.909
 56.0596  6304.28  79.7465
 56.1016  6352.91  80.0574
 56.1436  6276.44  79.8409
 56.1856  6357.65  80.0924
 56.2276  6200.03  79.1555
 56.2696  6281.81  79.6452
 56.3116  6190.25  79.4695
 56.3536  6296.95  79.804
 56.3956  6171.65  78.9973
 56.4376  6231.79  79.4144
 56.4796  6343.06  79.9124
 56.5216  6254.97  79.7359
 56.5636  6373.55  80.0713
 56.6056  6229.47  79.4001
 56.6476  6242.23  79.1008
 56.6896  6341  80.1818
 56.7316  6214.48  79.2803
 56.7736  6262.73  79.5924
 56.8156  6271.12  79.6425
 56.8576  6213.51  79.2153
 56.8996  6210.6  79.1356
 56.9416  6352.62  80.3366
 56.9836  6195.74  78.8622
 57.0256  6248.07  79.5102
 57.0676  6178.34  79.1857
 57.1096  6283.32  79.646
 57.1516  6339.3  80.064
 57.1936  6334.3  79.7776
 57.2356  6298.08  79.8676
 57.2776  6240.25  79.4609
 57.3196  6234.75  79.7991
 57.3616  6281.5  79.5834
 57.4036  6248.58  79.437
 57.4456  6218.02  79.2089
 57.4876  6238.81  79.1982
 57.5296  6145.79  78.9475
 57.5716  6244.1  79.5516
 57.6136  6239.03  79.3421
 57.6556  6072.23  78.4113
 57.6976  6241.8  79.3184
 57.7396  6043.17  78.4298
 57.7816  6138.9  79.397
 57.8236  6203.06  79.6117
 57.8656  6174.93  79.0818
 57.9076  6225.65  79.4428
 57.9496  6308.69  80.3254
 57.9916  6171.75  78.9577
 58.0336  6196.19  79.3919
 58.0756  6285.61  79.5913
 58.1176  6290.44  79.6218
 58.1596  6108.3  79.0271
 58.2016  6246.09  79.1228
 58.2436  6375.23  80.3584
 58.2856  6237.89  79.4073
 58.3276  6202.52  79.557
 58.3696  6116.19  78.7469
 58.4116  6246.01  79.4432
 58.4536  6259.29  79.4126
 58.4956  6255.63  79.5658
 58.5376  6294.63  79.3856
 58.5796  6244.94  79.5036
 58.6216  6183.98  78.923
 58.6636  6320.72  80.0105
 58.7056  6169.07  78.9025
 58.7476  6088.3  78.8298
 58.7896  6215.4  79.288
 58.8316  6164.85  78.9596
 58.8736  6252.84  79.5304
 58.9156  6138.04  78.8394
 58.9576  6301.67  80.2162
 58.9996  6351.72  79.7561
 59.0416  6367.59  80.2331
 59.0836  6293.12  79.6837
 59.1256  6086.68  79.0602
 59.1676  6199.26  80.102
 59.2096  6298.46  80.0441
 59.2516  6359.37  80.0004
 59.2936  6271.71  79.7814
 59.3356  6200.44  79.2029
 59.3776  6244.56  79.656
 59.4196  6286.17  79.8562
 59.4616  6276.23  79.6497
 59.5036  6234.99  79.4233
 59.5456  6297.13  79.5052
 59.5876  6380.3  80.225
 59.6296  6132.56  78.7218
 59.6716  6229.17  79.3983
 59.7136  6307.12  79.8816
 59.7556  6380.67  80.4863
 59.7976  6238.54  79.3227
 59.8396  6172.99  78.798
 59.8816  6288.17  80.0842
 59.9236  6275.68  79.6434
 59.9656  6135.31  79.0089
 60.0076  6327.51  79.5807
 60.0496  6277.87  79.7801
 60.0916  6388.26  79.8816
 60.1336  6147.68  79.4801
 60.1756  6185.07  80.9198
 60.1996  0.0000000E+00  0.0000000E+00