File: docs/examples/opeando_xrd/IS17_D/Data/IS17_D/17_Db_f00045.xye
# /beamlines/bl04/projects/cycle2025-II/20250340211-lsimonelli/DATA/IS17_D/17_Db_f00045.xye : mythproc.py merge -s 0.006 -l 0.5 -f /beamlines/bl04/inhouse/ff/FlatField/ff_20Nov2024rod8mm60s_17keV.raw -b True -c true -o xye /beamlines/bl04/projects/cycle2025-II/20250340211-lsimonelli/DATA/IS17_D/17_Db_00045.dat
# IsMon = [6749718, 6748208, 6746329]  IsPos = [-1.5000, -2.4885, -3.4988]
# Wave = 0.4962  CalPath /beamlines/bl04/projects/cycle2025-II/20250340211-lsimonelli/DATA/Align/Si_Pos1_25keV_f00001.cal
# Date = 2025-09-24_06:12:36 Dt = 4.8000  Bin = 0.0060  <imon> = 6748085 +/- 1386 (Min/Max) 6746329 / 6749718
# icurr 249.4967  mocoIn 1.7021E-05  mocoOut 0.7986  i15 7.06977e+06  imon 6.74808e+06  i7 3.3333  iEMpd_timer 4.8000  iEMpd_1 3.5229E-08  iEMpd_2 7.8803E-08  iEMpd_3 1.5914E-08  iEMpd_4 4.9310E-08  iEMhp_timer 4.8000  iEMhp_1 4.8743E-06  iEMhp_2 -2.5315E-08  iEMhp_3 -2.2826E-08  iEMhp_4 -2.1044E-08
#      9776
 1.5856  45023.1  217.856
 1.6276  51582.6  229.185
 1.6696  57792.5  241.733
 1.7116  65242.7  257.344
 1.7536  72865.3  270.803
 1.7956  76886.7  278.871
 1.8376  73380.4  272.87
 1.8796  63660.7  252.305
 1.9216  52603.3  230.246
 1.9636  46433.2  215.98
 2.0056  41736.5  203.458
 2.0476  39171.8  199.268
 2.0896  37890.3  194.832
 2.1316  36789.6  191.058
 2.1736  35353  188.777
 2.2156  35722.8  188.239
 2.2576  34476.6  185.59
 2.2996  33135.4  182.611
 2.3416  33759.7  182.848
 2.3836  33234.1  181.535
 2.4256  32153.4  179.141
 2.4676  31802.8  177.909
 2.5096  31279.2  176.496
 2.5516  30064  177.026
 2.5936  30117.1  173.624
 2.6356  29323  172.04
 2.6776  29278  170.773
 2.7196  29038.6  170.575
 2.7616  29087.3  170.5
 2.8036  28404.5  168.662
 2.8456  28322  169.075
 2.8876  28106.8  168.255
 2.9296  27423.5  166.363
 2.9716  27147.7  164.998
 3.0136  26780.7  163.947
 3.0556  26746.4  164.243
 3.0976  26859.4  163.457
 3.1396  26235  162.291
 3.1816  26167.6  162.029
 3.2236  25902.5  161.195
 3.2656  25720.4  159.656
 3.3076  25656  160.954
 3.3496  25921.1  160.944
 3.3916  25847.7  160.274
 3.4336  26446.4  162.719
 3.4756  26764.1  163.625
 3.5176  27538.8  165.728
 3.5596  26779.3  166.522
 3.6016  27260.5  164.988
 3.6436  26128  162.65
 3.6856  26138.9  160.944
 3.7276  24788.4  157.832
 3.7696  24894.3  158.156
 3.8116  24533.9  157.1
 3.8536  24618.7  157.303
 3.8956  24449.6  156.582
 3.9376  24112.6  155.768
 3.9796  24062.9  155.089
 4.0216  24042.1  154.04
 4.0636  23995  155.372
 4.1056  24199.5  155.691
 4.1476  24435.4  156.759
 4.1896  24471.8  156.738
 4.2316  24716.2  157.34
 4.2736  25003.9  158.049
 4.3156  25012.7  158.31
 4.3576  25873.1  160.91
 4.3996  26004.4  161.6
 4.4416  26605.5  163.034
 4.4836  26967.4  164.302
 4.5256  27408.9  166.251
 4.5676  27305.8  166.202
 4.6096  27784.9  166.664
 4.6516  28231.6  167.316
 4.6936  28295.6  168.354
 4.7356  28480.5  168.715
 4.7776  28447.8  168.452
 4.8196  28351.1  168.806
 4.8616  27542.5  166.015
 4.9036  27614.5  165.82
 4.9456  27413.5  165.882
 4.9876  26785.4  163.874
 5.0296  27021.8  164.429
 5.0716  26654.7  163.928
 5.1136  26835.4  164.339
 5.1556  27045.1  164.44
 5.1976  27835  166.81
 5.2396  27767.5  166.299
 5.2816  27669.4  166.471
 5.3236  27654.7  166.131
 5.3656  27227.5  165.782
 5.4076  26959.4  165.109
 5.4496  27049.9  164.878
 5.4916  27223  165.152
 5.5336  27101  164.788
 5.5756  27022.6  164.548
 5.6176  27118.2  164.293
 5.6596  27556.7  166.453
 5.7016  27228.2  164.876
 5.7436  27530.7  166.071
 5.7856  27205.8  165.152
 5.8276  27593.8  166.043
 5.8696  28040.4  167.432
 5.9116  27831.9  167.534
 5.9536  28283.2  168.618
 5.9956  28221.2  167.827
 6.0376  28379.2  168.921
 6.0796  28565.4  169.303
 6.1216  28407.8  169.042
 6.1636  28928.9  169.633
 6.2056  28655.8  169.507
 6.2476  29118  170.539
 6.2896  29232.3  170.743
 6.3316  29376.4  171.329
 6.3736  29310.2  171.044
 6.4156  29377.7  171.183
 6.4576  29415.4  170.85
 6.4996  29541  171.701
 6.5416  29518.5  171.763
 6.5836  29645.4  172.368
 6.6256  29869.2  172.569
 6.6676  30483.6  173.896
 6.7096  30286.2  174.198
 6.7516  30930.3  175.7
 6.7936  30832.9  174.827
 6.8356  30771.3  174.745
 6.8776  31035.6  176.301
 6.9196  30998.2  176.593
 6.9616  31675.9  177.921
 7.0036  32133.7  178.881
 7.0456  32158.7  178.25
 7.0876  32310.6  180.273
 7.1296  32033  178.72
 7.1716  32034.2  178.264
 7.2136  31760.2  177.275
 7.2556  32151.5  178.526
 7.2976  32011.9  178.637
 7.3396  31865.2  178.449
 7.3816  31887.3  178.73
 7.4236  32168.7  178.802
 7.4656  32220.3  178.398
 7.5076  32575.8  179.539
 7.5496  32394.6  179.585
 7.5916  32513.1  179.955
 7.6336  33064.6  181.358
 7.6756  33000.9  181.031
 7.7176  33516.4  182.758
 7.7596  33358.7  183.567
 7.8016  34039.3  187.687
 7.8436  33594.1  183.115
 7.8856  33736.7  183.101
 7.9276  34006.3  184.242
 7.9696  34483.3  185.838
 8.0116  35357.8  186.724
 8.0536  35545.6  187.462
 8.0956  35718.5  189.104
 8.1376  36142.8  189.697
 8.1796  36202.6  190.385
 8.2216  37106.3  191.488
 8.2636  37221.4  192.036
 8.3056  36970.3  192.164
 8.3476  37556.3  192.998
 8.3896  37351  192.55
 8.4316  37451.2  192.978
 8.4736  37376.8  192.257
 8.5156  36999.1  191.557
 8.5576  36971.7  192.452
 8.5996  36771.6  190.813
 8.6416  36493.2  191.337
 8.6836  36559.9  191.354
 8.7256  37083.1  192.157
 8.7676  36931.2  194.683
 8.8096  37548.7  193.574
 8.8516  37508  193.08
 8.8936  36729  190.973
 8.9356  37083  192.215
 8.9776  36818.8  191.621
 9.0196  36847.6  191.354
 9.0616  36961.1  191.157
 9.1036  36258.9  190.505
 9.1456  36118.6  189.477
 9.1876  36402.4  190.145
 9.2296  36118.8  188.855
 9.2716  35623.1  187.583
 9.3136  35778.7  187.985
 9.3556  35971.8  188.469
 9.3976  34926.9  186.221
 9.4396  34938.8  186.166
 9.4816  34813.9  185.674
 9.5236  34562.3  184.913
 9.5656  34318.8  184.622
 9.6076  33763.3  183.653
 9.6496  33967.7  184.084
 9.6916  33272.7  182.149
 9.7336  33922.3  183.687
 9.7756  33563.5  183.951
 9.8176  33355.8  182.912
 9.8596  33341.1  181.308
 9.9016  32913.1  180.13
 9.9436  32555.6  178.909
 9.9856  32313.6  178.676
 10.0276  31899.4  178.605
 10.0696  31977.2  177.858
 10.1116  31482.1  176.743
 10.1536  31212.7  175.641
 10.1956  30424.6  173.516
 10.2376  30749.9  173.944
 10.2796  30407.9  173.078
 10.3216  30082.5  172.298
 10.3636  29868.9  171.858
 10.4056  29254.2  170.478
 10.4476  29526.1  170.881
 10.4896  29812.4  171.159
 10.5316  29197.7  169.764
 10.5736  28462  168.354
 10.6156  28455.1  168.095
 10.6576  28531.4  166.893
 10.6996  28241.7  166.743
 10.7416  27884.8  165.899
 10.7836  27428.9  165.208
 10.8256  26992.6  164.31
 10.8676  27168.3  164.395
 10.9096  26949.8  163.765
 10.9516  26583.7  161.603
 10.9936  26808.4  162.494
 11.0356  26512  162.2
 11.0776  26304.2  160.9
 11.1196  25891.6  160.39
 11.1616  25492.1  158.822
 11.2036  25670.8  159.225
 11.2456  25764.3  160.219
 11.2876  25915.8  160.417
 11.3296  25156.6  157.966
 11.3716  25404.1  158.479
 11.4136  25669  160.138
 11.4556  25410.4  158.994
 11.4976  25583.7  158.533
 11.5396  25704.6  159.08
 11.5816  26345.7  161.477
 11.6236  26614.8  162.759
 11.6656  27407.7  164.074
 11.7076  26542  162.318
 11.7496  25795.7  164.063
 11.7916  25502.9  158.361
 11.8336  24942  157.533
 11.8756  24814.5  156.648
 11.9176  24856.3  156.449
 11.9596  24843.1  156.569
 12.0016  24522.7  156.336
 12.0436  24721.2  156.414
 12.0856  24262.3  155.469
 12.1276  24457.3  156.037
 12.1696  24229.7  154.415
 12.2116  24268  154.542
 12.2536  24215.1  155.163
 12.2956  23986.6  153.811
 12.3376  24251.3  154.85
 12.3796  24077.9  154.786
 12.4216  24110.8  154.09
 12.4636  23707.3  153.727
 12.5056  23802.9  153.299
 12.5476  24162.1  153.968
 12.5896  23734.6  153.244
 12.6316  23806.6  153.614
 12.6736  23976.9  154.66
 12.7156  24044.9  154.712
 12.7576  23914.9  154.55
 12.7996  24097.6  153.782
 12.8416  23745.8  153.705
 12.8836  23953.4  154.213
 12.9256  24257.9  154.211
 12.9676  24287.3  154.712
 13.0096  24695.1  157.126
 13.0516  24395.2  155.201
 13.0936  24469.8  155.565
 13.1356  25005.2  156.492
 13.1776  24736.3  156.678
 13.2196  24794.4  156.502
 13.2616  24688.1  156.487
 13.3036  25009.9  157.632
 13.3456  24651.8  156.487
 13.3876  25049.2  157.197
 13.4296  24736.2  156.394
 13.4716  24752.8  156.064
 13.5136  24771.4  156.254
 13.5556  24638  156.468
 13.5976  24806.2  157.171
 13.6396  24770.5  156.416
 13.6816  24929.3  157.258
 13.7236  25135.8  157.611
 13.7656  26604.3  162.614
 13.8076  27364.9  163.57
 13.8496  26187.9  160.875
 13.8916  24891.8  157.791
 13.9336  24235.2  154.972
 13.9756  24339.6  154.675
 14.0176  23922.3  154.026
 14.0596  24058.7  154.382
 14.1016  23919.2  154.37
 14.1436  23987.4  153.707
 14.1856  23411.5  152.149
 14.2276  23330.7  152.371
 14.2696  23355.4  152.307
 14.3116  22812.6  150.439
 14.3536  22606.4  149.915
 14.3956  22526.7  149.379
 14.4376  22873.9  150.308
 14.4796  22636.3  149.525
 14.5216  22375.4  149.444
 14.5636  22267.9  148.658
 14.6056  22533.8  149.098
 14.6476  22262.1  147.439
 14.6896  21908.9  146.814
 14.7316  21731.8  147.26
 14.7736  21376.1  145.19
 14.8156  21313.1  144.993
 14.8576  21308.6  144.838
 14.8996  20748.2  144.116
 14.9416  20449.7  143.096
 14.9836  20437.2  143.036
 15.0256  19831  139.822
 15.0676  19896.8  140.363
 15.1096  19983.2  140.407
 15.1516  19426.5  138.983
 15.1936  19309.4  138.004
 15.2356  19221.6  137.967
 15.2776  18938.4  136.539
 15.3196  18594  136.277
 15.3616  18708  136.456
 15.4036  18564.7  135.791
 15.4456  18833.4  136.419
 15.4876  18543.8  135.05
 15.5296  18418.8  134.876
 15.5716  18175.4  133.59
 15.6136  18035.3  133.396
 15.6556  18154.3  133.082
 15.6976  17845.6  132.019
 15.7396  17823.8  132.546
 15.7816  17752.4  131.792
 15.8236  17489.8  131.505
 15.8656  17669.4  131.969
 15.9076  17577.4  131.441
 15.9496  17961.5  135.679
 15.9916  17683.6  135.049
 16.0336  17899.5  132.697
 16.0756  17573.7  131.824
 16.1176  17324.5  130.811
 16.1596  16990.2  130.867
 16.2016  17014.6  129.728
 16.2436  16871.6  129.556
 16.2856  16880.7  129.095
 16.3276  16840.9  129.395
 16.3696  17004  129.829
 16.4116  16756.7  129.337
 16.4536  16833.4  129.441
 16.4956  16818.3  129.107
 16.5376  16673.5  128.744
 16.5796  16494.7  127.425
 16.6216  16670.4  128.379
 16.6636  16249.8  126.934
 16.7056  16296  126.966
 16.7476  16509.4  127.321
 16.7896  16444.4  127.81
 16.8316  16410.4  127.668
 16.8736  16588.5  128.608
 16.9156  16245.1  127.601
 16.9576  16125.2  127.913
 16.9996  16150  128.475
 17.0416  16337.9  127.609
 17.0836  16331.1  127.34
 17.1256  16324  127.321
 17.1676  16343.4  127.361
 17.2096  16140.4  126.459
 17.2516  16266.3  127.035
 17.2936  16280.2  127.144
 17.3356  16138.4  126.578
 17.3776  15663.6  124.888
 17.4196  15630.9  124.46
 17.4616  15898.1  125.424
 17.5036  15545.7  124.387
 17.5456  15236.6  123.789
 17.5876  15249  122.883
 17.6296  15507  123.722
 17.6716  15008  122.312
 17.7136  15086.6  122.761
 17.7556  15066.4  122.975
 17.7976  14834.9  121.63
 17.8396  14789.8  121.085
 17.8816  14573.7  120.755
 17.9236  14681.9  120.994
 17.9656  14597.9  121.318
 18.0076  14496  120.34
 18.0496  14506.2  119.519
 18.0916  14503.5  120.063
 18.1336  14244.1  119.078
 18.1756  14485.6  119.64
 18.2176  14259.1  118.902
 18.2596  14205.9  118.417
 18.3016  14490.4  119.859
 18.3436  14304.2  119.319
 18.3856  14282.4  119.131
 18.4276  14182.9  118.4
 18.4696  13992  117.686
 18.5116  14274  119.142
 18.5536  14161.2  119.04
 18.5956  14103.6  118.344
 18.6376  13889.8  117.849
 18.6796  14078.7  117.975
 18.7216  13996.8  118.175
 18.7636  14055.7  118.353
 18.8056  13865.1  117.478
 18.8476  13720.9  117.495
 18.8896  13970.1  117.892
 18.9316  13990.2  117.798
 18.9736  13905  117.3
 19.0156  13762.8  117.105
 19.0576  13909.4  116.58
 19.0996  14070.5  117.967
 19.1416  13868.7  117.513
 19.1836  13787.4  116.781
 19.2256  13617.7  116.274
 19.2676  13728.7  116.83
 19.3096  13778.2  117.296
 19.3516  13901.1  117.583
 19.3936  13494.4  115.922
 19.4356  13991.5  117.926
 19.4776  13751.1  116.999
 19.5196  13732.7  116.773
 19.5616  13577.8  116.372
 19.6036  13645.3  116.171
 19.6456  13677.6  116.415
 19.6876  13732.4  116.282
 19.7296  13793.7  116.998
 19.7716  13779.7  116.972
 19.8136  13906.8  117.847
 19.8556  14033.5  117.875
 19.8976  13733.7  116.662
 19.9396  13817.8  116.614
 19.9816  13859.1  117.04
 20.0236  13942.3  117.566
 20.0656  14077.9  118.145
 20.1076  14428.7  120.086
 20.1496  14541.3  120.552
 20.1916  14843.4  121.264
 20.2336  14922.8  121.555
 20.2756  14796.9  121.488
 20.3176  14478  119.911
 20.3596  14225.7  118.85
 20.4016  14064.7  117.965
 20.4436  13803.1  117.445
 20.4856  13862.9  117.473
 20.5276  13460.7  116.221
 20.5696  13487.7  115.891
 20.6116  13448.6  115.901
 20.6536  13311.8  114.87
 20.6956  13305.2  114.921
 20.7376  13203.5  114.698
 20.7796  13380.6  115.153
 20.8216  13379.5  114.857
 20.8636  13347.6  115.094
 20.9056  13244.6  114.578
 20.9476  13070.1  113.676
 20.9896  13326.2  114.651
 21.0316  13090.4  113.535
 21.0736  13177.4  114.429
 21.1156  13040.2  113.99
 21.1576  13147.5  114.5
 21.1996  13105.4  114.302
 21.2416  13064.5  113.94
 21.2836  12929.7  113.334
 21.3256  13057.2  113.958
 21.3676  13142  113.874
 21.4096  12856.7  113.003
 21.4516  12902.3  113.018
 21.4936  12685.1  112.326
 21.5356  12958.2  113.474
 21.5776  12981.8  113.409
 21.6196  12765.6  112.499
 21.6616  12742.6  112.486
 21.7036  12819.6  112.585
 21.7456  12747.7  112.353
 21.7876  12707.8  111.941
 21.8296  12774.9  112.085
 21.8716  12767.9  112.271
 21.9136  12812.1  112.676
 21.9556  12676.7  111.755
 21.9976  12509.7  111.041
 22.0396  12695.1  112.121
 22.0816  12583.7  112.161
 22.1236  12722.1  112.231
 22.1656  12540.1  111.619
 22.2076  12428.2  110.534
 22.2496  12358.5  110.251
 22.2916  12455.8  110.567
 22.3336  12383.7  110.948
 22.3756  12493.5  111.18
 22.4176  12385.4  110.553
 22.4596  12172.7  110.18
 22.5016  12265.6  110.104
 22.5436  12497  111.02
 22.5856  12524  111.384
 22.6276  12625.7  111.96
 22.6696  12595.2  112.192
 22.7116  12419.4  110.916
 22.7536  12353.5  110.6
 22.7956  12342  109.882
 22.8376  12173.6  109.652
 22.8796  12364.1  110.305
 22.9216  12343.5  110.758
 22.9636  12383.6  110.09
 23.0056  12141.1  109.14
 23.0476  12408.8  110.897
 23.0896  12465.8  110.542
 23.1316  12490.9  111.085
 23.1736  12510.1  114.099
 23.2156  12588.1  111.842
 23.2576  12748.6  112.676
 23.2996  12517.7  111.443
 23.3416  12680.9  112.68
 23.3836  12806.7  112.467
 23.4256  13071.1  113.742
 23.4676  12821  112.344
 23.5096  12728.7  112.601
 23.5516  12602.5  111.333
 23.5936  12621.6  112.337
 23.6356  12865.9  113.076
 23.6776  12644.6  112.32
 23.7196  12582.9  111.824
 23.7616  12546.8  111.378
 23.8036  12735.8  112.256
 23.8456  12553.6  111.019
 23.8876  12532.1  111.264
 23.9296  12418.8  111.259
 23.9716  12440.1  110.554
 24.0136  12412.1  111.332
 24.0556  12373.9  110.872
 24.0976  12153.9  109.705
 24.1396  12105.2  112.112
 24.1816  12294.2  111.71
 24.2236  12218.8  110.65
 24.2656  12212.5  110.086
 24.3076  12252.4  110.547
 24.3496  12093.5  109.709
 24.3916  12194.6  110.213
 24.4336  12125.4  110.108
 24.4756  11983.6  109.345
 24.5176  11980.7  108.965
 24.5596  12038.9  109.532
 24.6016  11904.8  109.031
 24.6436  11945.5  108.721
 24.6856  11817.4  107.887
 24.7276  11621.8  107.313
 24.7696  11593.7  107.29
 24.8116  11582.4  107.415
 24.8536  11467.7  106.881
 24.8956  11604.9  107.249
 24.9376  11411.9  106.522
 24.9796  11320  106.218
 25.0216  11330.2  106.375
 25.0636  11427.4  106.49
 25.1056  11300.2  106.327
 25.1476  11417.6  108.788
 25.1896  11231.8  106.42
 25.2316  11231.5  105.702
 25.2736  11291.2  105.624
 25.3156  11119.8  104.893
 25.3576  11097  105.217
 25.3996  11169.6  105.549
 25.4416  11112.3  105.25
 25.4836  10857.3  104.551
 25.5256  11063.9  104.909
 25.5676  11051.5  104.575
 25.6096  10873.2  104.299
 25.6516  10983.2  104.331
 25.6936  11006.9  104.757
 25.7356  10932.5  104.539
 25.7776  10943.6  104.277
 25.8196  10777.4  103.636
 25.8616  10740.2  103.39
 25.9036  10918.4  103.698
 25.9456  10867.9  104.057
 25.9876  10851.1  103.889
 26.0296  10971.4  104.22
 26.0716  10903.2  104.227
 26.1136  10914.3  104.214
 26.1556  10914.5  103.607
 26.1976  10770.6  103.84
 26.2396  10756.7  103.189
 26.2816  10915.3  104.302
 26.3236  10860.5  104.189
 26.3656  10881  104.005
 26.4076  10863.5  104.135
 26.4496  11017  104.448
 26.4916  11197.1  105.215
 26.5336  11470.5  106.823
 26.5756  11456.9  106.64
 26.6176  10937.9  104.227
 26.6596  10933.7  104.498
 26.7016  10701.3  103.151
 26.7436  10792.1  103.718
 26.7856  10655.4  103.052
 26.8276  10685  103.16
 26.8696  10708.5  103.144
 26.9116  10607.4  102.588
 26.9536  10477.9  102.017
 26.9956  10454.6  101.938
 27.0376  10604  102.881
 27.0796  10583.8  102.583
 27.1216  10479.9  102.063
 27.1636  10280.6  101.265
 27.2056  10268.4  101.077
 27.2476  10353.8  101.495
 27.2896  10336.2  101.523
 27.3316  10327.9  101.206
 27.3736  10268.1  101.181
 27.4156  10316.3  101.246
 27.4576  10231.2  101.048
 27.4996  10373.8  101.361
 27.5416  10200.6  100.818
 27.5836  10303.3  101.166
 27.6256  10346.4  101.553
 27.6676  10244  101.046
 27.7096  10189.5  100.655
 27.7516  10110.7  100.41
 27.7936  10254.5  101.272
 27.8356  10276.6  100.987
 27.8776  10368.5  101.496
 27.9196  10014.2  99.6187
 27.9616  10119.3  100.336
 28.0036  10117.6  100.284
 28.0456  9979.44  99.7404
 28.0876  10044  100.148
 28.1296  10024.3  99.8794
 28.1716  10157.9  100.562
 28.2136  10072.8  100.11
 28.2556  10046.8  100.089
 28.2976  9892.75  99.3166
 28.3396  9928.82  99.2976
 28.3816  10070.9  99.9675
 28.4236  9875.74  99.1544
 28.4656  9817.97  98.903
 28.5076  9965.11  99.2817
 28.5496  10018.8  99.8001
 28.5916  9858.88  98.8163
 28.6336  9860.03  99.1627
 28.6756  9967.43  98.894
 28.7176  9822.16  98.7274
 28.7596  9740.4  98.2139
 28.8016  9787.01  98.4838
 28.8436  9648.23  98.0152
 28.8856  9780.37  98.5371
 28.9276  9809.76  98.9372
 28.9696  9763.66  98.3622
 29.0116  9655.39  98.007
 29.0536  9718.97  98.5282
 29.0956  9657.9  97.9193
 29.1376  9627.74  97.7409
 29.1796  9732.57  98.3123
 29.2216  9591.16  97.4398
 29.2636  9840.06  98.6924
 29.3056  9646.31  97.5778
 29.3476  9644.75  98.0905
 29.3896  9683.33  98.4123
 29.4316  9558.03  97.1101
 29.4736  9494.2  96.8535
 29.5156  9602.36  97.3231
 29.5576  9397.46  97.004
 29.5996  9451.69  96.5525
 29.6416  9342.79  96.1099
 29.6836  9385.86  96.2637
 29.7256  9485.17  97.3322
 29.7676  9348.64  96.294
 29.8096  9381.74  96.409
 29.8516  9176.14  95.6764
 29.8936  9230.87  96.0495
 29.9356  9376.88  96.5634
 29.9776  9375.65  96.7071
 30.0196  9254.14  95.4757
 30.0616  9267.36  95.9115
 30.1036  9372.05  96.2789
 30.1456  9261.95  95.9454
 30.1876  9210.67  95.6564
 30.2296  9147.88  95.2828
 30.2716  9337.11  95.9017
 30.3136  9439.14  97.2785
 30.3556  9509.67  97.6363
 30.3976  9402.02  98.5872
 30.4396  9773.95  97.8208
 30.4816  9578.38  96.4554
 30.5236  9550.16  96.3097
 30.5656  9432.17  96.3756
 30.6076  9348.2  95.711
 30.6496  9467.82  96.378
 30.6916  9267.2  95.4439
 30.7336  9422.96  96.3609
 30.7756  9427.88  96.4805
 30.8176  9285.15  95.6807
 30.8596  9446.5  96.236
 30.9016  9642.81  97.1354
 30.9436  9593.94  97.1015
 30.9856  9640.38  97.4525
 31.0276  9559.19  96.6799
 31.0696  9483.5  96.8674
 31.1116  9591.49  97.3819
 31.1536  9370.85  96.1382
 31.1956  9444.81  96.6109
 31.2376  9180.9  95.2722
 31.2796  9394.8  95.8877
 31.3216  9452.99  96.1161
 31.3636  9423.02  96.67
 31.4056  9207.53  96.8891
 31.4476  9412.03  95.8272
 31.4896  9324.21  95.8782
 31.5316  9236.16  94.8752
 31.5736  9565.33  96.3381
 31.6156  9423.19  95.6285
 31.6576  9436.16  95.7707
 31.6996  9442.18  95.4678
 31.7416  9320.68  95.8034
 31.7836  9336.53  95.0293
 31.8256  9313.3  95.2383
 31.8676  9519.63  96.2089
 31.9096  9117.76  94.373
 31.9516  9036.07  94.2692
 31.9936  9069.35  94.2621
 32.0356  9332.02  95.6479
 32.0776  9318.06  95.4983
 32.1196  9399.8  95.928
 32.1616  9313.97  95.0116
 32.2036  9125.64  94.5587
 32.2456  9140.05  95.0143
 32.2876  9138.74  94.3401
 32.3296  9105.25  94.3035
 32.3716  8950.7  93.6207
 32.4136  9027.21  94.2284
 32.4556  9080.01  93.9355
 32.4976  9124.14  94.0589
 32.5396  8993.73  93.406
 32.5816  9004.48  93.5848
 32.6236  8962.61  93.4341
 32.6656  9083.6  94.6041
 32.7076  8924.52  93.4358
 32.7496  9047.95  93.7525
 32.7916  9110.09  94.0288
 32.8336  8965.04  93.372
 32.8756  9082.67  93.7037
 32.9176  8856.78  93.0124
 32.9596  8897.6  93.2971
 33.0016  8916.18  93.1637
 33.0436  8953.68  93.5439
 33.0856  8903.36  93.3713
 33.1276  8798.73  92.5444
 33.1696  8908.15  92.9529
 33.2116  8884.57  93.0732
 33.2536  8989.4  93.5887
 33.2956  8925.09  93.3548
 33.3376  8792.4  92.4875
 33.3796  8920.86  93.2922
 33.4216  8871.48  92.6239
 33.4636  8886.38  92.8575
 33.5056  8776.46  92.5242
 33.5476  8808.01  92.6565
 33.5896  8928.17  93.067
 33.6316  8887.26  93.1794
 33.6736  8785.15  92.8969
 33.7156  8755.56  92.7699
 33.7576  8914.26  93.2431
 33.7996  8938.22  93.1369
 33.8416  8756.39  92.3646
 33.8836  8757.43  92.1532
 33.9256  8895.98  92.9192
 33.9676  8824.55  92.4534
 34.0096  8784.18  92.5562
 34.0516  8647.29  91.474
 34.0936  8749.15  92.2794
 34.1356  8833.31  92.4657
 34.1776  8557.32  91.0097
 34.2196  8623.62  91.5392
 34.2616  8545.64  91.2646
 34.3036  8607.59  91.8324
 34.3456  8623.85  91.6741
 34.3876  8576.46  91.4821
 34.4296  8543.26  90.912
 34.4716  8749.63  92.1559
 34.5136  8602.66  91.5744
 34.5556  8457.01  91.055
 34.5976  8741.91  92.4054
 34.6396  8643.53  91.5646
 34.6816  8672.34  91.8225
 34.7236  8579.28  91.1007
 34.7656  8513.18  90.9689
 34.8076  8590.44  91.7109
 34.8496  8476.21  90.9522
 34.8916  8572.38  91.3114
 34.9336  8578.74  91.3448
 34.9756  8691.86  91.8761
 35.0176  8649.18  92.1679
 35.0596  8720.17  92.3643
 35.1016  8554.87  91.2369
 35.1436  8840.1  92.4315
 35.1856  8635.55  91.4615
 35.2276  8621.41  91.5855
 35.2696  8579.37  91.5491
 35.3116  8475.82  91.1012
 35.3536  8651.62  91.753
 35.3956  8578.41  91.0638
 35.4376  8631.21  91.9069
 35.4796  8579.66  91.6774
 35.5216  8491.15  91.1635
 35.5636  8310.77  90.9368
 35.6056  8421.96  90.5629
 35.6476  8521.56  90.9915
 35.6896  8528.44  91.2065
 35.7316  8378.54  90.2926
 35.7736  8355.36  90.3477
 35.8156  8456.66  90.8963
 35.8576  8495.9  91.338
 35.8996  8502.4  91.3679
 35.9416  8430.71  90.492
 35.9836  8310.3  90.2798
 36.0256  8625.13  91.8859
 36.0676  8585.26  91.1935
 36.1096  8531.84  91.2825
 36.1516  8527  91.1483
 36.1936  8406.55  90.3445
 36.2356  8435.26  91.1506
 36.2776  8459.03  90.7349
 36.3196  8424.08  90.234
 36.3616  8410.67  90.2987
 36.4036  8402.85  90.3265
 36.4456  8413.39  90.5899
 36.4876  8291.18  89.8702
 36.5296  8299.79  89.9449
 36.5716  8273.13  90.5844
 36.6136  8328.36  89.6769
 36.6556  8258.96  89.5031
 36.6976  8125.82  89.2686
 36.7396  8179.71  89.2911
 36.7816  8208.49  89.8279
 36.8236  8104.53  89.1785
 36.8656  8009.47  88.7196
 36.9076  8021.27  88.797
 36.9496  7996.53  88.5262
 36.9916  8044.21  88.4143
 37.0336  8197.92  89.5785
 37.0756  8207.18  89.4172
 37.1176  7926.08  88.1376
 37.1596  8025.08  88.6941
 37.2016  7981.98  88.6271
 37.2436  8118.34  88.7478
 37.2856  8069.75  88.7373
 37.3276  8174.33  88.6649
 37.3696  8025.26  88.7283
 37.4116  7990.19  88.4451
 37.4536  8081.77  88.8161
 37.4956  7940.02  88.0801
 37.5376  8089.6  90.4773
 37.5796  8081.15  90.3595
 37.6216  8100.68  88.7335
 37.6636  8159.51  88.9419
 37.7056  8144.43  89.0568
 37.7476  8264.94  89.2448
 37.7896  8037.19  88.5232
 37.8316  8125.17  89.1497
 37.8736  8091.4  88.5046
 37.9156  7985.73  87.9109
 37.9576  8106.11  88.4873
 37.9996  7989.37  87.5596
 38.0416  8016.86  88.5062
 38.0836  8104.21  88.8954
 38.1256  8099.39  88.8461
 38.1676  7802.99  87.3196
 38.2096  8167.11  88.9468
 38.2516  8031.34  88.4326
 38.2936  8139.31  88.8071
 38.3356  8012.05  88.0515
 38.3776  8092.18  88.7241
 38.4196  7987.54  88.0271
 38.4616  8069.92  88.7208
 38.5036  8164.71  89.0822
 38.5456  7842.76  88.1309
 38.5876  7886.88  88.3894
 38.6296  7861.81  87.2133
 38.6716  7996.06  87.7796
 38.7136  7881.18  87.0891
 38.7556  7909.93  87.7505
 38.7976  8032.26  88.3499
 38.8396  7964.36  88.4281
 38.8816  7897.31  87.8622
 38.9236  7946.36  87.932
 38.9656  7963.8  87.9401
 39.0076  7957.56  87.3084
 39.0496  8077  88.5179
 39.0916  7999.92  87.7396
 39.1336  7972.05  87.992
 39.1756  7927.66  87.8081
 39.2176  7933.74  88.3871
 39.2596  8074  89.0824
 39.3016  8056.34  88.568
 39.3436  7900.7  88.1096
 39.3856  8016.51  88.2008
 39.4276  8135.25  89.3648
 39.4696  7983.6  88.1521
 39.5116  8041  88.9837
 39.5536  8077.17  89.6119
 39.5956  7929.84  87.8992
 39.6376  7981.9  88.1928
 39.6796  7964.88  87.8368
 39.7216  7942.16  87.813
 39.7636  7864.39  87.9394
 39.8056  7982.46  88.3909
 39.8476  7871.77  88.0252
 39.8896  7998.31  88.3535
 39.9316  7826.14  87.6424
 39.9736  7877  87.5091
 40.0156  7886.17  87.3901
 40.0576  7734.14  86.8858
 40.0996  8056.68  87.8632
 40.1416  7954.23  88.1007
 40.1836  7997.7  88.2281
 40.2256  7993.71  88.2359
 40.2676  7914.97  87.9829
 40.3096  7906.61  87.7992
 40.3516  7914.21  87.9511
 40.3936  7962.94  87.7781
 40.4356  7938.48  87.8431
 40.4776  8158.85  89.2848
 40.5196  7929.85  88.33
 40.5616  8063.12  88.7025
 40.6036  7841.33  87.7318
 40.6456  7905.28  87.7025
 40.6876  8115.62  88.8458
 40.7296  7923.38  87.9256
 40.7716  8029.23  88.632
 40.8136  7890.44  87.8101
 40.8556  8179.31  89.5282
 40.8976  8017.51  88.5684
 40.9396  8007.66  88.8569
 40.9816  8027.48  88.2563
 41.0236  7978.67  87.7729
 41.0656  8180.65  89.4224
 41.1076  7994.33  88.1703
 41.1496  8042.91  88.3403
 41.1916  7926.62  88.0249
 41.2336  7957.95  88.1877
 41.2756  7973.35  87.8796
 41.3176  8003.95  88.6466
 41.3596  8033.99  88.564
 41.4016  8011.85  88.7052
 41.4436  7962.17  88.2082
 41.4856  8032.23  88.7685
 41.5276  7942.65  88.2736
 41.5696  7870.85  87.5037
 41.6116  7919.6  88.1682
 41.6536  8009.82  88.533
 41.6956  8040.98  88.6783
 41.7376  7860.3  87.7891
 41.7796  7818.6  87.4813
 41.8216  7884.17  88.0393
 41.8636  7965.14  88.4389
 41.9056  7860.42  87.637
 41.9476  7921.36  88.2097
 41.9896  7978.2  88.1931
 42.0316  7984.81  88.3175
 42.0736  8020.42  88.6467
 42.1156  7837.28  87.4404
 42.1576  7868.6  87.7204
 42.1996  8059.63  88.9084
 42.2416  7942.54  87.8509
 42.2836  7961.69  88.0648
 42.3256  7781.17  87.1666
 42.3676  8008.26  88.2224
 42.4096  7962.32  87.9495
 42.4516  8001.4  88.2409
 42.4936  7777.73  87.0791
 42.5356  7851.61  87.6351
 42.5776  7938.39  88.0437
 42.6196  7843.7  87.5842
 42.6616  7704.75  86.9743
 42.7036  7921.38  87.563
 42.7456  8002.4  88.3657
 42.7876  7914.62  87.9696
 42.8296  7924.6  87.8696
 42.8716  7715.24  86.8656
 42.9136  7806.85  87.1323
 42.9556  7843.69  87.499
 42.9976  7957.01  88.1015
 43.0396  7860.82  87.2968
 43.0816  7801.13  87.3451
 43.1236  7751.45  87.1188
 43.1656  7863.06  87.5759
 43.2076  7776.17  87.1902
 43.2496  7757.18  86.9072
 43.2916  7806.13  87.542
 43.3336  7800.6  87.3437
 43.3756  7837.87  87.2978
 43.4176  7682.19  86.5212
 43.4596  7671.6  86.3128
 43.5016  7831.88  87.6178
 43.5436  7851.33  87.6209
 43.5856  7694.87  86.7876
 43.6276  7786.68  87.1882
 43.6696  7683.43  86.7517
 43.7116  7786.28  86.9421
 43.7536  7848.34  87.7841
 43.7956  7644.98  87.8482
 43.8376  7616.94  86.2227
 43.8796  7564.52  86.0037
 43.9216  7605.02  86.1525
 43.9636  7620.21  86.3489
 44.0056  7572.65  86.309
 44.0476  7631.84  86.277
 44.0896  7495.94  85.8445
 44.1316  7592.99  86.0559
 44.1736  7507.53  85.5641
 44.2156  7673.88  86.3557
 44.2576  7533.97  85.8859
 44.2996  7615.26  86.3235
 44.3416  7570.49  85.8338
 44.3836  7511.99  85.8234
 44.4256  7505.95  85.4379
 44.4676  7368.64  84.805
 44.5096  7665.8  86.6425
 44.5516  7559.05  85.9932
 44.5936  7420.52  85.1621
 44.6356  7509.06  85.409
 44.6776  7633.44  86.4297
 44.7196  7574.58  86.4114
 44.7616  7586.97  87.7977
 44.8036  7720.49  87.1858
 44.8456  7757.74  87.3955
 44.8876  7713.6  86.9886
 44.9296  7855.51  87.2255
 44.9716  7683.78  86.684
 45.0136  7722.53  86.8509
 45.0556  7752.83  87.1127
 45.0976  7538.36  85.9481
 45.1396  7615.82  86.1408
 45.1816  7643.29  86.2429
 45.2236  7694.48  86.4298
 45.2656  7593.03  86.3584
 45.3076  7579.78  86.0723
 45.3496  7548.89  86.1991
 45.3916  7592.64  86.7192
 45.4336  7692.35  87.1177
 45.4756  7599.97  86.4538
 45.5176  7760.91  86.973
 45.5596  7666.96  86.5684
 45.6016  7579.03  86.4973
 45.6436  7582.45  85.6774
 45.6856  7508.28  85.9211
 45.7276  7495.98  87.1685
 45.7696  7513.64  86.957
 45.8116  7490.92  86.2444
 45.8536  7619.6  86.8786
 45.8956  7570.36  85.9381
 45.9376  7641.85  85.8061
 45.9796  7574.97  86.1322
 46.0216  7676.49  87.0269
 46.0636  7614.72  85.8126
 46.1056  7674.9  86.1506
 46.1476  7620.2  86.4443
 46.1896  7646.78  86.7371
 46.2316  7535.47  85.9753
 46.2736  7523.49  86.13
 46.3156  7595.56  86.2819
 46.3576  7528.86  86.0979
 46.3996  7451.52  85.8204
 46.4416  7528.61  85.8182
 46.4836  7471.7  85.8695
 46.5256  7519.42  86.0856
 46.5676  7456.61  85.8388
 46.6096  7460.95  85.7978
 46.6516  7532.66  85.2359
 46.6936  7437.88  85.2001
 46.7356  7599.21  86.2061
 46.7776  7438.84  86.1609
 46.8196  7456.53  86.001
 46.8616  7305.4  84.9338
 46.9036  7282.24  84.4496
 46.9456  7388.46  84.7049
 46.9876  7472.12  85.2662
 47.0296  7476.07  85.9871
 47.0716  7356.38  85.118
 47.1136  7452.64  85.3392
 47.1556  7487.01  85.4065
 47.1976  7451.89  85.3633
 47.2396  7383.48  85.303
 47.2816  7330.17  84.6922
 47.3236  7305.94  84.9226
 47.3656  7500.69  85.9775
 47.4076  7513.99  85.7697
 47.4496  7325  84.8595
 47.4916  7384.02  85.3872
 47.5336  7519.88  85.9914
 47.5756  7541.58  86.2304
 47.6176  7432.01  85.4937
 47.6596  7223.37  84.0033
 47.7016  7551.27  85.7024
 47.7436  7544.46  86.0046
 47.7856  7540.47  86.0082
 47.8276  7405.61  85.2856
 47.8696  7375.48  85.2022
 47.9116  7577.49  86.0599
 47.9536  7430.85  85.1703
 47.9956  7358.65  85.4736
 48.0376  7348.2  85.1834
 48.0796  7477.16  86.058
 48.1216  7390.7  85.3787
 48.1636  7483.6  85.4731
 48.2056  7454.03  85.5771
 48.2476  7545.32  86.4096
 48.2896  7517.18  86.1581
 48.3316  7438.64  85.6495
 48.3736  7469.7  85.8541
 48.4156  7315.35  84.8155
 48.4576  7452.37  85.9003
 48.4996  7491.23  85.5675
 48.5416  7497.16  85.929
 48.5836  7377.11  84.9142
 48.6256  7464.13  85.6179
 48.6676  7469.83  86.1869
 48.7096  7461.62  85.3899
 48.7516  7394.66  85.1627
 48.7936  7206.33  84.1341
 48.8356  7336.24  84.9367
 48.8776  7461.72  86.1623
 48.9196  7480.72  85.7065
 48.9616  7394.56  85.6045
 49.0036  7398.66  85.9739
 49.0456  7306.31  85.414
 49.0876  7375.59  85.4604
 49.1296  7314.91  85.1678
 49.1716  7280.98  84.8379
 49.2136  7325.42  85.0189
 49.2556  7362.81  85.2713
 49.2976  7397.76  85.5373
 49.3396  7344.69  85.2957
 49.3816  7514.02  85.685
 49.4236  7365.77  85.265
 49.4656  7261.69  84.6877
 49.5076  7436.52  85.4376
 49.5496  7290.35  84.661
 49.5916  7418.04  85.3105
 49.6336  7309.5  84.8925
 49.6756  7441.4  85.8961
 49.7176  7340.54  85.2502
 49.7596  7373.67  85.2048
 49.8016  7415.09  85.3625
 49.8436  7275.51  84.8535
 49.8856  7291.62  84.96
 49.9276  7259.48  84.8676
 49.9696  7395.59  85.649
 50.0116  7296.84  85.2023
 50.0536  7408.34  85.7993
 50.0956  7292.53  85.195
 50.1376  7352.76  85.241
 50.1796  7217.63  84.7284
 50.2216  7252.91  84.9236
 50.2636  7332.31  84.9994
 50.3056  7187.17  84.3342
 50.3476  7358.86  85.3512
 50.3896  7291.59  84.9349
 50.4316  7304.33  84.8393
 50.4736  7162.43  84.2354
 50.5156  7269.37  84.8509
 50.5576  7334.38  84.9912
 50.5996  7227.8  84.65
 50.6416  7276.4  84.8567
 50.6836  7329.65  85.2226
 50.7256  7344.88  85.2405
 50.7676  7411.02  85.9048
 50.8096  7257.93  84.5809
 50.8516  7165.85  84.4689
 50.8936  7170.92  84.2863
 50.9356  7209.31  84.606
 50.9776  7264.69  85.1058
 51.0196  6991.33  83.6092
 51.0616  7160.35  83.9313
 51.1036  7097.77  83.9297
 51.1456  7153.82  84.1685
 51.1876  7141.39  83.4245
 51.2296  7113.53  83.9068
 51.2716  7048.09  83.221
 51.3136  6979.99  83.2867
 51.3556  7142.62  83.8605
 51.3976  7013.16  83.2534
 51.4396  6927.91  83.0594
 51.4816  7085.91  83.8481
 51.5236  7183.61  84.5138
 51.5656  6988.41  82.9514
 51.6076  7158.75  84.0394
 51.6496  7048.35  83.587
 51.6916  7060.8  84.0238
 51.7336  6950.87  83.4632
 51.7756  6901.33  82.8445
 51.8176  7028.76  83.7295
 51.8596  7010.74  83.6372
 51.9016  7183.46  84.2558
 51.9436  7076.27  85.147
 51.9856  7071.47  85.5158
 52.0276  7139.75  84.397
 52.0696  7115.67  84.3162
 52.1116  7072.42  84.1937
 52.1536  7049.31  83.8821
 52.1956  7067.81  83.506
 52.2376  7094.94  83.834
 52.2796  7242.34  84.5141
 52.3216  7038.82  84.0186
 52.3636  7158.57  84.2858
 52.4056  7035.38  83.4142
 52.4476  7064.18  83.9638
 52.4896  6986.99  83.5391
 52.5316  7070.35  84.0871
 52.5736  6913.44  82.8769
 52.6156  7145.67  84.6597
 52.6576  7036.66  83.4391
 52.6996  6880.62  83.51
 52.7416  6911.92  83.5494
 52.7836  7040.53  84.2083
 52.8256  7004.01  83.1867
 52.8676  6937.27  83.3748
 52.9096  7092.32  84.3795
 52.9516  7012.69  84.3025
 52.9936  6966.66  84.394
 53.0356  7066.05  83.9663
 53.0776  7145.58  84.7443
 53.1196  6947.92  83.6632
 53.1616  7002.48  84.0481
 53.2036  7031.3  84.1739
 53.2456  6900.5  83.4993
 53.2876  6960.37  83.5365
 53.3296  6976.27  83.9733
 53.3716  7114.88  84.5455
 53.4136  7002.68  84.0271
 53.4556  6973.03  83.8752
 53.4976  6881.56  83.1587
 53.5396  6985.66  84.2064
 53.5816  6963.06  83.6955
 53.6236  6885.06  83.5809
 53.6656  6914.6  83.3645
 53.7076  7060.94  84.1877
 53.7496  7069.88  84.3807
 53.7916  6894.39  83.4645
 53.8336  6929.5  83.566
 53.8756  6754.54  83.0646
 53.9176  6951.28  83.5879
 53.9596  6723.69  82.9817
 54.0016  6803.05  82.7832
 54.0436  6617.41  81.8822
 54.0856  6850.66  82.7168
 54.1276  6755.42  82.3444
 54.1696  6768.97  82.5896
 54.2116  6904.83  83.147
 54.2536  6734.07  81.9396
 54.2956  6692.64  81.7297
 54.3376  6773.58  82.7122
 54.3796  6636.45  81.7717
 54.4216  6795.3  82.8196
 54.4636  6716.48  82.2849
 54.5056  6735.97  82.2122
 54.5476  6545.82  81.3742
 54.5896  6577.51  81.4254
 54.6316  6726.8  82.1733
 54.6736  6637.67  81.6755
 54.7156  6545.07  81.1709
 54.7576  6566.89  81.2821
 54.7996  6777.34  82.7431
 54.8416  6665.01  82.0907
 54.8836  6648.93  82.0817
 54.9256  6534.66  81.1466
 54.9676  6517.86  80.9103
 55.0096  6634.64  81.6518
 55.0516  6474.53  80.8438
 55.0936  6606.92  81.3895
 55.1356  6532.7  80.9621
 55.1776  6680.3  82.1245
 55.2196  6646.01  81.7061
 55.2616  6664.24  82.043
 55.3036  6504.86  81.2163
 55.3456  6401.12  80.7192
 55.3876  6601.48  81.6901
 55.4296  6521.93  81.1993
 55.4716  6577.56  81.5757
 55.5136  6602.31  81.4832
 55.5556  6691.1  82.0946
 55.5976  6520.09  81.1031
 55.6396  6536.22  81.0734
 55.6816  6489.02  80.7177
 55.7236  6416.31  80.3201
 55.7656  6548.47  80.8845
 55.8076  6466.83  80.3706
 55.8496  6642.62  81.8763
 55.8916  6438.92  80.6747
 55.9336  6580.87  81.425
 55.9756  6441.27  80.4373
 56.0176  6374.78  80.1634
 56.0596  6412.56  80.4068
 56.1016  6368.23  80.1886
 56.1436  6408.08  80.6544
 56.1856  6277.9  79.5673
 56.2276  6554.76  81.3502
 56.2696  6444.08  80.6415
 56.3116  6528.76  81.5507
 56.3536  6434.72  80.6468
 56.3956  6406.26  80.4285
 56.4376  6348.54  80.1166
 56.4796  6338.13  79.8684
 56.5216  6336.03  80.2354
 56.5636  6374.56  80.0593
 56.6056  6458.43  80.8029
 56.6476  6399.44  80.0315
 56.6896  6530.3  81.3269
 56.7316  6386.57  80.3404
 56.7736  6495.99  81.0319
 56.8156  6422.6  80.5938
 56.8576  6180.05  78.9971
 56.8996  6386.19  80.2094
 56.9416  6396.92  80.584
 56.9836  6432.85  80.3321
 57.0256  6293.62  79.7794
 57.0676  6433.26  80.7736
 57.1096  6388.02  80.2752
 57.1516  6259.89  79.4777
 57.1936  6274.17  79.3454
 57.2356  6226.94  79.3911
 57.2776  6354.65  80.1704
 57.3196  6345.89  80.4517
 57.3616  6336.32  79.9048
 57.4036  6339.74  79.9865
 57.4456  6401.02  80.342
 57.4876  6221.23  79.0639
 57.5296  6298.34  79.7916
 57.5716  6228.77  79.4463
 57.6136  6182.89  78.9982
 57.6556  6286.7  79.7693
 57.6976  6335.11  79.9114
 57.7396  6177.06  79.2582
 57.7816  6215.2  79.8879
 57.8236  6234.72  79.7875
 57.8656  6208.08  79.2804
 57.9076  6205.13  79.2915
 57.9496  6267.46  80.0488
 57.9916  6257.68  79.4825
 58.0336  6186.43  79.319
 58.0756  6281.44  79.5073
 58.1176  6313  79.7562
 58.1596  6202.18  79.6395
 58.2016  6010.76  77.6337
 58.2436  6108.98  78.6662
 58.2856  5993.06  77.8483
 58.3276  6009.17  78.3163
 58.3696  5992.25  77.9626
 58.4116  5978.02  77.7358
 58.4536  6047.94  78.074
 58.4956  5924.85  77.4561
 58.5376  6093.11  78.1144
 58.5796  5890.59  77.2285
 58.6216  6021.98  77.8931
 58.6636  6052.45  78.313
 58.7056  5932.72  77.388
 58.7476  5897.75  77.5953
 58.7896  5906.09  77.3042
 58.8316  6027.82  78.0879
 58.8736  6008.44  77.976
 58.9156  5918.96  77.4345
 58.9576  5936.83  77.8756
 58.9996  6043.56  77.8174
 59.0416  5938.01  77.4973
 59.0836  6032.65  78.0248
 59.1256  5857.6  77.5785
 59.1676  5967.25  78.6098
 59.2096  5969.73  77.9433
 59.2516  5962.5  77.4798
 59.2936  5966.84  77.8341
 59.3356  5866.89  77.059
 59.3776  5960.71  77.8406
 59.4196  5930.81  77.5819
 59.4616  5891.95  77.1887
 59.5036  5908.28  77.3305
 59.5456  6118.39  78.3849
 59.5876  5918.93  77.2859
 59.6296  5832.24  76.7859
 59.6716  5871.03  77.0979
 59.7136  5861.92  77.0265
 59.7556  6052.32  78.4041
 59.7976  6036.84  78.0459
 59.8396  6055.22  78.0588
 59.8816  5912.23  77.6674
 59.9236  6008.14  77.9433
 59.9656  5896.09  77.4651
 60.0076  6012.36  77.5895
 60.0496  5962.68  77.7691
 60.0916  6127.57  78.2508
 60.1336  5899.1  77.8727
 60.1756  5833.36  78.6016
 60.1996  0.0000000E+00  0.0000000E+00