File: docs/examples/opeando_xrd/IS17_D/Data/IS17_D/17_Db_f00147.xye
# /beamlines/bl04/projects/cycle2025-II/20250340211-lsimonelli/DATA/IS17_D/17_Db_f00147.xye : mythproc.py merge -s 0.006 -l 0.5 -f /beamlines/bl04/inhouse/ff/FlatField/ff_20Nov2024rod8mm60s_17keV.raw -b True -c true -o xye /beamlines/bl04/projects/cycle2025-II/20250340211-lsimonelli/DATA/IS17_D/17_Db_00147.dat
# IsMon = [6774017, 6777404, 6780048]  IsPos = [-1.4999, -2.4885, -3.4986]
# Wave = 0.4962  CalPath /beamlines/bl04/projects/cycle2025-II/20250340211-lsimonelli/DATA/Align/Si_Pos1_25keV_f00001.cal
# Date = 2025-09-25_10:40:20 Dt = 4.8000  Bin = 0.0060  <imon> = 6777156 +/- 2468 (Min/Max) 6774017 / 6780048
# icurr 252.5768  mocoIn 1.7227E-05  mocoOut 0.8079  i15 7.09887e+06  imon 6.77716e+06  i7 6.6667  iEMpd_timer 4.8000  iEMpd_1 3.4459E-08  iEMpd_2 7.8169E-08  iEMpd_3 1.7723E-08  iEMpd_4 4.6832E-08  iEMhp_timer 4.8000  iEMhp_1 4.9326E-06  iEMhp_2 -2.4887E-08  iEMhp_3 -2.3413E-08  iEMhp_4 -2.1677E-08
#      9776
 1.5856  45335.7  218.688
 1.6276  51780.1  229.704
 1.6696  57122.1  240.411
 1.7116  64334.9  255.637
 1.7536  72546  270.305
 1.7956  76499.7  278.266
 1.8376  72989.6  272.238
 1.8796  63581.3  252.223
 1.9216  52496.5  230.094
 1.9636  45319.6  212.912
 2.0056  41273.8  202.398
 2.0476  38628.1  197.95
 2.0896  37236.1  193.211
 2.1316  35909.3  188.825
 2.1736  34075.2  185.399
 2.2156  34945.4  186.245
 2.2576  33475.1  182.939
 2.2996  32258.3  180.242
 2.3416  32510.6  179.501
 2.3836  31704.2  177.37
 2.4256  30883.3  175.629
 2.4676  30491.7  174.265
 2.5096  30394.3  174.043
 2.5516  28992  173.83
 2.5936  29085.9  170.649
 2.6356  28270  168.946
 2.6776  28131.5  167.423
 2.7196  27946.1  167.364
 2.7616  27717.2  166.464
 2.8036  27415.7  165.717
 2.8456  27193.5  165.696
 2.8876  26834.2  164.432
 2.9296  26303.6  162.958
 2.9716  26317.8  162.485
 3.0136  25800.5  160.944
 3.0556  25775.4  161.261
 3.0976  25706.7  159.949
 3.1396  25668.5  160.56
 3.1816  25117.9  158.767
 3.2236  25202.6  159.014
 3.2656  24924.1  157.178
 3.3076  24767.4  158.182
 3.3496  25068.6  158.279
 3.3916  25324  158.66
 3.4336  25756.9  160.613
 3.4756  26015.3  161.359
 3.5176  26664.7  163.128
 3.5596  26629.1  165.49
 3.6016  26750.5  163.442
 3.6436  25612.6  161.038
 3.6856  25512.4  159.007
 3.7276  24692.6  157.525
 3.7696  24179.8  156.06
 3.8116  23972.1  155.295
 3.8536  24222.3  156.033
 3.8956  24113.5  155.49
 3.9376  23730.5  154.555
 3.9796  23666.5  153.795
 4.0216  23813.6  153.31
 4.0636  23861.2  154.951
 4.1056  23601.1  153.751
 4.1476  24070.3  155.589
 4.1896  24195.3  155.838
 4.2316  24429.8  156.414
 4.2736  24738.6  157.206
 4.3156  24971.6  158.172
 4.3576  25622  160.121
 4.3996  25956.4  161.243
 4.4416  26394.6  162.387
 4.4836  26711.1  163.519
 4.5256  27418.6  166.292
 4.5676  27223.7  165.95
 4.6096  27859.8  166.521
 4.6516  28040.2  166.75
 4.6936  28252.7  168.212
 4.7356  28403  168.488
 4.7776  28251  167.854
 4.8196  28305.7  168.698
 4.8616  27616.9  166.237
 4.9036  27575.1  165.714
 4.9456  27183  165.181
 4.9876  26656.7  163.477
 5.0296  26963.5  164.252
 5.0716  26736.5  164.174
 5.1136  26872.3  164.456
 5.1556  27219.3  164.96
 5.1976  27742.7  166.541
 5.2396  27602.3  165.803
 5.2816  27877.6  167.119
 5.3236  27756.1  166.435
 5.3656  27436.9  166.418
 5.4076  27182.8  165.789
 5.4496  27220.2  165.384
 5.4916  27481  165.929
 5.5336  27232.3  165.181
 5.5756  27257.9  165.283
 5.6176  27710.8  166.08
 5.6596  27751.6  167.21
 5.7016  27917.6  166.948
 5.7436  27970.4  167.39
 5.7856  27851.6  167.102
 5.8276  28254.9  168.009
 5.8696  28343.4  168.455
 5.9116  28194.7  168.584
 5.9536  28746.8  170.006
 5.9956  28843.1  169.666
 6.0376  28808.1  170.189
 6.0796  29210  171.202
 6.1216  28906.8  170.504
 6.1636  29362.7  170.896
 6.2056  29090.7  170.777
 6.2476  29286.2  171.226
 6.2896  29607.3  171.838
 6.3316  29558.9  171.885
 6.3736  29495.9  171.582
 6.4156  29786.8  172.311
 6.4576  29718.9  171.728
 6.4996  29601  171.864
 6.5416  29947.3  172.997
 6.5836  29600  172.228
 6.6256  29945.2  172.792
 6.6676  30457.4  173.826
 6.7096  30478.2  174.763
 6.7516  30822.3  175.393
 6.7936  31099.9  175.315
 6.8356  30868.8  175.014
 6.8776  31002.5  176.194
 6.9196  31019.9  176.657
 6.9616  31832.6  178.365
 7.0036  32085.7  178.737
 7.0456  32145.4  178.214
 7.0876  31963.5  179.398
 7.1296  32120.6  178.962
 7.1716  32019.9  178.223
 7.2136  31801.6  177.388
 7.2556  31963.5  177.993
 7.2976  32056.4  178.761
 7.3396  31680  177.929
 7.3816  32046.9  179.17
 7.4236  32284  179.127
 7.4656  32590.3  179.432
 7.5076  32812.4  180.191
 7.5496  32423.4  179.65
 7.5916  32596.4  180.18
 7.6336  32971.9  181.105
 7.6756  33138.9  181.411
 7.7176  33750.3  183.409
 7.7596  33393.7  183.662
 7.8016  34045.1  187.713
 7.8436  33796  183.629
 7.8856  33733.2  183.073
 7.9276  34285.4  184.956
 7.9696  34364.5  185.484
 8.0116  35620.5  187.747
 8.0536  35783.3  188.061
 8.0956  35714.5  189.069
 8.1376  36192.9  189.795
 8.1796  36412  190.909
 8.2216  37193.9  191.685
 8.2636  37019  191.482
 8.3056  36831.4  191.757
 8.3476  37876.2  193.787
 8.3896  37400.8  193.083
 8.4316  38004.7  194.365
 8.4736  38048.7  193.941
 8.5156  37019.1  191.576
 8.5576  37235.6  193.105
 8.5996  36945.8  191.233
 8.6416  37281  193.368
 8.6836  36537.7  191.253
 8.7256  37401.4  192.956
 8.7676  37528.1  196.231
 8.8096  37893.3  194.459
 8.8516  37408.4  192.778
 8.8936  37025.7  191.745
 8.9356  37418.6  193.106
 8.9776  36982.8  192.047
 9.0196  37246  192.409
 9.0616  37059.4  191.413
 9.1036  36700.4  191.66
 9.1456  36144  189.516
 9.1876  36668.3  190.846
 9.2296  36114.9  188.823
 9.2716  36165.4  189.008
 9.3136  36198.3  189.082
 9.3556  36528.8  189.915
 9.3976  35555.8  187.903
 9.4396  35395.1  187.383
 9.4816  35576.1  187.715
 9.5236  35355.9  187.022
 9.5656  34830.1  185.994
 9.6076  34001.5  184.283
 9.6496  34357.5  185.143
 9.6916  34032.5  184.193
 9.7336  34524.1  185.32
 9.7756  34001.5  185.279
 9.8176  33848.7  184.297
 9.8596  33889  182.828
 9.9016  33430.2  181.574
 9.9436  33267.9  181.048
 9.9856  32990.9  180.57
 10.0276  32200.4  179.475
 10.0696  32702.4  179.892
 10.1116  31788.4  177.632
 10.1536  31647.3  177.387
 10.1956  31253.7  175.892
 10.2376  31356.7  175.691
 10.2796  31014.3  174.839
 10.3216  30900.4  174.806
 10.3636  30867.9  174.745
 10.4056  30196  173.229
 10.4476  30295.6  173.115
 10.4896  30361.4  172.748
 10.5316  29983.9  172.405
 10.5736  29892.3  172.563
 10.6156  29598.9  171.477
 10.6576  29683.6  170.255
 10.6996  29110  169.317
 10.7416  28728.8  168.42
 10.7836  28550.2  168.558
 10.8256  28177.6  167.887
 10.8676  28207  167.499
 10.9096  28059.5  167.104
 10.9516  27604.2  164.669
 10.9936  27910.6  165.796
 11.0356  27626.8  165.577
 11.0776  27609.4  164.839
 11.1196  26984  163.738
 11.1616  26907.8  163.173
 11.2036  27109  163.626
 11.2456  27022  164.077
 11.2876  27325.9  164.735
 11.3296  26743.8  162.871
 11.3716  27119  163.69
 11.4136  27138.5  164.653
 11.4556  27093.5  164.157
 11.4976  27511.5  164.404
 11.5396  27750.6  165.293
 11.5816  27061.3  163.674
 11.6236  26665.3  162.924
 11.6656  26879  162.493
 11.7076  25872.9  160.258
 11.7496  25751.9  163.943
 11.7916  25532.2  158.452
 11.8336  25113.9  158.064
 11.8756  24994.8  157.216
 11.9176  25098.6  157.447
 11.9596  25025.6  157.161
 12.0016  24823.1  157.292
 12.0436  25185  157.885
 12.0856  24567.5  156.433
 12.1276  24526.3  156.256
 12.1696  24499.8  155.28
 12.2116  24433.2  155.063
 12.2536  24361.2  155.668
 12.2956  24341.8  154.928
 12.3376  24497.8  155.646
 12.3796  24362.6  155.699
 12.4216  24351.7  154.851
 12.4636  23990.7  154.639
 12.5056  24399.2  155.21
 12.5476  24394.9  154.699
 12.5896  23922.1  153.834
 12.6316  24333.3  155.32
 12.6736  24010  154.615
 12.7156  24342.2  155.676
 12.7576  24069.5  155.055
 12.7996  24229.7  154.198
 12.8416  24069  154.746
 12.8836  24477.7  155.866
 12.9256  24807.9  155.953
 12.9676  24663.1  155.898
 13.0096  24873.4  157.706
 13.0516  24923.6  156.875
 13.0936  24963.3  157.417
 13.1356  25169.5  157.014
 13.1776  24670.1  156.47
 13.2196  24867.9  156.73
 13.2616  24516.9  155.932
 13.3036  24805.2  156.82
 13.3456  24342.3  155.472
 13.3876  24970.9  156.969
 13.4296  24753.4  156.442
 13.4716  24789.3  156.181
 13.5136  24847.7  156.48
 13.5556  24647  156.497
 13.5976  24850.6  157.309
 13.6396  24871.8  156.725
 13.6816  25043.2  157.742
 13.7236  25309.2  158.155
 13.7656  26809.9  163.256
 13.8076  27472.1  163.891
 13.8496  27170.6  163.645
 13.8916  25062.7  158.334
 13.9336  24450.2  155.641
 13.9756  24296.6  154.531
 14.0176  24128.7  154.681
 14.0596  24154.4  154.684
 14.1016  23937.3  154.431
 14.1436  24219.6  154.459
 14.1856  23486  152.398
 14.2276  23563.7  153.142
 14.2696  23530.4  152.875
 14.3116  22930.9  150.816
 14.3536  22670.7  150.126
 14.3956  22687.8  149.911
 14.4376  22948.4  150.549
 14.4796  22783.1  150.006
 14.5216  22383.2  149.477
 14.5636  22415  149.139
 14.6056  22597.4  149.302
 14.6476  22319.9  147.632
 14.6896  21930  146.883
 14.7316  21678.2  147.082
 14.7736  21553.4  145.789
 14.8156  21328.7  145.037
 14.8576  21380.5  145.082
 14.8996  20914.6  144.69
 14.9416  20578.5  143.535
 14.9836  20551.4  143.425
 15.0256  20156.5  140.94
 15.0676  19947.5  140.515
 15.1096  19979.9  140.371
 15.1516  19439.5  139.015
 15.1936  19564.5  138.887
 15.2356  19102.3  137.511
 15.2776  19207.7  137.483
 15.3196  18819.1  137.076
 15.3616  18816  136.817
 15.4036  18684.7  136.207
 15.4456  18968  136.65
 15.4876  18448.8  134.681
 15.5296  18405.6  134.812
 15.5716  18272.8  133.924
 15.6136  18198.9  133.982
 15.6556  18190.2  133.191
 15.6976  18224.3  133.393
 15.7396  17868.3  132.68
 15.7816  17830.5  132.06
 15.8236  17613.9  131.94
 15.8656  17784.5  132.375
 15.9076  17407.1  130.784
 15.9496  18279.8  136.893
 15.9916  18051.2  136.447
 16.0336  18054.3  133.272
 16.0756  17867.6  132.917
 16.1176  17544.2  131.791
 16.1596  17287.4  132.004
 16.2016  17152.6  130.239
 16.2436  17341.2  131.34
 16.2856  17237.6  130.446
 16.3276  16943.5  129.782
 16.3696  17017.7  129.89
 16.4116  16753.7  129.325
 16.4536  17114.4  130.516
 16.4956  17079.9  130.122
 16.5376  16902.5  129.628
 16.5796  16726.4  128.316
 16.6216  16876.6  129.129
 16.6636  16591.1  128.247
 16.7056  16764.8  128.782
 16.7476  16687.1  128.142
 16.7896  16780.9  129.114
 16.8316  16916.6  129.623
 16.8736  16834.2  129.565
 16.9156  16709.5  129.411
 16.9576  16492.3  129.368
 16.9996  16658.5  130.496
 17.0416  16711.2  129.072
 17.0836  16647.6  128.591
 17.1256  16382.9  127.567
 17.1676  16562.4  128.232
 17.2096  16205.4  126.73
 17.2516  16147.7  126.294
 17.2936  16293  127.214
 17.3356  16144.5  126.621
 17.3776  16019  126.317
 17.4196  15953.8  125.752
 17.4616  15803.3  125.069
 17.5036  15436.1  123.969
 17.5456  15525.9  124.962
 17.5876  15751.7  124.907
 17.6296  15738.9  124.69
 17.6716  15548.4  124.515
 17.7136  15444.8  124.239
 17.7556  15463.9  124.604
 17.7976  15124.3  122.825
 17.8396  15256.3  122.995
 17.8816  15199.3  123.332
 17.9236  15240.7  123.297
 17.9656  15046.6  123.172
 18.0076  15041.4  122.579
 18.0496  15086.9  121.9
 18.0916  15110.1  122.548
 18.1336  15015.6  122.257
 18.1756  15267.8  122.828
 18.2176  14896.5  121.529
 18.2596  14952.4  121.491
 18.3016  15096.1  122.345
 18.3436  15227.5  123.115
 18.3856  15030.1  122.214
 18.4276  14926.3  121.467
 18.4696  14885.3  121.385
 18.5116  14820.4  121.403
 18.5536  14810.2  121.716
 18.5956  14647.1  120.605
 18.6376  14632.9  120.953
 18.6796  14483.1  119.645
 18.7216  14676  121.011
 18.7636  14708.5  121.085
 18.8056  14543.6  120.315
 18.8476  14393.9  120.025
 18.8896  14375.6  119.582
 18.9316  14410  119.536
 18.9736  14377.3  119.268
 19.0156  14339.5  119.515
 19.0576  14589.4  119.399
 19.0996  14530.4  119.883
 19.1416  14307.5  119.365
 19.1836  14222.3  118.598
 19.2256  14174  118.623
 19.2676  14271.6  119.118
 19.3096  14280.7  119.403
 19.3516  14142.5  118.789
 19.3936  14148.4  118.768
 19.4356  14427.2  119.753
 19.4776  14385.3  119.668
 19.5196  14392.9  119.553
 19.5616  14078.9  118.501
 19.6036  14106.4  117.965
 19.6456  14089.4  118.154
 19.6876  14123.1  117.933
 19.7296  14355.1  119.369
 19.7716  14106  118.353
 19.8136  14660.1  121.01
 19.8556  14561.4  120.065
 19.8976  14514.4  119.93
 19.9396  14594.8  119.847
 19.9816  14756.6  120.757
 20.0236  14972.4  121.833
 20.0656  14848.7  121.333
 20.1076  14534.2  120.537
 20.1496  14144.5  118.899
 20.1916  14191.3  118.617
 20.2336  13941.8  117.48
 20.2756  13891.6  117.712
 20.3176  13673.3  116.527
 20.3596  13618  116.273
 20.4016  13705.2  116.451
 20.4436  13650.1  116.783
 20.4856  13660.5  116.618
 20.5276  13611.1  116.873
 20.5696  13605.3  116.289
 20.6116  13548.6  116.332
 20.6536  13333  114.959
 20.6956  13254.7  114.7
 20.7376  13324.2  115.211
 20.7796  13375  115.12
 20.8216  13433.8  115.087
 20.8636  13371.2  115.203
 20.9056  13329.1  114.954
 20.9476  13303.3  114.685
 20.9896  13484  115.321
 21.0316  13234.7  114.149
 21.0736  13301.7  114.969
 21.1156  13243  114.868
 21.1576  13303.3  115.178
 21.1996  13346.4  115.348
 21.2416  13261.9  114.802
 21.2836  13248.1  114.722
 21.3256  13287.1  114.972
 21.3676  13235.3  114.257
 21.4096  13038.6  113.742
 21.4516  12972  113.319
 21.4936  12796.7  112.808
 21.5356  13109.9  114.139
 21.5776  13036.1  113.651
 21.6196  12894.6  113.074
 21.6616  13019.4  113.706
 21.7036  13002.9  113.393
 21.7456  12966.7  113.316
 21.7876  12944.4  112.984
 21.8296  12926.1  112.74
 21.8716  13024.4  113.403
 21.9136  13066.3  113.784
 21.9556  12822.7  112.399
 21.9976  12908.1  112.802
 22.0396  12803.8  112.6
 22.0816  12859.5  113.372
 22.1236  12931.1  113.149
 22.1656  12712.1  112.375
 22.2076  12636.4  111.437
 22.2496  12574.9  111.196
 22.2916  12570.8  111.061
 22.3336  12700.7  112.339
 22.3756  12449.2  110.963
 22.4176  12545.5  111.246
 22.4596  12256.5  110.537
 22.5016  12567.2  111.435
 22.5436  12556.9  111.261
 22.5856  12796  112.567
 22.6276  12781  112.637
 22.6696  12640.3  112.373
 22.7116  12538.7  111.432
 22.7536  12599.8  111.677
 22.7956  12622.4  111.115
 22.8376  12414.2  110.702
 22.8796  12476.4  110.785
 22.9216  12535.1  111.586
 22.9636  12480.9  110.504
 23.0056  12411.6  110.328
 23.0476  12712.8  112.237
 23.0896  12855.7  112.237
 23.1316  12580.4  111.464
 23.1736  12731.8  115.108
 23.2156  13036.7  113.74
 23.2576  13044.4  113.987
 23.2996  12673  112.111
 23.3416  12840.8  113.404
 23.3836  12676.8  111.864
 23.4256  12964.3  113.28
 23.4676  12805.2  112.277
 23.5096  12856.3  113.17
 23.5516  12651  111.553
 23.5936  12825.1  113.239
 23.6356  13052.7  113.898
 23.6776  12717.4  112.969
 23.7196  12540.4  111.427
 23.7616  12749.1  112.26
 23.8036  12985.8  113.367
 23.8456  12593.5  111.179
 23.8876  12626.8  111.697
 23.9296  12509.8  111.665
 23.9716  12590.6  111.222
 24.0136  12712.5  112.673
 24.0556  12557.1  111.695
 24.0976  12367.8  110.667
 24.1396  12212  112.601
 24.1816  12388.8  112.144
 24.2236  12489.1  111.886
 24.2656  12223.2  110.162
 24.3076  12253.1  110.57
 24.3496  12243.6  110.4
 24.3916  12248.2  110.471
 24.4336  12169.6  110.325
 24.4756  12316.5  110.873
 24.5176  12227.6  110.079
 24.5596  11859.9  108.535
 24.6016  12129.4  110.075
 24.6436  12102.6  109.459
 24.6856  11931.5  108.418
 24.7276  11760.7  107.963
 24.7696  11762.3  108.079
 24.8116  11644.6  107.71
 24.8536  11727.4  108.101
 24.8956  11778.9  108.076
 24.9376  11734.5  107.8
 24.9796  11574.1  107.411
 25.0216  11603.2  107.673
 25.0636  11621.9  107.413
 25.1056  11421.9  106.908
 25.1476  11403.5  108.728
 25.1896  11381.2  107.119
 25.2316  11393.1  106.332
 25.2736  11449.3  106.36
 25.3156  11408.1  106.237
 25.3576  11223.8  105.813
 25.3996  11291.8  106.126
 25.4416  11275.7  106.023
 25.4836  10987  105.172
 25.5256  11208.2  105.589
 25.5676  11201.5  105.284
 25.6096  11063.1  105.212
 25.6516  11093.1  104.853
 25.6936  11139.1  105.393
 25.7356  11266.4  106.124
 25.7776  11168.8  105.252
 25.8196  11034.4  104.862
 25.8616  10971.9  104.494
 25.9036  11194.4  105.006
 25.9456  10985.5  104.612
 25.9876  10917.4  104.351
 26.0296  11215.8  105.369
 26.0716  11087.4  105.112
 26.1136  11114.8  105.166
 26.1556  11273.2  105.197
 26.1976  10995.6  104.919
 26.2396  10912.9  103.926
 26.2816  11087.3  105.121
 26.3236  10974.2  104.648
 26.3656  11085.2  104.992
 26.4076  11095.6  105.22
 26.4496  11255  105.582
 26.4916  11333  105.838
 26.5336  11555.2  107.225
 26.5756  11682.8  107.69
 26.6176  11145.4  105.205
 26.6596  11020.1  104.925
 26.7016  10875.6  104.028
 26.7436  10934.9  104.413
 26.7856  10655  103.048
 26.8276  10854  103.972
 26.8696  10833.5  103.745
 26.9116  10683.2  102.955
 26.9536  10754.1  103.351
 26.9956  10560.7  102.448
 27.0376  10648  103.104
 27.0796  10669.5  102.958
 27.1216  10745.5  103.355
 27.1636  10491.7  102.299
 27.2056  10435.3  101.908
 27.2476  10607  102.733
 27.2896  10492.8  102.217
 27.3316  10530  102.188
 27.3736  10499.2  102.307
 27.4156  10531.5  102.304
 27.4576  10474.1  102.249
 27.4996  10451.3  101.741
 27.5416  10361.9  101.613
 27.5836  10357.5  101.43
 27.6256  10397.2  101.804
 27.6676  10318.1  101.399
 27.7096  10469.6  102.026
 27.7516  10314.8  101.414
 27.7936  10676.3  103.33
 27.8356  10593.4  102.544
 27.8776  10572.5  102.502
 27.9196  10319.6  101.116
 27.9616  10379.2  101.613
 28.0036  10274.4  101.062
 28.0456  10247.6  101.066
 28.0876  10284.9  101.341
 28.1296  10226  100.888
 28.1716  10377  101.646
 28.2136  10268.5  101.078
 28.2556  10178.4  100.751
 28.2976  10067.1  100.189
 28.3396  10097.2  100.127
 28.3816  10197.6  100.59
 28.4236  10064  100.091
 28.4656  10004.2  99.8331
 28.5076  10043.7  99.6635
 28.5496  10077.9  100.095
 28.5916  10156.8  100.295
 28.6336  9982.64  99.7823
 28.6756  9922.49  98.6712
 28.7176  10005.1  99.6461
 28.7596  9969.84  99.3608
 28.8016  9931.53  99.2892
 28.8436  9774.42  98.6627
 28.8856  9989.92  99.5924
 28.9276  9917.91  99.4815
 28.9696  9845.96  98.7716
 29.0116  9756.15  98.4929
 29.0536  9814.04  99.0105
 29.0956  9904.29  99.1612
 29.1376  9780.91  98.509
 29.1796  9778.95  98.5568
 29.2216  9770.65  98.3523
 29.2636  9954.88  99.2692
 29.3056  9741.62  98.0488
 29.3476  9847.28  99.1176
 29.3896  9717.19  98.576
 29.4316  9640.86  97.5123
 29.4736  9501.34  96.8675
 29.5156  9572.23  97.1549
 29.5576  9590.05  97.9779
 29.5996  9600.88  97.2958
 29.6416  9530.19  97.0539
 29.6836  9485.42  96.7557
 29.7256  9469.42  97.2346
 29.7676  9487.36  96.984
 29.8096  9628.56  97.6516
 29.8516  9282.69  96.2073
 29.8936  9454.32  97.1881
 29.9356  9458.21  96.9641
 29.9776  9407.51  96.8523
 30.0196  9476.17  96.5983
 30.0616  9453.46  96.8546
 30.1036  9522.19  97.0305
 30.1456  9384.86  96.5824
 30.1876  9382.84  96.5345
 30.2296  9205.96  95.564
 30.2716  9408.89  96.2525
 30.3136  9394.4  96.7649
 30.3556  9759.05  98.9084
 30.3976  9528.54  99.2407
 30.4396  9917.04  98.5475
 30.4816  9572.36  96.4203
 30.5236  9779.52  97.4544
 30.5656  9615.74  97.288
 30.6076  9698.56  97.1061
 30.6496  9670.49  97.4016
 30.6916  9504.71  96.6477
 30.7336  9590.47  97.2183
 30.7756  9406.84  96.5998
 30.8176  9636.53  97.4688
 30.8596  9534.17  96.7012
 30.9016  9622.91  97.523
 30.9436  9585.2  97.0572
 30.9856  9621.75  97.3776
 31.0276  9585.11  96.813
 31.0696  9554.05  97.0961
 31.1116  9427.05  96.5403
 31.1536  9391.47  96.2172
 31.1956  9355.42  96.1408
 31.2376  9221.59  95.4653
 31.2796  9377.82  95.8009
 31.3216  9286.54  95.2842
 31.3636  9434.79  96.7477
 31.4056  9390.02  97.8035
 31.4476  9484.29  96.2118
 31.4896  9556.92  97.0892
 31.5316  9455.38  96.0113
 31.5736  9651.59  96.7857
 31.6156  9488.48  95.9664
 31.6576  9398.13  95.5835
 31.6996  9625.32  96.3983
 31.7416  9440.32  96.5727
 31.7836  9561.77  96.17
 31.8256  9405.03  95.7275
 31.8676  9531.71  96.2781
 31.9096  9373.28  95.8564
 31.9516  9249.13  95.3907
 31.9936  9105.27  94.4603
 32.0356  9401.6  96.0361
 32.0776  9390.93  95.8763
 32.1196  9401.29  96.0416
 32.1616  9448.71  95.7233
 32.2036  9420.7  96.1067
 32.2456  9310.38  95.9178
 32.2876  9197.04  94.6572
 32.3296  9245.27  95.0466
 32.3716  9048.29  94.1238
 32.4136  9137.8  94.7857
 32.4556  9169.28  94.3985
 32.4976  9210.03  94.4584
 32.5396  9057.32  93.7314
 32.5816  9225.2  94.6292
 32.6236  9122.54  94.2676
 32.6656  9255.02  95.4995
 32.7076  9041.12  94.045
 32.7496  9000.07  93.5012
 32.7916  9127.75  94.1234
 32.8336  9108.23  94.1153
 32.8756  9236.65  94.5813
 32.9176  8947.62  93.4896
 32.9596  8946.34  93.5514
 33.0016  8999.46  93.6057
 33.0436  9031.63  93.9378
 33.0856  8991.38  93.8259
 33.1276  8845.79  92.7952
 33.1696  9140.43  94.1552
 33.2116  9073.88  94.0539
 33.2536  9186.37  94.6223
 33.2956  8977.81  93.6306
 33.3376  9006.7  93.4856
 33.3796  9028.82  93.8557
 33.4216  8989.5  93.2411
 33.4636  9042.17  93.6641
 33.5056  8834.72  92.6651
 33.5476  9009.35  93.72
 33.5896  9065.86  93.7814
 33.6316  9037.21  93.9745
 33.6736  8939.39  93.7062
 33.7156  9035.95  94.2434
 33.7576  9033.87  93.8733
 33.7996  8899.42  92.93
 33.8416  8831.29  92.763
 33.8836  8876.37  92.7712
 33.9256  8993.67  93.4447
 33.9676  8928.18  93.0015
 34.0096  8956.06  93.4643
 34.0516  8719.5  91.8458
 34.0936  8764  92.3618
 34.1356  8793.24  92.2558
 34.1776  8754.78  92.0502
 34.2196  8756.5  92.238
 34.2616  8587.28  91.546
 34.3036  8787.12  92.795
 34.3456  8760.44  92.4049
 34.3876  8743.62  92.2898
 34.4296  8664.08  91.553
 34.4716  8807.61  92.4647
 34.5136  8788.6  92.5572
 34.5556  8602.33  91.8249
 34.5976  8722.77  92.2773
 34.6396  8703.77  91.8851
 34.6816  8837.7  92.7032
 34.7236  8759.91  92.051
 34.7656  8761.75  92.2734
 34.8076  8517.84  91.3214
 34.8496  8675.88  92.0098
 34.8916  8642.34  91.6901
 34.9336  8680.68  91.8812
 34.9756  8742.02  92.1271
 35.0176  8650.17  92.1676
 35.0596  8824.22  92.9238
 35.1016  8708.81  92.0531
 35.1436  8911.51  92.806
 35.1856  8596.51  91.2757
 35.2276  8544.73  91.1702
 35.2696  8527.67  91.2719
 35.3116  8563.58  91.5668
 35.3536  8431.76  90.5642
 35.3956  8599.12  91.1705
 35.4376  8635.91  91.9392
 35.4796  8584.34  91.6826
 35.5216  8563.67  91.4795
 35.5636  8467.86  91.7827
 35.6056  8452.54  90.7154
 35.6476  8543.97  91.1091
 35.6896  8554.48  91.3381
 35.7316  8486.21  90.8724
 35.7736  8495.87  91.1036
 35.8156  8613.03  91.7415
 35.8576  8616.34  91.9823
 35.8996  8611.17  91.9478
 35.9416  8621.97  91.5013
 35.9836  8592.63  91.6942
 36.0256  8724.33  92.4078
 36.0676  8780.47  92.2152
 36.1096  8499.36  91.1145
 36.1516  8595.91  91.523
 36.1936  8558.55  91.1448
 36.2356  8451.61  91.2337
 36.2776  8371.13  90.284
 36.3196  8515.76  90.7297
 36.3616  8495.24  90.7441
 36.4036  8523.57  90.9719
 36.4456  8571.26  91.4326
 36.4876  8410.11  90.5085
 36.5296  8315.35  90.0425
 36.5716  8320.14  90.8388
 36.6136  8426.92  90.1899
 36.6556  8299.68  89.7006
 36.6976  8324.84  90.3393
 36.7396  8260.61  89.8128
 36.7816  8174.27  89.6244
 36.8236  8206.95  89.7222
 36.8656  8126.97  89.3604
 36.9076  8155.67  89.5139
 36.9496  8231.88  89.9535
 36.9916  8032.08  88.335
 37.0336  8310.99  90.1693
 37.0756  8143.15  89.0509
 37.1176  7866.32  87.879
 37.1596  8158.83  89.4128
 37.2016  8073.62  89.1199
 37.2436  8212.22  89.2453
 37.2856  8104.7  88.9148
 37.3276  8242.65  89.0181
 37.3696  8078.63  89.0082
 37.4116  8157.72  89.3468
 37.4536  7956.16  88.107
 37.4956  7959.35  88.1655
 37.5376  8272.18  91.4979
 37.5796  8222.82  91.1519
 37.6216  8129.39  88.8947
 37.6636  8267.79  89.5458
 37.7056  8223.6  89.4901
 37.7476  8368.81  89.8114
 37.7896  8148.03  89.1239
 37.8316  8123.73  89.1502
 37.8736  8134.08  88.7198
 37.9156  8163.63  88.8904
 37.9576  8033.58  88.2309
 37.9996  8051.17  87.8989
 38.0416  8112.55  89.0424
 38.0836  8253.32  89.7172
 38.1256  8082.69  88.7564
 38.1676  8022.22  88.5368
 38.2096  8143.62  88.8245
 38.2516  8350.81  90.0764
 38.2936  8222.25  89.2722
 38.3356  8157  88.8365
 38.3776  7970.61  88.0588
 38.4196  8108.24  88.6822
 38.4616  8137.46  89.0913
 38.5036  8272.3  89.6632
 38.5456  7970.97  88.843
 38.5876  8027.03  89.1745
 38.6296  7985.58  87.9197
 38.6716  8137.19  88.5547
 38.7136  8100.23  88.2996
 38.7556  7867.11  87.5266
 38.7976  8008.12  88.2233
 38.8396  8023.42  88.7824
 38.8816  8013.53  88.5201
 38.9236  7988.14  88.1788
 38.9656  8023.23  88.2834
 39.0076  8146.27  88.3449
 39.0496  8243.94  89.4487
 39.0916  8133.43  88.485
 39.1336  8128.46  88.867
 39.1756  8046.17  88.4713
 39.2176  8050.63  89.0438
 39.2596  8135.69  89.4389
 39.3016  8024.29  88.4071
 39.3436  7931.15  88.3081
 39.3856  8122.35  88.7942
 39.4276  8234.36  89.9304
 39.4696  8072.73  88.6551
 39.5116  8107.4  89.3688
 39.5536  8105.61  89.7715
 39.5956  8070.91  88.6778
 39.6376  8034.99  88.3114
 39.6796  8053.73  88.3211
 39.7216  7986.34  88.0528
 39.7636  8061.34  89.031
 39.8056  8038.53  88.6908
 39.8476  7824.2  87.7607
 39.8896  8123.3  89.0503
 39.9316  8013.43  88.6887
 39.9736  8037.92  88.3901
 40.0156  8017.24  88.1118
 40.0576  7979.67  88.2554
 40.0996  8101.11  88.1052
 40.1416  7991.67  88.3056
 40.1836  8072.81  88.6383
 40.2256  8033.12  88.4595
 40.2676  7973.66  88.2334
 40.3096  7964.63  88.1181
 40.3516  8029.38  88.6599
 40.3936  8108.01  88.5687
 40.4356  7998.47  88.177
 40.4776  8135.6  89.3377
 40.5196  8062.84  89.0577
 40.5616  8213.03  89.5307
 40.6036  7894.36  88.0291
 40.6456  8126.57  88.9168
 40.6876  8131.89  88.9327
 40.7296  7953.59  88.0834
 40.7716  8145.51  89.2666
 40.8136  7948.75  88.1267
 40.8556  8195.34  89.6221
 40.8976  8062.58  88.8154
 40.9396  8169.75  89.7536
 40.9816  8088.38  88.5885
 41.0236  8020.3  87.9976
 41.0656  8075.03  88.8374
 41.1076  8007.83  88.2339
 41.1496  8095.05  88.6285
 41.1916  8023.42  88.5463
 41.2336  8051.96  88.7128
 41.2756  7967.39  87.8446
 41.3176  8091.34  89.1443
 41.3596  8172.35  89.3168
 41.4016  8072.59  89.0257
 41.4436  8123.81  89.1033
 41.4856  8017.17  88.6774
 41.5276  7960.18  88.3777
 41.5696  8036.3  88.4169
 41.6116  8080.44  89.0646
 41.6536  8042.15  88.7047
 41.6956  8104.79  89.1193
 41.7376  8023.31  88.6934
 41.7796  7994.45  88.4602
 41.8216  8016.49  88.778
 41.8636  7980.93  88.5182
 41.9056  7970.61  88.2533
 41.9476  7972.19  88.5007
 41.9896  8130.24  89.0313
 42.0316  8084.71  88.8694
 42.0736  8092.52  89.0137
 42.1156  8048.86  88.5995
 42.1576  8032.65  88.6253
 42.1996  8103.19  89.1411
 42.2416  8115.49  88.7928
 42.2836  7932.44  87.9113
 42.3256  8086.13  88.8535
 42.3676  8072.82  88.5916
 42.4096  8036.9  88.3705
 42.4516  8096.78  88.7724
 42.4936  7973.68  88.1609
 42.5356  7808.21  87.3891
 42.5776  7952.19  88.1339
 42.6196  8058.21  88.6784
 42.6616  7782.31  87.4071
 42.7036  8012.71  88.0691
 42.7456  8028.62  88.5218
 42.7876  7892.89  87.8476
 42.8296  8077.09  88.7802
 42.8716  7931.6  88.0735
 42.9136  7903.27  87.7028
 42.9556  7971.71  88.2138
 42.9976  7944.66  88.0335
 43.0396  7939.7  87.7322
 43.0816  7848.18  87.6117
 43.1236  7859.09  87.7233
 43.1656  7950.48  88.0521
 43.2076  7787.73  87.2572
 43.2496  7871.25  87.5446
 43.2916  7838.83  87.7238
 43.3336  7836.87  87.5452
 43.3756  7929.57  87.8161
 43.4176  7846.2  87.4301
 43.4596  7763.52  86.8266
 43.5016  7866.09  87.8049
 43.5436  7866.56  87.7205
 43.5856  7822.24  87.4925
 43.6276  7813.63  87.3361
 43.6696  7735.49  87.0426
 43.7116  7816.75  87.1146
 43.7536  7915.24  88.1552
 43.7956  7796.39  88.7112
 43.8376  7659.21  86.4428
 43.8796  7760.76  87.0974
 43.9216  7667.73  86.493
 43.9636  7635.73  86.4176
 44.0056  7628.13  86.6028
 44.0476  7626.62  86.2272
 44.0896  7740.83  87.22
 44.1316  7720.32  86.7682
 44.1736  7647.77  86.3348
 44.2156  7694.06  86.4513
 44.2576  7594.08  86.2124
 44.2996  7702.3  86.7944
 44.3416  7630.29  86.1472
 44.3836  7423.25  85.2977
 44.4256  7622.64  86.0797
 44.4676  7532.51  85.7268
 44.5096  7583.37  86.1538
 44.5516  7554.96  85.9624
 44.5936  7388.2  84.9615
 44.6356  7578.71  85.7884
 44.6776  7600.52  86.2325
 44.7196  7539.24  86.1455
 44.7616  7631.12  88.0544
 44.8036  7620.85  86.4093
 44.8456  7892.18  88.15
 44.8876  7744.32  87.1594
 44.9296  7827.3  87.0711
 44.9716  7747.37  87.0613
 45.0136  7635.18  86.3546
 45.0556  7811.4  87.3338
 45.0976  7711.93  86.9348
 45.1396  7663.05  86.3919
 45.1816  7692.9  86.3421
 45.2236  7741.31  86.6925
 45.2656  7536.12  86.0327
 45.3076  7703.81  86.7654
 45.3496  7599.72  86.485
 45.3916  7719.65  87.4423
 45.4336  7719.14  87.2827
 45.4756  7572.79  86.2788
 45.5176  7765.14  87.0064
 45.5596  7871.24  87.7147
 45.6016  7598.09  86.6023
 45.6436  7644.72  86.0407
 45.6856  7571.6  86.2855
 45.7276  7624.15  88.4351
 45.7696  7561.68  87.2307
 45.8116  7592.23  86.8378
 45.8536  7490.79  86.1462
 45.8956  7666.89  86.4999
 45.9376  7662.21  85.9328
 45.9796  7676.07  86.7232
 46.0216  7720.16  87.2978
 46.0636  7714.61  86.4019
 46.1056  7830.61  87.0338
 46.1476  7582.09  86.2424
 46.1896  7613.54  86.5712
 46.2316  7637.46  86.5726
 46.2736  7569.54  86.5681
 46.3156  7611.98  86.3897
 46.3576  7657.29  86.8456
 46.3996  7538.69  86.3305
 46.4416  7733.6  87.0066
 46.4836  7506.32  86.0813
 46.5256  7693.67  87.082
 46.5676  7594.94  86.6368
 46.6096  7576.2  86.4656
 46.6516  7620.43  85.7431
 46.6936  7551.48  85.8627
 46.7356  7698.73  86.7973
 46.7776  7547.48  86.7869
 46.8196  7540.64  86.3358
 46.8616  7342.93  85.1458
 46.9036  7440.27  85.3632
 46.9456  7494.53  85.3096
 46.9876  7573.94  85.8424
 47.0296  7453.86  85.8578
 47.0716  7466.99  85.7557
 47.1136  7528.77  85.7879
 47.1556  7503.63  85.508
 47.1976  7576.58  86.0057
 47.2396  7390.45  85.3372
 47.2816  7477.76  85.5381
 47.3236  7442.32  85.7076
 47.3656  7502.45  85.9871
 47.4076  7444.94  85.444
 47.4496  7483.18  85.7678
 47.4916  7498.14  86.05
 47.5336  7634.74  86.641
 47.5756  7556.01  86.2651
 47.6176  7483.17  85.7857
 47.6596  7452.98  85.3221
 47.7016  7563.49  85.7794
 47.7436  7567.91  86.1389
 47.7856  7502.22  85.7965
 47.8276  7506.72  85.8667
 47.8696  7582.71  86.3905
 47.9116  7539.82  85.8567
 47.9536  7554.06  85.869
 47.9956  7526.24  86.4428
 48.0376  7360.34  85.2568
 48.0796  7491.61  86.1391
 48.1216  7458.95  85.7694
 48.1636  7614.74  86.2272
 48.2056  7505.79  85.876
 48.2476  7516.93  86.2568
 48.2896  7551.83  86.3608
 48.3316  7500.53  86.0004
 48.3736  7441.54  85.6915
 48.4156  7419.5  85.4124
 48.4576  7494.08  86.1402
 48.4996  7538.35  85.838
 48.5416  7523.28  86.0881
 48.5836  7447.13  85.3168
 48.6256  7452.85  85.5669
 48.6676  7497.67  86.3496
 48.7096  7502.77  85.6228
 48.7516  7480.72  85.6439
 48.7936  7380.08  85.1369
 48.8356  7464.19  85.6736
 48.8776  7315.86  85.3192
 48.9196  7556.82  86.1486
 48.9616  7428.74  85.8049
 49.0036  7511.56  86.6405
 49.0456  7379.44  85.8444
 49.0876  7430.88  85.775
 49.1296  7367.5  85.4802
 49.1716  7339.15  85.1728
 49.2136  7456.51  85.7843
 49.2556  7407.49  85.5364
 49.2976  7345.38  85.2355
 49.3396  7317.28  85.1361
 49.3816  7473.07  85.4483
 49.4236  7517.86  86.1429
 49.4656  7253.56  84.6303
 49.5076  7433.2  85.4172
 49.5496  7430.56  85.3382
 49.5916  7434.75  85.4074
 49.6336  7340.18  85.0766
 49.6756  7435.2  85.8596
 49.7176  7382.16  85.4903
 49.7596  7454.92  85.8579
 49.8016  7568.72  86.2432
 49.8436  7317.86  85.1039
 49.8856  7381.7  85.4724
 49.9276  7348.99  85.3893
 49.9696  7306.33  85.1265
 50.0116  7417.25  85.8963
 50.0536  7437.64  85.9708
 50.0956  7318.41  85.3452
 50.1376  7360.73  85.2731
 50.1796  7301.56  85.2171
 50.2216  7396.96  85.7627
 50.2636  7374.5  85.2464
 50.3056  7290.28  84.9337
 50.3476  7351.09  85.3116
 50.3896  7352.94  85.2965
 50.4316  7366.33  85.1966
 50.4736  7275.48  84.9
 50.5156  7338.16  85.2388
 50.5576  7359.23  85.1288
 50.5996  7352.7  85.3816
 50.6416  7373.85  85.4244
 50.6836  7351.03  85.3581
 50.7256  7362.62  85.3498
 50.7676  7414.69  85.9519
 50.8096  7385.31  85.3232
 50.8516  7271.02  85.0835
 50.8936  7189.93  84.3932
 50.9356  7237.57  84.7839
 50.9776  7264.92  85.1003
 51.0196  7135.52  84.4633
 51.0616  7149.76  83.8579
 51.1036  7205.08  84.5469
 51.1456  7237.04  84.6451
 51.1876  7262.38  84.1083
 51.2296  7153.3  84.112
 51.2716  6965.83  82.7211
 51.3136  7080.45  83.8685
 51.3556  7161.84  83.9587
 51.3976  7092.32  83.6943
 51.4396  7086.18  83.9885
 51.4816  7116.54  84.019
 51.5236  7108.97  84.0589
 51.5656  7095.68  83.5691
 51.6076  7150.25  83.9796
 51.6496  7013.46  83.3621
 51.6916  6988.48  83.5829
 51.7336  7026.81  83.8984
 51.7756  7110.54  84.0778
 51.8176  7021.62  83.6575
 51.8596  7042.84  83.8137
 51.9016  7207.72  84.381
 51.9436  7152.12  85.5847
 51.9856  7120.61  85.8159
 52.0276  7264.77  85.1218
 52.0696  7078.98  84.1116
 52.1116  7031.89  83.942
 52.1536  7222.09  84.956
 52.1956  7150.78  83.9871
 52.2376  7223.73  84.5904
 52.2796  7227.3  84.4258
 52.3216  7088.35  84.3079
 52.3636  7193.29  84.4763
 52.4056  7025.18  83.3611
 52.4476  7032.64  83.762
 52.4896  6979.3  83.4954
 52.5316  7161.05  84.633
 52.5736  7002.42  83.3936
 52.6156  7144.86  84.6528
 52.6576  7166.91  84.1983
 52.6996  6944.91  83.891
 52.7416  6989.68  84.0125
 52.7836  7006.06  84.0042
 52.8256  7166.2  84.1467
 52.8676  6974.27  83.5963
 52.9096  7119.13  84.5187
 52.9516  6950.61  83.917
 52.9936  6983.12  84.4984
 53.0356  7049.61  83.8754
 53.0776  7059.87  84.2556
 53.1196  7036.42  84.2141
 53.1616  7042.83  84.3057
 53.2036  7012.55  84.0801
 53.2456  7052.71  84.4289
 53.2876  7038.81  84.0233
 53.3296  7002.64  84.1352
 53.3716  7184.82  84.976
 53.4136  7099.51  84.6269
 53.4556  6996.86  84.0409
 53.4976  7029.62  84.0577
 53.5396  6938.03  83.9297
 53.5816  6941.51  83.582
 53.6236  6844.09  83.3468
 53.6656  6996.02  83.8705
 53.7076  7067.8  84.2469
 53.7496  7045.51  84.2434
 53.7916  7050.7  84.4107
 53.8336  7080.35  84.4844
 53.8756  6819.26  83.471
 53.9176  6953.26  83.6091
 53.9596  6728.75  83.0096
 54.0016  6693.99  82.1232
 54.0436  6618.93  81.8879
 54.0856  6880.88  82.8977
 54.1276  6725.82  82.1559
 54.1696  6805.25  82.8117
 54.2116  6923.3  83.2706
 54.2536  6755.59  82.0593
 54.2956  6776.83  82.239
 54.3376  6682.48  82.1647
 54.3796  6685.77  82.0824
 54.4216  6723.2  82.3697
 54.4636  6709.4  82.2483
 54.5056  6769.67  82.3969
 54.5476  6612.17  81.8044
 54.5896  6753.94  82.5028
 54.6316  6762.79  82.3841
 54.6736  6813.49  82.7463
 54.7156  6646.51  81.799
 54.7576  6577.76  81.3502
 54.7996  6731.89  82.4487
 54.8416  6659.4  82.0648
 54.8836  6728.86  82.581
 54.9256  6625.89  81.7218
 54.9676  6476.8  80.6513
 55.0096  6662.05  81.8232
 55.0516  6460.02  80.765
 55.0936  6625.12  81.4979
 55.1356  6542.09  81.0239
 55.1776  6708.04  82.3032
 55.2196  6676.69  81.8698
 55.2616  6765.69  82.6605
 55.3036  6614.25  81.9046
 55.3456  6530.91  81.5177
 55.3876  6584.01  81.5749
 55.4296  6501.84  81.0791
 55.4716  6541.33  81.3344
 55.5136  6500.51  80.8494
 55.5556  6727.3  82.3062
 55.5976  6585.79  81.5044
 55.6396  6628.89  81.7235
 55.6816  6558.62  81.1651
 55.7236  6533.81  81.157
 55.7656  6545.25  80.8533
 55.8076  6460.07  80.319
 55.8496  6450.1  80.5926
 55.8916  6561.21  81.4451
 55.9336  6639.32  81.795
 55.9756  6392.23  80.1298
 56.0176  6463.56  80.721
 56.0596  6442.3  80.5947
 56.1016  6419.42  80.5011
 56.1436  6363.26  80.3629
 56.1856  6304  79.7479
 56.2276  6631.1  81.8448
 56.2696  6429.26  80.5609
 56.3116  6546.35  81.669
 56.3536  6416.32  80.5135
 56.3956  6415.93  80.4917
 56.4376  6478.55  80.9204
 56.4796  6366.27  80.0368
 56.5216  6396.18  80.621
 56.5636  6375.88  80.0553
 56.6056  6621.47  81.8278
 56.6476  6407.34  80.0933
 56.6896  6595.82  81.73
 56.7316  6434.44  80.639
 56.7736  6434.98  80.6627
 56.8156  6399.57  80.4344
 56.8576  6172.67  78.9408
 56.8996  6281.97  79.5433
 56.9416  6299.68  79.8274
 56.9836  6428.69  80.3138
 57.0256  6257.62  79.5552
 57.0676  6460.33  80.9511
 57.1096  6397.22  80.3363
 57.1516  6291.88  79.6836
 57.1936  6372.24  79.9816
 57.2356  6318.18  79.9784
 57.2776  6396.68  80.4407
 57.3196  6374.63  80.6301
 57.3616  6319.43  79.7661
 57.4036  6342.26  79.9641
 57.4456  6464.73  80.7491
 57.4876  6417.32  80.3091
 57.5296  6288.54  79.7197
 57.5716  6271.68  79.7242
 57.6136  6140.21  78.716
 57.6556  6345.98  80.1323
 57.6976  6311.99  79.7769
 57.7396  6255.36  79.7563
 57.7816  6215.64  79.8771
 57.8236  6220.42  79.7045
 57.8656  6314.46  79.9631
 57.9076  6287.78  79.8224
 57.9496  6217.29  79.7254
 57.9916  6259.6  79.4566
 58.0336  6194.56  79.3753
 58.0756  6395.49  80.2673
 58.1176  6302.53  79.6585
 58.1596  6200.49  79.629
 58.2016  6132.93  78.4194
 58.2436  6131.62  78.8074
 58.2856  6039.87  78.1342
 58.3276  5972.86  78.0649
 58.3696  6064.41  78.4216
 58.4116  6074.26  78.3464
 58.4536  6104.98  78.4321
 58.4956  6030.35  78.1291
 58.5376  6158.29  78.514
 58.5796  5955.83  77.6363
 58.6216  5882.29  76.974
 58.6636  6172.8  79.0629
 58.7056  6047.29  78.1196
 58.7476  6025.67  78.4228
 58.7896  5928.6  77.432
 58.8316  6044.68  78.1893
 58.8736  6030.7  78.1084
 58.9156  6019.17  78.0786
 58.9576  6073.92  78.6423
 58.9996  6023.13  77.6734
 59.0416  6032.83  78.0976
 59.0836  5979.91  77.6702
 59.1256  5986.13  78.1048
 59.1676  5968.03  78.6014
 59.2096  6134.62  78.9853
 59.2516  5947.49  77.3556
 59.2936  6089.78  78.6049
 59.3356  5997.21  77.8834
 59.3776  6037.27  78.312
 59.4196  5933.06  77.5691
 59.4616  6058.96  78.2482
 59.5036  5893.4  77.2069
 59.5456  6065.4  78.018
 59.5876  6160.58  78.8207
 59.6296  5885.6  77.1098
 59.6716  5950.94  77.5942
 59.7136  5890.5  77.1875
 59.7556  6009.77  78.1012
 59.7976  5952.43  77.4718
 59.8396  5894.07  76.9866
 59.8816  5986.81  78.1331
 59.9236  5962.48  77.62
 59.9656  5899.79  77.4685
 60.0076  6006.23  77.5234
 60.0496  5959.83  77.7233
 60.0916  6076.34  77.8962
 60.1336  5908.67  77.909
 60.1756  6027.6  79.8721
 60.1996  0.0000000E+00  0.0000000E+00