File: docs/examples/opeando_xrd/IS17_D/Data/IS17_D/17_Db_f00011.xye
# /beamlines/bl04/projects/cycle2025-II/20250340211-lsimonelli/DATA/IS17_D/17_Db_f00011.xye : mythproc.py merge -s 0.006 -l 0.5 -f /beamlines/bl04/inhouse/ff/FlatField/ff_20Nov2024rod8mm60s_17keV.raw -b True -c true -o xye /beamlines/bl04/projects/cycle2025-II/20250340211-lsimonelli/DATA/IS17_D/17_Db_00011.dat
# IsMon = [6762962, 6758160, 6759253]  IsPos = [-1.5000, -2.4885, -3.4986]
# Wave = 0.4962  CalPath /beamlines/bl04/projects/cycle2025-II/20250340211-lsimonelli/DATA/Align/Si_Pos1_25keV_f00001.cal
# Date = 2025-09-23_20:44:56 Dt = 4.8000  Bin = 0.0060  <imon> = 6760125 +/- 2055 (Min/Max) 6758160 / 6762962
# icurr 251.3542  mocoIn 1.7150E-05  mocoOut 0.8048  i15 7.07924e+06  imon 6.76012e+06  i7 4.0000  iEMpd_timer 4.8000  iEMpd_1 3.4903E-08  iEMpd_2 7.8011E-08  iEMpd_3 1.7141E-08  iEMpd_4 4.6995E-08  iEMhp_timer 4.8000  iEMhp_1 4.9120E-06  iEMhp_2 -2.3294E-08  iEMhp_3 -2.3031E-08  iEMhp_4 -2.1757E-08
#      9776
 1.5856  41799.5  209.893
 1.6276  48279.9  221.706
 1.6696  54096.7  233.855
 1.7116  62334.7  251.521
 1.7536  70066.1  265.527
 1.7956  73891  273.36
 1.8376  71260.7  268.876
 1.8796  60471.7  245.873
 1.9216  49784.7  223.973
 1.9636  43067.7  207.987
 2.0056  39020.7  196.709
 2.0476  35855.3  190.629
 2.0896  34944.9  187.09
 2.1316  33694  182.828
 2.1736  31850.2  179.165
 2.2156  32728.3  180.16
 2.2576  31309.1  176.841
 2.2996  30185.3  174.277
 2.3416  30735.4  174.452
 2.3836  30338.9  173.432
 2.4256  29349.1  171.136
 2.4676  29397.4  171.033
 2.5096  29527.6  171.468
 2.5516  37352.5  197.307
 2.5936  148623  385.701
 2.6356  33071.2  182.706
 2.6776  27495.7  165.494
 2.7196  26559.7  163.142
 2.7616  26252.1  161.986
 2.8036  25603.3  160.131
 2.8456  25313.7  159.848
 2.8876  24902.9  158.382
 2.9296  24494  157.225
 2.9716  24336.3  156.223
 3.0136  24012.4  155.251
 3.0556  24204.2  156.252
 3.0976  23971  154.414
 3.1396  23615.2  153.987
 3.1816  23479.8  153.484
 3.2236  23170  152.464
 3.2656  23157  151.501
 3.3076  22989.6  152.362
 3.3496  23288.9  152.547
 3.3916  23483.8  152.771
 3.4336  23849.8  154.527
 3.4756  24329.3  156.006
 3.5176  24902.4  157.61
 3.5596  24530.6  159.379
 3.6016  24893.2  157.66
 3.6436  24044.1  156.03
 3.6856  23966.9  154.113
 3.7276  22806.8  151.394
 3.7696  22747.1  151.167
 3.8116  22248.8  149.604
 3.8536  22339.2  149.836
 3.8956  22274.7  149.442
 3.9376  22959.6  152.031
 3.9796  22264  149.178
 4.0216  22237.3  148.153
 4.0636  22066.5  149.01
 4.1056  22024.8  148.536
 4.1476  22501.5  150.417
 4.1896  22435.4  150.071
 4.2316  22703.6  150.788
 4.2736  23098.1  151.902
 4.3156  23168.7  152.362
 4.3576  24014.1  155.022
 4.3996  24043.5  155.198
 4.4416  24938.4  157.843
 4.4836  26282.4  162.209
 4.5256  26174.4  162.458
 4.5676  25700.3  161.243
 4.6096  26120.1  161.593
 4.6516  26663.7  162.602
 4.6936  26850.4  163.993
 4.7356  27813  166.729
 4.7776  26837.2  163.615
 4.8196  26655.6  163.683
 4.8616  25927  161.071
 4.9036  25915.9  160.635
 4.9456  26115.4  161.905
 4.9876  25340.2  159.386
 5.0296  25409.8  159.451
 5.0716  24929.4  158.534
 5.1136  25247.7  159.407
 5.1556  25573.8  159.908
 5.1976  35279.2  187.778
 5.2396  26419.4  162.211
 5.2816  26164.1  161.874
 5.3236  25887.5  160.731
 5.3656  25424.5  160.198
 5.4076  25093.7  159.286
 5.4496  25089.8  158.792
 5.4916  25304.5  159.222
 5.5336  25224.1  158.987
 5.5756  25182.5  158.845
 5.6176  25239.6  158.5
 5.6596  25564  160.323
 5.7016  25482.7  159.503
 5.7436  25760.3  160.641
 5.7856  25415.8  159.626
 5.8276  25706.8  160.266
 5.8696  25947.5  161.056
 5.9116  25872.9  161.507
 5.9536  26369  162.807
 5.9956  26375.2  162.247
 6.0376  26322.6  162.686
 6.0796  26813  164.023
 6.1216  26562.3  163.455
 6.1636  27093.2  164.156
 6.2056  26669.3  163.53
 6.2476  27256.7  164.995
 6.2896  27385.3  165.259
 6.3316  27270  165.068
 6.3736  27206.1  164.789
 6.4156  27301.6  165.014
 6.4576  27874.7  166.316
 6.4996  27534.5  165.77
 6.5416  27585  166.032
 6.5836  28170  168.031
 6.6256  27888.1  166.747
 6.6676  28438  167.964
 6.7096  28398.3  168.674
 6.7516  28698.6  169.242
 6.7936  30377.2  173.262
 6.8356  30499.9  173.973
 6.8776  29795.9  172.748
 6.9196  29407.8  172.004
 6.9616  29792.9  172.552
 7.0036  30169.8  173.33
 7.0456  30356.8  173.18
 7.0876  30263.8  174.467
 7.1296  29966.2  172.864
 7.1716  29966.1  172.404
 7.2136  29713.9  171.465
 7.2556  30014.5  172.488
 7.2976  30130.3  173.305
 7.3396  29841.8  172.689
 7.3816  30202.8  173.94
 7.4236  30296.2  173.524
 7.4656  30474.1  173.501
 7.5076  30856.4  174.73
 7.5496  30370  173.878
 7.5916  30736.1  174.967
 7.6336  31341.3  176.572
 7.6756  31084.4  175.695
 7.7176  31624.9  177.528
 7.7596  31556.7  178.545
 7.8016  37812.2  197.819
 7.8436  31939.7  178.558
 7.8856  32047.3  178.482
 7.9276  32521.5  180.178
 7.9696  32565.4  180.598
 8.0116  33577.7  182.327
 8.0536  34395.1  184.418
 8.0956  36432.7  190.993
 8.1376  34474.8  185.277
 8.1796  34588.8  186.108
 8.2216  35689.2  187.805
 8.2636  36312.4  189.687
 8.3056  35670.6  188.756
 8.3476  37851.7  193.767
 8.3896  36376.3  190.467
 8.4316  35894.7  188.933
 8.4736  35707.8  187.92
 8.5156  35630  187.989
 8.5576  35560.9  188.755
 8.5996  35265.6  186.875
 8.6416  35308.5  188.222
 8.6836  34869.7  186.88
 8.7256  35782.3  188.77
 8.7676  38577.1  198.973
 8.8096  38675.9  196.442
 8.8516  36910  191.519
 8.8936  37841.3  193.829
 8.9356  35724  188.643
 8.9776  35790.4  188.909
 9.0196  35643.3  188.187
 9.0616  35839.4  188.219
 9.1036  37554.5  193.861
 9.1456  34951.8  186.373
 9.1876  34728.6  185.711
 9.2296  34113.7  183.522
 9.2716  33735.2  182.524
 9.3136  33958.3  183.128
 9.3556  34169.5  183.674
 9.3976  33064.1  181.171
 9.4396  33287.2  181.695
 9.4816  33038.6  180.861
 9.5236  32693.8  179.828
 9.5656  32485.6  179.604
 9.6076  31679.9  177.884
 9.6496  32107.1  178.955
 9.6916  31592.3  177.466
 9.7336  31974.9  178.342
 9.7756  31831.9  179.144
 9.8176  31615.8  178.081
 9.8596  31489.5  176.203
 9.9016  31099.1  175.101
 9.9436  31072.4  174.783
 9.9856  31343.7  175.977
 10.0276  30095  173.485
 10.0696  30483.8  173.651
 10.1116  30036.6  172.638
 10.1536  29941.4  172.013
 10.1956  29170.8  169.912
 10.2376  28968.3  168.824
 10.2796  29209.4  169.644
 10.3216  28472  167.629
 10.3636  28627.9  168.255
 10.4056  32166.7  178.782
 10.4476  32641.2  179.665
 10.4896  37059.5  190.834
 10.5316  33887.1  182.847
 10.5736  28734.9  169.16
 10.6156  28605.6  168.531
 10.6576  34136.6  182.56
 10.6996  28384.6  167.169
 10.7416  27541.8  164.88
 10.7836  28035.4  167.034
 10.8256  26094.1  161.563
 10.8676  26189.2  161.407
 10.9096  26160.7  161.348
 10.9516  25873.3  159.418
 10.9936  26861.4  162.648
 11.0356  26384.1  161.792
 11.0776  28084.1  166.256
 11.1196  27713  165.935
 11.1616  25795.7  159.77
 11.2036  27332.5  164.302
 11.2456  28766.7  169.306
 11.2876  25604  159.439
 11.3296  25456.2  158.902
 11.3716  25452.2  158.623
 11.4136  25124.8  158.423
 11.4556  25142.4  158.149
 11.4976  27289.4  163.735
 11.5396  27111.2  163.377
 11.5816  25424  158.621
 11.6236  24432.2  155.952
 11.6656  24778.8  155.996
 11.7076  23733.2  153.488
 11.7496  24056  158.445
 11.7916  24836.3  156.28
 11.8336  23457.3  152.771
 11.8756  24146.8  154.521
 11.9176  23495.6  152.352
 11.9596  23457.9  152.143
 12.0016  23280  152.327
 12.0436  23286.1  151.802
 12.0856  22929.6  151.131
 12.1276  22909.1  151.014
 12.1696  23093.8  150.758
 12.2116  23453.8  151.937
 12.2536  25794.1  160.141
 12.2956  23352.6  151.762
 12.3376  23486.5  152.39
 12.3796  22992.7  151.257
 12.4216  23101.6  150.822
 12.4636  24261.8  155.512
 12.5056  22903.6  150.377
 12.5476  22891.2  149.857
 12.5896  22501.8  149.216
 12.6316  22650.2  149.831
 12.6736  22405.7  149.369
 12.7156  22826.8  150.748
 12.7576  22734.5  150.696
 12.7996  22879.7  149.841
 12.8416  23067.2  151.495
 12.8836  24008.8  154.366
 12.9256  23349.3  151.301
 12.9676  23116.9  150.932
 13.0096  23284.3  152.569
 13.0516  23241.4  151.486
 13.0936  23108.4  151.176
 13.1356  23503  151.713
 13.1776  23413.5  152.432
 13.2196  23158.3  151.232
 13.2616  22848.9  150.548
 13.3036  23280.4  152.08
 13.3456  22939.2  150.938
 13.3876  23513.1  152.303
 13.4296  23137.3  151.256
 13.4716  23472.1  151.97
 13.5136  23306.7  151.573
 13.5556  23360.8  152.363
 13.5976  23253.1  152.173
 13.6396  23599.4  152.675
 13.6816  23681.1  153.265
 13.7236  23998.3  153.992
 13.7656  25895.9  160.41
 13.8076  27079  162.694
 13.8496  25136.4  157.607
 13.8916  23832.9  154.4
 13.9336  22893.3  150.619
 13.9756  23030.3  150.457
 14.0176  22740.2  150.178
 14.0596  23654.4  153.075
 14.1016  22734.1  150.498
 14.1436  22663.9  149.404
 14.1856  22148.4  147.991
 14.2276  22561.7  149.822
 14.2696  22448.4  149.316
 14.3116  21671.1  146.629
 14.3536  21405.8  145.877
 14.3956  21311  145.294
 14.4376  21417  145.442
 14.4796  21229.3  144.801
 14.5216  21042.2  144.934
 14.5636  21546.4  146.232
 14.6056  21104.9  144.29
 14.6476  20785.2  142.462
 14.6896  20530.8  142.117
 14.7316  20169.5  141.866
 14.7736  19963.1  140.308
 14.8156  19962  140.325
 14.8576  19855.3  139.812
 14.8996  19821.2  140.865
 14.9416  19422.6  139.452
 14.9836  19152.6  138.466
 15.0256  18756.7  135.988
 15.0676  18548.4  135.53
 15.1096  18294.8  134.351
 15.1516  18181.9  134.471
 15.1936  18059.7  133.466
 15.2356  18204  134.27
 15.2776  18065  133.36
 15.3196  17755.4  133.172
 15.3616  17606.6  132.378
 15.4036  17558.2  132.067
 15.4456  18023.3  133.236
 15.4876  17460.6  131.053
 15.5296  17341.4  130.883
 15.5716  16937.7  128.965
 15.6136  17038.2  129.665
 15.6556  19013.6  136.201
 15.6976  17554.9  130.948
 15.7396  17283  130.521
 15.7816  17096.1  129.337
 15.8236  16677.7  128.417
 15.8656  16602  127.927
 15.9076  16868.7  128.779
 15.9496  17747.1  134.867
 15.9916  16814  131.682
 16.0336  17014  129.363
 16.0756  16878.9  129.178
 16.1176  16334.2  127.005
 16.1596  16100.2  127.386
 16.2016  16100.7  126.19
 16.2436  15984.4  126.09
 16.2856  16352.9  127.061
 16.3276  15808.2  125.353
 16.3696  16024.7  126.042
 16.4116  15753.5  125.4
 16.4536  16057.5  126.416
 16.4956  16662.7  128.504
 16.5376  16217.9  126.972
 16.5796  15794.4  124.678
 16.6216  15776.4  124.865
 16.6636  15523.1  124.053
 16.7056  15682.5  124.539
 16.7476  15563.6  123.759
 16.7896  15621.2  124.565
 16.8316  15577.5  124.37
 16.8736  16186  127.026
 16.9156  16023.2  126.716
 16.9576  15377.2  124.916
 16.9996  15447  125.647
 17.0416  15377.3  123.81
 17.0836  15547.9  124.254
 17.1256  15397.3  123.659
 17.1676  15819.3  125.305
 17.2096  15606.7  124.352
 17.2516  15644.5  124.581
 17.2936  15050.5  122.252
 17.3356  14765.7  121.066
 17.3776  14653  120.788
 17.4196  14701.8  120.713
 17.4616  15057.7  122.065
 17.5036  15197.4  123.005
 17.5456  14546.8  120.946
 17.5876  14473.4  119.717
 17.6296  14663.3  120.312
 17.6716  14630.8  120.769
 17.7136  15435  124.161
 17.7556  14533.8  120.784
 17.7976  14383.8  119.766
 17.8396  14582.9  120.231
 17.8816  14167.4  119.068
 17.9236  14111.9  118.621
 17.9656  14169.3  119.545
 18.0076  14778.7  121.506
 18.0496  15636  124.099
 18.0916  20813.6  143.804
 18.1336  18116.6  134.298
 18.1756  15741.8  124.718
 18.2176  16135.2  126.489
 18.2596  14199.4  118.394
 18.3016  14874.6  121.44
 18.3436  15545.9  124.395
 18.3856  14601.3  120.442
 18.4276  14115.1  118.124
 18.4696  14204.5  118.58
 18.5116  14289.3  119.188
 18.5536  13841.8  117.689
 18.5956  14054.4  118.142
 18.6376  14154.2  118.971
 18.6796  13903.7  117.238
 18.7216  14151.2  118.816
 18.7636  13640.8  116.589
 18.8056  13409  115.531
 18.8476  13182.7  114.869
 18.8896  13220.4  114.683
 18.9316  13576.5  116.036
 18.9736  13554.5  115.792
 19.0156  13782.1  117.179
 19.0576  14002.7  116.969
 19.0996  13582.1  115.903
 19.1416  13699.7  116.789
 19.1836  13295.9  114.678
 19.2256  13075.3  113.935
 19.2676  13230.5  114.698
 19.3096  13092.7  114.337
 19.3516  13404.4  115.461
 19.3936  13362.6  115.435
 19.4356  13437.5  115.562
 19.4776  13310.5  115.11
 19.5196  13286  114.857
 19.5616  13222.2  114.832
 19.6036  13207.5  114.152
 19.6456  13460.3  115.481
 19.6876  13772.9  116.467
 19.7296  13429.1  115.439
 19.7716  13259.6  114.744
 19.8136  13619.4  116.623
 19.8556  13852.6  117.111
 19.8976  14063.9  118.056
 19.9396  13841.2  116.712
 19.9816  14047.8  117.834
 20.0236  14407.8  119.514
 20.0656  13536.8  115.86
 20.1076  13306.1  115.318
 20.1496  13158.5  114.675
 20.1916  13254.2  114.585
 20.2336  13187.6  114.248
 20.2756  12776.3  112.881
 20.3176  12784  112.678
 20.3596  12772.6  112.621
 20.4016  12952.8  113.208
 20.4436  12724.5  112.762
 20.4856  12834.7  113.028
 20.5276  12674.3  112.778
 20.5696  12564.1  111.847
 20.6116  12710.1  112.67
 20.6536  12489.6  111.274
 20.6956  12637.1  111.995
 20.7376  12454.8  111.394
 20.7796  12402.5  110.863
 20.8216  12674.4  111.788
 20.8636  13081.7  113.94
 20.9056  14225  118.757
 20.9476  13051.9  113.594
 20.9896  13755.7  116.486
 21.0316  12816.9  112.341
 21.0736  12954.3  113.457
 21.1156  13216  114.762
 21.1576  12934.9  113.567
 21.1996  12532.1  111.766
 21.2416  12547.6  111.659
 21.2836  12581.2  111.794
 21.3256  12518.5  111.585
 21.3676  12671.8  111.813
 21.4096  12712.5  112.362
 21.4516  12499.3  111.235
 21.4936  12187.7  110.1
 21.5356  12465  111.289
 21.5776  12496.6  111.271
 21.6196  12523.4  111.433
 21.6616  12533  111.554
 21.7036  12235.9  109.998
 21.7456  12108.3  109.5
 21.7876  11969.1  108.641
 21.8296  12012.6  108.685
 21.8716  12056.3  109.105
 21.9136  12327.2  110.522
 21.9556  12330.5  110.221
 21.9976  12191.3  109.619
 22.0396  12135  109.62
 22.0816  12002.1  109.537
 22.1236  12542.3  111.436
 22.1656  12057.2  109.452
 22.2076  11887.2  108.102
 22.2496  11738.7  107.459
 22.2916  11946.7  108.287
 22.3336  12071.3  109.544
 22.3756  11820.5  108.15
 22.4176  11919.7  108.462
 22.4596  11497.8  107.087
 22.5016  11780.2  107.909
 22.5436  11933.1  108.489
 22.5856  12133.7  109.639
 22.6276  12288  110.463
 22.6696  11865.3  108.896
 22.7116  11719.6  107.754
 22.7536  11782.8  108.018
 22.7956  12007.1  108.384
 22.8376  11600.2  107.04
 22.8796  11762.9  107.595
 22.9216  11824.5  108.403
 22.9636  11691.3  106.974
 23.0056  11794.6  107.575
 23.0476  11920.1  108.705
 23.0896  12101.3  108.916
 23.1316  12054.1  109.131
 23.1736  11969.5  111.609
 23.2156  12156.6  109.825
 23.2576  12358.8  110.927
 23.2996  11971.5  108.967
 23.3416  12260.9  110.789
 23.3836  12096.4  109.279
 23.4256  12398.8  110.766
 23.4676  12272.2  109.905
 23.5096  12287.8  110.62
 23.5516  12002  108.641
 23.5936  12138.5  110.158
 23.6356  12423.8  111.107
 23.6776  12003.5  109.733
 23.7196  12036.5  109.358
 23.7616  12002.5  108.926
 23.8036  12216.4  109.936
 23.8456  11840.8  107.81
 23.8876  11983.7  108.792
 23.9296  11858.6  108.708
 23.9716  11950.8  108.35
 24.0136  12137.1  110.085
 24.0556  11877.6  108.621
 24.0976  11740.1  107.813
 24.1396  11628.4  109.864
 24.1816  11872.3  109.776
 24.2236  11710.7  108.33
 24.2656  11878.5  108.578
 24.3076  11810.3  108.539
 24.3496  11922.8  108.939
 24.3916  12020.2  109.425
 24.4336  11653.8  107.938
 24.4756  11616.6  107.662
 24.5176  11487.3  106.69
 24.5596  11544.7  107.275
 24.6016  11458.1  106.97
 24.6436  11575  107.019
 24.6856  11463.9  106.264
 24.7276  11483.5  106.68
 24.7696  11327.3  106.044
 24.8116  11422.8  106.679
 24.8536  11371.5  106.437
 24.8956  11319  105.925
 24.9376  11355.5  106.27
 24.9796  11069.9  105.041
 25.0216  11240.4  105.957
 25.0636  11281.1  105.809
 25.1056  11058.3  105.188
 25.1476  10794.9  105.78
 25.1896  10883.6  104.759
 25.2316  10960.8  104.299
 25.2736  10984.9  104.18
 25.3156  10798.9  103.365
 25.3576  10803  103.814
 25.3996  10827.8  103.92
 25.4416  10728.7  103.422
 25.4836  10650.8  103.548
 25.5256  10702.5  103.18
 25.5676  10703.4  102.918
 25.6096  10635.5  103.15
 25.6516  10656.2  102.769
 25.6936  10702.8  103.298
 25.7356  10556.9  102.726
 25.7776  10645.9  102.839
 25.8196  10672.4  103.133
 25.8616  10577.8  102.607
 25.9036  10979.4  103.988
 25.9456  10501.9  102.291
 25.9876  10715.3  103.233
 26.0296  10687.4  102.861
 26.0716  10759.6  103.536
 26.1136  10785.4  103.596
 26.1556  10852  103.208
 26.1976  10547.6  102.761
 26.2396  10530.4  102.094
 26.2816  10565.3  102.611
 26.3236  10538.7  102.561
 26.3656  10745.3  103.35
 26.4076  10459  102.171
 26.4496  10564.2  102.287
 26.4916  10818.3  103.41
 26.5336  11105.3  105.106
 26.5756  11093.4  104.929
 26.6176  10752.7  103.333
 26.6596  10611.5  102.964
 26.7016  10354.8  101.516
 26.7436  10383.4  101.734
 26.7856  10266  101.157
 26.8276  10178.2  100.68
 26.8696  10185.1  100.588
 26.9116  10250.5  100.851
 26.9536  10184.5  100.578
 26.9956  10075.9  100.077
 27.0376  10139.7  100.6
 27.0796  10073.7  100.052
 27.1216  10373.8  101.542
 27.1636  9977.26  99.7548
 27.2056  10085.8  100.178
 27.2476  9987.65  99.6844
 27.2896  9900.96  99.2987
 27.3316  9936.24  99.265
 27.3736  9866.05  99.1804
 27.4156  10088  100.12
 27.4576  10072.3  100.267
 27.4996  10113.7  100.076
 27.5416  9978.71  99.7166
 27.5836  9883.52  99.0823
 27.6256  9973.57  99.7139
 27.6676  9947.96  99.5814
 27.7096  10084.1  100.126
 27.7516  10676.5  103.187
 27.7936  10728.6  103.564
 27.8356  10561  102.383
 27.8776  10374.3  101.528
 27.9196  10220.3  100.64
 27.9616  10223.2  100.847
 28.0036  9942.37  99.4178
 28.0456  9718.99  98.4343
 28.0876  9766.54  98.7451
 28.1296  9805.49  98.7843
 28.1716  9838.15  98.9657
 28.2136  9871.69  99.1067
 28.2556  9780.76  98.7457
 28.2976  9663.41  98.1589
 28.3396  9774.37  98.5253
 28.3816  9770.81  98.462
 28.4236  9851.61  99.0302
 28.4656  9614.58  97.8693
 28.5076  9441.36  96.6358
 28.5496  9598.28  97.6883
 28.5916  9606.85  97.5447
 28.6336  9601  97.8536
 28.6756  9580.46  96.9636
 28.7176  9501.83  97.1069
 28.7596  9331.51  96.1239
 28.8016  9338.45  96.2812
 28.8436  9427.87  96.8934
 28.8856  9482.1  97.0308
 28.9276  9658.18  98.1705
 28.9696  9355.42  96.2831
 29.0116  9287.03  96.0943
 29.0536  9247.08  96.098
 29.0956  9421.86  96.7193
 29.1376  9486.82  97.0187
 29.1796  9404.01  96.6429
 29.2216  9309.54  96.003
 29.2636  9565.5  97.2964
 29.3056  9235.58  95.4739
 29.3476  9279.57  96.2162
 29.3896  9368.5  96.7985
 29.4316  9213.65  95.35
 29.4736  9084.72  94.7379
 29.5156  9239.59  95.4673
 29.5576  9059.51  95.2529
 29.5996  9114.31  94.8193
 29.6416  9105.94  94.8924
 29.6836  9119.04  94.8878
 29.7256  9075.77  95.2118
 29.7676  9069.07  94.8474
 29.8096  9016.6  94.5173
 29.8516  8918.27  94.3238
 29.8936  9104.33  95.3929
 29.9356  9037.47  94.8035
 29.9776  9064.67  95.0922
 30.0196  9095.68  94.6622
 30.0616  9223.32  95.6914
 30.1036  9070.29  94.7238
 30.1456  8897.91  94.0669
 30.1876  9021.15  94.6717
 30.2296  8893.56  93.9489
 30.2716  8898.93  93.6285
 30.3136  8892.96  94.1665
 30.3556  9193.46  95.999
 30.3976  9142.33  97.2033
 30.4396  9410.46  95.9856
 30.4816  9248.28  94.7687
 30.5236  9321.67  95.1204
 30.5656  9219.21  95.265
 30.6076  9096.08  94.3964
 30.6496  9054.66  94.2439
 30.6916  8882.68  93.4308
 30.7336  9128.28  94.864
 30.7756  8943.81  94.192
 30.8176  9128.97  94.8756
 30.8596  9269.55  95.3276
 30.9016  9071.44  94.1934
 30.9436  9148.99  94.8164
 30.9856  9203.09  95.2153
 31.0276  9195.03  94.8172
 31.0696  9135.12  94.9181
 31.1116  8904.6  93.8178
 31.1536  9044.52  94.4466
 31.1956  9187.86  95.2677
 31.2376  8733.52  92.9079
 31.2796  9028.83  94.0073
 31.3216  8987.64  93.7152
 31.3636  9021.09  94.5845
 31.4056  8878.27  95.1179
 31.4476  9048.35  93.9642
 31.4896  8942.97  93.8992
 31.5316  9283.51  95.1195
 31.5736  9771.19  97.3734
 31.6156  9573.71  96.3886
 31.6576  9454.99  95.8656
 31.6996  9201.07  94.242
 31.7416  9300.95  95.6954
 31.7836  9090.41  93.7604
 31.8256  9012.75  93.7027
 31.8676  9098.61  94.062
 31.9096  8800.96  92.7322
 31.9516  9046.76  94.3225
 31.9936  8879.13  93.2784
 32.0356  8951.92  93.7021
 32.0776  9049.01  94.0996
 32.1196  9098.37  94.3718
 32.1616  9000.48  93.408
 32.2036  8845.67  93.1014
 32.2456  9068.84  94.6524
 32.2876  8847.93  92.8365
 32.3296  8838.33  92.9082
 32.3716  8636.04  91.9594
 32.4136  8801.85  93.039
 32.4556  8927.76  93.1474
 32.4976  8827.23  92.51
 32.5396  8600.89  91.3314
 32.5816  8720.76  92.0029
 32.6236  8838.33  92.7723
 32.6656  8828.55  93.2715
 32.7076  8538.53  91.3908
 32.7496  8548.64  91.1306
 32.7916  8722.29  92.0104
 32.8336  8604.39  91.4737
 32.8756  8735.33  91.9759
 32.9176  8712.55  92.2483
 32.9596  8768.57  92.6164
 33.0016  8649.19  91.7529
 33.0436  8666.89  92.0352
 33.0856  8544.31  91.4695
 33.1276  8517.53  91.0578
 33.1696  8716.38  91.9457
 33.2116  8628.3  91.7149
 33.2536  8747.9  92.3148
 33.2956  8560.64  91.432
 33.3376  8405.78  90.4002
 33.3796  8642.81  91.8245
 33.4216  8600.01  91.1953
 33.4636  8639.92  91.5488
 33.5056  8461.19  90.695
 33.5476  8504.48  91.0437
 33.5896  8521.1  90.9216
 33.6316  8549.92  91.3871
 33.6736  8286.54  90.2225
 33.7156  8379.7  90.7612
 33.7576  8495.72  91.036
 33.7996  8483.16  90.7375
 33.8416  8402.79  90.4854
 33.8836  8391.96  90.2129
 33.9256  8566.39  91.1838
 33.9676  8503.33  90.7569
 34.0096  8342.14  90.1913
 34.0516  8388.5  90.094
 34.0936  8197.64  89.3276
 34.1356  8397.37  90.1512
 34.1776  8263.54  89.434
 34.2196  8177.32  89.1341
 34.2616  8192.39  89.4202
 34.3036  8400.56  90.7173
 34.3456  8338.34  90.1394
 34.3876  8385.08  90.4597
 34.4296  8205.02  89.1019
 34.4716  8379.37  90.1873
 34.5136  8357.18  90.2545
 34.5556  8178.43  89.5418
 34.5976  8395.36  90.5542
 34.6396  8275.31  89.5931
 34.6816  8415.47  90.4509
 34.7236  8343.68  89.8463
 34.7656  8380.38  90.2533
 34.8076  8219.65  89.7096
 34.8496  8245.12  89.7066
 34.8916  8266.37  89.6756
 34.9336  8340.21  90.0665
 34.9756  8467.99  90.6883
 35.0176  8231.01  89.9073
 35.0596  8320.94  90.2165
 35.1016  8264.9  89.6869
 35.1436  8551.71  90.913
 35.1856  8242.45  89.3683
 35.2276  8358.03  90.177
 35.2696  8195.86  89.4738
 35.3116  8228.09  89.7624
 35.3536  8303.49  89.8979
 35.3956  8222.25  89.1504
 35.4376  8337.39  90.3241
 35.4796  8389.69  90.6524
 35.5216  8253.01  89.8023
 35.5636  7939.59  88.88
 35.6056  8208.57  89.4074
 35.6476  8070.01  88.5424
 35.6896  8209.73  89.4619
 35.7316  8177.98  89.2026
 35.7736  8075.16  88.8267
 35.8156  8230.78  89.673
 35.8576  8202.58  89.7732
 35.8996  8188.81  89.6545
 35.9416  8112.23  88.7513
 35.9836  8098.64  89.1335
 36.0256  8274.8  89.9967
 36.0676  8283.09  89.5678
 36.1096  8129.31  89.1091
 36.1516  8227.41  89.529
 36.1936  8161.77  89.0161
 36.2356  8233.91  90.0575
 36.2776  8192.97  89.3047
 36.3196  8156.5  88.7956
 36.3616  8145.24  88.8519
 36.4036  8085.36  88.6005
 36.4456  8103.91  88.9037
 36.4876  7988.69  88.2187
 36.5296  8097.18  88.846
 36.5716  8062.79  89.4204
 36.6136  8207.41  89.027
 36.6556  8193.18  89.1471
 36.6976  8121.36  89.2488
 36.7396  8063.23  88.7537
 36.7816  7908.76  88.1762
 36.8236  7923.34  88.1833
 36.8656  7962.42  88.4621
 36.9076  7881.09  88.0213
 36.9496  7737.4  87.2277
 36.9916  7846.82  87.3263
 37.0336  7910.55  87.9942
 37.0756  7855.63  87.4838
 37.1176  7675.91  86.8275
 37.1596  7733.8  87.0692
 37.2016  7752.3  87.3467
 37.2436  7867.37  87.3704
 37.2856  7711.84  86.7526
 37.3276  7803.67  86.6344
 37.3696  7736.92  87.1217
 37.4116  7765.32  87.1932
 37.4536  7704.11  86.7157
 37.4956  7526.08  85.7575
 37.5376  8008.04  90.0213
 37.5796  7823.23  88.9057
 37.6216  7839.87  87.2888
 37.6636  7971.66  87.9045
 37.7056  7862.54  87.4924
 37.7476  7909.39  87.2897
 37.7896  7785.01  87.1162
 37.8316  7731.09  86.9485
 37.8736  7738.49  86.5421
 37.9156  7715.01  86.4054
 37.9576  7596.5  85.795
 37.9996  7757.8  86.2767
 38.0416  7671.41  86.5833
 38.0836  8012.2  88.3834
 38.1256  7862.03  87.5286
 38.1676  7717.74  86.8415
 38.2096  7935.45  87.6685
 38.2516  7935.58  87.7946
 38.2936  7870.94  87.3275
 38.3356  7832.42  87.0527
 38.3776  7838.54  87.3211
 38.4196  7757.35  86.7398
 38.4616  7828.94  87.3755
 38.5036  7885.41  87.5365
 38.5456  7634.59  86.9424
 38.5876  7682.33  87.2453
 38.6296  7760.68  86.6738
 38.6716  7799.16  86.6892
 38.7136  7763.58  86.4367
 38.7556  7772.69  86.9889
 38.7976  7750.94  86.7903
 38.8396  7786.93  87.4509
 38.8816  7654.24  86.5012
 38.9236  7726.22  86.7119
 38.9656  7638.08  86.1121
 39.0076  7832.82  86.6231
 39.0496  7716.64  86.5192
 39.0916  7794.42  86.6088
 39.1336  7705.22  86.5159
 39.1756  7745.19  86.7992
 39.2176  7689.11  87.0108
 39.2596  7699.31  86.9973
 39.3016  7740.15  86.8157
 39.3436  7612.44  86.4992
 39.3856  7827.9  87.1559
 39.4276  7898.39  88.0494
 39.4696  7664.66  86.3761
 39.5116  7806.43  87.6763
 39.5536  7742.22  87.734
 39.5956  7722.7  86.7407
 39.6376  7722.12  86.5777
 39.6796  7641.81  86.042
 39.7216  7649.72  86.1826
 39.7636  7705.36  87.0397
 39.8056  7700  86.7997
 39.8476  7637.53  86.7047
 39.8896  7739.42  86.9084
 39.9316  7653.02  86.6737
 39.9736  7648.6  86.2333
 40.0156  7687  86.2813
 40.0576  7655.76  86.4448
 40.0996  7836.62  86.6591
 40.1416  7664.19  86.4802
 40.1836  7760.94  86.9073
 40.2256  7738.06  86.8137
 40.2676  7538.12  85.8597
 40.3096  7704  86.6651
 40.3516  7716.1  86.9197
 40.3936  7694.02  86.2721
 40.4356  7644.61  86.2079
 40.4776  7866.51  87.67
 40.5196  7746.07  87.2954
 40.5616  7812.4  87.3097
 40.6036  7622.57  86.5019
 40.6456  7735.31  86.7357
 40.6876  7812.4  87.1755
 40.7296  7715.63  86.763
 40.7716  7793.8  87.3224
 40.8136  7555.77  85.9262
 40.8556  7754.48  87.1686
 40.8976  7801.15  87.3656
 40.9396  7668.14  86.9503
 40.9816  7769.18  86.8222
 41.0236  7790.45  86.7277
 41.0656  7807.28  87.3535
 41.1076  7749.6  86.8142
 41.1496  7662.01  86.2238
 41.1916  7683.72  86.6616
 41.2336  7735.27  86.941
 41.2756  7756.97  86.6793
 41.3176  7725.43  87.0954
 41.3596  7799.92  87.2625
 41.4016  7666.04  86.7623
 41.4436  7729.86  86.916
 41.4856  7724.13  87.0448
 41.5276  7686.45  86.849
 41.5696  7730.76  86.7151
 41.6116  7597.17  86.3559
 41.6536  7724.49  86.9382
 41.6956  7826.2  87.4949
 41.7376  7672.42  86.7317
 41.7796  7538.42  85.9031
 41.8216  7733.21  87.1805
 41.8636  7639.06  86.6083
 41.9056  7613.8  86.2549
 41.9476  7698.33  86.9604
 41.9896  7815.43  87.2857
 42.0316  7797.48  87.2745
 42.0736  7754.68  87.1698
 42.1156  7661.01  86.4458
 42.1576  7644.08  86.4608
 42.1996  7736.84  87.1084
 42.2416  7665.67  86.3024
 42.2836  7650.14  86.3277
 42.3256  7650.22  86.4402
 42.3676  7780.86  86.9713
 42.4096  7673.75  86.3479
 42.4516  7742.9  86.8047
 42.4936  7570.42  85.9085
 42.5356  7607.98  86.2663
 42.5776  7657.31  86.4821
 42.6196  7683.51  86.5992
 42.6616  7533.41  85.9983
 42.7036  7701.87  86.3452
 42.7456  7717.08  86.7739
 42.7876  7581.55  86.0861
 42.8296  7660.2  86.4474
 42.8716  7579.05  86.0939
 42.9136  7480.23  85.2888
 42.9556  7569.59  85.9595
 42.9976  7666.22  86.4805
 43.0396  7626.05  85.9817
 43.0816  7602.35  86.2281
 43.1236  7547.96  85.9626
 43.1656  7606.76  86.1329
 43.2076  7527.88  85.7872
 43.2496  7524.06  85.5912
 43.2916  7493.07  85.7679
 43.3336  7669.99  86.6079
 43.3756  7522.96  85.535
 43.4176  7379.97  84.8005
 43.4596  7560.52  85.692
 43.5016  7553.09  86.043
 43.5436  7472.5  85.4924
 43.5856  7441.72  85.3389
 43.6276  7469.12  85.3866
 43.6696  7495.06  85.6798
 43.7116  7443.28  84.9977
 43.7536  7526.18  85.9626
 43.7956  7309.74  85.9037
 43.8376  7308.18  84.4617
 43.8796  7353.69  84.8021
 43.9216  7424.47  85.1259
 43.9636  7386  85.01
 44.0056  7386.49  85.2442
 44.0476  7283.8  84.2859
 44.0896  7371.72  85.1279
 44.1316  7234.53  84.0092
 44.1736  7295.73  84.3404
 44.2156  7301.12  84.2409
 44.2576  7306.37  84.5806
 44.2996  7413.76  85.1771
 44.3416  7350.94  84.5814
 44.3836  7192.39  83.9846
 44.4256  7246.37  83.9457
 44.4676  7158.14  83.5877
 44.5096  7250.86  84.2701
 44.5516  7261.83  84.2955
 44.5936  7098.65  83.2999
 44.6356  7284.99  84.1281
 44.6776  7298.25  84.516
 44.7196  7268.94  84.6075
 44.7616  7336.83  86.3469
 44.8036  7388.82  85.2805
 44.8456  7455.86  85.6689
 44.8876  7413.25  85.2738
 44.9296  7376.37  84.5189
 44.9716  7434.86  85.2725
 45.0136  7340.18  84.666
 45.0556  7358.71  84.8625
 45.0976  7297.69  84.5647
 45.1396  7277.12  84.1969
 45.1816  7294.83  84.0769
 45.2236  7529.49  85.4915
 45.2656  7284.15  84.5853
 45.3076  7407.58  85.0663
 45.3496  7274.98  84.615
 45.3916  7301.53  85.0305
 45.4336  7485.37  85.9286
 45.4756  7243.11  84.3984
 45.5176  7417.34  85.0195
 45.5596  7429.47  85.213
 45.6016  7249.79  84.5893
 45.6436  7420.27  84.7598
 45.6856  7255.73  84.4673
 45.7276  7282.48  86.4275
 45.7696  7206.6  85.1549
 45.8116  7238.66  84.7831
 45.8536  7310.43  85.0984
 45.8956  7337.87  84.6124
 45.9376  7279.19  83.7414
 45.9796  7454.96  85.4466
 46.0216  7350.5  85.1652
 46.0636  7315.93  84.1303
 46.1056  7434.17  84.7954
 46.1476  7451.81  85.4894
 46.1896  7492.42  85.8666
 46.2316  7357.5  84.9604
 46.2736  7323.92  84.9731
 46.3156  7252.58  84.3097
 46.3576  7318.94  84.8932
 46.3996  7235.06  84.5605
 46.4416  7337.91  84.72
 46.4836  7328.01  85.0474
 46.5256  7495.34  85.9479
 46.5676  7277.93  84.8064
 46.6096  7392.39  85.4009
 46.6516  7280.04  83.8016
 46.6936  7275.48  84.2676
 46.7356  7369.88  84.9003
 46.7776  7224.29  84.9153
 46.8196  7195.1  84.4797
 46.8616  7109.28  83.783
 46.9036  7103.44  83.4108
 46.9456  7226.37  83.7693
 46.9876  7168.3  83.5076
 47.0296  7155.98  84.1323
 47.0716  7144.87  83.8866
 47.1136  7142.83  83.5458
 47.1556  7205.02  83.7871
 47.1976  7206.17  83.9444
 47.2396  7204.01  84.2505
 47.2816  7142.7  83.6037
 47.3236  7185.17  84.22
 47.3656  7163.76  84.0277
 47.4076  7206.22  84.0023
 47.4496  7141.54  83.7926
 47.4916  7158.56  84.0788
 47.5336  7191.2  84.0897
 47.5756  7146.14  83.8952
 47.6176  7136.26  83.7872
 47.6596  7129.64  83.4606
 47.7016  7359.23  84.5915
 47.7436  7192.95  83.9839
 47.7856  7298.82  84.6188
 47.8276  7095.71  83.4868
 47.8696  7133.67  83.7963
 47.9116  7273.86  84.326
 47.9536  7121.39  83.3752
 47.9956  7170.14  84.3719
 48.0376  7057.98  83.4871
 48.0796  7219.93  84.562
 48.1216  7136.09  83.8992
 48.1636  7294.19  84.3843
 48.2056  7208.66  84.1546
 48.2476  7331.92  85.1797
 48.2896  7210.02  84.368
 48.3316  7186.7  84.1871
 48.3736  7254.4  84.6083
 48.4156  7145.76  83.8249
 48.4576  7224  84.5752
 48.4996  7235.59  84.1035
 48.5416  7304.01  84.813
 48.5836  7154.27  83.6277
 48.6256  7196.06  84.0688
 48.6676  7174.56  84.4644
 48.7096  7179.94  83.7696
 48.7516  7217.64  84.1276
 48.7936  7030.01  83.0985
 48.8356  7194.65  84.1136
 48.8776  7287.07  85.1458
 48.9196  7301.1  84.6651
 48.9616  7167.29  84.2681
 49.0036  7209.43  84.863
 49.0456  7129.16  84.3771
 49.0876  7176.52  84.2981
 49.1296  7116.68  84.0127
 49.1716  7048.4  83.4748
 49.2136  7223.72  84.4235
 49.2556  7196.78  84.3035
 49.2976  7211.83  84.4576
 49.3396  7133.31  84.0543
 49.3816  7185.63  83.7902
 49.4236  7128.38  83.8862
 49.4656  7053.77  83.4666
 49.5076  7069  83.3022
 49.5496  7086.75  83.3513
 49.5916  7182.59  83.9437
 49.6336  7144.44  83.9244
 49.6756  7168.56  84.3012
 49.7176  7126.34  83.9978
 49.7596  7193.18  84.3328
 49.8016  7177.68  83.9869
 49.8436  7076.73  83.6968
 49.8856  7089.34  83.767
 49.9276  6988.35  83.2727
 49.9696  7199.36  84.5012
 50.0116  7142.99  84.3094
 50.0536  7149.43  84.2851
 50.0956  6909.57  82.931
 50.1376  7104.81  83.7818
 50.1796  6986.22  83.357
 50.2216  6950.21  83.1313
 50.2636  7023.29  83.1844
 50.3056  6994.36  83.1962
 50.3476  7136.84  84.0612
 50.3896  7007.69  83.2594
 50.4316  7075.62  83.5021
 50.4736  6996.92  83.2557
 50.5156  7042.28  83.5207
 50.5576  7000.37  83.0309
 50.5996  7029.07  83.4783
 50.6416  6948.1  82.9202
 50.6836  7118.73  83.9926
 50.7256  7046.59  83.4848
 50.7676  7152.73  84.3965
 50.8096  7037.67  83.2897
 50.8516  7019.34  83.6061
 50.8936  7040.82  83.5113
 50.9356  7034.93  83.5825
 50.9776  7037.62  83.7655
 51.0196  6838.57  82.7061
 51.0616  6915.46  82.4905
 51.1036  6944.27  83.0195
 51.1456  6840.41  82.3111
 51.1876  6892.74  81.9503
 51.2296  6829.81  82.2163
 51.2716  6872.54  82.177
 51.3136  6798.27  82.1988
 51.3556  6851.86  82.1356
 51.3976  6867.41  82.3812
 51.4396  6688.41  81.6133
 51.4816  6663.91  81.3186
 51.5236  6790.51  82.1715
 51.5656  6784.85  81.7381
 51.6076  6785.95  81.8278
 51.6496  6735.84  81.7128
 51.6916  6788.46  82.3946
 51.7336  6809.48  82.6099
 51.7756  6814.89  82.3405
 51.8176  6744.85  82.0128
 51.8596  6784.5  82.2788
 51.9016  6875.89  82.4357
 51.9436  6848.1  83.7495
 51.9856  6856.21  84.2032
 52.0276  6877.63  82.8306
 52.0696  6842.81  82.678
 52.1116  6819.56  82.672
 52.1536  6768.16  82.1835
 52.1956  6853.7  82.2242
 52.2376  7099.92  83.8445
 52.2796  6975.09  82.9337
 52.3216  6781.03  82.4449
 52.3636  6865.74  82.533
 52.4056  6796.39  81.9804
 52.4476  6828.74  82.5361
 52.4896  6712.55  81.8893
 52.5316  6848.61  82.7614
 52.5736  6673.79  81.4236
 52.6156  6915.68  83.2792
 52.6576  6773.28  81.8507
 52.6996  6572.97  81.6084
 52.7416  6746.03  82.5334
 52.7836  6830.85  82.9403
 52.8256  6829.6  82.1365
 52.8676  6570.7  81.1317
 52.9096  6742.46  82.2602
 52.9516  6761.3  82.7754
 52.9936  6806.33  83.426
 53.0356  6839.17  82.6015
 53.0776  6904.62  83.3044
 53.1196  6860.36  83.144
 53.1616  6748.46  82.5087
 53.2036  6736.42  82.397
 53.2456  6832.47  83.0891
 53.2876  6802.48  82.5894
 53.3296  6808.02  82.9402
 53.3716  6757.31  82.3906
 53.4136  6806.7  82.8401
 53.4556  6800.47  82.8439
 53.4976  6702.88  82.0866
 53.5396  6779.98  82.9579
 53.5816  6786.48  82.6323
 53.6236  6719.48  82.574
 53.6656  6801  82.6699
 53.7076  6771.25  82.4407
 53.7496  6763.73  82.5337
 53.7916  6788.28  82.8158
 53.8336  6783.49  82.6724
 53.8756  6628.11  82.2701
 53.9176  6570.58  81.2743
 53.9596  6474.17  81.4194
 54.0016  6458.77  80.6689
 54.0436  6331.79  80.0909
 54.0856  6550.73  80.8838
 54.1276  6405.33  80.175
 54.1696  6589.46  81.4873
 54.2116  6638.25  81.5314
 54.2536  6501.61  80.507
 54.2956  6369.33  79.7408
 54.3376  6487.69  80.952
 54.3796  6394.34  80.2758
 54.4216  6456.58  80.7217
 54.4636  6459.21  80.7018
 54.5056  6403.59  80.1482
 54.5476  6451.04  80.7911
 54.5896  6334.98  79.8945
 54.6316  6475.27  80.621
 54.6736  6533.61  81.0382
 54.7156  6462.14  80.6501
 54.7576  6387.9  80.1622
 54.7996  6503.2  81.0564
 54.8416  6309.48  79.8853
 54.8836  6453.76  80.8657
 54.9256  6285.91  79.5745
 54.9676  6280.6  79.4251
 55.0096  6332.48  79.7707
 55.0516  6322.12  79.8955
 55.0936  6316.64  79.59
 55.1356  6300.69  79.5245
 55.1776  6451.54  80.7065
 55.2196  6271.13  79.3656
 55.2616  6487.21  80.9363
 55.3036  6296.5  79.9149
 55.3456  6222.06  79.5829
 55.3876  6351.46  80.1362
 55.4296  6177.3  79.0195
 55.4716  6329.1  79.9984
 55.5136  6289.03  79.532
 55.5556  6408.35  80.3217
 55.5976  6257.96  79.4656
 55.6396  6275.47  79.4142
 55.6816  6356.82  79.8941
 55.7236  6342.46  79.9602
 55.7656  6345.66  79.6009
 55.8076  6218.3  78.8132
 55.8496  6390.72  80.32
 55.8916  6246  79.457
 55.9336  6368.43  80.0959
 55.9756  6274.51  79.3682
 56.0176  6253.89  79.3985
 56.0596  6165.07  78.8358
 56.1016  6145.12  78.7683
 56.1436  6263.77  79.7098
 56.1856  6083.95  78.3422
 56.2276  6365.7  80.1787
 56.2696  6202.6  79.1241
 56.3116  6362.89  80.5142
 56.3536  6284.04  79.6637
 56.3956  6169.23  78.9337
 56.4376  6194.09  79.1395
 56.4796  6106.34  78.401
 56.5216  6235.79  79.5944
 56.5636  6161.4  78.7033
 56.6056  6365.96  80.208
 56.6476  6231.63  78.9806
 56.6896  6336.32  80.1218
 56.7316  6197.52  79.1411
 56.7736  6155.79  78.8624
 56.8156  6147.51  78.8544
 56.8576  5999.65  77.8402
 56.8996  6111.07  78.4539
 56.9416  6071.37  78.3776
 56.9836  6235.26  79.0798
 57.0256  6004.42  77.9109
 57.0676  6204.81  79.3149
 57.1096  6007.32  77.8476
 57.1516  6040.69  78.0838
 57.1936  6130.85  78.4267
 57.2356  6024.17  78.0794
 57.2776  6166.94  78.9654
 57.3196  6055.99  78.6029
 57.3616  6020.68  77.8645
 57.4036  6180.52  78.9772
 57.4456  6154.07  78.7646
 57.4876  6079.21  78.1605
 57.5296  6048.52  78.1807
 57.5716  6158.9  79.0092
 57.6136  5962.68  77.5747
 57.6556  6051.41  78.229
 57.6976  6058.59  78.1589
 57.7396  6011.74  78.1752
 57.7816  5960.88  78.2093
 57.8236  5988.67  78.1997
 57.8656  6045.82  78.2453
 57.9076  6014.36  78.0582
 57.9496  5948.54  77.9785
 57.9916  6061.38  78.1809
 58.0336  5961.95  77.8657
 58.0756  6053.28  78.0484
 58.1176  6011.82  77.8125
 58.1596  6004.64  78.3601
 58.2016  5959.11  77.3173
 58.2436  5804.53  76.69
 58.2856  5719.49  76.051
 58.3276  5674.82  76.1137
 58.3696  5767.68  76.4943
 58.4116  5774.18  76.4027
 58.4536  5816.19  76.5694
 58.4956  5784.99  76.5399
 58.5376  5786.18  76.1274
 58.5796  5755.94  76.3415
 58.6216  5790.39  76.3925
 58.6636  5876.64  77.1623
 58.7056  5798.24  76.5111
 58.7476  5660.85  76.0291
 58.7896  5807.77  76.6614
 58.8316  5768.9  76.3985
 58.8736  5812.69  76.6996
 58.9156  5797.23  76.6383
 58.9576  5817.83  76.9836
 58.9996  5690.8  75.5184
 59.0416  5797.31  76.5709
 59.0836  5800.14  76.506
 59.1256  5749.27  76.5593
 59.1676  5686.11  76.7425
 59.2096  5699.59  76.1544
 59.2516  5783.86  76.3053
 59.2936  5732.54  76.2857
 59.3356  5642.75  75.5677
 59.3776  5739.48  76.3774
 59.4196  5724.73  76.2167
 59.4616  5678.48  75.7726
 59.5036  5705.95  75.9901
 59.5456  5749.99  75.9835
 59.5876  5787.3  76.4167
 59.6296  5627.63  75.4219
 59.6716  5661.78  75.7065
 59.7136  5749.46  76.2791
 59.7556  5723.53  76.2398
 59.7976  5742.57  76.115
 59.8396  5628.92  75.256
 59.8816  5684.21  76.1541
 59.9236  5941.06  77.5019
 59.9656  5646.07  75.8055
 60.0076  5690.86  75.4816
 60.0496  5733.94  76.2543
 60.0916  5839.45  76.3839
 60.1336  5792.26  77.1592
 60.1756  5578.51  76.8604
 60.1996  0.0000000E+00  0.0000000E+00