File: docs/examples/opeando_xrd/IS17_D/Data/IS17_D/17_Db_f00114.xye
# /beamlines/bl04/projects/cycle2025-II/20250340211-lsimonelli/DATA/IS17_D/17_Db_f00114.xye : mythproc.py merge -s 0.006 -l 0.5 -f /beamlines/bl04/inhouse/ff/FlatField/ff_20Nov2024rod8mm60s_17keV.raw -b True -c true -o xye /beamlines/bl04/projects/cycle2025-II/20250340211-lsimonelli/DATA/IS17_D/17_Db_00114.dat
# IsMon = [6757909, 6757251, 6761023]  IsPos = [-1.4999, -2.4884, -3.4988]
# Wave = 0.4962  CalPath /beamlines/bl04/projects/cycle2025-II/20250340211-lsimonelli/DATA/Align/Si_Pos1_25keV_f00001.cal
# Date = 2025-09-25_01:28:42 Dt = 4.8000  Bin = 0.0060  <imon> = 6758728 +/- 1645 (Min/Max) 6757251 / 6761023
# icurr 250.5578  mocoIn 1.7093E-05  mocoOut 0.8018  i15 7.08564e+06  imon 6.75873e+06  i7 4.0000  iEMpd_timer 4.8000  iEMpd_1 3.5480E-08  iEMpd_2 8.0300E-08  iEMpd_3 1.7347E-08  iEMpd_4 4.8255E-08  iEMhp_timer 4.8000  iEMhp_1 4.8953E-06  iEMhp_2 -2.4502E-08  iEMhp_3 -2.3176E-08  iEMhp_4 -2.0473E-08
#      9776
 1.5856  44839.3  217.45
 1.6276  51564  229.185
 1.6696  57355.7  240.861
 1.7116  64732.5  256.382
 1.7536  72356.2  269.905
 1.7956  76233.8  277.734
 1.8376  73093.7  272.386
 1.8796  63116.6  251.256
 1.9216  52254.3  229.523
 1.9636  45103.2  212.366
 2.0056  41763.7  203.561
 2.0476  38616.9  197.888
 2.0896  37197.5  193.078
 2.1316  36403.9  190.089
 2.1736  34519.8  186.573
 2.2156  35626.9  188.02
 2.2576  34043.4  184.455
 2.2996  32498.7  180.881
 2.3416  33632.5  182.542
 2.3836  32550.5  179.691
 2.4256  31757.3  178.067
 2.4676  31394.5  176.795
 2.5096  31261.4  176.478
 2.5516  29834.9  176.345
 2.5936  29858.8  172.897
 2.6356  29271.2  171.918
 2.6776  29510.1  171.474
 2.7196  28814.4  169.94
 2.7616  28980  170.211
 2.8036  28305.2  168.39
 2.8456  28372.2  169.249
 2.8876  27714.5  167.133
 2.9296  27337.3  166.116
 2.9716  27258.2  165.354
 3.0136  26821.2  164.099
 3.0556  26923.7  164.81
 3.0976  26686.5  162.954
 3.1396  26173.3  162.121
 3.1816  26081  161.782
 3.2236  26056  161.705
 3.2656  25746.3  159.758
 3.3076  25636.9  160.928
 3.3496  25510.6  159.415
 3.3916  25961.5  160.649
 3.4336  26325.4  162.37
 3.4756  26625.4  163.229
 3.5176  27309.1  165.062
 3.5596  26960.1  166.515
 3.6016  27112.5  164.539
 3.6436  26052.3  162.409
 3.6856  25869.6  160.114
 3.7276  24840  157.996
 3.7696  24687.6  157.694
 3.8116  24414.8  156.718
 3.8536  24469.4  156.821
 3.8956  24347.7  156.245
 3.9376  24022  155.474
 3.9796  24202  155.537
 4.0216  24097.8  154.221
 4.0636  24035.7  155.519
 4.1056  23987.5  155.011
 4.1476  24423.6  156.727
 4.1896  24432.8  156.606
 4.2316  24568.8  156.865
 4.2736  25027.6  158.122
 4.3156  24845.9  157.777
 4.3576  25978.4  161.242
 4.3996  25984.3  161.545
 4.4416  26569.7  162.921
 4.4836  27009  164.435
 4.5256  27584.9  166.79
 4.5676  27272.5  166.1
 4.6096  28064.9  167.121
 4.6516  28262.3  167.413
 4.6936  28246.8  168.196
 4.7356  28689.8  169.333
 4.7776  28253.1  167.869
 4.8196  28421.8  169.032
 4.8616  27604.2  166.07
 4.9036  27430.1  165.265
 4.9456  27335.5  165.646
 4.9876  26619.8  163.358
 5.0296  26974.8  164.287
 5.0716  26810.9  164.544
 5.1136  27087.1  165.111
 5.1556  27294.5  165.189
 5.1976  27977.7  167.238
 5.2396  27743.8  166.224
 5.2816  27803.9  166.888
 5.3236  27918.8  166.92
 5.3656  27401.5  166.31
 5.4076  27173.4  165.754
 5.4496  26912  164.452
 5.4916  27261  165.266
 5.5336  27204.7  165.103
 5.5756  27114  164.843
 5.6176  27233.5  164.642
 5.6596  27533.5  166.544
 5.7016  27502.9  165.703
 5.7436  27684.9  166.533
 5.7856  27571.2  166.258
 5.8276  27773.8  166.578
 5.8696  27983.2  167.381
 5.9116  27944.6  167.874
 5.9536  28435.4  169.078
 5.9956  28447.1  168.499
 6.0376  28366.1  168.875
 6.0796  28820.1  170.052
 6.1216  28715.3  169.95
 6.1636  28856.8  169.405
 6.2056  28680.5  169.577
 6.2476  29101.9  170.689
 6.2896  29429.8  171.322
 6.3316  29267.6  171.022
 6.3736  29495  171.579
 6.4156  29524.4  171.54
 6.4576  29550.5  171.245
 6.4996  29703.6  172.162
 6.5416  29738.4  172.398
 6.5836  29679.9  172.471
 6.6256  29771.5  172.292
 6.6676  30388.6  173.625
 6.7096  30457.2  174.699
 6.7516  30716.2  175.086
 6.7936  30987.8  175.253
 6.8356  31167.4  175.862
 6.8776  30996  176.183
 6.9196  31374  177.663
 6.9616  31960.8  178.758
 7.0036  32178.4  179.007
 7.0456  32203.1  178.371
 7.0876  32051.8  179.651
 7.1296  32279.1  179.408
 7.1716  32253.4  178.865
 7.2136  31724  177.166
 7.2556  32128.2  178.457
 7.2976  32271.2  179.352
 7.3396  32016.4  178.873
 7.3816  31893.4  178.742
 7.4236  32102.8  178.618
 7.4656  32490  179.141
 7.5076  32704.5  179.895
 7.5496  32553.8  180.015
 7.5916  32661.1  180.364
 7.6336  32952.1  181.049
 7.6756  33340.9  181.958
 7.7176  33745.5  183.399
 7.7596  33167.3  183.045
 7.8016  34079.2  187.805
 7.8436  33699.8  183.389
 7.8856  33815.3  183.312
 7.9276  34527.5  185.622
 7.9696  34677.3  186.34
 8.0116  35695.8  187.594
 8.0536  35438.9  187.168
 8.0956  35654.5  188.928
 8.1376  36234.7  189.921
 8.1796  36349.6  190.764
 8.2216  36923.6  190.993
 8.2636  37316.4  192.266
 8.3056  36871.9  191.873
 8.3476  37645.7  193.206
 8.3896  37189  192.119
 8.4316  37755.6  193.741
 8.4736  37848.7  193.45
 8.5156  37284.1  192.277
 8.5576  37180.7  192.988
 8.5996  37228.8  191.98
 8.6416  37088.7  192.888
 8.6836  36694.1  191.676
 8.7256  37371.6  192.9
 8.7676  37070.4  195.037
 8.8096  37695  193.94
 8.8516  37505.5  193.021
 8.8936  37100.2  191.926
 8.9356  37367.1  192.956
 8.9776  37330.2  192.936
 9.0196  37311  192.554
 9.0616  36863.4  190.893
 9.1036  36716.5  191.689
 9.1456  36302.6  189.928
 9.1876  36751.9  191.045
 9.2296  36297  189.294
 9.2716  36204.6  189.099
 9.3136  35986.8  188.522
 9.3556  36305.5  189.327
 9.3976  35155.9  186.83
 9.4396  35457  187.526
 9.4816  35448.9  187.365
 9.5236  34719.2  185.315
 9.5656  34668.5  185.547
 9.6076  34117.7  184.593
 9.6496  34266.5  184.884
 9.6916  34074.6  184.298
 9.7336  34356.1  184.849
 9.7756  33846  184.753
 9.8176  33980.6  184.648
 9.8596  33891.9  182.828
 9.9016  33376.7  181.425
 9.9436  33161.3  180.755
 9.9856  32612.2  179.527
 10.0276  32208.5  179.496
 10.0696  32647.3  179.733
 10.1116  31712.4  177.412
 10.1536  31665.1  177.434
 10.1956  30929.4  174.976
 10.2376  31114.4  174.996
 10.2796  30736.7  174.044
 10.3216  30492.6  173.642
 10.3636  30250.6  172.983
 10.4056  29660.6  171.686
 10.4476  29771  171.603
 10.4896  29957.3  171.592
 10.5316  29294.2  170.42
 10.5736  29223.1  170.623
 10.6156  29077.8  169.952
 10.6576  28937.9  168.094
 10.6996  28540.7  167.649
 10.7416  28075.2  166.483
 10.7836  27844.2  166.466
 10.8256  27611.5  166.192
 10.8676  27425.3  165.175
 10.9096  27358.1  164.992
 10.9516  27062.6  163.053
 10.9936  27264.2  163.866
 11.0356  27001.9  163.684
 11.0776  26775.4  162.331
 11.1196  26590  162.536
 11.1616  26116.2  160.758
 11.2036  26326.5  161.245
 11.2456  26102.7  161.273
 11.2876  26531.3  162.308
 11.3296  25864.2  160.174
 11.3716  26234.3  160.996
 11.4136  26033.7  161.268
 11.4556  26087.3  161.092
 11.4976  26523.9  161.421
 11.5396  27104.6  163.361
 11.5816  27447  164.836
 11.6236  27451.7  165.087
 11.6656  27196.9  163.444
 11.7076  25916.1  160.387
 11.7496  25754.6  163.948
 11.7916  25512  158.379
 11.8336  25078.6  157.928
 11.8756  24995.4  157.214
 11.9176  25084.3  157.171
 11.9596  25189.2  157.673
 12.0016  24583.9  156.532
 12.0436  24937.7  157.096
 12.0856  24551.8  156.393
 12.1276  24522.4  156.242
 12.1696  24528.5  155.368
 12.2116  24416.1  155.014
 12.2536  24218.6  155.205
 12.2956  23968.1  153.743
 12.3376  24258.8  154.885
 12.3796  24404.9  155.831
 12.4216  24369.4  154.912
 12.4636  23921.7  154.42
 12.5056  24148.2  154.409
 12.5476  24528.5  155.133
 12.5896  24030.4  154.187
 12.6316  24217.2  154.942
 12.6736  23977.1  154.661
 12.7156  24285.1  155.488
 12.7576  24056.4  155.008
 12.7996  24112.5  153.822
 12.8416  23823.8  153.956
 12.8836  24244  155.135
 12.9256  24608.6  155.321
 12.9676  24533.9  155.493
 13.0096  24650.4  156.988
 13.0516  24565.8  155.741
 13.0936  24909  157.24
 13.1356  25073.4  156.705
 13.1776  24630.5  156.344
 13.2196  25156.1  157.636
 13.2616  24602.7  156.212
 13.3036  25038  157.55
 13.3456  24647.4  156.671
 13.3876  25081.6  157.318
 13.4296  24715.4  156.325
 13.4716  24753.8  156.068
 13.5136  24721.7  156.088
 13.5556  24676  156.592
 13.5976  24853  157.321
 13.6396  24832  156.603
 13.6816  24804.5  156.996
 13.7236  25331.3  158.217
 13.7656  26739.8  163.04
 13.8076  27459.6  163.791
 13.8496  27076.5  163.355
 13.8916  25002.6  158.137
 13.9336  24489.1  155.779
 13.9756  24595.1  155.476
 14.0176  24122.3  154.664
 14.0596  24353.9  155.33
 14.1016  24077  154.877
 14.1436  24071.4  153.984
 14.1856  23451.1  152.282
 14.2276  23692.6  153.55
 14.2696  23462.4  152.653
 14.3116  22963.8  150.93
 14.3536  22623.8  149.967
 14.3956  22643.2  149.767
 14.4376  23152.4  151.216
 14.4796  22781.5  150
 14.5216  22517.8  149.921
 14.5636  22295.8  148.748
 14.6056  22655.7  149.5
 14.6476  22476.9  148.142
 14.6896  21939.7  146.915
 14.7316  21672.4  147.056
 14.7736  21534.6  145.734
 14.8156  21393  145.265
 14.8576  21345.5  144.963
 14.8996  20885.5  144.594
 14.9416  20492  143.231
 14.9836  20463.5  143.117
 15.0256  20017.7  140.466
 15.0676  20087.1  141.021
 15.1096  19917.5  140.158
 15.1516  19716  140.017
 15.1936  19412  138.355
 15.2356  19261.7  138.098
 15.2776  19134.9  137.234
 15.3196  18882.6  137.313
 15.3616  18838.9  136.91
 15.4036  18890.6  136.968
 15.4456  18783.7  136.224
 15.4876  18581  135.175
 15.5296  18520.2  135.243
 15.5716  18345.2  134.202
 15.6136  18090.3  133.596
 15.6556  18150.1  133.055
 15.6976  18135.4  133.301
 15.7396  17904.5  132.825
 15.7816  17809.6  131.992
 15.8236  17394.9  131.125
 15.8656  17806.8  132.47
 15.9076  17442.5  130.935
 15.9496  18084  136.15
 15.9916  17946.5  136.036
 16.0336  18010.5  133.12
 16.0756  17614.6  131.972
 16.1176  17713.9  132.414
 16.1596  17005.8  130.907
 16.2016  17260.6  130.646
 16.2436  17138.6  130.563
 16.2856  17017.2  129.611
 16.3276  16951  129.806
 16.3696  16864.3  129.292
 16.4116  16755.7  129.309
 16.4536  17144.9  130.624
 16.4956  17046  129.974
 16.5376  16685.2  128.786
 16.5796  16653  128.029
 16.6216  16713.3  128.517
 16.6636  16369.7  127.384
 16.7056  16663.7  128.376
 16.7476  16702.4  128.062
 16.7896  16629.6  128.529
 16.8316  16625.2  128.492
 16.8736  16645.7  128.829
 16.9156  16582.4  128.914
 16.9576  16305.2  128.629
 16.9996  16357.9  129.309
 17.0416  16695.3  129.014
 17.0836  16674.9  128.693
 17.1256  16440.4  127.791
 17.1676  16493.2  127.958
 17.2096  16319.7  127.169
 17.2516  16312.7  126.939
 17.2936  16292.7  127.213
 17.3356  15996.4  126.034
 17.3776  15899.8  125.845
 17.4196  15802.3  125.156
 17.4616  15769.8  124.932
 17.5036  15449.6  124.025
 17.5456  15412.9  124.519
 17.5876  15529.4  124.021
 17.6296  15321.7  123.025
 17.6716  15317.4  123.583
 17.7136  15168.4  123.105
 17.7556  15030.7  122.851
 17.7976  15075.5  122.758
 17.8396  14959.4  121.79
 17.8816  14877.4  122.022
 17.9236  14909  121.945
 17.9656  14757.4  121.845
 18.0076  14809.9  121.636
 18.0496  14500.5  119.509
 18.0916  14624  120.558
 18.1336  14612.6  120.608
 18.1756  14775  120.826
 18.2176  14463.1  119.757
 18.2596  14463  119.485
 18.3016  14515.9  119.967
 18.3436  14454.2  119.717
 18.3856  14415.5  119.683
 18.4276  14465.9  119.579
 18.4696  14444.4  119.565
 18.5116  14374.5  119.562
 18.5536  14365.2  119.872
 18.5956  14105.9  118.357
 18.6376  14217.3  119.235
 18.6796  14275.8  118.785
 18.7216  14364.5  119.65
 18.7636  14168.2  118.831
 18.8056  14016.1  118.116
 18.8476  14003.8  118.692
 18.8896  14025.7  118.124
 18.9316  14200.9  118.832
 18.9736  14142.5  118.292
 19.0156  13980.1  118.032
 19.0576  14268.4  118.076
 19.0996  14266.3  118.793
 19.1416  14047.5  118.27
 19.1836  14152.4  118.316
 19.2256  13957.4  117.716
 19.2676  13946.4  117.758
 19.3096  13971.2  118.107
 19.3516  13893.5  117.735
 19.3936  13849  117.449
 19.4356  14209.2  118.848
 19.4776  14015.6  118.122
 19.5196  14112.7  118.381
 19.5616  13768.1  117.186
 19.6036  13908.3  117.276
 19.6456  13807.4  116.967
 19.6876  13972.1  117.299
 19.7296  14130.9  118.427
 19.7716  13821.3  117.295
 19.8136  14145.6  118.858
 19.8556  14071.3  118.031
 19.8976  14175.6  118.526
 19.9396  14252.2  118.433
 19.9816  14271.5  118.765
 20.0236  14634.6  120.467
 20.0656  14787.5  121.083
 20.1076  15077.4  122.763
 20.1496  15034.9  122.576
 20.1916  15211.1  122.801
 20.2336  14737.8  120.787
 20.2756  14304.8  119.448
 20.3176  14022  118.005
 20.3596  13810.4  117.098
 20.4016  13818  116.93
 20.4436  13763.9  117.262
 20.4856  13749.9  117
 20.5276  13648.8  117.028
 20.5696  13622.8  116.358
 20.6116  13543.9  116.303
 20.6536  13467.1  115.487
 20.6956  13374  115.218
 20.7376  13289.7  115.065
 20.7796  13479.6  115.575
 20.8216  13432  115.081
 20.8636  13369.2  115.192
 20.9056  13371.9  115.143
 20.9476  13237.4  114.406
 20.9896  13350.9  114.759
 21.0316  13128.6  113.696
 21.0736  13324.1  115.063
 21.1156  13082.1  114.177
 21.1576  13185.2  114.66
 21.1996  13143.8  114.466
 21.2416  13120.2  114.187
 21.2836  13140  114.254
 21.3256  13113.8  114.206
 21.3676  13081  113.599
 21.4096  12926.1  113.251
 21.4516  12937.7  113.168
 21.4936  12780.5  112.754
 21.5356  12860.5  113.046
 21.5776  13013.3  113.552
 21.6196  12842.6  112.841
 21.6616  12770.6  112.61
 21.7036  12985.4  113.317
 21.7456  13009.3  113.505
 21.7876  12728.9  112.038
 21.8296  12678.6  111.662
 21.8716  12933.2  113.006
 21.9136  12945.7  113.269
 21.9556  12784.7  112.229
 21.9976  12736.4  112.05
 22.0396  12713  112.198
 22.0816  12765.6  112.958
 22.1236  12803.5  112.59
 22.1656  12743.6  112.463
 22.2076  12535.6  111.004
 22.2496  12648.3  111.533
 22.2916  12424.5  110.425
 22.3336  12577.3  111.826
 22.3756  12402.8  110.759
 22.4176  12532.8  111.194
 22.4596  12307.6  110.775
 22.5016  12457.8  110.957
 22.5436  12571.3  111.333
 22.5856  12468.7  111.127
 22.6276  12717.4  112.373
 22.6696  12630.3  112.339
 22.7116  12510.5  111.317
 22.7536  12476.6  111.139
 22.7956  12690.3  111.424
 22.8376  12301.7  110.209
 22.8796  12274.8  109.896
 22.9216  12349.4  110.766
 22.9636  12445.3  110.355
 23.0056  12456.4  110.539
 23.0476  12413.7  110.919
 23.0896  12737.4  111.729
 23.1316  12382.5  110.594
 23.1736  12703.5  114.979
 23.2156  12825  112.875
 23.2576  13046.9  113.986
 23.2996  12833.5  112.821
 23.3416  12948.2  113.862
 23.3836  12909.7  112.913
 23.4256  13077.5  113.769
 23.4676  12879.8  112.593
 23.5096  12744.1  112.656
 23.5516  12663.3  111.597
 23.5936  12807.2  113.152
 23.6356  12934.6  113.362
 23.6776  12730.6  112.68
 23.7196  12640.7  111.862
 23.7616  12540.8  111.336
 23.8036  12906.4  113.009
 23.8456  12565.7  111.046
 23.8876  12533.3  111.268
 23.9296  12446.4  111.37
 23.9716  12581.8  111.174
 24.0136  12477.8  111.621
 24.0556  12348  110.75
 24.0976  12347.3  110.568
 24.1396  12195.5  112.519
 24.1816  12373.2  111.731
 24.2236  12397.3  111.476
 24.2656  12352.6  110.743
 24.3076  12313.8  110.841
 24.3496  12257.2  110.458
 24.3916  12307  110.739
 24.4336  12170.9  110.327
 24.4756  12098.2  109.882
 24.5176  11933.1  108.754
 24.5596  11839.8  108.453
 24.6016  11901.9  109.033
 24.6436  11971.5  108.857
 24.6856  11738.6  107.534
 24.7276  11644.4  107.434
 24.7696  11657.6  107.599
 24.8116  11577.4  107.404
 24.8536  11790.4  108.394
 24.8956  11615  107.31
 24.9376  11773.6  107.973
 24.9796  11553  107.313
 25.0216  11600.4  107.648
 25.0636  11524.2  106.954
 25.1056  11295.6  106.587
 25.1476  11401.7  108.714
 25.1896  11307  106.771
 25.2316  11358.5  106.291
 25.2736  11234.9  105.367
 25.3156  11241.3  105.455
 25.3576  11306.4  106.207
 25.3996  11267.4  106.008
 25.4416  11094.3  105.165
 25.4836  11055.8  105.499
 25.5256  11109.1  105.123
 25.5676  11089.6  104.757
 25.6096  11000.3  104.911
 25.6516  11026.1  104.539
 25.6936  11113.5  105.265
 25.7356  11048.3  105.089
 25.7776  11124.8  105.051
 25.8196  10854.3  104.008
 25.8616  10905.8  104.181
 25.9036  11018.1  104.166
 25.9456  10886.8  104.148
 25.9876  10912  104.333
 26.0296  11102.4  104.753
 26.0716  11016.8  104.772
 26.1136  11071  104.963
 26.1556  11043  104.207
 26.1976  10916.6  104.544
 26.2396  10945  103.829
 26.2816  10922.9  104.338
 26.3236  10992.1  104.827
 26.3656  11035  104.744
 26.4076  10942.6  104.515
 26.4496  11094  104.821
 26.4916  11190.6  105.174
 26.5336  11506  106.997
 26.5756  11543.6  107.045
 26.6176  11125.1  105.11
 26.6596  10953.6  104.596
 26.7016  10854.9  103.897
 26.7436  10891.7  104.194
 26.7856  10719.4  103.361
 26.8276  10832  103.865
 26.8696  10694  103.071
 26.9116  10693.7  103.006
 26.9536  10606.1  102.639
 26.9956  10542  102.36
 27.0376  10590  102.818
 27.0796  10608.4  102.631
 27.1216  10670.2  102.99
 27.1636  10418.5  101.935
 27.2056  10413.2  101.797
 27.2476  10604.6  102.705
 27.2896  10371.3  101.702
 27.3316  10449.8  101.789
 27.3736  10301.6  101.345
 27.4156  10427.3  101.789
 27.4576  10442.5  102.099
 27.4996  10437.5  101.678
 27.5416  10452.2  102.058
 27.5836  10298.4  101.139
 27.6256  10486.3  102.239
 27.6676  10298.5  101.307
 27.7096  10288.1  101.14
 27.7516  10230.9  101.007
 27.7936  10541.9  102.669
 27.8356  10467.6  101.926
 27.8776  10574.4  102.497
 27.9196  10127  100.175
 27.9616  10322.1  101.337
 28.0036  10134.8  100.369
 28.0456  10118.4  100.43
 28.0876  10166.7  100.747
 28.1296  10040.9  99.9654
 28.1716  10249.6  101.019
 28.2136  10115.3  100.318
 28.2556  10052.1  100.117
 28.2976  10016.7  99.9382
 28.3396  9917.51  99.1903
 28.3816  10024.3  99.7442
 28.4236  9990.16  99.723
 28.4656  9993.61  99.7831
 28.5076  9864.8  98.7704
 28.5496  10028.9  99.8546
 28.5916  10108.9  100.065
 28.6336  10018.5  99.9561
 28.6756  10025.6  99.1782
 28.7176  9936.36  99.3018
 28.7596  9819.49  98.6123
 28.8016  9840.12  98.7487
 28.8436  9857.69  99.08
 28.8856  9886.28  99.0762
 28.9276  9877.82  99.2804
 28.9696  9838.76  98.7362
 29.0116  9700.87  98.2246
 29.0536  9654.13  98.1993
 29.0956  9860.68  98.9358
 29.1376  9754.38  98.381
 29.1796  9841.88  98.8729
 29.2216  9733.45  98.1631
 29.2636  9775.76  98.4542
 29.3056  9673.58  97.7144
 29.3476  9814.17  98.9599
 29.3896  9782.56  98.9071
 29.4316  9578.53  97.2075
 29.4736  9522.47  96.9823
 29.5156  9667.19  97.6354
 29.5576  9532.32  97.6977
 29.5996  9612.69  97.3645
 29.6416  9479.58  96.8103
 29.6836  9445.42  96.56
 29.7256  9446.48  97.1251
 29.7676  9455.53  96.8303
 29.8096  9494.82  96.9796
 29.8516  9290.58  96.2534
 29.8936  9435.74  97.1005
 29.9356  9556.55  97.4743
 29.9776  9355.47  96.5941
 30.0196  9440.44  96.4288
 30.0616  9406.71  96.6245
 30.1036  9401.43  96.429
 30.1456  9343.09  96.3513
 30.1876  9408.36  96.6746
 30.2296  9349.72  96.3132
 30.2716  9251.01  95.4484
 30.3136  9473.82  97.4464
 30.3556  9445.08  97.3049
 30.3976  9388.85  98.5091
 30.4396  9872.18  98.3211
 30.4816  9742.22  97.2691
 30.5236  9650.8  96.7985
 30.5656  9576.78  97.0859
 30.6076  9689.17  97.0706
 30.6496  9662.32  97.3476
 30.6916  9401.74  96.1155
 30.7336  9448.36  96.5075
 30.7756  9412.42  96.4136
 30.8176  9480.82  96.6699
 30.8596  9530.89  96.6784
 30.9016  9621.21  97.4942
 30.9436  9606.25  97.1497
 30.9856  9720.16  97.8654
 31.0276  9574.43  96.755
 31.0696  9474.83  96.8091
 31.1116  9498.06  96.897
 31.1536  9514.8  96.8546
 31.1956  9486.83  96.8165
 31.2376  9318.67  95.9701
 31.2796  9329.24  95.5633
 31.3216  9437.63  96.0432
 31.3636  9390.71  96.5152
 31.4056  9301.61  97.3639
 31.4476  9464.55  96.1089
 31.4896  9457.49  96.5793
 31.5316  9408.69  95.7322
 31.5736  9518.67  96.1175
 31.6156  9553.82  96.2996
 31.6576  9452.28  95.8681
 31.6996  9503.37  95.7865
 31.7416  9290.2  95.798
 31.7836  9543.71  96.0944
 31.8256  9503.32  96.1486
 31.8676  9439.67  95.8275
 31.9096  9195.31  94.9431
 31.9516  9263.9  95.4651
 31.9936  9167.84  94.7911
 32.0356  9421.22  96.1367
 32.0776  9253.47  95.1779
 32.1196  9315.76  95.6017
 32.1616  9250.19  94.7113
 32.2036  9271.89  95.3379
 32.2456  9282.19  95.7759
 32.2876  9308.3  95.4033
 32.3296  9187.96  94.7423
 32.3716  9053.16  94.1536
 32.4136  9058.38  94.3793
 32.4556  9214.16  94.5743
 32.4976  9012.69  93.4365
 32.5396  9021.02  93.5516
 32.5816  9064.24  93.898
 32.6236  9089.38  94.0989
 32.6656  9173.9  95.0829
 32.7076  9018.19  93.9182
 32.7496  9016.25  93.5917
 32.7916  9111.01  94.0362
 32.8336  9026.88  93.6945
 32.8756  9161.74  94.1086
 32.9176  8963.58  93.5758
 32.9596  8983.73  93.7468
 33.0016  9029.27  93.7466
 33.0436  8918.02  93.3504
 33.0856  8917.87  93.4473
 33.1276  8889.29  93.0253
 33.1696  9058.6  93.7332
 33.2116  8994.47  93.634
 33.2536  9084.96  94.0861
 33.2956  8996.94  93.7279
 33.3376  8866.88  92.787
 33.3796  9043.16  93.9288
 33.4216  8995.9  93.2704
 33.4636  8968.93  93.2867
 33.5056  8847.45  92.8997
 33.5476  8940.21  93.3499
 33.5896  9038.65  93.6673
 33.6316  9015.48  93.86
 33.6736  8720.6  92.5557
 33.7156  8785.64  92.9293
 33.7576  8897.32  93.1603
 33.7996  8944.29  93.1604
 33.8416  8701.26  92.0782
 33.8836  8798.41  92.3646
 33.9256  8990.1  93.4198
 33.9676  8901.01  92.8467
 34.0096  8767.68  92.4688
 34.0516  8704.22  91.7557
 34.0936  8610.13  91.5449
 34.1356  8871.66  92.6661
 34.1776  8595.27  91.2059
 34.2196  8747.54  92.1942
 34.2616  8619.37  91.6558
 34.3036  8775.46  92.7292
 34.3456  8661.29  91.8765
 34.3876  8830.66  92.7454
 34.4296  8739.01  91.9527
 34.4716  8854.77  92.7058
 34.5136  8729.65  92.2244
 34.5556  8545.21  91.5175
 34.5976  8774.87  92.554
 34.6396  8684.33  91.7839
 34.6816  8726.21  92.1081
 34.7236  8575.61  91.1004
 34.7656  8603.46  91.45
 34.8076  8564.16  91.5662
 34.8496  8541.2  91.2972
 34.8916  8778.42  92.4128
 34.9336  8717.99  92.0782
 34.9756  8588.49  91.3148
 35.0176  8661.57  92.2353
 35.0596  8808.83  92.8352
 35.1016  8708.45  92.0556
 35.1436  8946.05  92.9853
 35.1856  8725.87  91.9551
 35.2276  8575.77  91.3341
 35.2696  8634.75  91.848
 35.3116  8593.43  91.7292
 35.3536  8634.7  91.6506
 35.3956  8567.61  91.0004
 35.4376  8587.67  91.679
 35.4796  8674.34  92.1698
 35.5216  8529.06  91.3704
 35.5636  8344.14  91.1124
 35.6056  8501.58  90.9847
 35.6476  8513.38  90.946
 35.6896  8593.64  91.4747
 35.7316  8530.86  91.1083
 35.7736  8435.37  90.7825
 35.8156  8518.1  91.2307
 35.8576  8529.83  91.5359
 35.8996  8561.81  91.6795
 35.9416  8411.38  90.3906
 35.9836  8480.33  91.093
 36.0256  8595.56  91.7207
 36.0676  8622.06  91.6164
 36.1096  8393.73  90.5439
 36.1516  8624.16  91.6721
 36.1936  8464.68  90.6537
 36.2356  8584.96  91.9623
 36.2776  8401.42  90.4487
 36.3196  8372.01  89.9509
 36.3616  8425.35  90.3701
 36.4036  8482.32  90.7471
 36.4456  8455.04  90.8099
 36.4876  8254.74  89.6692
 36.5296  8456.48  90.8019
 36.5716  8346.93  90.9844
 36.6136  8380.55  89.9447
 36.6556  8206.83  89.1964
 36.6976  8105.74  89.1458
 36.7396  8076.01  88.7217
 36.7816  8249.22  90.0423
 36.8236  8229.19  89.8634
 36.8656  7930.98  88.2811
 36.9076  8107.32  89.142
 36.9496  8128.31  89.2355
 36.9916  7924.7  87.7516
 37.0336  8295.66  90.0946
 37.0756  8210.38  89.4268
 37.1176  8033.84  88.7268
 37.1596  8074.46  88.9548
 37.2016  8046.37  89.0268
 37.2436  8123.63  88.7685
 37.2856  8095.37  88.8714
 37.3276  8153.2  88.543
 37.3696  8053.21  88.8806
 37.4116  8165.86  89.3963
 37.4536  7971.55  88.1989
 37.4956  7965.02  88.2021
 37.5376  8282.17  91.5486
 37.5796  8167.72  90.8383
 37.6216  8075.3  88.592
 37.6636  8171.28  89.0109
 37.7056  8341.67  90.1238
 37.7476  8333.76  89.6184
 37.7896  8193.26  89.3686
 37.8316  8094.24  88.9804
 37.8736  8131.87  88.7132
 37.9156  8205.23  89.108
 37.9576  8197.02  88.9756
 37.9996  7976.57  87.4846
 38.0416  8173.08  89.3722
 38.0836  8245.25  89.6638
 38.1256  8171.32  89.2342
 38.1676  7897.82  87.8439
 38.2096  8131.21  88.7556
 38.2516  8152.07  89.0766
 38.2936  8256.81  89.4456
 38.3356  7981.51  87.8714
 38.3776  8089.73  88.709
 38.4196  8127.91  88.7869
 38.4616  8224.08  89.5585
 38.5036  8236.09  89.4628
 38.5456  7972.07  88.8531
 38.5876  7972.36  88.8838
 38.6296  7953.52  87.7428
 38.6716  8079.16  88.237
 38.7136  8025.42  87.8904
 38.7556  8091.58  88.7691
 38.7976  8118.53  88.8366
 38.8396  7951.67  88.3798
 38.8816  7981.84  88.3439
 38.9236  7978.45  88.1139
 38.9656  8120.15  88.8121
 39.0076  8124.81  88.2398
 39.0496  8185.26  89.122
 39.0916  8150.69  88.5753
 39.1336  8046.05  88.4114
 39.1756  8110.97  88.8294
 39.2176  8022.85  88.8866
 39.2596  8124.4  89.3711
 39.3016  7934.76  87.9098
 39.3436  7984.89  88.5943
 39.3856  8132.91  88.8587
 39.4276  8265.65  90.0934
 39.4696  7969.6  88.0835
 39.5116  8106.09  89.3558
 39.5536  8013.99  89.2617
 39.5956  8086.84  88.7647
 39.6376  7936.11  87.9281
 39.6796  7970.06  87.8659
 39.7216  7978.34  88.0113
 39.7636  7975.95  88.5579
 39.8056  8039.65  88.6983
 39.8476  7816.36  87.7093
 39.8896  7997.99  88.3585
 39.9316  7993.08  88.5792
 39.9736  7961.16  87.9769
 40.0156  8028.73  88.179
 40.0576  7951.83  88.1133
 40.0996  8035.5  87.7501
 40.1416  8019.41  88.4583
 40.1836  8087.78  88.7241
 40.2256  8094.18  88.7927
 40.2676  7929.43  87.9892
 40.3096  8035.04  88.5065
 40.3516  8075.59  88.8401
 40.3936  8088.97  88.4641
 40.4356  8029.59  88.3507
 40.4776  8019.19  88.6932
 40.5196  8037.89  88.9277
 40.5616  8152.33  89.1957
 40.6036  8022.94  88.7407
 40.6456  8024.99  88.3518
 40.6876  8110.99  88.8201
 40.7296  7944.81  88.0425
 40.7716  8165.94  89.3672
 40.8136  7938.05  88.0795
 40.8556  8080.3  88.9889
 40.8976  8015.38  88.5567
 40.9396  8060.68  89.1537
 40.9816  8002.13  88.115
 41.0236  8030.45  88.0501
 41.0656  8193.67  89.4872
 41.1076  8043.71  88.4396
 41.1496  8073.24  88.5071
 41.1916  7938.73  88.0848
 41.2336  8025.86  88.5687
 41.2756  7963.17  87.8257
 41.3176  8020.18  88.7447
 41.3596  8009.92  88.43
 41.4016  7913.45  88.1473
 41.4436  8079.81  88.8516
 41.4856  7966.69  88.3988
 41.5276  7977.26  88.47
 41.5696  8013.16  88.3072
 41.6116  8075.89  89.0369
 41.6536  8032.44  88.6588
 41.6956  8024.98  88.6695
 41.7376  7879.15  87.8928
 41.7796  7960.72  88.2189
 41.8216  7968.33  88.5048
 41.8636  7985.14  88.546
 41.9056  8027.42  88.5647
 41.9476  8040.51  88.8789
 41.9896  8131.63  89.0407
 42.0316  8015.13  88.4865
 42.0736  8044.34  88.755
 42.1156  7943.62  88.0259
 42.1576  7889.64  87.8329
 42.1996  8088.22  89.0583
 42.2416  8034.32  88.3459
 42.2836  7888.05  87.6617
 42.3256  7970.08  88.2292
 42.3676  7958.13  87.9562
 42.4096  8049.4  88.4355
 42.4516  8016.73  88.3297
 42.4936  7834.98  87.3968
 42.5356  7891.21  87.8494
 42.5776  8076.32  88.8082
 42.6196  7960.04  88.229
 42.6616  7829.2  87.6736
 42.7036  7901.99  87.4545
 42.7456  7943.82  88.0404
 42.7876  7863.87  87.6812
 42.8296  7881.72  87.6252
 42.8716  7844  87.587
 42.9136  7804.05  87.152
 42.9556  7915.82  87.8999
 42.9976  8003.36  88.3563
 43.0396  7956.04  87.8236
 43.0816  7928.04  88.0543
 43.1236  7886.85  87.8756
 43.1656  7906.36  87.805
 43.2076  7843.14  87.5699
 43.2496  7868.12  87.527
 43.2916  7851.85  87.7952
 43.3336  7878.55  87.7788
 43.3756  7876.29  87.5225
 43.4176  7821.47  87.2924
 43.4596  7836.5  87.2244
 43.5016  7745.08  87.1334
 43.5436  7868.37  87.7279
 43.5856  7847.87  87.6405
 43.6276  7804.9  87.2882
 43.6696  7727.34  87.1056
 43.7116  7863.63  87.3735
 43.7536  7881.32  87.9714
 43.7956  7698.01  88.153
 43.8376  7758.21  87.017
 43.8796  7601.4  86.2066
 43.9216  7685.89  86.5994
 43.9636  7657.66  86.5434
 44.0056  7605.26  86.4865
 44.0476  7622.87  86.206
 44.0896  7586.24  86.3505
 44.1316  7629.26  86.1178
 44.1736  7708.84  86.694
 44.2156  7668.61  86.32
 44.2576  7710.42  86.8825
 44.2996  7674.15  86.6489
 44.3416  7634.71  86.1823
 44.3836  7460.77  85.5121
 44.4256  7464.08  85.1857
 44.4676  7599.83  86.1166
 44.5096  7579.6  86.1411
 44.5516  7521.52  85.7795
 44.5936  7456.84  85.3646
 44.6356  7661.14  86.2617
 44.6776  7611.67  86.3062
 44.7196  7665.22  86.9131
 44.7616  7670.12  88.285
 44.8036  7722.62  86.9839
 44.8456  7850.71  87.9127
 44.8876  7773.25  87.3153
 44.9296  7714.25  86.4352
 44.9716  7631.22  86.3972
 45.0136  7780.2  87.1681
 45.0556  7770.65  87.0963
 45.0976  7672.45  86.6993
 45.1396  7711.45  86.6758
 45.1816  7631.02  86.1625
 45.2236  7752.27  86.748
 45.2656  7640.6  86.6104
 45.3076  7692.52  86.6966
 45.3496  7631.5  86.6613
 45.3916  7605.26  86.7862
 45.4336  7631  86.7779
 45.4756  7589.03  86.3807
 45.5176  7648.41  86.3433
 45.5596  7615.06  86.2662
 45.6016  7629.7  86.7817
 45.6436  7807.47  86.9394
 45.6856  7750.89  87.2811
 45.7276  7549.57  87.482
 45.7696  7656.48  87.778
 45.8116  7528.07  86.4746
 45.8536  7695.11  87.315
 45.8956  7620.2  86.2408
 45.9376  7569.43  85.4111
 45.9796  7674.68  86.6984
 46.0216  7727.94  87.3451
 46.0636  7766.96  86.692
 46.1056  7655.18  86.0573
 46.1476  7597.23  86.3208
 46.1896  7682.78  86.9643
 46.2316  7699.11  86.9233
 46.2736  7540.62  86.3959
 46.3156  7746.28  87.139
 46.3576  7587.56  86.452
 46.3996  7605.59  86.7077
 46.4416  7625.32  86.3886
 46.4836  7609  86.6715
 46.5256  7583.19  86.4577
 46.5676  7454.32  85.8385
 46.6096  7652.23  86.8726
 46.6516  7630.87  85.8013
 46.6936  7659.44  86.4718
 46.7356  7701.46  86.8044
 46.7776  7484.86  86.4245
 46.8196  7520.39  86.217
 46.8616  7495.28  86.026
 46.9036  7458.79  85.4719
 46.9456  7512.69  85.4156
 46.9876  7504.38  85.4535
 47.0296  7465.57  85.9238
 47.0716  7355.01  85.1099
 47.1136  7520.23  85.7271
 47.1556  7383.18  84.8087
 47.1976  7637.14  86.3433
 47.2396  7450.98  85.6873
 47.2816  7411.72  85.1642
 47.3236  7606.02  86.644
 47.3656  7514.74  86.059
 47.4076  7467.49  85.5777
 47.4496  7472.3  85.7053
 47.4916  7477.57  85.9328
 47.5336  7580.1  86.3261
 47.5756  7572.04  86.3942
 47.6176  7388.64  85.248
 47.6596  7454.52  85.3399
 47.7016  7547.19  85.6808
 47.7436  7595.47  86.3069
 47.7856  7509.38  85.8355
 47.8276  7405.74  85.2859
 47.8696  7437.52  85.5551
 47.9116  7601.17  86.2027
 47.9536  7452.49  85.2941
 47.9956  7370.29  85.542
 48.0376  7468.61  85.8787
 48.0796  7475.47  86.0423
 48.1216  7535.77  86.2137
 48.1636  7512.98  85.645
 48.2056  7623.62  86.5473
 48.2476  7523.13  86.2878
 48.2896  7482.27  85.9583
 48.3316  7501.46  86.0067
 48.3736  7367.42  85.2612
 48.4156  7441.85  85.5408
 48.4576  7452.35  85.9021
 48.4996  7474.3  85.4759
 48.5416  7601.02  86.5292
 48.5836  7538.01  85.8365
 48.6256  7500.39  85.8249
 48.6676  7496.46  86.341
 48.7096  7508.73  85.6562
 48.7516  7542.25  86.0067
 48.7936  7391.36  85.2047
 48.8356  7376.42  85.1673
 48.8776  7461.17  86.2483
 48.9196  7560.21  86.16
 48.9616  7495.53  86.1815
 49.0036  7445.87  86.2536
 49.0456  7396.45  85.9453
 49.0876  7413.43  85.5663
 49.1296  7328.57  85.2451
 49.1716  7336.19  85.1616
 49.2136  7543.42  86.2791
 49.2556  7396.62  85.4659
 49.2976  7440.58  85.791
 49.3396  7426.9  85.7664
 49.3816  7657.34  86.4915
 49.4236  7429.24  85.6337
 49.4656  7274.36  84.7557
 49.5076  7448.14  85.5077
 49.5496  7361.93  85.0771
 49.5916  7500.63  85.7851
 49.6336  7446.55  85.6905
 49.6756  7465.56  86.0349
 49.7176  7465.01  85.9717
 49.7596  7440.72  85.5878
 49.8016  7494.1  85.8148
 49.8436  7382.13  85.4714
 49.8856  7372.58  85.4185
 49.9276  7325.85  85.2525
 49.9696  7233.66  84.6984
 50.0116  7417.21  85.8947
 50.0536  7372.48  85.5925
 50.0956  7288.97  85.1756
 50.1376  7295.27  84.8947
 50.1796  7204.5  84.6528
 50.2216  7295.08  85.1684
 50.2636  7305.83  84.8477
 50.3056  7298.86  84.9817
 50.3476  7422.68  85.7281
 50.3896  7309.48  85.041
 50.4316  7358.37  85.1544
 50.4736  7277.11  84.9031
 50.5156  7286.03  84.9394
 50.5576  7346.17  85.0498
 50.5996  7237.29  84.707
 50.6416  7293.51  84.9619
 50.6836  7399.08  85.6336
 50.7256  7389.55  85.4745
 50.7676  7422.51  86.028
 50.8096  7296.25  84.8124
 50.8516  7272.3  85.1017
 50.8936  7260.79  84.8046
 50.9356  7357.15  85.4748
 50.9776  7282.47  85.2046
 51.0196  7158.48  84.6011
 51.0616  7215.89  84.2555
 51.1036  7201.37  84.5309
 51.1456  7274.9  84.8757
 51.1876  7152.11  83.4774
 51.2296  7156.75  84.1542
 51.2716  7014.74  83.0162
 51.3136  7097.12  83.9735
 51.3556  7166.76  83.9875
 51.3976  7074.75  83.6094
 51.4396  7052.11  83.7934
 51.4816  7042.29  83.5862
 51.5236  7158.49  84.3623
 51.5656  7014.1  83.0959
 51.6076  7127.55  83.852
 51.6496  7027.45  83.4471
 51.6916  7017.82  83.7634
 51.7336  6973.54  83.5854
 51.7756  7052.46  83.7417
 51.8176  6891.1  82.8983
 51.8596  6956.87  83.3076
 51.9016  7240.82  84.5803
 51.9436  7155.78  85.6198
 51.9856  7106.94  85.7442
 52.0276  7140.51  84.391
 52.0696  7282.65  85.3048
 52.1116  7090.84  84.2943
 52.1536  7148.95  84.5227
 52.1956  7062.83  83.4645
 52.2376  7158.61  84.2007
 52.2796  7203.85  84.2838
 52.3216  7026.75  83.9297
 52.3636  7042.23  83.5798
 52.4056  7064.6  83.5844
 52.4476  7071.43  83.9835
 52.4896  7026.59  83.7865
 52.5316  7142.77  84.5269
 52.5736  6929.98  82.9693
 52.6156  7151.67  84.6954
 52.6576  6957.46  82.9559
 52.6996  6947.05  83.904
 52.7416  6929.58  83.648
 52.7836  7135.01  84.7664
 52.8256  7118.86  83.8561
 52.8676  7046.32  84.0263
 52.9096  6990.25  83.7462
 52.9516  6990.5  84.1689
 52.9936  7003  84.6314
 53.0356  7142.65  84.4293
 53.0776  7063.08  84.2421
 53.1196  7089.25  84.5159
 53.1616  7018.33  84.1426
 53.2036  6950.01  83.7011
 53.2456  6986.25  84.0271
 53.2876  7108.81  84.4455
 53.3296  7016.11  84.2288
 53.3716  7057.09  84.2054
 53.4136  7122.97  84.7649
 53.4556  7033.65  84.2614
 53.4976  6921.04  83.4132
 53.5396  6915.57  83.7824
 53.5816  7130.9  84.7037
 53.6236  6929.99  83.8645
 53.6656  7078.51  84.3559
 53.7076  7093.64  84.4028
 53.7496  7098.4  84.5638
 53.7916  6968.38  83.921
 53.8336  7068.52  84.4073
 53.8756  6857.67  83.6994
 53.9176  6932.48  83.482
 53.9596  6702.98  82.8621
 54.0016  6666.95  81.9594
 54.0436  6643.84  82.0277
 54.0856  6888.98  82.9464
 54.1276  6799.64  82.6029
 54.1696  6706.37  82.2085
 54.2116  6837.13  82.7407
 54.2536  6722.98  81.8636
 54.2956  6707.41  81.8168
 54.3376  6748.64  82.5736
 54.3796  6682.07  82.0521
 54.4216  6801.19  82.8451
 54.4636  6813.45  82.8764
 54.5056  6739.54  82.2208
 54.5476  6659.74  82.0855
 54.5896  6757.58  82.5145
 54.6316  6814.09  82.7139
 54.6736  6723.34  82.2457
 54.7156  6706.29  82.1797
 54.7576  6599.83  81.4859
 54.7996  6671.7  82.072
 54.8416  6631.72  81.8968
 54.8836  6714.98  82.4963
 54.9256  6719.22  82.283
 54.9676  6615.78  81.5049
 55.0096  6616.2  81.5425
 55.0516  6553.92  81.3952
 55.0936  6614.03  81.429
 55.1356  6566.9  81.1858
 55.1776  6802.4  82.8561
 55.2196  6664.15  81.8088
 55.2616  6754.37  82.5882
 55.3036  6552.51  81.5149
 55.3456  6494.66  81.2972
 55.3876  6527.68  81.2367
 55.4296  6429.89  80.6167
 55.4716  6541.64  81.3475
 55.5136  6473.18  80.6753
 55.5556  6651.86  81.8377
 55.5976  6485.54  80.8924
 55.6396  6635.89  81.7676
 55.6816  6525.77  80.9545
 55.7236  6416.91  80.3254
 55.7656  6581.19  81.0667
 55.8076  6496.66  80.5499
 55.8496  6463.49  80.6694
 55.8916  6395.97  80.4516
 55.9336  6613.41  81.6399
 55.9756  6519.5  80.9251
 56.0176  6414.24  80.4106
 56.0596  6501.78  80.9669
 56.1016  6396.93  80.3247
 56.1436  6500.82  81.2471
 56.1856  6359.18  80.0915
 56.2276  6594.61  81.605
 56.2696  6408.24  80.4231
 56.3116  6588.62  81.9274
 56.3536  6406.92  80.4439
 56.3956  6456.3  80.7377
 56.4376  6446.43  80.7325
 56.4796  6322.31  79.7723
 56.5216  6410.08  80.7098
 56.5636  6300.67  79.5836
 56.6056  6541.88  81.338
 56.6476  6390.97  79.9759
 56.6896  6561.13  81.5142
 56.7316  6357.48  80.1647
 56.7736  6385.65  80.358
 56.8156  6460.97  80.8231
 56.8576  6225.46  79.2867
 56.8996  6330.71  79.8529
 56.9416  6208.85  79.4041
 56.9836  6332.54  79.6979
 57.0256  6360.27  80.1814
 57.0676  6454.29  80.8985
 57.1096  6392.48  80.3128
 57.1516  6310.04  79.8291
 57.1936  6381.02  80.0247
 57.2356  6297.86  79.8468
 57.2776  6333.25  80.0222
 57.3196  6353.71  80.5161
 57.3616  6326.3  79.8432
 57.4036  6343.15  80.0032
 57.4456  6468.12  80.7649
 57.4876  6326.8  79.742
 57.5296  6378.75  80.3945
 57.5716  6320.23  80.0316
 57.6136  6188.8  79.0292
 57.6556  6269.3  79.661
 57.6976  6353.79  80.0285
 57.7396  6225.74  79.5636
 57.7816  6206.02  79.8184
 57.8236  6202.32  79.5959
 57.8656  6237.83  79.4699
 57.9076  6300.21  79.8799
 57.9496  6283.41  80.147
 57.9916  6306.22  79.7927
 58.0336  6291.82  79.9905
 58.0756  6305.21  79.7123
 58.1176  6238.55  79.2691
 58.1596  6222.63  79.7659
 58.2016  6018.11  77.669
 58.2436  6047.36  78.2592
 58.2856  5967.28  77.6643
 58.3276  5915.27  77.6989
 58.3696  6035.71  78.2412
 58.4116  6032.29  78.0815
 58.4536  6027.01  77.9342
 58.4956  5987.98  77.8606
 58.5376  6076.13  77.9998
 58.5796  5943.6  77.5616
 58.6216  5993.05  77.7095
 58.6636  6080.54  78.463
 58.7056  5968.49  77.6157
 58.7476  5937.82  77.8568
 58.7896  5964.11  77.6726
 58.8316  6045.69  78.2024
 58.8736  6009.51  77.9774
 58.9156  6005.92  77.9996
 58.9576  5987.39  78.1926
 58.9996  6097.47  78.1615
 59.0416  6019.85  78.0145
 59.0836  6069.36  78.2576
 59.1256  6020.05  78.64
 59.1676  6046.14  79.1141
 59.2096  5970.08  77.9222
 59.2516  6111.87  78.4208
 59.2936  6047.96  78.3379
 59.3356  5990.82  77.8453
 59.3776  5968.94  77.8709
 59.4196  5969.29  77.8099
 59.4616  5853.81  76.9154
 59.5036  5920.67  77.3877
 59.5456  6113.73  78.3315
 59.5876  6092.75  78.3889
 59.6296  6011.73  77.9351
 59.6716  5916.9  77.3753
 59.7136  5970.04  77.7103
 59.7556  5818.32  76.8504
 59.7976  5946.01  77.4334
 59.8396  5921.41  77.1684
 59.8816  5942.64  77.8473
 59.9236  6001.57  77.8773
 59.9656  5985.81  78.0336
 60.0076  5977.8  77.343
 60.0496  5953.34  77.6846
 60.0916  5970.8  77.2201
 60.1336  5838.18  77.4463
 60.1756  5805.32  78.3889
 60.1996  0.0000000E+00  0.0000000E+00