File: docs/examples/opeando_xrd/IS17_D/Data/IS17_D/17_Db_f00070.xye
# /beamlines/bl04/projects/cycle2025-II/20250340211-lsimonelli/DATA/IS17_D/17_Db_f00070.xye : mythproc.py merge -s 0.006 -l 0.5 -f /beamlines/bl04/inhouse/ff/FlatField/ff_20Nov2024rod8mm60s_17keV.raw -b True -c true -o xye /beamlines/bl04/projects/cycle2025-II/20250340211-lsimonelli/DATA/IS17_D/17_Db_00070.dat
# IsMon = [6754991, 6756831, 6755977]  IsPos = [-1.4999, -2.4884, -3.4988]
# Wave = 0.4962  CalPath /beamlines/bl04/projects/cycle2025-II/20250340211-lsimonelli/DATA/Align/Si_Pos1_25keV_f00001.cal
# Date = 2025-09-24_13:11:12 Dt = 4.8000  Bin = 0.0060  <imon> = 6755933 +/- 752 (Min/Max) 6754991 / 6756831
# icurr 249.8481  mocoIn 1.7049E-05  mocoOut 0.7993  i15 7.07591e+06  imon 6.75593e+06  i7 4.6667  iEMpd_timer 4.8000  iEMpd_1 3.4524E-08  iEMpd_2 7.8039E-08  iEMpd_3 1.6730E-08  iEMpd_4 4.8367E-08  iEMhp_timer 4.8000  iEMhp_1 4.8799E-06  iEMhp_2 -2.4151E-08  iEMhp_3 -2.4352E-08  iEMhp_4 -2.1582E-08
#      9776
 1.5856  42722.1  212.256
 1.6276  49286.9  224.069
 1.6696  54863.7  235.573
 1.7116  62133.2  251.184
 1.7536  70559.3  266.535
 1.7956  74286.4  274.167
 1.8376  70915.3  268.298
 1.8796  61010  247.012
 1.9216  50244.1  225.067
 1.9636  43212.9  207.87
 2.0056  39317.7  197.512
 2.0476  36520.5  192.443
 2.0896  35259.9  187.984
 2.1316  34565.4  185.228
 2.1736  32812.3  181.902
 2.2156  33367.5  181.962
 2.2576  31699.9  177.993
 2.2996  31255.3  177.389
 2.3416  30955.8  175.129
 2.3836  30717.8  174.561
 2.4256  29659.1  172.085
 2.4676  29699.1  171.957
 2.5096  29352.4  171.006
 2.5516  35311.1  191.859
 2.5936  139375  373.187
 2.6356  30654.6  175.907
 2.6776  27806.6  166.437
 2.7196  26776.9  163.812
 2.7616  26815.3  163.715
 2.8036  26070.8  161.588
 2.8456  25953.4  161.859
 2.8876  25396.1  159.969
 2.9296  24992.9  158.828
 2.9716  24845.8  157.861
 3.0136  24581  157.076
 3.0556  24702.5  157.84
 3.0976  24727.8  156.847
 3.1396  24096.8  155.564
 3.1816  24099.7  155.498
 3.2236  23519.4  153.623
 3.2656  23745.8  153.409
 3.3076  23650.3  154.552
 3.3496  23596  153.308
 3.3916  24205.8  155.105
 3.4336  24501.4  156.638
 3.4756  24912.6  157.883
 3.5176  25531.9  159.595
 3.5596  25282.8  161.245
 3.6016  25505  159.587
 3.6436  24686.3  158.097
 3.6856  24034.9  154.329
 3.7276  23426.4  153.434
 3.7696  22978.5  152.139
 3.8116  22685.2  151.061
 3.8536  23048.6  152.203
 3.8956  22937.9  151.662
 3.9376  23462.7  153.654
 3.9796  22667.1  150.518
 4.0216  22675.5  149.598
 4.0636  22596.1  150.78
 4.1056  22749.3  150.947
 4.1476  23050.6  152.249
 4.1896  22830.3  151.382
 4.2316  23213.5  152.479
 4.2736  23827.1  154.285
 4.3156  23722  154.174
 4.3576  24576.5  156.836
 4.3996  24741.8  157.627
 4.4416  25376.5  159.223
 4.4836  26466.5  162.768
 4.5256  26522.5  163.547
 4.5676  26171.9  162.718
 4.6096  26845.3  163.452
 4.6516  27242.3  164.36
 4.6936  27049.5  164.598
 4.7356  28303.9  168.195
 4.7776  27325.6  165.087
 4.8196  26905.3  164.45
 4.8616  26354.3  162.261
 4.9036  26478  162.383
 4.9456  26501.1  163.097
 4.9876  25843.2  160.96
 5.0296  25846.4  160.815
 5.0716  25453.5  160.331
 5.1136  25770.4  161.048
 5.1556  26118.7  161.591
 5.1976  34127.1  184.691
 5.2396  26795.2  163.364
 5.2816  26579.3  163.165
 5.3236  26491.7  162.594
 5.3656  25920.1  161.753
 5.4076  25764.6  161.403
 5.4496  25802.3  161.023
 5.4916  26035.4  161.507
 5.5336  26013.3  161.448
 5.5756  25927.7  161.194
 5.6176  26126.5  161.26
 5.6596  26150.1  162.307
 5.7016  26297  162.03
 5.7436  26574.4  163.158
 5.7856  26504.9  163.011
 5.8276  26582  162.965
 5.8696  26705.8  163.514
 5.9116  26752.3  164.25
 5.9536  26957.7  164.62
 5.9956  27155.8  164.625
 6.0376  27395.1  165.966
 6.0796  27507.8  166.138
 6.1216  27465.2  166.206
 6.1636  27651.3  165.837
 6.2056  27574.4  166.272
 6.2476  27889.4  167.093
 6.2896  27970.2  167.017
 6.3316  28113.8  167.618
 6.3736  28382.9  168.309
 6.4156  28177.3  167.591
 6.4576  28271.9  167.497
 6.4996  28364.3  168.24
 6.5416  28564  168.961
 6.5836  28856.7  170.05
 6.6256  28671.3  169.072
 6.6676  29059  169.788
 6.7096  29162.6  170.937
 6.7516  29400.4  171.304
 6.7936  30490.1  173.845
 6.8356  31154.3  175.831
 6.8776  30379.3  174.423
 6.9196  29975.6  173.656
 6.9616  30591.3  174.875
 7.0036  30768.9  175.042
 7.0456  30852.4  174.59
 7.0876  30736.2  175.917
 7.1296  30543.8  174.515
 7.1716  30923.7  175.15
 7.2136  30444  173.563
 7.2556  30794.3  174.715
 7.2976  30921.3  175.564
 7.3396  30736.2  175.255
 7.3816  30852.1  175.8
 7.4236  31264.4  176.276
 7.4656  31242.1  175.68
 7.5076  31552.8  176.696
 7.5496  31199  176.236
 7.5916  31479.1  177.069
 7.6336  32288.7  179.219
 7.6756  31920.7  178.041
 7.7176  32544.9  180.097
 7.7596  32298.5  180.629
 7.8016  37998.4  198.314
 7.8436  32821.8  180.984
 7.8856  32597.4  179.977
 7.9276  33361  182.47
 7.9696  33694.3  183.682
 8.0116  34552.4  184.568
 8.0536  35190  186.515
 8.0956  36952.9  192.321
 8.1376  35274.6  187.387
 8.1796  35359.8  188.136
 8.2216  36648.1  190.285
 8.2636  37878.4  193.707
 8.3056  36242.3  190.243
 8.3476  38603.3  195.653
 8.3896  37245.8  192.268
 8.4316  36829  191.35
 8.4736  36762.9  190.653
 8.5156  36377.8  189.925
 8.5576  36304.3  190.686
 8.5996  36222.3  189.365
 8.6416  36164.1  190.456
 8.6836  36043.9  189.977
 8.7256  36548.2  190.751
 8.7676  39210.9  200.592
 8.8096  40027.2  199.864
 8.8516  36546.4  190.546
 8.8936  38577  195.726
 8.9356  36810.7  191.522
 8.9776  36691.5  191.292
 9.0196  36562.7  190.635
 9.0616  36510.5  189.993
 9.1036  38792.5  197.051
 9.1456  35847  188.749
 9.1876  35810.7  188.608
 9.2296  35176  186.365
 9.2716  35018.3  185.992
 9.3136  34991.9  185.907
 9.3556  35398.6  186.973
 9.3976  34341.5  184.664
 9.4396  34096  183.918
 9.4816  34189.7  184.028
 9.5236  33888.5  183.097
 9.5656  33546.3  182.535
 9.6076  32726.5  180.81
 9.6496  33196.8  181.989
 9.6916  32780.6  180.798
 9.7336  33321.5  182.061
 9.7756  33079  182.669
 9.8176  32636.2  180.945
 9.8596  32547.8  179.153
 9.9016  32305  178.483
 9.9436  32392.9  178.632
 9.9856  32260.8  178.542
 10.0276  31518.9  177.548
 10.0696  31437.1  176.363
 10.1116  30978.7  175.337
 10.1536  31007.1  175.566
 10.1956  30169.8  172.785
 10.2376  30110.1  172.146
 10.2796  29794.3  171.333
 10.3216  29619.6  171.117
 10.3636  29591  171.068
 10.4056  32179.9  178.815
 10.4476  32949.8  180.535
 10.4896  36314  188.922
 10.5316  33053.1  180.991
 10.5736  29561.3  171.589
 10.6156  29270.3  170.499
 10.6576  33265.2  180.211
 10.6996  29239.6  169.675
 10.7416  28158.5  166.719
 10.7836  28797.1  169.278
 10.8256  27180.6  164.885
 10.8676  27288.2  164.759
 10.9096  27164.8  164.417
 10.9516  26918.9  162.615
 10.9936  27719.3  165.231
 11.0356  27079  163.92
 11.0776  28453.5  167.342
 11.1196  28016.2  166.841
 11.1616  26344.1  161.454
 11.2036  27632.6  165.198
 11.2456  28954  169.847
 11.2876  26416.8  161.953
 11.3296  25975  160.516
 11.3716  26538.3  161.934
 11.4136  26332.4  162.194
 11.4556  26315  161.796
 11.4976  27892.4  165.538
 11.5396  27353  164.091
 11.5816  25824.3  159.894
 11.6236  25133.9  157.955
 11.6656  25682.7  158.835
 11.7076  24757.2  156.766
 11.7496  25050.5  161.68
 11.7916  25454.8  158.195
 11.8336  24271.1  155.365
 11.8756  24652.4  156.133
 11.9176  24383.8  154.956
 11.9596  24280.2  154.796
 12.0016  23943.6  154.481
 12.0436  24179.4  154.696
 12.0856  23652.4  153.497
 12.1276  23649.9  153.435
 12.1696  23832.7  153.153
 12.2116  24064.2  153.895
 12.2536  26285.4  161.699
 12.2956  24227.7  154.575
 12.3376  24237.8  154.82
 12.3796  23893.6  154.191
 12.4216  23992  153.709
 12.4636  24774.3  157.147
 12.5056  23576.5  152.571
 12.5476  23530  151.935
 12.5896  23392.1  152.131
 12.6316  23455.7  152.486
 12.6736  23398.1  152.787
 12.7156  23850.8  154.101
 12.7576  23404.5  152.896
 12.7996  23753.1  152.674
 12.8416  23979.9  154.461
 12.8836  24635.9  156.39
 12.9256  24107.6  153.735
 12.9676  23831.2  153.246
 13.0096  24071.8  155.136
 13.0516  23959.2  153.807
 13.0936  24238.8  155.116
 13.1356  24211  153.99
 13.1776  24254.1  155.144
 13.2196  24039.7  154.102
 13.2616  23715.9  153.37
 13.3036  24046  154.395
 13.3456  23575.5  153.22
 13.3876  24303.8  154.848
 13.4296  23987.5  154.007
 13.4716  24074.1  153.909
 13.5136  24106.6  154.134
 13.5556  24131.1  154.849
 13.5976  24056.4  154.78
 13.6396  24348.1  155.067
 13.6816  24137.5  154.859
 13.7236  24763.1  156.441
 13.7656  26456.1  162.188
 13.8076  27544.8  164.099
 13.8496  26485.5  161.588
 13.8916  24580  156.793
 13.9336  23524.6  152.67
 13.9756  23793.7  152.935
 14.0176  23520.2  152.723
 14.0596  24383.8  155.43
 14.1016  23403.1  152.698
 14.1436  23141.9  150.978
 14.1856  22873.8  150.388
 14.2276  22988.1  151.253
 14.2696  23304.7  152.142
 14.3116  22295.2  148.719
 14.3536  22094  148.207
 14.3956  21974.4  147.529
 14.4376  22270.4  148.308
 14.4796  22081.5  147.675
 14.5216  21741.7  147.323
 14.5636  22090.1  148.068
 14.6056  21804.5  146.666
 14.6476  21504.2  144.908
 14.6896  21293.1  144.729
 14.7316  20855.8  144.256
 14.7736  20643.5  142.679
 14.8156  20661.2  142.749
 14.8576  20543.7  142.216
 14.8996  20406.2  142.92
 14.9416  19728.4  140.551
 14.9836  19946  141.302
 15.0256  19307.2  137.946
 15.0676  19294.5  138.211
 15.1096  19258.4  137.825
 15.1516  18927.6  137.181
 15.1936  18848.5  136.331
 15.2356  18861.9  136.657
 15.2776  18610.4  135.339
 15.3196  18249.5  134.995
 15.3616  18284.9  134.887
 15.4036  18062.7  133.93
 15.4456  18636.1  135.688
 15.4876  17906.1  132.696
 15.5296  17855.4  132.787
 15.5716  17470.2  130.961
 15.6136  17687.5  132.093
 15.6556  19571.6  138.166
 15.6976  17936.1  132.561
 15.7396  17805.8  132.465
 15.7816  17528.7  130.947
 15.8236  17232  130.517
 15.8656  17183.2  130.128
 15.9076  17328.9  130.496
 15.9496  18291.9  136.918
 15.9916  17240.5  133.318
 16.0336  17521.2  131.305
 16.0756  17178.8  130.341
 16.1176  17096.7  130.101
 16.1596  16671.5  129.642
 16.2016  16707.4  128.547
 16.2436  16735.1  129.033
 16.2856  16702  128.42
 16.3276  16133.4  126.651
 16.3696  16524.4  128
 16.4116  16099.5  126.764
 16.4536  16414.8  127.829
 16.4956  17218  130.646
 16.5376  16533.3  128.206
 16.5796  16458.8  127.286
 16.6216  16202.1  126.556
 16.6636  16059.1  126.18
 16.7056  16258.5  126.828
 16.7476  16347.1  126.698
 16.7896  16234.7  127.006
 16.8316  16255.5  127.068
 16.8736  16763.5  129.292
 16.9156  16443.7  128.384
 16.9576  15831.3  126.745
 16.9996  15982.2  127.823
 17.0416  15921.5  125.975
 17.0836  15757.4  125.09
 17.1256  15668  124.741
 17.1676  16080.5  126.333
 17.2096  15913.1  125.574
 17.2516  15784.6  124.854
 17.2936  15465.9  123.932
 17.3356  15311.1  123.301
 17.3776  15173.4  122.928
 17.4196  15345.8  123.323
 17.4616  15471.2  123.739
 17.5036  15843.8  125.584
 17.5456  14962  122.667
 17.5876  15032.2  122.021
 17.6296  14858.5  121.141
 17.6716  15097.4  122.685
 17.7136  16075.1  126.73
 17.7556  14905.2  122.328
 17.7976  15200.7  123.267
 17.8396  14878.7  121.455
 17.8816  14516.6  120.52
 17.9236  14622.2  120.762
 17.9656  14572.5  121.066
 18.0076  15289.4  123.59
 18.0496  15933.2  125.278
 18.0916  19422.3  138.946
 18.1336  17604.4  132.388
 18.1756  15785.3  124.891
 18.2176  15979.2  125.879
 18.2596  14628.7  120.167
 18.3016  15223.5  122.857
 18.3436  15635.5  124.505
 18.3856  14970.6  121.965
 18.4276  14636.4  120.28
 18.4696  14747.5  120.826
 18.5116  14760.8  121.149
 18.5536  14415.5  120.089
 18.5956  14392  119.553
 18.6376  14577.2  120.719
 18.6796  14360.6  119.142
 18.7216  14358.5  119.625
 18.7636  14222.9  119.062
 18.8056  13838.9  117.364
 18.8476  13660.2  117.227
 18.8896  13763  117.01
 18.9316  14042.3  118.181
 18.9736  13882.4  117.204
 19.0156  14249.4  119.159
 19.0576  14437.7  118.778
 19.0996  14083.9  118.033
 19.1416  14197.8  118.903
 19.1836  13689.6  116.362
 19.2256  13485.5  115.711
 19.2676  13728.7  116.834
 19.3096  13565.7  116.38
 19.3516  13748.7  117.126
 19.3936  13844.5  117.425
 19.4356  13855.4  117.356
 19.4776  13805.8  117.232
 19.5196  13673.6  116.523
 19.5616  13748.3  117.102
 19.6036  13561  115.804
 19.6456  13774.7  116.818
 19.6876  14256.5  118.48
 19.7296  13947.8  117.656
 19.7716  13612.9  116.406
 19.8136  14189.9  119.039
 19.8556  14456.7  119.642
 19.8976  14681.4  120.624
 19.9396  14449.4  119.251
 19.9816  14371.8  119.177
 20.0236  14674.7  120.622
 20.0656  13823  117.066
 20.1076  13751.6  117.242
 20.1496  13363.1  115.569
 20.1916  13653.6  116.341
 20.2336  13515.1  115.675
 20.2756  13278  115.074
 20.3176  13238.8  114.661
 20.3596  13199.7  114.481
 20.4016  13174.7  114.167
 20.4436  13148.3  114.612
 20.4856  13274.4  114.957
 20.5276  12970.5  114.087
 20.5696  13157.5  114.353
 20.6116  13130.2  114.514
 20.6536  13118.6  113.984
 20.6956  12936.1  113.308
 20.7376  12825.2  113.032
 20.7796  12857.9  112.88
 20.8216  13090  113.607
 20.8636  13376.5  115.219
 20.9056  14127.4  118.341
 20.9476  13303  114.687
 20.9896  13951.7  117.313
 21.0316  13032.6  113.282
 21.0736  13386.9  115.335
 21.1156  13515.8  116.051
 21.1576  13114.9  114.364
 21.1996  12808.4  112.995
 21.2416  12846  112.993
 21.2836  12984.3  113.572
 21.3256  12862.6  113.109
 21.3676  12928.4  112.937
 21.4096  13193.9  114.42
 21.4516  12797.4  112.558
 21.4936  12507.4  111.528
 21.5356  12610.3  111.941
 21.5776  12774.9  112.505
 21.6196  12931.9  113.229
 21.6616  12843.8  112.93
 21.7036  12719.6  112.159
 21.7456  12713.7  112.211
 21.7876  12340.1  110.314
 21.8296  12340.7  110.166
 21.8716  12509.6  111.14
 21.9136  12765.1  112.466
 21.9556  12726.4  111.979
 21.9976  12551  111.23
 22.0396  12469.4  111.121
 22.0816  12508.4  111.819
 22.1236  12848.7  112.788
 22.1656  12565.4  111.678
 22.2076  12361.6  110.229
 22.2496  12390  110.381
 22.2916  12470.7  110.63
 22.3336  12371.5  110.9
 22.3756  12357.3  110.56
 22.4176  12012.7  108.862
 22.4596  11908.9  108.971
 22.5016  12273.8  110.133
 22.5436  12322.2  110.23
 22.5856  12346  110.579
 22.6276  12474  111.283
 22.6696  12353.9  111.099
 22.7116  12249.4  110.143
 22.7536  12218.1  109.981
 22.7956  12330.6  109.824
 22.8376  12016  108.925
 22.8796  12031.3  108.8
 22.9216  12065.6  109.49
 22.9636  12093.1  108.781
 23.0056  12069.5  108.807
 23.0476  12360.1  110.677
 23.0896  12530.8  110.819
 23.1316  12468.4  110.977
 23.1736  12302.8  113.147
 23.2156  12500.7  111.447
 23.2576  12658.9  112.284
 23.2996  12333.6  110.616
 23.3416  12644.2  112.525
 23.3836  12401.2  110.679
 23.4256  12521.4  111.328
 23.4676  12568.2  111.234
 23.5096  12539.4  111.762
 23.5516  12308  110.033
 23.5936  12456.5  111.599
 23.6356  12796.1  112.776
 23.6776  12366.8  111.075
 23.7196  12305.7  110.381
 23.7616  12341.4  110.46
 23.8036  12552.5  111.456
 23.8456  12146.4  109.192
 23.8876  12347  110.454
 23.9296  12215.4  110.346
 23.9716  12242.8  109.677
 24.0136  12400.6  111.285
 24.0556  12161  109.92
 24.0976  11971.8  108.883
 24.1396  11908.1  111.18
 24.1816  12054.1  110.292
 24.2236  12239.5  110.751
 24.2656  12079.8  109.503
 24.3076  12072.2  109.738
 24.3496  12183.2  110.12
 24.3916  12334.3  110.85
 24.4336  12110.8  110.04
 24.4756  11976.7  109.322
 24.5176  11812.5  108.204
 24.5596  11688.8  107.736
 24.6016  11666.6  107.939
 24.6436  11941.9  108.717
 24.6856  11724.7  107.468
 24.7276  11661.7  107.49
 24.7696  11787.3  108.179
 24.8116  11629.4  107.634
 24.8536  11617.5  107.589
 24.8956  11522.3  106.874
 24.9376  11631.9  107.31
 24.9796  11455.4  106.854
 25.0216  11608.9  107.687
 25.0636  11483.6  106.757
 25.1056  11265.7  106.429
 25.1476  11243.1  107.99
 25.1896  11203.5  106.285
 25.2316  11189.6  105.502
 25.2736  11166.6  105.041
 25.3156  11080.5  104.713
 25.3576  10968.7  104.605
 25.3996  11140  105.41
 25.4416  10913.5  104.306
 25.4836  10960.7  105.05
 25.5256  11022.8  104.705
 25.5676  11200.5  105.279
 25.6096  10909  104.47
 25.6516  10993.3  104.38
 25.6936  10922.7  104.361
 25.7356  10985  104.783
 25.7776  11012.7  104.524
 25.8196  10779.7  103.647
 25.8616  10933.1  104.315
 25.9036  11084.9  104.486
 25.9456  10808  103.772
 25.9876  10597.1  102.812
 26.0296  10927.8  103.921
 26.0716  10985.4  104.621
 26.1136  11187.2  105.505
 26.1556  11152  104.724
 26.1976  10704.4  103.522
 26.2396  10824.8  103.261
 26.2816  10654.9  103.054
 26.3236  10946.1  104.596
 26.3656  10994.1  104.553
 26.4076  10644.8  103.067
 26.4496  10920.1  104.006
 26.4916  11002.8  104.287
 26.5336  11277.7  105.927
 26.5756  11625.4  107.428
 26.6176  11018.2  104.602
 26.6596  10739.9  103.569
 26.7016  10633.5  102.827
 26.7436  10641.9  102.995
 26.7856  10530.4  102.45
 26.8276  10461.4  102.078
 26.8696  10417.9  101.731
 26.9116  10472.6  101.938
 26.9536  10366.7  101.463
 26.9956  10264.4  101.002
 27.0376  10464  102.202
 27.0796  10440.8  101.817
 27.1216  10469.9  102.021
 27.1636  10305.1  101.373
 27.2056  10270.2  101.09
 27.2476  10304  101.248
 27.2896  10191.5  100.808
 27.3316  10117.1  100.156
 27.3736  10068.6  100.192
 27.4156  10319.9  101.274
 27.4576  10266.5  101.234
 27.4996  10340  101.204
 27.5416  10248.6  101.051
 27.5836  10279.5  101.048
 27.6256  10211.8  100.898
 27.6676  10216.5  100.91
 27.7096  10364  101.514
 27.7516  10626.7  102.939
 27.7936  10838.3  104.114
 27.8356  10537.3  102.268
 27.8776  10606.3  102.666
 27.9196  10305.6  101.055
 27.9616  10489.6  102.155
 28.0036  10343.1  101.389
 28.0456  10098.4  100.328
 28.0876  9984.46  99.8504
 28.1296  10009.6  99.8144
 28.1716  10074.1  100.149
 28.2136  10014  99.8145
 28.2556  10046.3  100.095
 28.2976  9877.92  99.2435
 28.3396  10041.1  99.8141
 28.3816  10041.5  99.8237
 28.4236  9991.62  99.7385
 28.4656  9850.08  99.0655
 28.5076  9811.33  98.5142
 28.5496  9785.28  98.6337
 28.5916  9897.17  99.013
 28.6336  9813.69  98.9346
 28.6756  9830.29  98.2244
 28.7176  9776.55  98.4976
 28.7596  9679.67  97.9051
 28.8016  9790.24  98.5008
 28.8436  9758.72  98.5827
 28.8856  9840.42  98.8459
 28.9276  9919.21  99.4843
 28.9696  9553.29  97.2994
 29.0116  9566.49  97.5493
 29.0536  9577.6  97.8079
 29.0956  9703.48  98.1535
 29.1376  9708.56  98.1519
 29.1796  9607.84  97.6871
 29.2216  9518.96  97.0703
 29.2636  9617.01  97.6488
 29.3056  9582.14  97.2539
 29.3476  9499.81  97.356
 29.3896  9678.03  98.3834
 29.4316  9435.45  96.479
 29.4736  9388.05  96.2969
 29.5156  9463.36  96.6083
 29.5576  9321.51  96.6016
 29.5996  9403.24  96.2972
 29.6416  9415.88  96.4776
 29.6836  9391.48  96.2834
 29.7256  9198.4  95.8412
 29.7676  9380.03  96.4481
 29.8096  9244.67  95.6933
 29.8516  9201.49  95.7982
 29.8936  9322.87  96.5156
 29.9356  9377.64  96.5578
 29.9776  9339.76  96.5148
 30.0196  9431.98  96.3754
 30.0616  9327.03  96.2129
 30.1036  9265.29  95.7227
 30.1456  9143.08  95.3147
 30.1876  9205.65  95.6223
 30.2296  9098.54  95.0158
 30.2716  9275.76  95.577
 30.3136  9242.28  96.2507
 30.3556  9454.2  97.3483
 30.3976  9317.38  98.134
 30.4396  9713.59  97.5355
 30.4816  9495.53  96.0257
 30.5236  9549.35  96.3036
 30.5656  9487.29  96.6623
 30.6076  9448.89  95.8847
 30.6496  9506.16  96.5589
 30.6916  9232.8  95.2636
 30.7336  9210.21  95.2959
 30.7756  9275.64  95.7154
 30.8176  9279.68  95.6463
 30.8596  9302.33  95.5191
 30.9016  9221.27  95.4599
 30.9436  9263.53  95.4314
 30.9856  9345.51  95.9763
 31.0276  9293.5  95.3306
 31.0696  9257.15  95.6995
 31.1116  9224.07  95.5018
 31.1536  9247.3  95.4905
 31.1956  9270.47  95.6916
 31.2376  8988.91  94.2637
 31.2796  9116.41  94.4696
 31.3216  9321.8  95.4652
 31.3636  9243.73  95.7527
 31.4056  9113.44  96.375
 31.4476  9348.08  95.5097
 31.4896  9118.29  94.8236
 31.5316  9424.53  95.8029
 31.5736  9966.57  98.344
 31.6156  9822.94  97.6369
 31.6576  9600.9  96.5976
 31.6996  9523.27  95.8763
 31.7416  9422.96  96.4746
 31.7836  9421.97  95.4584
 31.8256  9280.26  95.0018
 31.8676  9308.52  95.1126
 31.9096  9153.29  94.713
 31.9516  9112.75  94.6727
 31.9936  9026.12  94.0385
 32.0356  9217.81  95.0856
 32.0776  9427.75  96.052
 32.1196  9250.24  95.2555
 32.1616  9296.71  94.9327
 32.2036  9104.18  94.4629
 32.2456  9085.25  94.7409
 32.2876  9186.2  94.7632
 32.3296  9115.04  94.3632
 32.3716  9002.13  93.8808
 32.4136  8951.4  93.8227
 32.4556  9142.88  94.2001
 32.4976  9055.89  93.6659
 32.5396  8872.12  92.7711
 32.5816  8878.93  92.9375
 32.6236  8909.36  93.1554
 32.6656  8924.93  93.7842
 32.7076  8852.62  93.0538
 32.7496  8812.37  92.521
 32.7916  8927.13  93.0827
 32.8336  8868.49  92.8635
 32.8756  8986.57  93.2083
 32.9176  8801.81  92.7245
 32.9596  8915.88  93.392
 33.0016  8924.61  93.1832
 33.0436  8810.09  92.7941
 33.0856  8846.86  93.0711
 33.1276  8829.58  92.7189
 33.1696  8899.46  92.9053
 33.2116  8762.59  92.4179
 33.2536  8884.2  93.055
 33.2956  8765.85  92.5229
 33.3376  8727.68  92.063
 33.3796  8801.51  92.6623
 33.4216  8702.56  91.7359
 33.4636  8697.21  91.8613
 33.5056  8671.75  91.9696
 33.5476  8773.17  92.4765
 33.5896  8684.63  91.8113
 33.6316  8678.18  92.0805
 33.6736  8520.53  91.4889
 33.7156  8640.29  92.1604
 33.7576  8709.94  92.1745
 33.7996  8746.75  92.1288
 33.8416  8566.17  91.3605
 33.8836  8618.39  91.4155
 33.9256  8737.48  92.0959
 33.9676  8727.2  91.9355
 34.0096  8604.17  91.6054
 34.0516  8480.39  90.5794
 34.0936  8525.8  91.0964
 34.1356  8725  91.894
 34.1776  8458.55  90.474
 34.2196  8392.76  90.3082
 34.2616  8406.39  90.5119
 34.3036  8548.85  91.5198
 34.3456  8511.34  91.0748
 34.3876  8590.28  91.4738
 34.4296  8587.43  91.1477
 34.4716  8627.8  91.5105
 34.5136  8507.35  91.0534
 34.5556  8471.78  91.1321
 34.5976  8662.77  91.9608
 34.6396  8442.35  90.4979
 34.6816  8650.19  91.7118
 34.7236  8597.23  91.2086
 34.7656  8625.98  91.5668
 34.8076  8399.14  90.6844
 34.8496  8329.92  90.1579
 34.8916  8475.45  90.8031
 34.9336  8479.57  90.8134
 34.9756  8512.86  90.9123
 35.0176  8492.69  91.3311
 35.0596  8588.52  91.6636
 35.1016  8567.26  91.3089
 35.1436  8766.06  92.0379
 35.1856  8451.91  90.5016
 35.2276  8480.38  90.8207
 35.2696  8491.45  91.0724
 35.3116  8418.75  90.7905
 35.3536  8326.88  90.0011
 35.3956  8416.74  90.2025
 35.4376  8510.94  91.2729
 35.4796  8375.86  90.5833
 35.5216  8369.11  90.5129
 35.5636  8245.93  90.5783
 35.6056  8376  90.3117
 35.6476  8394.42  90.317
 35.6896  8369.63  90.2719
 35.7316  8406.04  90.4431
 35.7736  8285.89  89.975
 35.8156  8327.15  90.2054
 35.8576  8379.67  90.729
 35.8996  8383.33  90.7215
 35.9416  8303.57  89.7959
 35.9836  8396.99  90.6405
 36.0256  8513.53  91.2812
 36.0676  8486.22  90.8985
 36.1096  8419.17  90.6803
 36.1516  8543.93  91.2428
 36.1936  8379.25  90.2084
 36.2356  8348.69  90.6818
 36.2776  8264.08  89.7085
 36.3196  8317.8  89.6642
 36.3616  8360.82  90.0303
 36.4036  8305.46  89.7996
 36.4456  8278.07  89.8601
 36.4876  8205.56  89.4041
 36.5296  8237.01  89.6109
 36.5716  8278.75  90.6079
 36.6136  8325.24  89.6514
 36.6556  8259.6  89.4979
 36.6976  8072.24  88.9656
 36.7396  8089.97  88.7962
 36.7816  8140.04  89.442
 36.8236  8005.47  88.6232
 36.8656  8035.99  88.8531
 36.9076  8149.38  89.3654
 36.9496  7986.23  88.4577
 36.9916  7960.4  87.9471
 37.0336  8143.99  89.274
 37.0756  8078.92  88.7077
 37.1176  7843.43  87.6669
 37.1596  7961.14  88.3239
 37.2016  7971.03  88.6081
 37.2436  8029.24  88.2548
 37.2856  7879.23  87.6671
 37.3276  8081.02  88.1499
 37.3696  7978.67  88.4629
 37.4116  7930.63  88.1054
 37.4536  7849.31  87.5181
 37.4956  7787.54  87.2171
 37.5376  8116.02  90.6265
 37.5796  7972.97  89.7509
 37.6216  7949.5  87.9047
 37.6636  8119.3  88.7202
 37.7056  8003.87  88.2856
 37.7476  8204.14  88.9273
 37.7896  8010.14  88.3742
 37.8316  7997.74  88.4497
 37.8736  8064.5  88.3468
 37.9156  8056.98  88.292
 37.9576  8081.69  88.356
 37.9996  7828.13  86.6763
 38.0416  7796.41  87.2827
 38.0836  8082.01  88.7816
 38.1256  7984.61  88.2182
 38.1676  7981.58  88.3146
 38.2096  8119.9  88.687
 38.2516  7970.04  88.0898
 38.2936  8125.14  88.7351
 38.3356  8001.81  87.992
 38.3776  7911.26  87.733
 38.4196  7955.27  87.8406
 38.4616  8067.22  88.7063
 38.5036  8044.21  88.4205
 38.5456  7878.65  88.33
 38.5876  7860.92  88.2387
 38.6296  8010.16  88.0535
 38.6716  7924.32  87.3835
 38.7136  7822.13  86.7668
 38.7556  7890.79  87.6501
 38.7976  8010.06  88.2394
 38.8396  7928.1  88.2458
 38.8816  7816.67  87.4185
 38.9236  7861.59  87.4686
 38.9656  7988.05  88.0809
 39.0076  7934.13  87.1878
 39.0496  7940.22  87.7733
 39.0916  7931.83  87.3722
 39.1336  7886.44  87.5245
 39.1756  7970.89  88.0605
 39.2176  7821.72  87.76
 39.2596  7982.77  88.5801
 39.3016  7877.13  87.5815
 39.3436  7962.56  88.4672
 39.3856  8044.88  88.3584
 39.4276  7995.64  88.6054
 39.4696  7944.15  87.9368
 39.5116  7920.68  88.3225
 39.5536  7903.95  88.6501
 39.5956  7901.02  87.7375
 39.6376  7850.96  87.4629
 39.6796  7819.49  87.0288
 39.7216  7745.05  86.7195
 39.7636  7859.17  87.9127
 39.8056  7964.96  88.293
 39.8476  7819.49  87.7316
 39.8896  7911.35  87.8766
 39.9316  7714.55  87.0249
 39.9736  7908.19  87.6833
 40.0156  7861.63  87.2563
 40.0576  7826.47  87.407
 40.0996  7961.94  87.3371
 40.1416  7960.3  88.1309
 40.1836  7897.69  87.6792
 40.2256  7801.15  87.1779
 40.2676  7943.68  88.072
 40.3096  7992.71  88.2727
 40.3516  7984.85  88.332
 40.3936  8061.09  88.3061
 40.4356  7823.79  87.2056
 40.4776  7844.32  87.7257
 40.5196  7972.73  88.5608
 40.5616  8011.89  88.4215
 40.6036  7851.28  87.7869
 40.6456  7838.47  87.3208
 40.6876  7933.45  87.8444
 40.7296  7765.35  87.0353
 40.7716  7995.85  88.4514
 40.8136  7779.22  87.186
 40.8556  7940.7  88.2169
 40.8976  7941.13  88.1474
 40.9396  7985.61  88.7328
 40.9816  7942.2  87.7811
 41.0236  7891.09  87.2911
 41.0656  7960.12  88.2099
 41.1076  7934.96  87.8387
 41.1496  7822.75  87.1236
 41.1916  7874.51  87.7288
 41.2336  7956.43  88.1781
 41.2756  7919.7  87.5858
 41.3176  7980.75  88.5172
 41.3596  7951.08  88.1018
 41.4016  7800.41  87.5185
 41.4436  7950.52  88.1434
 41.4856  7866.47  87.8374
 41.5276  7869.66  87.8776
 41.5696  7824.41  87.2579
 41.6116  7963.17  88.4148
 41.6536  7937.34  88.1197
 41.6956  7958.75  88.3134
 41.7376  7798.76  87.4448
 41.7796  7762.57  87.1324
 41.8216  7927.98  88.2739
 41.8636  7884.48  87.9854
 41.9056  7921.69  87.9796
 41.9476  8017.19  88.745
 41.9896  7917.2  87.8513
 42.0316  7884.62  87.7618
 42.0736  7981.78  88.4045
 42.1156  7813.38  87.3014
 42.1576  7869.44  87.7219
 42.1996  7974.31  88.4459
 42.2416  7853.76  87.3521
 42.2836  7855.81  87.4782
 42.3256  7885.78  87.7607
 42.3676  7948.07  87.8994
 42.4096  7833.16  87.2359
 42.4516  7888.53  87.632
 42.4936  7791.25  87.1559
 42.5356  7708.08  86.829
 42.5776  7761.49  87.0661
 42.6196  7792.42  87.2894
 42.6616  7599.59  86.3746
 42.7036  7827.76  87.0367
 42.7456  7878.36  87.6753
 42.7876  7775.14  87.1971
 42.8296  7842.89  87.4136
 42.8716  7685.05  86.6955
 42.9136  7759.19  86.8966
 42.9556  7775.02  87.1207
 42.9976  7801.48  87.2368
 43.0396  7727.22  86.5488
 43.0816  7599.58  86.2098
 43.1236  7716.28  86.918
 43.1656  7765.32  87.0136
 43.2076  7691.38  86.7227
 43.2496  7744.87  86.8391
 43.2916  7668.63  86.7661
 43.3336  7814.62  87.4219
 43.3756  7794.74  87.0653
 43.4176  7587.86  85.9765
 43.4596  7614.7  85.9928
 43.5016  7582.19  86.2056
 43.5436  7704.85  86.8049
 43.5856  7648.46  86.5235
 43.6276  7646.23  86.4038
 43.6696  7609.82  86.4499
 43.7116  7691.79  86.407
 43.7536  7762.54  87.3026
 43.7956  7624.52  87.7067
 43.8376  7540.7  85.7794
 43.8796  7384.89  84.9699
 43.9216  7554.19  85.8589
 43.9636  7565.56  86.0325
 44.0056  7566.46  86.2658
 44.0476  7452.95  85.2501
 44.0896  7399.66  85.2781
 44.1316  7485.15  85.2998
 44.1736  7434.42  85.1363
 44.2156  7443.34  85.0395
 44.2576  7659.08  86.5892
 44.2996  7489.71  85.5972
 44.3416  7611.77  86.0506
 44.3836  7394.32  85.1386
 44.4256  7348.99  84.5312
 44.4676  7418.71  85.0845
 44.5096  7374.27  84.9686
 44.5516  7365.57  84.8885
 44.5936  7375.28  84.8964
 44.6356  7484  85.2567
 44.6776  7414.42  85.1758
 44.7196  7490.43  85.9201
 44.7616  7434.94  86.9063
 44.8036  7464.12  85.5263
 44.8456  7560.92  86.2815
 44.8876  7569.82  86.1763
 44.9296  7677.93  86.2373
 44.9716  7554.5  85.9749
 45.0136  7580.55  86.0574
 45.0556  7704.09  86.7315
 45.0976  7578.49  86.1705
 45.1396  7447.06  85.1831
 45.1816  7591.69  85.9496
 45.2236  7551.63  85.6257
 45.2656  7604.22  86.4259
 45.3076  7413.47  85.1173
 45.3496  7443.62  85.5975
 45.3916  7536.83  86.4026
 45.4336  7520.92  86.1448
 45.4756  7336.17  84.9384
 45.5176  7646.15  86.334
 45.5596  7598.97  86.1827
 45.6016  7573.18  86.4671
 45.6436  7476.25  85.0807
 45.6856  7419.87  85.4191
 45.7276  7309.53  86.0834
 45.7696  7468.26  86.6905
 45.8116  7477.97  86.1766
 45.8536  7358.08  85.3687
 45.8956  7497.93  85.5358
 45.9376  7534.41  85.2083
 45.9796  7431.57  85.3022
 46.0216  7441.32  85.6838
 46.0636  7542.09  85.4176
 46.1056  7492.06  85.1275
 46.1476  7429.97  85.3662
 46.1896  7446.27  85.602
 46.2316  7518.47  85.8914
 46.2736  7324.06  85.1424
 46.3156  7409.16  85.219
 46.3576  7523.17  86.077
 46.3996  7407.15  85.56
 46.4416  7434.38  85.3004
 46.4836  7290.62  84.822
 46.5256  7447.67  85.673
 46.5676  7439.61  85.7445
 46.6096  7349.19  85.1501
 46.6516  7457.41  84.8174
 46.6936  7507.65  85.6011
 46.7356  7455.59  85.3998
 46.7776  7380.29  85.8246
 46.8196  7360.62  85.2993
 46.8616  7297.32  84.882
 46.9036  7251.65  84.2726
 46.9456  7446.01  85.0382
 46.9876  7367.51  84.6643
 47.0296  7447.96  85.8294
 47.0716  7262.02  84.5687
 47.1136  7355.93  84.7937
 47.1556  7430.48  85.0881
 47.1976  7432.99  85.1881
 47.2396  7326.19  84.9673
 47.2816  7180.21  83.8187
 47.3236  7250.76  84.5977
 47.3656  7411.83  85.4649
 47.4076  7271.05  84.4512
 47.4496  7284.34  84.625
 47.4916  7326.33  85.0567
 47.5336  7345.08  84.9831
 47.5756  7368.22  85.2336
 47.6176  7308.52  84.7856
 47.6596  7322.48  84.5795
 47.7016  7405.81  84.8603
 47.7436  7375.06  85.0394
 47.7856  7444.68  85.4557
 47.8276  7273.59  84.5259
 47.8696  7307.07  84.7987
 47.9116  7355.81  84.8021
 47.9536  7316.84  84.5135
 47.9956  7196.17  84.5253
 48.0376  7242.47  84.568
 48.0796  7374.11  85.4649
 48.1216  7217.94  84.3713
 48.1636  7414.3  85.0807
 48.2056  7380.15  85.1534
 48.2476  7451.08  85.8739
 48.2896  7406.63  85.5224
 48.3316  7321.03  84.9714
 48.3736  7313.22  84.9493
 48.4156  7304.03  84.7474
 48.4576  7304.34  85.0431
 48.4996  7426.82  85.203
 48.5416  7426.65  85.5322
 48.5836  7287.64  84.4019
 48.6256  7422.66  85.3969
 48.6676  7371.8  85.6129
 48.7096  7380.87  84.9298
 48.7516  7282.87  84.5152
 48.7936  7290.18  84.6206
 48.8356  7309.76  84.7848
 48.8776  7332.51  85.4924
 48.9196  7423.23  85.3808
 48.9616  7308.79  85.1071
 49.0036  7300.25  85.4052
 49.0456  7264.4  85.1784
 49.0876  7303.11  84.9268
 49.1296  7208.74  84.5515
 49.1716  7204.8  84.3931
 49.2136  7360.35  85.2289
 49.2556  7285.98  84.8311
 49.2976  7374.57  85.4081
 49.3396  7198.19  84.4379
 49.3816  7397.95  85.0213
 49.4236  7306.86  84.9247
 49.4656  7204.63  84.3511
 49.5076  7298.83  84.6464
 49.5496  7259.8  84.4799
 49.5916  7342.64  84.8799
 49.6336  7243.94  84.5063
 49.6756  7215.09  84.5757
 49.7176  7218.55  84.5384
 49.7596  7201.62  84.2056
 49.8016  7278.52  84.5782
 49.8436  7272.59  84.8394
 49.8856  7294.76  84.9624
 49.9276  7225.06  84.6651
 49.9696  7267.55  84.8965
 50.0116  7269.72  85.0359
 50.0536  7207.95  84.6205
 50.0956  7154.95  84.3944
 50.1376  7251.86  84.6448
 50.1796  7154.07  84.3556
 50.2216  7184.37  84.5274
 50.2636  7172.07  84.0694
 50.3056  7110.51  83.8796
 50.3476  7223.48  84.5702
 50.3896  7182  84.2975
 50.4316  7289.31  84.7504
 50.4736  7122.9  84.0022
 50.5156  7189.24  84.3775
 50.5576  7274.55  84.6283
 50.5996  7111.68  83.97
 50.6416  7167.33  84.223
 50.6836  7195.26  84.4498
 50.7256  7173.41  84.2368
 50.7676  7182.59  84.6213
 50.8096  7283.54  84.7354
 50.8516  7099.25  84.0819
 50.8936  7040.45  83.512
 50.9356  7218.22  84.6644
 50.9776  7105.94  84.1674
 51.0196  6976.24  83.5206
 51.0616  7096.53  83.5483
 51.1036  6990.08  83.2828
 51.1456  7092.24  83.7996
 51.1876  7153.83  83.4814
 51.2296  6937.4  82.8537
 51.2716  6949.64  82.6304
 51.3136  6881.28  82.6865
 51.3556  6949.53  82.712
 51.3976  6988.35  83.0934
 51.4396  6863.85  82.6665
 51.4816  6980.48  83.2166
 51.5236  7066.54  83.813
 51.5656  6984.52  82.9218
 51.6076  6918.33  82.6091
 51.6496  6955.64  83.0265
 51.6916  6909.48  83.1088
 51.7336  6823.52  82.6847
 51.7756  6899.55  82.8231
 51.8176  6890.55  82.8942
 51.8596  7003.18  83.5843
 51.9016  7062.2  83.534
 51.9436  6995.21  84.6482
 51.9856  7006.55  85.1312
 52.0276  6971.34  83.3974
 52.0696  7135.38  84.4346
 52.1116  6846.87  82.8405
 52.1536  7089.84  84.181
 52.1956  6950.54  82.8074
 52.2376  7171.45  84.2838
 52.2796  7133.92  83.8817
 52.3216  6849.38  82.8686
 52.3636  6880.79  82.628
 52.4056  7120.81  83.9278
 52.4476  6946.5  83.2537
 52.4896  6932.38  83.2083
 52.5316  7041.22  83.9265
 52.5736  6834.38  82.402
 52.6156  6998.94  83.7915
 52.6576  6870.95  82.4511
 52.6996  6768.52  82.8279
 52.7416  6726.65  82.4224
 52.7836  6892.39  83.3221
 52.8256  6924.91  82.7176
 52.8676  6717.98  82.0506
 52.9096  6983.45  83.7345
 52.9516  6867.81  83.4277
 52.9936  6926.46  84.1577
 53.0356  6924.83  83.1274
 53.0776  6951.78  83.5727
 53.1196  6889.32  83.3137
 53.1616  6928.47  83.6065
 53.2036  6865.38  83.1824
 53.2456  6822.73  83.0304
 53.2876  6989.63  83.7286
 53.3296  6928.79  83.6748
 53.3716  7073.26  84.3037
 53.4136  6951.18  83.7263
 53.4556  6886.78  83.3686
 53.4976  6914.54  83.3696
 53.5396  6800.81  83.0874
 53.5816  6753.96  82.4309
 53.6236  6807.17  83.1141
 53.6656  6951.5  83.577
 53.7076  6891.17  83.1866
 53.7496  6996.19  83.9436
 53.7916  6891.54  83.4502
 53.8336  6953.02  83.7082
 53.8756  6771.72  83.1733
 53.9176  6852.13  82.9951
 53.9596  6580.66  82.0879
 54.0016  6632.33  81.7477
 54.0436  6500.78  81.1489
 54.0856  6696.28  81.782
 54.1276  6626.24  81.5513
 54.1696  6709.22  82.2213
 54.2116  6720.36  82.036
 54.2536  6630.06  81.3016
 54.2956  6686.19  81.7012
 54.3376  6544.85  81.3216
 54.3796  6612.52  81.6064
 54.4216  6601.14  81.6094
 54.4636  6581.1  81.4551
 54.5056  6572.33  81.2098
 54.5476  6492.03  81.0468
 54.5896  6619.46  81.6817
 54.6316  6653.12  81.7304
 54.6736  6588.24  81.4178
 54.7156  6596.85  81.489
 54.7576  6473.67  80.7102
 54.7996  6612.58  81.7145
 54.8416  6511.11  81.1496
 54.8836  6546.49  81.4573
 54.9256  6402.03  80.3217
 54.9676  6424.98  80.322
 55.0096  6506.34  80.8749
 55.0516  6435.04  80.6665
 55.0936  6481.48  80.6113
 55.1356  6382.6  80.0337
 55.1776  6575.25  81.4703
 55.2196  6493.79  80.7653
 55.2616  6626.06  81.8085
 55.3036  6425.41  80.7264
 55.3456  6346.01  80.3709
 55.3876  6418.96  80.5571
 55.4296  6356.85  80.1616
 55.4716  6399.37  80.4571
 55.5136  6423.71  80.3638
 55.5556  6644.79  81.7931
 55.5976  6413.49  80.4292
 55.6396  6496.48  80.9023
 55.6816  6450.85  80.4737
 55.7236  6342.82  79.8681
 55.7656  6429.41  80.1123
 55.8076  6420.26  80.0765
 55.8496  6354.13  79.9786
 55.8916  6318.54  79.9633
 55.9336  6505.98  80.9732
 55.9756  6313.41  79.6427
 56.0176  6319.43  79.8167
 56.0596  6289.18  79.6229
 56.1016  6321.07  79.8513
 56.1436  6247.15  79.6091
 56.1856  6217.33  79.1929
 56.2276  6504.38  81.0588
 56.2696  6279.11  79.6101
 56.3116  6436.38  80.9928
 56.3536  6374.76  80.2631
 56.3956  6342.85  80.0444
 56.4376  6273.59  79.6455
 56.4796  6196.94  78.9719
 56.5216  6311.86  80.0888
 56.5636  6259.14  79.3093
 56.6056  6373.52  80.2693
 56.6476  6326.05  79.5801
 56.6896  6561.72  81.5341
 56.7316  6357.98  80.1773
 56.7736  6327.34  79.9797
 56.8156  6315.83  79.908
 56.8576  6104.05  78.5085
 56.8996  6230.8  79.2251
 56.9416  6260.33  79.727
 56.9836  6339.11  79.7417
 57.0256  6295.39  79.7868
 57.0676  6284.58  79.8339
 57.1096  6210.25  79.1509
 57.1516  6324.53  79.9171
 57.1936  6273.38  79.3637
 57.2356  6151.88  78.9178
 57.2776  6179.01  79.0562
 57.3196  6239.8  79.7701
 57.3616  6263.45  79.4163
 57.4036  6232.72  79.2962
 57.4456  6259.28  79.4469
 57.4876  6239.67  79.1866
 57.5296  6129.81  78.8223
 57.5716  6218.56  79.3883
 57.6136  6119.83  78.5911
 57.6556  6198.51  79.2046
 57.6976  6282.58  79.5863
 57.7396  6110.67  78.8297
 57.7816  6076.61  78.981
 57.8236  6179.93  79.4426
 57.8656  6259.18  79.6065
 57.9076  6205.24  79.2879
 57.9496  6083.56  78.8729
 57.9916  6218.62  79.2402
 58.0336  6017.57  78.2299
 58.0756  6157.49  78.7748
 58.1176  6091.95  78.3254
 58.1596  5944.9  77.971
 58.2016  5910.62  76.9752
 58.2436  5946.87  77.6152
 58.2856  5844.82  76.871
 58.3276  5845.37  77.2375
 58.3696  5919.86  77.4833
 58.4116  5969.78  77.6745
 58.4536  5933.12  77.3215
 58.4956  5931.54  77.4926
 58.5376  5983.94  77.4087
 58.5796  5864.47  77.048
 58.6216  5912.7  77.1859
 58.6636  5968.28  77.7553
 58.7056  5927.3  77.347
 58.7476  5881.12  77.4833
 58.7896  5849.13  76.9232
 58.8316  5957.69  77.6281
 58.8736  5929.78  77.4569
 58.9156  5862.69  77.0599
 58.9576  5954.06  77.9788
 58.9996  5956.02  77.2451
 59.0416  5995.43  77.8638
 59.0836  5866.57  76.9421
 59.1256  5826.31  77.3636
 59.1676  5941  78.4316
 59.2096  5986.81  78.0444
 59.2516  6018.54  77.8326
 59.2936  5868.7  77.1811
 59.3356  5754.64  76.3081
 59.3776  5982.73  77.9738
 59.4196  5888.43  77.2942
 59.4616  5812.24  76.6546
 59.5036  5769.87  76.4094
 59.5456  6074.92  78.0956
 59.5876  5999.62  77.8005
 59.6296  5818.81  76.6872
 59.6716  5842.79  76.902
 59.7136  5804.03  76.635
 59.7556  5854.72  77.1033
 59.7976  5846.88  76.7979
 59.8396  5883.63  76.9345
 59.8816  5745.22  76.5566
 59.9236  5836.39  76.811
 59.9656  5824.65  76.9897
 60.0076  5953.81  77.2005
 60.0496  5805.41  76.725
 60.0916  5994.81  77.3881
 60.1336  5796.34  77.1811
 60.1756  5726.03  77.8648
 60.1996  0.0000000E+00  0.0000000E+00