File: docs/examples/opeando_xrd/IS17_D/Data/IS17_D/17_Db_f00015.xye
# /beamlines/bl04/projects/cycle2025-II/20250340211-lsimonelli/DATA/IS17_D/17_Db_f00015.xye : mythproc.py merge -s 0.006 -l 0.5 -f /beamlines/bl04/inhouse/ff/FlatField/ff_20Nov2024rod8mm60s_17keV.raw -b True -c true -o xye /beamlines/bl04/projects/cycle2025-II/20250340211-lsimonelli/DATA/IS17_D/17_Db_00015.dat
# IsMon = [6748517, 6751198, 6747566]  IsPos = [-1.5000, -2.4885, -3.4988]
# Wave = 0.4962  CalPath /beamlines/bl04/projects/cycle2025-II/20250340211-lsimonelli/DATA/Align/Si_Pos1_25keV_f00001.cal
# Date = 2025-09-23_21:51:14 Dt = 4.8000  Bin = 0.0060  <imon> = 6749094 +/- 1538 (Min/Max) 6747566 / 6751198
# icurr 249.9417  mocoIn 1.7057E-05  mocoOut 0.8001  i15 7.06675e+06  imon 6.74909e+06  i7 5.0000  iEMpd_timer 4.8000  iEMpd_1 3.4110E-08  iEMpd_2 7.7819E-08  iEMpd_3 1.7799E-08  iEMpd_4 4.6223E-08  iEMhp_timer 4.8000  iEMhp_1 4.8845E-06  iEMhp_2 -2.6438E-08  iEMhp_3 -2.3914E-08  iEMhp_4 -2.2126E-08
#      9776
 1.5856  40989.7  207.902
 1.6276  47976.3  221.064
 1.6696  53536.6  232.7
 1.7116  61646.2  250.191
 1.7536  69433.9  264.394
 1.7956  73241.5  272.224
 1.8376  70150.8  266.841
 1.8796  60061.4  245.101
 1.9216  49401.1  223.165
 1.9636  42264.4  206.09
 2.0056  38110.9  194.452
 2.0476  35170.2  188.847
 2.0896  34134.2  184.954
 2.1316  33239.5  181.636
 2.1736  31460.6  178.111
 2.2156  32501.9  179.581
 2.2576  31098.6  176.293
 2.2996  29692.8  172.893
 2.3416  30328.1  173.34
 2.3836  29655.4  171.511
 2.4256  28962.2  170.047
 2.4676  28907.9  169.646
 2.5096  29356.8  171.015
 2.5516  38904.6  201.31
 2.5936  179485  423.855
 2.6356  33390.1  183.576
 2.6776  27751.7  166.262
 2.7196  26238.5  162.148
 2.7616  26071.3  161.421
 2.8036  25410  159.513
 2.8456  25152.7  159.334
 2.8876  24567.8  157.307
 2.9296  24223.3  156.352
 2.9716  24086  155.41
 3.0136  23551.1  153.747
 3.0556  23685.5  154.564
 3.0976  23880.2  154.121
 3.1396  23480.6  153.523
 3.1816  23153.3  152.412
 3.2236  23082  152.157
 3.2656  22710.3  150.015
 3.3076  22816.7  151.792
 3.3496  22988.7  151.554
 3.3916  23538.5  152.94
 3.4336  23834.5  154.477
 3.4756  24238  155.723
 3.5176  24882.6  157.543
 3.5596  24228.3  158.387
 3.6016  24498.5  156.405
 3.6436  23804.6  155.247
 3.6856  23365.8  152.17
 3.7276  22492.7  150.34
 3.7696  22320.2  149.758
 3.8116  21864.7  148.306
 3.8536  22015.2  148.758
 3.8956  21868.3  148.075
 3.9376  22992.1  152.104
 3.9796  21995.2  148.27
 4.0216  21942.1  147.148
 4.0636  21892.3  148.417
 4.1056  21777.3  147.686
 4.1476  22230.5  149.517
 4.1896  22340.3  149.75
 4.2316  22343.4  149.606
 4.2736  22624.3  150.34
 4.3156  22954.2  151.664
 4.3576  23752.9  154.177
 4.3996  23904.6  154.927
 4.4416  24768.9  157.307
 4.4836  26241.3  162.071
 4.5256  26174.6  162.467
 4.5676  25573.7  160.84
 4.6096  25666.4  160.184
 4.6516  26362.3  161.689
 4.6936  26670.3  163.447
 4.7356  27779.8  166.626
 4.7776  26724  163.261
 4.8196  26326.4  162.675
 4.8616  25810.3  160.708
 4.9036  25789.1  160.245
 4.9456  25714.5  160.666
 4.9876  25286.3  159.221
 5.0296  25059.9  158.343
 5.0716  24695.6  157.781
 5.1136  24850.1  158.147
 5.1556  25354.5  159.21
 5.1976  37692.2  194.101
 5.2396  26290.2  161.815
 5.2816  25689.8  160.408
 5.3236  25600.9  159.84
 5.3656  24995.4  158.842
 5.4076  24875.9  158.595
 5.4496  24774.7  157.787
 5.4916  25134.6  158.689
 5.5336  24916  158.007
 5.5756  24940.3  158.085
 5.6176  24872.3  157.34
 5.6596  25310.1  159.525
 5.7016  25129.8  158.394
 5.7436  25277.8  159.127
 5.7856  25371.4  159.489
 5.8276  25395.9  159.289
 5.8696  25737.5  160.415
 5.9116  25547.9  160.512
 5.9536  25979.6  161.612
 5.9956  26116.6  161.449
 6.0376  26139.4  162.118
 6.0796  26173.9  162.062
 6.1216  26331.2  162.738
 6.1636  26737.3  163.061
 6.2056  26536.1  163.115
 6.2476  26966.7  164.129
 6.2896  26921.7  163.855
 6.3316  27014.2  164.305
 6.3736  27021.5  164.225
 6.4156  26939.5  163.92
 6.4576  27475  165.121
 6.4996  27213.2  164.787
 6.5416  27509.8  165.81
 6.5836  27889.5  167.183
 6.6256  27531.9  165.679
 6.6676  28144.4  167.092
 6.7096  28127.5  167.878
 6.7516  28432.5  168.451
 6.7936  29786.6  171.832
 6.8356  30711.3  174.563
 6.8776  29777.9  172.685
 6.9196  28862.2  170.397
 6.9616  29410.2  171.436
 7.0036  29811.6  172.295
 7.0456  29866.8  171.775
 7.0876  29968.3  173.63
 7.1296  29713.8  172.132
 7.1716  29688.2  171.617
 7.2136  29355  170.431
 7.2556  29483.7  170.959
 7.2976  29604  171.779
 7.3396  29430.1  171.487
 7.3816  29649.4  172.339
 7.4236  29867.5  172.286
 7.4656  30144.4  172.551
 7.5076  30467.1  173.632
 7.5496  29973.9  172.746
 7.5916  30323.4  173.789
 7.6336  31286.6  176.415
 7.6756  30876  175.103
 7.7176  31204.9  176.347
 7.7596  31396.8  178.084
 7.8016  38977.7  200.858
 7.8436  31489.1  177.266
 7.8856  31536.5  177.026
 7.9276  32209  179.299
 7.9696  32537.2  180.501
 8.0116  33280.1  181.141
 8.0536  34172.7  183.795
 8.0956  36951.2  192.313
 8.1376  34386.6  185.016
 8.1796  34306.6  185.312
 8.2216  35325.1  186.822
 8.2636  36716.2  190.715
 8.3056  35483.2  188.249
 8.3476  37721.2  193.402
 8.3896  36466.8  190.247
 8.4316  35380.8  187.553
 8.4736  35375  187.022
 8.5156  35036.7  186.393
 8.5576  35080.3  187.439
 8.5996  34745.9  185.469
 8.6416  34807.7  186.847
 8.6836  34858.5  186.835
 8.7256  35516  188.033
 8.7676  39366.8  200.999
 8.8096  39915.7  199.595
 8.8516  36672.1  190.937
 8.8936  38390.3  195.259
 8.9356  35907.8  189.163
 8.9776  35173  187.294
 9.0196  35283.2  187.267
 9.0616  35669.3  187.8
 9.1036  38145.4  195.409
 9.1456  34385.1  184.882
 9.1876  34563  185.285
 9.2296  33871.2  182.889
 9.2716  33372.9  181.581
 9.3136  33209.2  181.123
 9.3556  34042.3  183.354
 9.3976  32639.5  180.033
 9.4396  32467.5  179.478
 9.4816  32727.4  180.048
 9.5236  32411.8  179.076
 9.5656  31894.5  177.995
 9.6076  31349.8  176.977
 9.6496  31396.4  176.982
 9.6916  31466.3  177.148
 9.7336  31580.2  177.241
 9.7756  31400.4  177.916
 9.8176  31260.7  177.076
 9.8596  31024.7  174.902
 9.9016  30644.5  173.802
 9.9436  30545.8  173.274
 9.9856  31117.1  175.339
 10.0276  29721  172.399
 10.0696  30173.4  172.766
 10.1116  29523.7  171.153
 10.1536  29576.2  170.978
 10.1956  28879  169.041
 10.2376  28777.2  168.28
 10.2796  28430.4  167.355
 10.3216  28057.8  166.389
 10.3636  28227  167.061
 10.4056  32947.6  180.918
 10.4476  33576.4  182.224
 10.4896  39159.4  196.149
 10.5316  35463.4  187.084
 10.5736  28793.1  169.336
 10.6156  28589.8  168.491
 10.6576  35813.1  186.987
 10.6996  28412.9  167.248
 10.7416  27113  163.584
 10.7836  28300  167.806
 10.8256  25981.3  161.199
 10.8676  25889.4  160.466
 10.9096  26151.9  161.333
 10.9516  25593.4  158.566
 10.9936  26783.1  162.418
 11.0356  26215.4  161.28
 11.0776  28380  167.128
 11.1196  28193.1  167.368
 11.1616  25771.6  159.679
 11.2036  27305.6  164.221
 11.2456  29664.7  171.911
 11.2876  25368.6  158.712
 11.3296  25323.8  158.488
 11.3716  25472  158.688
 11.4136  24757.8  157.263
 11.4556  25185.6  158.285
 11.4976  26932.3  162.657
 11.5396  27275.2  163.856
 11.5816  25065.8  157.51
 11.6236  24246.9  155.354
 11.6656  24535.7  155.236
 11.7076  23484.4  152.678
 11.7496  24021.9  158.332
 11.7916  24681.9  155.788
 11.8336  23192.7  151.905
 11.8756  24264.9  154.901
 11.9176  23444.2  151.936
 11.9596  23243.1  151.455
 12.0016  22843.3  150.876
 12.0436  22869.6  150.446
 12.0856  22523.2  149.777
 12.1276  22725.1  150.407
 12.1696  22693.3  149.449
 12.2116  23168.3  150.999
 12.2536  26286.9  161.675
 12.2956  23358.9  151.779
 12.3376  23477.9  152.364
 12.3796  22751.6  150.461
 12.4216  23176.3  151.07
 12.4636  24290.8  155.604
 12.5056  22465.4  148.93
 12.5476  22505.7  148.595
 12.5896  22354.8  148.714
 12.6316  22418.5  149.079
 12.6736  22205.2  148.833
 12.7156  22781.4  150.595
 12.7576  22498.8  149.907
 12.7996  22659.2  149.114
 12.8416  22992.7  151.246
 12.8836  23789.7  153.679
 12.9256  23170.8  150.718
 12.9676  22981.2  150.491
 13.0096  22936.1  151.433
 13.0516  23029.2  150.792
 13.0936  22713.1  149.878
 13.1356  23252.1  150.904
 13.1776  23131.1  151.509
 13.2196  22723.1  149.812
 13.2616  22313.9  148.765
 13.3036  22932.9  150.944
 13.3456  22484.1  149.437
 13.3876  23480.2  152.205
 13.4296  23043.3  150.937
 13.4716  23282.8  151.362
 13.5136  23067  150.774
 13.5556  23242.8  151.962
 13.5976  23113.3  151.715
 13.6396  23374.6  151.936
 13.6816  23352.8  152.213
 13.7236  23909.1  153.726
 13.7656  25702.3  159.844
 13.8076  27081  162.703
 13.8496  24699.8  156.23
 13.8916  23667.1  153.854
 13.9336  22622.2  149.728
 13.9756  22772.9  149.609
 14.0176  22501.8  149.382
 14.0596  23818.5  153.612
 14.1016  22438.9  149.513
 14.1436  22342.4  148.348
 14.1856  22006.5  147.519
 14.2276  22594  149.947
 14.2696  22512.2  149.53
 14.3116  21525.8  146.129
 14.3536  21098.4  144.821
 14.3956  21100.3  144.565
 14.4376  21015.9  144.075
 14.4796  21055.6  144.207
 14.5216  20837.5  144.218
 14.5636  21405  145.753
 14.6056  20905.4  143.617
 14.6476  20426.6  141.23
 14.6896  20227.7  141.061
 14.7316  19716.3  140.264
 14.7736  19676.8  139.292
 14.8156  19607.2  139.068
 14.8576  19629.3  139.008
 14.8996  19649.9  140.249
 14.9416  19019.3  137.988
 14.9836  19228.9  138.743
 15.0256  18651.3  135.587
 15.0676  18375.8  134.882
 15.1096  18247.3  134.157
 15.1516  18043  133.933
 15.1936  18001.1  133.234
 15.2356  17956  133.337
 15.2776  17973.3  132.997
 15.3196  17696.7  132.938
 15.3616  17385.7  131.535
 15.4036  17426.3  131.542
 15.4456  17818.9  132.686
 15.4876  17338.6  130.577
 15.5296  17215.7  130.38
 15.5716  16782.1  128.359
 15.6136  16954.3  129.327
 15.6556  19529.1  138.019
 15.6976  17540.2  130.879
 15.7396  17102.2  129.826
 15.7816  17073.6  129.236
 15.8236  16451.8  127.533
 15.8656  16477.8  127.431
 15.9076  16842.8  128.662
 15.9496  17875.8  135.364
 15.9916  16576.9  130.748
 16.0336  16731.5  128.312
 16.0756  16818.3  128.949
 16.1176  16263.3  126.741
 16.1596  16171.7  127.685
 16.2016  15932.4  125.542
 16.2436  15920.7  125.861
 16.2856  16175.8  126.387
 16.3276  15404.6  123.762
 16.3696  15805.8  125.188
 16.4116  15609.6  124.848
 16.4536  15810.9  125.46
 16.4956  16829.7  129.17
 16.5376  16101.9  126.534
 16.5796  15679.4  124.243
 16.6216  15714.9  124.646
 16.6636  15592.3  124.344
 16.7056  15506.8  123.861
 16.7476  15569.9  123.653
 16.7896  15552.9  124.316
 16.8316  15438.9  123.838
 16.8736  16000.8  126.316
 16.9156  15980.2  126.564
 16.9576  15313.2  124.654
 16.9996  15435.3  125.603
 17.0416  15460.3  124.127
 17.0836  15251.3  123.057
 17.1256  15211.7  122.903
 17.1676  15787.7  125.169
 17.2096  15685.4  124.662
 17.2516  15513.3  124.067
 17.2936  14834.5  121.37
 17.3356  14521.9  120.077
 17.3776  14639.8  120.735
 17.4196  14484  119.801
 17.4616  14957.5  121.661
 17.5036  15288.5  123.348
 17.5456  14406  120.361
 17.5876  14549.2  120.034
 17.6296  14592.4  120.028
 17.6716  14663.9  120.904
 17.7136  15653.1  125.044
 17.7556  14549.5  120.842
 17.7976  14419.4  119.909
 17.8396  14497.9  119.88
 17.8816  13945.2  118.116
 17.9236  13895.4  117.703
 17.9656  14084.3  119.167
 18.0076  14942.6  122.194
 18.0496  15924.6  125.245
 18.0916  22914.4  150.914
 18.1336  19165.2  138.121
 18.1756  16082.2  126.06
 18.2176  16652.3  128.494
 18.2596  14099.6  117.97
 18.3016  15010.3  121.991
 18.3436  15901.4  125.811
 18.3856  14822.2  121.353
 18.4276  14039  117.8
 18.4696  14283.5  118.911
 18.5116  14482.6  120.01
 18.5536  13859.8  117.766
 18.5956  13984.4  117.851
 18.6376  14331.1  119.701
 18.6796  13902.7  117.235
 18.7216  14015.7  118.261
 18.7636  13673.4  116.739
 18.8056  13193.9  114.594
 18.8476  13114.7  114.865
 18.8896  13162  114.428
 18.9316  13368.4  115.145
 18.9736  13269.9  114.584
 19.0156  13798.8  117.256
 19.0576  14068  117.244
 19.0996  13576.7  115.885
 19.1416  13608.7  116.407
 19.1836  13165.6  114.116
 19.2256  12934.2  113.322
 19.2676  13061.2  113.958
 19.3096  12966.2  113.78
 19.3516  13177.3  114.48
 19.3936  13284.8  115.027
 19.4356  13262.5  114.816
 19.4776  13135.6  114.354
 19.5196  13039.9  113.794
 19.5616  13110.3  114.353
 19.6036  13085.5  113.758
 19.6456  13325.9  114.904
 19.6876  13797.7  116.561
 19.7296  13293.1  114.867
 19.7716  12977  113.517
 19.8136  13503.5  116.13
 19.8556  13692.7  116.432
 19.8976  13938.2  117.522
 19.9396  13933.2  117.103
 19.9816  13912.3  117.262
 20.0236  14367.5  119.347
 20.0656  13272.7  114.723
 20.1076  13078.2  114.327
 20.1496  12891.7  113.507
 20.1916  13016.7  113.554
 20.2336  13022.5  113.53
 20.2756  12713.5  112.596
 20.3176  12713.2  112.364
 20.3596  12566.6  111.703
 20.4016  12824.9  112.644
 20.4436  12763.2  112.931
 20.4856  12597.7  111.988
 20.5276  12599.8  112.444
 20.5696  12367.4  110.976
 20.6116  12640.6  112.359
 20.6536  12349.7  110.641
 20.6956  12442.3  111.131
 20.7376  12259  110.51
 20.7796  12328.9  110.532
 20.8216  12542.1  111.207
 20.8636  13074.9  113.915
 20.9056  14376  119.385
 20.9476  12978.3  113.276
 20.9896  14008.7  117.554
 21.0316  12751.4  112.047
 21.0736  13032.4  113.798
 21.1156  13459.3  115.807
 21.1576  12712.2  112.586
 21.1996  12266.5  110.581
 21.2416  12448.9  111.229
 21.2836  12583.1  111.805
 21.3256  12547.4  111.721
 21.3676  12473.6  110.921
 21.4096  12806  112.776
 21.4516  12305.3  110.376
 21.4936  12144.1  109.902
 21.5356  12345.4  110.76
 21.5776  12404.4  110.861
 21.6196  12488.5  111.279
 21.6616  12460.9  111.234
 21.7036  12313.2  110.355
 21.7456  12127.2  109.586
 21.7876  11851.6  108.105
 21.8296  11764.4  107.561
 21.8716  12081.8  109.218
 21.9136  12235.1  110.109
 21.9556  12400.2  110.534
 21.9976  12190.8  109.623
 22.0396  11985.1  108.94
 22.0816  12110.1  110.027
 22.1236  12606.3  111.718
 22.1656  11924  108.84
 22.2076  11884.7  108.085
 22.2496  11870.8  108.043
 22.2916  12030.7  108.659
 22.3336  12014.7  109.274
 22.3756  11935.8  108.662
 22.4176  11715.6  107.512
 22.4596  11457.3  106.889
 22.5016  11748.7  107.757
 22.5436  11902.7  108.343
 22.5856  12197.5  109.91
 22.6276  12138.8  109.766
 22.6696  11638.5  107.838
 22.7116  11728.6  107.768
 22.7536  11748.4  107.848
 22.7956  11754.9  107.223
 22.8376  11579  106.933
 22.8796  11618.9  106.919
 22.9216  11736.3  107.99
 22.9636  11582.5  106.463
 23.0056  11578.2  106.564
 23.0476  11655.2  107.476
 23.0896  12038.5  108.62
 23.1316  11945  108.623
 23.1736  11810.2  110.852
 23.2156  11861.9  108.578
 23.2576  12233.8  110.387
 23.2996  11723.7  107.848
 23.3416  12125.5  110.199
 23.3836  11847.4  108.181
 23.4256  12281.6  110.266
 23.4676  12254.8  109.835
 23.5096  11943.8  109.075
 23.5516  12150.1  109.326
 23.5936  12082.1  109.918
 23.6356  12458.7  111.278
 23.6776  11938.2  109.139
 23.7196  11919.7  108.847
 23.7616  11868.1  108.327
 23.8036  11999.8  108.977
 23.8456  11825.9  107.756
 23.8876  11818.2  108.057
 23.9296  11667  107.842
 23.9716  11588.5  106.711
 24.0136  11949.3  109.246
 24.0556  11745.3  108.019
 24.0976  11536.9  106.891
 24.1396  11454.2  109.039
 24.1816  11744.3  109.183
 24.2236  11719.6  108.363
 24.2656  11707.1  107.801
 24.3076  11754.4  108.277
 24.3496  11904  108.841
 24.3916  11850.7  108.649
 24.4336  11646.5  107.903
 24.4756  11827.1  108.63
 24.5176  11448.7  106.514
 24.5596  11489.4  107.018
 24.6016  11450.4  106.934
 24.6436  11630.3  107.284
 24.6856  11394.7  105.934
 24.7276  11511  106.793
 24.7696  11393.8  106.361
 24.8116  11273.8  105.968
 24.8536  11351.9  106.34
 24.8956  11253.7  105.621
 24.9376  11284  105.932
 24.9796  11145.6  105.391
 25.0216  11265.3  106.081
 25.0636  11236.5  105.596
 25.1056  10920.2  104.507
 25.1476  10811.8  105.86
 25.1896  10886.4  104.772
 25.2316  10876.9  104.016
 25.2736  10783.8  103.224
 25.3156  10758.5  103.173
 25.3576  10752.8  103.571
 25.3996  10720.2  103.408
 25.4416  10780.1  103.66
 25.4836  10631.1  103.459
 25.5256  10626.4  102.814
 25.5676  10879.9  103.754
 25.6096  10601.1  102.988
 25.6516  10594.4  102.466
 25.6936  10601.9  102.816
 25.7356  10476  102.335
 25.7776  10637.2  102.797
 25.8196  10595  102.758
 25.8616  10467.7  102.073
 25.9036  10882.2  103.528
 25.9456  10425.2  101.914
 25.9876  10469.6  102.053
 26.0296  10573.3  102.311
 26.0716  10593.2  102.739
 26.1136  10827.9  103.8
 26.1556  10816.3  103.138
 26.1976  10394.3  102.011
 26.2396  10463.5  101.764
 26.2816  10394.6  101.786
 26.3236  10537.8  102.625
 26.3656  10629.5  102.803
 26.4076  10320  101.492
 26.4496  10601.8  102.47
 26.4916  10819  103.406
 26.5336  11013.8  104.682
 26.5756  11105.9  104.998
 26.6176  10750.5  103.32
 26.6596  10501.2  102.422
 26.7016  10250.2  100.955
 26.7436  10343.3  101.54
 26.7856  10000  99.827
 26.8276  10156.9  100.569
 26.8696  10242.8  100.862
 26.9116  10176.6  100.487
 26.9536  9957.19  99.4484
 26.9956  9986.48  99.6291
 27.0376  10111.4  100.465
 27.0796  10172.6  100.567
 27.1216  10295.8  101.158
 27.1636  9974.96  99.7326
 27.2056  10109.2  100.296
 27.2476  10046.7  99.9642
 27.2896  9865.36  99.1852
 27.3316  9861.94  98.895
 27.3736  9747.2  98.5775
 27.4156  9963.1  99.4985
 27.4576  10021.2  100.019
 27.4996  10089.8  99.9677
 27.5416  9978.55  99.7211
 27.5836  9926.24  99.2957
 27.6256  9866.97  99.172
 27.6676  9814.37  98.8962
 27.7096  9974.61  99.589
 27.7516  10679.9  103.202
 27.7936  10850.5  104.17
 27.8356  10409.9  101.646
 27.8776  10426  101.789
 27.9196  10152.5  100.303
 27.9616  10210.3  100.785
 28.0036  9969.79  99.5471
 28.0456  9634.91  97.9987
 28.0876  9725.11  98.5412
 28.1296  9726.11  98.3828
 28.1716  9929.38  99.4206
 28.2136  9739.76  98.4364
 28.2556  9744.94  98.5764
 28.2976  9762.08  98.6603
 28.3396  9670  97.9927
 28.3816  9741.74  98.318
 28.4236  9877.96  99.1603
 28.4656  9563.1  97.6104
 28.5076  9381.85  96.3276
 28.5496  9465.53  97.003
 28.5916  9463.41  96.8213
 28.6336  9486.31  97.2698
 28.6756  9499.22  96.5522
 28.7176  9463.73  96.9104
 28.7596  9327.15  96.107
 28.8016  9396.18  96.4872
 28.8436  9319.32  96.3392
 28.8856  9515.07  97.197
 28.9276  9458.24  97.1457
 28.9696  9385.75  96.4394
 29.0116  9149.69  95.3958
 29.0536  9236.6  96.0535
 29.0956  9389.52  96.5545
 29.1376  9368.97  96.4102
 29.1796  9259.28  95.8955
 29.2216  9283.62  95.8655
 29.2636  9441.89  96.6798
 29.3056  9232.09  95.4599
 29.3476  9293.58  96.2938
 29.3896  9283.98  96.3617
 29.4316  9172.77  95.1263
 29.4736  8907.89  93.8095
 29.5156  9229.6  95.4046
 29.5576  9115.04  95.5275
 29.5996  9122.64  94.8507
 29.6416  8966.83  94.1486
 29.6836  9116.1  94.8616
 29.7256  9007.19  94.8409
 29.7676  9147.56  95.2506
 29.8096  8965.09  94.234
 29.8516  8761.34  93.4827
 29.8936  8959.16  94.6175
 29.9356  8906.57  94.103
 29.9776  9050.79  95.0088
 30.0196  9064.15  94.4685
 30.0616  9040.64  94.726
 30.1036  8922.7  93.9301
 30.1456  8620.65  92.5584
 30.1876  8841.68  93.7099
 30.2296  8739.34  93.1253
 30.2716  8969.66  93.9882
 30.3136  8842.5  94.1474
 30.3556  9172.74  95.8896
 30.3976  9077.45  96.8329
 30.4396  9296.32  95.416
 30.4816  9223.57  94.6523
 30.5236  9223.67  94.6451
 30.5656  9108.04  94.7066
 30.6076  9005.69  93.9345
 30.6496  9070.46  94.3315
 30.6916  8916.53  93.6209
 30.7336  9064.02  94.5399
 30.7756  9062.91  94.6201
 30.8176  9065.21  94.5583
 30.8596  8994.53  93.9338
 30.9016  9094.28  94.3262
 30.9436  8997.99  94.0618
 30.9856  9074.49  94.5744
 31.0276  9044.18  94.0465
 31.0696  9040.91  94.5756
 31.1116  9088.84  94.8026
 31.1536  8997.57  94.2113
 31.1956  9053.53  94.57
 31.2376  8644.64  92.4494
 31.2796  8823.9  92.943
 31.3216  8880.4  93.1786
 31.3636  8807.08  93.4546
 31.4056  8865.27  95.0662
 31.4476  8906.06  93.215
 31.4896  8937.37  93.8745
 31.5316  9115.31  94.253
 31.5736  9891.38  97.966
 31.6156  9730.19  97.1718
 31.6576  9243.18  94.7859
 31.6996  9184.17  94.1391
 31.7416  9293.2  95.6594
 31.7836  9047.81  93.5274
 31.8256  9020.98  93.7416
 31.8676  9166.23  94.4079
 31.9096  8841.25  92.9413
 31.9516  8863.07  93.3619
 31.9936  8832.73  93.022
 32.0356  9019.24  94.0483
 32.0776  9090.08  94.316
 32.1196  8960.99  93.6683
 32.1616  8899.09  92.8829
 32.2036  8838.87  93.0676
 32.2456  8810.54  93.2953
 32.2876  8766.8  92.4031
 32.3296  8614.75  91.7272
 32.3716  8684.4  92.2103
 32.4136  8680.18  92.4011
 32.4556  8713.46  92.0202
 32.4976  8830.57  92.5413
 32.5396  8597.44  91.3247
 32.5816  8504.52  90.9512
 32.6236  8565.21  91.3401
 32.6656  8740.64  92.8068
 32.7076  8565.84  91.5387
 32.7496  8556.12  91.159
 32.7916  8616.2  91.4448
 32.8336  8589.47  91.394
 32.8756  8666.38  91.5344
 32.9176  8640.83  91.8719
 32.9596  8659.37  92.0421
 33.0016  8666.13  91.8321
 33.0436  8568.71  91.5179
 33.0856  8544.45  91.47
 33.1276  8452.8  90.7102
 33.1696  8529.54  90.9509
 33.2116  8588.98  91.5003
 33.2536  8676.85  91.9611
 33.2956  8555.85  91.4091
 33.3376  8387.35  90.3282
 33.3796  8535.96  91.252
 33.4216  8443.9  90.359
 33.4636  8535.24  91.0054
 33.5056  8332.84  90.1522
 33.5476  8485.98  90.9556
 33.5896  8559.91  91.1277
 33.6316  8394.24  90.5579
 33.6736  8309.61  90.3482
 33.7156  8351.15  90.5992
 33.7576  8298.27  89.9705
 33.7996  8416.16  90.374
 33.8416  8291.04  89.8794
 33.8836  8372.65  90.1017
 33.9256  8505.63  90.8657
 33.9676  8544.09  90.9751
 34.0096  8402.86  90.5283
 34.0516  8212.69  89.1349
 34.0936  8220.61  89.4539
 34.1356  8278.91  89.5126
 34.1776  8141.34  88.7424
 34.2196  8226.01  89.4052
 34.2616  7977.92  88.1754
 34.3036  8350.09  90.4582
 34.3456  8323.42  90.071
 34.3876  8274.85  89.8625
 34.4296  8210.51  89.1226
 34.4716  8376.07  90.1718
 34.5136  8376.85  90.3552
 34.5556  8156.76  89.4179
 34.5976  8489.75  91.0618
 34.6396  8214.34  89.264
 34.6816  8310.11  89.8872
 34.7236  8303.48  89.6357
 34.7656  8325.18  89.9571
 34.8076  8157.3  89.3699
 34.8496  8080.64  88.802
 34.8916  8134.93  88.9654
 34.9336  8347.2  90.1019
 34.9756  8353.19  90.0808
 35.0176  8257.82  90.0518
 35.0596  8351.27  90.3849
 35.1016  8195.94  89.2984
 35.1436  8324.67  89.6875
 35.1856  8188.58  89.0743
 35.2276  8250.7  89.5801
 35.2696  8291.26  90.001
 35.3116  8092.63  89.0169
 35.3536  8150.05  89.0755
 35.3956  8136.41  88.6854
 35.4376  8262.31  89.9236
 35.4796  8181.19  89.5203
 35.5216  8116.91  89.1373
 35.5636  7962.29  89.0078
 35.6056  8063.49  88.6041
 35.6476  8227  89.4089
 35.6896  8154.94  89.1843
 35.7316  8009.52  88.2799
 35.7736  8026.58  88.5602
 35.8156  8123.79  89.0919
 35.8576  8170.71  89.5804
 35.8996  8136.14  89.3806
 35.9416  8085.97  88.6156
 35.9836  8058.71  88.9118
 36.0256  8203.07  89.5937
 36.0676  8335.72  89.8432
 36.1096  8128.01  89.1002
 36.1516  8168.96  89.2179
 36.1936  8295.85  89.728
 36.2356  8135.6  89.5281
 36.2776  8174.36  89.197
 36.3196  8033.91  88.1224
 36.3616  8029.15  88.2244
 36.4036  8040.86  88.3577
 36.4456  8045.43  88.5768
 36.4876  7836.86  87.3644
 36.5296  8003.65  88.3345
 36.5716  7985.02  88.9924
 36.6136  8151.87  88.7148
 36.6556  8036.25  88.283
 36.6976  7777.82  87.3279
 36.7396  7800.25  87.1878
 36.7816  7860.47  87.8957
 36.8236  7776.12  87.3431
 36.8656  7765.13  87.3547
 36.9076  7824.91  87.6971
 36.9496  7778.77  87.3061
 36.9916  7743.16  86.7287
 37.0336  7839.65  87.5927
 37.0756  7832.32  87.3449
 37.1176  7552.77  86.0251
 37.1596  7693.25  86.8344
 37.2016  7686.08  86.9595
 37.2436  7854.32  87.2836
 37.2856  7784.19  87.1445
 37.3276  7715.64  86.1353
 37.3696  7590.47  86.2829
 37.4116  7748.35  87.0902
 37.4536  7569.18  85.944
 37.4956  7480.42  85.4885
 37.5376  7890.83  89.3573
 37.5796  7732.43  88.3886
 37.6216  7784.09  86.9934
 37.6636  7858.34  87.2823
 37.7056  7789.56  87.1045
 37.7476  7804.86  86.7348
 37.7896  7748.93  86.9254
 37.8316  7673.58  86.6369
 37.8736  7719.65  86.4453
 37.9156  7725.27  86.4742
 37.9576  7762.63  86.5987
 37.9996  7724.73  86.1054
 38.0416  7696.97  86.7338
 38.0836  7867.79  87.6027
 38.1256  7752.77  86.9247
 38.1676  7711.88  86.8222
 38.2096  7959.57  87.8182
 38.2516  7899.81  87.7002
 38.2936  7843.72  87.1896
 38.3356  7806.23  86.9174
 38.3776  7843.22  87.3686
 38.4196  7721.87  86.5427
 38.4616  7806.05  87.2647
 38.5036  7960.41  87.9643
 38.5456  7584.07  86.6581
 38.5876  7606.21  86.8064
 38.6296  7671.71  86.1654
 38.6716  7676.38  86.0025
 38.7136  7681.91  85.9764
 38.7556  7609.78  86.0729
 38.7976  7706.83  86.5466
 38.8396  7675.68  86.8198
 38.8816  7751.06  87.0459
 38.9236  7776.42  86.9887
 38.9656  7574.53  85.7546
 39.0076  7596.76  85.3059
 39.0496  7805.87  87.0245
 39.0916  7827.25  86.7893
 39.1336  7613.19  85.9955
 39.1756  7615.48  86.0661
 39.2176  7575.23  86.3617
 39.2596  7681.76  86.8892
 39.3016  7669.29  86.4156
 39.3436  7526.22  86.0053
 39.3856  7653.22  86.1823
 39.4276  7755.2  87.2584
 39.4696  7766.58  86.9427
 39.5116  7676.86  86.9444
 39.5536  7590.59  86.8667
 39.5956  7637.21  86.2594
 39.6376  7639.52  86.2822
 39.6796  7566.95  85.6138
 39.7216  7712.88  86.5396
 39.7636  7534.39  86.0738
 39.8056  7636.58  86.4484
 39.8476  7578.19  86.3624
 39.8896  7657.64  86.452
 39.9316  7560.54  86.1495
 39.9736  7619.48  86.0612
 40.0156  7546.25  85.4868
 40.0576  7469.49  85.3893
 40.0996  7689.63  85.8359
 40.1416  7659.08  86.4489
 40.1836  7638.23  86.2232
 40.2256  7672.67  86.4454
 40.2676  7459.94  85.4156
 40.3096  7655.52  86.3836
 40.3516  7724.64  86.8885
 40.3936  7685.72  86.2345
 40.4356  7562.32  85.7342
 40.4776  7817.78  87.4077
 40.5196  7631.59  86.6454
 40.5616  7776.84  87.1131
 40.6036  7530.83  85.9792
 40.6456  7558.04  85.7469
 40.6876  7833.85  87.2914
 40.7296  7642.88  86.3504
 40.7716  7669.99  86.6239
 40.8136  7530.69  85.7699
 40.8556  7663.9  86.6692
 40.8976  7572.19  86.0716
 40.9396  7759.27  87.4692
 40.9816  7654.34  86.1744
 41.0236  7601.32  85.6762
 41.0656  7750.14  87.0344
 41.1076  7659.18  86.3026
 41.1496  7758.39  86.7632
 41.1916  7625.45  86.3247
 41.2336  7709.17  86.7973
 41.2756  7560.32  85.576
 41.3176  7671.36  86.7925
 41.3596  7737.09  86.9065
 41.4016  7585.68  86.3108
 41.4436  7724.53  86.8832
 41.4856  7611.09  86.4062
 41.5276  7559.68  86.1238
 41.5696  7722.81  86.6762
 41.6116  7688.37  86.8778
 41.6536  7647.86  86.4915
 41.6956  7725.22  86.9313
 41.7376  7738.73  87.095
 41.7796  7514.72  85.7688
 41.8216  7720.04  87.1124
 41.8636  7558.22  86.1423
 41.9056  7505.75  85.6445
 41.9476  7582.29  86.3063
 41.9896  7709.23  86.6852
 42.0316  7757.67  87.0507
 42.0736  7669.65  86.6733
 42.1156  7533.85  85.7292
 42.1576  7596.78  86.1891
 42.1996  7688.7  86.8298
 42.2416  7646.62  86.1927
 42.2836  7594.75  86.0174
 42.3256  7537.15  85.7782
 42.3676  7771.81  86.9169
 42.4096  7689.56  86.4372
 42.4516  7680.52  86.4509
 42.4936  7676.36  86.5068
 42.5356  7552.53  85.9507
 42.5776  7598.22  86.1401
 42.6196  7613.23  86.284
 42.6616  7373.89  85.0786
 42.7036  7650.35  86.0542
 42.7456  7660.83  86.4601
 42.7876  7512.87  85.7078
 42.8296  7631.06  86.2283
 42.8716  7566.41  86.0223
 42.9136  7559.54  85.7349
 42.9556  7524.22  85.6979
 42.9976  7476.84  85.3994
 43.0396  7481.29  85.163
 43.0816  7546.27  85.9091
 43.1236  7497.71  85.6841
 43.1656  7643.19  86.3256
 43.2076  7478.32  85.5127
 43.2496  7436.09  85.0882
 43.2916  7534.92  86.0052
 43.3336  7535.07  85.8373
 43.3756  7495.47  85.3772
 43.4176  7362.25  84.6941
 43.4596  7406.41  84.8137
 43.5016  7393.36  85.1242
 43.5436  7460.11  85.422
 43.5856  7407.98  85.1518
 43.6276  7416.44  85.0874
 43.6696  7382.77  85.0384
 43.7116  7533.65  85.5199
 43.7536  7513.14  85.886
 43.7956  7299.09  85.8395
 43.8376  7340.67  84.6296
 43.8796  7262.74  84.2649
 43.9216  7327.06  84.5568
 43.9636  7348.5  84.7905
 44.0056  7333.62  84.9269
 44.0476  7229.43  83.9654
 44.0896  7174.47  83.9741
 44.1316  7224.55  83.9311
 44.1736  7269.99  84.191
 44.2156  7305.59  84.2467
 44.2576  7133.11  83.5665
 44.2996  7163.22  83.7146
 44.3416  7307.76  84.3255
 44.3836  7214.99  84.1008
 44.4256  7218.04  83.7772
 44.4676  7193.38  83.7818
 44.5096  7211.55  84.0267
 44.5516  7127.58  83.5012
 44.5936  7203.08  83.9005
 44.6356  7113.18  83.1205
 44.6776  7155.11  83.6705
 44.7196  7166.7  84.045
 44.7616  7286.7  86.0447
 44.8036  7372  85.1967
 44.8456  7321.02  84.906
 44.8876  7335.6  84.8336
 44.9296  7368.42  84.477
 44.9716  7420.32  85.1989
 45.0136  7362.94  84.8095
 45.0556  7362.27  84.8968
 45.0976  7453.42  85.4653
 45.1396  7286.06  84.261
 45.1816  7287.2  84.2128
 45.2236  7387.25  84.6916
 45.2656  7194.63  84.0653
 45.3076  7271.65  84.2968
 45.3496  7220.91  84.3128
 45.3916  7204.57  84.4796
 45.4336  7392.62  85.4158
 45.4756  7255.45  84.4731
 45.5176  7400.77  84.9382
 45.5596  7411.32  85.1193
 45.6016  7240.53  84.5503
 45.6436  7365.46  84.454
 45.6856  7194.32  84.1186
 45.7276  7124.78  84.9882
 45.7696  7197.36  85.0993
 45.8116  7248.41  84.8402
 45.8536  7240.63  84.6926
 45.8956  7299.97  84.396
 45.9376  7214.42  83.3752
 45.9796  7397.27  85.1224
 46.0216  7331.54  85.0655
 46.0636  7305.61  84.063
 46.1056  7310.2  84.0797
 46.1476  7375.05  85.0455
 46.1896  7441.45  85.576
 46.2316  7342.45  84.8722
 46.2736  7317.6  84.9411
 46.3156  7205.28  84.034
 46.3576  7202.44  84.2179
 46.3996  7268.26  84.7487
 46.4416  7228.87  84.0819
 46.4836  7213.1  84.3701
 46.5256  7300.68  84.8245
 46.5676  7234.9  84.5451
 46.6096  7329.14  85.0282
 46.6516  7354.35  84.2265
 46.6936  7317.63  84.5095
 46.7356  7326.89  84.6472
 46.7776  7123.05  84.3113
 46.8196  7255.43  84.8273
 46.8616  7006.68  83.1766
 46.9036  7141.29  83.6241
 46.9456  7136  83.251
 46.9876  7197.65  83.6792
 47.0296  7126.96  83.9568
 47.0716  7056.43  83.3658
 47.1136  7170.12  83.7186
 47.1556  7128.74  83.3303
 47.1976  7146.8  83.6046
 47.2396  7137.37  83.8645
 47.2816  7154.25  83.6672
 47.3236  7130.84  83.8912
 47.3656  7118.18  83.7471
 47.4076  7257.9  84.3106
 47.4496  7117.94  83.6489
 47.4916  7097.55  83.7159
 47.5336  7168.11  83.9535
 47.5756  7290.88  84.7855
 47.6176  7022.82  83.1072
 47.6596  7022.13  82.8242
 47.7016  7203.66  83.6986
 47.7436  7103.71  83.4486
 47.7856  7285.58  84.5498
 47.8276  7172.54  83.9364
 47.8696  7127.79  83.7659
 47.9116  7160.94  83.6683
 47.9536  7082.62  83.1528
 47.9956  7105.99  83.994
 48.0376  7091.2  83.675
 48.0796  7187.9  84.377
 48.1216  7193.81  84.2282
 48.1636  7184.82  83.752
 48.2056  7098.84  83.5142
 48.2476  7253.31  84.7246
 48.2896  7107.55  83.7839
 48.3316  7245.11  84.5327
 48.3736  7093.09  83.6558
 48.4156  7074.79  83.4079
 48.4576  7109.44  83.8983
 48.4996  7160.8  83.6608
 48.5416  7138.51  83.8518
 48.5836  7163.72  83.6801
 48.6256  7237.24  84.3133
 48.6676  7156.71  84.3582
 48.7096  7065.16  83.096
 48.7516  7110.79  83.5054
 48.7936  6921.18  82.4502
 48.8356  7085.31  83.4723
 48.8776  7149.22  84.3416
 48.9196  7261.4  84.4427
 48.9616  7006.4  83.3249
 49.0036  7147.57  84.5088
 49.0456  7097.45  84.176
 49.0876  7174.81  84.2737
 49.1296  7074.04  83.7553
 49.1716  7020.29  83.3091
 49.2136  7205.31  84.3107
 49.2556  7176.29  84.1808
 49.2976  7108.36  83.8555
 49.3396  7108.86  83.9178
 49.3816  7135.91  83.5022
 49.4236  7111.7  83.781
 49.4656  7012.27  83.2176
 49.5076  7154.14  83.7983
 49.5496  6996.32  82.9266
 49.5916  7106.82  83.5028
 49.6336  7115.66  83.7619
 49.6756  7106.88  83.9507
 49.7176  7018.16  83.3532
 49.7596  7024.18  83.1662
 49.8016  7170.78  83.9453
 49.8436  6966.71  83.038
 49.8856  6977.78  83.1014
 49.9276  6911  82.805
 49.9696  6994.78  83.2874
 50.0116  7090.86  83.9918
 50.0536  7093.99  83.959
 50.0956  7024.81  83.6108
 50.1376  6996.92  83.1496
 50.1796  7003.52  83.4628
 50.2216  6994.63  83.4101
 50.2636  7000.5  83.0523
 50.3056  6984.53  83.1285
 50.3476  7032.59  83.445
 50.3896  6847.55  82.3105
 50.4316  6988.41  82.9833
 50.4736  6941.58  82.9249
 50.5156  6969.22  83.086
 50.5576  7054.38  83.3467
 50.5996  6933.87  82.9137
 50.6416  6935.45  82.8419
 50.6836  6955.73  83.0164
 50.7256  6970.76  83.0441
 50.7676  7131.09  84.2738
 50.8096  6954.44  82.7993
 50.8516  6830.22  82.4783
 50.8936  6892.29  82.6251
 50.9356  7001.52  83.3874
 50.9776  6929.61  83.1197
 51.0196  6736.04  82.0676
 51.0616  6794.94  81.7532
 51.1036  6928.23  82.915
 51.1456  6931.29  82.8415
 51.1876  6787.28  81.3223
 51.2296  6899.12  82.6276
 51.2716  6777.26  81.6072
 51.3136  6653.09  81.3057
 51.3556  6846.67  82.1036
 51.3976  6741.33  81.6172
 51.4396  6613.97  81.1493
 51.4816  6643.35  81.1846
 51.5236  6779.64  82.094
 51.5656  6788.7  81.7496
 51.6076  6776.41  81.7547
 51.6496  6739.37  81.7244
 51.6916  6695.52  81.8073
 51.7336  6722.1  82.0713
 51.7756  6789.02  82.1724
 51.8176  6632.29  81.3276
 51.8596  6763.82  82.1417
 51.9016  6734.18  81.5703
 51.9436  6734.27  83.0466
 51.9856  6777.3  83.7333
 52.0276  6857.17  82.7163
 52.0696  6907.96  83.0921
 52.1116  6692.81  81.9103
 52.1536  6761.05  82.1571
 52.1956  6788.89  81.8439
 52.2376  6872.91  82.5181
 52.2796  6946.86  82.7782
 52.3216  6754.05  82.31
 52.3636  6738.15  81.7834
 52.4056  6763.62  81.7953
 52.4476  6604.54  81.1624
 52.4896  6742.58  82.0821
 52.5316  6806.43  82.5151
 52.5736  6699.61  81.5863
 52.6156  6831.47  82.7868
 52.6576  6708.21  81.4714
 52.6996  6455.14  80.8923
 52.7416  6604.37  81.6688
 52.7836  6667.37  81.9546
 52.8256  6724.32  81.5161
 52.8676  6582.73  81.2185
 52.9096  6663.95  81.7934
 52.9516  6656.64  82.1324
 52.9936  6659.18  82.506
 53.0356  6764.74  82.1559
 53.0776  6824.66  82.8263
 53.1196  6752.22  82.4788
 53.1616  6705.08  82.2404
 53.2036  6544.24  81.209
 53.2456  6595.59  81.6342
 53.2876  6752.08  82.2886
 53.3296  6743.34  82.5515
 53.3716  6878.71  83.1317
 53.4136  6686.1  82.1045
 53.4556  6747.7  82.516
 53.4976  6654.65  81.7796
 53.5396  6663.13  82.2379
 53.5816  6615.87  81.5833
 53.6236  6596.03  81.8099
 53.6656  6685.21  81.967
 53.7076  6715.5  82.1074
 53.7496  6840.24  82.9945
 53.7916  6677.19  82.1423
 53.8336  6610.93  81.6164
 53.8756  6586.82  82.0134
 53.9176  6662.35  81.8374
 53.9596  6402.94  80.9815
 54.0016  6488.4  80.854
 54.0436  6346.66  80.1829
 54.0856  6607.32  81.2304
 54.1276  6429.62  80.3341
 54.1696  6463.04  80.7061
 54.2116  6614.01  81.3964
 54.2536  6386.39  79.7861
 54.2956  6474.79  80.3906
 54.3376  6351.59  80.0989
 54.3796  6407.01  80.338
 54.4216  6445.4  80.6516
 54.4636  6389.77  80.2581
 54.5056  6494.79  80.7271
 54.5476  6297.17  79.8344
 54.5896  6291.15  79.6357
 54.6316  6401.53  80.1637
 54.6736  6365.82  79.9729
 54.7156  6394.59  80.2197
 54.7576  6248.61  79.285
 54.7996  6530.87  81.2302
 54.8416  6321.5  79.9474
 54.8836  6298.62  79.9083
 54.9256  6248.6  79.3417
 54.9676  6350.29  79.8688
 55.0096  6326.86  79.7478
 55.0516  6229.42  79.3009
 55.0936  6264.73  79.2598
 55.1356  6216.12  78.9751
 55.1776  6372.2  80.2056
 55.2196  6333.64  79.7438
 55.2616  6454.12  80.7285
 55.3036  6134.61  78.8686
 55.3456  6206.21  79.4798
 55.3876  6412.41  80.5006
 55.4296  6169.4  78.9744
 55.4716  6232.58  79.4064
 55.5136  6215.03  79.0516
 55.5556  6385.27  80.1852
 55.5976  6247.72  79.3862
 55.6396  6234.43  79.1702
 55.6816  6169.11  78.7082
 55.7236  6135.13  78.544
 55.7656  6279.4  79.1884
 55.8076  6233.69  78.9068
 55.8496  6333.28  79.9589
 55.8916  6234.64  79.3855
 55.9336  6386.78  80.2239
 55.9756  6245.29  79.2165
 56.0176  6190.07  79.012
 56.0596  6146.62  78.7208
 56.1016  6048.72  78.1432
 56.1436  6203.94  79.3631
 56.1856  6029.26  77.9878
 56.2276  6305.41  79.8082
 56.2696  6203.75  79.1433
 56.3116  6213.92  79.5657
 56.3536  6181.13  79.0157
 56.3956  6184.87  79.0426
 56.4376  6165.2  78.9535
 56.4796  6029.64  77.9043
 56.5216  6164.22  79.1423
 56.5636  6150.77  78.6175
 56.6056  6187.85  79.0977
 56.6476  6138.76  78.3968
 56.6896  6213.14  79.3234
 56.7316  6015.25  77.966
 56.7736  6142.55  78.8057
 56.8156  6114.44  78.6332
 56.8576  5923.62  77.341
 56.8996  6035.32  77.9677
 56.9416  6113.9  78.786
 56.9836  6171.22  78.688
 57.0256  5941.95  77.4936
 57.0676  6171.26  79.0912
 57.1096  6065.87  78.2274
 57.1516  6017.97  77.9413
 57.1936  6026.13  77.7728
 57.2356  5953.04  77.6026
 57.2776  6057.06  78.2766
 57.3196  6048.07  78.5421
 57.3616  5995.53  77.7103
 57.4036  6096.5  78.3989
 57.4456  6115.89  78.5158
 57.4876  6094.12  78.2562
 57.5296  5954.45  77.5913
 57.5716  6001.9  77.9864
 57.6136  5944.94  77.4547
 57.6556  6087.08  78.4857
 57.6976  6038.5  78.0218
 57.7396  5958.56  77.8355
 57.7816  5868.16  77.6099
 57.8236  5906.95  77.6577
 57.8656  6041.95  78.2241
 57.9076  5978.14  77.8252
 57.9496  5979.85  78.1887
 57.9916  6070.79  78.2851
 58.0336  5979.43  77.9825
 58.0756  5985.43  77.612
 58.1176  5939.45  77.3559
 58.1596  5850.36  77.3409
 58.2016  5801.11  76.262
 58.2436  5853.66  77.0004
 58.2856  5716.93  76.0287
 58.3276  5718.47  76.3891
 58.3696  5747.53  76.3437
 58.4116  5671.69  75.7124
 58.4536  5792.91  76.4023
 58.4956  5715.09  76.0644
 58.5376  5815.36  76.3116
 58.5796  5668.9  75.757
 58.6216  5720.87  75.9242
 58.6636  5764.3  76.4191
 58.7056  5742.65  76.1334
 58.7476  5635.83  75.8518
 58.7896  5663.87  75.6964
 58.8316  5800.29  76.5937
 58.8736  5760.9  76.3446
 58.9156  5635.69  75.5509
 58.9576  5696.64  76.2752
 58.9996  5684.02  75.4592
 59.0416  5728.45  76.1136
 59.0836  5627.9  75.355
 59.1256  5749.09  76.8502
 59.1676  5641.53  76.4191
 59.2096  5542.85  75.1036
 59.2516  5765.55  76.1881
 59.2936  5735.07  76.3062
 59.3356  5609.69  75.3497
 59.3776  5634.72  75.6809
 59.4196  5638.38  75.644
 59.4616  5740.38  76.1881
 59.5036  5666.43  75.7302
 59.5456  5837.23  76.5614
 59.5876  5671.87  75.6544
 59.6296  5584.63  75.1369
 59.6716  5613.91  75.3895
 59.7136  5635.36  75.5221
 59.7556  5624.6  75.5816
 59.7976  5748.09  76.1553
 59.8396  5634.44  75.2965
 59.8816  5698.38  76.2512
 59.9236  5579.5  75.1103
 59.9656  5616.19  75.6075
 60.0076  5647.45  75.1968
 60.0496  5660.09  75.7662
 60.0916  5916.11  76.8874
 60.1336  5644.88  76.175
 60.1756  5664.07  77.4514
 60.1996  0.0000000E+00  0.0000000E+00