File: docs/examples/opeando_xrd/IS17_D/Data/IS17_D/17_Da_f00057.xye
# /beamlines/bl04/projects/cycle2025-II/20250340211-lsimonelli/DATA/IS17_D/17_Da_f00057.xye : mythproc.py merge -s 0.006 -l 0.5 -f /beamlines/bl04/inhouse/ff/FlatField/ff_20Nov2024rod8mm60s_17keV.raw -b True -c true -o xye /beamlines/bl04/projects/cycle2025-II/20250340211-lsimonelli/DATA/IS17_D/17_Da_00057.dat
# IsMon = [6774168, 6774079, 6774426]  IsPos = [-1.5000, -2.4884, -3.4988]
# Wave = 0.4962  CalPath /beamlines/bl04/projects/cycle2025-II/20250340211-lsimonelli/DATA/Align/Si_Pos1_25keV_f00001.cal
# Date = 2025-09-24_09:25:02 Dt = 4.8000  Bin = 0.0060  <imon> = 6774224 +/- 147 (Min/Max) 6774079 / 6774426
# icurr 251.2939  mocoIn 1.7146E-05  mocoOut 0.8047  i15 7.09407e+06  imon 6.77422e+06  i7 4.6667  iEMpd_timer 4.8000  iEMpd_1 3.4721E-08  iEMpd_2 7.9554E-08  iEMpd_3 1.7137E-08  iEMpd_4 4.6973E-08  iEMhp_timer 4.8000  iEMhp_1 4.9110E-06  iEMhp_2 -2.5887E-08  iEMhp_3 -2.4739E-08  iEMhp_4 -2.3919E-08
#      9776
 1.5856  40878.4  207.612
 1.6276  47911.8  220.907
 1.6696  54908.9  235.654
 1.7116  63231.1  253.377
 1.7536  72586.5  270.319
 1.7956  77810.9  280.577
 1.8376  73214.5  272.595
 1.8796  61891.4  248.793
 1.9216  50184  224.917
 1.9636  42479.1  206.605
 2.0056  38024.3  194.223
 2.0476  34974.2  188.312
 2.0896  33756.3  183.92
 2.1316  32878.2  180.639
 2.1736  31271.7  177.568
 2.2156  32230.3  178.823
 2.2576  30514.3  174.62
 2.2996  29568.4  172.524
 2.3416  30085.4  172.638
 2.3836  29222.6  170.248
 2.4256  28222.7  167.856
 2.4676  28163.3  167.441
 2.5096  27391  165.183
 2.5516  26937.3  167.597
 2.5936  27020.1  164.474
 2.6356  26551.3  163.728
 2.6776  26537.8  162.581
 2.7196  26038  161.551
 2.7616  25979.2  161.148
 2.8036  25520.6  159.89
 2.8456  25406.5  160.143
 2.8876  24930.5  158.516
 2.9296  24714.9  157.954
 2.9716  24540  156.888
 3.0136  24279.5  156.119
 3.0556  24271.4  156.491
 3.0976  24107.1  154.89
 3.1396  24127  155.675
 3.1816  23832.3  154.658
 3.2236  23695.6  154.207
 3.2656  23740.5  153.397
 3.3076  23452.1  153.911
 3.3496  23756.8  153.845
 3.3916  24274.4  155.339
 3.4336  24708.6  157.302
 3.4756  25128.7  158.561
 3.5176  25721.7  160.208
 3.5596  25522.6  162.589
 3.6016  25844.8  160.652
 3.6436  24946.4  158.935
 3.6856  24674.2  156.361
 3.7276  23525.4  153.765
 3.7696  23532.8  153.778
 3.8116  23107.2  152.468
 3.8536  23181.3  152.647
 3.8956  23103.7  152.215
 3.9376  22952.8  151.973
 3.9796  22904.8  151.322
 4.0216  23037.8  150.795
 4.0636  22969.8  152.045
 4.1056  23145.3  152.268
 4.1476  23186.4  152.715
 4.1896  23551.5  153.777
 4.2316  23540.2  153.56
 4.2736  24059.4  155.034
 4.3156  24459.2  156.547
 4.3576  25115  158.558
 4.3996  25293.3  159.375
 4.4416  26000.2  161.172
 4.4836  26149.8  161.79
 4.5256  26608.6  163.814
 4.5676  26657.4  164.222
 4.6096  26992.8  164.265
 4.6516  27367.4  164.747
 4.6936  27758.9  166.737
 4.7356  27992.4  167.268
 4.7776  28005.8  167.14
 4.8196  27421.9  166.036
 4.8616  27140.5  164.665
 4.9036  26755.3  163.236
 4.9456  26624  163.487
 4.9876  26130.5  161.863
 5.0296  26455  162.676
 5.0716  26264.1  162.871
 5.1136  26538.8  163.429
 5.1556  26596.9  163.072
 5.1976  27124  164.673
 5.2396  27353  165.064
 5.2816  27083.9  164.709
 5.3236  27204.6  164.782
 5.3656  26798.9  164.47
 5.4076  26703.3  164.324
 5.4496  27020.3  164.78
 5.4916  26872.6  164.087
 5.5336  27077.1  164.719
 5.5756  26566.5  163.184
 5.6176  26884.8  163.597
 5.6596  27198.4  165.377
 5.7016  27233.1  164.894
 5.7436  27371.1  165.587
 5.7856  27266.2  165.322
 5.8276  27774  166.581
 5.8696  27734.8  166.521
 5.9116  27689.3  167.105
 5.9536  27944.6  167.619
 5.9956  28376.9  168.27
 6.0376  28317.1  168.736
 6.0796  28310.4  168.547
 6.1216  28605.5  169.631
 6.1636  28840.8  169.382
 6.2056  28715.5  169.68
 6.2476  28776.1  169.549
 6.2896  29389  171.21
 6.3316  29110.9  170.572
 6.3736  29422.4  171.378
 6.4156  29156.6  170.554
 6.4576  29607.3  171.41
 6.4996  29757.4  172.33
 6.5416  29717.9  172.352
 6.5836  29790  172.797
 6.6256  29862.2  172.559
 6.6676  30330.5  173.475
 6.7096  30290.6  174.219
 6.7516  30596.9  174.754
 6.7936  30839.5  174.866
 6.8356  31036.6  175.505
 6.8776  31238.2  176.883
 6.9196  31375.5  177.671
 6.9616  31874.7  178.52
 7.0036  32113  178.827
 7.0456  32244.7  178.489
 7.0876  32293.9  180.246
 7.1296  32060.2  178.808
 7.1716  32066.4  178.358
 7.2136  31887.3  177.644
 7.2556  32357.8  179.108
 7.2976  32139.8  179.011
 7.3396  31911.5  178.586
 7.3816  32136.3  179.433
 7.4236  32145.6  178.743
 7.4656  32330.9  178.743
 7.5076  32693.6  179.877
 7.5496  32735.4  180.537
 7.5916  32546.4  180.037
 7.6336  33034.7  181.285
 7.6756  33165.7  181.497
 7.7176  33447.4  182.57
 7.7596  33425  183.772
 7.8016  33722.5  186.769
 7.8436  34094.9  184.467
 7.8856  34438  184.999
 7.9276  35280  187.648
 7.9696  35242.1  187.863
 8.0116  36545.9  189.824
 8.0536  36392.7  189.683
 8.0956  36366.6  190.806
 8.1376  36873.3  191.593
 8.1796  37163.5  192.889
 8.2216  37822.2  193.317
 8.2636  38137  194.373
 8.3056  37952.3  194.679
 8.3476  38623.1  195.707
 8.3896  38360  195.126
 8.4316  38749.6  196.283
 8.4736  38593.8  195.349
 8.5156  38375.9  195.077
 8.5576  38350.5  195.993
 8.5996  38139.8  194.317
 8.6416  37762.2  194.626
 8.6836  37869.1  194.731
 8.7256  38347.7  195.396
 8.7676  37682.4  196.618
 8.8096  37547.6  193.552
 8.8516  37296.9  192.563
 8.8936  36650.3  190.742
 8.9356  36935.9  191.8
 8.9776  37361  193.02
 9.0196  36888.9  191.461
 9.0616  37084.8  191.439
 9.1036  36240.7  190.439
 9.1456  36718.8  191.041
 9.1876  36575.1  190.614
 9.2296  36856.7  190.748
 9.2716  35924.6  188.382
 9.3136  36103.9  188.831
 9.3556  36189.1  189.035
 9.3976  34786.4  185.864
 9.4396  35248.3  186.991
 9.4816  34593.8  185.107
 9.5236  34801.6  185.574
 9.5656  34693.2  185.609
 9.6076  34280.7  185.035
 9.6496  34440.6  185.39
 9.6916  34257.2  184.87
 9.7336  34227.7  184.564
 9.7756  34287  185.848
 9.8176  33635.5  183.71
 9.8596  33943.3  182.975
 9.9016  33304.6  181.24
 9.9436  33023.8  180.222
 9.9856  32719  179.767
 10.0276  32318.3  179.792
 10.0696  32550.4  179.465
 10.1116  31644.5  177.213
 10.1536  31244.8  175.762
 10.1956  31237  175.834
 10.2376  30657.1  173.696
 10.2796  30979.2  174.734
 10.3216  30891.4  174.619
 10.3636  30488.8  173.648
 10.4056  30215.3  173.27
 10.4476  29781.2  171.643
 10.4896  30216.4  172.342
 10.5316  29336.7  170.189
 10.5736  29351.8  170.981
 10.6156  28970.8  169.632
 10.6576  29124.3  168.636
 10.6996  28771.2  168.273
 10.7416  28630.9  168.105
 10.7836  28464.3  168.315
 10.8256  28210.7  167.999
 10.8676  28353.2  167.951
 10.9096  27698.3  166.04
 10.9516  27737.1  165.077
 10.9936  27639.4  164.985
 11.0356  27211.4  164.341
 11.0776  27376.1  164.147
 11.1196  26842.5  163.285
 11.1616  26614.7  162.286
 11.2036  26814.5  162.743
 11.2456  26707.6  163.125
 11.2876  26433.9  162.01
 11.3296  26280.4  161.438
 11.3716  26710.4  162.493
 11.4136  26713.6  163.367
 11.4556  26984.6  163.855
 11.4976  27565.5  164.556
 11.5396  27742.9  165.263
 11.5816  27541.7  165.116
 11.6236  27157.6  164.2
 11.6656  26616.4  161.7
 11.7076  25896.4  160.34
 11.7496  25803.5  164.022
 11.7916  25770.5  159.209
 11.8336  25404.2  158.961
 11.8756  25204.1  157.867
 11.9176  25416.8  158.191
 11.9596  25047  157.221
 12.0016  24931.6  157.656
 12.0436  25024.7  157.366
 12.0856  24566  156.446
 12.1276  24696.1  156.774
 12.1696  24670.1  155.823
 12.2116  24941.9  156.672
 12.2536  24379.8  155.703
 12.2956  24681  156.022
 12.3376  24473.8  155.574
 12.3796  24675.2  156.683
 12.4216  24458.1  155.201
 12.4636  24230.9  155.394
 12.5056  24456.2  155.384
 12.5476  24489.7  155.016
 12.5896  24687  156.282
 12.6316  24218  154.944
 12.6736  24186.2  155.33
 12.7156  24180.4  155.17
 12.7576  24212.5  155.527
 12.7996  24599  155.388
 12.8416  24140.5  154.989
 12.8836  24833.6  157.024
 12.9256  25021.5  156.617
 12.9676  24982  156.922
 13.0096  24706.2  157.155
 13.0516  24870.1  156.715
 13.0936  25123.4  157.628
 13.1356  25366.4  157.644
 13.1776  24771.3  156.777
 13.2196  25201.4  157.789
 13.2616  25163  157.981
 13.3036  25013.5  157.643
 13.3456  25101.7  158.118
 13.3876  25066  157.284
 13.4296  24704.4  156.296
 13.4716  25046.5  156.986
 13.5136  24929.3  156.779
 13.5556  24951.5  157.463
 13.5976  25077.3  158.012
 13.6396  25217.4  157.806
 13.6816  24596.8  156.218
 13.7236  25602.1  159.161
 13.7656  24604.3  156.548
 13.8076  25075.1  156.812
 13.8496  24679.1  156.36
 13.8916  24665.3  157.141
 13.9336  24728  156.559
 13.9756  24625.2  155.581
 14.0176  24431.9  155.65
 14.0596  24421.6  155.586
 14.1016  24068.2  154.849
 14.1436  23842.2  153.251
 14.1856  23858.9  153.605
 14.2276  23319.4  152.341
 14.2696  23762.1  153.62
 14.3116  23385.7  152.302
 14.3536  23142  151.679
 14.3956  23002.8  150.957
 14.4376  23211.1  151.413
 14.4796  22894.1  150.372
 14.5216  22488.1  149.826
 14.5636  22515  149.474
 14.6056  22671.9  149.574
 14.6476  22593.5  148.539
 14.6896  22231.5  147.882
 14.7316  21927  147.899
 14.7736  21674.8  146.198
 14.8156  21699  146.318
 14.8576  21464.6  145.37
 14.8996  21030.5  145.103
 14.9416  20759.8  144.163
 14.9836  20874.6  144.529
 15.0256  20550.4  142.326
 15.0676  20666.9  143.046
 15.1096  20505.5  142.222
 15.1516  20277.1  141.99
 15.1936  20251.2  141.32
 15.2356  19649.6  139.486
 15.2776  19756.2  139.446
 15.3196  19194  138.449
 15.3616  19359.7  138.799
 15.4036  19345  138.603
 15.4456  19623.1  139.244
 15.4876  19124.5  137.138
 15.5296  18920.3  136.696
 15.5716  18840.3  136.002
 15.6136  18808.9  136.222
 15.6556  18731.2  135.171
 15.6976  18616.3  135.053
 15.7396  18469.4  134.913
 15.7816  18403.4  134.178
 15.8236  18037  133.536
 15.8656  18154  133.758
 15.9076  17846.5  132.446
 15.9496  17821  135.153
 15.9916  17846.5  135.685
 16.0336  17465.3  131.119
 16.0756  17622.6  132.021
 16.1176  17690.4  132.188
 16.1596  17209.7  131.719
 16.2016  17360.5  131.034
 16.2436  17110.4  130.47
 16.2856  17128.6  130.079
 16.3276  16772.2  129.138
 16.3696  17085.4  130.153
 16.4116  16766.2  129.396
 16.4536  16910.8  129.738
 16.4956  16727.4  128.763
 16.5376  16592.6  128.43
 16.5796  16716.7  128.271
 16.6216  16736.4  128.653
 16.6636  16694  128.637
 16.7056  16590.7  128.113
 16.7476  16824.2  128.536
 16.7896  16554  128.25
 16.8316  16705  128.802
 16.8736  16579.6  128.576
 16.9156  16643  129.161
 16.9576  16322.1  128.713
 16.9996  16465.9  129.769
 17.0416  16517  128.309
 17.0836  16567.8  128.257
 17.1256  16296.7  127.213
 17.1676  16345.5  127.404
 17.2096  16334.4  127.236
 17.2516  16109.2  126.435
 17.2936  16113.4  126.472
 17.3356  15819.3  125.323
 17.3776  15759.9  125.282
 17.4196  15881.4  125.455
 17.4616  15922  125.533
 17.5036  15545.1  124.406
 17.5456  15333.3  124.199
 17.5876  15295.6  123.09
 17.6296  15483.3  123.645
 17.6716  15302.2  123.512
 17.7136  15128.7  122.948
 17.7556  15011.8  122.767
 17.7976  15126.1  122.975
 17.8396  14920  121.63
 17.8816  15179.3  123.232
 17.9236  14827.8  121.609
 17.9656  15093.7  123.236
 18.0076  14917.2  122.085
 18.0496  14937.8  121.305
 18.0916  14813.2  121.341
 18.1336  14808  121.414
 18.1756  14963.6  121.572
 18.2176  14719.7  120.81
 18.2596  14734.6  120.61
 18.3016  14923.8  121.639
 18.3436  14974.6  121.843
 18.3856  14642.3  120.622
 18.4276  14791.7  120.909
 18.4696  14640.4  120.383
 18.5116  14740.7  121.089
 18.5536  14797.4  121.686
 18.5956  14433.1  119.727
 18.6376  14631.4  120.957
 18.6796  14329  119.024
 18.7216  14550.7  120.43
 18.7636  14326.4  119.477
 18.8056  14318.7  119.395
 18.8476  14293.1  119.921
 18.8896  14304.2  119.297
 18.9316  14553.3  120.313
 18.9736  14316.8  119.027
 19.0156  14240.6  119.118
 19.0576  14352.9  118.443
 19.0996  14392.4  119.326
 19.1416  14160.4  118.749
 19.1836  14174.2  118.411
 19.2256  13960  117.73
 19.2676  14163.5  118.675
 19.3096  14209.4  119.107
 19.3516  14109.7  118.474
 19.3936  14109.1  118.55
 19.4356  14142  118.548
 19.4776  14222.9  118.994
 19.5196  14125  118.432
 19.5616  14177.5  118.91
 19.6036  14317.4  118.988
 19.6456  14222.4  118.717
 19.6876  14104.2  117.867
 19.7296  14193.5  118.695
 19.7716  14084.3  118.405
 19.8136  14253.6  119.316
 19.8556  14618.3  120.309
 19.8976  14385  119.409
 19.9396  14646.5  120.058
 19.9816  14848.9  121.132
 20.0236  14938.4  121.721
 20.0656  15223.9  122.874
 20.1076  14820.3  121.706
 20.1496  14852.9  121.85
 20.1916  14606.4  120.29
 20.2336  14435.2  119.566
 20.2756  14119.2  118.676
 20.3176  13990.3  117.882
 20.3596  13940.9  117.651
 20.4016  13898.2  117.273
 20.4436  13884  117.774
 20.4856  13660.4  116.613
 20.5276  13576.2  116.711
 20.5696  13655.9  116.617
 20.6116  13686.1  116.92
 20.6536  13666.4  116.338
 20.6956  13535.7  115.906
 20.7376  13505.7  116.009
 20.7796  13394.2  115.212
 20.8216  13595.4  115.783
 20.8636  13380.3  115.227
 20.9056  13352  115.061
 20.9476  13287.8  114.623
 20.9896  13463.4  115.236
 21.0316  13646.8  115.92
 21.0736  13153.4  114.325
 21.1156  13432.2  115.691
 21.1576  13496.1  116.014
 21.1996  13207.8  114.752
 21.2416  13061  113.943
 21.2836  13340.1  115.117
 21.3256  13129.4  114.283
 21.3676  13227.5  114.259
 21.4096  13162  114.346
 21.4516  13103.3  113.913
 21.4936  12931.7  113.415
 21.5356  13138.1  114.262
 21.5776  13230  114.493
 21.6196  13056.3  113.768
 21.6616  12957.3  113.43
 21.7036  13105.5  113.855
 21.7456  13012.8  113.527
 21.7876  12986.8  113.161
 21.8296  12989.6  113.029
 21.8716  12943.4  113.063
 21.9136  13064.8  113.791
 21.9556  12929.6  112.873
 21.9976  12801.6  112.314
 22.0396  12857.9  112.831
 22.0816  12901.5  113.57
 22.1236  13001  113.455
 22.1656  13070  113.879
 22.2076  12996.7  113.029
 22.2496  12870.2  112.506
 22.2916  13035.6  113.108
 22.3336  12936  113.408
 22.3756  13070.7  113.713
 22.4176  12823.9  112.485
 22.4596  12674.1  112.419
 22.5016  12914  112.968
 22.5436  12936.3  112.944
 22.5856  12660.2  111.979
 22.6276  12901.6  113.18
 22.6696  12975.7  113.864
 22.7116  12750.1  112.378
 22.7536  12919.8  113.099
 22.7956  12792.2  111.859
 22.8376  12560.1  111.367
 22.8796  12892.6  112.631
 22.9216  12935.2  113.369
 22.9636  12737.1  111.646
 23.0056  12884.1  112.425
 23.0476  12981.4  113.43
 23.0896  13132.6  113.452
 23.1316  13007.7  113.355
 23.1736  12847.8  115.635
 23.2156  13021.3  113.746
 23.2576  13070.4  114.089
 23.2996  12797.5  112.677
 23.3416  12800.1  113.2
 23.3836  12619  111.643
 23.4256  12894.2  112.961
 23.4676  12726.7  111.924
 23.5096  12600.4  112.046
 23.5516  12783  112.13
 23.5936  12726.5  112.798
 23.6356  13112.2  114.152
 23.6776  12707  112.593
 23.7196  12520.5  111.551
 23.7616  12798.5  112.483
 23.8036  12720.1  112.178
 23.8456  12743.5  111.849
 23.8876  12440.9  110.864
 23.9296  12588.5  112.016
 23.9716  12496.5  110.795
 24.0136  12632.6  112.309
 24.0556  12288.6  110.498
 24.0976  12263.5  110.189
 24.1396  12347  113.233
 24.1816  12358.1  111.694
 24.2236  12205  110.609
 24.2656  12126.3  109.725
 24.3076  12187  110.244
 24.3496  12246.8  110.412
 24.3916  12247.4  110.462
 24.4336  12147.5  110.222
 24.4756  12096.3  109.849
 24.5176  11904.8  108.633
 24.5596  11837.6  108.647
 24.6016  11795.6  108.546
 24.6436  11890.2  108.459
 24.6856  11839.1  107.997
 24.7276  11891.1  108.551
 24.7696  11735.7  107.955
 24.8116  11723.9  108.074
 24.8536  11731.9  108.118
 24.8956  11748  107.923
 24.9376  11411.1  106.536
 24.9796  11384.9  106.535
 25.0216  11498.1  107.174
 25.0636  11417.1  106.451
 25.1056  11353.8  106.861
 25.1476  11452.3  108.979
 25.1896  11636.3  108.322
 25.2316  11571.8  107.286
 25.2736  11410  106.185
 25.3156  11398.7  106.21
 25.3576  11334  106.33
 25.3996  11332.6  106.305
 25.4416  11328.7  106.274
 25.4836  11064.4  105.551
 25.5256  11317.9  106.11
 25.5676  11248.4  105.512
 25.6096  11143.1  105.588
 25.6516  11261.2  105.647
 25.6936  11121.4  105.3
 25.7356  11172.5  105.675
 25.7776  11214.6  105.559
 25.8196  11047.1  104.924
 25.8616  11247.1  105.793
 25.9036  11108.5  104.606
 25.9456  11146.7  105.388
 25.9876  11043.9  104.825
 26.0296  11123.9  104.853
 26.0716  10866.8  104.049
 26.1136  11139  105.289
 26.1556  11104.9  104.505
 26.1976  11078.8  105.318
 26.2396  11079.6  104.471
 26.2816  10999.4  104.704
 26.3236  11034.3  105.027
 26.3656  11016.8  104.664
 26.4076  11093.9  105.243
 26.4496  11555.4  106.952
 26.4916  11207.6  105.28
 26.5336  11093.8  105.065
 26.5756  11284.5  105.825
 26.6176  11022.4  104.639
 26.6596  10829.6  104.027
 26.7016  10798.4  103.636
 26.7436  10888.8  104.195
 26.7856  10685.7  103.205
 26.8276  10663  103.043
 26.8696  10833.3  103.743
 26.9116  10759  103.33
 26.9536  10717.1  103.175
 26.9956  10722.7  103.236
 27.0376  10616.1  102.936
 27.0796  10637.2  102.773
 27.1216  10564.1  102.49
 27.1636  10508.2  102.382
 27.2056  10589.6  102.663
 27.2476  10541  102.429
 27.2896  10612.5  102.887
 27.3316  10433.4  101.721
 27.3736  10548.7  102.557
 27.4156  10410.3  101.72
 27.4576  10412.5  101.965
 27.4996  10449.8  101.733
 27.5416  10432.2  101.973
 27.5836  10420.8  101.731
 27.6256  10732.5  103.431
 27.6676  10694.2  103.248
 27.7096  10397.1  101.671
 27.7516  10427.4  101.971
 27.7936  10368.9  101.856
 27.8356  10319.9  101.229
 27.8776  10339.1  101.371
 27.9196  10265.7  100.862
 27.9616  10332.5  101.383
 28.0036  10279.4  101.093
 28.0456  10351.3  101.58
 28.0876  10184.9  100.85
 28.1296  10212.1  100.823
 28.1716  10257.7  101.058
 28.2136  10312.9  101.297
 28.2556  10078.8  100.253
 28.2976  10214.3  100.915
 28.3396  10170.5  100.456
 28.3816  10209.6  100.672
 28.4236  10094  100.253
 28.4656  10065.9  100.149
 28.5076  10148.6  100.194
 28.5496  10174.8  100.589
 28.5916  10109.4  100.07
 28.6336  10003.6  99.8889
 28.6756  10180.3  99.9585
 28.7176  10100.8  100.118
 28.7596  9914.15  99.0912
 28.8016  10013.2  99.6186
 28.8436  9901.64  99.3043
 28.8856  9983.1  99.5628
 28.9276  10071.9  100.251
 28.9696  9949.82  99.2988
 29.0116  9990.43  99.6871
 29.0536  9744.73  98.6541
 29.0956  9908.08  99.195
 29.1376  9735.33  98.2895
 29.1796  9851.66  98.9198
 29.2216  9817.68  98.5906
 29.2636  9846.26  98.8099
 29.3056  9822.56  98.4807
 29.3476  9890.52  99.3491
 29.3896  9869.6  99.3403
 29.4316  9986.98  99.2618
 29.4736  9856.14  98.6717
 29.5156  9954.5  99.0748
 29.5576  9862.71  99.3732
 29.5996  9961.03  99.1155
 29.6416  9774.63  98.2985
 29.6836  9897.82  98.8479
 29.7256  9825.47  99.0539
 29.7676  9703.43  98.0972
 29.8096  9722.32  98.1347
 29.8516  9699.09  98.3571
 29.8936  9761.58  98.7617
 29.9356  9804.75  98.7337
 29.9776  9797.55  98.8549
 30.0196  9812.75  98.302
 30.0616  9622.82  97.7307
 30.1036  9665.77  97.7733
 30.1456  9672.58  98.0396
 30.1876  9730.19  98.3133
 30.2296  9636.14  97.7846
 30.2716  9774.88  98.1167
 30.3136  9801.55  99.1224
 30.3556  9674.2  98.4864
 30.3976  9525.02  99.2382
 30.4396  9714.8  97.5385
 30.4816  9685.17  96.9886
 30.5236  9597.52  96.569
 30.5656  9638.2  97.4295
 30.6076  9649.75  97.2601
 30.6496  9656.95  97.3359
 30.6916  9546.05  96.8713
 30.7336  9540.42  96.9952
 30.7756  9615.92  97.4721
 30.8176  9698.06  97.8012
 30.8596  9575.6  96.9427
 30.9016  9540.81  96.6399
 30.9436  9687.82  97.6121
 30.9856  9538.63  96.9654
 31.0276  9405.46  95.8985
 31.0696  9436.36  96.6279
 31.1116  9415.21  96.4962
 31.1536  9432.4  96.465
 31.1956  9433.92  96.565
 31.2376  9342.71  96.1065
 31.2796  9352.63  95.6948
 31.3216  9390.43  95.8326
 31.3636  9474.45  96.956
 31.4056  9528.28  98.5516
 31.4476  9377.25  95.6527
 31.4896  9323.95  95.8867
 31.5316  9343.12  95.3862
 31.5736  9451.45  95.7511
 31.6156  9394.44  95.483
 31.6576  9453.42  95.8841
 31.6996  9481.2  95.6997
 31.7416  9329.5  95.8484
 31.7836  9502.13  95.8763
 31.8256  9303.27  95.1421
 31.8676  9315.35  95.1982
 31.9096  9315.5  95.4221
 31.9516  9019.95  94.1876
 31.9936  9242.47  95.1696
 32.0356  9247.21  95.2584
 32.0776  9216.66  94.9881
 32.1196  9350.1  95.6692
 32.1616  9395.61  95.4489
 32.2036  9196.05  94.9365
 32.2456  9289.6  95.8078
 32.2876  9309.12  95.3909
 32.3296  9166.82  94.6324
 32.3716  9127.9  94.5409
 32.4136  9240.82  95.3329
 32.4556  9364  95.3381
 32.4976  9236.18  94.6387
 32.5396  9097.7  93.9535
 32.5816  9175.94  94.478
 32.6236  9122.87  94.2723
 32.6656  9264.82  95.5546
 32.7076  9057.25  94.1303
 32.7496  9083.3  93.9285
 32.7916  9110.38  94.0288
 32.8336  9215.9  94.668
 32.8756  9194.48  94.2768
 32.9176  9063.68  94.0905
 32.9596  8967.9  93.6589
 33.0016  9075.43  94.0206
 33.0436  9128.11  94.4644
 33.0856  9052.65  94.1387
 33.1276  8976.71  93.4831
 33.1696  9033.41  93.6231
 33.2116  9144.47  94.4238
 33.2536  9119.23  94.29
 33.2956  9060.7  94.0749
 33.3376  8968.71  93.4142
 33.3796  9101.72  94.2274
 33.4216  9139.32  94.0201
 33.4636  9070.66  93.8029
 33.5056  8955.77  93.4633
 33.5476  8869.56  92.9988
 33.5896  9073.97  93.8363
 33.6316  8911.02  93.3092
 33.6736  8881.7  93.395
 33.7156  8830.78  93.1761
 33.7576  8852.42  92.9211
 33.7996  9184.9  94.4057
 33.8416  8890.05  93.0586
 33.8836  8871.61  92.7389
 33.9256  8871.02  92.8028
 33.9676  9025.67  93.5031
 34.0096  8800.1  92.6406
 34.0516  8851.54  92.5453
 34.0936  8826.73  92.6905
 34.1356  8903.83  92.8345
 34.1776  8763.68  92.1076
 34.2196  8696.08  91.9328
 34.2616  8739.31  92.2934
 34.3036  8707.7  92.3784
 34.3456  8802.76  92.6346
 34.3876  8898.84  93.1932
 34.4296  8745.75  91.9797
 34.4716  8857.81  92.7211
 34.5136  8825.32  92.7619
 34.5556  8741.69  92.5739
 34.5976  8815.84  92.7989
 34.6396  8709.28  91.9134
 34.6816  8587.17  91.3813
 34.7236  8784.91  92.2098
 34.7656  8631.2  91.5783
 34.8076  8652.29  92.0222
 34.8496  8755.49  92.4343
 34.8916  8750.24  92.2781
 34.9336  8841.84  92.7245
 34.9756  8728.59  92.0816
 35.0176  8828.88  93.1098
 35.0596  8684.95  92.1658
 35.1016  8679.06  91.9105
 35.1436  8790.77  92.1794
 35.1856  8587.25  91.2348
 35.2276  8715.9  92.0941
 35.2696  8688.37  92.1378
 35.3116  8636.66  91.962
 35.3536  8612.31  91.5679
 35.3956  8508.1  90.6898
 35.4376  8589.44  91.6777
 35.4796  8706.52  92.3655
 35.5216  8448.02  90.9387
 35.5636  8499.26  91.9669
 35.6056  8697.94  92.0395
 35.6476  8780.05  92.3661
 35.6896  8684.76  91.9536
 35.7316  8442.75  90.6337
 35.7736  8408.63  90.6512
 35.8156  8429.89  90.7587
 35.8576  8536.82  91.5904
 35.8996  8731.1  92.5931
 35.9416  8730.3  92.0698
 35.9836  8371.65  90.621
 36.0256  8630.99  91.9326
 36.0676  8496.81  90.9732
 36.1096  8439.81  90.8067
 36.1516  8519.66  91.12
 36.1936  8484.32  90.7823
 36.2356  8600.81  92.0513
 36.2776  8445.57  90.6813
 36.3196  8584.29  91.0985
 36.3616  8552.01  91.0642
 36.4036  8444.73  90.548
 36.4456  8456.72  90.8213
 36.4876  8326.58  90.0577
 36.5296  8404.16  90.5099
 36.5716  8441.95  91.5123
 36.6136  8624.46  91.247
 36.6556  8458.89  90.5721
 36.6976  8407.3  90.7958
 36.7396  8417.36  90.5788
 36.7816  8275.18  90.1855
 36.8236  8480.56  91.2172
 36.8656  8397.59  90.8427
 36.9076  8374.33  90.5961
 36.9496  8314.96  90.2627
 36.9916  8324.02  89.9317
 37.0336  8476.92  91.0798
 37.0756  8420.88  90.5691
 37.1176  8212.29  89.7034
 37.1596  8260.19  89.977
 37.2016  8154.25  89.624
 37.2436  8383.2  90.1736
 37.2856  8307.31  90.0216
 37.3276  8417.96  89.9676
 37.3696  8238.36  89.8946
 37.4116  8300.61  90.1368
 37.4536  8349.2  90.2688
 37.4956  8264.45  89.8499
 37.5376  8208.66  91.0947
 37.5796  8327.6  91.7222
 37.6216  8025.9  88.3104
 37.6636  8143.61  88.8653
 37.7056  8201.16  89.3724
 37.7476  8306.98  89.4756
 37.7896  8072.59  88.7059
 37.8316  8011.03  88.5335
 37.8736  8296.64  89.6177
 37.9156  8137.72  88.7586
 37.9576  8205.26  89.0208
 37.9996  8121.69  88.2795
 38.0416  8042.5  88.656
 38.0836  8229.33  89.5796
 38.1256  8051.64  88.5677
 38.1676  7947.2  88.1316
 38.2096  8117.75  88.6868
 38.2516  8125.01  88.9423
 38.2936  8099.02  88.5949
 38.3356  8225.14  89.2007
 38.3776  8019.42  88.3478
 38.4196  8161.69  88.9828
 38.4616  8151.82  89.1642
 38.5036  8136.77  88.9226
 38.5456  8124.2  89.7011
 38.5876  8147.38  89.8563
 38.6296  8078.57  88.4482
 38.6716  8042.93  88.0414
 38.7136  7975.78  87.6185
 38.7556  7984.43  88.1679
 38.7976  8047.25  88.4532
 38.8396  8032.31  88.8296
 38.8816  7998.27  88.4192
 38.9236  8017.89  88.3372
 38.9656  7945.57  87.8518
 39.0076  8089.01  88.0433
 39.0496  7980.77  87.9886
 39.0916  8081.47  88.1884
 39.1336  8061.05  88.4956
 39.1756  7982.7  88.1342
 39.2176  7995.01  88.7355
 39.2596  8145.73  89.4859
 39.3016  7876.54  87.5564
 39.3436  7933.89  88.3145
 39.3856  8125.28  88.8157
 39.4276  7961.3  88.3997
 39.4696  7914.84  87.778
 39.5116  7974.7  88.6193
 39.5536  8170.24  90.1373
 39.5956  8122.77  88.9658
 39.6376  8118.49  88.9483
 39.6796  7983.33  87.9403
 39.7216  8099.38  88.6808
 39.7636  8057.49  89.0236
 39.8056  7993.27  88.4491
 39.8476  7836.8  87.8271
 39.8896  7963.11  88.1659
 39.9316  7941.33  88.3005
 39.9736  8165.63  89.0975
 40.0156  8021.13  88.1323
 40.0576  8121.02  89.041
 40.0996  8016.3  87.6384
 40.1416  8004.36  88.3743
 40.1836  8154.65  89.0844
 40.2256  8103.86  88.8593
 40.2676  8049.94  88.7347
 40.3096  8090  88.816
 40.3516  8121.6  89.0924
 40.3936  8289.71  89.5643
 40.4356  8068.13  88.5491
 40.4776  8062.9  88.7762
 40.5196  8104.41  89.2978
 40.5616  8165.77  89.2731
 40.6036  8009.33  88.672
 40.6456  8171.05  89.1564
 40.6876  8027.67  88.3659
 40.7296  8161.48  89.2383
 40.7716  8086.37  88.9496
 40.8136  8065.16  88.7812
 40.8556  8086.5  89.0326
 40.8976  8146.07  89.2794
 40.9396  7936.45  88.4732
 40.9816  8192.11  89.1577
 41.0236  8086.71  88.3652
 41.0656  8105.24  89.0109
 41.1076  8145.93  89.0001
 41.1496  8190.51  89.1511
 41.1916  7985.16  88.3522
 41.2336  7988.6  88.3571
 41.2756  8013.79  88.104
 41.3176  8090.1  89.1405
 41.3596  8037.87  88.5843
 41.4016  8103  89.2036
 41.4436  8135.93  89.1661
 41.4856  8118.21  89.2355
 41.5276  8048.41  88.8718
 41.5696  8109.91  88.8353
 41.6116  7977.54  88.5038
 41.6536  8062.7  88.8345
 41.6956  8119.09  89.1243
 41.7376  8128.77  89.2758
 41.7796  7982.81  88.362
 41.8216  8079.22  89.1272
 41.8636  8037.6  88.8367
 41.9056  7933.76  88.0529
 41.9476  8060.1  88.9865
 41.9896  7984.85  88.2342
 42.0316  8062.06  88.7392
 42.0736  8123.08  89.218
 42.1156  7982.49  88.2508
 42.1576  8033.87  88.6353
 42.1996  8076.89  89.0176
 42.2416  8054.48  88.467
 42.2836  7959.14  88.0541
 42.3256  7967.3  88.2189
 42.3676  8065.95  88.5653
 42.4096  7943.53  87.8497
 42.4516  7962.03  88.0431
 42.4936  7856.32  87.5266
 42.5356  7918.59  88.0021
 42.5776  7964.97  88.2036
 42.6196  7999.56  88.4495
 42.6616  7763.97  87.3078
 42.7036  7978.59  87.882
 42.7456  7952.98  88.1016
 42.7876  7993.36  88.4297
 42.8296  8010.6  88.3497
 42.8716  7912.2  87.9605
 42.9136  7837.79  87.2994
 42.9556  7976.22  88.2471
 42.9976  7969.3  88.1721
 43.0396  7979.08  87.9466
 43.0816  7928.66  88.0564
 43.1236  7814.13  87.4736
 43.1656  7905.96  87.818
 43.2076  7863.72  87.6874
 43.2496  7878.65  87.5838
 43.2916  7829.05  87.6751
 43.3336  7871.93  87.7505
 43.3756  7828.15  87.2598
 43.4176  7683.02  86.5295
 43.4596  7902.82  87.6088
 43.5016  7818.43  87.5497
 43.5436  7892.53  87.853
 43.5856  7806.13  87.408
 43.6276  7803.02  87.2846
 43.6696  7758.34  87.2933
 43.7116  7931.2  87.7511
 43.7536  7882.51  87.9763
 43.7956  7690.52  88.0749
 43.8376  7770.41  87.0769
 43.8796  7679.94  86.6492
 43.9216  7734.53  86.8789
 43.9636  7770.9  87.1839
 44.0056  7709.41  87.0793
 44.0476  7677.62  86.5271
 44.0896  7593.21  86.394
 44.1316  7797.49  87.0651
 44.1736  7598.51  86.0733
 44.2156  7795.71  87.0284
 44.2576  7763.11  87.1799
 44.2996  7771.76  87.1999
 44.3416  7704.13  86.5757
 44.3836  7637.02  86.5353
 44.4256  7653.07  86.2638
 44.4676  7606.43  86.1533
 44.5096  7679.21  86.7139
 44.5516  7666.03  86.6065
 44.5936  7538.05  85.8309
 44.6356  7473.5  85.2009
 44.6776  7547.88  85.9425
 44.7196  7633.74  86.7344
 44.7616  7635.64  88.0804
 44.8036  7620.55  86.6152
 44.8456  7636.1  86.7043
 44.8876  7639.31  86.5724
 44.9296  7603.95  85.8217
 44.9716  7516.3  85.7593
 45.0136  7571.58  86.0039
 45.0556  7534.25  85.8739
 45.0976  7488.55  85.668
 45.1396  7462.05  85.2795
 45.1816  7559.01  85.7673
 45.2236  7635  86.0919
 45.2656  7487.96  85.7664
 45.3076  7451.37  85.3289
 45.3496  7504.75  85.9468
 45.3916  7442.35  85.8546
 45.4336  7407.47  85.4919
 45.4756  7370.2  85.1441
 45.5176  7496.37  85.4814
 45.5596  7559.73  85.9671
 45.6016  7469.46  85.8697
 45.6436  7565.5  85.5843
 45.6856  7361.34  85.0784
 45.7276  7424.63  86.7693
 45.7696  7470.74  86.7084
 45.8116  7419.61  85.8449
 45.8536  7333.03  85.2391
 45.8956  7461.93  85.3343
 45.9376  7446.24  84.7096
 45.9796  7485.05  85.6162
 46.0216  7356.59  85.2178
 46.0636  7504.22  85.2079
 46.1056  7440.59  84.8363
 46.1476  7273.2  84.4578
 46.1896  7294.67  84.7374
 46.2316  7223.32  84.1774
 46.2736  7346.86  85.1136
 46.3156  7356.65  84.9177
 46.3576  7375.07  85.2268
 46.3996  7384.85  85.4414
 46.4416  7342.5  84.7521
 46.4836  7326.78  85.0412
 46.5256  7399.57  85.4003
 46.5676  7292.03  84.8908
 46.6096  7345.67  85.1305
 46.6516  7484.16  84.9629
 46.6936  7376.79  84.8511
 46.7356  7373.05  84.9347
 46.7776  7229.18  84.9429
 46.8196  7294.86  85.0633
 46.8616  7208.51  84.365
 46.9036  7087.34  83.3169
 46.9456  7228.24  83.7833
 46.9876  7285.24  84.1973
 47.0296  7203.12  84.4069
 47.0716  7139.04  83.8498
 47.1136  7284.19  84.376
 47.1556  7325.59  84.4806
 47.1976  7347.89  84.7703
 47.2396  7168.68  84.0516
 47.2816  7211.01  83.998
 47.3236  7171.31  84.1366
 47.3656  7200.69  84.2387
 47.4076  7229.06  84.1355
 47.4496  7233.88  84.3299
 47.4916  7122.61  83.8704
 47.5336  7235.56  84.3412
 47.5756  7255.92  84.58
 47.6176  7137.48  83.7882
 47.6596  7060.14  83.051
 47.7016  7256.19  83.9974
 47.7436  7188.85  83.9467
 47.7856  7269.21  84.4464
 47.8276  7162.69  83.8827
 47.8696  7134.24  83.7903
 47.9116  7230.57  84.0741
 47.9536  7256.83  84.1645
 47.9956  7014.41  83.4508
 48.0376  7059.7  83.4967
 48.0796  7157.24  84.1963
 48.1216  7338.12  85.0739
 48.1636  7268.34  84.2413
 48.2056  7230.13  84.2814
 48.2476  7191.11  84.3552
 48.2896  7165.55  84.1246
 48.3316  7057.56  83.4292
 48.3736  7107.03  83.7375
 48.4156  7001.28  82.9744
 48.4576  7126.97  84.0074
 48.4996  7085.48  83.2222
 48.5416  7109.63  83.6838
 48.5836  7007.11  82.7524
 48.6256  7101.39  83.5145
 48.6676  7181.83  84.506
 48.7096  7076.22  83.1635
 48.7516  7053.15  83.1692
 48.7936  6963.62  82.7042
 48.8356  7094.55  83.5266
 48.8776  6983.22  83.4326
 48.9196  7219.31  84.2011
 48.9616  6980.51  83.1708
 49.0036  6954.66  83.3621
 49.0456  7100.46  84.2057
 49.0876  7054  83.469
 49.1296  6921.54  82.8519
 49.1716  6878.61  82.4624
 49.2136  7066.48  83.4972
 49.2556  7008.52  83.1924
 49.2976  7037.28  83.4295
 49.3396  6871.51  82.4987
 49.3816  7031.99  82.8892
 49.4236  7028.07  83.2946
 49.4656  6946.08  82.8219
 49.5076  6991.3  82.84
 49.5496  6955.76  82.6943
 49.5916  6998.27  82.8545
 49.6336  6929.25  82.6506
 49.6756  6959.77  83.0644
 49.7176  6963.87  83.0336
 49.7596  6923.71  82.5622
 49.8016  6918.82  82.4494
 49.8436  6889.22  82.5733
 49.8856  6821.89  82.1716
 49.9276  6859.53  82.4985
 49.9696  6897.27  82.7052
 50.0116  6952.76  83.1758
 50.0536  6916.14  82.9001
 50.0956  6896.58  82.8513
 50.1376  6910.81  82.6285
 50.1796  6818.27  82.3526
 50.2216  6860.64  82.6034
 50.2636  6927.71  82.625
 50.3056  6817.47  82.1377
 50.3476  6829.65  82.2288
 50.3896  6824.31  82.1712
 50.4316  6826.78  82.019
 50.4736  6775.57  81.9301
 50.5156  6873.02  82.5062
 50.5576  6855.27  82.1636
 50.5996  6786.18  82.0263
 50.6416  6775.73  81.8928
 50.6836  6791.19  82.04
 50.7256  6726.79  81.5773
 50.7676  6908.21  82.9816
 50.8096  6808.64  81.9314
 50.8516  6760.15  82.0521
 50.8936  6712.51  81.5457
 50.9356  6899.35  82.7803
 50.9776  6782.95  82.2304
 51.0196  6717.65  81.9622
 51.0616  6686.91  81.1074
 51.1036  6739.43  81.779
 51.1456  6747.04  81.7367
 51.1876  6637.8  80.4225
 51.2296  6814.19  82.1134
 51.2716  6769.22  81.5531
 51.3136  6685.29  81.5043
 51.3556  6674  81.0605
 51.3976  6694.46  81.3353
 51.4396  6556.42  80.7926
 51.4816  6642.49  81.169
 51.5236  6667.32  81.4108
 51.5656  6652.37  80.9272
 51.6076  6640.8  80.9384
 51.6496  6693.2  81.4478
 51.6916  6681.53  81.7289
 51.7336  6724.75  82.0882
 51.7756  6701.37  81.6408
 51.8176  6586.33  81.0459
 51.8596  6627.57  81.3137
 51.9016  6755.08  81.7003
 51.9436  6625.9  82.3356
 51.9856  6568.55  82.4305
 52.0276  6651.6  81.4661
 52.0696  6636.24  81.4339
 52.1116  6569.64  81.1451
 52.1536  6560.49  80.9248
 52.1956  6735.48  81.515
 52.2376  6687.39  81.3857
 52.2796  6675.15  81.1275
 52.3216  6413.57  80.202
 52.3636  6585.51  80.8464
 52.4056  6523.76  80.3247
 52.4476  6391.8  79.8713
 52.4896  6544.78  80.8725
 52.5316  6477.4  80.4966
 52.5736  6566.02  80.7775
 52.6156  6498.83  80.7326
 52.6576  6551.84  80.5147
 52.6996  6404.09  80.5528
 52.7416  6617.85  81.74
 52.7836  6531.58  81.0821
 52.8256  6565.28  80.5223
 52.8676  6374.26  79.9165
 52.9096  6453.84  80.4975
 52.9516  6515.08  81.256
 52.9936  6535.67  81.7662
 53.0356  6490.41  80.4887
 53.0776  6388.4  80.1114
 53.1196  6331.63  79.8779
 53.1616  6467.14  80.7785
 53.2036  6329.09  79.8663
 53.2456  6244.23  79.4254
 53.2876  6457.49  80.4804
 53.3296  6480.69  80.9513
 53.3716  6398.13  80.1811
 53.4136  6522.31  81.1036
 53.4556  6392.75  80.3243
 53.4976  6400.45  80.2218
 53.5396  6352.77  80.3151
 53.5816  6458.86  80.6165
 53.6236  6432.85  80.7897
 53.6656  6514.87  80.9363
 53.7076  6390.25  80.1163
 53.7496  6388.1  80.2193
 53.7916  6480.34  80.9248
 53.8336  6334  79.9069
 53.8756  6369.15  80.6794
 53.9176  6367  80.0155
 53.9596  6412.35  81.0697
 54.0016  6331.25  79.8814
 54.0436  6357.71  80.2692
 54.0856  6432.62  80.1602
 54.1276  6406.54  80.2037
 54.1696  6269.92  79.5108
 54.2116  6378.26  79.953
 54.2536  6292.76  79.2338
 54.2956  6450.67  80.2646
 54.3376  6393.69  80.3947
 54.3796  6375.66  80.1822
 54.4216  6377.42  80.2392
 54.4636  6397.76  80.3254
 54.5056  6414.28  80.247
 54.5476  6307.07  79.9103
 54.5896  6405.58  80.3582
 54.6316  6391.04  80.1285
 54.6736  6424.2  80.412
 54.7156  6382.66  80.1735
 54.7576  6274.71  79.4896
 54.7996  6311.31  79.8661
 54.8416  6430.97  80.6602
 54.8836  6324.67  80.1029
 54.9256  6229.38  79.2468
 54.9676  6378.99  80.046
 55.0096  6327.31  79.7961
 55.0516  6336.21  80.0878
 55.0936  6340.85  79.7473
 55.1356  6360.06  79.9071
 55.1776  6277.06  79.651
 55.2196  6331.08  79.7757
 55.2616  6294.91  79.7588
 55.3036  6274.75  79.7885
 55.3456  6274.33  79.9364
 55.3876  6322.66  79.9876
 55.4296  6320.18  79.9517
 55.4716  6277.07  79.7117
 55.5136  6299.96  79.6145
 55.5556  6295.68  79.6565
 55.5976  6226.16  79.2715
 55.6396  6368.3  80.0423
 55.6816  6335.91  79.7943
 55.7236  6281.49  79.4953
 55.7656  6308.16  79.4178
 55.8076  6379.25  79.8495
 55.8496  6279.8  79.6521
 55.8916  6276.12  79.7242
 55.9336  6257.64  79.4234
 55.9756  6207.54  78.9972
 56.0176  6240.75  79.3594
 56.0596  6247.55  79.381
 56.1016  6184.91  78.9986
 56.1436  6087.82  78.6378
 56.1856  6263.33  79.5007
 56.2276  6252.17  79.4897
 56.2696  6342.87  80.0313
 56.3116  6165.42  79.3075
 56.3536  6275.68  79.6701
 56.3956  6276.83  79.6679
 56.4376  6213.01  79.2914
 56.4796  6292.26  79.5969
 56.5216  6273.24  79.8544
 56.5636  6340.16  79.8666
 56.6056  6107.15  78.6106
 56.6476  6189.49  78.7721
 56.6896  6260.99  79.6752
 56.7316  6246.75  79.4963
 56.7736  6259.98  79.5733
 56.8156  6179.69  79.0584
 56.8576  6191.7  79.0767
 56.8996  6240.76  79.3296
 56.9416  6259.82  79.7521
 56.9836  6185.13  78.7906
 57.0256  6158.87  78.9402
 57.0676  6166.85  79.1159
 57.1096  6190.29  79.0565
 57.1516  6248.93  79.4957
 57.1936  6187.12  78.8432
 57.2356  6217.41  79.3598
 57.2776  6265.41  79.6237
 57.3196  6124.79  79.0913
 57.3616  6233.52  79.28
 57.4036  6200.5  79.1307
 57.4456  6121.07  78.5867
 57.4876  6245.94  79.2501
 57.5296  6178.07  79.1527
 57.5716  6169.62  79.0871
 57.6136  6225.69  79.2646
 57.6556  6211.48  79.3136
 57.6976  6312.93  79.7803
 57.7396  6226.4  79.6056
 57.7816  6120.91  79.2818
 57.8236  6221.15  79.7287
 57.8656  6145.21  78.8897
 57.9076  6192.49  79.2263
 57.9496  6194.48  79.5926
 57.9916  6157.57  78.8665
 58.0336  6234.12  79.634
 58.0756  6197.22  79.011
 58.1176  6219.72  79.172
 58.1596  6137.48  79.2146
 58.2016  6200.13  78.8398
 58.2436  6378.47  80.3862
 58.2856  6209.57  79.2347
 58.3276  6062.31  78.657
 58.3696  6123.09  78.801
 58.4116  6192.49  79.1114
 58.4536  6236.71  79.2803
 58.4956  6170.58  79.0407
 58.5376  6291.7  79.3753
 58.5796  6186.94  79.1397
 58.6216  6278.04  79.5331
 58.6636  6164.43  79.0236
 58.7056  6242.77  79.3814
 58.7476  6236.56  79.7931
 58.7896  6162.49  78.9582
 58.8316  6278.32  79.6931
 58.8736  6230.5  79.3939
 58.9156  6188.73  79.1771
 58.9576  6235.18  79.801
 58.9996  6416.6  80.1746
 59.0416  6263.1  79.5789
 59.0836  6230.78  79.2892
 59.1256  6102.15  79.1766
 59.1676  6236.61  80.3534
 59.2096  6051.54  78.4642
 59.2516  6264.77  79.408
 59.2936  6165.09  79.1052
 59.3356  6175.5  79.0483
 59.3776  6120.35  78.8646
 59.4196  6087.5  78.5883
 59.4616  6188.96  79.0988
 59.5036  6096.19  78.5358
 59.5456  6337.73  79.766
 59.5876  6245.29  79.3765
 59.6296  6317.34  79.9038
 59.6716  6089.64  78.5088
 59.7136  6202.15  79.2189
 59.7556  6269.18  79.7848
 59.7976  6245.25  79.3702
 59.8396  6305.94  79.6469
 59.8816  6260.74  79.9163
 59.9236  6268.53  79.6029
 59.9656  6147.81  79.0954
 60.0076  6220.39  78.909
 60.0496  6231.94  79.494
 60.0916  6202.86  78.7187
 60.1336  6049.18  78.8456
 60.1756  6460.64  82.7079
 60.1996  0.0000000E+00  0.0000000E+00