File: docs/examples/opeando_xrd/IS17_D/Data/IS17_D/17_Da_f00102.xye
# /beamlines/bl04/projects/cycle2025-II/20250340211-lsimonelli/DATA/IS17_D/17_Da_f00102.xye : mythproc.py merge -s 0.006 -l 0.5 -f /beamlines/bl04/inhouse/ff/FlatField/ff_20Nov2024rod8mm60s_17keV.raw -b True -c true -o xye /beamlines/bl04/projects/cycle2025-II/20250340211-lsimonelli/DATA/IS17_D/17_Da_00102.dat
# IsMon = [6786675, 6790026, 6786962]  IsPos = [-1.5000, -2.4885, -3.4986]
# Wave = 0.4962  CalPath /beamlines/bl04/projects/cycle2025-II/20250340211-lsimonelli/DATA/Align/Si_Pos1_25keV_f00001.cal
# Date = 2025-09-24_21:58:50 Dt = 4.8000  Bin = 0.0060  <imon> = 6787888 +/- 1517 (Min/Max) 6786675 / 6790026
# icurr 252.7651  mocoIn 1.7240E-05  mocoOut 0.8089  i15 7.10832e+06  imon 6.78789e+06  i7 3.0000  iEMpd_timer 4.8000  iEMpd_1 3.3146E-08  iEMpd_2 7.8225E-08  iEMpd_3 1.7066E-08  iEMpd_4 4.7744E-08  iEMhp_timer 4.8000  iEMhp_1 4.9365E-06  iEMhp_2 -2.4457E-08  iEMhp_3 -2.4070E-08  iEMhp_4 -2.1931E-08
#      9776
 1.5856  40437.7  206.507
 1.6276  47911.1  220.924
 1.6696  54809.5  235.461
 1.7116  63481.2  253.9
 1.7536  73051.9  271.207
 1.7956  77715.1  280.428
 1.8376  73997.7  274.073
 1.8796  62153.7  249.334
 1.9216  50167.7  224.9
 1.9636  42851.6  207.527
 2.0056  38419  195.245
 2.0476  35366.8  189.383
 2.0896  34193.3  185.122
 2.1316  33320.1  181.865
 2.1736  31514.1  178.27
 2.2156  32379.9  179.253
 2.2576  31223.1  176.653
 2.2996  29881.4  173.45
 2.3416  30545.8  173.966
 2.3836  29562.4  171.25
 2.4256  28960.9  170.051
 2.4676  28341.9  167.985
 2.5096  28683.8  169.051
 2.5516  27741.5  170.084
 2.5936  27733.8  166.625
 2.6356  27175.1  165.632
 2.6776  27330.2  164.978
 2.7196  26772.9  163.808
 2.7616  26943.6  164.106
 2.8036  26482.9  162.871
 2.8456  26530.2  163.642
 2.8876  26093.8  162.139
 2.9296  25555.5  160.611
 2.9716  25240.4  159.104
 3.0136  24952.5  158.259
 3.0556  25225.2  159.529
 3.0976  25044.7  157.881
 3.1396  24920.3  158.209
 3.1816  24370.8  156.385
 3.2236  24252.4  156.008
 3.2656  24226.8  154.948
 3.3076  23968.6  155.59
 3.3496  24228.2  155.608
 3.3916  24577.1  156.298
 3.4336  25007.9  158.245
 3.4756  25384  159.367
 3.5176  26313.8  162.032
 3.5596  25963.5  163.981
 3.6016  26025.1  161.212
 3.6436  25339.5  160.179
 3.6856  24886.5  157.024
 3.7276  23877  154.9
 3.7696  23710  154.357
 3.8116  23340.1  153.235
 3.8536  23401.5  153.371
 3.8956  23489.2  153.481
 3.9376  23094.4  152.477
 3.9796  23137.7  152.089
 4.0216  23254.7  151.498
 4.0636  23009.5  152.185
 4.1056  23127.3  152.201
 4.1476  23156.4  152.619
 4.1896  23558.4  153.796
 4.2316  23691.9  154.062
 4.2736  24022.3  154.917
 4.3156  24420.8  156.431
 4.3576  25068.8  158.415
 4.3996  25321  159.262
 4.4416  25979.2  161.108
 4.4836  26481.4  162.804
 4.5256  26913  164.753
 4.5676  26623.9  164.118
 4.6096  27344.2  165.333
 4.6516  27725.3  165.824
 4.6936  28004.7  167.482
 4.7356  27969.8  167.199
 4.7776  27938.7  166.936
 4.8196  27890.9  167.446
 4.8616  27217.3  165.028
 4.9036  26904.6  163.69
 4.9456  26949.4  164.48
 4.9876  26281  162.33
 5.0296  26562.9  163.004
 5.0716  26359.4  163.023
 5.1136  26706.5  163.946
 5.1556  26948.6  164.143
 5.1976  27261.2  165.091
 5.2396  27371.3  165.115
 5.2816  27402.6  165.673
 5.3236  27511.7  165.71
 5.3656  26824.5  164.543
 5.4076  26792.2  164.601
 5.4496  26994.1  164.702
 5.4916  26868.3  164.074
 5.5336  27005.8  164.497
 5.5756  26555.8  163.154
 5.6176  26914.6  163.685
 5.6596  27327.6  165.766
 5.7016  27105.6  164.508
 5.7436  27453.7  165.832
 5.7856  27393.1  165.707
 5.8276  27677.2  166.288
 5.8696  27861.1  166.903
 5.9116  27830.5  167.506
 5.9536  27877.8  167.424
 5.9956  28383.2  168.286
 6.0376  28319.9  168.746
 6.0796  28616.3  169.458
 6.1216  28473.1  169.235
 6.1636  28828.1  169.343
 6.2056  28856.4  170.094
 6.2476  29145.6  170.64
 6.2896  29172.1  170.576
 6.3316  29034.2  170.345
 6.3736  29203.6  170.738
 6.4156  29251.4  170.83
 6.4576  29684.2  171.636
 6.4996  29753.7  172.318
 6.5416  29588.5  171.975
 6.5836  29786.8  172.784
 6.6256  29728.7  172.173
 6.6676  30404  173.685
 6.7096  30109.4  173.7
 6.7516  30634.2  174.859
 6.7936  30734.2  174.319
 6.8356  30843.1  174.952
 6.8776  31199.6  176.77
 6.9196  31242.9  177.295
 6.9616  31555.3  177.592
 7.0036  32165.8  178.981
 7.0456  32261.9  178.536
 7.0876  32249.5  180.127
 7.1296  31867.5  178.273
 7.1716  31974.9  178.111
 7.2136  31714.6  177.162
 7.2556  32073.3  178.325
 7.2976  32011.6  178.652
 7.3396  31823.1  178.33
 7.3816  31967.8  178.96
 7.4236  32010.4  178.368
 7.4656  32324  178.724
 7.5076  32240.4  178.626
 7.5496  32550.2  180.029
 7.5916  32300.1  179.361
 7.6336  32757.3  180.523
 7.6756  32995.5  181.03
 7.7176  33259.9  182.059
 7.7596  33293.8  183.408
 7.8016  33526.4  186.239
 7.8436  33904.7  183.944
 7.8856  34238.5  184.454
 7.9276  34895.2  186.623
 7.9696  35071.8  187.396
 8.0116  36054.8  188.914
 8.0536  36230.9  189.254
 8.0956  36136.3  190.181
 8.1376  36309.9  190.114
 8.1796  36512.5  191.181
 8.2216  37333.7  192.061
 8.2636  37828.3  193.575
 8.3056  37248.1  192.866
 8.3476  38305.3  194.899
 8.3896  38033.6  194.743
 8.4316  38369.9  195.31
 8.4736  38453.9  194.983
 8.5156  37595.4  193.072
 8.5576  37574  193.992
 8.5996  37742.7  193.292
 8.6416  37239.2  193.257
 8.6836  37264.6  193.17
 8.7256  37669.5  193.646
 8.7676  37133.4  195.185
 8.8096  37020.8  192.205
 8.8516  36683.9  190.99
 8.8936  36358.5  189.979
 8.9356  36233.8  190
 8.9776  36627.3  191.134
 9.0196  36190.1  189.658
 9.0616  36337.5  189.506
 9.1036  36085  190.05
 9.1456  36117.4  189.48
 9.1876  36061  189.288
 9.2296  36273.9  189.242
 9.2716  35390.1  186.984
 9.3136  35147.7  186.334
 9.3556  35699.4  187.767
 9.3976  34191.8  184.289
 9.4396  34960.3  186.237
 9.4816  34301.5  184.339
 9.5236  34263.6  184.15
 9.5656  33983.7  183.71
 9.6076  34083.2  184.517
 9.6496  33667.8  183.313
 9.6916  33830  183.727
 9.7336  33752.2  183.294
 9.7756  33795.5  184.607
 9.8176  32994.6  181.945
 9.8596  33060.3  180.575
 9.9016  32222.2  178.264
 9.9436  32480.8  178.718
 9.9856  31876.6  177.443
 10.0276  31387.6  177.177
 10.0696  31882.3  177.606
 10.1116  30677.2  174.478
 10.1536  30360.5  173.257
 10.1956  30493.7  173.725
 10.2376  29958.3  171.708
 10.2796  30187.8  172.481
 10.3216  30098  172.343
 10.3636  29551.4  170.948
 10.4056  29356.9  170.783
 10.4476  29516.4  170.871
 10.4896  29254.4  169.569
 10.5316  28633.7  168.142
 10.5736  28624.2  168.835
 10.6156  28153.5  167.222
 10.6576  28307.7  166.251
 10.6996  27774  165.341
 10.7416  27528.2  164.827
 10.7836  27732.9  166.129
 10.8256  27525.7  165.946
 10.8676  27454.5  165.263
 10.9096  27115.1  164.29
 10.9516  27116.4  163.221
 10.9936  26905  162.782
 11.0356  26855.4  163.261
 11.0776  26693.8  162.086
 11.1196  26077.3  160.943
 11.1616  26056.1  160.563
 11.2036  26271.6  161.088
 11.2456  26029.9  161.038
 11.2876  25910.3  160.405
 11.3296  25764.1  159.851
 11.3716  26228.2  161.02
 11.4136  25850.6  160.706
 11.4556  26099.4  161.149
 11.4976  26223.8  160.502
 11.5396  26531.7  161.604
 11.5816  27038.1  163.603
 11.6236  27099.4  164.247
 11.6656  26641.3  161.779
 11.7076  26129.5  161.058
 11.7496  25606.9  163.394
 11.7916  25279.3  157.684
 11.8336  25162.2  158.23
 11.8756  24753.8  156.453
 11.9176  24939.1  156.943
 11.9596  24735  156.236
 12.0016  24661.6  156.799
 12.0436  24540.6  155.836
 12.0856  24343  155.734
 12.1276  24341.5  155.651
 12.1696  23953.6  153.546
 12.2116  24518  155.335
 12.2536  23907.8  154.184
 12.2956  24243  154.629
 12.3376  23990.1  154.032
 12.3796  24114.7  154.881
 12.4216  24039.5  153.868
 12.4636  23861.7  154.194
 12.5056  24112.3  154.281
 12.5476  24225.6  154.178
 12.5896  24244.1  154.867
 12.6316  23872.1  153.843
 12.6736  24038.1  154.709
 12.7156  23725.9  153.708
 12.7576  23819.8  154.248
 12.7996  23940.4  153.293
 12.8416  23688.3  153.528
 12.8836  24322.4  155.368
 12.9256  24715.3  155.652
 12.9676  24541.7  155.532
 13.0096  24191  155.516
 13.0516  24521.8  155.608
 13.0936  24537  155.777
 13.1356  24836.1  155.987
 13.1776  24592.2  156.21
 13.2196  24850.6  156.684
 13.2616  24707.4  156.542
 13.3036  24618.5  156.397
 13.3456  24542.9  156.148
 13.3876  24639.5  155.949
 13.4296  24567.2  155.865
 13.4716  24730.3  155.991
 13.5136  24632.3  155.832
 13.5556  24581.3  156.28
 13.5976  24534.2  156.277
 13.6396  24781.1  156.433
 13.6816  24259.6  155.149
 13.7236  25157.8  157.764
 13.7656  24485.9  156.177
 13.8076  24614.2  155.367
 13.8496  24301.2  155.157
 13.8916  24374  156.213
 13.9336  24342.5  155.334
 13.9756  24250.9  154.392
 14.0176  24104.2  154.598
 14.0596  24060.2  154.429
 14.1016  23879.6  154.244
 14.1436  23637.8  152.596
 14.1856  23356.5  151.98
 14.2276  23104.9  151.639
 14.2696  23465  152.658
 14.3116  23149.6  151.531
 14.3536  22821.7  150.63
 14.3956  22844.5  150.426
 14.4376  22878.9  150.322
 14.4796  22649.9  149.562
 14.5216  22504.6  149.883
 14.5636  22210.7  148.467
 14.6056  22331.8  148.448
 14.6476  22322.4  147.643
 14.6896  21904.5  146.79
 14.7316  21671.8  147.033
 14.7736  21768.1  146.507
 14.8156  21229.6  144.721
 14.8576  21276.6  144.733
 14.8996  20862.3  144.525
 14.9416  20552.5  143.448
 14.9836  20621.7  143.651
 15.0256  20517.6  142.204
 15.0676  20466.3  142.344
 15.1096  20372.3  141.753
 15.1516  19994.8  140.99
 15.1936  19753.9  139.57
 15.2356  19835.5  140.138
 15.2776  19704.5  139.256
 15.3196  19298.4  138.82
 15.3616  19240.6  138.371
 15.4036  18892.9  136.967
 15.4456  19409.6  138.253
 15.4876  19135.9  137.176
 15.5296  18838  136.381
 15.5716  18641.7  135.277
 15.6136  18632.7  135.564
 15.6556  18647.5  134.864
 15.6976  18662.5  134.995
 15.7396  18402.3  134.666
 15.7816  18211  133.466
 15.8236  17960.9  133.252
 15.8656  18181.5  133.85
 15.9076  17830.9  132.381
 15.9496  17692.2  134.652
 15.9916  17729.5  135.245
 16.0336  17352.6  130.705
 16.0756  17627.5  132.05
 16.1176  17569.5  131.743
 16.1596  16897.1  130.526
 16.2016  17272.6  130.704
 16.2436  17070.8  130.332
 16.2856  16898.8  129.213
 16.3276  16615.8  128.546
 16.3696  16697.3  128.676
 16.4116  16519.7  128.454
 16.4536  16810.9  129.364
 16.4956  16473.5  127.795
 16.5376  16605.4  128.492
 16.5796  16538.6  127.593
 16.6216  16582.4  128.068
 16.6636  16484.6  127.847
 16.7056  16293.7  126.967
 16.7476  16365.1  126.927
 16.7896  16378.4  127.582
 16.8316  16382  127.56
 16.8736  16416.7  127.955
 16.9156  16418.1  128.293
 16.9576  16217.7  128.299
 16.9996  16408.5  129.54
 17.0416  16514.1  128.288
 17.0836  16203.9  126.845
 17.1256  16225.6  126.939
 17.1676  15995.7  126.029
 17.2096  16022.7  126.011
 17.2516  15820.5  125.297
 17.2936  15822.9  125.327
 17.3356  15517.2  124.125
 17.3776  15668.9  124.909
 17.4196  15754.9  124.947
 17.4616  15448.4  123.647
 17.5036  15306.6  123.437
 17.5456  15176.7  123.559
 17.5876  15080.6  122.217
 17.6296  15271.4  122.795
 17.6716  14865.1  121.727
 17.7136  14868.7  121.888
 17.7556  14907.8  122.333
 17.7976  14696.3  121.071
 17.8396  14575  120.211
 17.8816  14824.8  121.774
 17.9236  14586.8  120.607
 17.9656  14860.8  122.441
 18.0076  14692.8  121.17
 18.0496  14547.4  119.712
 18.0916  14656.8  120.701
 18.1336  14485.1  120.084
 18.1756  14629  120.211
 18.2176  14511.9  119.958
 18.2596  14323.3  118.906
 18.3016  14508.1  119.933
 18.3436  14589.4  120.502
 18.3856  14291.1  119.164
 18.4276  14488.7  119.657
 18.4696  14227.6  118.677
 18.5116  14415.3  119.745
 18.5536  14449.5  120.236
 18.5956  14277.7  119.08
 18.6376  14291.9  119.539
 18.6796  14097.2  118.058
 18.7216  14345.9  119.65
 18.7636  14132.7  118.678
 18.8056  13995.9  118.044
 18.8476  14070.2  118.674
 18.8896  13988.8  117.976
 18.9316  14199.1  118.676
 18.9736  14135.5  118.272
 19.0156  14219.1  119.003
 19.0576  13970.6  116.859
 19.0996  14356.9  119.177
 19.1416  13901.2  117.661
 19.1836  14119.4  118.18
 19.2256  13875.5  117.37
 19.2676  13983.9  117.915
 19.3096  14086.8  118.593
 19.3516  14036.4  118.166
 19.3936  14057.5  118.396
 19.4356  13910  117.578
 19.4776  13954.8  117.867
 19.5196  14005.6  117.929
 19.5616  13711.9  116.942
 19.6036  13926.5  117.215
 19.6456  14078.7  118.11
 19.6876  13963.7  117.275
 19.7296  13796.9  117.028
 19.7716  13846.9  117.252
 19.8136  13878.5  117.742
 19.8556  14240.8  118.745
 19.8976  14000.6  117.804
 19.9396  14080.2  117.718
 19.9816  14342.3  119.042
 20.0236  14398.9  119.503
 20.0656  14825.9  121.258
 20.1076  14733.1  121.348
 20.1496  14927.3  122.152
 20.1916  14966.3  121.769
 20.2336  14698.2  120.648
 20.2756  14394.2  119.831
 20.3176  14020.1  118.007
 20.3596  14000.5  117.897
 20.4016  13930  117.408
 20.4436  13822.3  117.527
 20.4856  13603.2  116.366
 20.5276  13475.6  116.281
 20.5696  13561.7  116.214
 20.6116  13418.2  115.77
 20.6536  13444.7  115.44
 20.6956  13381.9  115.243
 20.7376  13386.5  115.494
 20.7796  13177.3  114.276
 20.8216  13449.7  115.162
 20.8636  13191.8  114.416
 20.9056  13250.5  114.622
 20.9476  13025.6  113.485
 20.9896  13404.4  114.991
 21.0316  13396.7  114.855
 21.0736  13238.5  114.696
 21.1156  13146  114.449
 21.1576  13238.4  114.9
 21.1996  13127.1  114.399
 21.2416  12949.5  113.456
 21.2836  13177  114.412
 21.3256  12844.5  113.042
 21.3676  13131.8  113.844
 21.4096  13032.1  113.775
 21.4516  12820.2  112.673
 21.4936  12724.4  112.494
 21.5356  12923.5  113.322
 21.5776  13014.6  113.556
 21.6196  12894.3  113.063
 21.6616  12879.1  113.083
 21.7036  12853.2  112.756
 21.7456  12940  113.206
 21.7876  12917.4  112.86
 21.8296  12783  112.127
 21.8716  12804.3  112.449
 21.9136  12974.2  113.397
 21.9556  12834.6  112.459
 21.9976  12773.3  112.208
 22.0396  12741.3  112.315
 22.0816  12777.3  113.022
 22.1236  12835.3  112.727
 22.1656  12746.4  112.506
 22.2076  12946.8  112.806
 22.2496  12990.6  113.019
 22.2916  12783.9  112.005
 22.3336  12732.7  112.489
 22.3756  12753.3  112.319
 22.4176  12616.3  111.571
 22.4596  12501.4  111.649
 22.5016  12759.5  112.28
 22.5436  12705.9  111.935
 22.5856  12652  111.936
 22.6276  12734.3  112.437
 22.6696  12640.2  112.365
 22.7116  12694.4  112.124
 22.7536  12764.9  112.413
 22.7956  12754.1  111.691
 22.8376  12716.7  112.058
 22.8796  12724.4  111.888
 22.9216  12794.6  112.75
 22.9636  12594  111.012
 23.0056  12604.3  111.191
 23.0476  12734.6  112.34
 23.0896  13053.5  113.098
 23.1316  12967.6  113.173
 23.1736  12658.2  114.766
 23.2156  12940.4  113.321
 23.2576  12626.7  112.138
 23.2996  12798.4  112.691
 23.3416  12730  112.902
 23.3836  12899.6  112.863
 23.4256  12760.2  112.391
 23.4676  12761.4  112.093
 23.5096  12535.1  111.766
 23.5516  12604.2  111.357
 23.5936  12784.5  113.059
 23.6356  12742.6  112.54
 23.6776  12729  113.029
 23.7196  12473.4  111.345
 23.7616  12577.5  111.515
 23.8036  12832.9  112.68
 23.8456  12726.8  111.779
 23.8876  12400.9  110.689
 23.9296  12348.1  110.944
 23.9716  12583.6  111.182
 24.0136  12497.6  111.709
 24.0556  12349.1  110.778
 24.0976  12360.5  110.634
 24.1396  12209.1  112.581
 24.1816  12250.3  111.536
 24.2236  12053.9  109.917
 24.2656  12066.3  109.446
 24.3076  11969.7  109.254
 24.3496  12100.6  109.742
 24.3916  12062.8  109.625
 24.4336  11941.6  109.279
 24.4756  11824  108.604
 24.5176  11771.6  108.019
 24.5596  11596.2  107.536
 24.6016  11746.6  108.318
 24.6436  11720.6  107.684
 24.6856  11724.2  107.467
 24.7276  11856.6  108.383
 24.7696  11522.6  106.957
 24.8116  11476  106.926
 24.8536  11464.5  106.86
 24.8956  11469.4  106.629
 24.9376  11425.2  106.604
 24.9796  11287.5  106.075
 25.0216  11177.4  105.67
 25.0636  11350  106.134
 25.1056  11321.8  106.427
 25.1476  11259.4  108.07
 25.1896  11322  106.85
 25.2316  11294.3  105.873
 25.2736  11286.7  105.613
 25.3156  11361.6  106.041
 25.3576  11285.2  106.107
 25.3996  11203.6  105.701
 25.4416  11054.8  104.983
 25.4836  11025.6  105.365
 25.5256  11067.9  104.93
 25.5676  11132.5  104.962
 25.6096  11056.2  105.181
 25.6516  11149.1  105.111
 25.6936  11051.9  104.975
 25.7356  11076.1  105.225
 25.7776  11136.7  105.193
 25.8196  10963  104.529
 25.8616  11022.5  104.733
 25.9036  11096.3  104.546
 25.9456  10978.8  104.585
 25.9876  10896.2  104.12
 26.0296  11103.2  104.841
 26.0716  10821.6  103.83
 26.1136  11046.8  104.852
 26.1556  10993.9  103.89
 26.1976  10936.1  104.626
 26.2396  10909.9  103.916
 26.2816  10888.1  104.162
 26.3236  10945.2  104.521
 26.3656  10893.1  104.08
 26.4076  10878.6  104.22
 26.4496  11385.7  106.126
 26.4916  11121.1  104.864
 26.5336  10925.9  104.266
 26.5756  11171.7  105.29
 26.6176  10819.2  103.668
 26.6596  10814.1  103.954
 26.7016  10844.9  103.895
 26.7436  10617.9  102.897
 26.7856  10663  103.097
 26.8276  10626.2  102.874
 26.8696  10750.8  103.35
 26.9116  10668.7  102.889
 26.9536  10454  101.899
 26.9956  10605.1  102.664
 27.0376  10536.3  102.554
 27.0796  10534.6  102.316
 27.1216  10463.7  102.004
 27.1636  10461.7  102.159
 27.2056  10511.6  102.283
 27.2476  10645.4  102.933
 27.2896  10416.5  101.855
 27.3316  10390.7  101.519
 27.3736  10386.6  101.764
 27.4156  10339.7  101.378
 27.4576  10359.1  101.704
 27.4996  10322.6  101.12
 27.5416  10197.3  100.817
 27.5836  10416.2  101.716
 27.6256  10665.6  103.085
 27.6676  10534.7  102.475
 27.7096  10273.8  101.065
 27.7516  10243.8  101.07
 27.7936  10231.2  101.177
 27.8356  10199.7  100.638
 27.8776  10179.2  100.585
 27.9196  10121.4  100.151
 27.9616  10193.5  100.69
 28.0036  10234.2  100.874
 28.0456  10137.5  100.524
 28.0876  10104.8  100.454
 28.1296  10119.1  100.365
 28.1716  10160.2  100.579
 28.2136  10091.5  100.197
 28.2556  9948.83  99.6063
 28.2976  9991.94  99.8111
 28.3396  9994.8  99.6176
 28.3816  10089.1  100.075
 28.4236  10029.6  99.9318
 28.4656  9939.01  99.5163
 28.5076  9869.01  98.8028
 28.5496  9908.88  99.2649
 28.5916  9978.83  99.4217
 28.6336  9895.65  99.3522
 28.6756  9900.74  98.5767
 28.7176  9895.56  99.0965
 28.7596  9856.17  98.7994
 28.8016  9832.99  98.8005
 28.8436  9749.84  98.5393
 28.8856  9859.91  98.9448
 28.9276  9810.1  98.9429
 28.9696  9723.89  98.1647
 29.0116  9691.52  98.1761
 29.0536  9714.84  98.4971
 29.0956  9812.8  98.7169
 29.1376  9717.69  98.1956
 29.1796  9657.19  97.9323
 29.2216  9752.29  98.2617
 29.2636  9781.06  98.4004
 29.3056  9653.64  97.6306
 29.3476  9744.17  98.6105
 29.3896  9722.52  98.5946
 29.4316  9893.9  98.7938
 29.4736  9684.37  97.8094
 29.5156  9688.48  97.7486
 29.5576  9718.47  98.6374
 29.5996  9573.38  97.1639
 29.6416  9673.08  97.7759
 29.6836  9617.03  97.431
 29.7256  9588.52  97.849
 29.7676  9693.12  98.0427
 29.8096  9626.63  97.6481
 29.8516  9580.38  97.7499
 29.8936  9603.89  97.9588
 29.9356  9746.21  98.4304
 29.9776  9656.85  98.1382
 30.0196  9514.42  96.7945
 30.0616  9638.65  97.8066
 30.1036  9533.87  97.0941
 30.1456  9504.73  97.2071
 30.1876  9510.35  97.1864
 30.2296  9481.53  96.9938
 30.2716  9672.12  97.5968
 30.3136  9494.45  97.2916
 30.3556  9456.49  97.3724
 30.3976  9400.78  98.6025
 30.4396  9478.37  96.3549
 30.4816  9606.58  96.6032
 30.5236  9389.14  95.5219
 30.5656  9404.69  96.25
 30.6076  9483.88  96.4279
 30.6496  9486.18  96.4826
 30.6916  9374.08  96.0035
 30.7336  9453.71  96.5619
 30.7756  9438.09  96.794
 30.8176  9480.1  96.7041
 30.8596  9516.27  96.6548
 30.9016  9429.65  96.0811
 30.9436  9485.43  96.5956
 30.9856  9537.04  96.963
 31.0276  9354.98  95.6475
 31.0696  9377.02  96.1996
 31.1116  9383.25  96.3423
 31.1536  9420.59  96.4176
 31.1956  9313.75  95.9555
 31.2376  9232.5  95.5447
 31.2796  9386.13  95.8682
 31.3216  9395.03  95.8642
 31.3636  9380.96  96.475
 31.4056  9337.89  97.574
 31.4476  9251.95  95.0141
 31.4896  9192.19  95.2058
 31.5316  9199.28  94.685
 31.5736  9418.8  95.5794
 31.6156  9173.37  94.3534
 31.6576  9348.34  95.3455
 31.6996  9252.21  94.5293
 31.7416  9125.55  94.8026
 31.7836  9141.4  94.0373
 31.8256  9151.25  94.431
 31.8676  9308.51  95.1617
 31.9096  9121.13  94.4128
 31.9516  9010.29  94.1364
 31.9936  9087.31  94.3606
 32.0356  9147.33  94.7431
 32.0776  9155.67  94.6693
 32.1196  9113.09  94.4583
 32.1616  9184.47  94.3673
 32.2036  8938.83  93.6046
 32.2456  9000.35  94.3015
 32.2876  8953.06  93.385
 32.3296  8991.25  93.719
 32.3716  9019.92  93.9714
 32.4136  9109.75  94.6595
 32.4556  9186.6  94.4897
 32.4976  9118.88  94.0344
 32.5396  9097.45  93.9528
 32.5816  9069.35  93.8239
 32.6236  9083.28  94.0719
 32.6656  9086.18  94.6267
 32.7076  9000.04  93.8304
 32.7496  8983.01  93.4094
 32.7916  9115.24  94.0597
 32.8336  9016.56  93.6379
 32.8756  8992.45  93.3332
 32.9176  8928.55  93.38
 32.9596  8885.16  93.236
 33.0016  9030.19  93.7836
 33.0436  9062.31  94.1295
 33.0856  8928.97  93.4986
 33.1276  8849.58  92.8153
 33.1696  9078.31  93.8559
 33.2116  9040.33  93.8805
 33.2536  8988.59  93.6103
 33.2956  9035.57  93.9418
 33.3376  8803  92.527
 33.3796  8898.85  93.1793
 33.4216  8956.92  93.0745
 33.4636  9141.01  94.1649
 33.5056  8849.33  92.7404
 33.5476  8857.3  92.9367
 33.5896  8998.79  93.4175
 33.6316  8832.38  92.8918
 33.6736  8897.62  93.4813
 33.7156  8862.43  93.343
 33.7576  8915.39  93.2405
 33.7996  8897.98  92.9191
 33.8416  8700.65  92.0688
 33.8836  8847.1  92.6131
 33.9256  8882.73  92.8672
 33.9676  8862.25  92.6542
 34.0096  8628.73  91.7398
 34.0516  8737.76  91.9524
 34.0936  8686.68  91.9415
 34.1356  8885.54  92.7346
 34.1776  8817.04  92.3824
 34.2196  8633.02  91.5991
 34.2616  8626.95  91.7606
 34.3036  8637.73  92.0078
 34.3456  8567.95  91.3918
 34.3876  8695.77  92.1195
 34.4296  8669.24  91.5818
 34.4716  8635.66  91.5522
 34.5136  8699.81  92.0964
 34.5556  8565.02  91.6278
 34.5976  8688.55  92.1246
 34.6396  8451.36  90.5403
 34.6816  8590.51  91.396
 34.7236  8701.08  91.768
 34.7656  8598.26  91.4233
 34.8076  8601.51  91.757
 34.8496  8567.91  91.4357
 34.8916  8612.05  91.5486
 34.9336  8624.1  91.5691
 34.9756  8668.05  91.7471
 35.0176  8712.08  92.495
 35.0596  8514.68  91.2712
 35.1016  8486.84  90.8853
 35.1436  8580.96  91.0739
 35.1856  8502.7  90.783
 35.2276  8578.19  91.3613
 35.2696  8489.06  91.0772
 35.3116  8544.12  91.4586
 35.3536  8405.04  90.4614
 35.3956  8537.89  90.8506
 35.4376  8575.29  91.6051
 35.4796  8592.62  91.7619
 35.5216  8356.75  90.3759
 35.5636  8270.51  90.7156
 35.6056  8504.92  91.0111
 35.6476  8539.22  91.0882
 35.6896  8519.65  91.1526
 35.7316  8574.27  91.339
 35.7736  8382.38  90.5087
 35.8156  8326.36  90.2007
 35.8576  8483.74  91.2958
 35.8996  8616.66  91.983
 35.9416  8553.93  91.1274
 35.9836  8429.48  90.923
 36.0256  8375.7  90.5623
 36.0676  8385.07  90.1492
 36.1096  8308.17  90.0949
 36.1516  8436.66  90.6752
 36.1936  8371.5  90.1718
 36.2356  8482.83  91.4164
 36.2776  8474.16  90.8406
 36.3196  8363.41  89.9233
 36.3616  8349.38  89.9798
 36.4036  8321.04  89.8765
 36.4456  8455.9  90.8134
 36.4876  8181.39  89.2726
 36.5296  8253.37  89.7052
 36.5716  8396.08  91.2614
 36.6136  8537.58  90.785
 36.6556  8464.36  90.5985
 36.6976  8391.24  90.7056
 36.7396  8405.75  90.6035
 36.7816  8317.41  90.412
 36.8236  8275.67  90.1034
 36.8656  8350.64  90.584
 36.9076  8148.93  89.4925
 36.9496  8137.9  89.4449
 36.9916  8243.31  89.4992
 37.0336  8383.09  90.5737
 37.0756  8319.73  90.0171
 37.1176  8186.74  89.6639
 37.1596  8207.36  89.6768
 37.2016  8236.52  90.0169
 37.2436  8169.13  89.0201
 37.2856  8124.59  89.028
 37.3276  8161.76  88.5879
 37.3696  8279.57  90.1128
 37.4116  8247.71  89.8498
 37.4536  8200.28  89.4543
 37.4956  8207.81  89.5476
 37.5376  8285.14  91.542
 37.5796  8080.71  90.3499
 37.6216  8038.4  88.392
 37.6636  8002.35  88.099
 37.7056  8231.26  89.5437
 37.7476  8026.06  87.9539
 37.7896  8110.31  88.9095
 37.8316  7848.29  87.6368
 37.8736  8199.77  89.1039
 37.9156  8099.73  88.5587
 37.9576  8013.73  88.1255
 37.9996  7922.48  87.197
 38.0416  8061.95  88.7657
 38.0836  8060.8  88.672
 38.1256  8061.61  88.6321
 38.1676  7829.73  87.4836
 38.2096  7986.61  87.9736
 38.2516  8113.81  88.7824
 38.2936  8074.99  88.4662
 38.3356  8098.1  88.5162
 38.3776  7955.2  88.0013
 38.4196  8064.76  88.4603
 38.4616  8073.6  88.7465
 38.5036  8230.81  89.4488
 38.5456  8033.1  89.1972
 38.5876  8063.12  89.3892
 38.6296  8110.65  88.6206
 38.6716  7863.27  87.052
 38.7136  7832.4  86.8239
 38.7556  7763.3  86.9396
 38.7976  7904.6  87.6656
 38.8396  7807.26  87.5726
 38.8816  7702.23  86.7608
 38.9236  8002.96  88.2522
 38.9656  7900.27  87.5983
 39.0076  7931.84  87.18
 39.0496  7899.78  87.5455
 39.0916  7974.22  87.5785
 39.1336  7906.52  87.6415
 39.1756  7934.32  87.8601
 39.2176  7806.85  87.6794
 39.2596  7957.57  88.444
 39.3016  7938.19  87.9012
 39.3436  7664.74  86.8001
 39.3856  7981.94  88.0252
 39.4276  7884.4  87.9788
 39.4696  7934.67  87.8829
 39.5116  7841.03  87.8784
 39.5536  8048.75  89.464
 39.5956  8053.12  88.5799
 39.6376  7942.75  87.8108
 39.6796  7896.84  87.4574
 39.7216  7991.47  88.0839
 39.7636  8042.76  88.9332
 39.8056  7969.68  88.3116
 39.8476  7911.24  88.246
 39.8896  7908.31  87.8572
 39.9316  7896.51  88.0417
 39.9736  7945.01  87.8843
 40.0156  7918.05  87.5647
 40.0576  7922.9  87.9465
 40.0996  8066.9  87.9162
 40.1416  7934.81  87.9924
 40.1836  7992.72  88.2024
 40.2256  8003.37  88.3064
 40.2676  7924.3  88.0424
 40.3096  7977.37  88.1912
 40.3516  7869.53  87.7795
 40.3936  8051.6  88.2687
 40.4356  7980.14  88.068
 40.4776  8043.87  88.6724
 40.5196  8025.72  88.8628
 40.5616  8078.77  88.7986
 40.6036  7921.95  88.1866
 40.6456  7965.39  88.0329
 40.6876  8074.72  88.6218
 40.7296  8052.74  88.6385
 40.7716  8000.1  88.4773
 40.8136  7946.14  88.1218
 40.8556  8092.77  89.0664
 40.8976  7955.61  88.232
 40.9396  7941.16  88.4992
 40.9816  8035.44  88.3061
 41.0236  8127.22  88.5869
 41.0656  8136.56  89.1824
 41.1076  8087.06  88.6765
 41.1496  8067.47  88.4808
 41.1916  8033.87  88.617
 41.2336  7955.64  88.1765
 41.2756  7993.89  87.9932
 41.3176  7871.03  87.9293
 41.3596  8045.2  88.616
 41.4016  7995.63  88.6074
 41.4436  7939.07  88.0846
 41.4856  8013.49  88.6592
 41.5276  7974.73  88.4631
 41.5696  8029.31  88.3765
 41.6116  7870.96  87.9128
 41.6536  7945.73  88.1853
 41.6956  8004.01  88.4907
 41.7376  7871.21  87.8558
 41.7796  7934.38  88.1258
 41.8216  8023.43  88.8196
 41.8636  7969.22  88.4547
 41.9056  7853.65  87.598
 41.9476  8007.16  88.6883
 41.9896  7915.66  87.8459
 42.0316  7893.02  87.8011
 42.0736  7955.05  88.293
 42.1156  7803.58  87.2546
 42.1576  7910.11  87.9487
 42.1996  7872.72  87.8834
 42.2416  7919.64  87.726
 42.2836  7901.48  87.7362
 42.3256  7787.57  87.2114
 42.3676  7839.08  87.3126
 42.4096  7966.9  87.9801
 42.4516  7844.36  87.3914
 42.4936  7788.49  87.1476
 42.5356  7863.78  87.6979
 42.5776  7912.69  87.9128
 42.6196  7883.24  87.7219
 42.6616  7707.59  86.9876
 42.7036  7953.29  87.7447
 42.7456  7910.46  87.8663
 42.7876  7829.12  87.511
 42.8296  7804.74  87.2736
 42.8716  7751.98  87.0749
 42.9136  7790.34  87.0306
 42.9556  7708.73  86.7543
 42.9976  7788.51  87.1563
 43.0396  7765.35  86.7645
 43.0816  7790.9  87.2835
 43.1236  7807.77  87.4381
 43.1656  7821.84  87.3493
 43.2076  7749.84  87.0497
 43.2496  7747.69  86.8468
 43.2916  7748.88  87.2248
 43.3336  7803.7  87.3705
 43.3756  7810.25  87.1575
 43.4176  7666.26  86.4342
 43.4596  7638.48  86.1319
 43.5016  7740.74  87.1157
 43.5436  7756.52  87.1049
 43.5856  7730.42  86.9867
 43.6276  7685.66  86.6269
 43.6696  7714.66  86.9293
 43.7116  7737.01  86.6697
 43.7536  7756.98  87.2697
 43.7956  7668.69  87.9692
 43.8376  7642.53  86.3519
 43.8796  7505.65  85.6592
 43.9216  7607.57  86.1575
 43.9636  7727.03  86.9408
 44.0056  7559.39  86.2244
 44.0476  7617.47  86.1885
 44.0896  7525.72  86.0054
 44.1316  7643.37  86.3365
 44.1736  7637.38  86.2871
 44.2156  7734.99  86.6873
 44.2576  7591.19  86.2013
 44.2996  7624.14  86.3593
 44.3416  7587.8  85.9215
 44.3836  7584.33  86.2291
 44.4256  7390.67  84.7717
 44.4676  7410.66  85.0376
 44.5096  7493.59  85.6529
 44.5516  7511.03  85.7214
 44.5936  7394.29  85.0034
 44.6356  7622.18  86.0408
 44.6776  7543.9  85.9128
 44.7196  7573.68  86.3554
 44.7616  7558.16  87.6264
 44.8036  7476.2  85.7946
 44.8456  7496.61  85.9117
 44.8876  7443.74  85.464
 44.9296  7490.12  85.1836
 44.9716  7434.79  85.2965
 45.0136  7394.65  85.0005
 45.0556  7443.83  85.3627
 45.0976  7456.43  85.4949
 45.1396  7406.18  84.9691
 45.1816  7473.32  85.1122
 45.2236  7526.29  85.4742
 45.2656  7405.45  85.2985
 45.3076  7357.95  84.8
 45.3496  7302.47  84.7906
 45.3916  7405.96  85.6493
 45.4336  7422.93  85.5923
 45.4756  7344.51  85.0046
 45.5176  7353.15  84.6675
 45.5596  7419.39  85.1715
 45.6016  7225.63  84.4632
 45.6436  7521.6  85.3479
 45.6856  7371.79  85.15
 45.7276  7300.82  86.5596
 45.7696  7317.15  85.8098
 45.8116  7458.08  86.0616
 45.8536  7267.76  84.8556
 45.8956  7356.91  84.7289
 45.9376  7414.85  84.5227
 45.9796  7363.97  84.9313
 46.0216  7424.82  85.6125
 46.0636  7395.69  84.5853
 46.1056  7335.72  84.23
 46.1476  7259.15  84.3767
 46.1896  7350.46  85.057
 46.2316  7208.05  84.1027
 46.2736  7229.2  84.432
 46.3156  7304.68  84.6165
 46.3576  7321.8  84.9179
 46.3996  7264.84  84.7456
 46.4416  7335.33  84.7004
 46.4836  7304.14  84.9089
 46.5256  7384.45  85.311
 46.5676  7230.13  84.5284
 46.6096  7277.05  84.7407
 46.6516  7380.48  84.3796
 46.6936  7203.28  83.8475
 46.7356  7372.64  84.9303
 46.7776  7129.8  84.354
 46.8196  7213.69  84.587
 46.8616  7054.81  83.4647
 46.9036  7145.69  83.6525
 46.9456  7186.59  83.542
 46.9876  7191.16  83.6478
 47.0296  7102.95  83.8197
 47.0716  7062.21  83.4
 47.1136  7155.69  83.6296
 47.1556  7129.95  83.3506
 47.1976  7179.73  83.7881
 47.2396  7144.13  83.9045
 47.2816  7065.97  83.1474
 47.3236  7164.85  84.0971
 47.3656  7110.39  83.6995
 47.4076  7230.47  84.1433
 47.4496  6972.74  82.7961
 47.4916  7068.38  83.5466
 47.5336  7153.76  83.8674
 47.5756  7081.29  83.5233
 47.6176  7084.18  83.4684
 47.6596  7082.37  83.1744
 47.7016  7173.61  83.5327
 47.7436  7206.53  84.0593
 47.7856  7100.68  83.4555
 47.8276  6987.61  82.8433
 47.8696  7110.98  83.6597
 47.9116  7050.25  83.021
 47.9536  7132.07  83.4406
 47.9956  7022.82  83.5006
 48.0376  6974.97  82.99
 48.0796  7083.71  83.76
 48.1216  7116.43  83.7688
 48.1636  7206.56  83.8842
 48.2056  7061.14  83.2918
 48.2476  7048.22  83.5247
 48.2896  6951.78  82.8506
 48.3316  6983.36  82.9912
 48.3736  6958.08  82.8649
 48.4156  6873.25  82.2125
 48.4576  7031.98  83.4461
 48.4996  6980.26  82.5956
 48.5416  7096.71  83.6065
 48.5836  6865.97  81.9256
 48.6256  7017.41  83.0252
 48.6676  6974.27  83.2783
 48.7096  7045.03  82.974
 48.7516  6887.35  82.185
 48.7936  6828.6  81.8959
 48.8356  7009.44  83.0238
 48.8776  7041.94  83.7094
 48.9196  7077.49  83.367
 48.9616  6949.69  82.9767
 49.0036  6921.64  83.1674
 49.0456  6935.84  83.2269
 49.0876  6846.75  82.3372
 49.1296  6758.51  81.8694
 49.1716  6796.4  81.9701
 49.2136  6911.64  82.5843
 49.2556  7005.5  83.1799
 49.2976  6931.25  82.8068
 49.3396  6839.18  82.3106
 49.3816  6932.6  82.302
 49.4236  6974.3  82.9761
 49.4656  6781.46  81.8335
 49.5076  6899.24  82.2966
 49.5496  6881.35  82.1246
 49.5916  6902.18  82.292
 49.6336  6958.31  82.8208
 49.6756  6852.07  82.4255
 49.7176  6858.92  82.4082
 49.7596  6968.52  83.008
 49.8016  6904.08  82.36
 49.8436  6830.1  82.2117
 49.8856  6767.6  81.8472
 49.9276  6712.77  81.6107
 49.9696  6806.56  82.1655
 50.0116  6879.06  82.7338
 50.0536  6823.8  82.3427
 50.0956  6804.02  82.2964
 50.1376  6743.52  81.6337
 50.1796  6767.72  82.0464
 50.2216  6814.43  82.3258
 50.2636  6749.16  81.5516
 50.3056  6648.52  81.1052
 50.3476  6762.36  81.8142
 50.3896  6700.52  81.4207
 50.4316  6899.23  82.4537
 50.4736  6643.24  81.1289
 50.5156  6836.24  82.2865
 50.5576  6763.21  81.6117
 50.5996  6790.97  82.0563
 50.6416  6673.99  81.2778
 50.6836  6734.93  81.7009
 50.7256  6907.17  82.6581
 50.7676  6746.62  81.9686
 50.8096  6698.66  81.269
 50.8516  6737.18  81.9141
 50.8936  6649.92  81.1662
 50.9356  6777.66  82.0408
 50.9776  6633.14  81.3199
 51.0196  6423.98  80.1489
 51.0616  6552.95  80.2823
 51.1036  6623.24  81.0667
 51.1456  6696.72  81.4253
 51.1876  6792.94  81.3561
 51.2296  6626.57  80.9757
 51.2716  6660.55  80.8923
 51.3136  6576.33  80.8302
 51.3556  6521  80.1264
 51.3976  6478.9  80.0114
 51.4396  6513.3  80.5252
 51.4816  6623.82  81.0517
 51.5236  6530  80.5616
 51.5656  6506.04  80.0286
 51.6076  6680.04  81.1717
 51.6496  6566.85  80.6759
 51.6916  6524.52  80.7591
 51.7336  6573.27  81.1584
 51.7756  6647.92  81.316
 51.8176  6583.34  81.0134
 51.8596  6584.22  81.0449
 51.9016  6544.67  80.411
 51.9436  6531.09  81.774
 51.9856  6385.16  81.2762
 52.0276  6679.28  81.6429
 52.0696  6516.4  80.7034
 52.1116  6596.8  81.3177
 52.1536  6541.21  80.8147
 52.1956  6654.75  81.0263
 52.2376  6739.28  81.7126
 52.2796  6572.64  80.5105
 52.3216  6502.56  80.7571
 52.3636  6580.33  80.8241
 52.4056  6434.12  79.7807
 52.4476  6488.02  80.4727
 52.4896  6447.34  80.2747
 52.5316  6457.42  80.3781
 52.5736  6505.66  80.4128
 52.6156  6413.17  80.2039
 52.6576  6537.82  80.4379
 52.6996  6309.44  79.9619
 52.7416  6402.07  80.4028
 52.7836  6517.22  81.0061
 52.8256  6520.57  80.258
 52.8676  6376.32  79.9407
 52.9096  6378.2  80.0313
 52.9516  6453.25  80.8598
 52.9936  6378.81  80.7775
 53.0356  6344.71  79.5756
 53.0776  6363.19  79.976
 53.1196  6293.61  79.6373
 53.1616  6272.87  79.5527
 53.2036  6295.89  79.6524
 53.2456  6257.01  79.5038
 53.2876  6372.36  79.9444
 53.3296  6279.79  79.6833
 53.3716  6328.91  79.7474
 53.4136  6329.88  79.8957
 53.4556  6281.95  79.6221
 53.4976  6174.1  78.7887
 53.5396  6305.81  80.0105
 53.5816  6201.12  78.9825
 53.6236  6282.99  79.8448
 53.6656  6278.98  79.4516
 53.7076  6233.88  79.1296
 53.7496  6263.88  79.4391
 53.7916  6219  79.2775
 53.8336  6182.34  78.9451
 53.8756  6243.92  79.873
 53.9176  6252.29  79.2834
 53.9596  6360.4  80.7319
 54.0016  6231.81  79.2501
 54.0436  6213.85  79.3522
 54.0856  6305.78  79.3598
 54.1276  6306.09  79.5712
 54.1696  6265.94  79.4867
 54.2116  6368.67  79.8892
 54.2536  6285.16  79.1847
 54.2956  6336.01  79.5461
 54.3376  6198.73  79.1623
 54.3796  6185.88  78.9781
 54.4216  6443.66  80.6533
 54.4636  6383.49  80.235
 54.5056  6273.94  79.3695
 54.5476  6228.2  79.4053
 54.5896  6264.46  79.4668
 54.6316  6292.57  79.509
 54.6736  6301.97  79.5879
 54.7156  6188.35  78.9461
 54.7576  6236.57  79.2438
 54.7996  6217.72  79.2792
 54.8416  6282.57  79.7179
 54.8836  6114.52  78.759
 54.9256  6188.05  78.9781
 54.9676  6267.26  79.35
 55.0096  6233.39  79.2018
 55.0516  6275.46  79.6349
 55.0936  6219.29  78.9757
 55.1356  6186.26  78.7985
 55.1776  6172.84  78.9839
 55.2196  6350.01  79.8956
 55.2616  6240.9  79.4144
 55.3036  6165.26  79.0939
 55.3456  6191.12  79.4093
 55.3876  6269.82  79.6551
 55.4296  6262.66  79.5862
 55.4716  6157.45  78.9487
 55.5136  6234.49  79.1921
 55.5556  6203.91  79.0762
 55.5976  6179.44  78.9699
 55.6396  6197.24  78.9545
 55.6816  6220.52  79.0645
 55.7236  6242.25  79.3362
 55.7656  6255.61  79.0864
 55.8076  6234.63  78.9388
 55.8496  6069.05  78.3047
 55.8916  6207.7  79.2508
 55.9336  6157.94  78.7832
 55.9756  6185.78  78.8583
 56.0176  6085.15  78.3635
 56.0596  6198.13  79.0736
 56.1016  6163.66  78.889
 56.1436  6164  79.1263
 56.1856  6146.64  78.7539
 56.2276  6223.11  79.2991
 56.2696  6163.39  78.8897
 56.3116  6088.2  78.8062
 56.3536  6139.83  78.8018
 56.3956  6109.04  78.5958
 56.4376  6152.78  78.9092
 56.4796  6253.16  79.3468
 56.5216  6117.21  78.8545
 56.5636  6253.51  79.3161
 56.6056  6124.13  78.7187
 56.6476  6150.56  78.5254
 56.6896  6156.61  79.0049
 56.7316  6050.57  78.2204
 56.7736  6228.58  79.3713
 56.8156  6115.48  78.6408
 56.8576  6106.49  78.5292
 56.8996  6127.39  78.6066
 56.9416  6051.71  78.2857
 56.9836  6100.89  78.2548
 57.0256  6101.07  78.5707
 57.0676  6098.28  78.6767
 57.1096  6052.9  78.1747
 57.1516  6115.89  78.6035
 57.1936  6089.91  78.2238
 57.2356  6084.9  78.5088
 57.2776  6123.28  78.7138
 57.3196  6097.29  78.911
 57.3616  6146.62  78.7242
 57.4036  6196.75  79.1071
 57.4456  6162.88  78.8568
 57.4876  6126.64  78.4784
 57.5296  6101.83  78.5614
 57.5716  6219.77  79.4074
 57.6136  6135.47  78.688
 57.6556  6126.25  78.7698
 57.6976  6167.55  78.8553
 57.7396  6010.7  78.2123
 57.7816  6030.47  78.7016
 57.8236  6072.7  78.763
 57.8656  6109.99  78.6725
 57.9076  6090.95  78.5765
 57.9496  6162.29  79.3744
 57.9916  6105.26  78.483
 58.0336  6108.12  78.8248
 58.0756  6134.23  78.5801
 58.1176  6118.33  78.5227
 58.1596  6025.09  78.4892
 58.2016  6227.42  79.027
 58.2436  6070.45  78.4201
 58.2856  6052.42  78.2254
 58.3276  6009.03  78.3097
 58.3696  6116.23  78.7535
 58.4116  6102.99  78.5325
 58.4536  6197.19  79.0221
 58.4956  6012.27  78.0147
 58.5376  6195.17  78.7582
 58.5796  6163.84  78.9922
 58.6216  6055.3  78.105
 58.6636  6269.25  79.6946
 58.7056  6099.68  78.4627
 58.7476  6054.37  78.6155
 58.7896  6074.12  78.3872
 58.8316  6129.46  78.7362
 58.8736  6154.81  78.9027
 58.9156  6031.07  78.1549
 58.9576  6166.14  79.2328
 58.9996  6226.26  78.9678
 59.0416  6330.47  80.0046
 59.0836  6028.61  77.9982
 59.1256  6182.85  79.3814
 59.1676  6124.1  79.6285
 59.2096  6139.05  79.0361
 59.2516  6332.39  79.842
 59.2936  6158.24  79.0677
 59.3356  6227.92  79.3897
 59.3776  6147.94  79.0487
 59.4196  6150.83  79.0024
 59.4616  6239.45  79.4275
 59.5036  6141.94  78.8389
 59.5456  6173.42  78.7318
 59.5876  6232.45  79.3014
 59.6296  5959.17  77.6121
 59.6716  6265.55  79.6413
 59.7136  6097.42  78.5537
 59.7556  6220.98  79.4841
 59.7976  6141.19  78.7127
 59.8396  6092.25  78.2922
 59.8816  6149.83  79.2108
 59.9236  6163.71  78.9411
 59.9656  6086.42  78.7062
 60.0076  6180.46  78.6619
 60.0496  6099.9  78.6532
 60.0916  6193.88  78.6682
 60.1336  6191.3  79.773
 60.1756  6064.05  80.1358
 60.1996  0.0000000E+00  0.0000000E+00