File: docs/examples/opeando_xrd/IS17_D/Data/IS17_D/17_Db_f00039.xye
# /beamlines/bl04/projects/cycle2025-II/20250340211-lsimonelli/DATA/IS17_D/17_Db_f00039.xye : mythproc.py merge -s 0.006 -l 0.5 -f /beamlines/bl04/inhouse/ff/FlatField/ff_20Nov2024rod8mm60s_17keV.raw -b True -c true -o xye /beamlines/bl04/projects/cycle2025-II/20250340211-lsimonelli/DATA/IS17_D/17_Db_00039.dat
# IsMon = [6751647, 6747406, 6746194]  IsPos = [-1.4999, -2.4885, -3.4988]
# Wave = 0.4962  CalPath /beamlines/bl04/projects/cycle2025-II/20250340211-lsimonelli/DATA/Align/Si_Pos1_25keV_f00001.cal
# Date = 2025-09-24_04:33:32 Dt = 4.8000  Bin = 0.0060  <imon> = 6748416 +/- 2338 (Min/Max) 6746194 / 6751647
# icurr 249.3049  mocoIn 1.7016E-05  mocoOut 0.7985  i15 7.06719e+06  imon 6.74842e+06  i7 4.3333  iEMpd_timer 4.8000  iEMpd_1 3.4974E-08  iEMpd_2 7.8307E-08  iEMpd_3 1.6430E-08  iEMpd_4 4.8159E-08  iEMhp_timer 4.8000  iEMhp_1 4.8723E-06  iEMhp_2 -2.4832E-08  iEMhp_3 -2.3315E-08  iEMhp_4 -2.2399E-08
#      9776
 1.5856  44066.4  215.503
 1.6276  50968.8  227.79
 1.6696  56705.6  239.42
 1.7116  64447.6  255.741
 1.7536  72231.4  269.591
 1.7956  76706.5  278.511
 1.8376  72737.7  271.64
 1.8796  62727.1  250.409
 1.9216  51941.3  228.766
 1.9636  45034.1  212.139
 2.0056  40842  201.242
 2.0476  38271.4  196.941
 2.0896  36608.6  191.486
 2.1316  35507.9  187.679
 2.1736  33734.8  184.384
 2.2156  34748.2  185.631
 2.2576  33135.4  181.923
 2.2996  32062.1  179.608
 2.3416  32398.6  179.108
 2.3836  31933.3  177.926
 2.4256  30907.3  175.615
 2.4676  30282.2  173.583
 2.5096  30086.8  173.079
 2.5516  28934.6  173.62
 2.5936  29138.7  170.77
 2.6356  28119.6  168.469
 2.6776  28127.4  167.381
 2.7196  27727.8  166.679
 2.7616  27559.8  165.959
 2.8036  27161.5  164.918
 2.8456  27188.3  165.649
 2.8876  26846.2  164.437
 2.9296  26316.6  162.968
 2.9716  25994  161.447
 3.0136  25537.7  160.094
 3.0556  25600.7  160.673
 3.0976  25485  159.195
 3.1396  25433.8  159.795
 3.1816  24887.4  158.006
 3.2236  24685.7  157.348
 3.2656  24745.6  156.603
 3.3076  24645.2  157.75
 3.3496  24743  157.217
 3.3916  25104.4  157.942
 3.4336  25500.2  159.77
 3.4756  25684  160.283
 3.5176  26365.7  162.156
 3.5596  26205.4  164.137
 3.6016  26189.9  161.717
 3.6436  25319.2  160.116
 3.6856  24941.6  157.217
 3.7276  24042.1  155.436
 3.7696  23920.8  155.234
 3.8116  23491  153.727
 3.8536  23544.8  153.826
 3.8956  23464.2  153.388
 3.9376  23038.3  152.255
 3.9796  23193.1  152.256
 4.0216  23122.3  151.07
 4.0636  23028.5  152.232
 4.1056  23088.3  152.074
 4.1476  23524.7  153.796
 4.1896  23604.7  153.926
 4.2316  23864.5  154.6
 4.2736  24096.8  155.157
 4.3156  24304.4  156.061
 4.3576  24985.5  158.128
 4.3996  25250  159.234
 4.4416  25716.7  160.289
 4.4836  26233.8  162.055
 4.5256  26739.4  164.203
 4.5676  26536.6  163.843
 4.6096  27224.3  164.593
 4.6516  27677.2  165.668
 4.6936  27510.1  165.999
 4.7356  27671.3  166.3
 4.7776  27491  165.602
 4.8196  27320.6  165.707
 4.8616  26845.7  163.9
 4.9036  26764.1  163.239
 4.9456  26467  162.994
 4.9876  25780.9  160.761
 5.0296  26193  161.885
 5.0716  26013.4  161.951
 5.1136  26041.2  161.89
 5.1556  26403.4  162.482
 5.1976  27026.9  164.362
 5.2396  26871.8  163.594
 5.2816  27038.2  164.556
 5.3236  26797.2  163.532
 5.3656  26475.7  163.478
 5.4076  26247.2  162.909
 5.4496  26173.9  162.191
 5.4916  26306  162.341
 5.5336  26096.3  161.714
 5.5756  26117.4  161.774
 5.6176  26349.9  161.951
 5.6596  26538.6  163.495
 5.7016  26482.1  162.604
 5.7436  26769.7  163.757
 5.7856  26701.7  163.616
 5.8276  26718.9  163.393
 5.8696  26974.1  164.333
 5.9116  26859  164.575
 5.9536  27378.9  165.889
 5.9956  27689.5  166.237
 6.0376  27629.5  166.673
 6.0796  27592.8  166.394
 6.1216  27624.1  166.694
 6.1636  27767.9  166.182
 6.2056  27621.1  166.424
 6.2476  27858.7  167.003
 6.2896  28318  168.049
 6.3316  28291.6  168.135
 6.3736  28255.4  167.934
 6.4156  28503.2  168.544
 6.4576  28504.8  168.185
 6.4996  28723.7  169.313
 6.5416  28541.2  168.876
 6.5836  28596.3  169.298
 6.6256  28564.5  168.764
 6.6676  29335  170.584
 6.7096  29335.8  171.431
 6.7516  29440.1  171.417
 6.7936  29631.7  171.378
 6.8356  29960.7  172.425
 6.8776  29819.4  172.818
 6.9196  30070.9  173.931
 6.9616  30737.3  175.268
 7.0036  30735.1  174.944
 7.0456  30830.3  174.527
 7.0876  30954.6  176.549
 7.1296  30941.1  175.654
 7.1716  30923.6  175.142
 7.2136  30600.1  174.012
 7.2556  30913.2  175.048
 7.2976  30856.1  175.371
 7.3396  30590.8  174.845
 7.3816  30661.1  175.26
 7.4236  30727.8  174.754
 7.4656  31178.7  175.486
 7.5076  31293.7  175.969
 7.5496  31037.2  175.786
 7.5916  31282.7  176.514
 7.6336  31652.3  177.444
 7.6756  31700.2  177.431
 7.7176  32174.6  179.067
 7.7596  31836.3  179.33
 7.8016  32539.6  183.497
 7.8436  32262.5  179.464
 7.8856  32313.3  179.221
 7.9276  32580.7  180.35
 7.9696  32922.3  181.587
 8.0116  33957.3  183
 8.0536  34150.3  183.764
 8.0956  34079.7  184.723
 8.1376  34603.9  185.626
 8.1796  34758.6  186.563
 8.2216  35398.8  187.039
 8.2636  35091.1  186.473
 8.3056  35171.8  187.439
 8.3476  35965.4  188.879
 8.3896  35585.7  187.955
 8.4316  35644.2  188.276
 8.4736  35953.8  188.573
 8.5156  35505  187.661
 8.5576  35152.5  187.668
 8.5996  35454.3  187.377
 8.6416  35255.4  188.074
 8.6836  34780.9  186.647
 8.7256  35426.1  187.827
 8.7676  35259.1  190.228
 8.8096  35689.4  188.712
 8.8516  35366.9  187.424
 8.8936  35141.8  186.794
 8.9356  35511  188.081
 8.9776  35221.6  187.406
 9.0196  35177.9  186.954
 9.0616  35160.1  186.432
 9.1036  34120.4  184.789
 9.1456  34367.9  184.811
 9.1876  34490.9  185.075
 9.2296  34045.2  183.348
 9.2716  34047  183.377
 9.3136  34008.2  183.267
 9.3556  34104.9  183.5
 9.3976  33152.4  181.416
 9.4396  33293.5  181.719
 9.4816  33061.3  180.936
 9.5236  32791.4  180.091
 9.5656  32365.6  179.279
 9.6076  31728.5  178.031
 9.6496  32227.1  179.284
 9.6916  31690.8  177.766
 9.7336  32365.7  179.413
 9.7756  31727.5  178.978
 9.8176  31668.3  178.222
 9.8596  31628  176.581
 9.9016  31053.8  174.956
 9.9436  30891  174.433
 9.9856  30404.6  173.315
 10.0276  30107  173.507
 10.0696  30764.7  174.442
 10.1116  29653.6  171.522
 10.1536  29404.3  170.95
 10.1956  28982.4  169.347
 10.2376  29131.4  169.289
 10.2796  28815.4  168.49
 10.3216  28462.4  167.732
 10.3636  28057.6  166.563
 10.4056  27808.7  166.219
 10.4476  28099.4  166.683
 10.4896  28107.8  166.174
 10.5316  27477.6  165.02
 10.5736  27433  165.281
 10.6156  27432.7  165.029
 10.6576  26916.1  162.093
 10.6996  26755.1  162.291
 10.7416  26508.9  161.751
 10.7836  26148.2  161.307
 10.8256  25713.1  160.357
 10.8676  25590.6  159.544
 10.9096  25583.8  159.56
 10.9516  25306.7  157.672
 10.9936  25452.5  158.33
 11.0356  25166  158.025
 11.0776  25167.7  157.386
 11.1196  24400.9  155.703
 11.1616  24235.7  154.855
 11.2036  24399.1  155.23
 11.2456  24343.3  155.739
 11.2876  24713.2  156.64
 11.3296  24172.4  154.843
 11.3716  24493.5  155.565
 11.4136  24355  155.98
 11.4556  24159.1  155.037
 11.4976  24561  155.334
 11.5396  24773.9  156.171
 11.5816  25396.5  158.556
 11.6236  25779.6  160.193
 11.6656  25685.2  158.826
 11.7076  24830.1  156.992
 11.7496  24194  158.908
 11.7916  23979.2  153.55
 11.8336  23407.5  152.611
 11.8756  23436.1  152.227
 11.9176  23583.7  152.397
 11.9596  23396.3  151.942
 12.0016  23404.1  152.738
 12.0436  23392  152.143
 12.0856  23066.4  151.582
 12.1276  22796.7  150.645
 12.1696  23041.5  150.589
 12.2116  22875.9  150.055
 12.2536  22763.8  150.473
 12.2956  22576.4  149.221
 12.3376  22961.4  150.665
 12.3796  22914.1  151.001
 12.4216  22923.8  150.241
 12.4636  22319  149.151
 12.5056  22544  149.185
 12.5476  22601.2  148.904
 12.5896  22562.4  149.416
 12.6316  22688  149.959
 12.6736  22547.1  149.981
 12.7156  22675.8  150.243
 12.7576  22484.8  149.851
 12.7996  22916  149.961
 12.8416  22563.4  149.833
 12.8836  22750.8  150.292
 12.9256  23121.1  150.558
 12.9676  23068.9  150.787
 13.0096  23345  152.765
 13.0516  23216.3  151.397
 13.0936  23545.3  152.859
 13.1356  23515.3  151.769
 13.1776  23360.4  152.258
 13.2196  23511.4  152.387
 13.2616  23234.3  151.813
 13.3036  23497.3  152.618
 13.3456  23234.5  151.917
 13.3876  23574.7  152.495
 13.4296  23426.1  152.187
 13.4716  23602.2  152.389
 13.5136  23509  152.223
 13.5556  23308.8  152.187
 13.5976  23542.9  153.118
 13.6396  23455.8  152.21
 13.6816  23478.7  152.73
 13.7236  23917.1  153.73
 13.7656  25392.9  158.842
 13.8076  26097.3  159.713
 13.8496  25701.6  159.107
 13.8916  23721.5  154.016
 13.9336  22894.6  150.621
 13.9756  22990.7  150.325
 14.0176  22796.1  150.364
 14.0596  22964.1  150.827
 14.1016  22785.4  150.664
 14.1436  22903.8  150.19
 14.1856  22268.7  148.387
 14.2276  22331.5  149.064
 14.2696  22339  148.95
 14.3116  21817.8  147.121
 14.3536  21593.2  146.514
 14.3956  21235.8  145.032
 14.4376  21550.5  145.893
 14.4796  21685.6  146.349
 14.5216  21127  145.219
 14.5636  21050.2  144.535
 14.6056  21120.5  144.336
 14.6476  21225.3  143.962
 14.6896  20838.4  143.177
 14.7316  20370.4  142.573
 14.7736  20275.1  141.404
 14.8156  20294.8  141.489
 14.8576  20300.2  141.366
 14.8996  19848.6  140.959
 14.9416  19435.5  139.499
 14.9836  19459.2  139.573
 15.0256  19017.6  136.932
 15.0676  18786.2  136.399
 15.1096  18849.1  136.374
 15.1516  18497.8  135.633
 15.1936  18440.7  134.873
 15.2356  18005.5  133.539
 15.2776  18169.1  133.746
 15.3196  17713.7  133.02
 15.3616  17766.1  132.983
 15.4036  17790.7  132.939
 15.4456  17850.5  132.82
 15.4876  17447.9  131.007
 15.5296  17489.1  131.438
 15.5716  17274.9  130.248
 15.6136  17186.6  130.233
 15.6556  17147.7  129.348
 15.6976  17227.6  129.726
 15.7396  16912.4  129.117
 15.7816  16874.5  128.499
 15.8236  16585.5  128.061
 15.8656  16689.7  128.266
 15.9076  16547.5  127.549
 15.9496  17072.6  132.278
 15.9916  16868.9  131.876
 16.0336  16990  129.283
 16.0756  16821.3  128.954
 16.1176  16578.6  128.098
 16.1596  16162.2  127.637
 16.2016  16257.1  126.803
 16.2436  16210.3  126.978
 16.2856  16148.8  126.245
 16.3276  15793.1  125.299
 16.3696  16186.2  126.673
 16.4116  15762.8  125.439
 16.4536  15957.7  126.02
 16.4956  16094.9  126.291
 16.5376  15859.6  125.558
 16.5796  15671  124.196
 16.6216  15789.6  124.919
 16.6636  15383.3  123.497
 16.7056  15678.5  124.53
 16.7476  15793.8  124.528
 16.7896  15622  124.578
 16.8316  15789  125.218
 16.8736  15770.2  125.379
 16.9156  15671.6  125.324
 16.9576  15478.2  125.321
 16.9996  15497.6  125.849
 17.0416  15734.7  125.233
 17.0836  15898  125.636
 17.1256  15613.5  124.51
 17.1676  15546.4  124.206
 17.2096  15275.3  123.018
 17.2516  15490.6  123.676
 17.2936  15238.7  123.009
 17.3356  15109.4  122.457
 17.3776  15049.7  122.412
 17.4196  14887.7  121.466
 17.4616  14863.2  121.268
 17.5036  14640.3  120.723
 17.5456  14618.2  121.242
 17.5876  14629.2  120.362
 17.6296  14547.5  119.855
 17.6716  14417.2  119.877
 17.7136  14253.8  119.313
 17.7556  14317.7  119.879
 17.7976  13940.5  117.9
 17.8396  14148.7  118.423
 17.8816  14077.6  118.681
 17.9236  14036.3  118.297
 17.9656  14002.5  118.834
 18.0076  13912.3  117.891
 18.0496  13814.7  116.644
 18.0916  13868.5  117.4
 18.1336  13760  117.033
 18.1756  13796.4  116.759
 18.2176  13634.5  116.275
 18.2596  13477.4  115.345
 18.3016  13693.1  116.514
 18.3436  13665.1  116.62
 18.3856  13606.3  116.269
 18.4276  13612.4  116
 18.4696  13512.2  115.646
 18.5116  13482.9  115.791
 18.5536  13553.4  116.451
 18.5956  13285.4  114.861
 18.6376  13428  115.868
 18.6796  13306.5  114.682
 18.7216  13403.7  115.642
 18.7636  13366.5  115.41
 18.8056  13289.6  115.015
 18.8476  13069.2  114.665
 18.8896  13290.4  114.983
 18.9316  13198.5  114.417
 18.9736  13348.3  114.931
 19.0156  13259.9  114.95
 19.0576  13321.3  114.073
 19.0996  13421.2  115.212
 19.1416  13106.9  114.233
 19.1836  13086.9  113.771
 19.2256  13124.8  114.154
 19.2676  13145.5  114.327
 19.3096  13205.2  114.829
 19.3516  13163.7  114.602
 19.3936  12975  113.677
 19.4356  13152.2  114.33
 19.4776  13038.7  113.93
 19.5196  13068.1  113.917
 19.5616  12974.7  113.757
 19.6036  13005.5  113.41
 19.6456  13070.4  113.797
 19.6876  12974.9  113.036
 19.7296  13287  114.827
 19.7716  13021.1  113.708
 19.8136  13338.5  115.417
 19.8556  13544.3  115.793
 19.8976  13258.4  114.626
 19.9396  13387.6  114.786
 19.9816  13326.3  114.77
 20.0236  13493.2  115.668
 20.0656  13715.4  116.62
 20.1076  14080.6  118.62
 20.1496  14192.3  119.096
 20.1916  14415.7  119.54
 20.2336  14083.7  118.087
 20.2756  13721.8  116.98
 20.3176  13510.7  115.835
 20.3596  13222  114.585
 20.4016  13221.4  114.366
 20.4436  13039.9  114.157
 20.4856  13153.7  114.428
 20.5276  12757.8  113.147
 20.5696  13091.3  114.049
 20.6116  12685.2  112.565
 20.6536  12742.5  112.387
 20.6956  12739.4  112.448
 20.7376  12604.5  112.061
 20.7796  12634.2  111.892
 20.8216  12745  112.099
 20.8636  12662.3  112.093
 20.9056  12530.6  111.455
 20.9476  12553.4  111.396
 20.9896  12669.9  111.79
 21.0316  12546  111.154
 21.0736  12355.6  110.803
 21.1156  12335.3  110.873
 21.1576  12514.5  111.699
 21.1996  12519.1  111.71
 21.2416  12488.9  111.404
 21.2836  12395.5  110.968
 21.3256  12457.4  111.308
 21.3676  12274.7  110.048
 21.4096  12254.6  110.268
 21.4516  12287.4  110.284
 21.4936  11986.8  109.194
 21.5356  12266.8  110.403
 21.5776  12360  110.657
 21.6196  12175.3  109.872
 21.6616  12069  109.476
 21.7036  12241.9  110.023
 21.7456  12293.7  110.331
 21.7876  12076.5  109.127
 21.8296  12061.8  108.903
 21.8716  12147.5  109.519
 21.9136  12298.8  110.398
 21.9556  12126.5  109.301
 21.9976  12010.7  108.812
 22.0396  12109.1  109.503
 22.0816  11896.9  109.056
 22.1236  12112  109.506
 22.1656  11984.6  109.119
 22.2076  11836.4  107.877
 22.2496  11833.6  107.89
 22.2916  11792  107.58
 22.3336  11748  108.07
 22.3756  11746.8  107.812
 22.4176  11680.2  107.37
 22.4596  11569.6  107.425
 22.5016  11685.8  107.478
 22.5436  11939.6  108.523
 22.5856  11982.8  108.957
 22.6276  12306.8  110.544
 22.6696  11996.5  109.5
 22.7116  11837.6  108.294
 22.7536  11855.2  108.352
 22.7956  11724.4  107.11
 22.8376  11650.7  107.276
 22.8796  11813.3  107.825
 22.9216  11816.1  108.371
 22.9636  11745.7  107.226
 23.0056  11728.1  107.274
 23.0476  11846.6  108.367
 23.0896  12103.4  108.93
 23.1316  11966.5  108.734
 23.1736  11872  111.157
 23.2156  12166.3  109.951
 23.2576  12385.7  111.05
 23.2996  12139  109.737
 23.3416  12301.7  110.974
 23.3836  12204.9  109.792
 23.4256  12441.5  110.956
 23.4676  12242.7  109.778
 23.5096  12188.7  110.177
 23.5516  12067.5  108.943
 23.5936  12096.1  109.965
 23.6356  12250.3  110.335
 23.6776  12058.3  109.687
 23.7196  11842.4  108.277
 23.7616  11958.1  108.731
 23.8036  12295.1  110.291
 23.8456  12008.1  108.577
 23.8876  11988  108.816
 23.9296  11827.4  108.571
 23.9716  11868.6  107.978
 24.0136  11929.3  109.142
 24.0556  11838.4  108.441
 24.0976  11711  107.683
 24.1396  11694.2  110.153
 24.1816  11772.4  109.312
 24.2236  11661.7  108.089
 24.2656  11687.3  107.694
 24.3076  11677.4  107.92
 24.3496  11566  107.285
 24.3916  11568.5  107.345
 24.4336  11607.4  107.725
 24.4756  11408.8  106.687
 24.5176  11370.3  106.139
 24.5596  11428.7  106.527
 24.6016  11249.9  105.99
 24.6436  11446.2  106.419
 24.6856  11299.4  105.493
 24.7276  11033.7  104.559
 24.7696  11194.4  105.417
 24.8116  11050.2  104.919
 24.8536  11058.4  104.958
 24.8956  10965.9  104.255
 24.9376  11081.1  104.728
 24.9796  10914.1  104.281
 25.0216  10835.7  104.021
 25.0636  10894.8  103.97
 25.1056  10719.9  103.561
 25.1476  10798.8  105.818
 25.1896  10717.6  103.955
 25.2316  10771.1  103.513
 25.2736  10669.5  102.68
 25.3156  10801.5  103.378
 25.3576  10658.4  103.114
 25.3996  10659.6  103.111
 25.4416  10596.6  102.78
 25.4836  10429.4  102.468
 25.5256  10483.4  102.12
 25.5676  10581.9  102.33
 25.6096  10442.4  102.218
 25.6516  10476.1  101.896
 25.6936  10643.1  103.008
 25.7356  10576.4  102.823
 25.7776  10574.9  102.418
 25.8196  10319.3  101.413
 25.8616  10323.2  101.365
 25.9036  10508.6  101.733
 25.9456  10332.7  101.466
 25.9876  10376.6  101.735
 26.0296  10543  102.16
 26.0716  10388.5  101.733
 26.1136  10424.9  101.852
 26.1556  10407.8  101.168
 26.1976  10296.7  101.527
 26.2396  10359.4  101.267
 26.2816  10367.6  101.651
 26.3236  10404.5  101.981
 26.3656  10449.6  101.923
 26.4076  10416.6  101.978
 26.4496  10608.3  102.494
 26.4916  10635.7  102.53
 26.5336  10929.6  104.278
 26.5756  11028.5  104.63
 26.6176  10446.8  101.856
 26.6596  10339.2  101.626
 26.7016  10279.7  101.104
 26.7436  10580.1  102.69
 26.7856  10093  100.297
 26.8276  10144.9  100.516
 26.8696  10233.6  100.825
 26.9116  10091.8  100.06
 26.9536  10001.5  99.6698
 26.9956  10043.5  99.9164
 27.0376  10148.4  100.637
 27.0796  10059.2  100.01
 27.1216  10067  100.019
 27.1636  9910.77  99.4182
 27.2056  9920.31  99.3521
 27.2476  9915.71  99.331
 27.2896  9817.07  98.9364
 27.3316  9947.97  99.3221
 27.3736  9778.28  98.7398
 27.4156  9859.74  98.9737
 27.4576  9849.66  99.1592
 27.4996  9949.03  99.2571
 27.5416  9870.41  99.1677
 27.5836  9712.69  98.2182
 27.6256  9749.4  98.5841
 27.6676  9709.67  98.3778
 27.7096  9922.23  99.323
 27.7516  9739.12  98.5493
 27.7936  10036.5  100.178
 27.8356  9975.42  99.4939
 27.8776  9934.59  99.3469
 27.9196  9727.85  98.1762
 27.9616  9815.06  98.8071
 28.0036  9609.01  97.7261
 28.0456  9526.5  97.4542
 28.0876  9580.64  97.8064
 28.1296  9562.49  97.56
 28.1716  9688.26  98.2074
 28.2136  9646.56  97.9695
 28.2556  9556.91  97.6132
 28.2976  9390.68  96.7635
 28.3396  9406.53  96.6499
 28.3816  9454.3  96.8646
 28.4236  9530.72  97.4124
 28.4656  9453.76  97.0538
 28.5076  9467.79  96.7681
 28.5496  9482.3  97.0943
 28.5916  9519.56  97.0988
 28.6336  9435.04  97.0004
 28.6756  9374.21  95.903
 28.7176  9446.98  96.8262
 28.7596  9400.25  96.4836
 28.8016  9368.15  96.3547
 28.8436  9184.44  95.6345
 28.8856  9453.17  96.8795
 28.9276  9283.14  96.2421
 28.9696  9335.28  96.1745
 29.0116  9269.32  96.0182
 29.0536  9207.99  95.9006
 29.0956  9321.74  96.1995
 29.1376  9234.38  95.7253
 29.1796  9259.5  95.8932
 29.2216  9145.94  95.1534
 29.2636  9328.8  96.0868
 29.3056  9240.91  95.5065
 29.3476  9194.17  95.7707
 29.3896  9257  96.2232
 29.4316  9185.47  95.2064
 29.4736  8955.1  94.0682
 29.5156  9081.6  94.6535
 29.5576  9031.93  95.1034
 29.5996  8913.74  93.7711
 29.6416  8854.69  93.5733
 29.6836  8984.36  94.1873
 29.7256  9023.92  94.9426
 29.7676  8910.32  94.0161
 29.8096  8975.62  94.305
 29.8516  8712.49  93.2331
 29.8936  8908.35  94.3623
 29.9356  8969.64  94.4488
 29.9776  8850.36  93.955
 30.0196  8993.57  94.1256
 30.0616  8856.28  93.7685
 30.1036  8959.59  94.1437
 30.1456  8844.73  93.7658
 30.1876  8797.73  93.4895
 30.2296  8815.84  93.5422
 30.2716  8898.77  93.6288
 30.3136  8938.37  94.6681
 30.3556  9098.71  95.4961
 30.3976  9028.57  96.5904
 30.4396  9349.11  95.6694
 30.4816  9144.17  94.2398
 30.5236  9124.55  94.1213
 30.5656  8999.89  94.1297
 30.6076  9069.73  93.9101
 30.6496  9139.03  94.6797
 30.6916  8863.19  93.3341
 30.7336  8949.16  93.9168
 30.7756  9102.6  94.7875
 30.8176  8992.87  94.1683
 30.8596  9014.68  94.0191
 30.9016  9076.43  94.6963
 30.9436  9272.8  95.4648
 30.9856  9210.05  95.2643
 31.0276  8985.31  93.7329
 31.0696  8978.31  94.2308
 31.1116  9040.15  94.5334
 31.1536  8901.56  93.6929
 31.1956  8812.64  93.3082
 31.2376  8774.14  93.1329
 31.2796  8957.14  93.6329
 31.3216  8950.09  93.5179
 31.3636  8934.85  94.1374
 31.4056  8931.75  95.4143
 31.4476  9080.29  94.1236
 31.4896  8945.8  93.9135
 31.5316  8903.44  93.1503
 31.5736  9004.79  93.4718
 31.6156  8974.87  93.3195
 31.6576  9023.24  93.6457
 31.6996  9043.63  93.4225
 31.7416  8855.53  93.5168
 31.7836  8917.36  92.8599
 31.8256  8792.56  92.5372
 31.8676  8985.7  93.4713
 31.9096  8778.47  92.7506
 31.9516  8739.13  92.7038
 31.9936  8607.49  91.8298
 32.0356  8943.12  93.6537
 32.0776  8922.47  93.443
 32.1196  8924.44  93.5544
 32.1616  8808.32  92.4017
 32.2036  8886.38  93.3124
 32.2456  8745.64  92.9438
 32.2876  8690.36  92.0027
 32.3296  8771.79  92.5583
 32.3716  8572.12  91.6223
 32.4136  8603.53  91.9848
 32.4556  8694.93  91.9228
 32.4976  8594.24  91.2532
 32.5396  8530.93  90.9648
 32.5816  8659.63  91.7707
 32.6236  8701.88  92.064
 32.6656  8667.28  92.4089
 32.7076  8566.9  91.5377
 32.7496  8523.02  90.9856
 32.7916  8585.91  91.2812
 32.8336  8605.36  91.4791
 32.8756  8680.42  91.604
 32.9176  8492.76  91.0827
 32.9596  8528.48  91.3392
 33.0016  8417.17  90.514
 33.0436  8490.34  91.0937
 33.0856  8498.27  91.2224
 33.1276  8376.99  90.3081
 33.1696  8652.03  91.6077
 33.2116  8473.26  90.8913
 33.2536  8617.84  91.6339
 33.2956  8473.36  90.9619
 33.3376  8532.03  91.0082
 33.3796  8430.16  90.6922
 33.4216  8471.9  90.5223
 33.4636  8430.97  90.4443
 33.5056  8365.85  90.3359
 33.5476  8469.64  90.8586
 33.5896  8559.53  91.1271
 33.6316  8461.42  90.9194
 33.6736  8323.51  90.4256
 33.7156  8361.8  90.6524
 33.7576  8506.55  91.0937
 33.7996  8485.67  90.7514
 33.8416  8266.94  89.7506
 33.8836  8316.92  89.8062
 33.9256  8373.35  90.1543
 33.9676  8383.18  90.1103
 34.0096  8416.22  90.5928
 34.0516  8368.49  89.9815
 34.0936  8252  89.6238
 34.1356  8262.16  89.4219
 34.1776  8212.31  89.1615
 34.2196  8263.12  89.6054
 34.2616  8248.44  89.6613
 34.3036  8327.84  90.3287
 34.3456  8200.05  89.3978
 34.3876  8372.51  90.2997
 34.4296  8169.39  88.8984
 34.4716  8354.28  90.0526
 34.5136  8208.82  89.4446
 34.5556  8195.25  89.6282
 34.5976  8260  89.7923
 34.6396  8189.52  89.1277
 34.6816  8218.16  89.3776
 34.7236  8222.12  89.1959
 34.7656  8232.64  89.4558
 34.8076  8075.78  88.9208
 34.8496  8128.41  89.0673
 34.8916  8118.16  88.8751
 34.9336  8253.92  89.6007
 34.9756  8193.33  89.1893
 35.0176  8216.25  89.8269
 35.0596  8292.87  90.0675
 35.1016  8306  89.9031
 35.1436  8501.7  90.6479
 35.1856  8202.85  89.1656
 35.2276  8212.09  89.3824
 35.2696  8187.35  89.4304
 35.3116  8086.52  88.9865
 35.3536  8163.67  89.1103
 35.3956  8202.82  89.0474
 35.4376  8246.29  89.8317
 35.4796  8277.41  90.0444
 35.5216  8128.29  89.1941
 35.5636  7931.71  88.8324
 35.6056  8037  88.4666
 35.6476  8147.37  88.9672
 35.6896  8140.85  89.0991
 35.7316  8003.76  88.2499
 35.7736  8039.67  88.63
 35.8156  8168.61  89.3312
 35.8576  8084.88  89.1155
 35.8996  8031.91  88.7888
 35.9416  7959.03  87.9134
 35.9836  8068.69  88.8535
 36.0256  8214.83  89.6633
 36.0676  8245.13  89.3775
 36.1096  8096.35  88.9321
 36.1516  8183.2  89.2831
 36.1936  8107.76  88.711
 36.2356  7967.13  88.592
 36.2776  7982.14  88.1652
 36.3196  7951.48  87.6639
 36.3616  7965.78  87.8717
 36.4036  7938.85  87.7951
 36.4456  8008.2  88.3784
 36.4876  7840.22  87.3857
 36.5296  7957.91  88.0735
 36.5716  7926.95  88.668
 36.6136  7941.47  87.5736
 36.6556  7792.54  86.9412
 36.6976  7748.01  87.17
 36.7396  7879.87  87.6478
 36.7816  7694.15  86.9718
 36.8236  7779.08  87.3728
 36.8656  7703.83  87.0082
 36.9076  7630.66  86.614
 36.9496  7717.11  86.9685
 36.9916  7684.96  86.4201
 37.0336  7802.13  87.392
 37.0756  7754.49  86.9222
 37.1176  7527.44  85.8982
 37.1596  7641.16  86.5451
 37.2016  7630.55  86.6582
 37.2436  7629.32  86.0405
 37.2856  7587.59  86.049
 37.3276  7735.16  86.2527
 37.3696  7653.47  86.6559
 37.4116  7640.68  86.4944
 37.4536  7665.68  86.5044
 37.4956  7556.2  85.926
 37.5376  7857.08  89.172
 37.5796  7852.73  89.0773
 37.6216  7815.38  87.1572
 37.6636  7805.29  86.9801
 37.7056  7914.84  87.7942
 37.7476  7873.44  87.1001
 37.7896  7720.03  86.7598
 37.8316  7783.88  87.2548
 37.8736  7791.06  86.8511
 37.9156  7782.31  86.7921
 37.9576  7692.37  86.1957
 37.9996  7562.52  85.18
 38.0416  7676.34  86.6109
 38.0836  7845.05  87.4621
 38.1256  7597.99  86.048
 38.1676  7625.82  86.3181
 38.2096  7730.75  86.5306
 38.2516  7640.86  86.253
 38.2936  7851.21  87.2123
 38.3356  7783.36  86.7829
 38.3776  7564.13  85.7846
 38.4196  7633.42  86.0562
 38.4616  7640.98  86.3145
 38.5036  7777.86  86.9414
 38.5456  7611.8  86.8159
 38.5876  7642.66  87.0093
 38.6296  7710.63  86.3859
 38.6716  7593.19  85.5291
 38.7136  7666.06  85.8827
 38.7556  7546.41  85.6935
 38.7976  7701.01  86.4979
 38.8396  7591.11  86.334
 38.8816  7638.43  86.4087
 38.9236  7600.28  85.9957
 38.9656  7475.62  85.1974
 39.0076  7712.57  85.9521
 39.0496  7666.21  86.2306
 39.0916  7655.33  85.8275
 39.1336  7627.18  86.0686
 39.1756  7603.65  86.0007
 39.2176  7618.11  86.6056
 39.2596  7617.62  86.5252
 39.3016  7682.66  86.4823
 39.3436  7648.61  86.7033
 39.3856  7729.96  86.6121
 39.4276  7765.01  87.304
 39.4696  7701.4  86.5711
 39.5116  7760.75  87.4136
 39.5536  7647.7  87.1919
 39.5956  7581.08  85.942
 39.6376  7572.57  85.9053
 39.6796  7575.29  85.6597
 39.7216  7593.05  85.8647
 39.7636  7613.15  86.5303
 39.8056  7634.17  86.4354
 39.8476  7531.55  86.1009
 39.8896  7575.5  85.9834
 39.9316  7581.04  86.2483
 39.9736  7644.35  86.2069
 40.0156  7597.37  85.7769
 40.0576  7549.61  85.8503
 40.0996  7629.79  85.5077
 40.1416  7582.25  86.0149
 40.1836  7585.43  85.9225
 40.2256  7627.73  86.195
 40.2676  7539.67  85.8008
 40.3096  7623.18  86.2062
 40.3516  7620.22  86.3061
 40.3936  7572.9  85.5942
 40.4356  7508.37  85.4341
 40.4776  7597.89  86.332
 40.5196  7693.05  86.9989
 40.5616  7758.72  87.0103
 40.6036  7501.48  85.8092
 40.6456  7609.18  86.0375
 40.6876  7672.06  86.3833
 40.7296  7625.66  86.2584
 40.7716  7723.2  86.925
 40.8136  7591.13  86.1216
 40.8556  7652.37  86.5909
 40.8976  7608.7  86.2797
 40.9396  7534.76  86.1876
 40.9816  7663.57  86.2263
 41.0236  7655.5  85.9821
 41.0656  7793.49  87.2745
 41.1076  7675.05  86.395
 41.1496  7722.67  86.5654
 41.1916  7609.54  86.242
 41.2336  7624.49  86.316
 41.2756  7688.16  86.2956
 41.3176  7592.1  86.3428
 41.3596  7654.39  86.4456
 41.4016  7619.36  86.501
 41.4436  7634.05  86.3736
 41.4856  7567.63  86.1611
 41.5276  7520.74  85.9075
 41.5696  7720.47  86.6567
 41.6116  7685.45  86.8524
 41.6536  7538.65  85.8811
 41.6956  7730.88  87.0281
 41.7376  7611.14  86.3914
 41.7796  7500.72  85.6908
 41.8216  7656.47  86.7462
 41.8636  7546.59  86.0798
 41.9056  7501.88  85.6187
 41.9476  7635.78  86.607
 41.9896  7731.28  86.8154
 42.0316  7646.84  86.4247
 42.0736  7674.66  86.6826
 42.1156  7608.93  86.1499
 42.1576  7572.91  86.0581
 42.1996  7784.97  87.3743
 42.2416  7547.02  85.6277
 42.2836  7618.42  86.1497
 42.3256  7424.4  85.155
 42.3676  7721.13  86.6331
 42.4096  7593.85  85.8926
 42.4516  7715.76  86.6552
 42.4936  7475.42  85.3679
 42.5356  7452.24  85.3772
 42.5776  7648.66  86.4329
 42.6196  7677.39  86.6503
 42.6616  7536.49  86.0146
 42.7036  7571.75  85.6065
 42.7456  7703.41  86.6944
 42.7876  7564.15  85.9995
 42.8296  7595.05  86.0249
 42.8716  7507.67  85.6813
 42.9136  7467.65  85.2511
 42.9556  7464.03  85.3583
 42.9976  7530.11  85.7028
 43.0396  7400.12  84.6995
 43.0816  7442.17  85.3152
 43.1236  7464.74  85.4905
 43.1656  7492.74  85.4855
 43.2076  7392.61  85.0086
 43.2496  7492.29  85.4103
 43.2916  7451.28  85.5277
 43.3336  7432.36  85.2593
 43.3756  7511.67  85.461
 43.4176  7436.06  85.1219
 43.4596  7447.34  85.0464
 43.5016  7408.79  85.2004
 43.5436  7447.42  85.3464
 43.5856  7376.18  84.9723
 43.6276  7412.47  85.0695
 43.6696  7357.91  84.8947
 43.7116  7470.67  85.1582
 43.7536  7528.52  85.9723
 43.7956  7271.58  85.6828
 43.8376  7259.27  84.1784
 43.8796  7207.68  83.9572
 43.9216  7200.54  83.8351
 43.9636  7241.99  84.1803
 44.0056  7177.39  84.0274
 44.0476  7149.68  83.5127
 44.0896  7146.41  83.8225
 44.1316  7203.04  83.8267
 44.1736  7270.22  84.1961
 44.2156  7295.61  84.2077
 44.2576  7248.8  84.2549
 44.2996  7292.91  84.4701
 44.3416  7226.88  83.8668
 44.3836  7082.41  83.3357
 44.4256  7189.2  83.6172
 44.4676  7046.65  82.9353
 44.5096  7209.53  84.027
 44.5516  7113.28  83.4313
 44.5936  7097.92  83.2952
 44.6356  7163.61  83.4254
 44.6776  7208.68  83.9949
 44.7196  7228.62  84.4164
 44.7616  7261.74  85.9002
 44.8036  7280.86  84.47
 44.8456  7447.79  85.628
 44.8876  7388.56  85.1326
 44.9296  7508.52  85.2722
 44.9716  7324.33  84.6299
 45.0136  7328.8  84.6075
 45.0556  7376.48  84.8517
 45.0976  7365.35  84.9338
 45.1396  7313.85  84.4156
 45.1816  7232.97  83.8927
 45.2236  7373.41  84.6013
 45.2656  7239.49  84.3315
 45.3076  7239.44  84.1058
 45.3496  7248.34  84.4665
 45.3916  7271.11  84.8555
 45.4336  7283.97  84.7699
 45.4756  7299.88  84.7151
 45.5176  7298.58  84.3349
 45.5596  7442.31  85.2843
 45.6016  7186.61  84.225
 45.6436  7228.07  83.6555
 45.6856  7290.2  84.6676
 45.7276  7074.4  84.6915
 45.7696  7287.84  85.6386
 45.8116  7191.07  84.4859
 45.8536  7149.7  84.1467
 45.8956  7203.27  83.8292
 45.9376  7175.17  83.1449
 45.9796  7284.41  84.4578
 46.0216  7264.27  84.6385
 46.0636  7396.06  84.5613
 46.1056  7377  84.4629
 46.1476  7166.13  83.8308
 46.1896  7288.48  84.6821
 46.2316  7182.37  83.9448
 46.2736  6978.22  83.1022
 46.3156  7252.31  84.3053
 46.3576  7268.89  84.5993
 46.3996  7218.11  84.466
 46.4416  7210.33  84.0013
 46.4836  7217.39  84.3876
 46.5256  7298.32  84.7953
 46.5676  7211.07  84.4129
 46.6096  7174.38  84.1104
 46.6516  7292.45  83.8642
 46.6936  7127.49  83.4019
 46.7356  7348.57  84.7723
 46.7776  7103.95  84.1973
 46.8196  7177.27  84.2267
 46.8616  7034.22  83.3381
 46.9036  7082.25  83.2839
 46.9456  7180.66  83.5073
 46.9876  7157.19  83.4487
 47.0296  7148.37  84.09
 47.0716  7042.12  83.2814
 47.1136  7190.46  83.8249
 47.1556  7044.8  82.8489
 47.1976  7107.93  83.2833
 47.2396  7054.01  83.3761
 47.2816  7036.07  82.975
 47.3236  7136.79  83.9354
 47.3656  7187.2  84.1621
 47.4076  7107.54  83.4947
 47.4496  7128.92  83.7125
 47.4916  7106.87  83.7695
 47.5336  7115.68  83.6432
 47.5756  7152.85  83.9798
 47.6176  7187.64  84.0775
 47.6596  7056.75  83.0271
 47.7016  7158.95  83.4408
 47.7436  7134.58  83.6406
 47.7856  7189.66  83.978
 47.8276  7118.59  83.6229
 47.8696  7090.59  83.5417
 47.9116  7199.64  83.8964
 47.9536  7027.02  82.8226
 47.9956  7148.6  84.2437
 48.0376  7041.42  83.3892
 48.0796  7089.11  83.7815
 48.1216  7119.2  83.7973
 48.1636  7236.38  84.0399
 48.2056  7089.62  83.46
 48.2476  7285.63  84.9101
 48.2896  7134.29  83.9359
 48.3316  7204.33  84.2988
 48.3736  7128.06  83.8633
 48.4156  7068.5  83.3741
 48.4576  6988.43  83.1809
 48.4996  7143.02  83.5573
 48.5416  7199.37  84.2017
 48.5836  7029.15  82.8797
 48.6256  7172.08  83.9242
 48.6676  7110.91  84.0843
 48.7096  7115.08  83.3818
 48.7516  7107.97  83.4936
 48.7936  6943.49  82.5855
 48.8356  7089.58  83.4955
 48.8776  7045.69  83.7272
 48.9196  7165.32  83.8758
 48.9616  6893.06  82.6444
 49.0036  7066.69  84.0251
 49.0456  7048  83.8935
 49.0876  7036.01  83.4547
 49.1296  7015.64  83.4094
 49.1716  6973.04  83.0303
 49.2136  7011.22  83.1804
 49.2556  7208.58  84.3759
 49.2976  7056.94  83.5449
 49.3396  7025.63  83.4165
 49.3816  7159.2  83.6286
 49.4236  7071.69  83.5526
 49.4656  6974.18  82.9945
 49.5076  7097.48  83.4702
 49.5496  7077.98  83.4184
 49.5916  7135.36  83.6708
 49.6336  7012.94  83.1601
 49.6756  7113.43  83.9755
 49.7176  7034.38  83.4556
 49.7596  6978.64  82.8876
 49.8016  7147.15  83.7949
 49.8436  6953.25  82.9597
 49.8856  7011.25  83.3077
 49.9276  6970.36  83.1645
 49.9696  7042.1  83.5703
 50.0116  7033.52  83.6452
 50.0536  7019.07  83.5108
 50.0956  6986.75  83.3871
 50.1376  7021.06  83.2862
 50.1796  6977.67  83.3086
 50.2216  7016.83  83.532
 50.2636  6892.91  82.4134
 50.3056  6948.02  82.9189
 50.3476  6851.64  82.3512
 50.3896  6983.75  83.1221
 50.4316  7007.05  83.0967
 50.4736  6989.07  83.2054
 50.5156  7034.13  83.471
 50.5576  7091.19  83.5625
 50.5996  6914.22  82.7955
 50.6416  6997.69  83.2139
 50.6836  7023.2  83.4211
 50.7256  6998.69  83.2123
 50.7676  7094.42  84.0442
 50.8096  6998.22  83.0532
 50.8516  6871.1  82.7177
 50.8936  6904.79  82.708
 50.9356  6971.01  83.2072
 50.9776  6898.36  82.9344
 51.0196  6787.78  82.3991
 51.0616  6757.44  81.5415
 51.1036  6926.12  82.9142
 51.1456  6913.41  82.7395
 51.1876  6937.94  82.2327
 51.2296  6688.25  81.3696
 51.2716  6643.88  80.8074
 51.3136  6777.05  82.0714
 51.3556  6774.37  81.678
 51.3976  6660.75  81.1393
 51.4396  6682.93  81.5828
 51.4816  6610.88  80.9934
 51.5236  6849.06  82.5254
 51.5656  6862.73  82.2083
 51.6076  6786.38  81.829
 51.6496  6738.08  81.7311
 51.6916  6683.36  81.7491
 51.7336  6780.35  82.4385
 51.7756  6756.24  81.9874
 51.8176  6700.45  81.756
 51.8596  6795.61  82.3483
 51.9016  6720.23  81.4989
 51.9436  6770.74  83.274
 51.9856  6814.65  83.9494
 52.0276  6867.04  82.7644
 52.0696  6956  83.3531
 52.1116  6799.9  82.5591
 52.1536  6901.19  83.0372
 52.1956  6832.45  82.091
 52.2376  6939.66  82.9033
 52.2796  6732.35  81.4796
 52.3216  6763.87  82.3598
 52.3636  6836.43  82.3577
 52.4056  6812.97  82.0826
 52.4476  6726.91  81.9231
 52.4896  6782.79  82.3081
 52.5316  6805.59  82.4938
 52.5736  6701.44  81.5861
 52.6156  6858.47  82.9322
 52.6576  6777.84  81.8939
 52.6996  6611.53  81.8404
 52.7416  6733.4  82.466
 52.7836  6766.51  82.5516
 52.8256  6775.16  81.8143
 52.8676  6609.23  81.3781
 52.9096  6710.73  82.0727
 52.9516  6701.64  82.4021
 52.9936  6665.11  82.5523
 53.0356  6783.51  82.2659
 53.0776  6814.72  82.7574
 53.1196  6672.94  81.9922
 53.1616  6721.82  82.3374
 53.2036  6722.25  82.3059
 53.2456  6676.63  82.1297
 53.2876  6631.48  81.5418
 53.3296  6641.63  81.9391
 53.3716  6739.57  82.2692
 53.4136  6749.12  82.4898
 53.4556  6751.87  82.5372
 53.4976  6620.03  81.5697
 53.5396  6730.47  82.6523
 53.5816  6727.85  82.2668
 53.6236  6623.69  81.9756
 53.6656  6588.17  81.3373
 53.7076  6727.18  82.1708
 53.7496  6658.94  81.8629
 53.7916  6724.69  82.4331
 53.8336  6809.93  82.8246
 53.8756  6511.8  81.5497
 53.9176  6615.04  81.5411
 53.9596  6339.91  80.5869
 54.0016  6457.03  80.6439
 54.0436  6314.69  79.9893
 54.0856  6419.48  80.0752
 54.1276  6444.03  80.4185
 54.1696  6422.52  80.448
 54.2116  6562.15  81.0501
 54.2536  6505.83  80.5369
 54.2956  6377.87  79.7928
 54.3376  6357  80.1318
 54.3796  6457.92  80.654
 54.4216  6469.66  80.8047
 54.4636  6374.4  80.1524
 54.5056  6499.79  80.7578
 54.5476  6316.48  79.9372
 54.5896  6434.79  80.5263
 54.6316  6460.44  80.5331
 54.6736  6307.22  79.6121
 54.7156  6350.17  79.9517
 54.7576  6294.87  79.5667
 54.7996  6373.42  80.2347
 54.8416  6276.8  79.6737
 54.8836  6359.12  80.2742
 54.9256  6247.27  79.3502
 54.9676  6224.96  79.0744
 55.0096  6280.75  79.4475
 55.0516  6186.27  79.0256
 55.0936  6348.96  79.7852
 55.1356  6293.84  79.4806
 55.1776  6408.89  80.4316
 55.2196  6288.11  79.4667
 55.2616  6424.76  80.5415
 55.3036  6172.96  79.1068
 55.3456  6130.37  78.9898
 55.3876  6276.31  79.6482
 55.4296  6151.73  78.8565
 55.4716  6261.01  79.56
 55.5136  6227.97  79.1452
 55.5556  6428.72  80.4404
 55.5976  6329.46  79.9115
 55.6396  6312.26  79.7365
 55.6816  6205.19  78.9364
 55.7236  6148.71  78.6338
 55.7656  6232.5  78.8982
 55.8076  6249.1  79.017
 55.8496  6202.25  78.9998
 55.8916  6294.5  79.7438
 55.9336  6352.98  79.9916
 55.9756  6164.34  78.6826
 56.0176  6107.65  78.4759
 56.0596  6071.29  78.235
 56.1016  6090.6  78.4172
 56.1436  6114.27  78.7695
 56.1856  6062.77  78.2085
 56.2276  6323.1  79.9034
 56.2696  6135.68  78.6987
 56.3116  6252.98  79.7983
 56.3536  6117.46  78.6168
 56.3956  6158.69  78.8591
 56.4376  6079.6  78.4201
 56.4796  6054.66  78.0678
 56.5216  6139.03  78.9609
 56.5636  6026.55  77.8221
 56.6056  6154.15  78.8799
 56.6476  6130.73  78.3337
 56.6896  6217.72  79.3481
 56.7316  6118.81  78.635
 56.7736  6085.35  78.416
 56.8156  6087.96  78.4618
 56.8576  5900.71  77.1911
 56.8996  6057.02  78.1146
 56.9416  6072.33  78.4951
 56.9836  6194.79  78.8142
 57.0256  6059.71  78.2708
 57.0676  6188.8  79.2046
 57.1096  6017.87  77.9114
 57.1516  5994.14  77.7739
 57.1936  6123.83  78.3895
 57.2356  5934.35  77.5098
 57.2776  5971.69  77.7216
 57.3196  5981.05  78.0951
 57.3616  6076.55  78.2224
 57.4036  6086.6  78.3595
 57.4456  6097.84  78.3924
 57.4876  6012.51  77.7253
 57.5296  5962.75  77.6359
 57.5716  6001.76  77.9885
 57.6136  5835.6  76.743
 57.6556  5975.48  77.779
 57.6976  6010.24  77.8392
 57.7396  5849.38  77.1252
 57.7816  5958.17  78.2157
 57.8236  5965.78  78.0562
 57.8656  5947.58  77.5801
 57.9076  5982.05  77.8513
 57.9496  5915.4  77.7605
 57.9916  6003.11  77.8485
 58.0336  5939.13  77.715
 58.0756  6082.91  78.2665
 58.1176  5891.39  77.0351
 58.1596  5825.29  77.1824
 58.2016  5725.67  75.7731
 58.2436  5733.94  76.225
 58.2856  5752.6  76.2741
 58.3276  5695.03  76.2482
 58.3696  5764.46  76.4703
 58.4116  5669.01  75.7035
 58.4536  5738.41  76.0544
 58.4956  5739.39  76.2379
 58.5376  5795.71  76.1886
 58.5796  5655.96  75.6739
 58.6216  5730.23  75.998
 58.6636  5668.09  75.784
 58.7056  5739.34  76.1223
 58.7476  5573.03  75.4358
 58.7896  5654.33  75.6417
 58.8316  5649  75.6001
 58.8736  5757.38  76.3333
 58.9156  5581.85  75.1992
 58.9576  5623.56  75.7914
 58.9996  5746.51  75.8856
 59.0416  5724.59  76.0934
 59.0836  5764.4  76.2776
 59.1256  5574.48  75.6849
 59.1676  5623  76.3122
 59.2096  5621.09  75.6357
 59.2516  5811.85  76.4974
 59.2936  5602.61  75.4238
 59.3356  5682.43  75.8405
 59.3776  5748.5  76.4451
 59.4196  5597.19  75.3706
 59.4616  5627.18  75.437
 59.5036  5700.26  75.9578
 59.5456  5811.92  76.3992
 59.5876  5967.93  77.6078
 59.6296  5607.97  75.2976
 59.6716  5778.54  76.4909
 59.7136  5573.66  75.1113
 59.7556  5757.19  76.4712
 59.7976  5559.28  74.8979
 59.8396  5694.68  75.7019
 59.8816  5634.39  75.8273
 59.9236  5637.47  75.5033
 59.9656  5632.95  75.725
 60.0076  5490.14  74.1459
 60.0496  5710.18  76.1071
 60.0916  5847.63  76.4451
 60.1336  5669.8  76.3468
 60.1756  5491.77  76.2681
 60.1996  0.0000000E+00  0.0000000E+00