File: docs/examples/opeando_xrd/IS17_D/Data/IS17_D/17_Da_f00096.xye
# /beamlines/bl04/projects/cycle2025-II/20250340211-lsimonelli/DATA/IS17_D/17_Da_f00096.xye : mythproc.py merge -s 0.006 -l 0.5 -f /beamlines/bl04/inhouse/ff/FlatField/ff_20Nov2024rod8mm60s_17keV.raw -b True -c true -o xye /beamlines/bl04/projects/cycle2025-II/20250340211-lsimonelli/DATA/IS17_D/17_Da_00096.dat
# IsMon = [6790500, 6791938, 6791539]  IsPos = [-1.4999, -2.4884, -3.4988]
# Wave = 0.4962  CalPath /beamlines/bl04/projects/cycle2025-II/20250340211-lsimonelli/DATA/Align/Si_Pos1_25keV_f00001.cal
# Date = 2025-09-24_20:19:11 Dt = 4.8000  Bin = 0.0060  <imon> = 6791326 +/- 606 (Min/Max) 6790500 / 6791938
# icurr 252.7250  mocoIn 1.7241E-05  mocoOut 0.8090  i15 7.10783e+06  imon 6.79133e+06  i7 3.6667  iEMpd_timer 4.8000  iEMpd_1 3.5513E-08  iEMpd_2 7.9090E-08  iEMpd_3 1.8656E-08  iEMpd_4 4.7525E-08  iEMhp_timer 4.8000  iEMhp_1 4.9362E-06  iEMhp_2 -2.5784E-08  iEMhp_3 -2.4684E-08  iEMhp_4 -2.1150E-08
#      9776
 1.5856  40786.3  207.39
 1.6276  48492.6  222.254
 1.6696  54584.8  234.971
 1.7116  63116.1  253.161
 1.7536  72976.2  271.059
 1.7956  77474.7  279.986
 1.8376  73294.8  272.76
 1.8796  62228.5  249.491
 1.9216  49895  224.282
 1.9636  41845.5  204.553
 2.0056  37661.7  193.306
 2.0476  34866.7  188.034
 2.0896  33848  184.18
 2.1316  32945.4  180.834
 2.1736  31279.2  177.6
 2.2156  31775.3  177.566
 2.2576  30437.1  174.41
 2.2996  29328.3  171.832
 2.3416  29819.1  171.881
 2.3836  29371.2  170.69
 2.4256  28620.7  169.044
 2.4676  27900.3  166.667
 2.5096  27756.5  166.291
 2.5516  27205.2  168.433
 2.5936  27064.1  164.608
 2.6356  26831.1  164.588
 2.6776  26458.5  162.335
 2.7196  26142.2  161.875
 2.7616  25860.4  160.78
 2.8036  25788  160.728
 2.8456  25740.3  161.193
 2.8876  25158.9  159.238
 2.9296  24829.9  158.321
 2.9716  24814.8  157.764
 3.0136  24391.9  156.481
 3.0556  24624.9  157.619
 3.0976  24384.3  155.783
 3.1396  24098.3  155.585
 3.1816  23736.1  154.348
 3.2236  23779.3  154.482
 3.2656  23845.7  153.736
 3.3076  23670.1  154.624
 3.3496  23865.3  154.197
 3.3916  24129.2  154.873
 3.4336  24442.7  156.454
 3.4756  24930.1  157.929
 3.5176  25698.1  160.139
 3.5596  25727.1  162.667
 3.6016  26072.3  161.358
 3.6436  25086.7  159.379
 3.6856  24548.7  155.964
 3.7276  23641  154.14
 3.7696  23406.4  153.567
 3.8116  22995.3  152.101
 3.8536  23168.2  152.603
 3.8956  23124.4  152.283
 3.9376  23009.3  152.159
 3.9796  22849.6  151.137
 4.0216  23062.4  150.875
 4.0636  22875.1  151.73
 4.1056  22982.3  151.729
 4.1476  23243.7  152.907
 4.1896  23318.8  153.012
 4.2316  23433  153.211
 4.2736  24023.7  154.914
 4.3156  24278.5  155.969
 4.3576  25007.3  158.219
 4.3996  25385.5  159.668
 4.4416  25901.1  160.865
 4.4836  26294.6  162.229
 4.5256  26580.1  163.729
 4.5676  26628.8  164.134
 4.6096  27127.7  164.318
 4.6516  27624.9  165.523
 4.6936  27751.1  166.717
 4.7356  27954.4  167.155
 4.7776  27873.9  166.744
 4.8196  27414.6  166.014
 4.8616  27150.2  164.689
 4.9036  26899.8  163.675
 4.9456  26796.7  164.014
 4.9876  26300.9  162.39
 5.0296  26576.4  163.046
 5.0716  26329.5  163.076
 5.1136  26401.2  163.005
 5.1556  26870.7  163.907
 5.1976  27429.5  165.598
 5.2396  27283.3  164.849
 5.2816  27332.9  165.463
 5.3236  27490.6  165.646
 5.3656  26819.3  164.533
 5.4076  26676.3  164.243
 5.4496  26897.9  164.403
 5.4916  27099.7  164.778
 5.5336  27031.3  164.578
 5.5756  26679.6  163.533
 5.6176  27238.5  164.665
 5.6596  27272  165.755
 5.7016  27520.3  165.762
 5.7436  27542.1  166.101
 5.7856  27246.5  165.273
 5.8276  27783.2  166.608
 5.8696  28068.9  167.633
 5.9116  27766.3  167.337
 5.9536  28068.5  167.994
 5.9956  28402  168.348
 6.0376  28443.8  169.114
 6.0796  28624.8  169.481
 6.1216  28678.2  169.843
 6.1636  28877.5  169.487
 6.2056  28784.1  169.883
 6.2476  28973.2  170.311
 6.2896  29483.2  171.484
 6.3316  29089.9  170.508
 6.3736  29181.5  170.673
 6.4156  29381.4  171.152
 6.4576  29467.2  171.005
 6.4996  29779.5  172.394
 6.5416  29654.8  172.171
 6.5836  29684.9  172.49
 6.6256  29649.2  171.948
 6.6676  30128.4  172.897
 6.7096  30020  173.44
 6.7516  30410  174.213
 6.7936  30650.1  174.33
 6.8356  30780.4  174.774
 6.8776  31068.7  176.399
 6.9196  31031.9  176.698
 6.9616  31575.2  177.676
 7.0036  32018.1  178.568
 7.0456  32186.1  178.329
 7.0876  31865.6  179.131
 7.1296  31852  178.231
 7.1716  31785.3  177.579
 7.2136  31738.7  177.23
 7.2556  31812.7  177.598
 7.2976  31838.4  178.17
 7.3396  31909.4  178.576
 7.3816  31438.8  177.475
 7.4236  32016.3  178.386
 7.4656  32305.5  178.672
 7.5076  32155.6  178.391
 7.5496  32260.3  179.221
 7.5916  32128.3  178.882
 7.6336  32769.8  180.557
 7.6756  32941.2  180.882
 7.7176  33043.5  181.467
 7.7596  33067.1  182.782
 7.8016  33454.8  186.036
 7.8436  33883.4  183.89
 7.8856  34048.5  183.947
 7.9276  34637.2  185.928
 7.9696  34954.8  187.089
 8.0116  35669.7  187.527
 8.0536  36132.9  188.999
 8.0956  35915.2  189.606
 8.1376  36364.9  190.259
 8.1796  36518  191.204
 8.2216  37219.4  191.769
 8.2636  37384.4  192.435
 8.3056  37239.7  192.843
 8.3476  37974.7  194.061
 8.3896  37782.2  193.648
 8.4316  37824.7  193.921
 8.4736  38033.1  193.917
 8.5156  37812.8  193.629
 8.5576  37392.4  193.531
 8.5996  37427.3  192.49
 8.6416  37308.4  193.448
 8.6836  36991.9  192.459
 8.7256  37500.1  193.212
 8.7676  36984.6  194.789
 8.8096  36851.8  191.748
 8.8516  36917.7  191.537
 8.8936  36012.1  189.062
 8.9356  36252.1  190.029
 8.9776  36477.9  190.731
 9.0196  36187.9  189.637
 9.0616  36240.7  189.252
 9.1036  35719.8  189.08
 9.1456  36056.3  189.313
 9.1876  36137.3  189.474
 9.2296  36087.9  188.744
 9.2716  35366.7  186.918
 9.3136  35546.8  187.359
 9.3556  35631.9  187.582
 9.3976  34206.4  184.322
 9.4396  34690.9  185.509
 9.4816  34036.5  183.618
 9.5236  34272.3  184.164
 9.5656  34255.6  184.443
 9.6076  33791.6  183.71
 9.6496  33522.7  182.908
 9.6916  33830.7  183.715
 9.7336  33650.2  183.006
 9.7756  33939.3  185.047
 9.8176  33122.8  182.304
 9.8596  32931.3  180.231
 9.9016  32374.8  178.694
 9.9436  32271.8  178.319
 9.9856  32015.9  177.835
 10.0276  31494.3  177.486
 10.0696  31943.3  177.786
 10.1116  30931.8  175.208
 10.1536  30664.3  174.614
 10.1956  30327.6  173.255
 10.2376  29927.8  171.615
 10.2796  30398.4  173.089
 10.3216  29771  171.558
 10.3636  29541.3  170.924
 10.4056  29367  170.82
 10.4476  29422.8  170.607
 10.4896  29291.1  169.683
 10.5316  28704.5  168.67
 10.5736  28722.1  169.14
 10.6156  28370.2  167.866
 10.6576  28484.7  166.776
 10.6996  28377.1  167.116
 10.7416  27947.5  166.096
 10.7836  28024.6  167.009
 10.8256  27471.7  165.782
 10.8676  27762.8  166.192
 10.9096  27344.6  164.978
 10.9516  26955.3  162.735
 10.9936  27172.2  163.593
 11.0356  26947.2  163.541
 11.0776  26944.8  162.847
 11.1196  26293  161.593
 11.1616  26226.9  161.087
 11.2036  26333.6  161.277
 11.2456  26233.2  161.669
 11.2876  26109.2  161.019
 11.3296  25977.7  160.519
 11.3716  26284.3  161.153
 11.4136  26181.3  161.73
 11.4556  26525.6  162.457
 11.4976  26585.6  161.611
 11.5396  27052.3  163.188
 11.5816  27208  164.126
 11.6236  26735.3  162.912
 11.6656  26287.2  160.697
 11.7076  25695.4  159.716
 11.7496  25359.6  162.575
 11.7916  25205.5  157.451
 11.8336  25143.4  158.146
 11.8756  24637.5  156.086
 11.9176  24897.3  156.552
 11.9596  24640.2  155.939
 12.0016  24509.5  156.316
 12.0436  24397.2  155.383
 12.0856  24274.9  155.517
 12.1276  24207.4  155.219
 12.1696  24376.4  154.895
 12.2116  24408.6  154.988
 12.2536  24287  155.437
 12.2956  24247  154.641
 12.3376  24051.3  154.224
 12.3796  24147.1  154.989
 12.4216  24166.8  154.271
 12.4636  23753.1  153.851
 12.5056  24063.7  154.133
 12.5476  24211.5  154.133
 12.5896  24064.2  154.294
 12.6316  23817  153.662
 12.6736  23908.8  154.436
 12.7156  23778  153.875
 12.7576  23779.2  154.123
 12.7996  23987.8  153.445
 12.8416  23766  153.78
 12.8836  24260.1  155.198
 12.9256  24291.7  154.318
 12.9676  24605.7  155.736
 13.0096  24149.8  155.377
 13.0516  24489.1  155.504
 13.0936  24470.6  155.841
 13.1356  24856.4  156.05
 13.1776  24460.2  155.787
 13.2196  24666.1  156.102
 13.2616  24568.1  156.1
 13.3036  24744.1  156.631
 13.3456  24630.6  156.624
 13.3876  24617  155.872
 13.4296  24449.9  155.491
 13.4716  24603.4  155.584
 13.5136  24719.5  156.114
 13.5556  24531.9  156.13
 13.5976  24754.9  156.988
 13.6396  24722  156.252
 13.6816  24469.9  155.943
 13.7236  25343.3  158.345
 13.7656  24261.8  155.457
 13.8076  24496.1  154.99
 13.8496  24325  155.05
 13.8916  24348.7  156.128
 13.9336  24299.2  155.196
 13.9756  24132.1  154.007
 14.0176  24166.9  154.805
 14.0596  24004.3  154.252
 14.1016  23642.1  153.469
 14.1436  23670.9  152.701
 14.1856  23284.6  151.74
 14.2276  23110.3  151.66
 14.2696  23221.6  151.862
 14.3116  22928.1  150.798
 14.3536  22630.3  149.991
 14.3956  22722.1  150.03
 14.4376  22826.7  150.153
 14.4796  22636.9  149.515
 14.5216  22192.9  148.84
 14.5636  22331.9  148.869
 14.6056  22340.8  148.477
 14.6476  22314.1  147.616
 14.6896  21932.2  146.89
 14.7316  21654  146.984
 14.7736  21626.7  146.036
 14.8156  21305.3  144.976
 14.8576  21245.4  144.627
 14.8996  21052.9  145.181
 14.9416  20274.7  142.475
 14.9836  20525.6  143.311
 15.0256  20566.3  142.375
 15.0676  20258.2  141.621
 15.1096  20306.4  141.525
 15.1516  19985.6  140.964
 15.1936  19958.6  140.293
 15.2356  19576.6  139.222
 15.2776  19773.4  139.5
 15.3196  19208.7  138.495
 15.3616  19172.3  138.122
 15.4036  19013  137.405
 15.4456  19390.5  138.412
 15.4876  18989.5  136.652
 15.5296  18835.7  136.382
 15.5716  18849.4  136.033
 15.6136  18446.5  134.893
 15.6556  18725.4  135.143
 15.6976  18517.4  134.688
 15.7396  18326.6  134.384
 15.7816  18234.5  133.556
 15.8236  18013.8  133.447
 15.8656  17990.2  133.146
 15.9076  17661.6  131.753
 15.9496  17646.4  134.49
 15.9916  17808.3  135.535
 16.0336  17354.9  130.708
 16.0756  17496.9  131.55
 16.1176  17182.2  130.43
 16.1596  16945.7  130.701
 16.2016  17127.6  130.153
 16.2436  16878.6  129.586
 16.2856  17107.4  130.001
 16.3276  16594.2  128.453
 16.3696  16833.5  129.197
 16.4116  16517.5  128.436
 16.4536  16860.1  129.543
 16.4956  16684.3  128.602
 16.5376  16587.2  128.417
 16.5796  16448.6  127.241
 16.6216  16516.5  127.808
 16.6636  16480.2  127.823
 16.7056  16376.8  127.288
 16.7476  16594.7  127.656
 16.7896  16292.4  127.238
 16.8316  16393.9  127.586
 16.8736  16281.5  127.421
 16.9156  16265.1  127.687
 16.9576  16239.1  128.385
 16.9996  16368.8  129.384
 17.0416  16359.3  127.691
 17.0836  16249.2  127.025
 17.1256  16066  126.319
 17.1676  16186.7  126.785
 17.2096  15901.6  125.54
 17.2516  15794.7  124.897
 17.2936  15926.6  125.741
 17.3356  15416.8  123.714
 17.3776  15427.3  123.954
 17.4196  15441.2  123.704
 17.4616  15470.5  123.741
 17.5036  15191.1  122.982
 17.5456  15139.7  123.413
 17.5876  15090.1  122.26
 17.6296  15245.4  122.708
 17.6716  15018.4  122.357
 17.7136  14799.9  121.608
 17.7556  14871.6  122.193
 17.7976  14942.6  122.227
 17.8396  14889.6  121.507
 17.8816  14794  121.656
 17.9236  14721  121.17
 17.9656  14851.5  122.244
 18.0076  14676.8  121.104
 18.0496  14789.7  120.704
 18.0916  14805.1  121.306
 18.1336  14856.6  121.611
 18.1756  14914.7  121.374
 18.2176  14545.4  120.097
 18.2596  14658.7  120.294
 18.3016  14931.3  121.648
 18.3436  14778.9  121.044
 18.3856  14475.5  119.932
 18.4276  14573.8  120.017
 18.4696  14625.2  120.324
 18.5116  14592.5  120.479
 18.5536  14687.9  121.233
 18.5956  14408.5  119.624
 18.6376  14384.2  119.93
 18.6796  14279.2  118.81
 18.7216  14582.4  120.561
 18.7636  14265.9  119.244
 18.8056  14239.9  119.068
 18.8476  14131.6  119.237
 18.8896  14313.6  119.337
 18.9316  14325.4  119.371
 18.9736  14154.9  118.355
 19.0156  14150.1  118.738
 19.0576  14221.1  117.901
 19.0996  14249.7  118.73
 19.1416  14031.7  118.213
 19.1836  14092.9  118.067
 19.2256  13971.8  117.778
 19.2676  14100.8  118.409
 19.3096  14183  119.004
 19.3516  14022.6  118.284
 19.3936  13996.7  118.072
 19.4356  14148  118.586
 19.4776  13988.4  118.007
 19.5196  14103.9  118.341
 19.5616  13990  118.123
 19.6036  14025.6  117.772
 19.6456  14112.8  118.255
 19.6876  14117  117.918
 19.7296  14042.4  118.062
 19.7716  13991.2  118.009
 19.8136  14098.2  118.672
 19.8556  14192.1  118.541
 19.8976  14082  118.144
 19.9396  14441.3  119.215
 19.9816  14494.6  119.679
 20.0236  14578.7  120.244
 20.0656  14873.5  121.448
 20.1076  14503.9  120.403
 20.1496  14542.2  120.566
 20.1916  14276.2  118.969
 20.2336  14272.7  118.89
 20.2756  13884  117.688
 20.3176  13797.2  117.066
 20.3596  13740.3  116.795
 20.4016  13682.9  116.361
 20.4436  13847.1  117.616
 20.4856  13509.9  115.959
 20.5276  13388.7  115.9
 20.5696  13532.9  115.987
 20.6116  13469.3  115.993
 20.6536  13550.9  115.843
 20.6956  13341.9  115.068
 20.7376  13369.7  115.425
 20.7796  13252.8  114.606
 20.8216  13455.9  115.189
 20.8636  13141.2  114.199
 20.9056  13152.1  114.195
 20.9476  13130.6  113.942
 20.9896  13358.8  114.795
 21.0316  13432.8  115.007
 21.0736  13190.5  114.485
 21.1156  13174.8  114.576
 21.1576  13188.8  114.685
 21.1996  13083  114.209
 21.2416  13016.2  113.742
 21.2836  13128.4  114.199
 21.3256  12942  113.471
 21.3676  13214.3  114.203
 21.4096  12968.7  113.447
 21.4516  12897.3  113.013
 21.4936  12843.6  113.024
 21.5356  12843.2  112.965
 21.5776  13013.8  113.55
 21.6196  12873.8  112.975
 21.6616  12834.6  112.889
 21.7036  12901.8  112.969
 21.7456  12839.9  112.767
 21.7876  12909.1  112.824
 21.8296  12829.8  112.333
 21.8716  12759.7  112.257
 21.9136  12949.2  113.288
 21.9556  12640.7  111.607
 21.9976  12829.3  112.45
 22.0396  12657.6  111.946
 22.0816  12780.6  113.034
 22.1236  12880.7  112.919
 22.1656  12877.6  113.045
 22.2076  12918.5  112.687
 22.2496  12865  112.48
 22.2916  12868  112.369
 22.3336  12851.4  113.03
 22.3756  12782.1  112.448
 22.4176  12770.2  112.247
 22.4596  12555.6  111.892
 22.5016  12735.7  112.172
 22.5436  12981  113.137
 22.5856  12743.3  112.34
 22.6276  12621.5  111.941
 22.6696  12526.3  111.87
 22.7116  12733.7  112.299
 22.7536  12649.6  111.906
 22.7956  12720.2  111.542
 22.8376  12680.3  111.898
 22.8796  12599.7  111.337
 22.9216  12761.4  112.603
 22.9636  12648.5  111.254
 23.0056  12796.7  112.04
 23.0476  12798  112.621
 23.0896  13085.3  113.244
 23.1316  12698.9  111.993
 23.1736  12658.8  114.78
 23.2156  12759.4  112.596
 23.2576  12769.9  112.77
 23.2996  12702.4  112.262
 23.3416  12699.4  112.768
 23.3836  12665.5  111.852
 23.4256  12724.2  112.221
 23.4676  12606.9  111.405
 23.5096  12800.4  112.936
 23.5516  12545.7  111.089
 23.5936  12658.3  112.488
 23.6356  12694.7  112.325
 23.6776  12595.8  112.092
 23.7196  12438.7  110.968
 23.7616  12681.7  111.968
 23.8036  12636.5  111.803
 23.8456  12700.4  111.659
 23.8876  12347.7  110.45
 23.9296  12451  111.399
 23.9716  12591.3  111.223
 24.0136  12609.6  112.203
 24.0556  12279  110.458
 24.0976  12163  109.743
 24.1396  12240.4  112.752
 24.1816  12303.9  111.451
 24.2236  12114.3  110.197
 24.2656  12049.4  109.371
 24.3076  12167.6  110.154
 24.3496  12172.8  110.076
 24.3916  11940.1  109.07
 24.4336  11930.3  109.23
 24.4756  11855.2  108.759
 24.5176  11809.3  108.196
 24.5596  11696.3  107.805
 24.6016  11597.8  107.634
 24.6436  11655.3  107.398
 24.6856  11766.5  107.662
 24.7276  11618.5  107.299
 24.7696  11647.6  107.549
 24.8116  11634.6  107.67
 24.8536  11461.4  106.859
 24.8956  11406.3  106.344
 24.9376  11292.1  105.749
 24.9796  11273.6  106.011
 25.0216  11156.6  105.571
 25.0636  11473  106.703
 25.1056  11196.6  106.12
 25.1476  11358.1  108.561
 25.1896  11390.5  107.175
 25.2316  11379.9  106.392
 25.2736  11318.8  105.761
 25.3156  11327.9  105.879
 25.3576  11206.8  105.73
 25.3996  11220.3  105.777
 25.4416  11278.3  106.032
 25.4836  11075.7  105.601
 25.5256  11173.9  105.429
 25.5676  11158.2  105.084
 25.6096  11012.6  104.971
 25.6516  11195.3  105.335
 25.6936  11030.4  104.867
 25.7356  10997.2  104.844
 25.7776  11120  105.034
 25.8196  10952.9  104.478
 25.8616  11097.8  105.087
 25.9036  11031.9  104.246
 25.9456  10977.6  104.577
 25.9876  10837.7  103.979
 26.0296  10993.1  104.232
 26.0716  10922.2  104.318
 26.1136  10991.1  104.588
 26.1556  11064.4  104.315
 26.1976  10940  104.656
 26.2396  10924.3  103.734
 26.2816  11020.1  104.797
 26.3236  10910.9  104.44
 26.3656  10853.6  103.888
 26.4076  11061.1  105.092
 26.4496  11477.7  106.513
 26.4916  11031.7  104.441
 26.5336  10988.3  104.564
 26.5756  11129.7  105.11
 26.6176  10796.6  103.56
 26.6596  10933  104.522
 26.7016  10771.8  103.503
 26.7436  10703.5  103.311
 26.7856  10663.2  103.095
 26.8276  10646.8  102.977
 26.8696  10772.3  103.451
 26.9116  10642.5  102.764
 26.9536  10546  102.349
 26.9956  10595  102.615
 27.0376  10488.9  102.317
 27.0796  10525.2  102.222
 27.1216  10423.7  101.807
 27.1636  10396.3  101.838
 27.2056  10562.2  102.527
 27.2476  10457.6  102.023
 27.2896  10511.3  102.394
 27.3316  10436  101.734
 27.3736  10487.5  102.254
 27.4156  10253.4  100.951
 27.4576  10284.7  101.337
 27.4996  10346.5  101.232
 27.5416  10292.3  101.289
 27.5836  10251.7  100.907
 27.6256  10729  103.374
 27.6676  10529.3  102.45
 27.7096  10264.8  101.02
 27.7516  10312.2  101.402
 27.7936  10199.5  101.021
 27.8356  10338.6  101.327
 27.8776  10203.6  100.705
 27.9196  10043.5  99.7631
 27.9616  10205.6  100.753
 28.0036  10159.7  100.497
 28.0456  10138.5  100.529
 28.0876  10058.1  100.221
 28.1296  10094.7  100.245
 28.1716  10121.1  100.387
 28.2136  10148.3  100.485
 28.2556  10026.4  99.9918
 28.2976  10018.1  99.9442
 28.3396  10034.5  99.7833
 28.3816  10029  99.7778
 28.4236  10036.9  99.9682
 28.4656  9879.84  99.2186
 28.5076  9930.75  99.1115
 28.5496  9911.82  99.2807
 28.5916  9979.51  99.4272
 28.6336  9798.91  98.8617
 28.6756  10034.6  99.2403
 28.7176  9854.48  98.8937
 28.7596  9822.48  98.6321
 28.8016  9859  98.8491
 28.8436  9773.9  98.661
 28.8856  9887.97  99.0851
 28.9276  9832.98  99.0498
 28.9696  9733.47  98.2132
 29.0116  9879.39  99.133
 29.0536  9651.32  98.1828
 29.0956  9725.2  98.2764
 29.1376  9782.32  98.5259
 29.1796  9816.84  98.7452
 29.2216  9722.67  98.1116
 29.2636  9754.96  98.3524
 29.3056  9768.15  98.2071
 29.3476  9769.51  98.7386
 29.3896  9777.77  98.8779
 29.4316  9763.36  98.1418
 29.4736  9734.38  98.0604
 29.5156  9768  98.1493
 29.5576  9604.1  98.0601
 29.5996  9744.97  98.0304
 29.6416  9647.03  97.6555
 29.6836  9738.24  98.045
 29.7256  9729.78  98.5705
 29.7676  9661.47  97.8769
 29.8096  9810.33  98.5775
 29.8516  9503.62  97.3539
 29.8936  9759.79  98.7455
 29.9356  9773.87  98.5775
 29.9776  9500.73  97.3439
 30.0196  9600.65  97.2387
 30.0616  9634.37  97.7849
 30.1036  9542.73  97.1429
 30.1456  9500.75  97.1655
 30.1876  9535.67  97.3206
 30.2296  9470.96  96.9381
 30.2716  9713.92  97.8082
 30.3136  9633.54  98.2584
 30.3556  9613.9  98.1786
 30.3976  9522.98  99.2359
 30.4396  9621.75  97.0778
 30.4816  9543.64  96.28
 30.5236  9452.9  95.8427
 30.5656  9474.07  96.5964
 30.6076  9427.57  95.7983
 30.6496  9478.57  96.4347
 30.6916  9435.79  96.312
 30.7336  9390.26  96.2304
 30.7756  9356.58  96.1475
 30.8176  9382.74  96.2008
 30.8596  9571.98  96.93
 30.9016  9460.31  96.709
 30.9436  9642.26  97.3858
 30.9856  9557.07  97.064
 31.0276  9336.15  95.5438
 31.0696  9361.38  96.2471
 31.1116  9281.05  95.8103
 31.1536  9366.87  96.136
 31.1956  9413.35  96.4622
 31.2376  9139.52  95.0578
 31.2796  9372.68  95.7952
 31.3216  9347.41  95.6149
 31.3636  9376.82  96.4547
 31.4056  9265.05  97.2019
 31.4476  9269.74  95.1029
 31.4896  9236.57  95.4381
 31.5316  9314.13  95.2349
 31.5736  9314.02  95.0622
 31.6156  9208.01  94.5346
 31.6576  9393.02  95.5759
 31.6996  9275.77  94.6505
 31.7416  9072.37  94.6447
 31.7836  9309.33  94.9009
 31.8256  9060.29  93.8906
 31.8676  9285.33  95.0462
 31.9096  9113.78  94.5196
 31.9516  9072.14  94.4636
 31.9936  9136.58  94.621
 32.0356  9062.9  94.3072
 32.0776  9142.6  94.6056
 32.1196  9070.46  94.3169
 32.1616  9269.24  94.8021
 32.2036  9014.61  93.9986
 32.2456  9113.41  94.8961
 32.2876  9064.54  94.1389
 32.3296  9019.46  93.8692
 32.3716  9030.92  94.0276
 32.4136  9112.97  94.6744
 32.4556  9253  94.769
 32.4976  9181.44  94.3068
 32.5396  9057.67  93.7456
 32.5816  8966.99  93.3941
 32.6236  9137.44  94.3483
 32.6656  9121.72  94.8111
 32.7076  9057.64  94.1313
 32.7496  8957.72  93.2734
 32.7916  8975.26  93.3257
 32.8336  9026.76  93.6936
 32.8756  9073.01  93.6574
 32.9176  8863.28  93.0455
 32.9596  8929.95  93.4695
 33.0016  9024.54  93.7598
 33.0436  9069.99  94.1644
 33.0856  8881.32  93.2446
 33.1276  8849.02  92.8174
 33.1696  8934  93.1024
 33.2116  8987.12  93.6058
 33.2536  8938.55  93.3495
 33.2956  8898.71  93.2302
 33.3376  8869.11  92.8146
 33.3796  9022.33  93.8234
 33.4216  9018  93.3979
 33.4636  9006.44  93.4765
 33.5056  8773.77  92.5047
 33.5476  8787.74  92.571
 33.5896  8957.63  93.2276
 33.6316  8829.6  92.8797
 33.6736  8716.83  92.5289
 33.7156  8894.64  93.5118
 33.7576  8901.98  93.1736
 33.7996  8978.39  93.341
 33.8416  8645.76  91.768
 33.8836  8829.85  92.5232
 33.9256  8715.29  91.9881
 33.9676  8844.11  92.55
 34.0096  8642.67  91.8097
 34.0516  8593.55  91.1883
 34.0936  8640.9  91.7008
 34.1356  8850.83  92.5479
 34.1776  8762.38  92.0969
 34.2196  8573.97  91.284
 34.2616  8591.02  91.5083
 34.3036  8641.3  92.0256
 34.3456  8627.12  91.7005
 34.3876  8741.52  92.2757
 34.4296  8591.51  91.1712
 34.4716  8725.93  92.0288
 34.5136  8692.69  92.0605
 34.5556  8605.56  91.851
 34.5976  8710.33  92.2101
 34.6396  8567.93  91.1656
 34.6816  8567.72  91.274
 34.7236  8625.11  91.3666
 34.7656  8619.41  91.5292
 34.8076  8555.02  91.5071
 34.8496  8601.79  91.6132
 34.8916  8601.8  91.4902
 34.9336  8654.3  91.7307
 34.9756  8602  91.3768
 35.0176  8739.68  92.6424
 35.0596  8409.63  90.7012
 35.1016  8556.63  91.2563
 35.1436  8648.29  91.4288
 35.1856  8589.28  91.2448
 35.2276  8586.87  91.4063
 35.2696  8606.66  91.7075
 35.3116  8548.53  91.4881
 35.3536  8430.96  90.5687
 35.3956  8478.33  90.5286
 35.4376  8436.57  90.8595
 35.4796  8530.14  91.4276
 35.5216  8385.85  90.6042
 35.5636  8180.62  90.2264
 35.6056  8422.1  90.5652
 35.6476  8395.75  90.3208
 35.6896  8564.22  91.3146
 35.7316  8379.47  90.2966
 35.7736  8397.64  90.5914
 35.8156  8316.56  90.1486
 35.8576  8413.94  90.9263
 35.8996  8579.66  91.7797
 35.9416  8561.09  91.1533
 35.9836  8347.54  90.3897
 36.0256  8419.23  90.7974
 36.0676  8451.88  90.7328
 36.1096  8356.53  90.3544
 36.1516  8384.46  90.3948
 36.1936  8263.2  89.5898
 36.2356  8480.48  91.4021
 36.2776  8321.6  90.0263
 36.3196  8359.07  89.8985
 36.3616  8361.06  90.0404
 36.4036  8333.36  89.9493
 36.4456  8466.79  90.8817
 36.4876  8240.39  89.5856
 36.5296  8280.2  89.8529
 36.5716  8301.6  90.749
 36.6136  8533.31  90.7616
 36.6556  8425.59  90.3925
 36.6976  8423  90.8789
 36.7396  8334.22  90.1283
 36.7816  8309.7  90.3704
 36.8236  8339.13  90.4542
 36.8656  8168.46  89.5936
 36.9076  8349.65  90.4581
 36.9496  8328.92  90.3371
 36.9916  8205.55  89.2948
 37.0336  8392.44  90.6232
 37.0756  8381.06  90.352
 37.1176  8124.68  89.2271
 37.1596  8263.22  89.9871
 37.2016  8179.48  89.7602
 37.2436  8217.66  89.2861
 37.2856  8229.36  89.5982
 37.3276  8181.49  88.6929
 37.3696  8183.28  89.5908
 37.4116  8338.01  90.3362
 37.4536  8290.94  89.9496
 37.4956  8131.94  89.1243
 37.5376  8249.79  91.328
 37.5796  8094.02  90.4284
 37.6216  8146.14  88.9862
 37.6636  8046.06  88.3304
 37.7056  8222.81  89.4908
 37.7476  8066.88  88.1752
 37.7896  8103.63  88.8789
 37.8316  7806.4  87.3989
 37.8736  8128.43  88.7093
 37.9156  8053.03  88.2978
 37.9576  8121.51  88.5606
 37.9996  7992.71  87.5753
 38.0416  8001.5  88.4321
 38.0836  8177.53  89.3011
 38.1256  8058.36  88.5913
 38.1676  7980.94  88.3213
 38.2096  8072.84  88.4501
 38.2516  8096.32  88.7793
 38.2936  8018.94  88.1564
 38.3356  8125.19  88.6465
 38.3776  7935.31  87.8862
 38.4196  8062.9  88.4422
 38.4616  8034.35  88.5219
 38.5036  8157.91  89.0321
 38.5456  7930.66  88.6256
 38.5876  7987.62  88.9748
 38.6296  7892.29  87.4222
 38.6716  7983.96  87.7191
 38.7136  7800.86  86.6456
 38.7556  7806.09  87.1747
 38.7976  7927.06  87.7881
 38.8396  7872.51  87.9416
 38.8816  7907.99  87.9102
 38.9236  7721.15  86.6884
 38.9656  8055.86  88.4604
 39.0076  7905.94  87.0396
 39.0496  7929.33  87.7111
 39.0916  7945.85  87.4428
 39.1336  7814.89  87.1369
 39.1756  7891.26  87.6275
 39.2176  7832.24  87.8252
 39.2596  7876.95  87.9989
 39.3016  7902.2  87.684
 39.3436  7785.31  87.4825
 39.3856  7790.57  86.9668
 39.4276  7913.65  88.1437
 39.4696  7999.64  88.2482
 39.5116  7755.36  87.3971
 39.5536  8011.63  89.2608
 39.5956  8020  88.3982
 39.6376  7992.89  88.2503
 39.6796  7887.85  87.4155
 39.7216  7959.46  87.9099
 39.7636  8032.19  88.8835
 39.8056  8008.75  88.5319
 39.8476  7876.53  88.0525
 39.8896  7827.46  87.4007
 39.9316  7881.52  87.962
 39.9736  8059.94  88.5178
 40.0156  7880.75  87.353
 40.0576  7916.51  87.913
 40.0996  7975.8  87.4259
 40.1416  7891.07  87.7517
 40.1836  7972.18  88.0847
 40.2256  8039.93  88.506
 40.2676  7887.63  87.7723
 40.3096  8026.27  88.4639
 40.3516  8059.99  88.7567
 40.3936  8030.28  88.1517
 40.4356  7992.91  88.1411
 40.4776  7967.8  88.4148
 40.5196  8029.9  88.8871
 40.5616  8036.93  88.5644
 40.6036  7890.83  88.0072
 40.6456  7989.96  88.1688
 40.6876  8058.92  88.5381
 40.7296  8051.8  88.6354
 40.7716  7949.21  88.1945
 40.8136  7929.02  88.0272
 40.8556  8006.77  88.5933
 40.8976  8060.41  88.8078
 40.9396  7868.64  88.0957
 40.9816  7999.59  88.1079
 41.0236  7938.28  87.551
 41.0656  8041.46  88.6604
 41.1076  8086.54  88.6771
 41.1496  7971  87.9503
 41.1916  8037.64  88.6418
 41.2336  7956.97  88.1858
 41.2756  7992.2  87.9846
 41.3176  7949.1  88.3601
 41.3596  7941.7  88.0491
 41.4016  7914.23  88.1575
 41.4436  8039  88.6335
 41.4856  7993.47  88.5482
 41.5276  7940.54  88.2722
 41.5696  7932.68  87.862
 41.6116  7879.52  87.9573
 41.6536  7972.04  88.3308
 41.6956  7947.16  88.252
 41.7376  7890.77  87.9636
 41.7796  7848.56  87.6039
 41.8216  7979.69  88.5762
 41.8636  7932.04  88.2504
 41.9056  7742.32  86.9782
 41.9476  7977.34  88.5189
 41.9896  7906.53  87.8013
 42.0316  8088.63  88.8861
 42.0736  7971.14  88.3488
 42.1156  7837.02  87.4425
 42.1576  7892.5  87.8477
 42.1996  7874.54  87.8903
 42.2416  7867.14  87.4353
 42.2836  7930.29  87.899
 42.3256  7765.37  87.0884
 42.3676  7889.17  87.5871
 42.4096  7945.31  87.8594
 42.4516  7834.87  87.3365
 42.4936  7832.54  87.3939
 42.5356  7829.62  87.5074
 42.5776  7987.32  88.3219
 42.6196  8030.24  88.6188
 42.6616  7701.35  86.9509
 42.7036  7861.6  87.2357
 42.7456  7829.34  87.4146
 42.7876  7802.91  87.3689
 42.8296  7822.19  87.3071
 42.8716  7750.85  87.0678
 42.9136  7817.43  87.2278
 42.9556  7911.99  87.8861
 42.9976  7836.28  87.429
 43.0396  7616.29  85.9298
 43.0816  7788.39  87.2743
 43.1236  7675.38  86.6964
 43.1656  7688.92  86.6038
 43.2076  7753.72  87.0743
 43.2496  7772.82  86.9863
 43.2916  7731.54  87.1249
 43.3336  7762.38  87.1372
 43.3756  7764.47  86.9033
 43.4176  7699.45  86.6214
 43.4596  7780.49  86.9299
 43.5016  7595.67  86.2932
 43.5436  7744.21  87.0349
 43.5856  7640.46  86.4769
 43.6276  7716.83  86.7963
 43.6696  7667.15  86.7794
 43.7116  7808.82  87.0706
 43.7536  7714.61  87.0261
 43.7956  7625.52  87.7103
 43.8376  7654.54  86.4233
 43.8796  7586.25  86.1202
 43.9216  7641.26  86.3515
 43.9636  7689.49  86.7332
 44.0056  7590.3  86.4003
 44.0476  7639.51  86.3062
 44.0896  7605.5  86.4614
 44.1316  7730.16  86.6866
 44.1736  7676.03  86.5084
 44.2156  7642.11  86.1658
 44.2576  7559.77  86.0296
 44.2996  7616.82  86.324
 44.3416  7452.24  85.1494
 44.3836  7571.83  86.1469
 44.4256  7384.63  84.7349
 44.4676  7433.55  85.1682
 44.5096  7527.09  85.8476
 44.5516  7550.05  85.9358
 44.5936  7382.36  84.9333
 44.6356  7584.14  85.8272
 44.6776  7462.1  85.4488
 44.7196  7518.2  86.0778
 44.7616  7508.75  87.3497
 44.8036  7419.12  85.2529
 44.8456  7424.47  85.4959
 44.8876  7472.78  85.6243
 44.9296  7558.04  85.5584
 44.9716  7442.76  85.3334
 45.0136  7430.5  85.1977
 45.0556  7505.45  85.6013
 45.0976  7347.4  84.854
 45.1396  7484.19  85.4059
 45.1816  7343.43  84.5355
 45.2236  7511.13  85.3938
 45.2656  7406.5  85.3001
 45.3076  7372.51  84.8875
 45.3496  7396.36  85.3256
 45.3916  7300.58  85.0354
 45.4336  7343.06  85.1284
 45.4756  7361.45  85.0904
 45.5176  7428.87  85.098
 45.5596  7431.58  85.2255
 45.6016  7290.08  84.8347
 45.6436  7280.68  83.971
 45.6856  7260.16  84.4987
 45.7276  7222.75  85.5839
 45.7696  7361.81  86.0691
 45.8116  7390.98  85.6817
 45.8536  7333.99  85.245
 45.8956  7403.25  84.9994
 45.9376  7384.5  84.3577
 45.9796  7324.08  84.6886
 46.0216  7222.41  84.4406
 46.0636  7468.16  85.0096
 46.1056  7359.99  84.3755
 46.1476  7327.62  84.7788
 46.1896  7314.53  84.8534
 46.2316  7294.1  84.6059
 46.2736  7128.98  84.0012
 46.3156  7304.68  84.6199
 46.3576  7262.02  84.5736
 46.3996  7272.94  84.7981
 46.4416  7273.54  84.3803
 46.4836  7205.45  84.3369
 46.5256  7247.6  84.5203
 46.5676  7194.43  84.3232
 46.6096  7229.26  84.4518
 46.6516  7380.27  84.3841
 46.6936  7339.38  84.6385
 46.7356  7364.59  84.8914
 46.7776  7199.19  84.7652
 46.8196  7179.03  84.2485
 46.8616  7039.27  83.3706
 46.9036  7084.27  83.3
 46.9456  7099.16  83.0293
 46.9876  7148.25  83.4006
 47.0296  7186.54  84.309
 47.0716  7046.56  83.3068
 47.1136  7150.38  83.5955
 47.1556  7184.93  83.6704
 47.1976  7197.56  83.8184
 47.2396  7241.41  84.4567
 47.2816  7086.21  83.2699
 47.3236  7165.42  84.1001
 47.3656  7107.65  83.6951
 47.4076  7076.08  83.3108
 47.4496  7102.05  83.5551
 47.4916  6998.49  83.1384
 47.5336  7112.06  83.6228
 47.5756  7170.97  84.0833
 47.6176  7046.67  83.2584
 47.6596  7057.04  83.0297
 47.7016  7170.67  83.5194
 47.7436  7125.38  83.5825
 47.7856  7134.19  83.6663
 47.8276  7072.12  83.3342
 47.8696  7039.24  83.2302
 47.9116  7146.64  83.578
 47.9536  7150.24  83.5496
 47.9956  7019.04  83.4767
 48.0376  6946.06  82.8181
 48.0796  7145.96  84.1301
 48.1216  7053.72  83.4082
 48.1636  7204.7  83.8708
 48.2056  7167.51  83.9165
 48.2476  7092.67  83.7837
 48.2896  6985.03  83.0577
 48.3316  6945.31  82.7644
 48.3736  7043.46  83.3695
 48.4156  7039.46  83.2017
 48.4576  6942.37  82.9104
 48.4996  6985.69  82.6319
 48.5416  7049.11  83.3294
 48.5836  7082.76  83.2085
 48.6256  7079.71  83.408
 48.6676  6963.98  83.2189
 48.7096  7030.5  82.8944
 48.7516  6956.27  82.5994
 48.7936  6833.01  81.9231
 48.8356  6954.37  82.6966
 48.8776  6951.3  83.2427
 48.9196  6995.97  82.8827
 48.9616  6925.88  82.8524
 49.0036  6947.29  83.3186
 49.0456  6876.05  82.8677
 49.0876  6933.15  82.7533
 49.1296  6840.57  82.3582
 49.1716  6805.55  82.0197
 49.2136  6958.03  82.8561
 49.2556  6961.58  82.9139
 49.2976  6962.97  82.9928
 49.3396  6872.8  82.5149
 49.3816  7002.14  82.7178
 49.4236  6864.71  82.3191
 49.4656  6766.86  81.7494
 49.5076  6951.18  82.6044
 49.5496  6900.43  82.3659
 49.5916  6911.98  82.35
 49.6336  6849.05  82.1812
 49.6756  6891.47  82.6589
 49.7176  6819.49  82.1717
 49.7596  6819.14  81.9317
 49.8016  6848.11  82.0341
 49.8436  6772.21  81.8676
 49.8856  6800.98  82.0512
 49.9276  6728.41  81.7088
 49.9696  6829.23  82.3022
 50.0116  6821.6  82.3867
 50.0536  6769.09  82.0198
 50.0956  6721.76  81.7967
 50.1376  6749.21  81.6709
 50.1796  6701.41  81.6399
 50.2216  6731.08  81.8263
 50.2636  6712.62  81.3319
 50.3056  6650.76  81.1267
 50.3476  6817.2  82.1529
 50.3896  6713.8  81.5028
 50.4316  6741.59  81.5095
 50.4736  6738.26  81.7029
 50.5156  6743.69  81.7249
 50.5576  6813.29  81.9092
 50.5996  6739.56  81.7437
 50.6416  6720.28  81.5589
 50.6836  6738.27  81.7244
 50.7256  6777.57  81.8951
 50.7676  6778.23  82.211
 50.8096  6721.3  81.4032
 50.8516  6663.55  81.4666
 50.8936  6691.9  81.4243
 50.9356  6670.46  81.3955
 50.9776  6672.54  81.5605
 51.0196  6556.06  80.9701
 51.0616  6599.76  80.5736
 51.1036  6777.97  82.0102
 51.1456  6669.7  81.2653
 51.1876  6716  80.8913
 51.2296  6718.74  81.5376
 51.2716  6602.51  80.5436
 51.3136  6564.23  80.76
 51.3556  6593.99  80.5728
 51.3976  6643.3  81.0225
 51.4396  6405.89  79.8575
 51.4816  6569.56  80.7281
 51.5236  6532.31  80.5794
 51.5656  6652.49  80.9263
 51.6076  6630.39  80.8716
 51.6496  6599.62  80.8757
 51.6916  6539.4  80.856
 51.7336  6603.09  81.3399
 51.7756  6532.56  80.6066
 51.8176  6558.05  80.8683
 51.8596  6615.06  81.2334
 51.9016  6865.65  82.3589
 51.9436  6517.43  81.6799
 51.9856  6463.09  81.7688
 52.0276  6491.11  80.48
 52.0696  6561.14  80.9732
 52.1116  6567.57  81.1329
 52.1536  6499.52  80.599
 52.1956  6529.08  80.2491
 52.2376  6609.92  80.9178
 52.2796  6466.92  79.8445
 52.3216  6486.83  80.6603
 52.3636  6533.16  80.5293
 52.4056  6444.64  79.8399
 52.4476  6458.83  80.2881
 52.4896  6402.06  79.988
 52.5316  6458.61  80.3826
 52.5736  6438.93  79.9896
 52.6156  6448.75  80.4257
 52.6576  6460.14  79.9449
 52.6996  6420.88  80.6695
 52.7416  6407.48  80.4315
 52.7836  6389.53  80.1819
 52.8256  6530.48  80.3203
 52.8676  6293.75  79.4126
 52.9096  6395.91  80.1378
 52.9516  6418.34  80.6387
 52.9936  6397.04  80.897
 53.0356  6291.5  79.2443
 53.0776  6268.28  79.3545
 53.1196  6296.11  79.6565
 53.1616  6510.87  81.0506
 53.2036  6324.35  79.8341
 53.2456  6275.04  79.6285
 53.2876  6283.15  79.3822
 53.3296  6305.34  79.8471
 53.3716  6398.27  80.1846
 53.4136  6398.86  80.3322
 53.4556  6268.47  79.539
 53.4976  6310.64  79.6586
 53.5396  6220.81  79.4749
 53.5816  6285.89  79.5293
 53.6236  6188.91  79.2498
 53.6656  6181.9  78.8395
 53.7076  6260.23  79.2981
 53.7496  6290.88  79.6117
 53.7916  6360.64  80.1638
 53.8336  6197.29  79.0412
 53.8756  6122.53  79.1021
 53.9176  6229.45  79.1449
 53.9596  6282.22  80.236
 54.0016  6211.57  79.1229
 54.0436  6244.05  79.5399
 54.0856  6246.61  78.9979
 54.1276  6269.58  79.3412
 54.1696  6293.8  79.6625
 54.2116  6297.25  79.4419
 54.2536  6364.4  79.683
 54.2956  6388.98  79.879
 54.3376  6195.73  79.1358
 54.3796  6253.11  79.4049
 54.4216  6321  79.8843
 54.4636  6284.35  79.6105
 54.5056  6283.06  79.4261
 54.5476  6258.95  79.6038
 54.5896  6236.45  79.2956
 54.6316  6218.69  79.0417
 54.6736  6225.31  79.1581
 54.7156  6298.91  79.6392
 54.7576  6162.64  78.7747
 54.7996  6219.2  79.2714
 54.8416  6233.56  79.4138
 54.8836  6106.87  78.7134
 54.9256  6272.25  79.5159
 54.9676  6241.57  79.185
 55.0096  6179.66  78.849
 55.0516  6203.89  79.2441
 55.0936  6172.96  78.6777
 55.1356  6195.85  78.8673
 55.1776  6183.78  79.0577
 55.2196  6271.13  79.3974
 55.2616  6188.02  79.0757
 55.3036  6288.42  79.8794
 55.3456  6208.3  79.5168
 55.3876  6155.83  78.9235
 55.4296  6230.49  79.3787
 55.4716  6162.21  78.9803
 55.5136  6176.61  78.8313
 55.5556  6148.31  78.7208
 55.5976  6185.63  79.0172
 55.6396  6070.36  78.2145
 55.6816  6206.13  78.9685
 55.7236  6210.96  79.0441
 55.7656  6266.43  79.1531
 55.8076  6217.41  78.8276
 55.8496  6139.97  78.6499
 55.8916  6173.51  79.0666
 55.9336  6225.3  79.2087
 55.9756  6080.02  78.1816
 56.0176  6132.6  78.665
 56.0596  6069.72  78.2477
 56.1016  6148.9  78.7635
 56.1436  6123.2  78.8641
 56.1856  6141.06  78.7204
 56.2276  6127.43  78.6866
 56.2696  6088.54  78.4152
 56.3116  6154.04  79.2302
 56.3536  6148.35  78.8534
 56.3956  6134.4  78.7575
 56.4376  6186.17  79.1199
 56.4796  6140.96  78.6346
 56.5216  6155.71  79.0943
 56.5636  6220.69  79.1102
 56.6056  6135.84  78.7988
 56.6476  6118.02  78.315
 56.6896  6143.4  78.9137
 56.7316  6102.39  78.5686
 56.7736  6152.05  78.8836
 56.8156  6192.91  79.1482
 56.8576  6103.36  78.5077
 56.8996  6180.82  78.9514
 56.9416  6117.8  78.8433
 56.9836  5996.73  77.5817
 57.0256  6121.18  78.6959
 57.0676  6126.5  78.8566
 57.1096  6119.81  78.5978
 57.1516  6131  78.7421
 57.1936  6131.1  78.4881
 57.2356  6139.38  78.8583
 57.2776  6096.63  78.5401
 57.3196  6109.27  78.9906
 57.3616  6096.52  78.4013
 57.4036  6171.16  78.9412
 57.4456  6093.28  78.4102
 57.4876  6127.13  78.4826
 57.5296  6076.89  78.498
 57.5716  6040.95  78.2574
 57.6136  6098.08  78.4448
 57.6556  6175.08  79.0716
 57.6976  6105.25  78.4596
 57.7396  6040.63  78.4084
 57.7816  5980.44  78.3709
 57.8236  5965.72  78.0753
 57.8656  6114.05  78.6918
 57.9076  6109.93  78.6954
 57.9496  6121  79.1168
 57.9916  6077.06  78.3439
 58.0336  6074.24  78.6059
 58.0756  6081.58  78.2848
 58.1176  6048.42  78.0742
 58.1596  5976.8  78.1787
 58.2016  6241.74  79.0981
 58.2436  6203.08  79.2728
 58.2856  6059.15  78.2677
 58.3276  5983.76  78.1457
 58.3696  6046.39  78.2992
 58.4116  6061.4  78.27
 58.4536  6033.25  77.9725
 58.4956  5999.48  77.9294
 58.5376  6148.21  78.4642
 58.5796  6022.39  78.0742
 58.6216  6112.65  78.4706
 58.6636  6172.45  79.069
 58.7056  6126.06  78.6336
 58.7476  6033.28  78.4801
 58.7896  6077.67  78.4104
 58.8316  6020.34  78.036
 58.8736  6111.1  78.6304
 58.9156  6089.28  78.5323
 58.9576  6148.87  79.2345
 58.9996  6279.33  79.3031
 59.0416  6324.65  79.9591
 59.0836  6021.57  77.9527
 59.1256  6086.72  79.0741
 59.1676  6023.45  78.9628
 59.2096  6188.15  79.3448
 59.2516  6305.5  79.6656
 59.2936  6208.43  79.3826
 59.3356  6082.6  78.4513
 59.3776  6299.43  80.01
 59.4196  6074.43  78.504
 59.4616  5953.54  77.5798
 59.5036  6157.16  78.931
 59.5456  6328.76  79.7095
 59.5876  6150.13  78.7693
 59.6296  5991.81  77.8179
 59.6716  6202.26  79.2313
 59.7136  6197.2  79.1872
 59.7556  6051.54  78.3876
 59.7976  6148.09  78.7503
 59.8396  5936.16  77.2763
 59.8816  6215.43  79.625
 59.9236  6126.08  78.6931
 59.9656  6052.95  78.4832
 60.0076  6129.48  78.3302
 60.0496  6149.9  78.9688
 60.0916  6236.89  78.9342
 60.1336  6046.25  78.8265
 60.1756  6151.81  80.7068
 60.1996  0.0000000E+00  0.0000000E+00