File: docs/examples/opeando_xrd/IS17_D/Data/IS17_D/17_Da_f00041.xye
# /beamlines/bl04/projects/cycle2025-II/20250340211-lsimonelli/DATA/IS17_D/17_Da_f00041.xye : mythproc.py merge -s 0.006 -l 0.5 -f /beamlines/bl04/inhouse/ff/FlatField/ff_20Nov2024rod8mm60s_17keV.raw -b True -c true -o xye /beamlines/bl04/projects/cycle2025-II/20250340211-lsimonelli/DATA/IS17_D/17_Da_00041.dat
# IsMon = [6793209, 6793578, 6790916]  IsPos = [-1.4999, -2.4885, -3.4986]
# Wave = 0.4962  CalPath /beamlines/bl04/projects/cycle2025-II/20250340211-lsimonelli/DATA/Align/Si_Pos1_25keV_f00001.cal
# Date = 2025-09-24_04:58:17 Dt = 4.8000  Bin = 0.0060  <imon> = 6792568 +/- 1178 (Min/Max) 6790916 / 6793578
# icurr 253.0347  mocoIn 1.7260E-05  mocoOut 0.8095  i15 7.10803e+06  imon 6.79257e+06  i7 5.6667  iEMpd_timer 4.8000  iEMpd_1 3.5614E-08  iEMpd_2 7.7420E-08  iEMpd_3 1.6464E-08  iEMpd_4 5.0023E-08  iEMhp_timer 4.8000  iEMhp_1 4.9432E-06  iEMhp_2 -2.4352E-08  iEMhp_3 -2.3836E-08  iEMhp_4 -2.0521E-08
#      9776
 1.5856  40954.9  207.795
 1.6276  48580.3  222.431
 1.6696  55113.8  236.082
 1.7116  63822.4  254.546
 1.7536  73393.5  271.803
 1.7956  78235  281.325
 1.8376  74190.3  274.392
 1.8796  62550.4  250.098
 1.9216  50221.5  224.99
 1.9636  42651.5  206.492
 2.0056  38086.9  194.373
 2.0476  35693.4  190.229
 2.0896  34134.1  184.937
 2.1316  33346.3  181.911
 2.1736  31818.9  179.106
 2.2156  32568.6  179.75
 2.2576  31297.9  176.84
 2.2996  30046.1  173.903
 2.3416  30176.9  172.889
 2.3836  29749.9  171.769
 2.4256  28645.5  169.099
 2.4676  28253.8  167.701
 2.5096  28110.9  167.331
 2.5516  27611.7  169.691
 2.5936  27618.8  166.274
 2.6356  26803.1  164.491
 2.6776  27075.5  164.196
 2.7196  26564.8  163.168
 2.7616  26555  162.913
 2.8036  26136.1  161.795
 2.8456  26350.6  163.083
 2.8876  25448.7  160.118
 2.9296  25458.3  160.301
 2.9716  25261.6  159.167
 3.0136  24718.9  157.515
 3.0556  24763.7  158.057
 3.0976  24785.3  157.047
 3.1396  24430.3  156.641
 3.1816  23986.9  155.149
 3.2236  24020.7  155.259
 3.2656  23850.3  153.739
 3.3076  23670.8  154.616
 3.3496  23872.1  154.457
 3.3916  24176  155.011
 3.4336  24866.2  157.793
 3.4756  25049.9  158.298
 3.5176  25881.3  160.696
 3.5596  25759.8  162.769
 3.6016  26264.8  161.952
 3.6436  25090.4  159.389
 3.6856  24699.8  156.438
 3.7276  23842.5  154.793
 3.7696  23465.4  153.764
 3.8116  23035.8  152.231
 3.8536  23213.1  152.75
 3.8956  23088.6  152.167
 3.9376  22855.3  151.69
 3.9796  22994.6  151.618
 4.0216  23016  150.719
 4.0636  22805.7  151.497
 4.1056  22806.1  151.144
 4.1476  23193.1  152.736
 4.1896  23468.2  153.504
 4.2316  23359.7  152.975
 4.2736  23815.3  154.242
 4.3156  24185.2  155.678
 4.3576  24860.9  157.752
 4.3996  25080.8  158.511
 4.4416  25619.5  159.988
 4.4836  26058.2  161.498
 4.5256  26601.3  163.79
 4.5676  26450.3  163.581
 4.6096  27232.3  164.627
 4.6516  27301.4  164.548
 4.6936  27563.4  166.158
 4.7356  27799.4  166.69
 4.7776  27854  166.688
 4.8196  27314  165.707
 4.8616  26991.7  164.339
 4.9036  26699  163.06
 4.9456  26542.3  163.234
 4.9876  25876.6  161.072
 5.0296  26257  162.065
 5.0716  26266.7  162.74
 5.1136  26112.7  162.109
 5.1556  26612.2  163.119
 5.1976  26828.7  163.77
 5.2396  26986.3  163.948
 5.2816  26927  164.227
 5.3236  27146.3  164.603
 5.3656  26704.8  164.176
 5.4076  26379.4  163.331
 5.4496  26401.1  162.881
 5.4916  26663.1  163.447
 5.5336  26319.9  162.4
 5.5756  26347.3  162.509
 5.6176  26481.9  162.363
 5.6596  26546.4  163.524
 5.7016  26895.1  163.868
 5.7436  26809.4  163.875
 5.7856  26993.8  164.494
 5.8276  27227.6  164.936
 5.8696  27446.1  165.76
 5.9116  27372.2  166.121
 5.9536  27500.9  166.281
 5.9956  27939.4  166.976
 6.0376  27655.8  166.754
 6.0796  28173.8  168.143
 6.1216  28176.1  168.353
 6.1636  28395.9  168.073
 6.2056  28398.4  168.741
 6.2476  28468.6  168.821
 6.2896  28760.9  169.372
 6.3316  28601.9  169.073
 6.3736  28902.7  169.856
 6.4156  28810.6  169.477
 6.4576  28983  169.596
 6.4996  29351.6  171.154
 6.5416  29321.4  171.199
 6.5836  29386.9  171.625
 6.6256  29309.1  170.958
 6.6676  30072.6  172.738
 6.7096  29687.9  172.473
 6.7516  30297.5  173.889
 6.7936  30515.7  173.683
 6.8356  30350.9  173.554
 6.8776  30840.3  175.75
 6.9196  30755.2  175.906
 6.9616  31310.6  176.904
 7.0036  31848.6  178.097
 7.0456  31612.1  176.732
 7.0876  31691.2  178.64
 7.1296  31379.8  176.905
 7.1716  31580.1  177.007
 7.2136  31358.9  176.165
 7.2556  31448.6  176.576
 7.2976  31526  177.293
 7.3396  31434.1  177.241
 7.3816  31534  177.743
 7.4236  31732.7  177.593
 7.4656  31805.2  177.283
 7.5076  32154.7  178.389
 7.5496  32001.1  178.505
 7.5916  31898.7  178.242
 7.6336  32371.7  179.455
 7.6756  32317  179.16
 7.7176  32900.9  181.069
 7.7596  32641  181.603
 7.8016  33130.2  185.126
 7.8436  33259.8  182.199
 7.8856  33717.6  183.057
 7.9276  34530  185.653
 7.9696  34581  186.098
 8.0116  35610.7  187.757
 8.0536  35517.6  187.391
 8.0956  35379.2  188.183
 8.1376  35887.7  189.02
 8.1796  36224.4  190.439
 8.2216  37244.6  191.845
 8.2636  37068.3  191.633
 8.3056  37026  192.304
 8.3476  37677  193.306
 8.3896  37330.9  192.948
 8.4316  37338.1  192.68
 8.4736  37584.3  192.779
 8.5156  37190  192.042
 8.5576  36942.7  192.364
 8.5996  36792.7  190.86
 8.6416  36934.8  192.48
 8.6836  36517  191.229
 8.7256  37181.1  192.395
 8.7676  36591.2  193.756
 8.8096  36378.3  190.517
 8.8516  36124.1  189.47
 8.8936  35930.6  188.858
 8.9356  35730.2  188.666
 8.9776  36050.9  189.604
 9.0196  35675.4  188.282
 9.0616  35976.3  188.566
 9.1036  35102.9  187.426
 9.1456  35486.6  187.821
 9.1876  35249.9  187.139
 9.2296  35124.3  186.218
 9.2716  34769.3  185.331
 9.3136  34997.1  185.926
 9.3556  34860  185.541
 9.3976  33691.1  182.919
 9.4396  34151.4  184.069
 9.4816  33341.5  181.726
 9.5236  33284.2  181.49
 9.5656  33330  181.932
 9.6076  33361.5  182.554
 9.6496  33034.3  181.573
 9.6916  33062.7  181.625
 9.7336  33056.1  181.382
 9.7756  33287.1  183.352
 9.8176  32342.1  180.132
 9.8596  32132.7  178.019
 9.9016  31819.5  177.142
 9.9436  31592.9  176.424
 9.9856  31275.5  175.759
 10.0276  30751.9  175.366
 10.0696  31049.6  175.27
 10.1116  30230.6  173.197
 10.1536  29991  172.674
 10.1956  29763.7  171.624
 10.2376  29235.8  169.614
 10.2796  29380.7  170.155
 10.3216  29139  169.716
 10.3636  29022.8  169.405
 10.4056  28717.2  168.907
 10.4476  28445  167.737
 10.4896  28749.8  168.096
 10.5316  28005.7  166.601
 10.5736  27908.4  166.71
 10.6156  27246.2  164.491
 10.6576  27708.7  164.477
 10.6996  27158.6  163.482
 10.7416  27032  163.34
 10.7836  26944.9  163.757
 10.8256  26753.3  163.6
 10.8676  26840.1  163.407
 10.9096  26456.1  162.278
 10.9516  26153.6  160.295
 10.9936  26324  161.017
 11.0356  26080.2  160.89
 11.0776  26030.6  160.065
 11.1196  25580.6  159.405
 11.1616  25236.6  158.022
 11.2036  25553.2  158.868
 11.2456  25300.2  158.763
 11.2876  25263.2  158.385
 11.3296  24974.2  157.383
 11.3716  25207.6  157.81
 11.4136  25053.9  158.209
 11.4556  25173.9  158.269
 11.4976  25253.8  157.509
 11.5396  25687.1  159.018
 11.5816  26101.7  160.756
 11.6236  26668.3  162.931
 11.6656  26537.7  161.457
 11.7076  25837.3  160.157
 11.7496  25003  161.448
 11.7916  24972.7  156.726
 11.8336  24754.3  156.947
 11.8756  24285.8  154.966
 11.9176  24442.9  155.377
 11.9596  24100.6  154.215
 12.0016  24104.6  155.019
 12.0436  24061  154.3
 12.0856  23721  153.733
 12.1276  23874.3  154.143
 12.1696  23844.7  153.197
 12.2116  24053.9  153.862
 12.2536  23722.1  153.617
 12.2956  23800.3  153.212
 12.3376  23621.8  152.838
 12.3796  23738.7  153.671
 12.4216  23659.4  152.645
 12.4636  23247.3  152.207
 12.5056  23429.7  152.089
 12.5476  23818.9  152.879
 12.5896  23655.1  152.978
 12.6316  23326.4  152.06
 12.6736  23666.6  153.51
 12.7156  23167.2  151.885
 12.7576  23534.9  153.322
 12.7996  23718.2  152.58
 12.8416  23417.4  152.65
 12.8836  23912.6  154.057
 12.9256  24024.8  153.463
 12.9676  24110.4  154.165
 13.0096  23654.7  153.782
 13.0516  24137.8  154.387
 13.0936  24146.6  154.806
 13.1356  24377  154.539
 13.1776  24065.6  154.526
 13.2196  24403.1  155.267
 13.2616  24323.9  155.327
 13.3036  24452  155.7
 13.3456  24363.7  155.58
 13.3876  24279.7  154.798
 13.4296  24310.1  155.048
 13.4716  24239.9  154.439
 13.5136  24334.2  154.896
 13.5556  24190.9  155.036
 13.5976  24132  154.997
 13.6396  24320.5  154.976
 13.6816  24149.4  154.915
 13.7236  24850.9  156.783
 13.7656  24011  154.649
 13.8076  24386.2  154.645
 13.8496  23867.5  153.582
 13.8916  23945.1  154.832
 13.9336  24104.2  154.576
 13.9756  23658.6  152.498
 14.0176  23750.3  153.471
 14.0596  23928.8  154.005
 14.1016  23386.9  152.644
 14.1436  23216.3  151.226
 14.1856  23112.5  151.184
 14.2276  22709.6  150.329
 14.2696  22967.6  151.032
 14.3116  22764.8  150.26
 14.3536  22374.3  149.139
 14.3956  22360  148.827
 14.4376  22511.2  149.111
 14.4796  22389.8  148.701
 14.5216  22025  148.276
 14.5636  21926  147.51
 14.6056  22026.3  147.428
 14.6476  21962.5  146.446
 14.6896  21585.4  145.724
 14.7316  21086  145.04
 14.7736  21197.7  144.581
 14.8156  20943.5  143.745
 14.8576  21012.4  143.833
 14.8996  20390.8  142.885
 14.9416  20209.5  142.245
 14.9836  20231.1  142.278
 15.0256  20026.9  140.506
 15.0676  20043.7  140.877
 15.1096  19901  140.114
 15.1516  19589.4  139.56
 15.1936  19568.1  138.92
 15.2356  19314.9  138.296
 15.2776  19370.4  138.08
 15.3196  18825.4  137.118
 15.3616  18881.9  137.084
 15.4036  18626.2  136.002
 15.4456  19010.2  136.832
 15.4876  18702.6  135.62
 15.5296  18422.5  134.876
 15.5716  18256  133.883
 15.6136  18346.2  134.529
 15.6556  18347  133.782
 15.6976  18206.1  133.342
 15.7396  17989.1  133.154
 15.7816  17705  131.61
 15.8236  17509.3  131.574
 15.8656  17682.2  132.011
 15.9076  17389.2  130.741
 15.9496  17248.5  132.953
 15.9916  17212.3  133.253
 16.0336  16968.8  129.242
 16.0756  17133.1  130.179
 16.1176  16986.6  129.688
 16.1596  16635.5  129.503
 16.2016  16868.3  129.168
 16.2436  16453.4  127.945
 16.2856  16510.8  127.718
 16.3276  16419.2  127.775
 16.3696  16484.4  127.843
 16.4116  16309.1  127.625
 16.4536  16574.9  128.438
 16.4956  16160.5  126.567
 16.5376  16140.1  126.676
 16.5796  16078.3  125.796
 16.6216  15990.2  125.757
 16.6636  16054.8  126.164
 16.7056  16058.4  126.044
 16.7476  16058.8  125.727
 16.7896  15939.6  125.853
 16.8316  15986.3  126.001
 16.8736  15875.6  125.813
 16.9156  15961.2  126.493
 16.9576  15949.3  127.23
 16.9996  15950.2  127.721
 17.0416  15969.8  126.162
 17.0836  16013.5  126.094
 17.1256  16082.5  126.376
 17.1676  15813.6  125.296
 17.2096  15695.9  124.717
 17.2516  15689.7  124.47
 17.2936  15496.3  124.014
 17.3356  15178.7  122.746
 17.3776  15246  123.215
 17.4196  15407.6  123.561
 17.4616  15215.2  122.708
 17.5036  15056.6  122.426
 17.5456  14737.7  121.755
 17.5876  14774.7  120.968
 17.6296  14771.8  120.772
 17.6716  14663.2  120.896
 17.7136  14528.2  120.478
 17.7556  14411.8  120.28
 17.7976  14396.2  119.83
 17.8396  14221.2  118.741
 17.8816  14399.5  120.015
 17.9236  14319.6  119.499
 17.9656  14368.7  120.405
 18.0076  14374.5  119.851
 18.0496  14290.6  118.651
 18.0916  14253.4  119.023
 18.1336  14147  118.67
 18.1756  14297.3  118.836
 18.2176  14084.9  118.174
 18.2596  13979  117.474
 18.3016  14137.5  118.386
 18.3436  14185.5  118.823
 18.3856  13837.5  117.26
 18.4276  14001.7  117.637
 18.4696  13995.3  117.707
 18.5116  13953.8  117.809
 18.5536  14013.5  118.425
 18.5956  13766.2  116.927
 18.6376  13895  117.87
 18.6796  13825  116.912
 18.7216  13924.7  117.884
 18.7636  13599.8  116.417
 18.8056  13773.7  117.102
 18.8476  13660.7  116.933
 18.8896  13732.7  116.886
 18.9316  13847.9  117.203
 18.9736  13721.4  116.523
 19.0156  13640.8  116.563
 19.0576  13707.5  115.749
 19.0996  13660.9  116.252
 19.1416  13438  115.678
 19.1836  13564.3  115.835
 19.2256  13422.5  115.428
 19.2676  13604.8  116.308
 19.3096  13671.5  116.838
 19.3516  13445.1  115.821
 19.3936  13789.5  117.266
 19.4356  13630.8  116.387
 19.4776  13639.8  116.53
 19.5196  13602.1  116.221
 19.5616  13513.2  116.092
 19.6036  13511  115.446
 19.6456  13574.7  115.975
 19.6876  13737.6  116.321
 19.7296  13490.6  115.716
 19.7716  13383.7  115.276
 19.8136  13561.4  116.383
 19.8556  13825.9  117
 19.8976  13655.5  116.341
 19.9396  13642.5  115.867
 19.9816  13824.5  116.878
 20.0236  14108.5  118.287
 20.0656  14246.3  118.865
 20.1076  14258.8  119.379
 20.1496  14461.6  120.232
 20.1916  14734.2  120.857
 20.2336  14681.9  120.584
 20.2756  14289  119.388
 20.3176  14017.1  117.995
 20.3596  13994.2  117.875
 20.4016  13720.6  116.518
 20.4436  13659.7  116.833
 20.4856  13437.4  115.66
 20.5276  13299.9  115.521
 20.5696  13229.8  114.678
 20.6116  13251  115.044
 20.6536  13169.2  114.249
 20.6956  13255.4  114.702
 20.7376  13185.1  114.626
 20.7796  12932  113.211
 20.8216  13040.1  113.392
 20.8636  12977.9  113.483
 20.9056  12984  113.465
 20.9476  12831.4  112.629
 20.9896  13053.1  113.474
 21.0316  13054.5  113.379
 21.0736  12912.5  113.275
 21.1156  13030.8  113.951
 21.1576  12926.7  113.545
 21.1996  12943.4  113.595
 21.2416  12796.9  112.782
 21.2836  12902.5  113.214
 21.3256  12614.2  112.023
 21.3676  12753.7  112.194
 21.4096  12676.8  112.16
 21.4516  12582.9  111.627
 21.4936  12622.7  112.05
 21.5356  12705.2  112.357
 21.5776  12623.7  111.838
 21.6196  12455.7  111.117
 21.6616  12588.6  111.808
 21.7036  12694.6  112.059
 21.7456  12618.6  111.795
 21.7876  12471.8  110.893
 21.8296  12522.9  110.978
 21.8716  12579.9  111.46
 21.9136  12661.2  112.021
 21.9556  12438.8  110.712
 21.9976  12458.4  110.809
 22.0396  12446.5  111.013
 22.0816  12454.2  111.588
 22.1236  12512.2  111.294
 22.1656  12559.3  111.693
 22.2076  12446.4  110.614
 22.2496  12520.9  110.967
 22.2916  12616.8  111.281
 22.3336  12557.3  111.719
 22.3756  12511.1  111.255
 22.4176  12494.8  111.039
 22.4596  12348.3  110.972
 22.5016  12508.3  111.173
 22.5436  12482.3  110.95
 22.5856  12563.9  111.556
 22.6276  12365.3  110.803
 22.6696  12450.8  111.536
 22.7116  12563.1  111.551
 22.7536  12490.5  111.207
 22.7956  12441.2  110.318
 22.8376  12340.9  110.398
 22.8796  12436.1  110.622
 22.9216  12510.3  111.499
 22.9636  12604.3  111.066
 23.0056  12292  109.814
 23.0476  12634  111.903
 23.0896  12720.9  111.663
 23.1316  12598.7  111.558
 23.1736  12326.6  113.259
 23.2156  12575.9  111.691
 23.2576  12349.9  110.892
 23.2996  12439.2  111.094
 23.3416  12522.4  111.98
 23.3836  12597.1  111.53
 23.4256  12581  111.587
 23.4676  12648.9  111.592
 23.5096  12487.1  111.547
 23.5516  12513  110.946
 23.5936  12324.3  110.992
 23.6356  12596.2  111.886
 23.6776  12459.5  111.818
 23.7196  12302.2  110.364
 23.7616  12562.4  111.444
 23.8036  12303.1  110.32
 23.8456  12374  110.215
 23.8876  12065.4  109.175
 23.9296  12147.8  110.039
 23.9716  12374.3  110.258
 24.0136  12258.2  110.634
 24.0556  12141.2  109.838
 24.0976  12205.1  109.93
 24.1396  12085  112.002
 24.1816  12182.1  111.225
 24.2236  11922.6  109.314
 24.2656  12008.7  109.183
 24.3076  11858.3  108.752
 24.3496  11860.2  108.646
 24.3916  11869.8  108.742
 24.4336  11688.2  108.109
 24.4756  11709  108.077
 24.5176  11567.2  107.074
 24.5596  11524.4  107.001
 24.6016  11549.2  107.4
 24.6436  11464.6  106.498
 24.6856  11473.4  106.309
 24.7276  11557.7  107.012
 24.7696  11425.2  106.51
 24.8116  11385.5  106.505
 24.8536  11283.9  106.02
 24.8956  11184.6  105.295
 24.9376  11312.6  105.838
 24.9796  10962.4  104.534
 25.0216  11050  105.057
 25.0636  11038.8  104.662
 25.1056  11038.3  105.087
 25.1476  11081.7  107.222
 25.1896  11254.2  106.531
 25.2316  11154.4  105.221
 25.2736  11093  104.706
 25.3156  11065.5  104.649
 25.3576  11014.4  104.82
 25.3996  10977.1  104.627
 25.4416  10962.1  104.536
 25.4836  10731.6  103.949
 25.5256  10946  104.349
 25.5676  10963.6  104.165
 25.6096  10735.4  103.64
 25.6516  10953.1  104.188
 25.6936  10833.4  103.923
 25.7356  10651.2  103.186
 25.7776  10886.6  103.929
 25.8196  10673.1  103.139
 25.8616  10744.7  103.404
 25.9036  10926.3  103.744
 25.9456  10717.7  103.335
 25.9876  10611  102.886
 26.0296  10881  103.787
 26.0716  10644.3  102.982
 26.1136  10811  103.725
 26.1556  10736.7  102.666
 26.1976  10674.9  103.378
 26.2396  10729.1  103.056
 26.2816  10625.2  102.904
 26.3236  10701.1  103.349
 26.3656  10662.6  102.97
 26.4076  10910.1  104.364
 26.4496  11157.9  105.043
 26.4916  10727.4  102.995
 26.5336  10797.5  103.653
 26.5756  11106.3  104.977
 26.6176  10659.5  102.902
 26.6596  10564.5  102.745
 26.7016  10657.7  102.999
 26.7436  10498.2  102.309
 26.7856  10456.8  102.095
 26.8276  10470.8  102.118
 26.8696  10669.4  102.957
 26.9116  10360  101.39
 26.9536  10442.1  101.841
 26.9956  10413  101.733
 27.0376  10320.4  101.487
 27.0796  10417  101.747
 27.1216  10331.9  101.356
 27.1636  10221.7  100.981
 27.2056  10324.5  101.37
 27.2476  10269.5  101.102
 27.2896  10124.5  100.42
 27.3316  10155.8  100.362
 27.3736  10147.2  100.588
 27.4156  10021.4  99.8046
 27.4576  10230.1  101.066
 27.4996  10057.6  99.8129
 27.5416  10092.2  100.296
 27.5836  10098.1  100.144
 27.6256  10391  101.744
 27.6676  10326  101.459
 27.7096  10075.2  100.086
 27.7516  10027.2  99.9936
 27.7936  10050.9  100.274
 27.8356  10098  100.138
 27.8776  9931.01  99.3496
 27.9196  9923.64  99.1635
 27.9616  9960.67  99.5416
 28.0036  9956.8  99.4948
 28.0456  9981.88  99.7488
 28.0876  9907.8  99.4684
 28.1296  9825.03  98.8965
 28.1716  9853.4  99.0315
 28.2136  9862.6  99.0552
 28.2556  9824.79  98.9808
 28.2976  9718.75  98.4397
 28.3396  9852.04  98.9155
 28.3816  9882.66  99.0468
 28.4236  9732.43  98.4426
 28.4656  9528.87  97.4413
 28.5076  9775.74  98.3332
 28.5496  9837.24  98.9061
 28.5916  9939.3  99.2269
 28.6336  9653.29  98.1224
 28.6756  9686.63  97.5062
 28.7176  9716.65  98.1997
 28.7596  9702.39  98.0271
 28.8016  9750.71  98.3886
 28.8436  9552.02  97.5371
 28.8856  9671.92  97.9948
 28.9276  9680.85  98.2844
 28.9696  9656.25  97.825
 29.0116  9620.42  97.8128
 29.0536  9589.97  97.8683
 29.0956  9640.94  97.8474
 29.1376  9449.75  96.8348
 29.1796  9468.43  96.9732
 29.2216  9662.96  97.81
 29.2636  9584.08  97.3996
 29.3056  9432.05  96.5033
 29.3476  9527.42  97.5084
 29.3896  9636.52  98.1557
 29.4316  9742.97  98.0426
 29.4736  9683.52  97.8106
 29.5156  9531.61  96.9608
 29.5576  9487.94  97.4682
 29.5996  9413.97  96.3579
 29.6416  9438.37  96.5889
 29.6836  9687.14  97.7884
 29.7256  9422.34  97.0055
 29.7676  9412.68  96.6212
 29.8096  9410.77  96.554
 29.8516  9358.73  96.6154
 29.8936  9438.4  97.1198
 29.9356  9553.79  97.4648
 29.9776  9273.67  96.1783
 30.0196  9411.58  96.2782
 30.0616  9386.56  96.5265
 30.1036  9451.3  96.6822
 30.1456  9303.8  96.1806
 30.1876  9318.22  96.2062
 30.2296  9418.98  96.6755
 30.2716  9467.25  96.5642
 30.3136  9405.08  96.8425
 30.3556  9383.01  96.9917
 30.3976  9282.59  97.9919
 30.4396  9412.25  96.0155
 30.4816  9421.76  95.6673
 30.5236  9271.25  94.9132
 30.5656  9282.39  95.6176
 30.6076  9249.17  94.8835
 30.6496  9400.03  96.0378
 30.6916  9189.29  95.0498
 30.7336  9127.93  94.8794
 30.7756  9276.11  95.9602
 30.8176  9304.27  95.7991
 30.8596  9271.94  95.4059
 30.9016  9116.35  94.9365
 30.9436  9448.07  96.4012
 30.9856  9381.37  96.1622
 31.0276  9176.68  94.729
 31.0696  9101.71  94.7664
 31.1116  9210.61  95.4481
 31.1536  9341.95  96.0105
 31.1956  9176.46  95.2423
 31.2376  8983.44  94.2478
 31.2796  9187.16  94.8482
 31.3216  9199.12  94.8542
 31.3636  9214.38  95.6106
 31.4056  9266.18  97.2124
 31.4476  9099.82  94.2231
 31.4896  9059.15  94.5132
 31.5316  9114.33  94.2462
 31.5736  9211.35  94.5235
 31.6156  9257.5  94.7763
 31.6576  9145.88  94.3009
 31.6996  9184.47  94.1798
 31.7416  8966.93  94.1028
 31.7836  8971.7  93.1555
 31.8256  8966.17  93.4723
 31.8676  9157.31  94.3838
 31.9096  8956.11  93.6888
 31.9516  8866.52  93.3799
 31.9936  8760.24  92.6482
 32.0356  9024.04  94.0828
 32.0776  9062.67  94.1833
 32.1196  9075.35  94.3359
 32.1616  9106.16  93.9619
 32.2036  8885.57  93.3157
 32.2456  8832.86  93.4176
 32.2876  8908.1  93.151
 32.3296  8783.81  92.628
 32.3716  8897.79  93.3353
 32.4136  8950.85  93.8321
 32.4556  8902.51  93.0188
 32.4976  8966.88  93.2085
 32.5396  8758.02  92.1817
 32.5816  8926.88  93.0749
 32.6236  8835.39  92.7791
 32.6656  9021.04  94.2882
 32.7076  9019.27  93.9316
 32.7496  8847.59  92.7051
 32.7916  8986.56  93.3916
 32.8336  8939.96  93.2426
 32.8756  8860.96  92.6428
 32.9176  8785.47  92.6347
 32.9596  8655.38  92.0199
 33.0016  8906.28  93.1428
 33.0436  8922.6  93.4007
 33.0856  8754.33  92.5809
 33.1276  8635.71  91.6859
 33.1696  8845.4  92.6422
 33.2116  8858.94  92.9367
 33.2536  8808.02  92.6669
 33.2956  8727.55  92.3282
 33.3376  8731.69  92.0517
 33.3796  8656.28  91.8933
 33.4216  8673.3  91.5973
 33.4636  8947.75  93.1686
 33.5056  8771.51  92.3334
 33.5476  8670.86  91.9501
 33.5896  8807.65  92.4191
 33.6316  8749.27  92.4545
 33.6736  8597.32  91.8931
 33.7156  8719.87  92.5895
 33.7576  8700.9  92.1199
 33.7996  8870.08  92.7761
 33.8416  8552.11  91.2747
 33.8836  8762.57  92.1687
 33.9256  8728.19  92.0533
 33.9676  8712.26  91.8617
 34.0096  8540  91.2588
 34.0516  8576.49  91.0987
 34.0936  8513.47  91.0272
 34.1356  8661.84  91.5616
 34.1776  8594.29  91.2154
 34.2196  8447.78  90.6077
 34.2616  8453.85  90.8376
 34.3036  8507.55  91.3028
 34.3456  8548.64  91.2828
 34.3876  8513.3  91.0549
 34.4296  8501.33  90.6837
 34.4716  8632.89  91.5314
 34.5136  8399.65  90.4929
 34.5556  8532.81  91.4594
 34.5976  8566.92  91.4454
 34.6396  8492.16  90.7599
 34.6816  8408.48  90.423
 34.7236  8427.62  90.3153
 34.7656  8458.15  90.6754
 34.8076  8452.27  90.9573
 34.8496  8427.99  90.6897
 34.8916  8513.22  91.0163
 34.9336  8488.44  90.8512
 34.9756  8707.02  91.9048
 35.0176  8459.86  91.1399
 35.0596  8361.07  90.4336
 35.1016  8440.65  90.6316
 35.1436  8474.57  90.5069
 35.1856  8346.07  89.9465
 35.2276  8437.77  90.6054
 35.2696  8428.76  90.7516
 35.3116  8452.34  90.9738
 35.3536  8424.51  90.5354
 35.3956  8488.04  90.5821
 35.4376  8392.98  90.6215
 35.4796  8379.55  90.615
 35.5216  8337.82  90.273
 35.5636  8150.59  90.0612
 35.6056  8499.61  90.9774
 35.6476  8374.23  90.2041
 35.6896  8458.34  90.8169
 35.7316  8232.44  89.4996
 35.7736  8322.42  90.1847
 35.8156  8192.2  89.4717
 35.8576  8358.82  90.6325
 35.8996  8459.34  91.1371
 35.9416  8425.27  90.4477
 35.9836  8184.38  89.5037
 36.0256  8397.85  90.6823
 36.0676  8411.86  90.2971
 36.1096  8104.11  88.9822
 36.1516  8277.67  89.8179
 36.1936  8262.24  89.5844
 36.2356  8191.79  89.8374
 36.2776  8221.77  89.4877
 36.3196  8273.55  89.4351
 36.3616  8267.13  89.5345
 36.4036  8357.3  90.0743
 36.4456  8257.7  89.7497
 36.4876  8092.84  88.7885
 36.5296  8164.03  89.2162
 36.5716  8164.64  89.9936
 36.6136  8360.23  89.8413
 36.6556  8293.04  89.6841
 36.6976  7974.72  88.4321
 36.7396  8218.68  89.6009
 36.7816  8091.87  89.1844
 36.8236  8118.33  89.2386
 36.8656  8161.91  89.5576
 36.9076  8254.43  90.0759
 36.9496  7951.28  88.4179
 36.9916  8054.7  88.4745
 37.0336  8310.57  90.1881
 37.0756  8125.45  88.9674
 37.1176  7998.01  88.6269
 37.1596  8151.87  89.3803
 37.2016  8044.78  88.9715
 37.2436  8216.25  89.2841
 37.2856  8073.43  88.7537
 37.3276  8097.33  88.2313
 37.3696  8046.57  88.8413
 37.4116  8186.9  89.5257
 37.4536  8031.12  88.5349
 37.4956  7957.17  88.1737
 37.5376  8124.83  90.6271
 37.5796  8000.96  89.905
 37.6216  8002.11  88.1927
 37.6636  8037.87  88.2866
 37.7056  7840.72  87.389
 37.7476  7921.6  87.373
 37.7896  7952.04  88.042
 37.8316  7850.57  87.6458
 37.8736  8152.02  88.8439
 37.9156  7946.18  87.7116
 37.9576  7967.25  87.8671
 37.9996  7876.28  86.9294
 38.0416  7906.42  87.9095
 38.0836  8016.61  88.4254
 38.1256  7831.29  87.337
 38.1676  7780.38  87.1999
 38.2096  7801.47  86.9381
 38.2516  8039.64  88.371
 38.2936  7892.13  87.4559
 38.3356  7998.64  87.9659
 38.3776  7763.57  86.9313
 38.4196  7937.99  87.7569
 38.4616  7885.83  87.6974
 38.5036  7985.11  88.0911
 38.5456  7847.57  88.1565
 38.5876  7897.55  88.4688
 38.6296  7760.04  86.6808
 38.6716  7784.25  86.611
 38.7136  7787.73  86.5706
 38.7556  7775.74  87.0051
 38.7976  7848.52  87.3505
 38.8396  7647.98  86.6724
 38.8816  7760.43  87.0759
 38.9236  7670.99  86.3978
 38.9656  7792.76  86.998
 39.0076  7782.3  86.3474
 39.0496  7760.45  86.7597
 39.0916  7771.38  86.4706
 39.1336  7698.53  86.4762
 39.1756  7744.25  86.8016
 39.2176  7685.47  86.9961
 39.2596  7762.33  87.3496
 39.3016  7737.42  86.7832
 39.3436  7699.67  86.9952
 39.3856  7716.77  86.5482
 39.4276  7853.23  87.8022
 39.4696  7817.71  87.231
 39.5116  7721.02  87.1983
 39.5536  7968.9  89.021
 39.5956  7817.85  87.2792
 39.6376  7820.51  87.1266
 39.6796  7781.58  86.8228
 39.7216  7844.46  87.2763
 39.7636  7890.09  88.0891
 39.8056  7828.45  87.5195
 39.8476  7791.64  87.5748
 39.8896  7722.44  86.8093
 39.9316  7801.81  87.5114
 39.9736  7883.52  87.5424
 40.0156  7672.89  86.2001
 40.0576  7810.71  87.321
 40.0996  8006.74  87.5924
 40.1416  7800.08  87.2406
 40.1836  7859.13  87.4626
 40.2256  7879.79  87.6225
 40.2676  7875.85  87.7057
 40.3096  7859.01  87.5382
 40.3516  7930.14  88.1215
 40.3936  7933.5  87.6204
 40.4356  7785.92  86.9888
 40.4776  7802.12  87.4915
 40.5196  7900.49  88.1675
 40.5616  7993.53  88.3241
 40.6036  7826.03  87.6459
 40.6456  7957.44  87.9938
 40.6876  7882.17  87.559
 40.7296  7928.93  87.9566
 40.7716  7868.06  87.7452
 40.8136  7816.08  87.3969
 40.8556  7989.53  88.4947
 40.8976  7847.88  87.6315
 40.9396  7812.37  87.7776
 40.9816  7940.98  87.7775
 41.0236  7964.83  87.6959
 41.0656  8044.78  88.6775
 41.1076  7927.58  87.8032
 41.1496  7975.38  87.9732
 41.1916  7886.12  87.8002
 41.2336  7914.05  87.9399
 41.2756  7887.91  87.4089
 41.3176  7826.24  87.6741
 41.3596  7950.85  88.1019
 41.4016  7854.62  87.8304
 41.4436  7923.77  87.995
 41.4856  7898.42  88.0157
 41.5276  7749.8  87.2074
 41.5696  7845.3  87.3595
 41.6116  7797.05  87.4954
 41.6536  7869.03  87.7607
 41.6956  7800.39  87.4309
 41.7376  7803.8  87.4803
 41.7796  7757.63  87.1488
 41.8216  7805.51  87.6049
 41.8636  7904.83  88.0987
 41.9056  7738.12  86.9569
 41.9476  7796.57  87.5157
 41.9896  7830.6  87.372
 42.0316  7839.54  87.5013
 42.0736  7787.48  87.3263
 42.1156  7748.27  86.9459
 42.1576  7797.14  87.3177
 42.1996  7842.06  87.706
 42.2416  7754.32  86.8042
 42.2836  7741.18  86.8375
 42.3256  7689.23  86.664
 42.3676  7871.54  87.4888
 42.4096  7870.08  87.4361
 42.4516  7748.5  86.8518
 42.4936  7729.73  86.8181
 42.5356  7732.06  86.9611
 42.5776  7743.72  86.9692
 42.6196  7787.42  87.1861
 42.6616  7640.25  86.6088
 42.7036  7769.71  86.7253
 42.7456  7777.12  87.1159
 42.7876  7665.92  86.5923
 42.8296  7664.86  86.4839
 42.8716  7607.58  86.257
 42.9136  7744.84  86.8227
 42.9556  7732.95  86.8865
 42.9976  7792.28  87.1837
 43.0396  7653.97  86.139
 43.0816  7483.36  85.5372
 43.1236  7589.14  86.2064
 43.1656  7632.18  86.2835
 43.2076  7664.07  86.5686
 43.2496  7712.75  86.6531
 43.2916  7639.13  86.6035
 43.3336  7560.49  85.998
 43.3756  7631.87  86.1551
 43.4176  7626.94  86.2123
 43.4596  7562.86  85.7063
 43.5016  7589.91  86.2608
 43.5436  7680.07  86.6722
 43.5856  7581.74  86.1446
 43.6276  7511.06  85.6344
 43.6696  7566.15  86.0907
 43.7116  7549  85.6111
 43.7536  7668.94  86.768
 43.7956  7474.73  86.8373
 43.8376  7578.82  86.0035
 43.8796  7530.47  85.8084
 43.9216  7498.52  85.5429
 43.9636  7635.67  86.4318
 44.0056  7550.27  86.1757
 44.0476  7455.61  85.2707
 44.0896  7410.25  85.3486
 44.1316  7494.1  85.4938
 44.1736  7463.09  85.3009
 44.2156  7542.75  85.6102
 44.2576  7512.67  85.7652
 44.2996  7547.77  85.9322
 44.3416  7506.75  85.4621
 44.3836  7443.09  85.4234
 44.4256  7459.96  85.1726
 44.4676  7371.4  84.8177
 44.5096  7542.08  85.9345
 44.5516  7414.95  85.1764
 44.5936  7305.11  84.4966
 44.6356  7474.02  85.2061
 44.6776  7457.75  85.4266
 44.7196  7358.8  85.1286
 44.7616  7406.44  86.7498
 44.8036  7347.78  84.8562
 44.8456  7427.4  85.5107
 44.8876  7385.75  85.1255
 44.9296  7426.97  84.8221
 44.9716  7378.3  84.9617
 45.0136  7291.71  84.4033
 45.0556  7378.68  84.8765
 45.0976  7354.79  84.9121
 45.1396  7196.88  83.736
 45.1816  7430.7  84.8648
 45.2236  7390.94  84.7085
 45.2656  7313.35  84.76
 45.3076  7369.15  84.8686
 45.3496  7233.12  84.3775
 45.3916  7339.13  85.2608
 45.4336  7267.1  84.6826
 45.4756  7336.69  84.9476
 45.5176  7327.99  84.516
 45.5596  7422.46  85.1798
 45.6016  7225.09  84.4563
 45.6436  7286.19  84.0005
 45.6856  7189.21  84.0883
 45.7276  7173.7  85.7971
 45.7696  7220.76  85.2331
 45.8116  7245.88  84.8243
 45.8536  7259.63  84.8065
 45.8956  7255.51  84.1406
 45.9376  7370.46  84.2711
 45.9796  7184.1  83.8816
 46.0216  7317.88  84.9894
 46.0636  7394.63  84.5791
 46.1056  7341.39  84.2631
 46.1476  7259.11  84.3757
 46.1896  7198.77  84.1737
 46.2316  7156.13  83.7951
 46.2736  6979.54  83.112
 46.3156  7132.96  83.6138
 46.3576  7200.26  84.2034
 46.3996  7148.64  84.0626
 46.4416  7257.13  84.2732
 46.4836  7142.39  83.9592
 46.5256  7208.21  84.2855
 46.5676  7174.97  84.2032
 46.6096  7285.42  84.7916
 46.6516  7302.73  83.9332
 46.6936  7267.76  84.2201
 46.7356  7249.96  84.2154
 46.7776  7094  84.1461
 46.8196  7096.07  83.7532
 46.8616  6947.34  82.8283
 46.9036  6990.86  82.7439
 46.9456  7082.25  82.9297
 46.9876  7064.42  82.9092
 47.0296  7008.03  83.2549
 47.0716  7008.26  83.0805
 47.1136  7115.96  83.397
 47.1556  7088.77  83.1095
 47.1976  7094.99  83.2185
 47.2396  7064.54  83.4404
 47.2816  7001.35  82.7651
 47.3236  6960.72  82.8929
 47.3656  7014.57  83.1406
 47.4076  6981.72  82.7567
 47.4496  7034.27  83.1526
 47.4916  6993.86  83.1047
 47.5336  7051.01  83.2612
 47.5756  7073.91  83.4817
 47.6176  6999.23  82.9643
 47.6596  6949.25  82.3916
 47.7016  7097.49  83.0846
 47.7436  7036.13  83.0586
 47.7856  7090.12  83.4003
 47.8276  6927.77  82.4841
 47.8696  6945.66  82.6815
 47.9116  6951.65  82.4389
 47.9536  6968.9  82.4862
 47.9956  6813.24  82.2459
 48.0376  6914.55  82.6294
 48.0796  6935.49  82.8872
 48.1216  7063.5  83.4654
 48.1636  7069.4  83.0787
 48.2056  6911.88  82.408
 48.2476  7021.9  83.3644
 48.2896  6946.19  82.8284
 48.3316  6820.06  82.0195
 48.3736  6896.21  82.4941
 48.4156  6892.38  82.3249
 48.4576  6900  82.6591
 48.4996  6944.33  82.3882
 48.5416  7028.56  83.2081
 48.5836  6914.37  82.2154
 48.6256  6931.7  82.5157
 48.6676  6941.02  83.0837
 48.7096  6859.64  81.8816
 48.7516  6821.88  81.7848
 48.7936  6846.18  82.0025
 48.8356  6869.27  82.1881
 48.8776  6851.3  82.5629
 48.9196  6977.65  82.7771
 48.9616  6818.51  82.1993
 49.0036  6756.57  82.1632
 49.0456  6752.41  82.1174
 49.0876  6759.31  81.8075
 49.1296  6706.4  81.5477
 49.1716  6674.36  81.2354
 49.2136  6908.89  82.5643
 49.2556  6857.57  82.2918
 49.2976  6889.59  82.5552
 49.3396  6656.26  81.1981
 49.3816  6878.98  81.9736
 49.4236  6860.99  82.2984
 49.4656  6687.27  81.258
 49.5076  6899.87  82.2954
 49.5496  6755.73  81.3787
 49.5916  6822.98  81.8162
 49.6336  6672.48  81.1092
 49.6756  6782.18  82.0097
 49.7176  6786.06  81.9685
 49.7596  6872.11  82.4274
 49.8016  6887.82  82.2788
 49.8436  6750.04  81.733
 49.8856  6717.03  81.5391
 49.9276  6593.86  80.8837
 49.9696  6756.59  81.8635
 50.0116  6693.55  81.6165
 50.0536  6707.43  81.6438
 50.0956  6689.36  81.6022
 50.1376  6678.31  81.2356
 50.1796  6613.75  81.1078
 50.2216  6634.85  81.235
 50.2636  6587.51  80.5718
 50.3056  6675.68  81.2759
 50.3476  6752.64  81.7694
 50.3896  6605.73  80.8435
 50.4316  6781.19  81.7468
 50.4736  6626.27  81.0215
 50.5156  6654.45  81.1876
 50.5576  6662.54  80.9887
 50.5996  6651  81.2046
 50.6416  6671.02  81.2532
 50.6836  6620.39  81.003
 50.7256  6646.21  81.091
 50.7676  6624.71  81.2237
 50.8096  6622.72  80.8063
 50.8516  6538.16  80.6945
 50.8936  6517.22  80.3478
 50.9356  6688.28  81.5043
 50.9776  6628.14  81.2881
 51.0196  6414.42  80.0941
 51.0616  6486.12  79.8797
 51.1036  6549.48  80.6202
 51.1456  6576.08  80.6955
 51.1876  6576.87  80.0568
 51.2296  6464.15  79.9873
 51.2716  6568.74  80.3454
 51.3136  6536.97  80.5934
 51.3556  6499.78  80.0006
 51.3976  6443.06  79.7965
 51.4396  6390.83  79.769
 51.4816  6467.52  80.1068
 51.5236  6552.53  80.7096
 51.5656  6514.01  80.085
 51.6076  6514.42  80.1643
 51.6496  6528.07  80.4417
 51.6916  6442.41  80.255
 51.7336  6488.21  80.6355
 51.7756  6321.66  79.2954
 51.8176  6468.3  80.3029
 51.8596  6354.11  79.6182
 51.9016  6597.59  80.7439
 51.9436  6412.08  81.0064
 51.9856  6393.78  81.3226
 52.0276  6438.69  80.1552
 52.0696  6458.79  80.3402
 52.1116  6457.83  80.4495
 52.1536  6426.72  80.1392
 52.1956  6453.02  79.7875
 52.2376  6517.94  80.3583
 52.2796  6508.32  80.1113
 52.3216  6199.19  78.8498
 52.3636  6474.15  80.1649
 52.4056  6422.01  79.6938
 52.4476  6346.19  79.5843
 52.4896  6388.9  79.9045
 52.5316  6349.81  79.7044
 52.5736  6362.92  79.5229
 52.6156  6359.59  79.8646
 52.6576  6496.19  80.1809
 52.6996  6325.72  80.0675
 52.7416  6354.53  80.1085
 52.7836  6386.73  80.2025
 52.8256  6367.93  79.3216
 52.8676  6229.93  79.0061
 52.9096  6407.18  80.2086
 52.9516  6318.38  80.0163
 52.9936  6266.46  80.0619
 53.0356  6263.09  79.061
 53.0776  6254.81  79.2877
 53.1196  6339.8  79.9267
 53.1616  6181.73  78.9707
 53.2036  6146.24  78.7018
 53.2456  6169.78  78.9435
 53.2876  6165.51  78.6345
 53.3296  6141.28  78.7957
 53.3716  6301.05  79.5616
 53.4136  6266.75  79.4868
 53.4556  6176.97  78.9532
 53.4976  6187.07  78.8696
 53.5396  6195.13  79.3065
 53.5816  6174.23  78.8144
 53.6236  6127.51  78.8463
 53.6656  6125.55  78.4758
 53.7076  6233.54  79.1229
 53.7496  6193.12  78.9831
 53.7916  6160.72  78.9021
 53.8336  6082.22  78.2975
 53.8756  6067.63  78.7399
 53.9176  6138.45  78.5562
 53.9596  6287.13  80.2729
 54.0016  6178.76  78.9136
 54.0436  6198.81  79.2575
 54.0856  6251.36  79.025
 54.1276  6157.14  78.626
 54.1696  6128.97  78.6009
 54.2116  6140.09  78.4429
 54.2536  6185.09  78.5544
 54.2956  6246.89  78.9871
 54.3376  6095.78  78.5023
 54.3796  6168.28  78.865
 54.4216  6267.57  79.5379
 54.4636  6224.31  79.2306
 54.5056  6201.49  78.9113
 54.5476  6117.05  78.6916
 54.5896  6136.91  78.663
 54.6316  6194.88  78.8902
 54.6736  6215.03  79.0423
 54.7156  6159.7  78.7552
 54.7576  6108.85  78.431
 54.7996  6117.94  78.6182
 54.8416  6171.39  79.0162
 54.8836  6091.43  78.6121
 54.9256  6162.27  78.8185
 54.9676  6199.47  78.9167
 55.0096  6221.04  79.1262
 55.0516  6128.21  78.6951
 55.0936  6175.05  78.6864
 55.1356  6135.8  78.4864
 55.1776  6151.22  78.845
 55.2196  6178.22  78.8046
 55.2616  6242.08  79.425
 55.3036  6046.43  78.3302
 55.3456  6072.03  78.6433
 55.3876  6131.52  78.7705
 55.4296  6135.37  78.7765
 55.4716  6165.51  78.9932
 55.5136  6165.81  78.7608
 55.5556  6168.12  78.8449
 55.5976  6104.85  78.4976
 55.6396  6070.91  78.2238
 55.6816  6049.95  77.9716
 55.7236  6133.14  78.6483
 55.7656  6184.04  78.633
 55.8076  6200.12  78.7211
 55.8496  6113.37  78.4777
 55.8916  6138.72  78.8119
 55.9336  6109.62  78.476
 55.9756  6076.77  78.1596
 56.0176  6019.71  77.9394
 56.0596  6117.05  78.5501
 56.1016  6122.98  78.6235
 56.1436  6066.54  78.4926
 56.1856  6058.97  78.195
 56.2276  6023.93  78.0188
 56.2696  6016.74  77.9378
 56.3116  6001.13  78.2397
 56.3536  6030.7  78.0998
 56.3956  6085.83  78.4447
 56.4376  6012.91  78.0056
 56.4796  6085.33  78.2843
 56.5216  6039.96  78.358
 56.5636  6104.57  78.3681
 56.6056  6048.88  78.2342
 56.6476  6025.95  77.7236
 56.6896  6098.58  78.6216
 56.7316  6034.45  78.1268
 56.7736  6051.61  78.2401
 56.8156  6089.19  78.4845
 56.8576  6006.66  77.8905
 56.8996  6042.9  78.0593
 56.9416  6059.89  78.3389
 56.9836  5985.15  77.5039
 57.0256  5999.43  77.9081
 57.0676  6073.37  78.5143
 57.1096  6105.64  78.5079
 57.1516  6061.78  78.2576
 57.1936  6073.51  78.1186
 57.2356  6113.37  78.6958
 57.2776  5985.86  77.813
 57.3196  5956.27  77.9935
 57.3616  6103.41  78.4469
 57.4036  6109.79  78.55
 57.4456  6032.24  78.0137
 57.4876  6070.34  78.1202
 57.5296  5977.74  77.7586
 57.5716  5958.7  77.722
 57.6136  6043.82  78.1003
 57.6556  5972.44  77.7708
 57.6976  6043.23  78.0561
 57.7396  5967.73  77.9371
 57.7816  5938.43  78.0957
 57.8236  5960.13  78.0385
 57.8656  5945.78  77.6058
 57.9076  6035.75  78.2248
 57.9496  6019.51  78.4601
 57.9916  6019.08  77.9296
 58.0336  6042.54  78.3978
 58.0756  6037.47  77.9874
 58.1176  6036.23  77.9974
 58.1596  5947.69  77.9814
 58.2016  6064.24  77.9899
 58.2436  6060.15  78.3584
 58.2856  5977.47  77.7445
 58.3276  6064.35  78.6769
 58.3696  5880.52  77.2254
 58.4116  6128.51  78.704
 58.4536  6043.96  78.0412
 58.4956  6069.99  78.3961
 58.5376  6160.4  78.5463
 58.5796  5993.54  77.8974
 58.6216  6096.22  78.376
 58.6636  6042.27  78.2451
 58.7056  6081.61  78.352
 58.7476  5974.24  78.0995
 58.7896  5969.71  77.7161
 58.8316  5955.93  77.6188
 58.8736  5995.09  77.8872
 58.9156  5994.06  77.9189
 58.9576  6121.84  78.9339
 58.9996  6184.19  78.6977
 59.0416  6170.33  78.9883
 59.0836  6110.38  78.5276
 59.1256  6061.04  78.6058
 59.1676  6002.54  78.8231
 59.2096  6077.77  78.6448
 59.2516  6258.53  79.3792
 59.2936  5971.66  77.8649
 59.3356  6073.39  78.4027
 59.3776  6120.05  78.8735
 59.4196  6107.24  78.727
 59.4616  6095.66  78.5111
 59.5036  6045.09  78.2201
 59.5456  6144.19  78.5493
 59.5876  6082.42  78.3453
 59.6296  6119.15  78.6512
 59.6716  5983.59  77.8328
 59.7136  6059.52  78.3134
 59.7556  6038.42  78.3134
 59.7976  6018.89  77.9292
 59.8396  6091.9  78.2942
 59.8816  6022.41  78.3863
 59.9236  6000.12  77.8906
 59.9656  6050.31  78.4704
 60.0076  6133.16  78.3644
 60.0496  6100.46  78.6613
 60.0916  6236.6  78.9432
 60.1336  6042.07  78.81
 60.1756  6142.16  80.6546
 60.1996  0.0000000E+00  0.0000000E+00