File: docs/examples/opeando_xrd/IS17_D/Data/IS17_D/17_Da_f00133.xye
# /beamlines/bl04/projects/cycle2025-II/20250340211-lsimonelli/DATA/IS17_D/17_Da_f00133.xye : mythproc.py merge -s 0.006 -l 0.5 -f /beamlines/bl04/inhouse/ff/FlatField/ff_20Nov2024rod8mm60s_17keV.raw -b True -c true -o xye /beamlines/bl04/projects/cycle2025-II/20250340211-lsimonelli/DATA/IS17_D/17_Da_00133.dat
# IsMon = [6778536, 6776074, 6768377]  IsPos = [-1.4999, -2.4884, -3.4988]
# Wave = 0.4962  CalPath /beamlines/bl04/projects/cycle2025-II/20250340211-lsimonelli/DATA/Align/Si_Pos1_25keV_f00001.cal
# Date = 2025-09-25_06:37:41 Dt = 4.8000  Bin = 0.0060  <imon> = 6774329 +/- 4327 (Min/Max) 6768377 / 6778536
# icurr 253.1169  mocoIn 1.7260E-05  mocoOut 0.8115  i15 7.09176e+06  imon 6.77433e+06  i7 4.6667  iEMpd_timer 4.8000  iEMpd_1 3.4480E-08  iEMpd_2 7.9464E-08  iEMpd_3 1.7505E-08  iEMpd_4 4.8377E-08  iEMhp_timer 4.8000  iEMhp_1 4.9444E-06  iEMhp_2 -2.7179E-08  iEMhp_3 -2.4253E-08  iEMhp_4 -2.0472E-08
#      9776
 1.5856  41077.4  208.051
 1.6276  48491.9  222.17
 1.6696  54348.7  234.375
 1.7116  62871.4  252.576
 1.7536  72610.3  270.278
 1.7956  77302.5  279.571
 1.8376  73275.8  272.624
 1.8796  61631.2  248.191
 1.9216  49937.3  224.293
 1.9636  42162.9  205.25
 2.0056  37672  193.26
 2.0476  35022.1  188.382
 2.0896  33490.8  183.137
 2.1316  32849.4  180.504
 2.1736  31083.5  176.978
 2.2156  31403.2  176.458
 2.2576  30089.3  173.345
 2.2996  29476.3  172.201
 2.3416  29548.5  171.033
 2.3836  28875.8  169.182
 2.4256  28205  167.75
 2.4676  27596.5  165.695
 2.5096  27578.4  165.695
 2.5516  27995.1  170.824
 2.5936  47235.6  217.415
 2.6356  26894.2  164.744
 2.6776  26097.5  161.17
 2.7196  25718.5  160.519
 2.7616  25808.6  160.583
 2.8036  25278  159.091
 2.8456  25175.4  159.381
 2.8876  24665.3  157.641
 2.9296  24400.4  156.91
 2.9716  24371.7  156.314
 3.0136  24006.7  155.204
 3.0556  24111.8  155.933
 3.0976  23915.7  154.242
 3.1396  23741.6  154.394
 3.1816  23375.2  153.132
 3.2236  23292.3  152.857
 3.2656  23464.5  152.471
 3.3076  23256.1  153.231
 3.3496  23469.9  152.885
 3.3916  23784.8  153.728
 3.4336  24312.4  156.001
 3.4756  24786.9  157.435
 3.5176  25470.1  159.398
 3.5596  25443  161.76
 3.6016  25746.1  160.343
 3.6436  24864.7  158.671
 3.6856  24339.2  155.295
 3.7276  23314.1  153.065
 3.7696  23418.4  153.626
 3.8116  22816.4  151.508
 3.8536  22939.2  151.851
 3.8956  22735.1  150.998
 3.9376  22862.3  151.668
 3.9796  22598.6  150.306
 4.0216  22978.7  150.598
 4.0636  22780.3  151.418
 4.1056  22876.7  151.373
 4.1476  23029.2  152.189
 4.1896  23258.7  152.816
 4.2316  23424.9  153.191
 4.2736  23872.1  154.428
 4.3156  24043.7  155.228
 4.3576  24811.2  157.59
 4.3996  25139.1  158.885
 4.4416  25567.7  159.826
 4.4836  26025.6  161.397
 4.5256  26609.2  163.802
 4.5676  26368.8  163.33
 4.6096  26918.8  163.669
 4.6516  27449.5  164.998
 4.6936  27505.8  165.997
 4.7356  27931.2  167.085
 4.7776  27754.9  166.401
 4.8196  27425.6  166.026
 4.8616  26994.7  164.217
 4.9036  26605.3  162.759
 4.9456  26666.2  163.61
 4.9876  25986.1  161.417
 5.0296  26191.5  161.876
 5.0716  26087.1  162.34
 5.1136  26381.3  162.945
 5.1556  26636.1  163.204
 5.1976  28206.8  167.908
 5.2396  27292.4  164.88
 5.2816  27038.6  164.556
 5.3236  27276.8  165.001
 5.3656  26781.4  164.415
 5.4076  26516.2  163.752
 5.4496  26818  164.173
 5.4916  26633.5  163.356
 5.5336  26683.5  163.527
 5.5756  26580.1  163.215
 5.6176  26886.6  163.595
 5.6596  27084.6  165.165
 5.7016  27237.5  164.907
 5.7436  27422.8  165.742
 5.7856  27222.6  165.192
 5.8276  27718.7  166.425
 5.8696  27823.1  166.898
 5.9116  27762.9  167.328
 5.9536  27917.4  167.525
 5.9956  28329.7  168.123
 6.0376  28345.2  168.819
 6.0796  28695.3  169.692
 6.1216  28669.2  169.831
 6.1636  28790.8  169.235
 6.2056  28816  169.994
 6.2476  29020.4  170.453
 6.2896  29286.3  170.91
 6.3316  28947.8  170.08
 6.3736  29155  170.594
 6.4156  29380.3  171.132
 6.4576  29366.3  170.712
 6.4996  29639.5  172.001
 6.5416  29505.9  171.737
 6.5836  29812.5  172.872
 6.6256  29612.8  171.84
 6.6676  30384.5  173.632
 6.7096  29934.5  173.176
 6.7516  30511.9  174.51
 6.7936  30818.3  174.807
 6.8356  31277.8  176.183
 6.8776  31422.2  177.413
 6.9196  31161.3  177.064
 6.9616  31812.5  178.339
 7.0036  31794  177.944
 7.0456  31852.4  177.401
 7.0876  32078.9  179.731
 7.1296  32180  179.146
 7.1716  31954.2  178.054
 7.2136  31708.2  177.146
 7.2556  31902.3  177.848
 7.2976  31956.8  178.501
 7.3396  31875.1  178.48
 7.3816  32156.1  179.488
 7.4236  32286.1  179.133
 7.4656  32280.8  178.605
 7.5076  32798.4  180.166
 7.5496  32916  181.054
 7.5916  32732.1  180.553
 7.6336  33256.6  181.893
 7.6756  33234.7  181.684
 7.7176  33451.6  182.572
 7.7596  33474  183.904
 7.8016  34719.9  189.498
 7.8436  34471.2  185.513
 7.8856  34777.2  185.936
 7.9276  35188.3  187.452
 7.9696  35381.8  188.265
 8.0116  36619.6  190.045
 8.0536  36731.8  190.597
 8.0956  37171.3  192.908
 8.1376  36796.9  191.424
 8.1796  37256.8  193.146
 8.2216  37996.1  193.795
 8.2636  38384.4  195.033
 8.3056  38417.9  195.923
 8.3476  39147.9  197.07
 8.3896  38744.3  196.133
 8.4316  38893.1  196.677
 8.4736  38737.6  195.744
 8.5156  38751.4  196.059
 8.5576  38243.1  195.738
 8.5996  38222.3  194.561
 8.6416  38224.3  195.823
 8.6836  38325  195.951
 8.7256  38851.9  196.682
 8.7676  38714.7  199.308
 8.8096  38613.9  196.28
 8.8516  37763.7  193.728
 8.8936  37987.4  194.195
 8.9356  37221.5  192.533
 8.9776  37659  193.801
 9.0196  37014.4  191.775
 9.0616  37803.8  193.292
 9.1036  37573.2  193.925
 9.1456  37118.2  192.115
 9.1876  37011.8  191.764
 9.2296  37066.9  191.324
 9.2716  36659.4  190.313
 9.3136  36582.5  190.096
 9.3556  36801.6  190.644
 9.3976  35252.2  187.098
 9.4396  35680.6  188.147
 9.4816  35306.7  186.994
 9.5236  35271.3  186.836
 9.5656  35203.4  186.987
 9.6076  35000.2  187.008
 9.6496  34772  186.293
 9.6916  34868.1  186.547
 9.7336  34436.3  185.14
 9.7756  35046.2  188.063
 9.8176  34229.1  185.284
 9.8596  33899.2  182.816
 9.9016  33438.1  181.563
 9.9436  33115.2  180.592
 9.9856  32958  180.399
 10.0276  32483.7  180.211
 10.0696  32900.3  180.388
 10.1116  31959.3  178.046
 10.1536  31753.1  177.646
 10.1956  31261.3  175.86
 10.2376  31077.8  174.837
 10.2796  31060  174.922
 10.3216  30907.4  174.76
 10.3636  30791.9  174.465
 10.4056  31413.3  176.635
 10.4476  31388.4  176.174
 10.4896  32565.9  178.876
 10.5316  31030.1  175.337
 10.5736  29998.5  172.814
 10.6156  29881.2  172.231
 10.6576  31464.8  175.246
 10.6996  29620.5  170.711
 10.7416  29441.1  170.434
 10.7836  29326.8  170.841
 10.8256  28700.7  169.451
 10.8676  28768.8  169.173
 10.9096  28402.7  168.142
 10.9516  28168.2  166.359
 10.9936  28370.8  167.165
 11.0356  28347.4  167.737
 11.0776  28568.6  167.679
 11.1196  28251.3  167.516
 11.1616  27530  165.042
 11.2036  27758.6  165.581
 11.2456  28217.5  167.669
 11.2876  27430.2  165.027
 11.3296  27311.8  164.584
 11.3716  27909.2  166.063
 11.4136  27991  167.23
 11.4556  28125.7  167.302
 11.4976  28676.1  167.847
 11.5396  27930  165.802
 11.5816  27226.5  164.181
 11.6236  26603  162.501
 11.6656  26507.5  161.353
 11.7076  26181.8  161.221
 11.7496  26140.3  165.075
 11.7916  26231.1  160.625
 11.8336  25697  159.893
 11.8756  25759.1  159.596
 11.9176  25629.9  158.839
 11.9596  25254.6  157.856
 12.0016  25310.2  158.85
 12.0436  25168.9  157.809
 12.0856  24763.3  157.074
 12.1276  24900.5  157.426
 12.1696  24852.2  156.398
 12.2116  25394.9  158.097
 12.2536  25147.2  158.16
 12.2956  24863.2  156.602
 12.3376  24830.8  156.691
 12.3796  24961.1  157.583
 12.4216  24978.5  156.842
 12.4636  24900.5  157.523
 12.5056  24577.2  155.768
 12.5476  24950.3  156.468
 12.5896  24681.2  156.265
 12.6316  24485.6  155.784
 12.6736  24649.9  156.812
 12.7156  24516.1  156.235
 12.7576  24519.1  156.5
 12.7996  24869.3  156.238
 12.8416  24586.5  156.413
 12.8836  25256.6  158.366
 12.9256  25267  157.381
 12.9676  25377.5  158.172
 13.0096  24933.1  157.867
 13.0516  25072  157.348
 13.0936  24992.6  157.49
 13.1356  25421.3  157.815
 13.1776  25139  157.935
 13.2196  25200.3  157.781
 13.2616  24976  157.403
 13.3036  25215.5  158.115
 13.3456  25038.2  157.928
 13.3876  25120.3  157.447
 13.4296  25017.7  157.291
 13.4716  25188.5  157.427
 13.5136  25063.7  157.196
 13.5556  25157.3  158.101
 13.5976  25109.6  158.09
 13.6396  25461  158.579
 13.6816  25071.2  157.846
 13.7236  25828.8  159.854
 13.7656  24931.7  157.576
 13.8076  25331.1  157.61
 13.8496  25018.8  157.232
 13.8916  24895.1  157.873
 13.9336  24783.7  156.743
 13.9756  24784.4  156.08
 14.0176  24486.3  155.841
 14.0596  24530.3  155.931
 14.1016  24252.9  155.444
 14.1436  24082.9  154.013
 14.1856  23724.3  153.171
 14.2276  23526.8  153.002
 14.2696  23878  153.997
 14.3116  23561.8  152.885
 14.3536  23205.4  151.892
 14.3956  23045.3  151.087
 14.4376  23290.9  151.676
 14.4796  23342.9  151.835
 14.5216  22701.6  150.539
 14.5636  22862.4  150.63
 14.6056  22842.5  150.138
 14.6476  22556.8  148.416
 14.6896  22191.6  147.753
 14.7316  21916.1  147.873
 14.7736  21961.6  147.155
 14.8156  21683.4  146.262
 14.8576  21460.4  145.358
 14.8996  21288.6  145.989
 14.9416  20894.6  144.638
 14.9836  20864.1  144.501
 15.0256  20770.4  143.109
 15.0676  20655.3  143.03
 15.1096  20580  142.503
 15.1516  20242.3  141.877
 15.1936  20365.6  141.741
 15.2356  19976.3  140.663
 15.2776  20015.5  140.381
 15.3196  19578.6  139.852
 15.3616  19447.2  139.149
 15.4036  19353.8  138.653
 15.4456  19507.8  138.856
 15.4876  19200.8  137.433
 15.5296  19060.4  137.208
 15.5716  19077.2  136.875
 15.6136  18945.4  136.72
 15.6556  19213.7  136.922
 15.6976  18998.4  136.441
 15.7396  18667.9  135.667
 15.7816  18366.9  134.064
 15.8236  18202.2  134.179
 15.8656  18231  134.062
 15.9076  18065.8  133.275
 15.9496  17953.4  135.634
 15.9916  17896  135.873
 16.0336  17552.2  131.437
 16.0756  17887.4  133.013
 16.1176  17659  132.237
 16.1596  17037.4  131.067
 16.2016  17448.8  131.389
 16.2436  17322.8  131.289
 16.2856  17249.4  130.546
 16.3276  16896.3  129.62
 16.3696  17079.1  130.141
 16.4116  16973.4  130.202
 16.4536  17095.1  130.441
 16.4956  16961.3  129.649
 16.5376  16976.1  129.919
 16.5796  16886.7  128.92
 16.6216  16934.3  129.417
 16.6636  16915.5  129.525
 16.7056  16703.4  128.555
 16.7476  16860  128.679
 16.7896  16857  129.429
 16.8316  16713.6  128.836
 16.8736  16861.1  129.649
 16.9156  16917.2  130.226
 16.9576  16495.8  129.385
 16.9996  16563.3  130.155
 17.0416  16632.6  128.735
 17.0836  16426.4  127.678
 17.1256  16273.2  127.103
 17.1676  16483.3  127.911
 17.2096  16171.4  126.572
 17.2516  15963.8  125.539
 17.2936  15917.5  125.685
 17.3356  15703.5  124.836
 17.3776  15731.5  125.14
 17.4196  15951.1  125.706
 17.4616  15724.1  124.723
 17.5036  15771.2  125.281
 17.5456  15485.3  124.782
 17.5876  15650.6  124.482
 17.6296  15390.7  123.263
 17.6716  15337.2  123.615
 17.7136  15387.4  123.966
 17.7556  15404.5  124.336
 17.7976  15393.1  124.027
 17.8396  15348.6  123.333
 17.8816  15279.8  123.617
 17.9236  15110.7  122.736
 17.9656  15454.1  124.697
 18.0076  15403.8  124.071
 18.0496  15638.1  124.117
 18.0916  16723.8  128.915
 18.1336  16093.2  126.573
 18.1756  15662.3  124.385
 18.2176  15566.8  124.237
 18.2596  15036.2  121.834
 18.3016  15486.5  123.906
 18.3436  15486.3  123.907
 18.3856  14978.3  121.993
 18.4276  15146.2  122.355
 18.4696  15075  122.16
 18.5116  15073.5  122.449
 18.5536  15010  122.569
 18.5956  14887.1  121.593
 18.6376  14862.2  121.901
 18.6796  14815  121.021
 18.7216  14888.7  121.818
 18.7636  14611.9  120.666
 18.8056  14567.7  120.429
 18.8476  14414.9  120.44
 18.8896  14526.1  120.22
 18.9316  14777.8  121.255
 18.9736  14665.3  120.467
 19.0156  14717.5  121.091
 19.0576  14623.3  119.547
 19.0996  14754.8  120.819
 19.1416  14315.5  119.388
 19.1836  14350.1  119.144
 19.2256  14324  119.254
 19.2676  14483  120.005
 19.3096  14453.3  120.138
 19.3516  14345.9  119.64
 19.3936  14311.2  119.39
 19.4356  14463.7  119.882
 19.4776  14381  119.653
 19.5196  14390.3  119.541
 19.5616  14349.4  119.631
 19.6036  14442.2  119.514
 19.6456  14315.8  119.104
 19.6876  14633.5  120.067
 19.7296  14372.8  119.433
 19.7716  14415.6  119.783
 19.8136  14650.7  120.959
 19.8556  15083.6  122.206
 19.8976  15056.1  122.162
 19.9396  15185.3  122.249
 19.9816  15051.6  121.96
 20.0236  14853.6  121.374
 20.0656  14670.8  120.628
 20.1076  14294.9  119.522
 20.1496  14185.1  119.079
 20.1916  13966  117.66
 20.2336  14096.1  118.148
 20.2756  13890.2  117.709
 20.3176  13802.6  117.088
 20.3596  13961.6  117.743
 20.4016  13997.4  117.684
 20.4436  13878.3  117.754
 20.4856  13707.8  116.802
 20.5276  13605.9  116.848
 20.5696  13674.5  116.581
 20.6116  13515.8  116.19
 20.6536  13623.7  116.156
 20.6956  13505.6  115.771
 20.7376  13663.3  116.693
 20.7796  13429.6  115.367
 20.8216  13715.7  116.292
 20.8636  13678.2  116.498
 20.9056  13780.9  116.895
 20.9476  13500  115.522
 20.9896  13736.8  116.404
 21.0316  13631.6  115.864
 21.0736  13617.7  116.328
 21.1156  13566.6  116.275
 21.1576  13383.4  115.528
 21.1996  13351  115.368
 21.2416  13205.7  114.56
 21.2836  13386.2  115.31
 21.3256  13237.4  114.748
 21.3676  13492.9  115.401
 21.4096  13304.7  114.903
 21.4516  13218.1  114.407
 21.4936  13021.5  113.808
 21.5356  13205  114.552
 21.5776  13301.7  114.801
 21.6196  13190.7  114.357
 21.6616  13217.4  114.553
 21.7036  13187  114.21
 21.7456  13223.8  114.443
 21.7876  13046.6  113.418
 21.8296  13028.3  113.199
 21.8716  12908  112.897
 21.9136  13321.7  114.907
 21.9556  13146.8  113.817
 21.9976  12933.5  112.908
 22.0396  12954.8  113.254
 22.0816  13108.1  114.483
 22.1236  13200.8  114.321
 22.1656  13119.3  114.103
 22.2076  13111.6  113.545
 22.2496  12923.1  112.744
 22.2916  13116.8  113.477
 22.3336  12986.5  113.636
 22.3756  12975.7  113.315
 22.4176  12972.1  113.155
 22.4596  12898.2  113.438
 22.5016  12982.8  113.278
 22.5436  13035.5  113.407
 22.5856  13062.4  113.764
 22.6276  12864.7  113.025
 22.6696  12854.4  113.347
 22.7116  12943.6  113.235
 22.7536  12991.6  113.431
 22.7956  12956.6  112.59
 22.8376  12946.3  113.094
 22.8796  12985.8  113.055
 22.9216  13007.3  113.712
 22.9636  12964.4  112.656
 23.0056  12884.5  112.445
 23.0476  13176.8  114.29
 23.0896  13417.3  114.693
 23.1316  13097.7  113.763
 23.1736  12915.8  115.931
 23.2156  13006.5  113.705
 23.2576  12847.3  113.106
 23.2996  12964  113.431
 23.3416  12733.2  112.901
 23.3836  12905  112.906
 23.4256  12906.1  113.011
 23.4676  12735.1  111.974
 23.5096  12852.9  113.17
 23.5516  12705.2  111.8
 23.5936  12981  113.913
 23.6356  13169.9  114.413
 23.6776  12837.4  113.186
 23.7196  12635.9  111.855
 23.7616  12877.4  112.847
 23.8036  12922.9  113.059
 23.8456  12973.3  112.875
 23.8876  12526.1  111.229
 23.9296  12513.3  111.686
 23.9716  12461.6  110.643
 24.0136  12554.3  111.952
 24.0556  12501.6  111.459
 24.0976  12363.2  110.647
 24.1396  12473.6  113.824
 24.1816  12376.7  111.769
 24.2236  12306.1  111.041
 24.2656  12261.8  110.31
 24.3076  12373.5  111.069
 24.3496  12355.7  110.878
 24.3916  12056.5  109.576
 24.4336  12167.2  110.284
 24.4756  12284.8  110.686
 24.5176  12122.6  109.597
 24.5596  11922  108.814
 24.6016  11894.5  108.977
 24.6436  12021.5  109.034
 24.6856  11866  108.095
 24.7276  11967.6  108.879
 24.7696  11963.2  108.972
 24.8116  11870.1  108.733
 24.8536  11744.1  108.144
 24.8956  11707.7  107.716
 24.9376  11644.3  107.358
 24.9796  11612.3  107.57
 25.0216  11487.5  107.097
 25.0636  11711  107.785
 25.1056  11328.7  106.72
 25.1476  11605.1  109.74
 25.1896  11534.1  107.849
 25.2316  11595  107.406
 25.2736  11555.1  106.857
 25.3156  11504.1  106.701
 25.3576  11483.7  107.036
 25.3996  11440.5  106.814
 25.4416  11434  106.767
 25.4836  11274.9  106.547
 25.5256  11324.7  106.141
 25.5676  11433.4  106.371
 25.6096  11306.9  106.364
 25.6516  11397.4  106.277
 25.6936  11214.4  105.734
 25.7356  11383.7  106.676
 25.7776  11310.5  105.932
 25.8196  11214.7  105.72
 25.8616  11268.6  105.899
 25.9036  11350.8  105.742
 25.9456  11203.2  105.647
 25.9876  11195.6  105.679
 26.0296  11344.2  105.881
 26.0716  11088  105.098
 26.1136  11278  105.946
 26.1556  11350  105.666
 26.1976  11129.4  105.56
 26.2396  11316.1  105.581
 26.2816  11203.9  105.666
 26.3236  11230.5  105.954
 26.3656  11106  105.082
 26.4076  11206.6  105.78
 26.4496  11716.3  107.65
 26.4916  11315.8  105.775
 26.5336  11126.4  105.219
 26.5756  11842.7  108.352
 26.6176  11099.9  105.014
 26.6596  11025.4  104.964
 26.7016  10974.5  104.471
 26.7436  10972.8  104.593
 26.7856  10713.2  103.34
 26.8276  10834.1  103.869
 26.8696  10977.3  104.432
 26.9116  10827.6  103.658
 26.9536  10775.3  103.449
 26.9956  10850.9  103.853
 27.0376  10853.4  104.06
 27.0796  10906.2  104.062
 27.1216  10749.8  103.377
 27.1636  10692.5  103.282
 27.2056  10671.3  103.056
 27.2476  10760  103.487
 27.2896  10787.4  103.738
 27.3316  10675.7  102.9
 27.3736  10549.7  102.569
 27.4156  10485.8  102.08
 27.4576  10567.5  102.723
 27.4996  10504.7  101.999
 27.5416  10670.5  103.133
 27.5836  10714.4  103.152
 27.6256  10865.7  104.06
 27.6676  10796.1  103.747
 27.7096  10542.1  102.377
 27.7516  10593.5  102.785
 27.7936  10592  102.936
 27.8356  10520.1  102.21
 27.8776  10429.5  101.804
 27.9196  10372.2  101.384
 27.9616  10645  102.906
 28.0036  10356.5  101.471
 28.0456  10366.8  101.66
 28.0876  10335.6  101.594
 28.1296  10318.6  101.35
 28.1716  10328.5  101.399
 28.2136  10359.4  101.525
 28.2556  10134.9  100.524
 28.2976  10156.7  100.629
 28.3396  10294.1  101.079
 28.3816  10284.8  101.043
 28.4236  10284.3  101.199
 28.4656  10187.3  100.752
 28.5076  10104.5  99.9751
 28.5496  10158.1  100.505
 28.5916  10223.7  100.627
 28.6336  10189.1  100.804
 28.6756  10133.3  99.7281
 28.7176  10126.7  100.248
 28.7596  10198.7  100.503
 28.8016  10166  100.374
 28.8436  9981.58  99.7002
 28.8856  10245.2  100.862
 28.9276  10157  100.676
 28.9696  9984.98  99.4747
 29.0116  10082.1  100.159
 29.0536  9827.34  99.0703
 29.0956  10043.6  99.8735
 29.1376  9977.18  99.4996
 29.1796  9989.46  99.6018
 29.2216  9930.49  99.1532
 29.2636  9947.11  99.3031
 29.3056  10006.6  99.3983
 29.3476  9872.51  99.2571
 29.3896  9950.84  99.7468
 29.4316  10122.4  99.9485
 29.4736  9893.27  98.885
 29.5156  10091.4  99.7726
 29.5576  9935.14  99.7434
 29.5996  9933.24  98.9927
 29.6416  9859.84  98.733
 29.6836  10005  99.392
 29.7256  9917.28  99.5309
 29.7676  9873.95  98.9825
 29.8096  9837  98.7271
 29.8516  9648.38  98.1148
 29.8936  9946.67  99.7123
 29.9356  10084.5  100.15
 29.9776  9762.99  98.6962
 30.0196  9844.94  98.4792
 30.0616  9827.45  98.7801
 30.1036  9843.98  98.6725
 30.1456  9678.12  98.0938
 30.1876  9769.9  98.5198
 30.2296  9704.5  98.1512
 30.2716  9757.36  98.0457
 30.3136  9837.3  99.3127
 30.3556  9769.85  98.9712
 30.3976  9670.49  100.004
 30.4396  9945.54  98.6875
 30.4816  9792.45  97.5268
 30.5236  9786.22  97.5093
 30.5656  9670.84  97.6017
 30.6076  9768.83  97.5174
 30.6496  9754.25  97.8318
 30.6916  9622.53  97.277
 30.7336  9507.3  96.8337
 30.7756  9622.44  97.511
 30.8176  9701.91  97.828
 30.8596  9723.93  97.706
 30.9016  9615.6  97.5038
 30.9436  9861.28  98.49
 30.9856  9609.91  97.3214
 31.0276  9558.36  96.6729
 31.0696  9529.98  97.1135
 31.1116  9414.9  96.5032
 31.1536  9577.72  97.2306
 31.1956  9530.91  97.0672
 31.2376  9363.08  96.2271
 31.2796  9662.16  97.2671
 31.3216  9432.57  96.0537
 31.3636  9561.32  97.3906
 31.4056  9534.21  98.6009
 31.4476  9469.92  96.1015
 31.4896  9393.09  96.2222
 31.5316  9545.69  96.3981
 31.5736  9847.83  97.7182
 31.6156  9622.84  96.6214
 31.6576  9529.23  96.2463
 31.6996  9581.82  96.1787
 31.7416  9341.42  96.0301
 31.7836  9384.81  95.2634
 31.8256  9411.04  95.6638
 31.8676  9521.72  96.2252
 31.9096  9353.27  95.7292
 31.9516  9281.46  95.5192
 31.9936  9338.01  95.6419
 32.0356  9498.2  96.5249
 32.0776  9540.28  96.6189
 32.1196  9335.07  95.6667
 32.1616  9450.63  95.7053
 32.2036  9196.43  94.9182
 32.2456  9337.85  96.0356
 32.2876  9461.62  96.1528
 32.3296  9233.99  94.9581
 32.3716  9279.28  95.3165
 32.4136  9347.54  95.8962
 32.4556  9451.98  95.7775
 32.4976  9326.05  95.061
 32.5396  9350.61  95.248
 32.5816  9240.18  94.8009
 32.6236  9340.57  95.3918
 32.6656  9324.4  95.8576
 32.7076  9296.83  95.3657
 32.7496  9241.27  94.7425
 32.7916  9295.87  94.9865
 32.8336  9336.24  95.2837
 32.8756  9291.52  94.7779
 32.9176  9200.58  94.7943
 32.9596  9195.12  94.8518
 33.0016  9222.89  94.7856
 33.0436  9304.78  95.3903
 33.0856  9255.4  95.1964
 33.1276  9034.17  93.7776
 33.1696  9154.42  94.2496
 33.2116  9215.01  94.7846
 33.2536  9166.39  94.5281
 33.2956  9206.75  94.8278
 33.3376  9022.9  93.6179
 33.3796  9107.12  94.2613
 33.4216  9158.75  94.1259
 33.4636  9132.6  94.1315
 33.5056  8948.91  93.4163
 33.5476  8948.45  93.4025
 33.5896  9244.51  94.7081
 33.6316  8945.52  93.482
 33.6736  8964.13  93.8311
 33.7156  8960.65  93.8547
 33.7576  9030.92  93.8478
 33.7996  9202.87  94.5107
 33.8416  8880.17  93.0125
 33.8836  9010.53  93.4739
 33.9256  8998.71  93.4599
 33.9676  8995.73  93.339
 34.0096  8927.08  93.2995
 34.0516  8970.56  93.1709
 34.0936  8866.35  92.8926
 34.1356  9076.86  93.729
 34.1776  8858.93  92.6105
 34.2196  8785.12  92.4013
 34.2616  8829.86  92.7697
 34.3036  8865.21  93.2007
 34.3456  8865.83  92.966
 34.3876  8797.11  92.5596
 34.4296  8906.81  92.8331
 34.4716  8933.19  93.1067
 34.5136  8870.51  92.9984
 34.5556  8850.41  93.1517
 34.5976  8809.33  92.7324
 34.6396  8828.33  92.538
 34.6816  8809.55  92.5485
 34.7236  8908.06  92.8547
 34.7656  9007.24  93.561
 34.8076  8738.95  92.477
 34.8496  8812.34  92.7422
 34.8916  8821.3  92.6516
 34.9336  8925.96  93.1651
 34.9756  8832.69  92.591
 35.0176  8740.45  92.641
 35.0596  8659.17  92.0287
 35.1016  8878.06  92.9565
 35.1436  8888.65  92.6935
 35.1856  8624.8  91.4318
 35.2276  8787.54  92.4758
 35.2696  8627.24  91.8167
 35.3116  8751.59  92.5781
 35.3536  8668.99  91.8397
 35.3956  8656.51  91.4757
 35.4376  8626.49  91.8646
 35.4796  8710.97  92.3845
 35.5216  8648.85  92.0186
 35.5636  8513.84  92.046
 35.6056  8634.2  91.7056
 35.6476  8721.24  92.0518
 35.6896  8752.87  92.3086
 35.7316  8513.42  91.0083
 35.7736  8642.79  91.905
 35.8156  8560.15  91.4543
 35.8576  8685.99  92.383
 35.8996  8753.43  92.7123
 35.9416  8564.16  91.2053
 35.9836  8517.47  91.3074
 36.0256  8622.97  91.889
 36.0676  8706.69  92.0875
 36.1096  8494.43  91.0966
 36.1516  8706  92.1142
 36.1936  8562.79  91.2002
 36.2356  8522.03  91.6262
 36.2776  8601.17  91.5386
 36.3196  8521.03  90.7668
 36.3616  8494.71  90.7567
 36.4036  8449.27  90.5696
 36.4456  8570.97  91.4285
 36.4876  8517.95  91.0929
 36.5296  8612.65  91.6369
 36.5716  8524.63  91.9601
 36.6136  8784.08  92.1038
 36.6556  8703.59  91.8958
 36.6976  8500.61  91.3136
 36.7396  8468.63  90.8567
 36.7816  8536.14  91.6103
 36.8236  8513.4  91.4015
 36.8656  8386.59  90.8063
 36.9076  8398.65  90.7335
 36.9496  8422.08  90.8646
 36.9916  8484.88  90.818
 37.0336  8547.4  91.4836
 37.0756  8571.06  91.3874
 37.1176  8299.79  90.1982
 37.1596  8439.41  90.9609
 37.2016  8491.44  91.4724
 37.2436  8416.53  90.3742
 37.2856  8321.74  90.1141
 37.3276  8481.46  90.3175
 37.3696  8338.97  90.4448
 37.4116  8445.65  90.9427
 37.4536  8215.45  89.5562
 37.4956  8385.2  90.5276
 37.5376  8409.7  92.2212
 37.5796  8261.98  91.3642
 37.6216  8149.95  89.0029
 37.6636  8246.49  89.4193
 37.7056  8225.95  89.5089
 37.7476  8337.23  89.632
 37.7896  8233.86  89.6063
 37.8316  8038.77  88.6799
 37.8736  8333.99  89.8405
 37.9156  8206.98  89.1428
 37.9576  8316  89.6199
 37.9996  8173.35  88.5624
 38.0416  8227.5  89.6746
 38.0836  8334.84  90.1627
 38.1256  8213.78  89.4332
 38.1676  8109.47  89.0316
 38.2096  8291.12  89.6297
 38.2516  8330.5  90.0707
 38.2936  8323.44  89.8041
 38.3356  8233.67  89.2629
 38.3776  8134.03  88.9816
 38.4196  8269.95  89.5823
 38.4616  8229.25  89.5964
 38.5036  8362.37  90.1529
 38.5456  8136.54  89.771
 38.5876  8151.03  89.8706
 38.6296  8120.53  88.6543
 38.6716  8133.17  88.5179
 38.7136  8058.16  88.049
 38.7556  7979.17  88.1164
 38.7976  8140.45  88.9469
 38.8396  8094.39  89.1516
 38.8816  8037.37  88.6124
 38.9236  8096.27  88.7495
 38.9656  8132.54  88.8589
 39.0076  8195.88  88.6031
 39.0496  8032.52  88.254
 39.0916  8118.2  88.3635
 39.1336  8087.54  88.6227
 39.1756  8106.44  88.7946
 39.2176  8116.15  89.3891
 39.2596  7990.26  88.6093
 39.3016  8049.49  88.4952
 39.3436  8031.62  88.837
 39.3856  8092.33  88.6148
 39.4276  8093.81  89.1168
 39.4696  8023.18  88.3568
 39.5116  7977.9  88.6181
 39.5536  8167.95  90.1271
 39.5956  8157.09  89.1497
 39.6376  8214.68  89.4843
 39.6796  8080.89  88.4688
 39.7216  8122.15  88.8115
 39.7636  8134.22  89.438
 39.8056  8128.66  89.1895
 39.8476  7976.26  88.6079
 39.8896  8060.13  88.6808
 39.9316  8039.4  88.8416
 39.9736  8267.88  89.6509
 40.0156  8075.18  88.4238
 40.0576  8084.03  88.838
 40.0996  8298.28  89.1721
 40.1416  8133.6  89.0801
 40.1836  8256.88  89.6449
 40.2256  8132.03  89.0131
 40.2676  8056.57  88.7082
 40.3096  8147.86  89.1242
 40.3516  8221.42  89.6381
 40.3936  8282.18  89.5253
 40.4356  8178.19  89.1566
 40.4776  8253.28  89.987
 40.5196  8224.51  89.957
 40.5616  8177.63  89.33
 40.6036  8086.65  89.0957
 40.6456  8208.22  89.3765
 40.6876  8261.2  89.636
 40.7296  8139.45  89.1228
 40.7716  8237.9  89.7836
 40.8136  7953.1  88.1594
 40.8556  8098.08  89.0868
 40.8976  8141.01  89.2471
 40.9396  8125.34  89.513
 40.9816  8160.67  88.985
 41.0236  8190.84  88.9401
 41.0656  8263.07  89.8712
 41.1076  8164.14  89.1078
 41.1496  8246.46  89.4584
 41.1916  8144.86  89.2221
 41.2336  8066.55  88.7859
 41.2756  8132.36  88.7499
 41.3176  8107.49  89.2311
 41.3596  8158.78  89.2469
 41.4016  8097.98  89.1808
 41.4436  8266.94  89.8851
 41.4856  8182.54  89.5964
 41.5276  8109.5  89.2076
 41.5696  8134.09  88.9551
 41.6116  8000.69  88.6237
 41.6536  8211.84  89.6531
 41.6956  8091.68  89.0411
 41.7376  8050.35  88.8427
 41.7796  8164.72  89.3701
 41.8216  8092.93  89.2037
 41.8636  8225.6  89.8768
 41.9056  8108.52  89.0141
 41.9476  8090.73  89.1504
 41.9896  8112.8  88.9314
 42.0316  8270.06  89.8756
 42.0736  8136.48  89.2545
 42.1156  8046.55  88.6048
 42.1576  8068.41  88.8262
 42.1996  8134.22  89.3309
 42.2416  8135.15  88.9155
 42.2836  7947.92  87.9937
 42.3256  8055.51  88.7057
 42.3676  8109.83  88.7943
 42.4096  8109.34  88.7629
 42.4516  8065.01  88.6021
 42.4936  8075.32  88.7381
 42.5356  7999.41  88.4585
 42.5776  8076.55  88.8075
 42.6196  8050.38  88.728
 42.6616  7883.81  87.9777
 42.7036  8054.14  88.2952
 42.7456  8045.9  88.6082
 42.7876  7968.7  88.2907
 42.8296  7987.48  88.2219
 42.8716  7865.97  87.7111
 42.9136  7976.14  88.1111
 42.9556  8056.64  88.6865
 42.9976  7966.69  88.153
 43.0396  7978.55  87.9486
 43.0816  7932  88.0621
 43.1236  7853.4  87.6959
 43.1656  7917.69  87.8815
 43.2076  7913.85  87.9677
 43.2496  7898.45  87.6848
 43.2916  7888.35  88.0023
 43.3336  7971.41  88.3036
 43.3756  7923.96  87.781
 43.4176  7799.92  87.1853
 43.4596  7805.11  87.069
 43.5016  7856.02  87.7577
 43.5436  7902.58  87.9185
 43.5856  7849.11  87.6568
 43.6276  7879.75  87.7129
 43.6696  7916.12  88.1868
 43.7116  7893.97  87.543
 43.7536  7919.67  88.1703
 43.7956  7751.17  88.4193
 43.8376  7808.15  87.2962
 43.8796  7859.35  87.6737
 43.9216  7878.53  87.6969
 43.9636  7855.58  87.6825
 44.0056  7738.33  87.254
 44.0476  7746.41  86.9378
 44.0896  7761.81  87.3619
 44.1316  7795.72  87.0698
 44.1736  7684.42  86.573
 44.2156  7801.46  87.0733
 44.2576  7751.41  87.1302
 44.2996  7797.03  87.3517
 44.3416  7748.19  86.8487
 44.3836  7670.9  86.7257
 44.4256  7626.46  86.1319
 44.4676  7657.62  86.4603
 44.5096  7740.14  87.0668
 44.5516  7691.28  86.7556
 44.5936  7562.42  85.9831
 44.6356  7635.81  86.1352
 44.6776  7681.88  86.7068
 44.7196  7665.19  86.9415
 44.7616  7577.4  87.7455
 44.8036  7594.28  86.2804
 44.8456  7567.45  86.313
 44.8876  7614.88  86.4389
 44.9296  7746.87  86.631
 44.9716  7518.63  85.7637
 45.0136  7618.23  86.2693
 45.0556  7633.74  86.3221
 45.0976  7571.22  86.1423
 45.1396  7413.51  85.0103
 45.1816  7568.99  85.8416
 45.2236  7736.16  86.6676
 45.2656  7488.18  85.7791
 45.3076  7520.16  85.7299
 45.3496  7409.97  85.4215
 45.3916  7511.57  86.2599
 45.4336  7603.64  86.6155
 45.4756  7517.91  85.992
 45.5176  7486.26  85.4181
 45.5596  7499.45  85.6279
 45.6016  7420.85  85.5952
 45.6436  7550.46  85.5073
 45.6856  7444.04  85.5611
 45.7276  7505.21  87.2507
 45.7696  7506.91  86.9159
 45.8116  7459.97  86.0653
 45.8536  7537.58  86.3999
 45.8956  7575.17  85.9585
 45.9376  7601.55  85.569
 45.9796  7509.33  85.7343
 46.0216  7459.25  85.789
 46.0636  7446.23  84.8644
 46.1056  7528.65  85.3175
 46.1476  7420.96  85.2968
 46.1896  7481.26  85.7952
 46.2316  7581.41  86.2276
 46.2736  7387.93  85.4929
 46.3156  7457.35  85.48
 46.3576  7416.59  85.4494
 46.3996  7347.54  85.2105
 46.4416  7440.1  85.319
 46.4836  7308.3  84.9136
 46.5256  7590.23  86.4715
 46.5676  7334.21  85.1189
 46.6096  7420.2  85.5494
 46.6516  7524.84  85.1849
 46.6936  7478.86  85.421
 46.7356  7472.15  85.4853
 46.7776  7373.25  85.7793
 46.8196  7405.68  85.5585
 46.8616  7278.34  84.7786
 46.9036  7206.06  84.0118
 46.9456  7304.61  84.2317
 46.9876  7413.29  84.9277
 47.0296  7253.05  84.7065
 47.0716  7144.13  83.881
 47.1136  7287.87  84.3797
 47.1556  7380.1  84.7997
 47.1976  7403.74  85.0086
 47.2396  7253.11  84.5441
 47.2816  7270.58  84.3431
 47.3236  7265.55  84.6857
 47.3656  7263.51  84.6063
 47.4076  7178.94  83.9219
 47.4496  7298.42  84.7099
 47.4916  7142.44  83.9928
 47.5336  7161.47  83.9128
 47.5756  7303.71  84.8588
 47.6176  7196.99  84.1368
 47.6596  7217.84  83.9701
 47.7016  7341.02  84.4992
 47.7436  7269.19  84.4257
 47.7856  7346.24  84.8838
 47.8276  7168.86  83.9157
 47.8696  7271.11  84.5976
 47.9116  7300.26  84.4748
 47.9536  7208.65  83.8973
 47.9956  7178.32  84.4196
 48.0376  7150.37  84.0182
 48.0796  7305.6  85.0628
 48.1216  7231.88  84.4416
 48.1636  7411.9  85.0607
 48.2056  7239.74  84.3392
 48.2476  7273.61  84.8412
 48.2896  7229.67  84.4946
 48.3316  7148.37  83.9782
 48.3736  7108.99  83.7571
 48.4156  7038.61  83.1991
 48.4576  7129.54  84.0234
 48.4996  7160.51  83.6571
 48.5416  7222.16  84.3374
 48.5836  7220.35  84.0095
 48.6256  7139.31  83.7433
 48.6676  7175.87  84.4692
 48.7096  7146.06  83.5809
 48.7516  7178.92  83.9032
 48.7936  7022.64  83.0596
 48.8356  7122.08  83.685
 48.8776  7142.2  84.373
 48.9196  7213.21  84.1536
 48.9616  7079.12  83.76
 49.0036  7085.39  84.137
 49.0456  6995.86  83.5919
 49.0876  7173.09  84.1843
 49.1296  6973.35  83.1516
 49.1716  6920.77  82.7196
 49.2136  7021.07  83.249
 49.2556  7192.37  84.2797
 49.2976  7065.23  83.5965
 49.3396  6950.97  82.9797
 49.3816  7082.02  83.1741
 49.4236  7131.61  83.9072
 49.4656  6988.63  83.0778
 49.5076  7088.32  83.4161
 49.5496  6998.78  82.9446
 49.5916  7139.39  83.6943
 49.6336  7021  83.192
 49.6756  7011.02  83.3654
 49.7176  7011.39  83.3187
 49.7596  7008.26  83.0698
 49.8016  7101.92  83.5306
 49.8436  7012.58  83.3179
 49.8856  6929.9  82.8202
 49.9276  6826.36  82.2916
 49.9696  6931.32  82.914
 50.0116  7027.36  83.6128
 50.0536  6865.41  82.6013
 50.0956  6861.74  82.6466
 50.1376  6960.33  82.9399
 50.1796  6973.63  83.2866
 50.2216  6844.6  82.5102
 50.2636  6878.03  82.3256
 50.3056  6871.58  82.4599
 50.3476  6864.91  82.4476
 50.3896  6920.15  82.744
 50.4316  6952.62  82.7763
 50.4736  6765.39  81.8711
 50.5156  6946.85  82.9637
 50.5576  6970.56  82.8553
 50.5996  6837.32  82.3337
 50.6416  6852.17  82.3556
 50.6836  6891.99  82.6379
 50.7256  6851.21  82.3284
 50.7676  6853.38  82.6421
 50.8096  6891.32  82.4245
 50.8516  6830.09  82.4756
 50.8936  6822.19  82.2129
 50.9356  6908.41  82.8327
 50.9776  6948.81  83.2363
 51.0196  6677.13  81.729
 51.0616  6767.71  81.5978
 51.1036  6878.1  82.626
 51.1456  6855.21  82.3931
 51.1876  6806.43  81.4532
 51.2296  6788.21  81.9791
 51.2716  6761.64  81.527
 51.3136  6810.38  82.2749
 51.3556  6828.28  82.0139
 51.3976  6732.6  81.5782
 51.4396  6676.88  81.542
 51.4816  6676.54  81.3962
 51.5236  6753.22  81.9414
 51.5656  6710.3  81.2925
 51.6076  6717.85  81.4127
 51.6496  6772.89  81.953
 51.6916  6622.14  81.3736
 51.7336  6626.47  81.5059
 51.7756  6795.39  82.2273
 51.8176  6744.53  82.0255
 51.8596  6707.31  81.8132
 51.9016  6832.25  82.1765
 51.9436  6781.58  83.3094
 51.9856  6647.57  82.9227
 52.0276  6725.24  81.9217
 52.0696  6692.55  81.7724
 52.1116  6702.89  81.9744
 52.1536  6695.7  81.7991
 52.1956  6738.32  81.5425
 52.2376  6791.76  82.0274
 52.2796  6692.89  81.2409
 52.3216  6628.89  81.5427
 52.3636  6663.7  81.3333
 52.4056  6597.09  80.7801
 52.4476  6555.38  80.8915
 52.4896  6535.06  80.8178
 52.5316  6539.1  80.8715
 52.5736  6617.18  81.1045
 52.6156  6590.79  81.2891
 52.6576  6527.75  80.3805
 52.6996  6421.5  80.6764
 52.7416  6581.1  81.5346
 52.7836  6698.11  82.1246
 52.8256  6785.98  81.8642
 52.8676  6597.5  81.3123
 52.9096  6597.78  81.3954
 52.9516  6720.9  82.5265
 52.9936  6497.13  81.5159
 53.0356  6486.32  80.4453
 53.0776  6426.71  80.3306
 53.1196  6411.72  80.3662
 53.1616  6515.93  81.0628
 53.2036  6464.23  80.6948
 53.2456  6381.05  80.2711
 53.2876  6431.2  80.298
 53.3296  6344.67  80.079
 53.3716  6425.63  80.3253
 53.4136  6467.38  80.7413
 53.4556  6415.45  80.4478
 53.4976  6440.11  80.4535
 53.5396  6452.51  80.9225
 53.5816  6436.61  80.4595
 53.6236  6377.21  80.4285
 53.6656  6362.7  79.9637
 53.7076  6481.37  80.6702
 53.7496  6398.3  80.265
 53.7916  6570.14  81.4602
 53.8336  6365  80.0823
 53.8756  6349.14  80.5343
 53.9176  6356.41  79.9331
 53.9596  6403.1  81.0147
 54.0016  6413.28  80.3979
 54.0436  6406.3  80.5766
 54.0856  6483.84  80.4817
 54.1276  6488.36  80.7145
 54.1696  6330.19  79.8945
 54.2116  6413.81  80.1679
 54.2536  6392.76  79.8612
 54.2956  6493.4  80.5239
 54.3376  6378.47  80.2979
 54.3796  6416.3  80.4349
 54.4216  6497.89  80.9933
 54.4636  6456.25  80.6914
 54.5056  6410.61  80.2285
 54.5476  6326.07  80.0299
 54.5896  6379.32  80.202
 54.6316  6522.64  80.9508
 54.6736  6414.24  80.3509
 54.7156  6340.58  79.9089
 54.7576  6351.15  79.9675
 54.7996  6393.3  80.3722
 54.8416  6369.31  80.2729
 54.8836  6223.21  79.4526
 54.9256  6355.53  80.0469
 54.9676  6440.96  80.443
 55.0096  6357.85  79.991
 55.0516  6331.79  80.0643
 55.0936  6364.26  79.8844
 55.1356  6336.93  79.7595
 55.1776  6410.09  80.4817
 55.2196  6346.22  79.8708
 55.2616  6300.25  79.7888
 55.3036  6336.98  80.1889
 55.3456  6334.53  80.3292
 55.3876  6369.84  80.2901
 55.4296  6336.73  80.0613
 55.4716  6416.88  80.5951
 55.5136  6403.17  80.2586
 55.5556  6324.31  79.832
 55.5976  6363.13  80.145
 55.6396  6246.98  79.3424
 55.6816  6247.34  79.2306
 55.7236  6430.66  80.4342
 55.7656  6322.38  79.5054
 55.8076  6361.83  79.7416
 55.8496  6322.99  79.8141
 55.8916  6253.34  79.5763
 55.9336  6325.15  79.8413
 55.9756  6363.47  79.9833
 56.0176  6321.3  79.8641
 56.0596  6290.37  79.6596
 56.1016  6368.08  80.1652
 56.1436  6203.76  79.3789
 56.1856  6348.69  80.0399
 56.2276  6246.3  79.4373
 56.2696  6312.48  79.8355
 56.3116  6262.56  79.9229
 56.3536  6249.79  79.5036
 56.3956  6334.52  80.0333
 56.4376  6298.74  79.8358
 56.4796  6376.68  80.1322
 56.5216  6307.16  80.06
 56.5636  6427.81  80.4212
 56.6056  6238.87  79.4485
 56.6476  6325.83  79.6344
 56.6896  6332.27  80.1181
 56.7316  6293.02  79.7858
 56.7736  6339.46  80.0747
 56.8156  6297.69  79.8143
 56.8576  6322.29  79.9121
 56.8996  6300.7  79.7021
 56.9416  6344.93  80.2908
 56.9836  6205.09  78.9107
 57.0256  6221.46  79.3418
 57.0676  6292.55  79.9126
 57.1096  6227.87  79.2938
 57.1516  6335  80.0496
 57.1936  6263.44  79.3304
 57.2356  6298.18  79.8779
 57.2776  6291.06  79.7822
 57.3196  6274.66  80.0528
 57.3616  6357.58  80.0651
 57.4036  6315.55  79.8589
 57.4456  6260.88  79.4729
 57.4876  6305.69  79.6211
 57.5296  6196.38  79.271
 57.5716  6209.71  79.3452
 57.6136  6275.59  79.5863
 57.6556  6301.15  79.8802
 57.6976  6245.93  79.3521
 57.7396  6234.15  79.6586
 57.7816  6232.01  80.0002
 57.8236  6194.45  79.5572
 57.8656  6227.25  79.415
 57.9076  6319.15  80.0357
 57.9496  6259.68  80.0089
 57.9916  6144.45  78.7749
 58.0336  6212.28  79.4921
 58.0756  6198.65  79.0317
 58.1176  6240.58  79.305
 58.1596  6215.16  79.7187
 58.2016  6281.51  79.3751
 58.2436  6258.95  79.6426
 58.2856  6246.27  79.4866
 58.3276  6239.71  79.8169
 58.3696  6237.9  79.5411
 58.4116  6229.16  79.3571
 58.4536  6290.39  79.6234
 58.4956  6396.56  80.4855
 58.5376  6321.32  79.5761
 58.5796  6277.77  79.7358
 58.6216  6336.48  79.9181
 58.6636  6314.09  79.9998
 58.7056  6321.35  79.891
 58.7476  6225.35  79.7335
 58.7896  6261.83  79.6027
 58.8316  6290  79.7706
 58.8736  6322.13  79.9869
 58.9156  6199.1  79.2451
 58.9576  6225.72  79.7579
 58.9996  6366.52  79.8629
 59.0416  6402.28  80.4751
 59.0836  6215.42  79.211
 59.1256  6168.87  79.6192
 59.1676  6250.32  80.4533
 59.2096  6417.1  80.8361
 59.2516  6389.79  80.2328
 59.2936  6465.53  81.0465
 59.3356  6207.82  79.2909
 59.3776  6283.5  79.9451
 59.4196  6333.86  80.1974
 59.4616  6239.14  79.4549
 59.5036  6193.78  79.2001
 59.5456  6529.92  81.0032
 59.5876  6271.8  79.5809
 59.6296  6217.12  79.3035
 59.6716  6374.03  80.3576
 59.7136  6345.28  80.1641
 59.7556  6367.54  80.4448
 59.7976  6137.81  78.7203
 59.8396  6309.68  79.7067
 59.8816  6319.62  80.3243
 59.9236  6252.45  79.5369
 59.9656  6315.7  80.204
 60.0076  6354.03  79.7884
 60.0496  6345.55  80.2503
 60.0916  6419.9  80.1204
 60.1336  6193.95  79.8197
 60.1756  6320  81.8399
 60.1996  0.0000000E+00  0.0000000E+00