File: docs/examples/opeando_xrd/IS17_D/Data/IS17_D/17_Db_f00005.xye
# /beamlines/bl04/projects/cycle2025-II/20250340211-lsimonelli/DATA/IS17_D/17_Db_f00005.xye : mythproc.py merge -s 0.006 -l 0.5 -f /beamlines/bl04/inhouse/ff/FlatField/ff_20Nov2024rod8mm60s_17keV.raw -b True -c true -o xye /beamlines/bl04/projects/cycle2025-II/20250340211-lsimonelli/DATA/IS17_D/17_Db_00005.dat
# IsMon = [6758453, 6759548, 6761942]  IsPos = [-1.5000, -2.4885, -3.4988]
# Wave = 0.4962  CalPath /beamlines/bl04/projects/cycle2025-II/20250340211-lsimonelli/DATA/Align/Si_Pos1_25keV_f00001.cal
# Date = 2025-09-23_19:05:41 Dt = 4.8000  Bin = 0.0060  <imon> = 6759981 +/- 1457 (Min/Max) 6758453 / 6761942
# icurr 251.2242  mocoIn 1.7135E-05  mocoOut 0.8034  i15 7.07479e+06  imon 6.75998e+06  i7 6.6667  iEMpd_timer 4.8000  iEMpd_1 3.4321E-08  iEMpd_2 7.8635E-08  iEMpd_3 1.5553E-08  iEMpd_4 4.7045E-08  iEMhp_timer 4.8000  iEMhp_1 4.9093E-06  iEMhp_2 -2.5150E-08  iEMhp_3 -2.4090E-08  iEMhp_4 -2.0453E-08
#      9776
 1.5856  43670.6  214.609
 1.6276  50146.5  226.025
 1.6696  56457.7  238.981
 1.7116  63625.1  254.193
 1.7536  71910.8  269.087
 1.7956  76104.5  277.514
 1.8376  72305.1  270.927
 1.8796  62073.5  249.185
 1.9216  51317.1  227.467
 1.9636  44301.9  211.015
 2.0056  40176.1  199.665
 2.0476  37696.6  195.526
 2.0896  35651.2  189.032
 2.1316  34897  186.123
 2.1736  32927.2  182.228
 2.2156  33874.5  183.347
 2.2576  32493.9  180.213
 2.2996  31240.1  177.353
 2.3416  31375  176.318
 2.3836  30820.3  174.859
 2.4256  29675.7  172.141
 2.4676  29419.4  171.153
 2.5096  29505.5  171.459
 2.5516  29207.7  174.489
 2.5936  38271.7  195.722
 2.6356  28274.7  168.958
 2.6776  27339.6  165.045
 2.7196  26797.1  163.882
 2.7616  26546.7  162.906
 2.8036  26228.8  162.09
 2.8456  26265.7  162.839
 2.8876  25665.4  160.805
 2.9296  25142.4  159.31
 2.9716  25028.9  158.439
 3.0136  24687.5  157.427
 3.0556  24773.9  158.094
 3.0976  25115.8  158.082
 3.1396  24394.7  156.515
 3.1816  24140.3  155.644
 3.2236  23939.2  154.984
 3.2656  23581.4  152.888
 3.3076  23773.6  154.951
 3.3496  24084.5  155.15
 3.3916  24360.8  155.615
 3.4336  24715.7  157.319
 3.4756  25004  158.182
 3.5176  25850  160.586
 3.5596  25221.6  161.605
 3.6016  25510.6  159.607
 3.6436  24602.5  157.833
 3.6856  24456.7  155.678
 3.7276  23384  153.295
 3.7696  23421.5  153.39
 3.8116  22751.2  151.287
 3.8536  22974.6  151.954
 3.8956  22798.3  151.187
 3.9376  22786.3  151.422
 3.9796  22673.4  150.541
 4.0216  22818.2  150.073
 4.0636  22651.5  150.968
 4.1056  22667  150.675
 4.1476  23074.3  152.336
 4.1896  23110.3  152.315
 4.2316  23252.2  152.604
 4.2736  23623.1  153.618
 4.3156  23975.2  154.984
 4.3576  24689.3  157.18
 4.3996  24901.5  158.138
 4.4416  25216.2  158.721
 4.4836  25692.8  160.373
 4.5256  26473  163.394
 4.5676  26293.2  163.093
 4.6096  26592.9  163.05
 4.6516  26956.3  163.495
 4.6936  27170.7  164.961
 4.7356  27631.1  166.184
 4.7776  27296.5  164.998
 4.8196  27227.1  165.428
 4.8616  26683.2  163.403
 4.9036  26458.8  162.317
 4.9456  26101.3  161.861
 4.9876  25501.5  159.888
 5.0296  25754  160.529
 5.0716  25607.9  160.676
 5.1136  25914.5  161.497
 5.1556  26134.2  161.64
 5.1976  27395  165.488
 5.2396  26719.8  163.132
 5.2816  26804.8  163.861
 5.3236  26652.6  163.078
 5.3656  26054.7  162.171
 5.4076  25721.5  161.269
 5.4496  25863.2  161.209
 5.4916  26040.2  161.52
 5.5336  25932.6  161.193
 5.5756  25852.8  160.96
 5.6176  26041.4  160.999
 5.6596  26205.1  162.319
 5.7016  26295.2  162.023
 5.7436  26529.4  163.024
 5.7856  26189.9  162.039
 5.8276  26437.7  162.521
 5.8696  26921.2  164.064
 5.9116  26699.3  164.089
 5.9536  27007.7  164.774
 5.9956  27159.3  164.639
 6.0376  27094.8  165.053
 6.0796  27475.8  166.035
 6.1216  27296  165.693
 6.1636  27742  166.1
 6.2056  27533.6  166.146
 6.2476  28145.8  167.68
 6.2896  27981  167.054
 6.3316  27991.1  167.255
 6.3736  28177.3  167.703
 6.4156  28080.5  167.351
 6.4576  28308.8  167.603
 6.4996  28269.7  167.958
 6.5416  28294.6  168.159
 6.5836  28427.8  168.789
 6.6256  28364  168.171
 6.6676  29181.3  170.146
 6.7096  29026  170.545
 6.7516  29397.3  171.29
 6.7936  29696.4  171.573
 6.8356  29561.6  171.261
 6.8776  29918.3  173.095
 6.9196  30121.1  174.083
 6.9616  30463.5  174.483
 7.0036  30876.1  175.35
 7.0456  30874.7  174.652
 7.0876  31283  177.396
 7.1296  30669.1  174.874
 7.1716  30857.9  174.959
 7.2136  30536.2  173.824
 7.2556  30844.6  174.859
 7.2976  30539.9  174.475
 7.3396  30591.8  174.846
 7.3816  30604.7  175.099
 7.4236  30792.8  174.938
 7.4656  31090.4  175.24
 7.5076  31325.6  176.056
 7.5496  31076.3  175.884
 7.5916  31158.4  176.166
 7.6336  31611.7  177.329
 7.6756  31787  177.672
 7.7176  32361.2  179.594
 7.7596  32171.3  180.267
 7.8016  33235.9  185.465
 7.8436  32305.1  179.546
 7.8856  32512.3  179.732
 7.9276  32959.1  181.355
 7.9696  33116.7  182.092
 8.0116  34182.7  183.574
 8.0536  34234.6  183.955
 8.0956  34459.9  185.731
 8.1376  34906.1  186.402
 8.1796  35338.6  188.088
 8.2216  35788.5  188.036
 8.2636  36147.3  189.225
 8.3056  35780.5  189.013
 8.3476  36476.5  190.178
 8.3896  36046  189.135
 8.4316  35873.8  188.849
 8.4736  36238.6  189.286
 8.5156  35997  188.924
 8.5576  35676  189.031
 8.5996  35709.3  188.016
 8.6416  35599  188.967
 8.6836  35280.5  187.946
 8.7256  36107  189.589
 8.7676  35993.7  192.185
 8.8096  36472.1  190.775
 8.8516  36382.5  190.167
 8.8936  35750.1  188.408
 8.9356  36014.5  189.436
 8.9776  35893.2  189.188
 9.0196  35936.5  188.986
 9.0616  35521.3  187.393
 9.1036  35236.7  187.788
 9.1456  34603.2  185.43
 9.1876  35035.7  186.523
 9.2296  34679.7  185.033
 9.2716  34431.5  184.416
 9.3136  34370.7  184.252
 9.3556  34981.1  185.853
 9.3976  33992.8  183.727
 9.4396  33948.2  183.505
 9.4816  33529.2  182.234
 9.5236  33242.3  181.348
 9.5656  33118.8  181.359
 9.6076  32306.4  179.632
 9.6496  32599.7  180.333
 9.6916  32263.1  179.346
 9.7336  32622.6  180.152
 9.7756  32362.7  180.637
 9.8176  31850.2  178.762
 9.8596  32093.7  177.908
 9.9016  31921.8  177.414
 9.9436  31396.7  175.71
 9.9856  31212  175.628
 10.0276  30913.2  175.84
 10.0696  31141.9  175.54
 10.1116  30117.3  172.889
 10.1536  30286.8  173.04
 10.1956  29589.8  171.145
 10.2376  29485  170.356
 10.2796  29412.8  170.251
 10.3216  29053.1  169.339
 10.3636  29107  169.676
 10.4056  28727.1  168.957
 10.4476  29243.8  170.078
 10.4896  29488.2  170.24
 10.5316  28716.5  168.389
 10.5736  27910.6  166.739
 10.6156  27868.8  166.377
 10.6576  28069.8  165.553
 10.6996  27638  164.974
 10.7416  26997.5  163.263
 10.7836  26721.5  163.07
 10.8256  26386.5  162.46
 10.8676  26416.3  162.106
 10.9096  26359.9  161.963
 10.9516  26179.7  160.362
 10.9936  26088.5  160.296
 11.0356  25966.4  160.522
 11.0776  25887.4  159.618
 11.1196  25548.4  159.322
 11.1616  25057.4  157.46
 11.2036  25311.1  158.103
 11.2456  25332.2  158.873
 11.2876  25538.7  159.252
 11.3296  25038.2  157.593
 11.3716  25370.3  158.363
 11.4136  25528  159.687
 11.4556  26059.4  161.001
 11.4976  26570.4  161.565
 11.5396  26011.7  160.029
 11.5816  25737.7  159.604
 11.6236  24997.9  157.748
 11.6656  24992.6  156.675
 11.7076  24533.1  156.049
 11.7496  24161.4  158.798
 11.7916  24412.9  154.93
 11.8336  23774.3  153.791
 11.8756  23790.3  153.381
 11.9176  23768.3  152.991
 11.9596  23759  153.134
 12.0016  23373.9  152.63
 12.0436  23600.7  152.83
 12.0856  23219.7  152.089
 12.1276  23253.6  152.142
 12.1696  23141.2  150.915
 12.2116  23292.7  151.397
 12.2536  23464.5  152.746
 12.2956  23108.8  150.962
 12.3376  23377.9  152.045
 12.3796  23200  151.938
 12.4216  23124.6  150.897
 12.4636  22743.3  150.563
 12.5056  23129.1  151.116
 12.5476  23080  150.473
 12.5896  22868.9  150.412
 12.6316  22956.5  150.857
 12.6736  22746.7  150.641
 12.7156  22952.6  151.157
 12.7576  23074.9  151.821
 12.7996  23279.6  151.147
 12.8416  22904.7  150.956
 12.8836  23286.9  152.042
 12.9256  23572  152.019
 12.9676  23356.9  151.714
 13.0096  23565  153.498
 13.0516  23494.8  152.304
 13.0936  23476.2  152.375
 13.1356  23837.2  152.803
 13.1776  23428.6  152.48
 13.2196  23539.9  152.487
 13.2616  23331.4  152.121
 13.3036  23731.3  153.558
 13.3456  23398.6  152.436
 13.3876  23772.9  153.151
 13.4296  23494.4  152.418
 13.4716  23572.7  152.302
 13.5136  23462.1  152.07
 13.5556  23371.2  152.392
 13.5976  23824.8  154.032
 13.6396  23586.5  152.626
 13.6816  23837.8  153.774
 13.7236  24180.7  154.582
 13.7656  25742.6  159.93
 13.8076  26676.7  161.492
 13.8496  25201.8  157.776
 13.8916  23718.2  154.01
 13.9336  23187.6  151.57
 13.9756  23195.3  150.997
 14.0176  23034.2  151.137
 14.0596  23145.2  151.417
 14.1016  22978.4  151.296
 14.1436  22968.4  150.412
 14.1856  22259.6  148.358
 14.2276  22296.3  148.954
 14.2696  22357.1  149.015
 14.3116  21878.1  147.319
 14.3536  21489.2  146.16
 14.3956  21367.9  145.482
 14.4376  21758.5  146.588
 14.4796  21685.5  146.346
 14.5216  21336.3  145.943
 14.5636  21065.4  144.587
 14.6056  21420.6  145.363
 14.6476  21108.8  143.569
 14.6896  20844.4  143.2
 14.7316  20540.4  143.166
 14.7736  20513.2  142.226
 14.8156  20227  141.253
 14.8576  20240.6  141.161
 14.8996  19802.2  140.792
 14.9416  19387.6  139.323
 14.9836  19419  139.42
 15.0256  18779.1  136.046
 15.0676  18846.1  136.593
 15.1096  18873  136.431
 15.1516  18390.7  135.218
 15.1936  18469.2  134.945
 15.2356  17975.9  133.406
 15.2776  18124.4  133.557
 15.3196  17669  132.829
 15.3616  17481.4  131.88
 15.4036  17666.5  132.449
 15.4456  17854.2  132.807
 15.4876  17620.7  131.629
 15.5296  17387.4  131.034
 15.5716  17183.7  129.881
 15.6136  17058.9  129.726
 15.6556  17442.9  130.434
 15.6976  17096.7  129.209
 15.7396  16893.4  129.017
 15.7816  16880.2  128.498
 15.8236  16641.7  128.255
 15.8656  16597.9  127.891
 15.9076  16547.9  127.524
 15.9496  17339.3  133.318
 15.9916  17085.3  132.724
 16.0336  17055  129.524
 16.0756  16747.2  128.674
 16.1176  16650.6  128.225
 16.1596  16259.3  128.022
 16.2016  16297.3  126.947
 16.2436  16201.7  126.944
 16.2856  16290.6  126.818
 16.3276  16015.5  126.178
 16.3696  16236.3  126.867
 16.4116  16178.8  127.088
 16.4536  16174.3  126.88
 16.4956  16196.2  126.7
 16.5376  15950.2  125.921
 16.5796  15959.2  125.334
 16.6216  16197.4  126.523
 16.6636  15738.5  124.909
 16.7056  15827.5  125.124
 16.7476  15851.7  124.754
 16.7896  15948.1  125.872
 16.8316  16028.9  126.17
 16.8736  16185.6  127.034
 16.9156  15912.4  126.287
 16.9576  15574.7  125.718
 16.9996  15605.6  126.295
 17.0416  15832.1  125.632
 17.0836  15649.6  124.667
 17.1256  15604.1  124.498
 17.1676  15662.1  124.69
 17.2096  15299.2  123.122
 17.2516  15490.4  123.989
 17.2936  15196.8  122.859
 17.3356  15130.1  122.574
 17.3776  15062.6  122.485
 17.4196  14959.4  121.77
 17.4616  14920  121.518
 17.5036  14695.2  120.962
 17.5456  14550.2  120.969
 17.5876  14676.9  120.567
 17.6296  14763  120.738
 17.6716  14477.6  120.15
 17.7136  14575.8  120.679
 17.7556  14544.5  120.845
 17.7976  14271.2  119.305
 17.8396  14355.8  119.31
 17.8816  14194.4  119.186
 17.9236  14198.7  119.004
 17.9656  14134  119.376
 18.0076  14145.8  118.873
 18.0496  14279.1  118.591
 18.0916  14847.6  121.473
 18.1336  14287.7  119.26
 18.1756  14335  119.017
 18.2176  14119.6  118.325
 18.2596  14039.8  117.722
 18.3016  14064.4  118.087
 18.3436  14227.1  119.001
 18.3856  13917.4  117.6
 18.4276  13804.4  116.816
 18.4696  13729.4  116.578
 18.5116  13867.9  117.434
 18.5536  13738.1  117.236
 18.5956  13636.7  116.374
 18.6376  13707.3  117.069
 18.6796  13756.9  116.622
 18.7216  13614.3  116.553
 18.7636  13712.5  116.908
 18.8056  13671.3  116.651
 18.8476  13375.5  115.989
 18.8896  13537.6  116.051
 18.9316  13536.5  115.865
 18.9736  13512.7  115.623
 19.0156  13567.3  116.274
 19.0576  13733.9  115.845
 19.0996  13607.7  116.017
 19.1416  13561.9  116.212
 19.1836  13365.6  114.979
 19.2256  13302.1  114.921
 19.2676  13325.1  115.101
 19.3096  13437.3  115.829
 19.3516  13503.2  115.895
 19.3936  13291.1  115.055
 19.4356  13475.9  115.737
 19.4776  13395.9  115.476
 19.5196  13378.2  115.261
 19.5616  13395.8  115.589
 19.6036  13371.3  114.985
 19.6456  13413.7  115.281
 19.6876  13455.6  115.11
 19.7296  13622.3  116.276
 19.7716  13464.2  115.623
 19.8136  13838.2  117.559
 19.8556  14049.4  117.938
 19.8976  14115.1  118.264
 19.9396  14220.2  118.301
 19.9816  14178.6  118.376
 20.0236  14207.5  118.681
 20.0656  13858.5  117.219
 20.1076  13721.3  117.112
 20.1496  13497  116.144
 20.1916  13416.3  115.28
 20.2336  13294.6  114.718
 20.2756  13245  114.94
 20.3176  13181.2  114.411
 20.3596  12921.3  113.265
 20.4016  13138.7  114.016
 20.4436  12855.9  113.337
 20.4856  13004.4  113.778
 20.5276  12974.1  114.104
 20.5696  12819.6  112.985
 20.6116  12820.6  113.162
 20.6536  12658.1  112.02
 20.6956  12639.6  112.007
 20.7376  12615.8  112.113
 20.7796  12744.6  112.369
 20.8216  12805.6  112.363
 20.8636  12708.8  112.31
 20.9056  12788.8  112.6
 20.9476  12695  112.037
 20.9896  12760.2  112.182
 21.0316  12607  111.408
 21.0736  12709.6  112.381
 21.1156  12466  111.453
 21.1576  12730.7  112.671
 21.1996  12587.6  112.023
 21.2416  12606.1  111.927
 21.2836  12608.4  111.917
 21.3256  12542.5  111.7
 21.3676  12545.9  111.252
 21.4096  12335  110.683
 21.4516  12278.7  110.243
 21.4936  12180.6  110.076
 21.5356  12419.4  111.091
 21.5776  12491.3  111.244
 21.6196  12347.3  110.646
 21.6616  12240.3  110.24
 21.7036  12326.2  110.395
 21.7456  12265.2  110.202
 21.7876  12128.4  109.358
 21.8296  12310.1  110.023
 21.8716  12245.9  109.961
 21.9136  12444.8  111.047
 21.9556  12221.8  109.725
 21.9976  12109  109.256
 22.0396  12157.9  109.723
 22.0816  12038.5  109.693
 22.1236  12297  110.335
 22.1656  12113.4  109.697
 22.2076  11978.9  108.503
 22.2496  11979.2  108.539
 22.2916  11937.6  108.235
 22.3336  11933  108.898
 22.3756  11765.4  107.878
 22.4176  11837.1  108.063
 22.4596  11568.2  107.395
 22.5016  11718.8  107.61
 22.5436  12069.7  109.087
 22.5856  12104.6  109.487
 22.6276  12408.4  110.981
 22.6696  11972  109.367
 22.7116  11978.3  108.918
 22.7536  11881.8  108.451
 22.7956  11939.4  108.071
 22.8376  11694.9  107.455
 22.8796  11759.4  107.561
 22.9216  11943.4  108.927
 22.9636  11853.6  107.696
 23.0056  11913.1  108.097
 23.0476  12143.2  109.701
 23.0896  12247.7  109.557
 23.1316  12053.5  109.112
 23.1736  12044.5  111.956
 23.2156  12099.6  109.638
 23.2576  12356.1  110.933
 23.2996  11979.8  109.003
 23.3416  12337  111.149
 23.3836  12355.5  110.469
 23.4256  12363.9  110.629
 23.4676  12222.7  109.681
 23.5096  12259.4  110.508
 23.5516  12184.5  109.47
 23.5936  12108.4  110.024
 23.6356  12301.2  110.566
 23.6776  12094.6  109.833
 23.7196  12101.5  109.673
 23.7616  12030.4  109.051
 23.8036  12313.8  110.389
 23.8456  11988.1  108.465
 23.8876  12148.9  109.555
 23.9296  11993  109.329
 23.9716  12045.1  108.779
 24.0136  11930.4  109.15
 24.0556  11797.7  108.263
 24.0976  11726.6  107.756
 24.1396  11672.4  110.076
 24.1816  11806.5  109.474
 24.2236  11771.6  108.623
 24.2656  11795.9  108.212
 24.3076  11627.7  107.707
 24.3496  11585.9  107.388
 24.3916  11588.3  107.449
 24.4336  11760.1  108.446
 24.4756  11509.4  107.171
 24.5176  11574.7  107.101
 24.5596  11415.5  106.686
 24.6016  11495.8  107.159
 24.6436  11490.5  106.649
 24.6856  11467.4  106.278
 24.7276  11217.8  105.436
 24.7696  11199  105.454
 24.8116  11182.6  105.558
 24.8536  11232.2  105.797
 24.8956  11263.2  105.67
 24.9376  11247.8  105.776
 24.9796  11012.6  104.775
 25.0216  11016.5  104.907
 25.0636  11051.1  104.735
 25.1056  10945.3  104.652
 25.1476  10958.9  106.594
 25.1896  10852.5  104.608
 25.2316  10807.6  103.681
 25.2736  10851.8  103.554
 25.3156  10882.9  103.771
 25.3576  10726.8  103.446
 25.3996  10719.7  103.397
 25.4416  10696.9  103.268
 25.4836  10673  103.657
 25.5256  10693.5  103.136
 25.5676  10716.4  102.977
 25.6096  10587.4  102.92
 25.6516  10599.9  102.496
 25.6936  10693.4  103.259
 25.7356  10441  102.162
 25.7776  10664.7  102.932
 25.8196  10422.1  101.913
 25.8616  10481  102.132
 25.9036  10670  102.51
 25.9456  10536.4  102.454
 25.9876  10657.8  102.964
 26.0296  10700.5  102.922
 26.0716  10604.1  102.794
 26.1136  10593.9  102.671
 26.1556  10594.7  102.069
 26.1976  10461.5  102.336
 26.2396  10468.8  101.796
 26.2816  10650.6  103.018
 26.3236  10436.4  102.132
 26.3656  10696.3  103.123
 26.4076  10418  101.968
 26.4496  10703.4  102.962
 26.4916  10767.8  103.166
 26.5336  11117.7  105.172
 26.5756  11206.9  105.473
 26.6176  10577.1  102.484
 26.6596  10532.4  102.566
 26.7016  10439.6  101.888
 26.7436  10398.2  101.81
 26.7856  10285.2  101.248
 26.8276  10247.4  101.025
 26.8696  10303.8  101.173
 26.9116  10222.2  100.711
 26.9536  10165.6  100.481
 26.9956  10099.4  100.187
 27.0376  10158.1  100.691
 27.0796  10136.3  100.399
 27.1216  10098.7  100.193
 27.1636  9998.03  99.8596
 27.2056  10075.9  100.128
 27.2476  10023.5  99.8528
 27.2896  9986.31  99.7895
 27.3316  10018.6  99.6729
 27.3736  9945.5  99.5742
 27.4156  10088.3  100.135
 27.4576  10032.7  100.075
 27.4996  10028.3  99.6651
 27.5416  9995.43  99.7968
 27.5836  9903.51  99.1799
 27.6256  9950.59  99.5865
 27.6676  9969.66  99.6788
 27.7096  9901.77  99.2243
 27.7516  9887.66  99.2907
 27.7936  10267.6  101.325
 27.8356  10167.7  100.436
 27.8776  10135.3  100.362
 27.9196  9851.41  98.8011
 27.9616  9920.83  99.3466
 28.0036  9777.44  98.5972
 28.0456  9627.85  97.9656
 28.0876  9788.71  98.8628
 28.1296  9728.82  98.3994
 28.1716  9776.07  98.6555
 28.2136  9699.96  98.2389
 28.2556  9734.84  98.5276
 28.2976  9617.83  97.9296
 28.3396  9613.23  97.7017
 28.3816  9752.2  98.3738
 28.4236  9527.43  97.387
 28.4656  9510.96  97.3427
 28.5076  9469.6  96.781
 28.5496  9543.05  97.4076
 28.5916  9576.51  97.3869
 28.6336  9571.15  97.7058
 28.6756  9599.31  97.0541
 28.7176  9519.73  97.1965
 28.7596  9389.55  96.4281
 28.8016  9482.51  96.9424
 28.8436  9339.04  96.4406
 28.8856  9477.83  97.0084
 28.9276  9435.23  97.0271
 28.9696  9423.17  96.6317
 29.0116  9362.27  96.4951
 29.0536  9322.59  96.4992
 29.0956  9417.7  96.6914
 29.1376  9346.38  96.2952
 29.1796  9432.19  96.7893
 29.2216  9333.52  96.1272
 29.2636  9474.35  96.8404
 29.3056  9352.48  96.0862
 29.3476  9373.44  96.7017
 29.3896  9254.42  96.2042
 29.4316  9224  95.3843
 29.4736  8993.43  94.2481
 29.5156  9205.01  95.2748
 29.5576  9186.65  95.9055
 29.5996  9094.64  94.7017
 29.6416  9063.09  94.6527
 29.6836  9236.04  95.4798
 29.7256  9114.07  95.3983
 29.7676  9047.51  94.7184
 29.8096  8964.35  94.228
 29.8516  8917.45  94.3038
 29.8936  9037.16  95.0227
 29.9356  9026.47  94.7309
 29.9776  8939.44  94.4195
 30.0196  9064.3  94.4892
 30.0616  8958.42  94.2917
 30.1036  9021.84  94.4542
 30.1456  8963.81  94.3737
 30.1876  8898.33  94.0143
 30.2296  8970.47  94.3356
 30.2716  9040.42  94.3532
 30.3136  9029.91  95.1365
 30.3556  9246.58  96.2731
 30.3976  9132.4  97.1295
 30.4396  9377.32  95.8276
 30.4816  9257.81  94.8207
 30.5236  9311.27  95.0832
 30.5656  9128.25  94.7954
 30.6076  9074.79  94.2849
 30.6496  9194.25  94.963
 30.6916  8997.37  94.0165
 30.7336  9162.71  95.0332
 30.7756  9172.3  95.1656
 30.8176  9185.67  95.1669
 30.8596  9194.97  94.9544
 30.9016  9248.03  95.1392
 30.9436  9081.3  94.4874
 30.9856  9339.27  95.927
 31.0276  8976.33  93.687
 31.0696  8925.98  93.9659
 31.1116  9044.19  94.5655
 31.1536  9072.35  94.5854
 31.1956  8948.69  94.0163
 31.2376  8834.61  93.4406
 31.2796  8907.65  93.375
 31.3216  8955.49  93.5552
 31.3636  8998.03  94.472
 31.4056  8993.03  95.7209
 31.4476  9057.8  94.0223
 31.4896  9033.82  94.3885
 31.5316  8975.17  93.5327
 31.5736  9157.41  94.2756
 31.6156  9083.43  93.8849
 31.6576  9074.6  93.9177
 31.6996  9210.67  94.2895
 31.7416  9052.8  94.4268
 31.7836  9064.76  93.6418
 31.8256  8927.87  93.2635
 31.8676  9163.2  94.399
 31.9096  8968.58  93.6077
 31.9516  8724.13  92.6415
 31.9936  8877.41  93.2726
 32.0356  8874.33  93.2845
 32.0776  9052.53  94.1355
 32.1196  9107.24  94.4387
 32.1616  9028.24  93.5651
 32.2036  8885.43  93.3287
 32.2456  8831.43  93.4122
 32.2876  8799.79  92.5902
 32.3296  8774.61  92.5865
 32.3716  8612.02  91.8348
 32.4136  8669.52  92.3343
 32.4556  8832.24  92.644
 32.4976  8757.36  92.1503
 32.5396  8702.1  91.8776
 32.5816  8736.28  92.1874
 32.6236  8679.95  91.9493
 32.6656  8813.01  93.1899
 32.7076  8611.88  91.7824
 32.7496  8649.82  91.6619
 32.7916  8640.57  91.5741
 32.8336  8619.6  91.5532
 32.8756  8732.37  91.8758
 32.9176  8643.53  91.8832
 32.9596  8634.7  91.9093
 33.0016  8593.12  91.4455
 33.0436  8624.68  91.7956
 33.0856  8529.98  91.3908
 33.1276  8472.77  90.8211
 33.1696  8659.3  91.6468
 33.2116  8641.06  91.7874
 33.2536  8723.83  92.2071
 33.2956  8469.05  90.9378
 33.3376  8462.04  90.7243
 33.3796  8625.58  91.7366
 33.4216  8550.65  90.9256
 33.4636  8611.54  91.4111
 33.5056  8461.3  90.8481
 33.5476  8455.15  90.787
 33.5896  8563.81  91.1505
 33.6316  8551.58  91.4105
 33.6736  8339.3  90.512
 33.7156  8409.81  90.922
 33.7576  8573.72  91.4524
 33.7996  8503.56  90.8413
 33.8416  8282.18  89.8316
 33.8836  8345.44  89.953
 33.9256  8536.98  91.0404
 33.9676  8488.66  90.6794
 34.0096  8341.38  90.1943
 34.0516  8364.73  89.9593
 34.0936  8261.19  89.6682
 34.1356  8439.17  90.3786
 34.1776  8368.24  89.9899
 34.2196  8397.57  90.3376
 34.2616  8226.32  89.5432
 34.3036  8370.94  90.5646
 34.3456  8263.94  89.7454
 34.3876  8398.33  90.5267
 34.4296  8315.35  89.6986
 34.4716  8518.59  90.9361
 34.5136  8425.32  90.6215
 34.5556  8263.32  89.9949
 34.5976  8419.29  90.6887
 34.6396  8377.8  90.1453
 34.6816  8344.14  90.0764
 34.7236  8358.22  89.9173
 34.7656  8389.18  90.3032
 34.8076  8238.39  89.8137
 34.8496  8221.8  89.5711
 34.8916  8214.8  89.4045
 34.9336  8357.64  90.1568
 34.9756  8308.53  89.8384
 35.0176  8327.88  90.437
 35.0596  8356.5  90.4215
 35.1016  8306.52  89.9038
 35.1436  8433.72  90.2765
 35.1856  8241.07  89.3664
 35.2276  8231.24  89.4826
 35.2696  8173.16  89.3488
 35.3116  8187.56  89.5283
 35.3536  8292.64  89.8484
 35.3956  8118.92  88.5884
 35.4376  8313.37  90.2058
 35.4796  8248.7  89.892
 35.5216  8136.23  89.2439
 35.5636  8002.88  89.2281
 35.6056  8127.12  88.958
 35.6476  8190.93  89.207
 35.6896  8215.02  89.5092
 35.7316  8100.93  88.7855
 35.7736  8134.07  89.1425
 35.8156  8238.13  89.713
 35.8576  8089.44  89.1457
 35.8996  8171.93  89.5719
 35.9416  8140.74  88.9141
 35.9836  8051.04  88.8577
 36.0256  8293.33  90.0943
 36.0676  8415.67  90.2804
 36.1096  8198.89  89.4857
 36.1516  8197.52  89.3741
 36.1936  8204.42  89.2362
 36.2356  8223.85  90.0107
 36.2776  8109.12  88.8391
 36.3196  8068.16  88.3116
 36.3616  8108.73  88.6614
 36.4036  8085.25  88.6011
 36.4456  8232.47  89.6089
 36.4876  7956.68  88.0351
 36.5296  8113.65  88.9375
 36.5716  8043  89.3078
 36.6136  8005.18  87.9056
 36.6556  7941.64  87.7534
 36.6976  7878.32  87.8861
 36.7396  7790.47  87.1391
 36.7816  7845.82  87.8109
 36.8236  7862.72  87.8281
 36.8656  7717  87.082
 36.9076  7683.25  86.8967
 36.9496  7734.45  87.0477
 36.9916  7750.52  86.7795
 37.0336  7918.59  88.0215
 37.0756  7864.68  87.5222
 37.1176  7785.99  87.3452
 37.1596  7756.25  87.1797
 37.2016  7665.97  86.8497
 37.2436  7714.02  86.5032
 37.2856  7732.27  86.8521
 37.3276  7744.79  86.2948
 37.3696  7622.24  86.4651
 37.4116  7795.52  87.3454
 37.4536  7652.51  86.4154
 37.4956  7717.74  86.8249
 37.5376  7884.65  89.3157
 37.5796  7788.86  88.7067
 37.6216  7749.67  86.7878
 37.6636  7919.18  87.6257
 37.7056  7873.34  87.5636
 37.7476  8054.8  88.1126
 37.7896  7719.2  86.7478
 37.8316  7841.77  87.5758
 37.8736  7804.72  86.9105
 37.9156  7882.12  87.3377
 37.9576  7821.68  86.9194
 37.9996  7730.73  86.1289
 38.0416  7777.64  87.1844
 38.0836  7932.35  87.9416
 38.1256  7739.58  86.8499
 38.1676  7662.59  86.5293
 38.2096  7889.57  87.4228
 38.2516  7755.68  86.8883
 38.2936  8005.69  88.0785
 38.3356  7678.76  86.1894
 38.3776  7696.73  86.5447
 38.4196  7787.29  86.9015
 38.4616  7687.38  86.5896
 38.5036  7910.69  87.6797
 38.5456  7619.5  86.8656
 38.5876  7688.58  87.2747
 38.6296  7730.49  86.5126
 38.6716  7784.77  86.6175
 38.7136  7650.58  85.8125
 38.7556  7780  87.0395
 38.7976  7776.82  86.9458
 38.8396  7611.89  86.4653
 38.8816  7707.95  86.8148
 38.9236  7653.45  86.3106
 38.9656  7728.85  86.6347
 39.0076  7631.48  85.5183
 39.0496  7758.23  86.7653
 39.0916  7772.68  86.4973
 39.1336  7682.44  86.392
 39.1756  7687.3  86.4835
 39.2176  7599.56  86.5117
 39.2596  7808.83  87.617
 39.3016  7683.78  86.5079
 39.3436  7714.15  87.0867
 39.3856  7763.12  86.7956
 39.4276  7877.42  87.9536
 39.4696  7677.59  86.4583
 39.5116  7814.36  87.7315
 39.5536  7821.8  88.1798
 39.5956  7668.85  86.4361
 39.6376  7677.04  86.4894
 39.6796  7704.88  86.3927
 39.7216  7722.16  86.5821
 39.7636  7724.13  87.1502
 39.8056  7744.84  87.0573
 39.8476  7526.02  86.0713
 39.8896  7759.1  87.0252
 39.9316  7630.93  86.5483
 39.9736  7674.63  86.3789
 40.0156  7657.8  86.1175
 40.0576  7616.92  86.2166
 40.0996  7793.86  86.4168
 40.1416  7748.13  86.951
 40.1836  7634.42  86.1946
 40.2256  7684.25  86.5219
 40.2676  7527.6  85.8031
 40.3096  7743.8  86.8863
 40.3516  7774.81  87.1755
 40.3936  7745.22  86.558
 40.4356  7702.6  86.5264
 40.4776  7749.96  87.0262
 40.5196  7824.71  87.7356
 40.5616  7931.13  87.972
 40.6036  7686.55  86.8606
 40.6456  7784.58  87.0194
 40.6876  7818.06  87.206
 40.7296  7587.01  86.0284
 40.7716  7700.85  86.7837
 40.8136  7573.14  86.0192
 40.8556  7773.43  87.2812
 40.8976  7726.56  86.9461
 40.9396  7720.56  87.2479
 40.9816  7682.83  86.3409
 41.0236  7654.49  85.9672
 41.0656  7740.51  86.9776
 41.1076  7693.27  86.4926
 41.1496  7704.46  86.465
 41.1916  7765.89  87.1249
 41.2336  7769.93  87.1443
 41.2756  7716.67  86.4522
 41.3176  7726.68  87.1046
 41.3596  7737.74  86.9135
 41.4016  7666.97  86.7645
 41.4436  7734.61  86.9355
 41.4856  7642.9  86.5847
 41.5276  7707.47  86.9638
 41.5696  7734.97  86.7344
 41.6116  7831.82  87.6867
 41.6536  7708.19  86.8417
 41.6956  7647.49  86.4928
 41.7376  7712.98  86.9596
 41.7796  7562.13  86.0331
 41.8216  7715.37  87.0769
 41.8636  7672.3  86.7866
 41.9056  7667.68  86.5536
 41.9476  7691.55  86.9262
 41.9896  7853.89  87.5036
 42.0316  7722.02  86.8517
 42.0736  7762.31  87.214
 42.1156  7670.02  86.4943
 42.1576  7708.2  86.8168
 42.1996  7814.67  87.5313
 42.2416  7689.48  86.4365
 42.2836  7566.38  85.8584
 42.3256  7714.2  86.8011
 42.3676  7746.53  86.7843
 42.4096  7639.3  86.156
 42.4516  7736.19  86.78
 42.4936  7572.35  85.9208
 42.5356  7528.94  85.8108
 42.5776  7640.32  86.3695
 42.6196  7646.49  86.4699
 42.6616  7567.66  86.1936
 42.7036  7658.14  86.095
 42.7456  7771.76  87.0906
 42.7876  7611.82  86.2629
 42.8296  7600.25  86.0573
 42.8716  7511.98  85.7131
 42.9136  7456.01  85.1428
 42.9556  7655.51  86.4474
 42.9976  7652.68  86.401
 43.0396  7536.4  85.473
 43.0816  7553.99  85.954
 43.1236  7440.85  85.3532
 43.1656  7512.33  85.5922
 43.2076  7591.17  86.148
 43.2496  7600.21  86.0238
 43.2916  7499.4  85.7986
 43.3336  7566.64  86.0162
 43.3756  7609.61  86.0286
 43.4176  7539.17  85.7091
 43.4596  7487.41  85.2699
 43.5016  7554.6  86.0513
 43.5436  7540.54  85.8775
 43.5856  7460.19  85.4474
 43.6276  7419.28  85.0946
 43.6696  7445.02  85.3885
 43.7116  7597.23  85.8806
 43.7536  7529.86  85.9841
 43.7956  7472.86  86.8536
 43.8376  7390.59  84.9248
 43.8796  7329.56  84.6486
 43.9216  7375.93  84.8339
 43.9636  7314.64  84.5881
 44.0056  7447.01  85.578
 44.0476  7335.53  84.5724
 44.0896  7430.36  85.4518
 44.1316  7232.87  83.9853
 44.1736  7296.09  84.3407
 44.2156  7462.58  85.1515
 44.2576  7359.25  84.87
 44.2996  7410.62  85.1514
 44.3416  7372.25  84.689
 44.3836  7223.22  84.1515
 44.4256  7222.48  83.7916
 44.4676  7172.52  83.6521
 44.5096  7276.15  84.4029
 44.5516  7257.98  84.2626
 44.5936  7165.52  83.6764
 44.6356  7318.94  84.3109
 44.6776  7205.88  83.971
 44.7196  7269.82  84.6332
 44.7616  7377.27  86.5817
 44.8036  7336.43  84.9837
 44.8456  7410.21  85.4139
 44.8876  7444.88  85.4526
 44.9296  7433.27  84.8335
 44.9716  7410.31  85.1283
 45.0136  7339.95  84.6731
 45.0556  7471.24  85.5147
 45.0976  7225.08  84.1386
 45.1396  7303.69  84.3564
 45.1816  7298.82  84.2702
 45.2236  7398.43  84.7487
 45.2656  7322.16  84.7952
 45.3076  7420.67  85.1503
 45.3496  7338.59  84.978
 45.3916  7368.7  85.4279
 45.4336  7432.64  85.646
 45.4756  7246.05  84.4098
 45.5176  7454.82  85.244
 45.5596  7394.73  85.0109
 45.6016  7204.46  84.3316
 45.6436  7439.9  84.8684
 45.6856  7197.47  84.1164
 45.7276  7142.84  85.111
 45.7696  7333.51  85.9054
 45.8116  7342.05  85.3933
 45.8536  7192.2  84.4121
 45.8956  7359.18  84.7463
 45.9376  7438.97  84.6723
 45.9796  7381.69  85.0405
 46.0216  7380.34  85.3558
 46.0636  7449.59  84.8984
 46.1056  7369.48  84.4318
 46.1476  7315.69  84.7144
 46.1896  7416.28  85.4317
 46.2316  7215.28  84.1279
 46.2736  7326.84  85.0021
 46.3156  7263.01  84.3834
 46.3576  7321.41  84.9222
 46.3996  7375.81  85.3852
 46.4416  7309.55  84.5633
 46.4836  7179.83  84.1892
 46.5256  7357.77  85.1562
 46.5676  7318.1  85.0462
 46.6096  7330.9  85.0509
 46.6516  7387.08  84.4187
 46.6936  7252.89  84.1449
 46.7356  7436.71  85.3065
 46.7776  7249.44  85.055
 46.8196  7230.73  84.6942
 46.8616  7152.81  84.0377
 46.9036  7110.36  83.4484
 46.9456  7274.42  84.0384
 46.9876  7249.64  83.9904
 47.0296  7140.37  84.0357
 47.0716  7057.24  83.3703
 47.1136  7231.86  84.074
 47.1556  7241.57  83.9976
 47.1976  7260.23  84.2568
 47.2396  7153.2  83.9587
 47.2816  7152.35  83.6584
 47.3236  7178.53  84.1815
 47.3656  7174.49  84.085
 47.4076  7229.5  84.1349
 47.4496  7147.99  83.8188
 47.4916  7192.21  84.2737
 47.5336  7268.14  84.5326
 47.5756  7268.52  84.6588
 47.6176  7101.24  83.5758
 47.6596  7088.81  83.2178
 47.7016  7358.05  84.6036
 47.7436  7233.67  84.2181
 47.7856  7250.92  84.3406
 47.8276  7177.96  83.9646
 47.8696  7270.29  84.5912
 47.9116  7274.7  84.3319
 47.9536  7236.28  84.0461
 47.9956  7104.94  83.988
 48.0376  7115.18  83.8221
 48.0796  7238.66  84.6676
 48.1216  7166.94  84.0757
 48.1636  7227.19  83.9944
 48.2056  7145.61  83.7886
 48.2476  7252.39  84.715
 48.2896  7242.54  84.5721
 48.3316  7188.98  84.2014
 48.3736  7175.81  84.1389
 48.4156  7161.33  83.9156
 48.4576  7176.98  84.3011
 48.4996  7339.21  84.7004
 48.5416  7335.71  85.0042
 48.5836  7140.97  83.5517
 48.6256  7283.68  84.5785
 48.6676  7226.44  84.7705
 48.7096  7301.34  84.4699
 48.7516  7233.99  84.2267
 48.7936  7078.49  83.3807
 48.8356  7164.21  83.9338
 48.8776  7195.09  84.6027
 48.9196  7271.31  84.4976
 48.9616  7173.59  84.3145
 49.0036  7135.97  84.4409
 49.0456  7170.26  84.618
 49.0876  7190.99  84.3803
 49.1296  7119.38  84.0108
 49.1716  7021.14  83.3079
 49.2136  7281.08  84.764
 49.2556  7172.91  84.1705
 49.2976  7196.91  84.3771
 49.3396  7096.3  83.8411
 49.3816  7291.57  84.407
 49.4236  7082.45  83.6139
 49.4656  7098.53  83.7238
 49.5076  7159.28  83.8331
 49.5496  7069.96  83.3719
 49.5916  7184.11  83.9521
 49.6336  7104.78  83.6965
 49.6756  7102.22  83.9138
 49.7176  7003.53  83.272
 49.7596  7076.73  83.4684
 49.8016  7166.72  83.9092
 49.8436  7105.04  83.8542
 49.8856  7111.76  83.8925
 49.9276  6982.03  83.2264
 49.9696  6985.38  83.2306
 50.0116  7034.56  83.6605
 50.0536  7138.43  84.2081
 50.0956  7068.31  83.8716
 50.1376  7099.91  83.7551
 50.1796  6982.67  83.3382
 50.2216  7008.96  83.4868
 50.2636  7107.56  83.687
 50.3056  6985.65  83.1426
 50.3476  7100.69  83.8418
 50.3896  7046.48  83.4996
 50.4316  7055.03  83.377
 50.4736  6995.94  83.2446
 50.5156  6949.52  82.9644
 50.5576  7105.26  83.6395
 50.5996  6993.83  83.2687
 50.6416  7006.94  83.2716
 50.6836  7101.86  83.9032
 50.7256  7090.49  83.7566
 50.7676  7228.74  84.8463
 50.8096  7050.6  83.3706
 50.8516  6962.24  83.2618
 50.8936  7021.48  83.4034
 50.9356  7038.18  83.6052
 50.9776  7026.42  83.693
 51.0196  6891.59  83.0077
 51.0616  6894.35  82.353
 51.1036  6867.33  82.5467
 51.1456  6949.47  82.9523
 51.1876  6967.42  82.3917
 51.2296  6899.52  82.6312
 51.2716  6806.06  81.7674
 51.3136  6879.86  82.6766
 51.3556  6815.68  81.9073
 51.3976  6816.05  82.061
 51.4396  6806.47  82.3191
 51.4816  6920.9  82.8608
 51.5236  6814.46  82.308
 51.5656  6826.91  81.9725
 51.6076  6840.97  82.148
 51.6496  6861.46  82.4585
 51.6916  6845.16  82.7213
 51.7336  6734.29  82.1401
 51.7756  6858.47  82.5882
 51.8176  6743.75  82.0053
 51.8596  6829.07  82.537
 51.9016  6903.02  82.5847
 51.9436  6778.36  83.3306
 51.9856  6904.78  84.4972
 52.0276  7024.33  83.6967
 52.0696  6920.29  83.1561
 52.1116  6876.8  83.0153
 52.1536  6920.12  83.1145
 52.1956  6896.06  82.4747
 52.2376  6962.13  83.0326
 52.2796  6908.02  82.5388
 52.3216  6748.38  82.2636
 52.3636  6977.14  83.2117
 52.4056  6842.54  82.2667
 52.4476  6824.07  82.5018
 52.4896  6831.33  82.6057
 52.5316  6888.38  83.014
 52.5736  6796.76  82.1757
 52.6156  7048.33  84.0874
 52.6576  6814.42  82.1034
 52.6996  6641.45  82.0418
 52.7416  6686.58  82.1675
 52.7836  6759.32  82.509
 52.8256  6835.04  82.1766
 52.8676  6661.27  81.703
 52.9096  6802.11  82.6279
 52.9516  6750.67  82.6984
 52.9936  6787.76  83.3134
 53.0356  6775.36  82.2325
 53.0776  6924.32  83.4389
 53.1196  6732.02  82.3633
 53.1616  6803.74  82.8586
 53.2036  6708.95  82.237
 53.2456  6781.96  82.7892
 53.2876  6857.57  82.9351
 53.3296  6786.36  82.8335
 53.3716  6925.68  83.4205
 53.4136  6802.81  82.8271
 53.4556  6750.54  82.546
 53.4976  6642.23  81.7236
 53.5396  6692.66  82.4281
 53.5816  6828.89  82.8949
 53.6236  6610.52  81.9067
 53.6656  6664.72  81.8316
 53.7076  6855.03  82.969
 53.7496  6762.26  82.5339
 53.7916  6786.92  82.8138
 53.8336  6693.31  82.1355
 53.8756  6747.91  83.0406
 53.9176  6692.87  82.0216
 53.9596  6540.36  81.8446
 54.0016  6460.27  80.6805
 54.0436  6410.23  80.5805
 54.0856  6522.48  80.7078
 54.1276  6514.42  80.8594
 54.1696  6487.61  80.8386
 54.2116  6713.72  82.014
 54.2536  6488.84  80.4308
 54.2956  6496.38  80.5316
 54.3376  6429.68  80.5953
 54.3796  6464.51  80.7054
 54.4216  6526.03  81.1552
 54.4636  6453.14  80.6572
 54.5056  6498.39  80.7472
 54.5476  6369.83  80.281
 54.5896  6446.52  80.6071
 54.6316  6523.56  80.9147
 54.6736  6453.66  80.5271
 54.7156  6433.3  80.4761
 54.7576  6320.98  79.7496
 54.7996  6593.46  81.618
 54.8416  6381.72  80.3406
 54.8836  6545.01  81.4419
 54.9256  6360.14  80.0602
 54.9676  6337.05  79.7697
 55.0096  6477.66  80.6915
 55.0516  6329.5  79.9234
 55.0936  6383.79  80.0032
 55.1356  6319.39  79.643
 55.1776  6469.29  80.816
 55.2196  6420.21  80.2898
 55.2616  6471.15  80.8419
 55.3036  6356.28  80.2794
 55.3456  6253.21  79.7728
 55.3876  6319.66  79.925
 55.4296  6236.95  79.4084
 55.4716  6331.84  80.035
 55.5136  6408.7  80.2753
 55.5556  6462.8  80.6522
 55.5976  6298.95  79.7134
 55.6396  6347.68  79.8833
 55.6816  6307.95  79.5915
 55.7236  6270.9  79.3907
 55.7656  6386.07  79.8653
 55.8076  6281.09  79.2046
 55.8496  6362.29  80.1404
 55.8916  6274.28  79.631
 55.9336  6393.93  80.2594
 55.9756  6174.1  78.7562
 56.0176  6246.12  79.346
 56.0596  6255.17  79.4206
 56.1016  6145.43  78.7612
 56.1436  6231.51  79.53
 56.1856  6146.3  78.7334
 56.2276  6371.71  80.1999
 56.2696  6165.67  78.8828
 56.3116  6174.72  79.3142
 56.3536  6228.83  79.342
 56.3956  6235.5  79.3534
 56.4376  6152.77  78.8737
 56.4796  6059.05  78.0908
 56.5216  6137.19  78.9545
 56.5636  6138.36  78.5487
 56.6056  6302.9  79.8263
 56.6476  6162.55  78.5382
 56.6896  6434.95  80.7319
 56.7316  6275.96  79.6463
 56.7736  6290.81  79.7446
 56.8156  6100.65  78.5534
 56.8576  6006.75  77.8833
 56.8996  6185.27  78.9346
 56.9416  6180.21  79.2028
 56.9836  6219.71  78.9912
 57.0256  6020.79  78.0295
 57.0676  6341.09  80.1832
 57.1096  6138.26  78.6807
 57.1516  6030.66  78.0144
 57.1936  6128.4  78.4305
 57.2356  5994.38  77.8905
 57.2776  6091.34  78.4909
 57.3196  6121.91  79.0146
 57.3616  6078.3  78.2598
 57.4036  6088.4  78.3632
 57.4456  6244.27  79.3413
 57.4876  6166.99  78.7202
 57.5296  6058.47  78.251
 57.5716  6011.06  78.0521
 57.6136  6029.69  78.006
 57.6556  6084.69  78.4769
 57.6976  6142.3  78.6817
 57.7396  6004.54  78.1569
 57.7816  6030.24  78.6876
 57.8236  6090.95  78.8621
 57.8656  6055.11  78.2941
 57.9076  6034.01  78.1777
 57.9496  5950.96  77.9964
 57.9916  6069.92  78.285
 58.0336  6079.47  78.6278
 58.0756  6080.47  78.2053
 58.1176  6055.47  78.1126
 58.1596  5940.17  77.9404
 58.2016  5762.38  75.999
 58.2436  5853.15  76.9885
 58.2856  5690.02  75.8419
 58.3276  5792.54  76.8738
 58.3696  5867.18  77.1398
 58.4116  5784.18  76.4565
 58.4536  5856.68  76.8237
 58.4956  5727.35  76.1454
 58.5376  5845  76.4943
 58.5796  5674  75.7833
 58.6216  5677.51  75.6338
 58.6636  5811.96  76.7281
 58.7056  5886.7  77.0759
 58.7476  5710.98  76.3523
 58.7896  5683.26  75.8232
 58.8316  5797.13  76.5757
 58.8736  5803.6  76.6265
 58.9156  5804.78  76.6749
 58.9576  5689.14  76.2179
 58.9996  5766.4  76.0059
 59.0416  5786.53  76.4867
 59.0836  5830.01  76.695
 59.1256  5768.62  76.9781
 59.1676  5767.77  77.2764
 59.2096  5750.27  76.4762
 59.2516  5927.44  77.2304
 59.2936  5715.36  76.1553
 59.3356  5618.65  75.3903
 59.3776  5684.94  75.9977
 59.4196  5681.54  75.9112
 59.4616  5838.28  76.8152
 59.5036  5705.41  75.9693
 59.5456  5835.21  76.5284
 59.5876  6047.47  78.099
 59.6296  5757.81  76.2734
 59.6716  5772.99  76.4304
 59.7136  5861.66  77.0036
 59.7556  5570.5  75.1979
 59.7976  5583.58  75.0382
 59.8396  5721.96  75.8595
 59.8816  5733.19  76.4646
 59.9236  5681.45  75.7738
 59.9656  5679.09  76.0106
 60.0076  5829.29  76.3781
 60.0496  5754.39  76.3776
 60.0916  5822.99  76.2602
 60.1336  5746.05  76.8347
 60.1756  5770.67  78.1566
 60.1996  0.0000000E+00  0.0000000E+00