File: docs/examples/opeando_xrd/IS17_D/Data/IS17_D/17_Da_f00118.xye
# /beamlines/bl04/projects/cycle2025-II/20250340211-lsimonelli/DATA/IS17_D/17_Da_f00118.xye : mythproc.py merge -s 0.006 -l 0.5 -f /beamlines/bl04/inhouse/ff/FlatField/ff_20Nov2024rod8mm60s_17keV.raw -b True -c true -o xye /beamlines/bl04/projects/cycle2025-II/20250340211-lsimonelli/DATA/IS17_D/17_Da_00118.dat
# IsMon = [6769209, 6771393, 6771546]  IsPos = [-1.4999, -2.4884, -3.4988]
# Wave = 0.4962  CalPath /beamlines/bl04/projects/cycle2025-II/20250340211-lsimonelli/DATA/Align/Si_Pos1_25keV_f00001.cal
# Date = 2025-09-25_02:26:50 Dt = 4.8000  Bin = 0.0060  <imon> = 6770716 +/- 1067 (Min/Max) 6769209 / 6771546
# icurr 250.9725  mocoIn 1.7120E-05  mocoOut 0.8035  i15 7.09151e+06  imon 6.77072e+06  i7 7.0000  iEMpd_timer 4.8000  iEMpd_1 3.5921E-08  iEMpd_2 7.8673E-08  iEMpd_3 1.6974E-08  iEMpd_4 4.9623E-08  iEMhp_timer 4.8000  iEMhp_1 4.9029E-06  iEMhp_2 -2.5329E-08  iEMhp_3 -2.6039E-08  iEMhp_4 -2.1555E-08
#      9776
 1.5856  40553.3  206.807
 1.6276  48368.8  221.982
 1.6696  54413.3  234.614
 1.7116  63235.8  253.414
 1.7536  72142  269.519
 1.7956  76965.1  279.077
 1.8376  73245  272.681
 1.8796  61676.7  248.393
 1.9216  49917.9  224.344
 1.9636  42218.7  205.474
 2.0056  38138.3  194.535
 2.0476  35495.6  189.731
 2.0896  34018.1  184.651
 2.1316  33294.4  181.799
 2.1736  31425.2  178.023
 2.2156  32296.6  179.026
 2.2576  30988  175.991
 2.2996  30158  174.254
 2.3416  30183.4  172.937
 2.3836  29519.3  171.129
 2.4256  29076.4  170.393
 2.4676  28614.5  168.795
 2.5096  28114.8  167.369
 2.5516  27397.2  169.044
 2.5936  27515.7  165.978
 2.6356  27044.7  165.246
 2.6776  27082.4  164.243
 2.7196  26673.8  163.515
 2.7616  26704.8  163.384
 2.8036  26151.7  161.859
 2.8456  26383.2  163.198
 2.8876  25867.7  161.468
 2.9296  25057.1  159.047
 2.9716  25233.2  159.092
 3.0136  25082.6  158.684
 3.0556  25201  159.463
 3.0976  24743.4  156.933
 3.1396  24662.8  157.402
 3.1816  24402.6  156.504
 3.2236  24180.1  155.779
 3.2656  24252  155.041
 3.3076  24098.5  156.021
 3.3496  24160.2  155.146
 3.3916  24553.9  156.234
 3.4336  24868.6  157.813
 3.4756  25241.4  158.924
 3.5176  26200.6  161.692
 3.5596  25912.4  163.256
 3.6016  26103.2  161.454
 3.6436  25341.4  160.19
 3.6856  24707.1  156.466
 3.7276  24019.5  155.368
 3.7696  23743.4  154.665
 3.8116  23358  153.293
 3.8536  23440.4  153.497
 3.8956  23491.2  153.487
 3.9376  23314.7  153.163
 3.9796  23176.6  152.215
 4.0216  23390.5  151.942
 4.0636  23362.7  153.348
 4.1056  23255.2  152.626
 4.1476  23353.6  153.272
 4.1896  23544.3  153.75
 4.2316  23669.4  153.983
 4.2736  24149.4  155.323
 4.3156  24433.3  156.464
 4.3576  25180  158.768
 4.3996  25481.4  159.972
 4.4416  25932.4  160.962
 4.4836  26182.5  161.887
 4.5256  26851.2  164.565
 4.5676  26838.9  164.78
 4.6096  27318.2  164.897
 4.6516  27777.3  165.978
 4.6936  27847.4  167.003
 4.7356  27991.5  167.265
 4.7776  27893.9  166.802
 4.8196  27773.9  167.099
 4.8616  27325.1  165.221
 4.9036  27155  164.453
 4.9456  26958.8  164.507
 4.9876  26193.1  162.058
 5.0296  26630.7  163.217
 5.0716  26485.2  163.558
 5.1136  26714.7  163.965
 5.1556  26985  164.253
 5.1976  27180.9  164.849
 5.2396  27456.3  165.372
 5.2816  27333.7  165.468
 5.3236  27538  165.787
 5.3656  26948.2  164.924
 5.4076  26874.2  164.854
 5.4496  26901  164.416
 5.4916  26904  164.183
 5.5336  27152.3  164.943
 5.5756  26647.4  163.438
 5.6176  27019.4  164.004
 5.6596  27150.5  165.382
 5.7016  27350.7  165.251
 5.7436  27434.6  165.779
 5.7856  27508.1  166.064
 5.8276  27811.2  166.69
 5.8696  27988.1  167.394
 5.9116  27932.3  167.834
 5.9536  28313.5  168.725
 5.9956  28332.7  168.147
 6.0376  28418.7  169.041
 6.0796  28649.1  169.55
 6.1216  28834.7  170.306
 6.1636  28883.4  169.504
 6.2056  29090.3  170.785
 6.2476  29176.1  170.91
 6.2896  29328.5  171.035
 6.3316  29167.1  170.741
 6.3736  29475.4  171.526
 6.4156  29514.7  171.542
 6.4576  29877.8  172.192
 6.4996  29836.5  172.557
 6.5416  29974.1  173.093
 6.5836  29990.9  173.372
 6.6256  30014.2  173.003
 6.6676  30425  173.746
 6.7096  30490  174.796
 6.7516  30944.4  175.74
 6.7936  30825.7  174.826
 6.8356  31224.4  176.033
 6.8776  31535.6  177.719
 6.9196  31409.1  177.768
 6.9616  32100.7  179.148
 7.0036  32266.5  179.257
 7.0456  32593.3  179.452
 7.0876  32211.5  180.101
 7.1296  32469  179.945
 7.1716  32163.9  178.637
 7.2136  32084.9  178.193
 7.2556  32291.8  178.93
 7.2976  32370.4  179.649
 7.3396  32079.7  179.051
 7.3816  32279.5  179.832
 7.4236  32652.5  180.148
 7.4656  32873.1  180.235
 7.5076  32859.7  180.334
 7.5496  32734.6  180.532
 7.5916  32763.6  180.647
 7.6336  33232  181.827
 7.6756  33307.5  181.885
 7.7176  33696.5  183.25
 7.7596  33616.9  184.296
 7.8016  33971.2  187.46
 7.8436  34480.7  185.497
 7.8856  35029.9  186.579
 7.9276  35251.5  187.561
 7.9696  35520.6  188.592
 8.0116  36581.4  189.902
 8.0536  36868.2  190.901
 8.0956  36534.7  191.232
 8.1376  37179.2  192.375
 8.1796  37211.5  192.999
 8.2216  37957.5  193.655
 8.2636  38275.8  194.712
 8.3056  38072.4  194.98
 8.3476  39091.2  196.885
 8.3896  38508.5  195.495
 8.4316  38709.9  196.172
 8.4736  38770.3  195.784
 8.5156  38620  195.681
 8.5576  38507.6  196.391
 8.5996  38169.9  194.387
 8.6416  38173.7  195.673
 8.6836  38110.6  195.34
 8.7256  38559  195.919
 8.7676  37642.7  196.512
 8.8096  37725  194.001
 8.8516  37441.2  192.891
 8.8936  37100  191.902
 8.9356  37089.7  192.219
 8.9776  37506.1  193.401
 9.0196  37104.4  192.031
 9.0616  37469.3  192.427
 9.1036  36864.7  192.079
 9.1456  36923.2  191.572
 9.1876  36819.6  191.257
 9.2296  37029.6  191.193
 9.2716  36365.5  189.541
 9.3136  36371.3  189.537
 9.3556  36703.1  190.378
 9.3976  35114.2  186.751
 9.4396  35401.4  187.406
 9.4816  35205  186.747
 9.5236  35191.4  186.617
 9.5656  35072.6  186.624
 9.6076  35061.5  187.135
 9.6496  34416  185.329
 9.6916  34721.1  186.114
 9.7336  34676.7  185.777
 9.7756  35025.1  187.98
 9.8176  33869.8  184.353
 9.8596  33832.6  182.682
 9.9016  33304.1  181.244
 9.9436  33103.4  180.607
 9.9856  32879.4  180.235
 10.0276  32348  179.877
 10.0696  32653.3  179.755
 10.1116  31479.7  176.755
 10.1536  31912.3  178.134
 10.1956  31210.9  175.764
 10.2376  30878.2  174.328
 10.2796  30894.3  174.496
 10.3216  30838.5  174.609
 10.3636  30509  173.705
 10.4056  30062.8  172.832
 10.4476  29986.9  172.236
 10.4896  30335.5  172.685
 10.5316  29361.2  170.602
 10.5736  29246.9  170.675
 10.6156  28838.9  169.253
 10.6576  29320.1  169.207
 10.6996  28716.6  168.127
 10.7416  28484  167.686
 10.7836  28613.9  168.756
 10.8256  28206.6  167.986
 10.8676  28201.8  167.503
 10.9096  27880.9  166.588
 10.9516  27683.5  164.917
 10.9936  27751.8  165.323
 11.0356  27371.9  164.825
 11.0776  27347.2  164.056
 11.1196  26931.7  163.553
 11.1616  26749.2  162.689
 11.2036  26812.6  162.737
 11.2456  26808.4  163.431
 11.2876  26732.5  162.938
 11.3296  26520.7  162.185
 11.3716  26925.8  163.11
 11.4136  26770.7  163.541
 11.4556  27066.7  164.103
 11.4976  27301.9  163.774
 11.5396  27812.8  165.47
 11.5816  28062  166.683
 11.6236  27602.8  165.532
 11.6656  27162.6  163.356
 11.7076  26376.3  161.822
 11.7496  26013.1  164.69
 11.7916  26053.9  160.082
 11.8336  25666.8  159.779
 11.8756  25413.6  158.525
 11.9176  25797.6  159.373
 11.9596  25409.1  158.356
 12.0016  25355  158.989
 12.0436  25088.4  157.569
 12.0856  24766.7  157.085
 12.1276  24978.4  157.67
 12.1696  24899.9  156.55
 12.2116  25195.4  157.462
 12.2536  24708.5  156.78
 12.2956  24796.4  156.38
 12.3376  24470.6  155.569
 12.3796  24579.1  156.37
 12.4216  24537.2  155.45
 12.4636  24303.3  155.619
 12.5056  24594.6  155.826
 12.5476  24686.6  155.637
 12.5896  24626.8  156.085
 12.6316  24289.7  155.18
 12.6736  24362.6  155.895
 12.7156  24217.5  155.293
 12.7576  24406.3  156.138
 12.7996  24920.1  156.397
 12.8416  24325.5  155.581
 12.8836  24793.9  156.896
 12.9256  25143.3  157.001
 12.9676  25227  157.689
 13.0096  24902  157.786
 13.0516  25135.4  157.538
 13.0936  25122.9  157.913
 13.1356  25544.1  158.194
 13.1776  25306.2  158.466
 13.2196  25239  157.906
 13.2616  25217.2  158.15
 13.3036  25349.9  158.537
 13.3456  25382.7  158.997
 13.3876  25135.7  157.508
 13.4296  25072.7  157.46
 13.4716  25148.8  157.302
 13.5136  25115.7  157.351
 13.5556  25081.5  157.869
 13.5976  25141.4  158.202
 13.6396  25399.2  158.367
 13.6816  25045.2  157.764
 13.7236  25643  159.279
 13.7656  24832  157.278
 13.8076  24997.3  156.57
 13.8496  24799.8  156.556
 13.8916  24842.1  157.71
 13.9336  24780.2  156.724
 13.9756  24603.1  155.508
 14.0176  24697.8  156.492
 14.0596  24304.2  155.211
 14.1016  24360  155.788
 14.1436  24017.4  153.814
 14.1856  23947.9  153.891
 14.2276  23506.6  152.955
 14.2696  23974  154.309
 14.3116  23618.6  153.054
 14.3536  23080.2  151.482
 14.3956  23170.3  151.497
 14.4376  23354.7  151.882
 14.4796  23099  151.038
 14.5216  22787  150.82
 14.5636  22573.3  149.669
 14.6056  22743.4  149.805
 14.6476  22851  149.384
 14.6896  22376.4  148.369
 14.7316  21967.6  148.042
 14.7736  21831.3  146.726
 14.8156  21747.8  146.482
 14.8576  21626  145.919
 14.8996  21214  145.732
 14.9416  20975.5  144.917
 14.9836  21021.7  145.03
 15.0256  20726.5  142.924
 15.0676  20882  143.781
 15.1096  20626.5  142.628
 15.1516  20387.6  142.366
 15.1936  20262.2  141.351
 15.2356  20173.9  141.327
 15.2776  19924.8  140.032
 15.3196  19521.8  139.618
 15.3616  19509.4  139.329
 15.4036  19270.4  138.32
 15.4456  19860.9  140.077
 15.4876  19364.6  137.991
 15.5296  19213  137.739
 15.5716  19074.6  136.836
 15.6136  18883.8  136.487
 15.6556  18967.7  136.016
 15.6976  18721.9  135.43
 15.7396  18735.9  135.874
 15.7816  18620.5  134.95
 15.8236  18199  134.126
 15.8656  18373.3  134.556
 15.9076  18056.5  133.214
 15.9496  18096.5  136.195
 15.9916  17972.4  136.17
 16.0336  17587.4  131.584
 16.0756  17824.4  132.778
 16.1176  17595.8  131.991
 16.1596  17113.3  131.353
 16.2016  17489.5  131.511
 16.2436  17291.6  131.166
 16.2856  17303.9  130.749
 16.3276  16917.1  129.697
 16.3696  17137.1  130.352
 16.4116  17037.1  130.434
 16.4536  17074.1  130.363
 16.4956  16853.8  129.263
 16.5376  16988.2  129.958
 16.5796  16699.1  128.203
 16.6216  16796.6  128.885
 16.6636  16749.6  128.859
 16.7056  16643.2  128.318
 16.7476  16851.9  128.642
 16.7896  16891.8  129.559
 16.8316  16730.9  128.9
 16.8736  16664.5  128.91
 16.9156  16695.1  129.362
 16.9576  16561.7  129.656
 16.9996  16668.4  130.568
 17.0416  16748.1  129.21
 17.0836  16588.5  128.348
 17.1256  16481.5  127.944
 17.1676  16451.6  127.821
 17.2096  16344.1  127.277
 17.2516  16018.3  125.783
 17.2936  16183.8  126.763
 17.3356  15986.4  125.992
 17.3776  15912.5  125.887
 17.4196  16010.2  125.962
 17.4616  15696.4  124.644
 17.5036  15666.7  124.891
 17.5456  15535.8  125.02
 17.5876  15428.9  123.628
 17.6296  15499.3  123.725
 17.6716  15248.2  123.296
 17.7136  15179.5  123.156
 17.7556  15273.1  123.832
 17.7976  15242.9  123.452
 17.8396  15109.2  122.403
 17.8816  15011.8  122.552
 17.9236  15030.6  122.441
 17.9656  15054.4  123.074
 18.0076  15013.2  122.485
 18.0496  14955.5  121.38
 18.0916  14975.8  122.003
 18.1336  14962.9  122.043
 18.1756  15147.4  122.314
 18.2176  14675.1  120.632
 18.2596  14632.4  120.19
 18.3016  14965.4  121.805
 18.3436  14916.7  121.609
 18.3856  14625.9  120.552
 18.4276  14640.3  120.294
 18.4696  14622.7  120.318
 18.5116  14683.6  120.853
 18.5536  14803.2  121.704
 18.5956  14512.5  120.052
 18.6376  14440.3  120.16
 18.6796  14405.3  119.342
 18.7216  14656.7  120.867
 18.7636  14392.5  119.767
 18.8056  14355.2  119.55
 18.8476  14307.7  119.98
 18.8896  14496.3  120.094
 18.9316  14635.8  120.657
 18.9736  14350.2  119.168
 19.0156  14313.8  119.424
 19.0576  14382.8  118.572
 19.0996  14545.8  119.958
 19.1416  14267.9  119.205
 19.1836  14290.8  118.894
 19.2256  14305.2  119.17
 19.2676  14347  119.44
 19.3096  14304.9  119.51
 19.3516  14249.6  119.235
 19.3936  14236.2  119.078
 19.4356  14334.8  119.363
 19.4776  14278.5  119.225
 19.5196  14334.4  119.304
 19.5616  14183.4  118.932
 19.6036  14326  119.017
 19.6456  14243.6  118.801
 19.6876  14304.1  118.697
 19.7296  14286.7  119.086
 19.7716  14079.1  118.381
 19.8136  14435.9  120.085
 19.8556  14547.3  120.01
 19.8976  14436.9  119.625
 19.9396  14570.1  119.747
 19.9816  14822.3  121.023
 20.0236  15120.3  122.46
 20.0656  15349.1  123.373
 20.1076  15269.3  123.541
 20.1496  15125.6  122.963
 20.1916  14899.9  121.541
 20.2336  14433.5  119.561
 20.2756  14261  119.274
 20.3176  14111.3  118.392
 20.3596  14081.2  118.238
 20.4016  13960.6  117.536
 20.4436  14023.5  118.361
 20.4856  13805.6  117.234
 20.5276  13869  117.964
 20.5696  13741  116.877
 20.6116  13672.6  116.862
 20.6536  13689.1  116.43
 20.6956  13652.2  116.408
 20.7376  13643.1  116.595
 20.7796  13605.2  116.122
 20.8216  13786.1  116.59
 20.8636  13449.5  115.537
 20.9056  13510.8  115.741
 20.9476  13392.6  115.076
 20.9896  13642.7  116.011
 21.0316  13610.2  115.762
 21.0736  13471.5  115.698
 21.1156  13430.6  115.681
 21.1576  13444.4  115.795
 21.1996  13327.8  115.271
 21.2416  13199.6  114.548
 21.2836  13316.5  115.009
 21.3256  13190.6  114.557
 21.3676  13178.2  114.044
 21.4096  13189.6  114.407
 21.4516  13198.3  114.324
 21.4936  12964.3  113.559
 21.5356  13053.5  113.89
 21.5776  13235.4  114.517
 21.6196  13143.1  114.151
 21.6616  13143.6  114.238
 21.7036  13239.2  114.433
 21.7456  13263.3  114.614
 21.7876  13023.8  113.323
 21.8296  12996.7  113.06
 21.8716  12953.8  113.103
 21.9136  13070.3  113.817
 21.9556  13010.7  113.226
 21.9976  12988.4  113.147
 22.0396  12825.2  112.69
 22.0816  13093  114.403
 22.1236  13010.3  113.488
 22.1656  13071.4  113.888
 22.2076  13017.9  113.112
 22.2496  13004  113.084
 22.2916  12968.7  112.813
 22.3336  12948.6  113.457
 22.3756  13051.2  113.622
 22.4176  12891.7  112.779
 22.4596  12803.9  112.986
 22.5016  12870.3  112.767
 22.5436  13085.5  113.588
 22.5856  12906.8  113.06
 22.6276  12978.5  113.512
 22.6696  12985.4  113.892
 22.7116  12934  113.18
 22.7536  13033.7  113.59
 22.7956  12995.5  112.748
 22.8376  12872.6  112.74
 22.8796  12851.1  112.443
 22.9216  13078.3  113.989
 22.9636  12785.8  111.854
 23.0056  12894.1  112.46
 23.0476  12860  112.891
 23.0896  13221.9  113.831
 23.1316  12984.1  113.238
 23.1736  12995.3  116.297
 23.2156  12982.1  113.573
 23.2576  13112.4  114.276
 23.2996  13090.2  113.961
 23.3416  12889.9  113.606
 23.3836  12708  112.039
 23.4256  12903.4  113.009
 23.4676  12757.3  112.068
 23.5096  12927.2  113.495
 23.5516  12826.1  112.326
 23.5936  12894.2  113.535
 23.6356  13119.6  114.187
 23.6776  12759.6  112.821
 23.7196  12621.8  111.79
 23.7616  12880  112.842
 23.8036  12859.9  112.789
 23.8456  12840.5  112.268
 23.8876  12531.9  111.273
 23.9296  12591.4  112.029
 23.9716  12636.8  111.416
 24.0136  12789.2  113.006
 24.0556  12445.6  111.206
 24.0976  12362.7  110.644
 24.1396  12457.3  113.741
 24.1816  12539.5  112.515
 24.2236  12433.5  111.641
 24.2656  12298.6  110.501
 24.3076  12111.2  109.91
 24.3496  12187.3  110.141
 24.3916  12150.4  110.027
 24.4336  12110  110.052
 24.4756  12048.3  109.642
 24.5176  11968.4  108.925
 24.5596  11926  108.86
 24.6016  11875.5  108.917
 24.6436  11830.6  108.201
 24.6856  11820.6  107.915
 24.7276  11883.5  108.519
 24.7696  11720  107.886
 24.8116  11789  108.38
 24.8536  11844.5  108.628
 24.8956  11829.8  108.302
 24.9376  11558.8  106.993
 24.9796  11452  106.852
 25.0216  11432.8  106.868
 25.0636  11679.6  107.667
 25.1056  11353.2  106.862
 25.1476  11586.9  109.635
 25.1896  11475.4  107.573
 25.2316  11565.3  107.254
 25.2736  11523.1  106.706
 25.3156  11444.4  106.42
 25.3576  11261.8  105.991
 25.3996  11361.4  106.44
 25.4416  11460.2  106.884
 25.4836  11275.5  106.552
 25.5256  11261.4  105.843
 25.5676  11292.9  105.719
 25.6096  11161.3  105.678
 25.6516  11230.6  105.501
 25.6936  11116.1  105.277
 25.7356  11221.5  105.911
 25.7776  11245.9  105.627
 25.8196  11011.7  104.755
 25.8616  11217.2  105.648
 25.9036  11332  105.654
 25.9456  11258.6  105.915
 25.9876  11100.7  105.234
 26.0296  11343  105.873
 26.0716  11042.3  104.889
 26.1136  11233.5  105.74
 26.1556  11149.6  104.715
 26.1976  11004.9  104.964
 26.2396  11184.7  104.963
 26.2816  11234  105.81
 26.3236  11145.5  105.557
 26.3656  11133.6  105.223
 26.4076  11053  105.053
 26.4496  11658.6  107.392
 26.4916  11293.8  105.68
 26.5336  11271.4  105.902
 26.5756  11562.5  107.085
 26.6176  11030.3  104.673
 26.6596  10940.1  104.557
 26.7016  10995.7  104.575
 26.7436  10870.2  104.11
 26.7856  10670.9  103.133
 26.8276  10806.1  103.744
 26.8696  10818.7  103.674
 26.9116  10845.2  103.738
 26.9536  10720.5  103.188
 26.9956  10744.9  103.34
 27.0376  10694.2  103.314
 27.0796  10742.5  103.268
 27.1216  10725.9  103.273
 27.1636  10593.2  102.796
 27.2056  10629.8  102.856
 27.2476  10663.7  103.021
 27.2896  10642.9  103.032
 27.3316  10646.8  102.757
 27.3736  10544.2  102.532
 27.4156  10463.2  101.982
 27.4576  10456.3  102.181
 27.4996  10408.8  101.543
 27.5416  10511.3  102.36
 27.5836  10494  102.094
 27.6256  10787.1  103.678
 27.6676  10762.6  103.578
 27.7096  10382.8  101.599
 27.7516  10407.7  101.867
 27.7936  10394.2  101.982
 27.8356  10507.9  102.148
 27.8776  10320.3  101.277
 27.9196  10291.6  100.99
 27.9616  10288.5  101.162
 28.0036  10299.7  101.19
 28.0456  10319.8  101.426
 28.0876  10175.1  100.801
 28.1296  10235.8  100.943
 28.1716  10180.3  100.677
 28.2136  10370.3  101.577
 28.2556  10089.2  100.309
 28.2976  10156.8  100.631
 28.3396  10237.6  100.785
 28.3816  10186.2  100.557
 28.4236  10185.7  100.71
 28.4656  10108.6  100.363
 28.5076  10053.1  99.7165
 28.5496  10259  101.001
 28.5916  10154.4  100.294
 28.6336  10036.6  100.055
 28.6756  10057.5  99.3548
 28.7176  10148.8  100.359
 28.7596  10049.4  99.7643
 28.8016  10076.3  99.9293
 28.8436  9879.99  99.1885
 28.8856  10001.5  99.6531
 28.9276  10055.5  100.167
 28.9696  10000.2  99.5438
 29.0116  10004.1  99.7572
 29.0536  9888.49  99.376
 29.0956  9873.45  99.0221
 29.1376  9923.01  99.2308
 29.1796  9887.17  99.0948
 29.2216  9824.59  98.6235
 29.2636  9946.33  99.3127
 29.3056  9941.19  99.0739
 29.3476  9915.89  99.4763
 29.3896  9970.69  99.8424
 29.4316  10051.3  99.5755
 29.4736  9905.66  98.9161
 29.5156  10128  99.9263
 29.5576  9810.42  99.1059
 29.5996  9937.17  98.9893
 29.6416  9877.04  98.809
 29.6836  9938.97  99.0411
 29.7256  9805.48  98.9509
 29.7676  9957.71  99.3693
 29.8096  9849.6  98.7711
 29.8516  9682.13  98.2592
 29.8936  9759.79  98.7501
 29.9356  9973.53  99.5767
 29.9776  9727.86  98.4961
 30.0196  9834.91  98.4187
 30.0616  9829.31  98.7685
 30.1036  9655.34  97.7066
 30.1456  9745.92  98.409
 30.1876  9685.79  98.083
 30.2296  9729.81  98.2521
 30.2716  9781.16  98.144
 30.3136  9855.79  99.392
 30.3556  9762.31  98.9343
 30.3976  9564.35  99.4569
 30.4396  9824.26  98.098
 30.4816  9848.04  97.7995
 30.5236  9691.67  97.0439
 30.5656  9699.89  97.743
 30.6076  9737.45  97.3535
 30.6496  9666.06  97.3878
 30.6916  9549.82  96.887
 30.7336  9566.97  97.1329
 30.7756  9645.39  97.6242
 30.8176  9571.15  97.1621
 30.8596  9524.61  96.6934
 30.9016  9668.69  97.7686
 30.9436  9667.53  97.5138
 30.9856  9712.65  97.85
 31.0276  9509.67  96.4253
 31.0696  9578.13  97.3548
 31.1116  9634.09  97.6164
 31.1536  9506.13  96.8465
 31.1956  9361.27  96.1948
 31.2376  9438.71  96.5986
 31.2796  9465.45  96.2699
 31.3216  9538.65  96.5864
 31.3636  9595.8  97.5747
 31.4056  9563.06  98.7474
 31.4476  9457.63  96.0693
 31.4896  9425.37  96.4135
 31.5316  9455.34  95.9604
 31.5736  9602.44  96.5204
 31.6156  9467.12  95.8599
 31.6576  9422.99  95.7344
 31.6996  9500.02  95.7972
 31.7416  9312.04  95.8925
 31.7836  9384.61  95.2844
 31.8256  9305.25  95.1569
 31.8676  9430.56  95.7862
 31.9096  9340.23  95.6851
 31.9516  9100.42  94.6121
 31.9936  9253.39  95.2226
 32.0356  9232.53  95.1842
 32.0776  9253.89  95.182
 32.1196  9359.2  95.8019
 32.1616  9400.66  95.4762
 32.2036  9214.65  95.0415
 32.2456  9183.66  95.2634
 32.2876  9384.47  95.7868
 32.3296  9202.1  94.8171
 32.3716  9213.66  94.9817
 32.4136  9351.21  95.9029
 32.4556  9402.02  95.5299
 32.4976  9271.8  94.7734
 32.5396  9359.17  95.2949
 32.5816  9235.2  94.7835
 32.6236  9200.06  94.6662
 32.6656  9306.64  95.7678
 32.7076  9110.61  94.405
 32.7496  9132.2  94.1804
 32.7916  9176.5  94.3668
 32.8336  9225.67  94.7219
 32.8756  9324.71  94.9473
 32.9176  9144.81  94.5074
 32.9596  9139.83  94.5601
 33.0016  9222.13  94.7788
 33.0436  9192.96  94.7956
 33.0856  9049.98  94.1304
 33.1276  8984.56  93.5178
 33.1696  9076.35  93.8421
 33.2116  9101.71  94.1987
 33.2536  9163.06  94.5215
 33.2956  9006.59  93.7928
 33.3376  9024.5  93.6258
 33.3796  9207.79  94.7807
 33.4216  9191.8  94.2921
 33.4636  9192.14  94.4394
 33.5056  9015.9  93.7715
 33.5476  8976.05  93.5592
 33.5896  9152.97  94.2471
 33.6316  8936.27  93.4403
 33.6736  8856.62  93.2636
 33.7156  8925.55  93.673
 33.7576  8970.5  93.5406
 33.7996  9126.64  94.1072
 33.8416  8915.14  93.1982
 33.8836  9003.3  93.4311
 33.9256  8978.37  93.3658
 33.9676  8951.49  93.1144
 34.0096  8948.62  93.4251
 34.0516  8940.04  93.0129
 34.0936  8879.26  92.963
 34.1356  9102.88  93.8647
 34.1776  8908.47  92.8654
 34.2196  8819.23  92.5768
 34.2616  8701.37  92.0947
 34.3036  8783.53  92.7797
 34.3456  8771.72  92.4659
 34.3876  8878.98  92.9958
 34.4296  8841.41  92.4838
 34.4716  9055.31  93.7438
 34.5136  8916.17  93.2381
 34.5556  8770.24  92.7232
 34.5976  8853.29  92.9638
 34.6396  8801  92.4012
 34.6816  8827.88  92.6562
 34.7236  8869.72  92.6551
 34.7656  8808.21  92.5248
 34.8076  8718.5  92.3768
 34.8496  8818.62  92.7626
 34.8916  8622.21  91.6041
 34.9336  8917.57  93.1161
 34.9756  8812.33  92.4891
 35.0176  8709.46  92.4783
 35.0596  8715.24  92.3371
 35.1016  8727.36  92.165
 35.1436  8791.31  92.1827
 35.1856  8648.01  91.5589
 35.2276  8732.66  92.1811
 35.2696  8646.28  91.9178
 35.3116  8664.92  92.1071
 35.3536  8668.43  91.8371
 35.3956  8582.77  91.0887
 35.4376  8576.1  91.6133
 35.4796  8612.98  91.8668
 35.5216  8602.37  91.766
 35.5636  8342.04  91.1102
 35.6056  8607.62  91.5589
 35.6476  8693.53  91.911
 35.6896  8666.12  91.8515
 35.7316  8560.3  91.2632
 35.7736  8639.73  91.8876
 35.8156  8446.96  90.8531
 35.8576  8684.78  92.3745
 35.8996  8547.08  91.6078
 35.9416  8614.39  91.4753
 35.9836  8502.88  91.221
 36.0256  8573.76  91.629
 36.0676  8719.17  92.1568
 36.1096  8385.98  90.5161
 36.1516  8643.18  91.7794
 36.1936  8570.78  91.232
 36.2356  8544.15  91.7433
 36.2776  8603.5  91.5405
 36.3196  8471.52  90.4999
 36.3616  8603.05  91.3328
 36.4036  8566.16  91.1948
 36.4456  8485.12  90.9712
 36.4876  8368.29  90.2846
 36.5296  8547.79  91.2841
 36.5716  8406.72  91.3177
 36.6136  8606.32  91.1479
 36.6556  8514.27  90.8563
 36.6976  8435.58  90.9416
 36.7396  8487.92  90.9546
 36.7816  8461.43  91.1875
 36.8236  8441.71  91.0008
 36.8656  8203.53  89.7842
 36.9076  8367.31  90.5537
 36.9496  8358.63  90.4929
 36.9916  8422.59  90.466
 37.0336  8505.82  91.2327
 37.0756  8349.78  90.1811
 37.1176  8396.15  90.7034
 37.1596  8297.01  90.1709
 37.2016  8310.8  90.4756
 37.2436  8431.77  90.4388
 37.2856  8347.72  90.247
 37.3276  8467.97  90.2288
 37.3696  8307.85  90.2679
 37.4116  8286.6  90.0584
 37.4536  8399.68  90.5363
 37.4956  8291.53  89.9928
 37.5376  8373.48  92.0198
 37.5796  8156.05  90.7799
 37.6216  8155.64  89.0342
 37.6636  8211.89  89.2419
 37.7056  8278.63  89.7962
 37.7476  8196.98  88.881
 37.7896  8212.76  89.4591
 37.8316  8216.09  89.6664
 37.8736  8339.96  89.8538
 37.9156  8229.81  89.2626
 37.9576  8237.51  89.1901
 37.9996  8132.71  88.3446
 38.0416  8062.6  88.7738
 38.0836  8342.28  90.2004
 38.1256  8064.87  88.6441
 38.1676  8066.39  88.793
 38.2096  8125.18  88.7379
 38.2516  8263.87  89.6885
 38.2936  8184.19  89.0648
 38.3356  8245.13  89.3112
 38.3776  7869.71  87.5224
 38.4196  8221.41  89.3042
 38.4616  8120.68  88.9988
 38.5036  8148.98  88.9973
 38.5456  8186.69  90.0447
 38.5876  8210.95  90.2075
 38.6296  8028.84  88.1756
 38.6716  8062.25  88.1518
 38.7136  7972.02  87.6002
 38.7556  7916.65  87.7882
 38.7976  8108.29  88.7906
 38.8396  8008.84  88.7015
 38.8816  7995.36  88.402
 38.9236  7980.57  88.1351
 38.9656  8114.48  88.7828
 39.0076  8065.32  87.9173
 39.0496  8076.9  88.5229
 39.0916  8118.17  88.3849
 39.1336  8053.17  88.4553
 39.1756  8006.18  88.2664
 39.2176  8078.17  89.1965
 39.2596  8046.11  88.9406
 39.3016  8087.81  88.7385
 39.3436  7945.62  88.3821
 39.3856  8102.92  88.6952
 39.4276  8102.12  89.1942
 39.4696  8070.32  88.6384
 39.5116  7904.13  88.2374
 39.5536  8149.72  90.0234
 39.5956  8156.31  89.1451
 39.6376  8093.49  88.8101
 39.6796  8023.75  88.1645
 39.7216  8123.66  88.8097
 39.7636  8114.36  89.3381
 39.8056  8135.54  89.2317
 39.8476  7999.93  88.7398
 39.8896  8006.36  88.4016
 39.9316  8006.58  88.6564
 39.9736  8194.7  89.2553
 40.0156  8115.16  88.6375
 40.0576  8096.64  88.9074
 40.0996  8079.96  87.9935
 40.1416  8194.26  89.4173
 40.1836  8155.88  89.0967
 40.2256  8092.21  88.7958
 40.2676  8042.27  88.6253
 40.3096  8144.82  89.1156
 40.3516  8147.87  89.2385
 40.3936  8172.57  88.9306
 40.4356  8071.2  88.5642
 40.4776  8163.24  89.496
 40.5196  8235.55  90.0168
 40.5616  8177.73  89.3383
 40.6036  8030.85  88.7868
 40.6456  8283.51  89.7758
 40.6876  8209.97  89.3596
 40.7296  8140.83  89.1224
 40.7716  8182.21  89.4729
 40.8136  8185.03  89.4368
 40.8556  8184.71  89.5726
 40.8976  8207.29  89.6103
 40.9396  8028.49  88.986
 40.9816  8075.19  88.5208
 41.0236  8158.66  88.754
 41.0656  8108.66  89.0297
 41.1076  8255.56  89.5988
 41.1496  8255.31  89.5063
 41.1916  8103.53  89.0037
 41.2336  8033.78  88.6112
 41.2756  8179.81  89.013
 41.3176  8110.7  89.2565
 41.3596  8156.57  89.231
 41.4016  8059.45  88.9518
 41.4436  8177.58  89.3968
 41.4856  8209.28  89.7292
 41.5276  8140.37  89.3772
 41.5696  8152.92  89.0701
 41.6116  8037.68  88.8403
 41.6536  8086.61  88.9645
 41.6956  8024.36  88.6773
 41.7376  7970.87  88.4104
 41.7796  8063.15  88.7971
 41.8216  8237.27  89.9957
 41.8636  8096.8  89.1613
 41.9056  7960.81  88.1944
 41.9476  8083.7  89.112
 41.9896  8090.99  88.8194
 42.0316  8092.89  88.9099
 42.0736  8063.44  88.864
 42.1156  8040.06  88.5686
 42.1576  8032.82  88.6248
 42.1996  7962.64  88.3813
 42.2416  8172.93  89.1116
 42.2836  8019.39  88.3899
 42.3256  8009.23  88.4504
 42.3676  8048.92  88.472
 42.4096  8051.23  88.4448
 42.4516  7990.64  88.2014
 42.4936  7958.84  88.0937
 42.5356  8018.53  88.5579
 42.5776  7955.14  88.1464
 42.6196  8078.07  88.8799
 42.6616  7920.88  88.1837
 42.7036  7981.75  87.9016
 42.7456  8034.49  88.5542
 42.7876  8021.13  88.5812
 42.8296  7943.62  87.9836
 42.8716  7854.01  87.6419
 42.9136  7925.55  87.8306
 42.9556  7948.28  88.0906
 42.9976  8122.34  89.008
 43.0396  8004.93  88.0935
 43.0816  7973.79  88.2979
 43.1236  7898.1  87.9433
 43.1656  7945.15  88.0354
 43.2076  7937.64  88.101
 43.2496  7824.23  87.276
 43.2916  7872.77  87.9191
 43.3336  7853.6  87.647
 43.3756  7800.09  87.0984
 43.4176  7760.76  86.9653
 43.4596  7958.25  87.9183
 43.5016  7849.95  87.7276
 43.5436  7840.7  87.5718
 43.5856  7898.3  87.9202
 43.6276  7888.15  87.7595
 43.6696  7776.86  87.3972
 43.7116  8003.32  88.1493
 43.7536  7866.15  87.8811
 43.7956  7743.46  88.3983
 43.8376  7813.5  87.3126
 43.8796  7687.61  86.6915
 43.9216  7850.21  87.52
 43.9636  7815.37  87.4377
 44.0056  7862.44  87.9339
 44.0476  7815.95  87.2989
 44.0896  7637.55  86.6417
 44.1316  7854.2  87.3773
 44.1736  7743.83  86.8875
 44.2156  7819.36  87.1643
 44.2576  7696.55  86.7989
 44.2996  7793.85  87.3204
 44.3416  7786.89  87.0346
 44.3836  7609.69  86.3723
 44.4256  7614.91  86.042
 44.4676  7567.66  85.9331
 44.5096  7688.66  86.763
 44.5516  7775.03  87.2113
 44.5936  7593.23  86.1367
 44.6356  7711.36  86.5419
 44.6776  7701.54  86.8086
 44.7196  7622.02  86.6671
 44.7616  7686.02  88.3737
 44.8036  7514.79  85.8078
 44.8456  7587.2  86.4248
 44.8876  7601.47  86.3578
 44.9296  7815.42  87.0128
 44.9716  7548.83  85.9447
 45.0136  7514.72  85.6856
 45.0556  7673.82  86.5625
 45.0976  7550.17  86.0302
 45.1396  7397.16  84.9184
 45.1816  7531.24  85.6088
 45.2236  7725.2  86.5977
 45.2656  7443.3  85.5085
 45.3076  7518.38  85.723
 45.3496  7514.2  86.0014
 45.3916  7448.07  85.8914
 45.4336  7438.53  85.6829
 45.4756  7461.14  85.6679
 45.5176  7462.36  85.2906
 45.5596  7533.63  85.8209
 45.6016  7515.61  86.1349
 45.6436  7501.95  85.2353
 45.6856  7512.32  85.9507
 45.7276  7443.13  86.8785
 45.7696  7538.82  87.1002
 45.8116  7515.15  86.3959
 45.8536  7392.16  85.585
 45.8956  7600.29  86.1222
 45.9376  7421.18  84.5687
 45.9796  7443.23  85.3787
 46.0216  7538.96  86.275
 46.0636  7468.13  85.0097
 46.1056  7418.86  84.7119
 46.1476  7547.32  86.0428
 46.1896  7501.25  85.9304
 46.2316  7367.4  85.0304
 46.2736  7122.63  83.9664
 46.3156  7470.63  85.5765
 46.3576  7390.09  85.3191
 46.3996  7383.61  85.4412
 46.4416  7435.84  85.3168
 46.4836  7299.43  84.8873
 46.5256  7491.04  85.9296
 46.5676  7313.72  85.0214
 46.6096  7382.94  85.3495
 46.6516  7437.93  84.7145
 46.6936  7466.83  85.3719
 46.7356  7496.43  85.6447
 46.7776  7330.62  85.5357
 46.8196  7366.75  85.3426
 46.8616  7184.91  84.2222
 46.9036  7180.45  83.8574
 46.9456  7253.81  83.9337
 46.9876  7265.7  84.0809
 47.0296  7233.98  84.581
 47.0716  7343.11  85.0415
 47.1136  7241.37  84.1268
 47.1556  7358.72  84.6779
 47.1976  7306.49  84.4555
 47.2396  7245.69  84.4995
 47.2816  7221.51  84.0597
 47.3236  7155.45  84.0388
 47.3656  7242.3  84.4826
 47.4076  7219.4  84.1498
 47.4496  7194.25  84.091
 47.4916  7227.24  84.4831
 47.5336  7218.01  84.2451
 47.5756  7335.08  85.0354
 47.6176  7135.6  83.7784
 47.6596  7223.4  84.0039
 47.7016  7274.84  84.1245
 47.7436  7211.69  84.0931
 47.7856  7285.62  84.5404
 47.8276  7156.7  83.8414
 47.8696  7118.57  83.7069
 47.9116  7294.08  84.4418
 47.9536  7144.69  83.514
 47.9956  7104.92  83.9872
 48.0376  7112.9  83.8074
 48.0796  7225.87  84.5932
 48.1216  7282.26  84.7452
 48.1636  7382.61  84.903
 48.2056  7079.4  83.3993
 48.2476  7305.56  85.0317
 48.2896  7192.56  84.2792
 48.3316  7048.7  83.3784
 48.3736  7143.92  83.9623
 48.4156  7058.3  83.3101
 48.4576  7150.46  84.1461
 48.4996  7122.16  83.4354
 48.5416  7156.58  83.9644
 48.5836  7184.41  83.8067
 48.6256  7132.64  83.7074
 48.6676  7044.47  83.6907
 48.7096  7114.6  83.3827
 48.7516  7072.08  83.283
 48.7936  7051.87  83.2238
 48.8356  7063.33  83.3435
 48.8776  7076.91  83.9926
 48.9196  7202.46  84.0976
 48.9616  7028.41  83.4537
 49.0036  7164.11  84.6113
 49.0456  6999.11  83.6049
 49.0876  7013.83  83.2394
 49.1296  6928.61  82.8928
 49.1716  6838.59  82.2183
 49.2136  7059.44  83.473
 49.2556  7084.77  83.6469
 49.2976  7068.34  83.6221
 49.3396  7006.42  83.2995
 49.3816  7160.82  83.6452
 49.4236  7012.05  83.2028
 49.4656  6922.87  82.6841
 49.5076  7027.1  83.0545
 49.5496  6975.06  82.8099
 49.5916  7003.36  82.894
 49.6336  6913.48  82.5611
 49.6756  6951.6  83.029
 49.7176  7023.4  83.3897
 49.7596  6964.42  82.8103
 49.8016  7136.66  83.7407
 49.8436  6933.49  82.8377
 49.8856  7005.89  83.2751
 49.9276  6899.63  82.7397
 49.9696  6965.78  83.12
 50.0116  6946.09  83.1362
 50.0536  6937.46  83.0288
 50.0956  6942.04  83.1303
 50.1376  6926.37  82.7297
 50.1796  6854.25  82.5702
 50.2216  6850.05  82.5367
 50.2636  6871.41  82.2842
 50.3056  6796.84  82.0085
 50.3476  6884  82.5509
 50.3896  6898.67  82.6123
 50.4316  6921.95  82.5916
 50.4736  6825.36  82.231
 50.5156  6914.68  82.7597
 50.5576  6927.61  82.59
 50.5996  6821.25  82.2348
 50.6416  6798.81  82.034
 50.6836  6816.33  82.1962
 50.7256  6802.43  82.0438
 50.7676  6787.64  82.2643
 50.8096  6826.57  82.0365
 50.8516  6681.05  81.5719
 50.8936  6834.76  82.2794
 50.9356  6880.7  82.6676
 50.9776  6757.17  82.073
 51.0196  6703.32  81.8719
 51.0616  6774.59  81.6328
 51.1036  6821.61  82.2705
 51.1456  6816.93  82.1551
 51.1876  6760.01  81.1566
 51.2296  6731.98  81.6182
 51.2716  6731.38  81.3226
 51.3136  6772.22  82.0133
 51.3556  6734.38  81.4233
 51.3976  6690.38  81.3069
 51.4396  6550.65  80.7557
 51.4816  6612.9  80.9937
 51.5236  6674.28  81.4523
 51.5656  6716.1  81.3113
 51.6076  6691.44  81.2392
 51.6496  6714.17  81.5718
 51.6916  6651.01  81.5391
 51.7336  6679.66  81.8086
 51.7756  6618.69  81.1338
 51.8176  6591.38  81.0708
 51.8596  6669.04  81.5638
 51.9016  6937.63  82.7886
 51.9436  6581.84  82.0833
 51.9856  6568.48  82.4381
 52.0276  6739.19  82.0037
 52.0696  6723.61  81.9738
 52.1116  6633.06  81.5353
 52.1536  6604.05  81.2445
 52.1956  6752.97  81.6161
 52.2376  6651.28  81.172
 52.2796  6562  80.4389
 52.3216  6565.01  81.1416
 52.3636  6622.3  81.0766
 52.4056  6524.37  80.3267
 52.4476  6581.58  81.0509
 52.4896  6551.68  80.9176
 52.5316  6602.17  81.2748
 52.5736  6650.51  81.2949
 52.6156  6571.62  81.1803
 52.6576  6585.37  80.7135
 52.6996  6367.47  80.3346
 52.7416  6631.46  81.8239
 52.7836  6575.54  81.3689
 52.8256  6645.43  81.0177
 52.8676  6480.39  80.5863
 52.9096  6606.8  81.4466
 52.9516  6553.17  81.4856
 52.9936  6534.46  81.7588
 53.0356  6423.52  80.0747
 53.0776  6414.78  80.2791
 53.1196  6455.59  80.6607
 53.1616  6486.67  80.9024
 53.2036  6303.09  79.698
 53.2456  6356.54  80.1454
 53.2876  6382.29  80.0124
 53.3296  6402.79  80.4652
 53.3716  6531.81  81.0177
 53.4136  6435.79  80.5673
 53.4556  6370.38  80.1863
 53.4976  6376.46  80.0739
 53.5396  6424.68  80.768
 53.5816  6345.68  79.9067
 53.6236  6350.82  80.2821
 53.6656  6356.28  79.9453
 53.7076  6459.69  80.5553
 53.7496  6434.92  80.5193
 53.7916  6495.47  81.0111
 53.8336  6318.14  79.8112
 53.8756  6298.91  80.2313
 53.9176  6367.54  80.0193
 53.9596  6503.46  81.641
 54.0016  6389.18  80.2491
 54.0436  6396.05  80.5062
 54.0856  6519.45  80.7038
 54.1276  6384.55  80.0639
 54.1696  6367.81  80.1299
 54.2116  6377.51  79.9489
 54.2536  6389.38  79.8393
 54.2956  6432.81  80.1555
 54.3376  6302.69  79.8205
 54.3796  6372.38  80.1614
 54.4216  6448.16  80.6866
 54.4636  6375.99  80.193
 54.5056  6384.09  80.058
 54.5476  6367.33  80.2921
 54.5896  6419.43  80.453
 54.6316  6352.86  79.8897
 54.6736  6387.35  80.1804
 54.7156  6329.69  79.8414
 54.7576  6320.55  79.7785
 54.7996  6382.78  80.3064
 54.8416  6377.57  80.3258
 54.8836  6248.65  79.6222
 54.9256  6345.52  79.9874
 54.9676  6434.29  80.3948
 55.0096  6385.85  80.1647
 55.0516  6310.03  79.9211
 55.0936  6405.71  80.1373
 55.1356  6264.07  79.3035
 55.1776  6356.27  80.1532
 55.2196  6355.99  79.9331
 55.2616  6306.25  79.8339
 55.3036  6346.2  80.2342
 55.3456  6337.53  80.3369
 55.3876  6379.47  80.3469
 55.4296  6298.02  79.8088
 55.4716  6319.89  79.9838
 55.5136  6272.22  79.4371
 55.5556  6360.59  80.0689
 55.5976  6358.54  80.1098
 55.6396  6285.76  79.6027
 55.6816  6319.47  79.6885
 55.7236  6380.95  80.1199
 55.7656  6422.48  80.1347
 55.8076  6435.3  80.1979
 55.8496  6196.07  79.0072
 55.8916  6285.25  79.7828
 55.9336  6374.72  80.1624
 55.9756  6292.56  79.5335
 56.0176  6234.52  79.3199
 56.0596  6269.49  79.5266
 56.1016  6357.67  80.0898
 56.1436  6312.97  80.0792
 56.1856  6324.97  79.8909
 56.2276  6333.6  80.0048
 56.2696  6273.07  79.5914
 56.3116  6221.84  79.6642
 56.3536  6326.32  79.9913
 56.3956  6306.78  79.8516
 56.4376  6274.84  79.6884
 56.4796  6255.34  79.3573
 56.5216  6202.71  79.4094
 56.5636  6287.51  79.5327
 56.6056  6223.35  79.3561
 56.6476  6343.37  79.7406
 56.6896  6196.96  79.2645
 56.7316  6120.6  78.6819
 56.7736  6233.18  79.4
 56.8156  6353.18  80.165
 56.8576  6220.08  79.26
 56.8996  6272.59  79.5285
 56.9416  6214.29  79.461
 56.9836  6115.62  78.3505
 57.0256  6305.49  79.8707
 57.0676  6220.9  79.4612
 57.1096  6223.05  79.264
 57.1516  6315.01  79.9111
 57.1936  6276.23  79.4097
 57.2356  6224.25  79.4017
 57.2776  6310.11  79.906
 57.3196  6284.83  80.118
 57.3616  6206.8  79.1102
 57.4036  6287.78  79.6857
 57.4456  6217.54  79.2078
 57.4876  6289.82  79.5255
 57.5296  6131.6  78.8521
 57.5716  6181.6  79.166
 57.6136  6265.11  79.5171
 57.6556  6219.28  79.3637
 57.6976  6211.88  79.1423
 57.7396  6155.13  79.1488
 57.7816  6060.43  78.8979
 57.8236  6142.5  79.224
 57.8656  6249.94  79.5618
 57.9076  6195.76  79.2522
 57.9496  6279.5  80.136
 57.9916  6217.66  79.2537
 58.0336  6279.48  79.9181
 58.0756  6196.66  79.0303
 58.1176  6257.75  79.4142
 58.1596  6119.83  79.1076
 58.2016  6381.36  79.9737
 58.2436  6186.4  79.1643
 58.2856  6288.66  79.7336
 58.3276  6232.14  79.7514
 58.3696  6194.06  79.2554
 58.4116  6225.45  79.3181
 58.4536  6188.23  78.9642
 58.4956  6206.41  79.266
 58.5376  6280.49  79.2992
 58.5796  6208.11  79.2713
 58.6216  6306.22  79.7053
 58.6636  6312.19  79.9628
 58.7056  6210.66  79.1701
 58.7476  6214.71  79.6494
 58.7896  6215.93  79.2969
 58.8316  6185.44  79.0971
 58.8736  6286.33  79.7497
 58.9156  6162.75  79.0049
 58.9576  6290.66  80.1472
 58.9996  6339.36  79.6851
 59.0416  6347.32  80.1058
 59.0836  6280.42  79.6022
 59.1256  6216.83  79.9106
 59.1676  6099.98  79.469
 59.2096  6047.05  78.4314
 59.2516  6310.88  79.6959
 59.2936  6214.76  79.4195
 59.3356  6311.29  79.9089
 59.3776  6455.29  80.9901
 59.4196  6124.64  78.8242
 59.4616  6227.94  79.3439
 59.5036  6149.12  78.876
 59.5456  6412.84  80.2335
 59.5876  6248.67  79.3943
 59.6296  6202.98  79.1736
 59.6716  6285.66  79.7586
 59.7136  6131.42  78.7622
 59.7556  6206.57  79.3817
 59.7976  6289.27  79.6457
 59.8396  6324.24  79.7586
 59.8816  6276.85  80.015
 59.9236  6283.78  79.6959
 59.9656  6238.16  79.6693
 60.0076  6216.82  78.8827
 60.0496  6154.58  78.9955
 60.0916  6476.52  80.4327
 60.1336  6149.8  79.495
 60.1756  6087.98  80.2834
 60.1996  0.0000000E+00  0.0000000E+00