File: docs/examples/opeando_xrd/IS17_D/Data/IS17_D/17_Db_f00107.xye
# /beamlines/bl04/projects/cycle2025-II/20250340211-lsimonelli/DATA/IS17_D/17_Db_f00107.xye : mythproc.py merge -s 0.006 -l 0.5 -f /beamlines/bl04/inhouse/ff/FlatField/ff_20Nov2024rod8mm60s_17keV.raw -b True -c true -o xye /beamlines/bl04/projects/cycle2025-II/20250340211-lsimonelli/DATA/IS17_D/17_Db_00107.dat
# IsMon = [6751848, 6749791, 6750303]  IsPos = [-1.4999, -2.4885, -3.4988]
# Wave = 0.4962  CalPath /beamlines/bl04/projects/cycle2025-II/20250340211-lsimonelli/DATA/Align/Si_Pos1_25keV_f00001.cal
# Date = 2025-09-24_23:32:44 Dt = 4.8000  Bin = 0.0060  <imon> = 6750647 +/- 874 (Min/Max) 6749791 / 6751848
# icurr 249.6795  mocoIn 1.7031E-05  mocoOut 0.7988  i15 7.0746e+06  imon 6.75065e+06  i7 5.6667  iEMpd_timer 4.8000  iEMpd_1 3.5067E-08  iEMpd_2 7.7826E-08  iEMpd_3 1.6714E-08  iEMpd_4 4.7712E-08  iEMhp_timer 4.8000  iEMhp_1 4.8781E-06  iEMhp_2 -2.5515E-08  iEMhp_3 -2.4060E-08  iEMhp_4 -2.1080E-08
#      9776
 1.5856  43911.8  215.157
 1.6276  50867.4  227.597
 1.6696  56608.9  239.252
 1.7116  63743.2  254.378
 1.7536  72465.7  270.069
 1.7956  76132.6  277.509
 1.8376  72710.3  271.63
 1.8796  62574.1  250.126
 1.9216  52591.8  230.228
 1.9636  45451  213.151
 2.0056  41576.9  203.075
 2.0476  38699  198.068
 2.0896  37076.6  192.735
 2.1316  36644.8  190.688
 2.1736  35042.9  187.953
 2.2156  35511.5  187.687
 2.2576  34237.4  184.949
 2.2996  33054.1  182.393
 2.3416  33686.1  182.657
 2.3836  32974.2  180.83
 2.4256  31862  178.333
 2.4676  31573.9  177.273
 2.5096  31439.8  176.954
 2.5516  30073.1  177.061
 2.5936  29963.2  173.187
 2.6356  29480.7  172.506
 2.6776  29685.7  171.966
 2.7196  29250.9  171.205
 2.7616  29175.3  170.763
 2.8036  28585.6  169.207
 2.8456  28765.3  170.401
 2.8876  27915.1  167.694
 2.9296  27743.1  167.342
 2.9716  27315.7  165.516
 3.0136  26854  164.181
 3.0556  26840.9  164.541
 3.0976  27185.1  164.46
 3.1396  26412.8  162.843
 3.1816  26136.5  161.944
 3.2236  26087.9  161.762
 3.2656  25691.3  159.575
 3.3076  25438.1  160.283
 3.3496  25737.4  160.363
 3.3916  25864.3  160.337
 3.4336  26200.3  161.968
 3.4756  26801.5  163.749
 3.5176  27172.8  164.641
 3.5596  26902.8  166.316
 3.6016  26870  163.805
 3.6436  26044.8  162.396
 3.6856  25787.4  159.86
 3.7276  24808.9  157.896
 3.7696  24447.4  156.931
 3.8116  24132  155.808
 3.8536  24204  155.971
 3.8956  24204.7  155.791
 3.9376  23961.8  155.279
 3.9796  23879.4  154.495
 4.0216  23919  153.649
 4.0636  23721.3  154.482
 4.1056  23873.9  154.643
 4.1476  24164.7  155.885
 4.1896  24195.6  155.846
 4.2316  24523.2  156.724
 4.2736  24727.9  157.171
 4.3156  24884.4  157.906
 4.3576  25740.2  160.494
 4.3996  25781.5  160.909
 4.4416  26311.5  162.131
 4.4836  26880.2  164.041
 4.5256  27369.3  166.13
 4.5676  27062.7  165.462
 4.6096  27913  166.667
 4.6516  28136.6  167.04
 4.6936  28159.4  167.943
 4.7356  28247  168.024
 4.7776  28160.1  167.599
 4.8196  28303.6  168.667
 4.8616  27380.3  165.525
 4.9036  27350.7  165.02
 4.9456  27249.1  165.385
 4.9876  26488.8  162.962
 5.0296  26761.9  163.634
 5.0716  26464.3  163.344
 5.1136  26720.9  163.993
 5.1556  26928  164.081
 5.1976  27613.6  166.144
 5.2396  27522.7  165.565
 5.2816  27732.5  166.666
 5.3236  27570.3  165.875
 5.3656  27022  165.155
 5.4076  26803.8  164.629
 5.4496  26814.4  164.16
 5.4916  26905.6  164.185
 5.5336  26745.2  163.71
 5.5756  26961.8  164.368
 5.6176  27146.3  164.375
 5.6596  27156.1  165.392
 5.7016  27129.2  164.575
 5.7436  27422.7  165.743
 5.7856  27012.6  164.565
 5.8276  27471.1  165.671
 5.8696  27932.9  167.229
 5.9116  27480.5  166.47
 5.9536  27951.6  167.629
 5.9956  28225.1  167.837
 6.0376  28328.3  168.764
 6.0796  28451.6  168.968
 6.1216  28314.8  168.761
 6.1636  28660.6  168.826
 6.2056  28411.4  168.781
 6.2476  28703.4  169.515
 6.2896  29143.6  170.487
 6.3316  29175.9  170.749
 6.3736  29022.7  170.201
 6.4156  29352.1  171.048
 6.4576  29311.5  170.552
 6.4996  29287.5  170.961
 6.5416  29320  171.178
 6.5836  29381.6  171.607
 6.6256  29625.6  171.868
 6.6676  30198.9  173.088
 6.7096  30259.5  174.119
 6.7516  30444.6  174.314
 6.7936  30597.9  174.152
 6.8356  30617.2  174.306
 6.8776  30714.2  175.387
 6.9196  30904.9  176.327
 6.9616  31551  177.565
 7.0036  31732  177.767
 7.0456  31770.1  177.166
 7.0876  31734.5  178.754
 7.1296  31801.3  178.076
 7.1716  31859.5  177.77
 7.2136  31546.6  176.679
 7.2556  31721.8  177.33
 7.2976  31738.8  177.866
 7.3396  31408.9  177.163
 7.3816  31765.2  178.386
 7.4236  31883.2  178.009
 7.4656  32005.9  177.806
 7.5076  32560  179.495
 7.5496  32099.8  178.766
 7.5916  32329.9  179.449
 7.6336  32605.1  180.088
 7.6756  32896.6  180.746
 7.7176  33149.8  181.762
 7.7596  33126.8  182.932
 7.8016  33649.6  186.607
 7.8436  33361.5  182.477
 7.8856  33364.3  182.1
 7.9276  33955.6  184.1
 7.9696  34292.9  185.321
 8.0116  35311.6  186.599
 8.0536  35192  186.534
 8.0956  35253.7  187.871
 8.1376  35772.9  188.721
 8.1796  35826.3  189.396
 8.2216  36604.7  190.186
 8.2636  36690.3  190.661
 8.3056  36238  190.238
 8.3476  37247.4  192.204
 8.3896  36823.5  191.182
 8.4316  36926.8  191.617
 8.4736  37210.1  191.825
 8.5156  36716.4  190.821
 8.5576  36383.5  190.917
 8.5996  36371.5  189.771
 8.6416  36461.9  191.256
 8.6836  36157.4  190.291
 8.7256  36528.9  190.721
 8.7676  36574.9  193.738
 8.8096  36759.5  191.521
 8.8516  36661.5  190.837
 8.8936  36122.2  189.383
 8.9356  36630.4  191.037
 8.9776  36520.1  190.834
 9.0196  36558.5  190.602
 9.0616  36395.9  189.683
 9.1036  35552.7  188.628
 9.1456  35432.7  187.648
 9.1876  35923.8  188.879
 9.2296  35353.3  186.829
 9.2716  35382.8  186.939
 9.3136  35390.5  186.96
 9.3556  35279.6  186.643
 9.3976  34456.8  184.96
 9.4396  34717.5  185.565
 9.4816  34306.7  184.322
 9.5236  34053.3  183.545
 9.5656  34074.2  183.954
 9.6076  33166.2  182.011
 9.6496  33481.5  182.748
 9.6916  33214.2  181.982
 9.7336  33564.4  182.704
 9.7756  33049.4  182.669
 9.8176  32908.3  181.694
 9.8596  32799.1  179.835
 9.9016  32783.3  179.781
 9.9436  32157.1  177.982
 9.9856  31752.2  177.126
 10.0276  31648.1  177.903
 10.0696  31897.7  177.641
 10.1116  30860  174.986
 10.1536  30682.1  174.645
 10.1956  30366.6  173.356
 10.2376  30260.4  172.563
 10.2796  29935.1  171.746
 10.3216  29512.8  170.818
 10.3636  29523.5  170.865
 10.4056  28695.9  168.861
 10.4476  29128.5  169.727
 10.4896  29152.1  169.255
 10.5316  28192.7  167.162
 10.5736  28481.5  168.422
 10.6156  28114.7  167.09
 10.6576  28006.4  165.352
 10.6996  27809  165.469
 10.7416  27764.7  165.545
 10.7836  27038  164.035
 10.8256  26765.9  163.622
 10.8676  26703.5  162.99
 10.9096  26609.6  162.724
 10.9516  26290.7  160.712
 10.9936  26483.8  161.503
 11.0356  26243.3  161.365
 11.0776  26046.6  160.106
 11.1196  25607.3  159.505
 11.1616  25395.6  158.52
 11.2036  25386.4  158.345
 11.2456  25428.4  159.178
 11.2876  25640.1  159.559
 11.3296  25114  157.831
 11.3716  25321.1  158.162
 11.4136  25168.4  158.563
 11.4556  25057  157.878
 11.4976  25490.9  158.25
 11.5396  25516.2  158.499
 11.5816  26117.9  160.791
 11.6236  26676.6  162.955
 11.6656  27216.7  163.501
 11.7076  26047.7  160.792
 11.7496  25206.2  162.183
 11.7916  25255.7  157.583
 11.8336  24533.9  156.237
 11.8756  24776.2  156.529
 11.9176  24466.8  155.224
 11.9596  24556.4  155.666
 12.0016  24367.6  155.836
 12.0436  24564.6  155.913
 12.0856  24088.9  154.906
 12.1276  23920.3  154.311
 12.1696  23858.4  153.231
 12.2116  23827  153.137
 12.2536  23853.5  154.034
 12.2956  23522.3  152.309
 12.3376  23884.5  153.677
 12.3796  23757.1  153.753
 12.4216  23867  153.299
 12.4636  23350  152.562
 12.5056  23694.4  152.948
 12.5476  23763.1  152.685
 12.5896  23437.5  152.278
 12.6316  23647.5  153.099
 12.6736  23411.5  152.826
 12.7156  23763  153.795
 12.7576  23479.9  153.147
 12.7996  23670  152.408
 12.8416  23498.2  152.906
 12.8836  23580.8  153.005
 12.9256  24005.8  153.414
 12.9676  23949.9  153.637
 13.0096  24145.3  155.367
 13.0516  24007.5  153.959
 13.0936  24353.3  155.474
 13.1356  24660.3  155.409
 13.1776  24311.2  155.326
 13.2196  24480.4  155.508
 13.2616  24329  155.344
 13.3036  24573.9  156.081
 13.3456  24103.3  154.725
 13.3876  24738  156.224
 13.4296  24273  154.918
 13.4716  24403.1  154.954
 13.5136  24406.5  155.093
 13.5556  24364.4  155.599
 13.5976  24547  156.35
 13.6396  24328.3  155.009
 13.6816  24377.9  155.633
 13.7236  24815.3  156.621
 13.7656  26475.6  162.2
 13.8076  26878.4  162.108
 13.8496  26571.4  161.818
 13.8916  24549.6  156.711
 13.9336  23944.8  154.043
 13.9756  24037.3  153.709
 14.0176  23694.4  153.294
 14.0596  23800.3  153.545
 14.1016  23620  153.4
 14.1436  23676.6  152.706
 14.1856  23066.3  151.026
 14.2276  23268.2  152.166
 14.2696  23085.9  151.425
 14.3116  22503.9  149.414
 14.3536  22198.5  148.552
 14.3956  22102.7  147.964
 14.4376  22472.9  148.976
 14.4796  22360  148.608
 14.5216  22058.8  148.39
 14.5636  22011.9  147.806
 14.6056  22088.1  147.62
 14.6476  22028.5  146.664
 14.6896  21582.1  145.711
 14.7316  21274.4  145.7
 14.7736  21114.3  144.293
 14.8156  21019.3  143.985
 14.8576  20977  143.7
 14.8996  20605.9  143.621
 14.9416  20187.2  142.174
 14.9836  20212.8  142.245
 15.0256  19710.9  139.395
 15.0676  19741  139.812
 15.1096  19535.2  138.818
 15.1516  19259.4  138.39
 15.1936  19279.1  137.893
 15.2356  18895.5  136.79
 15.2776  18885.7  136.348
 15.3196  18465.2  135.802
 15.3616  18431.9  135.438
 15.4036  18382.3  135.121
 15.4456  18805.6  136.315
 15.4876  18091.3  133.391
 15.5296  18155  133.911
 15.5716  17955.3  132.777
 15.6136  17937.1  133.032
 15.6556  17975.6  132.424
 15.6976  17551.2  130.928
 15.7396  17517.4  131.394
 15.7816  17532.1  130.97
 15.8236  17155.6  130.238
 15.8656  17207.9  130.232
 15.9076  17099.1  129.644
 15.9496  17816.2  135.134
 15.9916  17635.3  134.841
 16.0336  17789.8  132.294
 16.0756  17438.1  131.303
 16.1176  17302.4  130.873
 16.1596  16917.7  130.58
 16.2016  17048.9  129.844
 16.2436  16913  129.708
 16.2856  16804  128.788
 16.3276  16458.1  127.911
 16.3696  16781.4  128.983
 16.4116  16476.8  128.232
 16.4536  16490.8  128.112
 16.4956  16605.9  128.29
 16.5376  16099.7  126.505
 16.5796  16263.4  126.524
 16.6216  16297.2  126.911
 16.6636  16110.2  126.379
 16.7056  16248.3  126.777
 16.7476  16295.5  126.488
 16.7896  16003.1  126.082
 16.8316  16221.5  126.928
 16.8736  16151.4  126.898
 16.9156  16289.8  127.775
 16.9576  15976.5  127.327
 16.9996  16050.7  128.096
 17.0416  16138.4  126.834
 17.0836  16325  127.321
 17.1256  16300.1  127.234
 17.1676  16151.2  126.613
 17.2096  15970.8  125.793
 17.2516  16127.8  126.199
 17.2936  15997.5  126.042
 17.3356  15788.2  125.194
 17.3776  15589.9  124.602
 17.4196  15633.3  124.474
 17.4616  15424.2  123.549
 17.5036  15197  122.998
 17.5456  15112  123.278
 17.5876  15126.8  122.394
 17.6296  15060.7  121.961
 17.6716  14982.8  122.218
 17.7136  14986.5  122.356
 17.7556  14847.8  122.09
 17.7976  14666.5  120.945
 17.8396  14667.9  120.582
 17.8816  14556.7  120.692
 17.9236  14656.9  120.894
 17.9656  14328.5  120.209
 18.0076  14506.9  120.386
 18.0496  14409.1  119.131
 18.0916  14301  119.223
 18.1336  14333.2  119.45
 18.1756  14449  119.485
 18.2176  14069.1  118.113
 18.2596  14159.3  118.226
 18.3016  14140.2  118.406
 18.3436  14227.2  119.003
 18.3856  14189  118.732
 18.4276  14044.4  117.826
 18.4696  14060.1  117.967
 18.5116  14101  118.415
 18.5536  13941.7  118.094
 18.5956  13839.4  117.233
 18.6376  13735.2  117.192
 18.6796  13942.6  117.391
 18.7216  13995.8  118.17
 18.7636  13998.2  118.109
 18.8056  13751.4  116.991
 18.8476  13541.8  116.714
 18.8896  13863.4  117.441
 18.9316  13798.3  116.985
 18.9736  13775.8  116.742
 19.0156  13664.4  116.691
 19.0576  13871.2  116.416
 19.0996  13923.1  117.359
 19.1416  13828.9  117.342
 19.1836  13640.7  116.157
 19.2256  13503.5  115.788
 19.2676  13589.9  116.237
 19.3096  13660.3  116.792
 19.3516  13635  116.638
 19.3936  13559.6  116.216
 19.4356  13850.1  117.323
 19.4776  13656.5  116.596
 19.5196  13760  116.891
 19.5616  13533.4  116.182
 19.6036  13583.8  115.899
 19.6456  13724  116.609
 19.6876  13523.8  115.407
 19.7296  13852.9  117.256
 19.7716  13529.1  115.906
 19.8136  13865.3  117.675
 19.8556  13930.5  117.44
 19.8976  13704.8  116.534
 19.9396  13597.9  115.686
 19.9816  13785.9  116.73
 20.0236  14002.3  117.834
 20.0656  14082.7  118.167
 20.1076  14384.3  119.904
 20.1496  14495.9  120.36
 20.1916  14837.8  121.282
 20.2336  14840.8  121.227
 20.2756  14660.2  120.92
 20.3176  14034.5  118.063
 20.3596  13982.4  117.83
 20.4016  13927.8  117.387
 20.4436  13583.8  116.508
 20.4856  13586.1  116.294
 20.5276  13249.1  115.306
 20.5696  13536.8  115.992
 20.6116  13437.6  115.837
 20.6536  13104.6  113.975
 20.6956  13319.9  114.984
 20.7376  13095.5  114.227
 20.7796  13209.1  114.411
 20.8216  13218.8  114.163
 20.8636  13177.3  114.356
 20.9056  13034.9  113.679
 20.9476  13044.6  113.562
 20.9896  13278.7  114.446
 21.0316  13041.4  113.324
 21.0736  12921.8  113.315
 21.1156  12899.7  113.375
 21.1576  12878.4  113.315
 21.1996  12821.9  113.057
 21.2416  12944.5  113.411
 21.2836  12851.7  112.99
 21.3256  12833.9  112.984
 21.3676  12772.6  112.248
 21.4096  12738.4  112.422
 21.4516  12726.1  112.242
 21.4936  12550.6  111.735
 21.5356  12823.9  112.888
 21.5776  12722.5  112.278
 21.6196  12552.1  111.562
 21.6616  12510.8  111.459
 21.7036  12651.1  111.85
 21.7456  12820.1  112.673
 21.7876  12630  111.598
 21.8296  12536.6  111.028
 21.8716  12566.6  111.389
 21.9136  12828.1  112.746
 21.9556  12552.6  111.212
 21.9976  12449.1  110.775
 22.0396  12623.2  111.804
 22.0816  12435.4  111.49
 22.1236  12678  112.036
 22.1656  12355.8  110.792
 22.2076  12230.1  109.645
 22.2496  12386.7  110.377
 22.2916  12296.5  109.863
 22.3336  12330.8  110.71
 22.3756  12321.7  110.411
 22.4176  12094.1  109.243
 22.4596  12059.1  109.663
 22.5016  12154.2  109.596
 22.5436  12298.7  110.13
 22.5856  12520.8  111.366
 22.6276  12449.3  111.18
 22.6696  12245.5  110.622
 22.7116  12341  110.566
 22.7536  12215.9  109.98
 22.7956  12328  109.823
 22.8376  12181.5  109.683
 22.8796  12101.9  109.127
 22.9216  12233.4  110.255
 22.9636  12247.2  109.483
 23.0056  12123.5  109.057
 23.0476  12413.5  110.924
 23.0896  12398.2  110.239
 23.1316  12228.6  109.913
 23.1736  12446.8  113.813
 23.2156  12454.8  111.239
 23.2576  12757.4  112.71
 23.2996  12669.3  112.108
 23.3416  12666.7  112.617
 23.3836  12618.4  111.635
 23.4256  12975.8  113.321
 23.4676  12684.7  111.739
 23.5096  12632  112.166
 23.5516  12602  111.324
 23.5936  12643.8  112.431
 23.6356  12692.9  112.308
 23.6776  12520.2  111.762
 23.7196  12438.7  110.965
 23.7616  12416.4  110.791
 23.8036  12593.5  111.625
 23.8456  12429.6  110.461
 23.8876  12414.4  110.74
 23.9296  12379.9  111.081
 23.9716  12421.1  110.465
 24.0136  12384.8  111.206
 24.0556  12211.3  110.132
 24.0976  12115.9  109.53
 24.1396  12026.5  111.726
 24.1816  12204.8  111.308
 24.2236  12232.9  110.715
 24.2656  12035.9  109.304
 24.3076  11812.1  108.547
 24.3496  11919.8  108.925
 24.3916  12081.1  109.706
 24.4336  11907.2  109.106
 24.4756  11878.7  108.869
 24.5176  11778.7  108.034
 24.5596  11770.2  108.128
 24.6016  11644.6  107.835
 24.6436  11896.1  108.5
 24.6856  11625.8  107.014
 24.7276  11657.2  107.481
 24.7696  11632.8  107.475
 24.8116  11464.9  106.869
 24.8536  11387.7  106.517
 24.8956  11493.4  106.742
 24.9376  11277.1  105.658
 24.9796  11171.6  105.518
 25.0216  11261  106.055
 25.0636  11255.9  105.69
 25.1056  11213.1  105.921
 25.1476  11289.3  108.16
 25.1896  11174.5  106.149
 25.2316  11141.8  105.274
 25.2736  11074.3  104.606
 25.3156  11092.4  104.751
 25.3576  11133  105.389
 25.3996  11084.1  105.144
 25.4416  10981  104.628
 25.4836  10822.3  104.377
 25.5256  10873.1  103.997
 25.5676  10931  104.003
 25.6096  10757.7  103.747
 25.6516  10868.1  103.785
 25.6936  10951.3  104.493
 25.7356  10862.3  104.203
 25.7776  10900.3  103.978
 25.8196  10722.5  103.371
 25.8616  10740  103.39
 25.9036  10892.2  103.576
 25.9456  10770.3  103.585
 25.9876  10667.3  103.156
 26.0296  10946.9  104.102
 26.0716  10840.2  103.925
 26.1136  10745.1  103.4
 26.1556  10903.2  103.549
 26.1976  10680.4  103.404
 26.2396  10632.6  102.582
 26.2816  10772.9  103.614
 26.3236  10669.3  103.269
 26.3656  10940.9  104.291
 26.4076  10773  103.696
 26.4496  10968.7  104.224
 26.4916  10954  104.065
 26.5336  11346.9  106.254
 26.5756  11501.6  106.854
 26.6176  10912.6  104.106
 26.6596  10775.5  103.748
 26.7016  10681.4  103.063
 26.7436  10710  103.332
 26.7856  10538.2  102.486
 26.8276  10695.5  103.213
 26.8696  10611.6  102.677
 26.9116  10466.4  101.903
 26.9536  10348  101.379
 26.9956  10325.6  101.309
 27.0376  10458  102.17
 27.0796  10465.2  102.011
 27.1216  10365.8  101.512
 27.1636  10333.3  101.519
 27.2056  10323.3  101.354
 27.2476  10221.6  100.836
 27.2896  10266.8  101.183
 27.3316  10306.3  101.099
 27.3736  10161.4  100.657
 27.4156  10199.7  100.672
 27.4576  10210.4  100.962
 27.4996  10292.4  100.955
 27.5416  10057.6  100.115
 27.5836  10177.9  100.547
 27.6256  10060.6  100.142
 27.6676  10079.9  100.231
 27.7096  10222.5  100.818
 27.7516  10018.9  99.9554
 27.7936  10362.2  101.791
 27.8356  10183.6  100.522
 27.8776  10227.9  100.815
 27.9196  10004  99.5644
 27.9616  9981.74  99.6505
 28.0036  9925.46  99.3306
 28.0456  9919.68  99.4387
 28.0876  9873.29  99.2907
 28.1296  10046.9  99.9877
 28.1716  10038.1  99.9673
 28.2136  9963.13  99.5631
 28.2556  9906.3  99.3877
 28.2976  9881.75  99.2615
 28.3396  9707.48  98.1882
 28.3816  9936.14  99.3036
 28.4236  9721.56  98.3767
 28.4656  9725.19  98.4387
 28.5076  9844.37  98.6797
 28.5496  9874.7  99.0841
 28.5916  9874.56  98.8956
 28.6336  9857.53  99.1482
 28.6756  9797.78  98.0588
 28.7176  9722.44  98.2272
 28.7596  9687.84  97.9477
 28.8016  9703.46  98.0608
 28.8436  9608.81  97.8252
 28.8856  9769.8  98.4903
 28.9276  9694.58  98.3514
 28.9696  9641.21  97.7328
 29.0116  9572.86  97.5818
 29.0536  9473.44  97.277
 29.0956  9588.17  97.5679
 29.1376  9577.38  97.4866
 29.1796  9511.4  97.1935
 29.2216  9449.18  96.7173
 29.2636  9710.87  98.0399
 29.3056  9444.38  96.5429
 29.3476  9625.41  97.987
 29.3896  9582.84  97.8978
 29.4316  9418.8  96.4002
 29.4736  9297.22  95.8388
 29.5156  9389.66  96.2327
 29.5576  9306.02  96.5325
 29.5996  9285.58  95.7007
 29.6416  9276.61  95.7711
 29.6836  9369.43  96.1729
 29.7256  9305.26  96.401
 29.7676  9374.17  96.4245
 29.8096  9225.93  95.6013
 29.8516  9082.67  95.1808
 29.8936  9256.42  96.18
 29.9356  9334.74  96.3439
 29.9776  9262.06  96.1193
 30.0196  9204.07  95.2125
 30.0616  9092.74  95.0056
 30.1036  9169.99  95.2379
 30.1456  9234.2  95.795
 30.1876  9286.64  96.0495
 30.2296  9052.12  94.773
 30.2716  9224.89  95.3218
 30.3136  9292.16  96.5169
 30.3556  9401.45  97.08
 30.3976  9203.85  97.5099
 30.4396  9647.37  97.1829
 30.4816  9412.41  95.6075
 30.5236  9591.66  96.5111
 30.5656  9432.91  96.3771
 30.6076  9366.83  95.4467
 30.6496  9247.7  95.2429
 30.6916  9075.83  94.4435
 30.7336  9211.61  95.2903
 30.7756  9266.64  95.6423
 30.8176  9241.59  95.4548
 30.8596  9377.13  95.8988
 30.9016  9368.55  96.1996
 30.9436  9377.77  96.0109
 30.9856  9514.78  96.8188
 31.0276  9352.82  95.6246
 31.0696  9337.34  96.1072
 31.1116  9377.06  96.2771
 31.1536  9405.27  96.2982
 31.1956  9291.54  95.8024
 31.2376  9085.34  94.7691
 31.2796  9254.76  95.1738
 31.3216  9304.44  95.3571
 31.3636  9290.93  95.9979
 31.4056  9187.17  96.7501
 31.4476  9298.02  95.2512
 31.4896  9233.51  95.4181
 31.5316  9242.34  94.9149
 31.5736  9383.18  95.4222
 31.6156  9245.13  94.7258
 31.6576  9558.15  96.4068
 31.6996  9479.13  95.6402
 31.7416  9152.05  95.0753
 31.7836  9249.7  94.5769
 31.8256  9097.66  94.143
 31.8676  9236.93  94.7735
 31.9096  9169.95  94.7889
 31.9516  8959.37  93.872
 31.9936  9021.99  94.0277
 32.0356  9240.5  95.1957
 32.0776  9279.72  95.3038
 32.1196  9234.01  95.1722
 32.1616  9298.89  94.953
 32.2036  9203.09  94.9687
 32.2456  9104.08  94.8335
 32.2876  9030.69  93.7938
 32.3296  9038.84  93.9582
 32.3716  8837.42  93.0251
 32.4136  8774.53  92.8924
 32.4556  9069.08  93.8799
 32.4976  8878.54  92.7498
 32.5396  8797.45  92.3787
 32.5816  8869.09  92.8805
 32.6236  9005.27  93.65
 32.6656  9123.49  94.8153
 32.7076  8975.55  93.6988
 32.7496  8825.59  92.5886
 32.7916  8971.19  93.3086
 32.8336  8966.98  93.3848
 32.8756  8949.7  93.0173
 32.9176  8787.54  92.6481
 32.9596  8798.8  92.7744
 33.0016  8802.88  92.5754
 33.0436  8902.13  93.2676
 33.0856  8826.17  92.962
 33.1276  8745.02  92.2711
 33.1696  8900.33  92.9039
 33.2116  8830.21  92.7846
 33.2536  8881.95  93.0423
 33.2956  8715.17  92.2494
 33.3376  8665.53  91.7223
 33.3796  8850.07  92.9216
 33.4216  8768.33  92.0854
 33.4636  8866.11  92.7491
 33.5056  8660.69  91.9117
 33.5476  8737.64  92.2905
 33.5896  8875.03  92.7904
 33.6316  8862.92  93.058
 33.6736  8716.33  92.5335
 33.7156  8605  91.9708
 33.7576  8764.33  92.4628
 33.7996  8749.16  92.1477
 33.8416  8633.48  91.7151
 33.8836  8659.16  91.6344
 33.9256  8764.75  92.2389
 33.9676  8748.24  92.0564
 34.0096  8611.88  91.6435
 34.0516  8709.22  91.793
 34.0936  8638.75  91.6997
 34.1356  8765.18  92.105
 34.1776  8489.48  90.6439
 34.2196  8581.41  91.3151
 34.2616  8491.43  90.9725
 34.3036  8585.25  91.7128
 34.3456  8596.94  91.5321
 34.3876  8590.89  91.47
 34.4296  8584.27  91.1354
 34.4716  8574.29  91.2284
 34.5136  8661.1  91.8727
 34.5556  8438.87  90.9522
 34.5976  8516.28  91.1804
 34.6396  8509.23  90.8516
 34.6816  8523.52  91.0351
 34.7236  8511.59  90.7531
 34.7656  8510.78  90.9533
 34.8076  8402.37  90.7021
 34.8496  8436.9  90.7417
 34.8916  8488.39  90.8791
 34.9336  8476.54  90.795
 34.9756  8462.54  90.6407
 35.0176  8541.22  91.5914
 35.0596  8557.68  91.4955
 35.1016  8537.66  91.1511
 35.1436  8832.55  92.3843
 35.1856  8519.73  90.8578
 35.2276  8429.76  90.5496
 35.2696  8522.16  91.2495
 35.3116  8380.33  90.5845
 35.3536  8381.23  90.3012
 35.3956  8357.27  89.8806
 35.4376  8601.76  91.7527
 35.4796  8517.08  91.3507
 35.5216  8461.97  91.0086
 35.5636  8233.66  90.5051
 35.6056  8329.88  90.0668
 35.6476  8386.56  90.2612
 35.6896  8499.58  91.0442
 35.7316  8332.85  90.0437
 35.7736  8401.59  90.6007
 35.8156  8426.18  90.7321
 35.8576  8373.71  90.6993
 35.8996  8414.45  90.8886
 35.9416  8338.15  89.9798
 35.9836  8364.71  90.4686
 36.0256  8507.97  91.2495
 36.0676  8578.96  91.1528
 36.1096  8331.42  90.2148
 36.1516  8436.5  90.6663
 36.1936  8332.42  89.9327
 36.2356  8289.49  90.3631
 36.2776  8277.81  89.7859
 36.3196  8280.27  89.4605
 36.3616  8349.93  89.9659
 36.4036  8266.63  89.5884
 36.4456  8330.4  90.1429
 36.4876  8246.46  89.6241
 36.5296  8184.28  89.3308
 36.5716  8328.82  90.8956
 36.6136  8071.1  88.2801
 36.6556  8047.03  88.3421
 36.6976  8039.36  88.7912
 36.7396  7964.86  88.1118
 36.7816  7950.71  88.4049
 36.8236  8116.91  89.2426
 36.8656  7972.71  88.509
 36.9076  7873.58  87.9694
 36.9496  7946.84  88.243
 36.9916  8062.68  88.5036
 37.0336  8069.69  88.869
 37.0756  8127.32  88.9793
 37.1176  7787.01  87.3566
 37.1596  7886.4  87.9171
 37.2016  7884.98  88.0882
 37.2436  8016.16  88.1783
 37.2856  7827.87  87.3965
 37.3276  8014.21  87.7916
 37.3696  7892.73  87.9939
 37.4116  7961.59  88.2826
 37.4536  7748.25  86.9634
 37.4956  7641.27  86.4046
 37.5376  8073.6  90.3896
 37.5796  7979.15  89.7858
 37.6216  7896.35  87.602
 37.6636  8028.46  88.2232
 37.7056  8223.38  89.4757
 37.7476  8133.46  88.5339
 37.7896  7981.02  88.2098
 37.8316  7941.98  88.1421
 37.8736  7982.94  87.9046
 37.9156  7999.18  87.991
 37.9576  8127.32  88.5999
 37.9996  7905.37  87.0943
 38.0416  7922.96  87.9902
 38.0836  8199.87  89.4209
 38.1256  8027.8  88.4504
 38.1676  7775.85  87.1645
 38.2096  8109.43  88.6284
 38.2516  7960.16  88.0321
 38.2936  8179.17  89.0245
 38.3356  7928.74  87.5847
 38.3776  7820.2  87.223
 38.4196  7927.61  87.6808
 38.4616  7922.88  87.9018
 38.5036  8025.2  88.3093
 38.5456  7773.33  87.7298
 38.5876  7825.84  88.0602
 38.6296  7864.78  87.2489
 38.6716  7944.88  87.4919
 38.7136  7932.5  87.3759
 38.7556  7862.33  87.4904
 38.7976  7924.24  87.7681
 38.8396  7837.05  87.7295
 38.8816  7815.28  87.4076
 38.9236  7865.43  87.4889
 38.9656  7846.37  87.2831
 39.0076  8052.8  87.8364
 39.0496  8008.89  88.1471
 39.0916  7922.91  87.3217
 39.1336  7827.35  87.2003
 39.1756  7908.95  87.712
 39.2176  7833.23  87.8267
 39.2596  7922.67  88.2494
 39.3016  7940.18  87.932
 39.3436  7816.42  87.6475
 39.3856  7984.41  88.0303
 39.4276  7904.56  88.0948
 39.4696  7792.38  87.0876
 39.5116  7851.39  87.9299
 39.5536  7883.12  88.5334
 39.5956  7906.08  87.7677
 39.6376  7911.14  87.8043
 39.6796  7740.54  86.5883
 39.7216  7858.41  87.3527
 39.7636  7935.7  88.342
 39.8056  7884.24  87.8394
 39.8476  7779.11  87.5035
 39.8896  7886.79  87.736
 39.9316  7757.81  87.2676
 39.9736  7861  87.423
 40.0156  7723.74  86.4859
 40.0576  7748.74  86.9685
 40.0996  7876.65  86.8769
 40.1416  7780.78  87.1308
 40.1836  7940.6  87.916
 40.2256  7890.79  87.6662
 40.2676  7825.96  87.4021
 40.3096  7896.07  87.7311
 40.3516  7846.33  87.5728
 40.3936  7930.83  87.5938
 40.4356  7760  86.8514
 40.4776  7869.13  87.8591
 40.5196  7908.48  88.2096
 40.5616  8000.21  88.3486
 40.6036  7797.17  87.4857
 40.6456  7814.99  87.1935
 40.6876  7900.78  87.6608
 40.7296  7869.21  87.6185
 40.7716  7912.32  87.9787
 40.8136  7843.26  87.5452
 40.8556  7976.48  88.4046
 40.8976  7899.98  87.9046
 40.9396  7958.41  88.5863
 40.9816  7945.51  87.8063
 41.0236  7927.59  87.4937
 41.0656  7982.96  88.3323
 41.1076  7964.34  88.0021
 41.1496  8022.08  88.2215
 41.1916  7800.03  87.3085
 41.2336  7906.77  87.9063
 41.2756  7919.08  87.5795
 41.3176  7888.67  88.0102
 41.3596  7874.97  87.6804
 41.4016  7771.67  87.3631
 41.4436  7981.88  88.3176
 41.4856  7841.81  87.7056
 41.5276  7895.18  88.0191
 41.5696  7961.97  88.008
 41.6116  7855.22  87.8087
 41.6536  7947.82  88.1773
 41.6956  7943.14  88.2216
 41.7376  7939.52  88.2305
 41.7796  7769.35  87.2073
 41.8216  7954.07  88.4213
 41.8636  7817.79  87.6129
 41.9056  7818.92  87.4085
 41.9476  7913.56  88.1658
 41.9896  7939.14  87.9792
 42.0316  7871.87  87.6897
 42.0736  7931.37  88.1211
 42.1156  7794.22  87.1912
 42.1576  7847.44  87.6046
 42.1996  7915.35  88.1064
 42.2416  7891.22  87.5654
 42.2836  7774.21  87.0273
 42.3256  7749.51  86.9992
 42.3676  7857.3  87.3945
 42.4096  7921.81  87.7283
 42.4516  7830.62  87.3041
 42.4936  7782.38  87.1066
 42.5356  7797.74  87.3298
 42.5776  7807.94  87.3284
 42.6196  7858.21  87.6623
 42.6616  7640.61  86.6117
 42.7036  7752.66  86.6214
 42.7456  7882.15  87.705
 42.7876  7725.05  86.9205
 42.8296  7788.45  87.1114
 42.8716  7606.5  86.2506
 42.9136  7833.57  87.3162
 42.9556  7798.72  87.2549
 42.9976  7805.71  87.2554
 43.0396  7689.8  86.3343
 43.0816  7783.35  87.2489
 43.1236  7696.86  86.8138
 43.1656  7742.14  86.89
 43.2076  7781.83  87.2183
 43.2496  7646.31  86.2847
 43.2916  7640.78  86.6101
 43.3336  7716.07  86.8701
 43.3756  7779.23  86.9794
 43.4176  7628.55  86.2084
 43.4596  7676.05  86.3416
 43.5016  7756.01  87.19
 43.5436  7719.89  86.8881
 43.5856  7637.2  86.4583
 43.6276  7717.58  86.793
 43.6696  7601.28  86.2908
 43.7116  7647.11  86.156
 43.7536  7814.52  87.5924
 43.7956  7626.07  87.7416
 43.8376  7552.27  85.8479
 43.8796  7444.67  85.319
 43.9216  7592.03  86.0804
 43.9636  7535.79  85.8681
 44.0056  7587.16  86.3903
 44.0476  7552.02  85.8204
 44.0896  7444.92  85.5495
 44.1316  7510.94  85.5985
 44.1736  7585.62  86.0074
 44.2156  7563.48  85.7348
 44.2576  7473.24  85.5405
 44.2996  7511.32  85.7328
 44.3416  7670.93  86.3965
 44.3836  7337.88  84.8239
 44.4256  7309.47  84.3088
 44.4676  7263.14  84.1942
 44.5096  7461.78  85.4791
 44.5516  7336.63  84.7305
 44.5936  7296.25  84.4468
 44.6356  7370.12  84.6133
 44.6776  7373.1  84.943
 44.7196  7447.08  85.6697
 44.7616  7551.08  87.594
 44.8036  7458.92  85.4926
 44.8456  7608.23  86.5459
 44.8876  7573.7  86.1913
 44.9296  7708.82  86.4091
 44.9716  7598.5  86.1972
 45.0136  7606.01  86.1948
 45.0556  7693.09  86.6596
 45.0976  7499.54  85.7105
 45.1396  7477.75  85.3637
 45.1816  7506.89  85.4557
 45.2236  7532.75  85.5132
 45.2656  7589.44  86.3371
 45.3076  7637.65  86.3866
 45.3496  7397.35  85.3322
 45.3916  7450.79  85.9
 45.4336  7575.57  86.4551
 45.4756  7404.81  85.3336
 45.5176  7473.16  85.3434
 45.5596  7630.48  86.3653
 45.6016  7434.69  85.6669
 45.6436  7608.57  85.8161
 45.6856  7486.99  85.8
 45.7276  7393.04  86.5711
 45.7696  7330.51  85.8909
 45.8116  7471.35  86.1359
 45.8536  7388.19  85.5542
 45.8956  7538.47  85.7623
 45.9376  7522.26  85.1376
 45.9796  7502.26  85.7221
 46.0216  7535.82  86.2134
 46.0636  7562.99  85.5346
 46.1056  7605.09  85.767
 46.1476  7422.14  85.3189
 46.1896  7493.69  85.8701
 46.2316  7405.66  85.2419
 46.2736  7316.11  85.0964
 46.3156  7528.22  85.9008
 46.3576  7436.21  85.5754
 46.3996  7367.37  85.3347
 46.4416  7532.71  85.8556
 46.4836  7436.9  85.676
 46.5256  7533.32  86.1614
 46.5676  7472.61  85.9255
 46.6096  7422.84  85.5675
 46.6516  7495.42  85.0174
 46.6936  7623.37  86.2587
 46.7356  7563.3  86.0054
 46.7776  7398.69  85.9243
 46.8196  7377.28  85.3999
 46.8616  7243.79  84.576
 46.9036  7237.17  84.191
 46.9456  7357.3  84.5313
 46.9876  7437.65  85.0666
 47.0296  7451.45  85.8458
 47.0716  7306.56  84.8292
 47.1136  7388.25  84.9728
 47.1556  7394.98  84.8837
 47.1976  7465.91  85.3705
 47.2396  7375.14  85.253
 47.2816  7321.53  84.6429
 47.3236  7382.66  85.3674
 47.3656  7356.53  85.1502
 47.4076  7258.71  84.3828
 47.4496  7323.06  84.8461
 47.4916  7334.23  85.1005
 47.5336  7405.77  85.3215
 47.5756  7475.12  85.8517
 47.6176  7300.3  84.7436
 47.6596  7290.09  84.395
 47.7016  7533.67  85.5993
 47.7436  7496.21  85.7263
 47.7856  7448.82  85.4825
 47.8276  7368.44  85.0685
 47.8696  7323.68  84.8953
 47.9116  7453.74  85.3608
 47.9536  7346.06  84.6823
 47.9956  7314.43  85.2172
 48.0376  7383.58  85.3887
 48.0796  7227.66  84.6143
 48.1216  7269.59  84.6787
 48.1636  7351.33  84.7035
 48.2056  7364.01  85.0606
 48.2476  7498.05  86.1429
 48.2896  7311.9  84.9699
 48.3316  7355.26  85.169
 48.3736  7354.27  85.1832
 48.4156  7285.01  84.6391
 48.4576  7355.86  85.3415
 48.4996  7394.77  85.0138
 48.5416  7530.74  86.1265
 48.5836  7420.44  85.1601
 48.6256  7370.41  85.0918
 48.6676  7350.21  85.497
 48.7096  7430.77  85.2121
 48.7516  7300.79  84.6198
 48.7936  7179.48  83.9772
 48.8356  7298.27  84.7155
 48.8776  7395.85  85.7751
 48.9196  7447.51  85.5152
 48.9616  7317.72  85.1573
 49.0036  7352.64  85.7149
 49.0456  7273.67  85.2344
 49.0876  7299.93  85.0229
 49.1296  7198.68  84.4959
 49.1716  7121.7  83.9051
 49.2136  7241.8  84.5332
 49.2556  7365.24  85.2923
 49.2976  7339.65  85.2055
 49.3396  7266.28  84.8373
 49.3816  7377.54  84.8834
 49.4236  7352.73  85.1938
 49.4656  7156.89  84.0709
 49.5076  7312.41  84.7239
 49.5496  7212.82  84.2126
 49.5916  7385.97  85.1299
 49.6336  7264.62  84.6346
 49.6756  7324.86  85.207
 49.7176  7310.66  85.0776
 49.7596  7222.41  84.3224
 49.8016  7320.52  84.8059
 49.8436  7255.72  84.7392
 49.8856  7184.53  84.3306
 49.9276  7111.16  83.9957
 49.9696  7194.76  84.474
 50.0116  7219.12  84.7383
 50.0536  7213.05  84.6576
 50.0956  7178.69  84.5289
 50.1376  7311.35  84.9857
 50.1796  7130.01  84.213
 50.2216  7188.32  84.55
 50.2636  7211.75  84.2965
 50.3056  7199.65  84.409
 50.3476  7226.97  84.5871
 50.3896  7158.17  84.1517
 50.4316  7206.31  84.27
 50.4736  7131.32  84.0513
 50.5156  7120.53  83.9724
 50.5576  7170.91  84.0231
 50.5996  7154.06  84.2183
 50.6416  7169.86  84.2328
 50.6836  7172.52  84.3078
 50.7256  7145.28  84.0764
 50.7676  7361.68  85.6018
 50.8096  7210.93  84.3107
 50.8516  7055.08  83.8226
 50.8936  7179.51  84.323
 50.9356  7288.59  85.0828
 50.9776  7135.81  84.3464
 51.0196  6954.42  83.3949
 51.0616  7047.52  83.2687
 51.1036  7158.44  84.2868
 51.1456  7211.57  84.504
 51.1876  7037.1  82.8107
 51.2296  7019.03  83.3382
 51.2716  6923.04  82.4808
 51.3136  7000.19  83.4052
 51.3556  6974.42  82.8644
 51.3976  7031.14  83.3501
 51.4396  6843.09  82.5484
 51.4816  6951.54  83.0524
 51.5236  6940.1  83.0663
 51.5656  7072.58  83.4416
 51.6076  7076.38  83.5558
 51.6496  6972.32  83.1251
 51.6916  6944.18  83.3258
 51.7336  6986.7  83.673
 51.7756  6955.39  83.1742
 51.8176  6997.72  83.5436
 51.8596  6996.3  83.547
 51.9016  7087.16  83.6884
 51.9436  7173.61  85.7234
 51.9856  6968.52  84.8878
 52.0276  7091.16  84.1085
 52.0696  7179.32  84.6869
 52.1116  6973.88  83.6038
 52.1536  7025.97  83.789
 52.1956  7092.22  83.6423
 52.2376  7003.9  83.2866
 52.2796  6953.91  82.8077
 52.3216  6904.78  83.2151
 52.3636  6977.32  83.2106
 52.4056  6953.74  82.9287
 52.4476  7054.89  83.8928
 52.4896  6936.16  83.241
 52.5316  7026.28  83.8269
 52.5736  6876.98  82.6532
 52.6156  7088.35  84.314
 52.6576  6875.5  82.4777
 52.6996  6807.14  83.0586
 52.7416  6826.22  83.023
 52.7836  6914.97  83.451
 52.8256  7012.01  83.2325
 52.8676  6747.13  82.2239
 52.9096  6859.82  82.9814
 52.9516  6965.55  84.0163
 52.9936  6954.63  84.3287
 53.0356  7036.43  83.7854
 53.0776  7024.21  84.0254
 53.1196  6836.8  83.0023
 53.1616  6929.04  83.6056
 53.2036  6881.53  83.2814
 53.2456  6919.66  83.6192
 53.2876  6961.03  83.5514
 53.3296  6957.25  83.8641
 53.3716  6963.75  83.6417
 53.4136  6926.74  83.5805
 53.4556  6886.33  83.3608
 53.4976  6733.81  82.2721
 53.5396  6804.4  83.105
 53.5816  6889.88  83.255
 53.6236  6807.98  83.1182
 53.6656  6939.05  83.5073
 53.7076  6890.37  83.1698
 53.7496  6944.78  83.6325
 53.7916  6937.2  83.727
 53.8336  6785.94  82.6954
 53.8756  6737.76  82.9611
 53.9176  6871.18  83.0975
 53.9596  6620.82  82.355
 54.0016  6584.02  81.432
 54.0436  6464.91  80.9171
 54.0856  6765.08  82.1997
 54.1276  6604.85  81.4202
 54.1696  6619.08  81.6778
 54.2116  6790.67  82.4661
 54.2536  6733.66  81.9173
 54.2956  6590.05  81.1019
 54.3376  6528.93  81.2156
 54.3796  6570.09  81.3687
 54.4216  6621.68  81.7515
 54.4636  6555.81  81.2999
 54.5056  6682.5  81.8903
 54.5476  6533.91  81.3096
 54.5896  6589.89  81.4998
 54.6316  6559.7  81.1617
 54.6736  6550.93  81.1322
 54.7156  6599.28  81.5181
 54.7576  6501.29  80.8841
 54.7996  6520.11  81.1508
 54.8416  6475.85  80.9305
 54.8836  6618.37  81.9021
 54.9256  6561.53  81.3193
 54.9676  6479.64  80.6593
 55.0096  6546.23  81.1056
 55.0516  6461.2  80.7702
 55.0936  6547.76  81.0277
 55.1356  6442.74  80.4167
 55.1776  6601.18  81.6278
 55.2196  6582.46  81.3237
 55.2616  6581.96  81.5124
 55.3036  6474.05  81.0243
 55.3456  6290.66  80.0031
 55.3876  6489.8  80.9902
 55.4296  6344.06  80.0884
 55.4716  6402.95  80.4805
 55.5136  6478.74  80.7119
 55.5556  6611.83  81.5776
 55.5976  6378.42  80.2105
 55.6396  6603.92  81.5575
 55.6816  6446.37  80.4509
 55.7236  6359.38  79.9738
 55.7656  6436.1  80.1693
 55.8076  6392.75  79.912
 55.8496  6315.16  79.7207
 55.8916  6492.96  81.0191
 55.9336  6450.61  80.6127
 55.9756  6459.68  80.5622
 56.0176  6242.83  79.3391
 56.0596  6391.8  80.2606
 56.1016  6279.76  79.6288
 56.1436  6340.38  80.2211
 56.1856  6275.6  79.5543
 56.2276  6468.87  80.8209
 56.2696  6388.4  80.2945
 56.3116  6448.07  81.0461
 56.3536  6378.29  80.285
 56.3956  6347.37  80.0807
 56.4376  6282.62  79.6977
 56.4796  6180.59  78.8735
 56.5216  6378.21  80.5049
 56.5636  6203.17  78.9641
 56.6056  6428.96  80.6071
 56.6476  6367.19  79.8304
 56.6896  6531.48  81.329
 56.7316  6256.17  79.5168
 56.7736  6290.89  79.7449
 56.8156  6381.21  80.3339
 56.8576  6096.63  78.4667
 56.8996  6227.65  79.1822
 56.9416  6326.89  80.1627
 56.9836  6370.78  79.9451
 57.0256  6195  79.1406
 57.0676  6336.78  80.177
 57.1096  6291.29  79.6565
 57.1516  6189.07  79.0358
 57.1936  6204.49  78.9249
 57.2356  6135.69  78.8087
 57.2776  6281.49  79.7056
 57.3196  6214.32  79.6196
 57.3616  6283.73  79.5434
 57.4036  6323.49  79.8657
 57.4456  6373.26  80.1603
 57.4876  6235.17  79.137
 57.5296  6198.67  79.158
 57.5716  6211.26  79.3421
 57.6136  6128.03  78.6421
 57.6556  6204.46  79.2474
 57.6976  6249.36  79.379
 57.7396  6146.94  79.0669
 57.7816  6056.36  78.8498
 57.8236  6135.52  79.1537
 57.8656  6159.95  78.9683
 57.9076  6200.75  79.2508
 57.9496  6162.81  79.3801
 57.9916  6179.79  78.9808
 58.0336  6106.21  78.8066
 58.0756  6238.17  79.2724
 58.1176  6140.94  78.6441
 58.1596  6073.03  78.7994
 58.2016  5973.9  77.3919
 58.2436  5954.46  77.6684
 58.2856  5913.9  77.3249
 58.3276  5900.1  77.6057
 58.3696  5940.97  77.6269
 58.4116  5851.52  76.9076
 58.4536  5978.23  77.6165
 58.4956  5984.92  77.8465
 58.5376  5934.33  77.0924
 58.5796  5868  77.0767
 58.6216  5834.46  76.6758
 58.6636  5918.48  77.4378
 58.7056  6009.58  77.8882
 58.7476  5864.31  77.3791
 58.7896  5818.16  76.7226
 58.8316  5937.93  77.5062
 58.8736  5982.85  77.8097
 58.9156  5840.43  76.9207
 58.9576  5944.69  77.9218
 58.9996  5916.92  76.9985
 59.0416  5952.75  77.5901
 59.0836  6025.71  77.9714
 59.1256  5806.79  77.2402
 59.1676  5885.94  78.0713
 59.2096  5868.22  77.2697
 59.2516  6021.86  77.8564
 59.2936  5834.55  76.9585
 59.3356  5778.69  76.4696
 59.3776  5939.78  77.6957
 59.4196  5755.82  76.4204
 59.4616  5914.46  77.3279
 59.5036  5871.61  77.0808
 59.5456  6162.93  78.6615
 59.5876  5908.77  77.2115
 59.6296  5700.41  75.9051
 59.6716  5884.63  77.1791
 59.7136  5940.75  77.5346
 59.7556  5870.82  77.2115
 59.7976  5903.72  77.1726
 59.8396  5876.01  76.8869
 59.8816  5839.1  77.1814
 59.9236  5936.64  77.4701
 59.9656  5842.67  77.111
 60.0076  5997.11  77.483
 60.0496  5846.08  76.9958
 60.0916  5881.04  76.6525
 60.1336  5821.97  77.3538
 60.1756  5805.69  78.4068
 60.1996  0.0000000E+00  0.0000000E+00