File: docs/examples/opeando_xrd/IS17_D/Data/IS17_D/17_Da_f00066.xye
# /beamlines/bl04/projects/cycle2025-II/20250340211-lsimonelli/DATA/IS17_D/17_Da_f00066.xye : mythproc.py merge -s 0.006 -l 0.5 -f /beamlines/bl04/inhouse/ff/FlatField/ff_20Nov2024rod8mm60s_17keV.raw -b True -c true -o xye /beamlines/bl04/projects/cycle2025-II/20250340211-lsimonelli/DATA/IS17_D/17_Da_00066.dat
# IsMon = [6743263, 6747671, 6763657]  IsPos = [-1.4999, -2.4884, -3.4989]
# Wave = 0.4962  CalPath /beamlines/bl04/projects/cycle2025-II/20250340211-lsimonelli/DATA/Align/Si_Pos1_25keV_f00001.cal
# Date = 2025-09-24_11:56:47 Dt = 4.8000  Bin = 0.0060  <imon> = 6751530 +/- 8762 (Min/Max) 6743263 / 6763657
# icurr 248.8566  mocoIn 1.6978E-05  mocoOut 0.7971  i15 7.07162e+06  imon 6.75153e+06  i7 6.0000  iEMpd_timer 4.8000  iEMpd_1 3.1861E-08  iEMpd_2 7.9142E-08  iEMpd_3 1.6403E-08  iEMpd_4 4.6015E-08  iEMhp_timer 4.8000  iEMhp_1 4.8682E-06  iEMhp_2 -2.5047E-08  iEMhp_3 -2.5061E-08  iEMhp_4 -2.1887E-08
#      9776
 1.5856  39921.7  205.293
 1.6276  46558.5  217.897
 1.6696  53518.5  232.793
 1.7116  61597.2  250.234
 1.7536  71058.7  267.622
 1.7956  75813.7  277.122
 1.8376  71976.9  270.446
 1.8796  60091.8  245.279
 1.9216  48396.7  221.01
 1.9636  40754.1  201.98
 2.0056  36961.5  191.606
 2.0476  33781.4  185.186
 2.0896  32212.8  179.775
 2.1316  31407  176.659
 2.1736  30075.4  174.245
 2.2156  30610.5  174.377
 2.2576  29370.1  171.421
 2.2996  28585.9  169.737
 2.3416  28607.8  168.448
 2.3836  28219.5  167.402
 2.4256  27010.5  164.311
 2.4676  27109.4  164.378
 2.5096  27079.6  164.341
 2.5516  30457.2  178.296
 2.5936  77138.9  278.018
 2.6356  27853.7  167.77
 2.6776  25729.4  160.156
 2.7196  25225.4  159.082
 2.7616  25076.7  158.395
 2.8036  24526.2  156.811
 2.8456  24661.6  157.852
 2.8876  24139.4  156.04
 2.9296  23621.4  154.488
 2.9716  23455.7  153.451
 3.0136  23234.6  152.788
 3.0556  23642.6  154.512
 3.0976  23257.1  152.211
 3.1396  23147.1  152.546
 3.1816  22738.8  151.14
 3.2236  22778.3  151.268
 3.2656  22836.9  150.507
 3.3076  22480.1  150.754
 3.3496  22870.4  151.008
 3.3916  23296  152.241
 3.4336  23772.6  154.362
 3.4756  24113.4  155.398
 3.5176  24985.1  157.963
 3.5596  24896.8  160.054
 3.6016  25092.8  158.297
 3.6436  23985  155.854
 3.6856  23749  153.393
 3.7276  22875.1  151.633
 3.7696  22673  151.108
 3.8116  22218.3  149.508
 3.8536  22463.2  150.25
 3.8956  22595.8  150.534
 3.9376  22771.7  151.367
 3.9796  22002.7  148.312
 4.0216  22412.6  148.744
 4.0636  22105.5  149.162
 4.1056  22167  149.023
 4.1476  22476  150.385
 4.1896  22604.6  150.65
 4.2316  22721.8  150.862
 4.2736  23253.6  152.406
 4.3156  23546.7  153.564
 4.3576  24246.9  155.793
 4.3996  24532.8  156.975
 4.4416  25144.6  158.499
 4.4836  25841  160.839
 4.5256  25890.2  161.613
 4.5676  26126.2  162.578
 4.6096  26281.7  161.754
 4.6516  26911.3  163.37
 4.6936  27091.2  164.683
 4.7356  27382.1  165.434
 4.7776  27244.2  164.828
 4.8196  26763.4  164.052
 4.8616  26375.2  162.336
 4.9036  26042  161.066
 4.9456  26239.9  162.299
 4.9876  25386.7  159.541
 5.0296  25652.2  160.186
 5.0716  25566.5  160.661
 5.1136  25670.1  160.733
 5.1556  26075.2  161.444
 5.1976  30386.1  174.317
 5.2396  26626.4  162.854
 5.2816  26434.1  162.746
 5.3236  26433.3  162.429
 5.3656  26093.8  162.289
 5.4076  25889  161.805
 5.4496  25993.8  161.603
 5.4916  25911.3  161.126
 5.5336  26007.6  161.52
 5.5756  25815.7  160.889
 5.6176  26342.1  161.937
 5.6596  26361.3  162.982
 5.7016  26409.3  162.381
 5.7436  26738.2  163.244
 5.7856  26466.4  162.871
 5.8276  26850.4  163.769
 5.8696  27051.3  164.566
 5.9116  26914  164.748
 5.9536  27093.7  165.073
 5.9956  27400.6  165.358
 6.0376  27479.6  166.224
 6.0796  27673.3  166.64
 6.1216  27763.1  167.091
 6.1636  28265.1  167.682
 6.2056  28052.6  167.689
 6.2476  28276.5  168.256
 6.2896  28498.7  168.594
 6.3316  28182.6  167.855
 6.3736  28497.6  168.661
 6.4156  28502.1  168.595
 6.4576  28843.6  169.186
 6.4996  28967.3  170.006
 6.5416  28899.1  169.96
 6.5836  29250.7  171.084
 6.6256  29006.5  170.075
 6.6676  29418.7  170.849
 6.7096  29304.9  171.386
 6.7516  29904.8  172.76
 6.7936  30377.7  173.541
 6.8356  30941  175.23
 6.8776  30719.6  175.387
 6.9196  30326.4  174.678
 6.9616  31036.3  176.167
 7.0036  31297  176.547
 7.0456  31501.6  176.42
 7.0876  31201.2  177.255
 7.1296  31323.9  176.747
 7.1716  31178.9  175.866
 7.2136  30978.5  175.095
 7.2556  31312.1  176.197
 7.2976  31292.9  176.636
 7.3396  31222  176.66
 7.3816  31253.4  176.951
 7.4236  31472.9  176.866
 7.4656  31640  176.82
 7.5076  31902.7  177.687
 7.5496  32035.3  178.556
 7.5916  32016.3  178.566
 7.6336  32485.7  179.886
 7.6756  32542.3  179.781
 7.7176  32761.1  180.727
 7.7596  32765.3  181.948
 7.8016  35546.6  191.797
 7.8436  33627  183.256
 7.8856  33781.6  183.173
 7.9276  34502.4  185.476
 7.9696  34490.9  185.79
 8.0116  35705  187.559
 8.0536  36151.8  188.997
 8.0956  36823.5  191.969
 8.1376  36243.1  189.887
 8.1796  36680  191.615
 8.2216  37520.5  192.17
 8.2636  38150.8  194.349
 8.3056  37420.4  193.211
 8.3476  39084.5  196.819
 8.3896  38228.3  194.733
 8.4316  38113.5  194.606
 8.4736  37986.4  193.74
 8.5156  37637.2  193.129
 8.5576  37277.9  193.218
 8.5996  37280.5  192.053
 8.6416  37281.7  193.363
 8.6836  37337.6  193.259
 8.7256  37761.6  193.866
 8.7676  38474.6  198.638
 8.8096  38236.9  195.284
 8.8516  37075.5  191.912
 8.8936  37911.8  193.929
 8.9356  36291.4  190.161
 8.9776  36604.6  191.032
 9.0196  36475.2  190.4
 9.0616  36709.8  190.467
 9.1036  37300.7  193.164
 9.1456  36222.2  189.67
 9.1876  36184.5  189.568
 9.2296  36120.2  188.741
 9.2716  35415.9  187.016
 9.3136  35781.2  187.962
 9.3556  35588.5  187.431
 9.3976  34242.8  184.428
 9.4396  34885.5  186.001
 9.4816  34297  184.329
 9.5236  34239.3  184.041
 9.5656  33920.2  183.485
 9.6076  33716.9  183.433
 9.6496  33509.4  182.84
 9.6916  33689.6  183.258
 9.7336  33600.3  182.839
 9.7756  34162.6  185.61
 9.8176  33096.1  182.312
 9.8596  32820.6  180.004
 9.9016  32469.7  179.034
 9.9436  32367.8  178.668
 9.9856  32258.4  178.579
 10.0276  31521.7  177.642
 10.0696  31911.8  177.772
 10.1116  31140.2  175.874
 10.1536  30914.5  175.402
 10.1956  30366.1  173.444
 10.2376  30022.2  171.963
 10.2796  29972.7  171.948
 10.3216  30069.4  172.492
 10.3636  29941.3  172.158
 10.4056  31065.3  175.758
 10.4476  31109.3  175.506
 10.4896  33227.5  180.805
 10.5316  31366  176.407
 10.5736  29347.6  171.042
 10.6156  28948.4  169.648
 10.6576  31770.3  176.209
 10.6996  28909.6  168.757
 10.7416  28098.5  166.616
 10.7836  28788.2  169.28
 10.8256  27990.8  167.307
 10.8676  27902.5  166.624
 10.9096  27574.2  165.658
 10.9516  27348.9  163.919
 10.9936  27645.6  164.996
 11.0356  27650.4  165.66
 11.0776  28044  166.133
 11.1196  27760.8  166.046
 11.1616  26697.5  162.545
 11.2036  27212  163.942
 11.2456  27827.6  166.525
 11.2876  26430  162.021
 11.3296  26540.4  162.239
 11.3716  26926.3  163.099
 11.4136  26757.6  163.502
 11.4556  27202.7  164.48
 11.4976  28082.2  166.091
 11.5396  27602.6  164.848
 11.5816  26343  161.496
 11.6236  25936.1  160.47
 11.6656  25606.4  158.625
 11.7076  25171.3  158.08
 11.7496  25534.1  162.307
 11.7916  25514.1  158.414
 11.8336  25189.5  158.254
 11.8756  25052.9  157.397
 11.9176  24864.1  156.468
 11.9596  24419.8  155.258
 12.0016  24511.3  156.317
 12.0436  24363.4  155.295
 12.0856  24345.3  155.741
 12.1276  24432.7  155.791
 12.1696  24273.3  154.564
 12.2116  24664.8  155.784
 12.2536  25462.4  159.15
 12.2956  24623.2  155.727
 12.3376  23998.3  154.079
 12.3796  24310.8  155.513
 12.4216  24215.7  154.424
 12.4636  24682.6  156.826
 12.5056  24262.6  154.804
 12.5476  24124.4  153.856
 12.5896  24172.1  154.621
 12.6316  23766.1  153.512
 12.6736  23903.9  154.413
 12.7156  23871.7  154.202
 12.7576  23751.6  154.035
 12.7996  24189.6  154.089
 12.8416  24131.1  154.959
 12.8836  24736.1  156.695
 12.9256  24679.4  155.534
 12.9676  24678.3  155.948
 13.0096  24238.7  155.685
 13.0516  24438.7  155.343
 13.0936  24434.1  155.745
 13.1356  24790.3  155.842
 13.1776  24515.5  155.965
 13.2196  24457.6  155.441
 13.2616  24319.7  155.289
 13.3036  24347.6  155.368
 13.3456  24513.4  156.449
 13.3876  24501.8  155.53
 13.4296  24466.1  155.543
 13.4716  24590.4  155.55
 13.5136  24509  155.448
 13.5556  24696.3  156.341
 13.5976  24541.8  156.311
 13.6396  24893.8  156.767
 13.6816  24536.9  156.149
 13.7236  25178.9  157.834
 13.7656  24374.3  155.839
 13.8076  24860.4  156.138
 13.8496  24319.5  155.053
 13.8916  24253.2  155.815
 13.9336  24154.6  154.713
 13.9756  24236.4  154.347
 14.0176  23650.9  153.059
 14.0596  24353.8  155.372
 14.1016  23488.7  152.963
 14.1436  23379.2  151.779
 14.1856  23113.4  151.185
 14.2276  23302.3  152.225
 14.2696  23539.6  152.889
 14.3116  22970.9  150.925
 14.3536  22611.2  149.933
 14.3956  22329.9  148.739
 14.4376  22648.4  149.561
 14.4796  22323.9  148.483
 14.5216  22118  148.589
 14.5636  22426.3  149.188
 14.6056  22318.7  148.388
 14.6476  22110.6  146.943
 14.6896  21732.8  146.219
 14.7316  21206.2  145.459
 14.7736  21245.5  144.75
 14.8156  21225.9  144.706
 14.8576  21037.4  143.917
 14.8996  20498  143.26
 14.9416  20288.5  142.523
 14.9836  20318.9  142.552
 15.0256  20290.8  141.376
 15.0676  20250.3  141.49
 15.1096  20115.3  140.82
 15.1516  19773.9  140.207
 15.1936  19827.9  139.794
 15.2356  19614.2  139.316
 15.2776  19401.1  138.536
 15.3196  19025.7  137.8
 15.3616  19067.1  137.676
 15.4036  18870.8  136.853
 15.4456  19542.7  138.915
 15.4876  18797.5  135.922
 15.5296  18767  136.121
 15.5716  18403.5  134.371
 15.6136  18397.9  134.71
 15.6556  19532.2  138.344
 15.6976  18479.7  134.543
 15.7396  18533.5  135.076
 15.7816  18276.2  133.664
 15.8236  17793.9  132.538
 15.8656  17652.1  131.856
 15.9076  17596  131.472
 15.9496  17896  135.449
 15.9916  17441.7  134.143
 16.0336  17302  130.519
 16.0756  17471.4  131.435
 16.1176  17141.6  130.251
 16.1596  16762.6  129.966
 16.2016  17102.3  130.001
 16.2436  16800.8  129.271
 16.2856  16969.4  129.452
 16.3276  16393  127.649
 16.3696  16749.1  128.851
 16.4116  16535.3  128.486
 16.4536  16719.4  128.975
 16.4956  16762.9  128.916
 16.5376  16510.8  128.092
 16.5796  16421.2  127.107
 16.6216  16344.8  127.121
 16.6636  16570.5  128.116
 16.7056  16527  127.845
 16.7476  16329.3  126.607
 16.7896  16517.7  128.096
 16.8316  16388.5  127.553
 16.8736  16366.9  127.76
 16.9156  16550.4  128.783
 16.9576  16123.5  127.949
 16.9996  16196.8  128.703
 17.0416  16306.2  127.54
 17.0836  16145.5  126.672
 17.1256  15770.9  125.21
 17.1676  16063  126.355
 17.2096  15981.7  125.911
 17.2516  15724.1  124.675
 17.2936  15542.1  124.276
 17.3356  15417.3  123.78
 17.3776  15274  123.387
 17.4196  15557.7  124.22
 17.4616  15475.7  123.815
 17.5036  15490  124.231
 17.5456  14985.1  122.836
 17.5876  15063.5  122.207
 17.6296  15089.5  122.127
 17.6716  15136.9  122.897
 17.7136  15212.7  123.351
 17.7556  14811.3  121.999
 17.7976  15043.4  122.693
 17.8396  14782.4  121.123
 17.8816  14735.2  121.467
 17.9236  14767.1  121.413
 17.9656  14982.1  122.791
 18.0076  15196.8  123.225
 18.0496  15492.7  123.539
 18.0916  17424.9  131.525
 18.1336  16491.1  128.126
 18.1756  15515.5  123.802
 18.2176  15431.2  123.688
 18.2596  14846.2  121.074
 18.3016  15269.2  123.035
 18.3436  15424.3  123.666
 18.3856  14852.9  121.673
 18.4276  14652.6  120.341
 18.4696  14708.1  120.659
 18.5116  14663.1  120.769
 18.5536  14660.5  121.093
 18.5956  14606.4  120.442
 18.6376  14683.3  121.176
 18.6796  14428.4  119.43
 18.7216  14550.9  120.439
 18.7636  14302  119.406
 18.8056  14205.4  118.924
 18.8476  13987  118.598
 18.8896  14027.5  118.137
 18.9316  14312  119.29
 18.9736  14217.7  118.616
 19.0156  14259.7  119.211
 19.0576  14324.4  118.341
 19.0996  14329.4  119.059
 19.1416  14044.5  118.28
 19.1836  14017.5  117.754
 19.2256  13943.5  117.722
 19.2676  14069.8  118.282
 19.3096  14019.4  118.296
 19.3516  13795.8  117.323
 19.3936  14175.1  118.834
 19.4356  13951.2  117.778
 19.4776  13948.5  117.839
 19.5196  13877.2  117.391
 19.5616  13905.6  117.761
 19.6036  14073.4  117.945
 19.6456  13960.2  117.611
 19.6876  14352.5  118.885
 19.7296  14061.1  118.158
 19.7716  14059.3  118.303
 19.8136  14390.2  119.908
 19.8556  14635.4  120.377
 19.8976  14729  120.83
 19.9396  14621.6  119.961
 19.9816  14901.8  121.334
 20.0236  14718.4  120.821
 20.0656  14280.5  118.99
 20.1076  13796.6  117.447
 20.1496  13878.4  117.783
 20.1916  13757.9  116.805
 20.2336  13731.1  116.605
 20.2756  13515.5  116.115
 20.3176  13491.8  115.761
 20.3596  13590.7  116.149
 20.4016  13456.2  115.39
 20.4436  13618.8  116.553
 20.4856  13322.9  115.182
 20.5276  13395  115.928
 20.5696  13249.7  114.781
 20.6116  13290.5  115.218
 20.6536  13404.8  115.157
 20.6956  13190.4  114.421
 20.7376  13261  114.94
 20.7796  13138.2  114.106
 20.8216  13428.2  115.064
 20.8636  13294.4  114.877
 20.9056  13792.3  116.943
 20.9476  13368.7  114.986
 20.9896  13822.7  116.77
 21.0316  13399.2  114.845
 21.0736  13396.3  115.377
 21.1156  13538.2  116.132
 21.1576  13265.1  115.018
 21.1996  13146.9  114.486
 21.2416  12945.1  113.452
 21.2836  13223.9  114.614
 21.3256  12935.3  113.482
 21.3676  13061.6  113.54
 21.4096  13056.7  113.827
 21.4516  13009.9  113.501
 21.4936  12862.6  113.125
 21.5356  12970.8  113.528
 21.5776  12995.9  113.468
 21.6196  13050.1  113.735
 21.6616  12913.4  113.236
 21.7036  12831.9  112.653
 21.7456  12765.3  112.442
 21.7876  12709.9  111.938
 21.8296  12900.6  112.641
 21.8716  12753.6  112.249
 21.9136  12906.1  113.096
 21.9556  12933.8  112.892
 21.9976  12735.4  112.035
 22.0396  12743.2  112.326
 22.0816  12731.2  112.79
 22.1236  12941.2  113.19
 22.1656  12804.4  113.07
 22.2076  12854.8  112.376
 22.2496  12679.7  111.658
 22.2916  12619.8  111.252
 22.3336  12734.7  112.507
 22.3756  12786.3  112.435
 22.4176  12663.9  111.75
 22.4596  12527.5  111.711
 22.5016  12696.7  111.963
 22.5436  12914  112.929
 22.5856  12702.7  112.134
 22.6276  12611.9  111.892
 22.6696  12637.8  112.334
 22.7116  12611  111.75
 22.7536  12665.3  111.945
 22.7956  12631.9  111.151
 22.8376  12522.5  111.147
 22.8796  12414.1  110.487
 22.9216  12660.9  112.104
 22.9636  12591.2  110.97
 23.0056  12653.4  111.38
 23.0476  12746.2  112.357
 23.0896  13240.8  113.884
 23.1316  12917.3  112.926
 23.1736  12568.8  114.369
 23.2156  12759  112.547
 23.2576  12505.9  111.604
 23.2996  12726  112.321
 23.3416  12473.7  111.762
 23.3836  12588.7  111.486
 23.4256  12629.8  111.803
 23.4676  12619.9  111.436
 23.5096  12445.2  111.34
 23.5516  12399.4  110.423
 23.5936  12643.5  112.407
 23.6356  12800.1  112.765
 23.6776  12724.5  112.62
 23.7196  12430.5  110.912
 23.7616  12679.3  111.908
 23.8036  12598.6  111.648
 23.8456  12542.7  110.796
 23.8876  12257.6  110.055
 23.9296  12132.1  109.948
 23.9716  12192.2  109.419
 24.0136  12381.1  111.156
 24.0556  12211.3  110.133
 24.0976  12201.8  109.895
 24.1396  12161.7  112.372
 24.1816  12187  110.931
 24.2236  12147.3  110.396
 24.2656  12065  109.493
 24.3076  12022.9  109.55
 24.3496  12038.6  109.51
 24.3916  11928.7  109.063
 24.4336  11945  109.348
 24.4756  11945.1  109.215
 24.5176  11778.1  108.101
 24.5596  11753.9  108.117
 24.6016  11644.8  107.9
 24.6436  11611.4  107.245
 24.6856  11692.6  107.372
 24.7276  11732.4  107.871
 24.7696  11621.1  107.472
 24.8116  11669.7  107.869
 24.8536  11515.7  107.159
 24.8956  11688.8  107.699
 24.9376  11618.2  107.311
 24.9796  11422.6  106.756
 25.0216  11321.8  106.4
 25.0636  11450.5  106.649
 25.1056  11360.7  106.942
 25.1476  11429  108.88
 25.1896  11274.6  106.638
 25.2316  11547.8  107.15
 25.2736  11292.4  105.643
 25.3156  11182.5  105.193
 25.3576  11111.4  105.283
 25.3996  11246.3  105.894
 25.4416  11320.9  106.233
 25.4836  11030.3  105.387
 25.5256  11144.2  105.289
 25.5676  11224.3  105.405
 25.6096  11026.6  105.041
 25.6516  11135.6  105.058
 25.6936  10971  104.579
 25.7356  10989.7  104.807
 25.7776  11137.3  105.108
 25.8196  11020.6  104.8
 25.8616  11064.5  104.909
 25.9036  11165.2  104.87
 25.9456  10952.6  104.471
 25.9876  10875  104.157
 26.0296  11128.8  104.884
 26.0716  10958.3  104.503
 26.1136  11210.6  105.623
 26.1556  11268.1  105.247
 26.1976  10834.1  104.146
 26.2396  10952.1  103.84
 26.2816  10986.1  104.628
 26.3236  11043.7  105.079
 26.3656  10892.6  104.086
 26.4076  10960.8  104.611
 26.4496  11360.3  106.01
 26.4916  11046.1  104.512
 26.5336  10975.3  104.561
 26.5756  11108.2  105.001
 26.6176  10907.3  104.08
 26.6596  10805.6  103.913
 26.7016  10748.9  103.404
 26.7436  10597.3  102.81
 26.7856  10478.9  102.203
 26.8276  10573.3  102.62
 26.8696  10799  103.583
 26.9116  10754.1  103.288
 26.9536  10660.3  102.898
 26.9956  10597.7  102.618
 27.0376  10436.4  102.075
 27.0796  10558.3  102.397
 27.1216  10536  102.369
 27.1636  10459.1  102.146
 27.2056  10374.5  101.614
 27.2476  10459.9  102.034
 27.2896  10393.9  101.809
 27.3316  10283.3  100.991
 27.3736  10336.6  101.505
 27.4156  10298.8  101.189
 27.4576  10380.1  101.803
 27.4996  10348.2  101.258
 27.5416  10325.1  101.45
 27.5836  10383.8  101.548
 27.6256  10601.6  102.783
 27.6676  10495.1  102.273
 27.7096  10353.9  101.456
 27.7516  10482.2  102.149
 27.7936  10338  101.714
 27.8356  10533.2  102.27
 27.8776  10318.2  101.284
 27.9196  10261.8  100.84
 27.9616  10379.6  101.6
 28.0036  10263.2  101.012
 28.0456  10203.7  100.839
 28.0876  9995.52  99.9046
 28.1296  10146.3  100.499
 28.1716  10078.8  100.189
 28.2136  10240.9  100.938
 28.2556  9959.68  99.6684
 28.2976  9975.08  99.7279
 28.3396  10120.6  100.19
 28.3816  10159.2  100.421
 28.4236  10118.7  100.367
 28.4656  9977.71  99.705
 28.5076  9901.17  98.9656
 28.5496  10041.1  99.9258
 28.5916  9902.41  99.0414
 28.6336  9759.6  98.6761
 28.6756  9981.35  98.9785
 28.7176  9938.73  99.3147
 28.7596  9851.21  98.7721
 28.8016  9955.11  99.334
 28.8436  9866.9  99.1305
 28.8856  9955.67  99.4255
 28.9276  9805.1  98.9135
 28.9696  9786.76  98.4814
 29.0116  9775.99  98.5924
 29.0536  9705.94  98.4494
 29.0956  9807.83  98.6848
 29.1376  9748  98.3497
 29.1796  9728.06  98.3147
 29.2216  9736.15  98.1772
 29.2636  9709.09  98.1384
 29.3056  9717.19  97.9513
 29.3476  9672.42  98.2442
 29.3896  9815.12  99.0413
 29.4316  9792.43  98.2607
 29.4736  9722.14  97.9517
 29.5156  9815.7  98.3558
 29.5576  9712.2  98.6014
 29.5996  9779.61  98.1791
 29.6416  9637.65  97.5977
 29.6836  9698.92  97.8129
 29.7256  9686.62  98.3249
 29.7676  9678.11  97.9155
 29.8096  9658.26  97.7839
 29.8516  9636.95  97.9893
 29.8936  9716.74  98.5072
 29.9356  9719.07  98.2739
 29.9776  9672.56  98.191
 30.0196  9518.95  96.8175
 30.0616  9563.68  97.4008
 30.1036  9533.7  97.0887
 30.1456  9514.73  97.1901
 30.1876  9499.27  97.1267
 30.2296  9520.06  97.1434
 30.2716  9600.43  97.2079
 30.3136  9507.39  97.5942
 30.3556  9583.73  98.0248
 30.3976  9508.32  99.1576
 30.4396  9703.18  97.4943
 30.4816  9603.08  96.5639
 30.5236  9531.3  96.2427
 30.5656  9453.8  96.4762
 30.6076  9593.27  96.6205
 30.6496  9522.38  96.6441
 30.6916  9462.95  96.4092
 30.7336  9299.14  95.7473
 30.7756  9439.57  96.5599
 30.8176  9311.49  95.8179
 30.8596  9389.76  95.9824
 30.9016  9291.54  95.8266
 30.9436  9316.21  95.7065
 30.9856  9509.26  96.8264
 31.0276  9392.13  95.8134
 31.0696  9325.95  96.0479
 31.1116  9320.7  95.9975
 31.1536  9539.15  96.9751
 31.1956  9375.7  96.2523
 31.2376  9198.16  95.3257
 31.2796  9176.51  94.7757
 31.3216  9297.95  95.3451
 31.3636  9397.8  96.5796
 31.4056  9276.54  97.2582
 31.4476  9303.44  95.3234
 31.4896  9237.75  95.4845
 31.5316  9346.04  95.4385
 31.5736  9582.95  96.4645
 31.6156  9511.65  96.1237
 31.6576  9423.3  95.7755
 31.6996  9424.23  95.4447
 31.7416  9201.07  95.3676
 31.7836  9334.73  95.0719
 31.8256  9203.57  94.6754
 31.8676  9315.46  95.2447
 31.9096  8994.29  93.9388
 31.9516  9041.77  94.3452
 31.9936  9123.9  94.5917
 32.0356  9262.41  95.382
 32.0776  9018.3  94.0019
 32.1196  9219.13  95.1191
 32.1616  9269.63  94.8451
 32.2036  9055.67  94.2603
 32.2456  9208.61  95.4323
 32.2876  9244.47  95.1109
 32.3296  9136.3  94.5145
 32.3716  9105.94  94.4221
 32.4136  9155.89  94.8677
 32.4556  9229.81  94.6587
 32.4976  9202.81  94.4017
 32.5396  9021.99  93.5583
 32.5816  8933.07  93.2305
 32.6236  9095.56  94.1338
 32.6656  9117.93  94.7885
 32.7076  8970.16  93.6757
 32.7496  9046.94  93.7542
 32.7916  8973.07  93.3179
 32.8336  8997.59  93.5517
 32.8756  9112.4  93.8513
 32.9176  8902.62  93.2524
 32.9596  8863.26  93.1127
 33.0016  9112.46  94.2154
 33.0436  9067.16  93.8784
 33.0856  8898.95  93.3428
 33.1276  8917.63  93.1773
 33.1696  8924.7  93.0493
 33.2116  8910.22  93.2094
 33.2536  8969.1  93.5276
 33.2956  8882.9  93.144
 33.3376  8834.06  92.6258
 33.3796  8793.78  92.6238
 33.4216  8953.02  93.0358
 33.4636  8967.86  93.2786
 33.5056  8815.45  92.7281
 33.5476  8796.91  92.6319
 33.5896  8935.4  93.1257
 33.6316  8817.42  92.8285
 33.6736  8609.9  91.9572
 33.7156  8832.8  92.8923
 33.7576  8845.55  92.8773
 33.7996  8938.49  93.1122
 33.8416  8686.35  91.9848
 33.8836  8785.65  92.4393
 33.9256  8724.04  92.043
 33.9676  8869.81  92.6925
 34.0096  8639.1  91.8047
 34.0516  8700.22  91.7548
 34.0936  8732.44  92.0744
 34.1356  8793.24  92.2497
 34.1776  8661.16  91.5579
 34.2196  8713.8  92.0262
 34.2616  8659.38  91.8792
 34.3036  8663.12  92.1545
 34.3456  8610.06  91.6073
 34.3876  8590.24  91.482
 34.4296  8567.69  91.0418
 34.4716  8679.4  91.7206
 34.5136  8651.06  91.8379
 34.5556  8591.08  91.7603
 34.5976  8736.15  92.347
 34.6396  8605.12  91.3628
 34.6816  8541.95  91.1527
 34.7236  8633.68  91.4065
 34.7656  8703.58  91.9677
 34.8076  8554.73  91.5066
 34.8496  8614.75  91.68
 34.8916  8543.66  91.1734
 34.9336  8667.22  91.7969
 34.9756  8634.1  91.5436
 35.0176  8636.1  92.0861
 35.0596  8422.63  90.7814
 35.1016  8452.29  90.6985
 35.1436  8710.22  91.7506
 35.1856  8322.42  89.8157
 35.2276  8545.95  91.1752
 35.2696  8380.82  90.4951
 35.3116  8457.65  90.9929
 35.3536  8493.92  90.9069
 35.3956  8449.53  90.3761
 35.4376  8390.88  90.6295
 35.4796  8524.03  91.3941
 35.5216  8405.11  90.7037
 35.5636  8307.35  90.9209
 35.6056  8495.59  90.9503
 35.6476  8453.68  90.6344
 35.6896  8513.46  91.042
 35.7316  8340.42  90.0811
 35.7736  8351.42  90.3428
 35.8156  8395.99  90.5965
 35.8576  8467.5  91.2147
 35.8996  8547.95  91.607
 35.9416  8743.16  92.0773
 35.9836  8316.16  90.2199
 36.0256  8443.66  90.9299
 36.0676  8382.83  90.3661
 36.1096  8227.45  89.6498
 36.1516  8451.38  90.7502
 36.1936  8367.1  90.1407
 36.2356  8413.67  91.0387
 36.2776  8456.06  90.7309
 36.3196  8299.31  89.5718
 36.3616  8300.56  89.6788
 36.4036  8419.78  90.407
 36.4456  8398.74  90.524
 36.4876  8272.79  89.7675
 36.5296  8219.6  89.5208
 36.5716  8316.07  90.5721
 36.6136  8422.83  90.1316
 36.6556  8550.51  91.0164
 36.6976  8228.26  89.7974
 36.7396  8247.8  89.6517
 36.7816  8377.81  90.7134
 36.8236  8314.77  90.3162
 36.8656  8292.88  90.255
 36.9076  8280.7  90.0777
 36.9496  8241.2  89.8127
 36.9916  8296.92  89.7644
 37.0336  8486.36  91.0871
 37.0756  8364.66  90.2389
 37.1176  8127.83  89.2203
 37.1596  8203.46  89.6387
 37.2016  8221.06  89.963
 37.2436  8270.11  89.5412
 37.2856  8216.13  89.5229
 37.3276  8152.16  88.6643
 37.3696  8067.49  88.944
 37.4116  8262.28  89.8788
 37.4536  8162.23  89.2248
 37.4956  7973.38  88.4342
 37.5376  8174.24  90.9119
 37.5796  8042.06  90.1367
 37.6216  7938.44  87.8149
 37.6636  7954.02  87.8329
 37.7056  8167.7  89.1728
 37.7476  8189.38  88.8464
 37.7896  8014.5  88.351
 37.8316  7950.84  88.2143
 37.8736  8268.97  89.4357
 37.9156  8103.1  88.5575
 37.9576  8074.59  88.2676
 37.9996  7955.93  87.3523
 38.0416  8075.37  88.8256
 38.0836  8246.95  89.6668
 38.1256  7966.28  88.0743
 38.1676  7874.48  87.7107
 38.2096  8094.87  88.5721
 38.2516  8104.6  88.7958
 38.2936  8078.3  88.4881
 38.3356  8041.57  88.1675
 38.3776  7890.84  87.6211
 38.4196  8051.98  88.348
 38.4616  8071.54  88.7123
 38.5036  8090.83  88.6563
 38.5456  7952.02  88.7452
 38.5876  7995.06  89.0225
 38.6296  7898.74  87.4943
 38.6716  7896.27  87.2766
 38.7136  7880.79  87.1332
 38.7556  7794.09  87.1482
 38.7976  7806.1  87.1586
 38.8396  7936.97  88.3396
 38.8816  7906.95  87.9402
 38.9236  7873.95  87.5804
 38.9656  7999.68  88.1897
 39.0076  7875.8  86.9137
 39.0496  7985.61  88.0651
 39.0916  7928.31  87.3854
 39.1336  7910.26  87.7047
 39.1756  7897.12  87.6993
 39.2176  7900.33  88.2437
 39.2596  7870.81  88.0038
 39.3016  7769.44  86.9933
 39.3436  7897.55  88.1501
 39.3856  7938.47  87.8251
 39.4276  8021.46  88.7864
 39.4696  7861.15  87.5185
 39.5116  7743.41  87.3664
 39.5536  7970.04  89.0238
 39.5956  8043.07  88.532
 39.6376  8046.5  88.5329
 39.6796  7840.27  87.1565
 39.7216  7886.14  87.4797
 39.7636  8030.39  88.8712
 39.8056  7955.31  88.2309
 39.8476  7935.56  88.3803
 39.8896  7909.36  87.8789
 39.9316  7780.72  87.3972
 39.9736  8108.19  88.7895
 40.0156  7970.94  87.8599
 40.0576  7981.84  88.2852
 40.0996  8057.82  87.8632
 40.1416  7946.22  88.048
 40.1836  8048.74  88.5011
 40.2256  8054.39  88.5874
 40.2676  7922.72  87.9596
 40.3096  8024.78  88.4474
 40.3516  8074.97  88.8333
 40.3936  8111.77  88.5985
 40.4356  7997.37  88.1737
 40.4776  8067.65  88.967
 40.5196  7972.21  88.5675
 40.5616  7986.5  88.3
 40.6036  7924.85  88.1992
 40.6456  8064.08  88.5562
 40.6876  8104.17  88.7789
 40.7296  7964.38  88.1402
 40.7716  8068.22  88.8558
 40.8136  7915.95  87.9617
 40.8556  7916.33  88.0996
 40.8976  7958.7  88.2458
 40.9396  7936.05  88.4838
 40.9816  8046.71  88.3603
 41.0236  8000.95  87.8739
 41.0656  7916.96  87.9671
 41.1076  8073.53  88.5966
 41.1496  8085.12  88.5775
 41.1916  7976.43  88.3103
 41.2336  7888.09  87.8106
 41.2756  7972.85  87.88
 41.3176  7917.45  88.1997
 41.3596  7970.69  88.2108
 41.4016  7955.1  88.3635
 41.4436  8065.69  88.778
 41.4856  8053.41  88.8664
 41.5276  7805.71  87.5155
 41.5696  8027.08  88.3894
 41.6116  7945.29  88.3383
 41.6536  7969.49  88.3151
 41.6956  7903.14  88.0148
 41.7376  7875.48  87.8801
 41.7796  7955.96  88.1917
 41.8216  7902.8  88.1488
 41.8636  7890.95  88.0109
 41.9056  7848.6  87.5724
 41.9476  7871.57  87.9388
 41.9896  8056.41  88.642
 42.0316  7917.56  87.9362
 42.0736  7917.1  88.0613
 42.1156  7849.53  87.5129
 42.1576  7899.38  87.878
 42.1996  7950.95  88.3133
 42.2416  7995.91  88.0638
 42.2836  7816.19  87.2595
 42.3256  7826.96  87.437
 42.3676  7910.06  87.717
 42.4096  7824.12  87.1911
 42.4516  7918.63  87.858
 42.4936  7797.82  87.2
 42.5356  7841.47  87.5639
 42.5776  7920.13  87.9449
 42.6196  7884.42  87.8164
 42.6616  7668.22  86.7633
 42.7036  7855.17  87.2017
 42.7456  7880.08  87.7074
 42.7876  7827.52  87.5048
 42.8296  7810.21  87.2328
 42.8716  7829.93  87.5087
 42.9136  7797.96  87.1235
 42.9556  7829.82  87.4309
 42.9976  7912.38  87.8631
 43.0396  7857.21  87.2787
 43.0816  7815.7  87.4201
 43.1236  7775.46  87.2593
 43.1656  7769.93  87.0564
 43.2076  7835.33  87.523
 43.2496  7770.8  86.9839
 43.2916  7717.38  87.0467
 43.3336  7814.23  87.4291
 43.3756  7746.06  86.8065
 43.4176  7671.16  86.4622
 43.4596  7626.27  86.0601
 43.5016  7676.53  86.7526
 43.5436  7825.28  87.489
 43.5856  7754.19  87.0961
 43.6276  7698.52  86.6981
 43.6696  7615.72  86.4398
 43.7116  7741.57  86.6961
 43.7536  7842.75  87.7705
 43.7956  7577.61  87.4381
 43.8376  7701.86  86.6885
 43.8796  7692.51  86.6978
 43.9216  7702.82  86.6754
 43.9636  7767.01  87.125
 44.0056  7677.47  86.8689
 44.0476  7575.51  86.0419
 44.0896  7651.61  86.699
 44.1316  7663.67  86.2887
 44.1736  7657.2  86.3763
 44.2156  7660.12  86.2579
 44.2576  7781.37  87.2542
 44.2996  7617.44  86.3156
 44.3416  7532.08  85.5636
 44.3836  7510.85  85.7836
 44.4256  7489.78  85.2911
 44.4676  7388.89  84.8912
 44.5096  7624.61  86.3788
 44.5516  7622.79  86.3277
 44.5936  7384.25  84.9246
 44.6356  7581.1  85.7844
 44.6776  7491.69  85.613
 44.7196  7494.97  85.9053
 44.7616  7512.61  87.3728
 44.8036  7404.09  85.1437
 44.8456  7472.74  85.7601
 44.8876  7492.87  85.846
 44.9296  7576.34  85.6525
 44.9716  7404.8  85.1309
 45.0136  7435.09  85.2105
 45.0556  7421.48  85.1301
 45.0976  7499.44  85.7197
 45.1396  7384.57  84.8274
 45.1816  7486  85.3195
 45.2236  7475.03  85.1755
 45.2656  7452.57  85.5288
 45.3076  7343.04  84.6996
 45.3496  7342.36  84.9818
 45.3916  7350.67  85.3105
 45.4336  7441.28  85.7
 45.4756  7294.8  84.6921
 45.5176  7412.56  85.0114
 45.5596  7442.73  85.2871
 45.6016  7281.87  84.7726
 45.6436  7329.9  84.2391
 45.6856  7366.79  85.0997
 45.7276  7256.86  85.7772
 45.7696  7354.35  86.0276
 45.8116  7367.78  85.5836
 45.8536  7209.5  84.5537
 45.8956  7411.97  85.085
 45.9376  7393.02  84.4429
 45.9796  7347.01  84.8595
 46.0216  7398.26  85.5033
 46.0636  7396.43  84.6343
 46.1056  7334.2  84.2615
 46.1476  7309.26  84.7103
 46.1896  7264.45  84.5942
 46.2316  7230.3  84.2706
 46.2736  7163.78  84.2413
 46.3156  7212.84  84.1232
 46.3576  7251.1  84.5485
 46.3996  7307.22  85.0352
 46.4416  7226.93  84.1438
 46.4836  7211.27  84.4025
 46.5256  7371.19  85.2734
 46.5676  7222.6  84.5255
 46.6096  7241.18  84.5661
 46.6516  7367.44  84.3452
 46.6936  7204.13  83.8929
 46.7356  7369.29  84.9503
 46.7776  7083.51  84.125
 46.8196  7141.97  84.042
 46.8616  7153.56  84.0229
 46.9036  7058.7  83.1541
 46.9456  7110.46  83.0826
 46.9876  7208.94  83.7564
 47.0296  7211.32  84.3651
 47.0716  7145.5  83.8904
 47.1136  7150.07  83.6058
 47.1556  7154.39  83.4949
 47.1976  7209.55  83.9088
 47.2396  7046.82  83.3313
 47.2816  7080.74  83.2435
 47.3236  7138.67  83.9429
 47.3656  7198.13  84.2308
 47.4076  7033.85  83.0427
 47.4496  7096.75  83.5325
 47.4916  7126.1  83.8828
 47.5336  7062.41  83.325
 47.5756  7107.49  83.7177
 47.6176  6969.16  82.7916
 47.6596  7008.92  82.752
 47.7016  7036.85  82.7304
 47.7436  7067.01  83.242
 47.7856  7115.93  83.5706
 47.8276  7060.16  83.2741
 47.8696  7088.95  83.5249
 47.9116  7036.26  82.9381
 47.9536  7053.17  82.9635
 47.9956  7031.65  83.5542
 48.0376  7055.35  83.4782
 48.0796  7015.45  83.3589
 48.1216  7148.09  83.9703
 48.1636  7212.92  83.9296
 48.2056  7061.87  83.2984
 48.2476  6981.28  83.1081
 48.2896  7082.54  83.6332
 48.3316  7121.57  83.7903
 48.3736  6941.78  82.7699
 48.4156  7004.98  83.1098
 48.4576  6918.13  82.7676
 48.4996  7034.09  82.9242
 48.5416  7103.36  83.6615
 48.5836  7019.02  82.8356
 48.6256  6980.81  82.8174
 48.6676  6990.83  83.3641
 48.7096  6913.03  82.1783
 48.7516  6979.51  82.7379
 48.7936  6864.64  82.2159
 48.8356  6999.43  82.9662
 48.8776  6907.46  82.9865
 48.9196  7092.33  83.4635
 48.9616  7016.99  83.3871
 49.0036  6889.86  82.9877
 49.0456  6851.97  82.7233
 49.0876  6923.73  82.6796
 49.1296  6846.44  82.3886
 49.1716  6828.52  82.3894
 49.2136  6925.64  82.6784
 49.2556  6949.54  82.8418
 49.2976  6929.53  82.8065
 49.3396  6810.04  82.137
 49.3816  6928.62  82.4259
 49.4236  6870.21  82.3516
 49.4656  6793.12  81.9
 49.5076  7034.3  83.0978
 49.5496  6915.35  82.4622
 49.5916  6826.38  81.8428
 49.6336  6915.52  82.5683
 49.6756  6949.21  83.0224
 49.7176  6682.57  81.3426
 49.7596  6882.65  82.3138
 49.8016  6956.78  82.6806
 49.8436  6834.87  82.2343
 49.8856  6749.94  81.7313
 49.9276  6791.9  82.1002
 49.9696  6793.57  82.0904
 50.0116  6826.68  82.4171
 50.0536  6827.77  82.3687
 50.0956  6762.72  82.0455
 50.1376  6774.52  81.8143
 50.1796  6655.72  81.3657
 50.2216  6796.42  82.218
 50.2636  6760.66  81.623
 50.3056  6663.46  81.2111
 50.3476  6724.78  81.5941
 50.3896  6716.91  81.5203
 50.4316  6779.41  81.7383
 50.4736  6680.08  81.3525
 50.5156  6808.57  82.1086
 50.5576  6735.85  81.4443
 50.5996  6674.57  81.3495
 50.6416  6752.41  81.7541
 50.6836  6766.58  81.9083
 50.7256  6818.97  82.1358
 50.7676  6676.46  81.6207
 50.8096  6689.79  81.2155
 50.8516  6645.16  81.3512
 50.8936  6674.29  81.2926
 50.9356  6679.11  81.4471
 50.9776  6659.38  81.4519
 51.0196  6605.58  81.2523
 51.0616  6614.38  80.6566
 51.1036  6623.32  81.0445
 51.1456  6588.65  80.7627
 51.1876  6626.98  80.3351
 51.2296  6631.01  80.9876
 51.2716  6517.85  79.9784
 51.3136  6642.17  81.2118
 51.3556  6623.17  80.7122
 51.3976  6562.61  80.5066
 51.4396  6502.15  80.4337
 51.4816  6653.27  81.2212
 51.5236  6617.07  81.0967
 51.5656  6541.13  80.2248
 51.6076  6688.25  81.2169
 51.6496  6582.92  80.7346
 51.6916  6484.96  80.5042
 51.7336  6662.67  81.6659
 51.7756  6603.43  81.0204
 51.8176  6535.59  80.7039
 51.8596  6518.03  80.6152
 51.9016  6712.03  81.4148
 51.9436  6476.04  81.4408
 51.9856  6459.06  81.7555
 52.0276  6565.53  80.9262
 52.0696  6546.61  80.8942
 52.1116  6511.84  80.7488
 52.1536  6524.99  80.7608
 52.1956  6542.27  80.3027
 52.2376  6669.67  81.268
 52.2796  6493.92  80.011
 52.3216  6376.89  79.9555
 52.3636  6388.65  79.6195
 52.4056  6509.26  80.2225
 52.4476  6422.45  80.0484
 52.4896  6433.46  80.1702
 52.5316  6465.53  80.4288
 52.5736  6445.05  79.9811
 52.6156  6542.3  81.0045
 52.6576  6546.89  80.4553
 52.6996  6338.52  80.1351
 52.7416  6389.93  80.3886
 52.7836  6481.96  80.7604
 52.8256  6433.12  79.7054
 52.8676  6271.51  79.2527
 52.9096  6338.84  79.7608
 52.9516  6432.28  80.7342
 52.9936  6384.83  80.8327
 53.0356  6184.44  78.6029
 53.0776  6271.09  79.4072
 53.1196  6323.68  79.8649
 53.1616  6250.7  79.4502
 53.2036  6329.77  79.9052
 53.2456  6339.66  80.0677
 53.2876  6305.24  79.5555
 53.3296  6355.62  80.2016
 53.3716  6403.48  80.2502
 53.4136  6297.93  79.7223
 53.4556  6292.28  79.7262
 53.4976  6190.79  78.9333
 53.5396  6248.02  79.68
 53.5816  6238.49  79.2599
 53.6236  6180.08  79.2269
 53.6656  6308.75  79.68
 53.7076  6326.64  79.7547
 53.7496  6278.45  79.5697
 53.7916  6424.85  80.6161
 53.8336  6211.85  79.1714
 53.8756  6332.2  80.4754
 53.9176  6236.55  79.2221
 53.9596  6324.47  80.4901
 54.0016  6223.62  79.2099
 54.0436  6296.56  79.8639
 54.0856  6307.82  79.3825
 54.1276  6294.67  79.5011
 54.1696  6273.11  79.5296
 54.2116  6228.37  79.0198
 54.2536  6379.72  79.7801
 54.2956  6238.46  78.9389
 54.3376  6247.05  79.4682
 54.3796  6252.41  79.4063
 54.4216  6374  80.0212
 54.4636  6282.24  79.588
 54.5056  6301.2  79.5342
 54.5476  6275.26  79.7079
 54.5896  6271.3  79.5059
 54.6316  6280.16  79.4313
 54.6736  6266.66  79.4191
 54.7156  6233.42  79.232
 54.7576  6167.51  78.8134
 54.7996  6224.01  79.2976
 54.8416  6236.43  79.429
 54.8836  6230.85  79.4919
 54.9256  6218.11  79.1814
 54.9676  6251.17  79.2307
 55.0096  6239.81  79.2432
 55.0516  6266.11  79.6165
 55.0936  6206.52  78.8963
 55.1356  6187.1  78.8193
 55.1776  6216.14  79.2752
 55.2196  6232.03  79.1491
 55.2616  6226.87  79.3397
 55.3036  6193.09  79.269
 55.3456  6183.01  79.3395
 55.3876  6231.87  79.4119
 55.4296  6226.94  79.3513
 55.4716  6155.22  78.9361
 55.5136  6188.43  78.9129
 55.5556  6144.74  78.7071
 55.5976  6151.24  78.7923
 55.6396  6144.55  78.7065
 55.6816  6148.65  78.6069
 55.7236  6215.54  79.047
 55.7656  6193.2  78.6909
 55.8076  6222.16  78.8517
 55.8496  6100.91  78.4009
 55.8916  6215.69  79.3401
 55.9336  6211.73  79.1375
 55.9756  6209.99  79.0125
 56.0176  6182.65  78.9894
 56.0596  6166.1  78.868
 56.1016  6219.15  79.2003
 56.1436  6153.59  79.0485
 56.1856  6170.9  78.9042
 56.2276  6152.35  78.8547
 56.2696  6137.47  78.7179
 56.3116  6102.48  78.911
 56.3536  6135.57  78.7685
 56.3956  6110.77  78.6066
 56.4376  6183.84  79.1082
 56.4796  6197.62  78.9893
 56.5216  6144.28  79.03
 56.5636  6156.71  78.6926
 56.6056  6156.23  78.9388
 56.6476  6139.93  78.4495
 56.6896  6144.97  78.9389
 56.7316  6154.18  78.8969
 56.7736  6182.94  79.0423
 56.8156  6196.58  79.1608
 56.8576  6116.38  78.5851
 56.8996  6133.28  78.6374
 56.9416  6170.38  79.1852
 56.9836  5979.02  77.4709
 57.0256  6159.99  78.9469
 57.0676  6074.59  78.527
 57.1096  6165.54  78.8969
 57.1516  6155.72  78.8796
 57.1936  6088.62  78.2141
 57.2356  6172.75  79.0664
 57.2776  6148.09  78.868
 57.3196  6091.22  78.8723
 57.3616  6146.81  78.7265
 57.4036  6155.19  78.8413
 57.4456  6115.91  78.5658
 57.4876  6261.86  79.3496
 57.5296  6144.8  78.9338
 57.5716  6161.23  79.035
 57.6136  6102.45  78.484
 57.6556  6151.82  78.9301
 57.6976  6182.89  78.9443
 57.7396  6028.12  78.3283
 57.7816  5936.15  78.0715
 57.8236  6159.09  79.3556
 57.8656  6066.54  78.3808
 57.9076  6066.63  78.4086
 57.9496  6049.22  78.6479
 57.9916  6120.48  78.6437
 58.0336  6050.71  78.4566
 58.0756  6091.34  78.3726
 58.1176  6085.59  78.3153
 58.1596  5972.32  78.146
 58.2016  6165.63  78.5802
 58.2436  6141.06  78.8532
 58.2856  6095.53  78.4645
 58.3276  6076.53  78.7269
 58.3696  6013.79  78.0852
 58.4116  6137.21  78.7364
 58.4536  6132.83  78.6086
 58.4956  5961.71  77.6672
 58.5376  6181.38  78.6539
 58.5796  6084.29  78.4406
 58.6216  6120.51  78.4974
 58.6636  6175.07  79.0528
 58.7056  6166.33  78.8686
 58.7476  5989.1  78.1699
 58.7896  6027.64  78.0671
 58.8316  6133.15  78.7572
 58.8736  6159.77  78.9199
 58.9156  6059.56  78.3344
 58.9576  6183.24  79.4227
 58.9996  6270.28  79.2448
 59.0416  6277.77  79.636
 59.0836  6114.3  78.5197
 59.1256  5986.04  78.3953
 59.1676  6032.73  79.0022
 59.2096  6181.17  79.2302
 59.2516  6274.55  79.3998
 59.2936  6246.66  79.5565
 59.3356  6012.69  77.9305
 59.3776  6092.86  78.6179
 59.4196  6158.81  78.9782
 59.4616  6048.7  78.1284
 59.5036  6117.67  78.6084
 59.5456  6275.85  79.3057
 59.5876  6172.93  78.8457
 59.6296  6227.19  79.2617
 59.6716  6146.95  78.8078
 59.7136  6297.76  79.7567
 59.7556  6185.38  79.1799
 59.7976  6186.74  78.9278
 59.8396  6207.5  78.9531
 59.8816  6078.8  78.6766
 59.9236  6221.93  79.2365
 59.9656  6190.89  79.3025
 60.0076  6323.1  79.4876
 60.0496  6190.51  78.6749
 60.0916  6189.93  78.5672
 60.1336  6011.32  78.5291
 60.1756  6048.59  79.9563
 60.1996  6179.82  83.0794