File: docs/examples/opeando_xrd/IS17_D/Data/IS17_D/17_Da_f00124.xye
# /beamlines/bl04/projects/cycle2025-II/20250340211-lsimonelli/DATA/IS17_D/17_Da_f00124.xye : mythproc.py merge -s 0.006 -l 0.5 -f /beamlines/bl04/inhouse/ff/FlatField/ff_20Nov2024rod8mm60s_17keV.raw -b True -c true -o xye /beamlines/bl04/projects/cycle2025-II/20250340211-lsimonelli/DATA/IS17_D/17_Da_00124.dat
# IsMon = [6757970, 6762613, 6761283]  IsPos = [-1.4999, -2.4884, -3.4988]
# Wave = 0.4962  CalPath /beamlines/bl04/projects/cycle2025-II/20250340211-lsimonelli/DATA/Align/Si_Pos1_25keV_f00001.cal
# Date = 2025-09-25_04:08:41 Dt = 4.8000  Bin = 0.0060  <imon> = 6760622 +/- 1952 (Min/Max) 6757970 / 6762613
# icurr 250.5120  mocoIn 1.7085E-05  mocoOut 0.8021  i15 7.08055e+06  imon 6.76062e+06  i7 6.0000  iEMpd_timer 4.8000  iEMpd_1 3.6296E-08  iEMpd_2 7.7908E-08  iEMpd_3 1.7247E-08  iEMpd_4 4.8526E-08  iEMhp_timer 4.8000  iEMhp_1 4.8931E-06  iEMhp_2 -2.3694E-08  iEMhp_3 -2.5455E-08  iEMhp_4 -2.1737E-08
#      9776
 1.5856  40593.4  206.927
 1.6276  48008.7  221.173
 1.6696  54384  234.57
 1.7116  62670.1  252.299
 1.7536  73006.9  271.152
 1.7956  76936  279.049
 1.8376  72818.8  271.91
 1.8796  61510.7  248.065
 1.9216  49439.1  223.285
 1.9636  41736.2  204.312
 2.0056  37794.9  193.673
 2.0476  34929.4  188.228
 2.0896  33672.5  183.727
 2.1316  32716.4  180.229
 2.1736  31084.3  177.069
 2.2156  31753.6  177.529
 2.2576  30484  174.568
 2.2996  29080.8  171.129
 2.3416  29874.6  172.062
 2.3836  29005.9  169.648
 2.4256  28137.4  167.634
 2.4676  27916.9  166.739
 2.5096  27628.4  165.929
 2.5516  26906.9  167.522
 2.5936  26801  163.808
 2.6356  26757.5  164.363
 2.6776  26433.6  162.245
 2.7196  25965  161.329
 2.7616  25958.7  161.087
 2.8036  25508.2  159.855
 2.8456  25562.3  160.641
 2.8876  24946.7  158.56
 2.9296  24701.1  157.913
 2.9716  24651.6  157.245
 3.0136  24099.5  155.54
 3.0556  24437  157.027
 3.0976  24278.4  155.457
 3.1396  23918.8  155.004
 3.1816  23650.1  154.066
 3.2236  23548  153.732
 3.2656  23641.8  153.068
 3.3076  23417.9  153.801
 3.3496  23601.2  153.334
 3.3916  24055.4  154.639
 3.4336  24445.7  156.466
 3.4756  24771.5  157.441
 3.5176  25801.7  160.46
 3.5596  25530.9  162.062
 3.6016  25762.6  160.397
 3.6436  25056.1  159.28
 3.6856  24507.8  155.827
 3.7276  23654.7  154.176
 3.7696  23499.4  153.871
 3.8116  23092.1  152.419
 3.8536  23213.7  152.757
 3.8956  22984.2  151.823
 3.9376  23061.2  152.328
 3.9796  23020  151.702
 4.0216  23009.1  150.693
 4.0636  23004.9  152.165
 4.1056  22951.9  151.621
 4.1476  23055  152.293
 4.1896  23460  153.475
 4.2316  23366.3  152.997
 4.2736  24176.6  155.412
 4.3156  24093.5  155.373
 4.3576  25022.9  158.275
 4.3996  25142.8  158.897
 4.4416  25759.7  160.424
 4.4836  26194.9  161.916
 4.5256  26680.3  164.042
 4.5676  26287.8  163.08
 4.6096  26929.5  163.717
 4.6516  27496.9  165.139
 4.6936  27544.1  166.093
 4.7356  27749.1  166.539
 4.7776  27840.7  166.639
 4.8196  27472.1  166.198
 4.8616  26944.2  164.057
 4.9036  26821.5  163.447
 4.9456  26488.6  163.067
 4.9876  25999.5  161.457
 5.0296  26554.3  162.989
 5.0716  26152.3  162.522
 5.1136  26296.5  162.681
 5.1556  26724.5  163.455
 5.1976  27247.2  165.053
 5.2396  27281.6  164.845
 5.2816  27214.1  165.112
 5.3236  27298.5  165.066
 5.3656  26896  164.763
 5.4076  26455.8  163.563
 5.4496  26832.4  164.204
 5.4916  26900  164.171
 5.5336  26886  164.128
 5.5756  26509.4  163.015
 5.6176  26979  163.869
 5.6596  26878.7  164.553
 5.7016  27206.8  164.815
 5.7436  27642.6  166.4
 5.7856  27252  165.281
 5.8276  27755.4  166.52
 5.8696  27854.7  166.991
 5.9116  27947.9  167.882
 5.9536  27985.2  167.749
 5.9956  28267.3  167.957
 6.0376  28438.4  169.099
 6.0796  28474.6  169.036
 6.1216  28668.9  169.812
 6.1636  28680.5  168.911
 6.2056  28885.4  170.177
 6.2476  28868.2  170.001
 6.2896  29307.4  170.972
 6.3316  28917.3  170.01
 6.3736  29078.6  170.371
 6.4156  29259.4  170.802
 6.4576  29379.7  170.753
 6.4996  29696.5  172.15
 6.5416  29819.1  172.646
 6.5836  29723.2  172.596
 6.6256  29776.4  172.313
 6.6676  30336.5  173.494
 6.7096  30111  173.71
 6.7516  30701.9  175.049
 6.7936  30575.1  174.118
 6.8356  30903.9  175.126
 6.8776  31289.6  177.021
 6.9196  31243.7  177.298
 6.9616  31685.5  177.981
 7.0036  32227.4  179.152
 7.0456  32105.9  178.107
 7.0876  31928.8  179.309
 7.1296  31889.7  178.334
 7.1716  31919  177.956
 7.2136  31746.4  177.253
 7.2556  32063.8  178.297
 7.2976  32094.1  178.885
 7.3396  32022.2  178.887
 7.3816  31896.9  178.763
 7.4236  32141.3  178.73
 7.4656  32217.1  178.422
 7.5076  32418.1  179.118
 7.5496  32789.6  180.684
 7.5916  32737.6  180.57
 7.6336  33243.9  181.858
 7.6756  33510.1  182.436
 7.7176  33490.2  182.691
 7.7596  33489.6  183.95
 7.8016  33739.3  186.836
 7.8436  34270  184.922
 7.8856  34421.2  184.94
 7.9276  35161.6  187.319
 7.9696  35651  188.93
 8.0116  36407.3  189.439
 8.0536  36425.5  189.751
 8.0956  36296  190.593
 8.1376  36911.6  191.673
 8.1796  37274.8  193.16
 8.2216  37891.1  193.473
 8.2636  37993.7  193.987
 8.3056  38230.3  195.38
 8.3476  38762.6  196.047
 8.3896  38067.7  194.365
 8.4316  38432.6  195.46
 8.4736  38384.7  194.801
 8.5156  38292.6  194.843
 8.5576  38035.2  195.17
 8.5996  38211.3  194.479
 8.6416  37939.4  195.055
 8.6836  37864.8  194.703
 8.7256  38149.8  194.862
 8.7676  37885.1  197.153
 8.8096  37761.5  194.108
 8.8516  37456.2  192.938
 8.8936  36986.6  191.604
 8.9356  37070.7  192.189
 8.9776  37155.6  192.496
 9.0196  37026.6  191.841
 9.0616  37140.8  191.594
 9.1036  36606.9  191.408
 9.1456  36912.2  191.552
 9.1876  37018.7  191.782
 9.2296  36773.6  190.54
 9.2716  36220.7  189.173
 9.3136  36237.6  189.198
 9.3556  36511  189.891
 9.3976  35054.7  186.604
 9.4396  35373.2  187.338
 9.4816  35127.1  186.551
 9.5236  35271.5  186.837
 9.5656  34980.4  186.391
 9.6076  34655.1  186.052
 9.6496  34732.2  186.187
 9.6916  34684.2  186.025
 9.7336  34569.6  185.498
 9.7756  34714.1  187.147
 9.8176  33908.2  184.458
 9.8596  33713.4  182.359
 9.9016  33519.4  181.828
 9.9436  33173.7  180.798
 9.9856  33018.4  180.595
 10.0276  32558.2  180.459
 10.0696  32840.3  180.268
 10.1116  31577.9  177.03
 10.1536  31778.8  177.762
 10.1956  31118.6  175.503
 10.2376  30801.5  174.114
 10.2796  30925.9  174.587
 10.3216  30692.4  174.198
 10.3636  30693.1  174.23
 10.4056  30185.8  173.178
 10.4476  30020.6  172.334
 10.4896  30409.6  172.895
 10.5316  29618.3  171.342
 10.5736  29537.6  171.52
 10.6156  29042.1  169.852
 10.6576  29361.7  169.328
 10.6996  29140.5  169.373
 10.7416  28424.4  167.509
 10.7836  28718.9  169.061
 10.8256  28210.1  167.997
 10.8676  28465.6  168.277
 10.9096  28110.3  167.274
 10.9516  27853.4  165.423
 10.9936  27755.6  165.34
 11.0356  27557.9  165.385
 11.0776  27539.2  164.631
 11.1196  26982  163.705
 11.1616  26938.2  163.259
 11.2036  26862.3  162.887
 11.2456  27042.7  164.138
 11.2876  26888.3  163.413
 11.3296  26724.5  162.803
 11.3716  27224.1  164.006
 11.4136  27312.3  165.185
 11.4556  27455  165.276
 11.4976  27912.1  165.59
 11.5396  28247.8  166.753
 11.5816  27575.5  165.234
 11.6236  26983.9  163.666
 11.6656  26585.7  161.605
 11.7076  26094.3  160.951
 11.7496  25786.6  163.969
 11.7916  25858.2  159.48
 11.8336  25567.7  159.474
 11.8756  25309.2  158.2
 11.9176  25352.1  157.981
 11.9596  25167.7  157.595
 12.0016  25177.4  158.432
 12.0436  25003.5  157.308
 12.0856  24697.6  156.862
 12.1276  24853.1  157.275
 12.1696  24778.4  156.164
 12.2116  25078.5  157.097
 12.2536  24591.7  156.408
 12.2956  24661.9  155.954
 12.3376  24477.3  155.588
 12.3796  24528.3  156.213
 12.4216  24484.8  155.286
 12.4636  24286.6  155.573
 12.5056  24406  155.225
 12.5476  24806.9  156.017
 12.5896  24670.8  156.22
 12.6316  24117.8  154.631
 12.6736  24217.1  155.432
 12.7156  24058.6  154.788
 12.7576  24364.5  156.006
 12.7996  24494.2  155.056
 12.8416  24387.9  155.777
 12.8836  25044.9  157.686
 12.9256  25094.1  156.841
 12.9676  24972.5  156.887
 13.0096  24871.5  157.69
 13.0516  25156.8  157.614
 13.0936  25054.9  157.702
 13.1356  25316  157.488
 13.1776  24824.7  156.945
 13.2196  24880.7  156.773
 13.2616  25072.8  157.685
 13.3036  25173  157.981
 13.3456  24964.4  157.677
 13.3876  24862.6  156.656
 13.4296  24930.6  157.016
 13.4716  25102.1  157.159
 13.5136  25036.3  157.106
 13.5556  24966.5  157.497
 13.5976  25123.4  158.149
 13.6396  25161.2  157.627
 13.6816  24902.6  157.315
 13.7236  25615.2  159.19
 13.7656  24626.3  156.628
 13.8076  24997.3  156.568
 13.8496  24553.5  155.778
 13.8916  24644.1  157.072
 13.9336  24689  156.428
 13.9756  24538.4  155.306
 14.0176  24477.7  155.788
 14.0596  24415.4  155.566
 14.1016  24297.3  155.589
 14.1436  24003.8  153.779
 14.1856  23668.7  152.991
 14.2276  23312.7  152.324
 14.2696  23777.2  153.667
 14.3116  23383.3  152.284
 14.3536  22931.5  150.992
 14.3956  23195.1  151.579
 14.4376  23165.7  151.263
 14.4796  23126.7  151.132
 14.5216  22635.8  150.315
 14.5636  22492.6  149.402
 14.6056  22720.8  149.737
 14.6476  22732.3  148.995
 14.6896  22278.6  148.041
 14.7316  21915.1  147.873
 14.7736  21881.3  146.887
 14.8156  21489.5  145.602
 14.8576  21503.9  145.507
 14.8996  21106.7  145.369
 14.9416  20828.2  144.392
 14.9836  20925.9  144.687
 15.0256  20589.8  142.445
 15.0676  20723  143.227
 15.1096  20472.7  142.095
 15.1516  20287.4  142.011
 15.1936  20013.6  140.476
 15.2356  19831.8  140.117
 15.2776  19881.2  139.868
 15.3196  19335.4  138.946
 15.3616  19391.4  138.904
 15.4036  19323.3  138.514
 15.4456  19526.7  138.888
 15.4876  19129  137.143
 15.5296  18908.5  136.632
 15.5716  18895.7  136.19
 15.6136  18848.7  136.344
 15.6556  18801.1  135.409
 15.6976  18589.7  134.941
 15.7396  18456.6  134.855
 15.7816  18435.3  134.276
 15.8236  18137  133.892
 15.8656  18210.5  133.952
 15.9076  17842.6  132.418
 15.9496  17690.1  134.649
 15.9916  17936.3  136.032
 16.0336  17502.9  131.275
 16.0756  17557.5  131.786
 16.1176  17758.9  132.614
 16.1596  17107.2  131.335
 16.2016  17341.9  130.961
 16.2436  16955.6  129.884
 16.2856  17271.2  130.629
 16.3276  16831.6  129.376
 16.3696  16963.9  129.699
 16.4116  16911.3  129.964
 16.4536  17151.8  130.664
 16.4956  16913.9  129.49
 16.5376  16696.8  128.849
 16.5796  16644.3  128
 16.6216  16770.6  128.794
 16.6636  16750.1  128.867
 16.7056  16756.4  128.756
 16.7476  16775  128.356
 16.7896  16723.9  128.918
 16.8316  16664.1  128.652
 16.8736  16677.5  128.968
 16.9156  16789.8  129.739
 16.9576  16507.1  129.441
 16.9996  16600.2  130.297
 17.0416  16792.7  129.37
 17.0836  16301.6  127.226
 17.1256  16343.5  127.409
 17.1676  16193.1  126.801
 17.2096  16256.5  126.935
 17.2516  16018.6  125.784
 17.2936  16017.4  126.088
 17.3356  15911  125.689
 17.3776  15777.3  125.353
 17.4196  15786.8  125.076
 17.4616  15730.1  124.774
 17.5036  15520.6  124.304
 17.5456  15486.5  124.82
 17.5876  15370.7  123.394
 17.6296  15415.2  123.39
 17.6716  15431  124.03
 17.7136  15065.4  122.702
 17.7556  15246.7  123.727
 17.7976  15162.6  123.125
 17.8396  15043.5  122.136
 17.8816  15117  122.969
 17.9236  14917.5  121.978
 17.9656  15100.5  123.258
 18.0076  15121.3  122.927
 18.0496  15001.7  121.567
 18.0916  15056.7  122.338
 18.1336  15078.3  122.517
 18.1756  15148.1  122.332
 18.2176  14838.1  121.295
 18.2596  14918.8  121.356
 18.3016  15084.8  122.289
 18.3436  14983.5  121.879
 18.3856  14724.1  120.964
 18.4276  14944.5  121.526
 18.4696  14723.5  120.731
 18.5116  14797.5  121.321
 18.5536  14778.1  121.599
 18.5956  14739.1  120.99
 18.6376  14541.5  120.574
 18.6796  14638.1  120.296
 18.7216  14695.6  121.025
 18.7636  14469  120.091
 18.8056  14547.1  120.342
 18.8476  14416.9  120.431
 18.8896  14432.4  119.83
 18.9316  14736.4  121.071
 18.9736  14375.8  119.276
 19.0156  14271.3  119.247
 19.0576  14395.2  118.624
 19.0996  14671.7  120.478
 19.1416  14256.5  119.155
 19.1836  14378.6  119.259
 19.2256  14152.3  118.532
 19.2676  14145  118.595
 19.3096  14354.9  119.717
 19.3516  14219.2  119.114
 19.3936  14296.8  119.329
 19.4356  14275.1  119.118
 19.4776  14248.5  119.102
 19.5196  14343.1  119.347
 19.5616  14212.7  119.053
 19.6036  14230.1  118.625
 19.6456  14348.4  119.237
 19.6876  14422.2  119.186
 19.7296  14228.3  118.846
 19.7716  14200.7  118.885
 19.8136  14357.8  119.759
 19.8556  14679.1  120.556
 19.8976  14612.2  120.349
 19.9396  14716.8  120.335
 19.9816  15006.5  121.772
 20.0236  15195.6  122.765
 20.0656  15071.8  122.254
 20.1076  14585.4  120.744
 20.1496  14389.9  119.934
 20.1916  14256.8  118.89
 20.2336  14091.1  118.135
 20.2756  13996.9  118.166
 20.3176  13893.6  117.475
 20.3596  13811.1  117.1
 20.4016  13872  117.16
 20.4436  13884.2  117.772
 20.4856  13664.2  116.636
 20.5276  13669.2  117.114
 20.5696  13647.9  116.482
 20.6116  13664.8  116.826
 20.6536  13598  116.046
 20.6956  13460.2  115.579
 20.7376  13503  115.993
 20.7796  13531.9  115.807
 20.8216  13651.4  116.02
 20.8636  13402.5  115.334
 20.9056  13283.7  114.762
 20.9476  13325.4  114.787
 20.9896  13545.2  115.594
 21.0316  13541.4  115.467
 21.0736  13288.3  114.911
 21.1156  13404.7  115.569
 21.1576  13448.5  115.812
 21.1996  13266.9  115.008
 21.2416  13243.7  114.738
 21.2836  13273  114.823
 21.3256  13220.4  114.688
 21.3676  13383.8  114.932
 21.4096  13151  114.241
 21.4516  13140.8  114.074
 21.4936  12975.3  113.605
 21.5356  13162.5  114.37
 21.5776  13189.4  114.319
 21.6196  13016.5  113.594
 21.6616  13033.6  113.764
 21.7036  13103.9  113.851
 21.7456  13057.9  113.723
 21.7876  12979.8  113.136
 21.8296  12881.9  112.561
 21.8716  12946.5  113.073
 21.9136  13224.6  114.488
 21.9556  12910.1  112.789
 21.9976  12944.5  112.955
 22.0396  12904.3  113.033
 22.0816  12899.8  113.561
 22.1236  13058  113.705
 22.1656  13085.3  113.937
 22.2076  12973.9  112.919
 22.2496  12967.8  112.919
 22.2916  12997.3  112.928
 22.3336  12923.4  113.338
 22.3756  12938.9  113.127
 22.4176  12821.1  112.466
 22.4596  12676.1  112.421
 22.5016  12755.4  112.258
 22.5436  12960.5  113.042
 22.5856  12798.1  112.578
 22.6276  13001.4  113.606
 22.6696  12784.9  113.009
 22.7116  12732.2  112.286
 22.7536  12981.2  113.355
 22.7956  12818.8  111.97
 22.8376  12715.2  112.044
 22.8796  12829.6  112.345
 22.9216  12964.5  113.49
 22.9636  13038.6  112.949
 23.0056  12872.7  112.361
 23.0476  13003.6  113.513
 23.0896  13279.4  114.073
 23.1316  12987.6  113.252
 23.1736  13012.9  116.365
 23.2156  13041.1  113.83
 23.2576  12899.3  113.349
 23.2996  12852.7  112.925
 23.3416  12698.8  112.768
 23.3836  12755.8  112.253
 23.4256  12765.7  112.413
 23.4676  12735.4  111.975
 23.5096  12765.3  112.787
 23.5516  12778.8  112.122
 23.5936  12759.1  112.94
 23.6356  12948.4  113.44
 23.6776  12888.5  113.391
 23.7196  12608.8  111.725
 23.7616  12878.6  112.836
 23.8036  12739.4  112.284
 23.8456  12841.2  112.272
 23.8876  12515.3  111.206
 23.9296  12533.9  111.779
 23.9716  12606.6  111.293
 24.0136  12626.1  112.284
 24.0556  12500.2  111.455
 24.0976  12481.1  111.171
 24.1396  12337  113.181
 24.1816  12500.3  112.342
 24.2236  12213.6  110.65
 24.2656  12247.9  110.274
 24.3076  12155.1  110.109
 24.3496  12161.6  110.02
 24.3916  12243.7  110.45
 24.4336  12126.9  110.13
 24.4756  12101.6  109.886
 24.5176  11812.5  108.212
 24.5596  11806  108.311
 24.6016  11766.1  108.414
 24.6436  11901.1  108.523
 24.6856  11851.7  108.055
 24.7276  11781.3  108.046
 24.7696  11602.5  107.343
 24.8116  11633  107.657
 24.8536  11652.4  107.748
 24.8956  11645.3  107.451
 24.9376  11562.4  107.01
 24.9796  11432.3  106.76
 25.0216  11402.8  106.735
 25.0636  11362.9  106.198
 25.1056  11386.2  107.016
 25.1476  11507.1  109.263
 25.1896  11619.7  108.246
 25.2316  11477.6  106.84
 25.2736  11411.9  106.192
 25.3156  11368.9  106.075
 25.3576  11219.6  105.795
 25.3996  11375.2  106.511
 25.4416  11241.5  105.863
 25.4836  11199.3  106.188
 25.5256  11362.6  106.319
 25.5676  11268.6  105.601
 25.6096  11088  105.33
 25.6516  11323  105.93
 25.6936  11205.6  105.704
 25.7356  11223.1  105.918
 25.7776  11263.7  105.712
 25.8196  11043.6  104.913
 25.8616  11153.8  105.353
 25.9036  11218.6  105.124
 25.9456  11054.1  104.945
 25.9876  10987.2  104.694
 26.0296  11305  105.696
 26.0716  11050.5  104.931
 26.1136  11161.8  105.4
 26.1556  11288.5  105.365
 26.1976  11079.1  105.317
 26.2396  11095.1  104.543
 26.2816  11035.7  104.876
 26.3236  11175.2  105.691
 26.3656  11025.3  104.713
 26.4076  11187.8  105.691
 26.4496  11554.7  106.871
 26.4916  11141.8  104.967
 26.5336  11125.6  105.215
 26.5756  11448.5  106.559
 26.6176  10992.8  104.492
 26.6596  10911.2  104.416
 26.7016  10839.4  103.823
 26.7436  10864.7  104.09
 26.7856  10693.5  103.244
 26.8276  10727.6  103.366
 26.8696  10889.2  104.006
 26.9116  10746.4  103.266
 26.9536  10628.6  102.746
 26.9956  10734.3  103.284
 27.0376  10661.4  103.162
 27.0796  10731.9  103.224
 27.1216  10566.3  102.504
 27.1636  10547.7  102.577
 27.2056  10580.7  102.62
 27.2476  10515.2  102.3
 27.2896  10585.7  102.754
 27.3316  10516.1  102.13
 27.3736  10508.7  102.354
 27.4156  10427.5  101.802
 27.4576  10448.1  102.14
 27.4996  10409.7  101.55
 27.5416  10456  102.091
 27.5836  10422.2  101.741
 27.6256  10868.8  104.064
 27.6676  10729.8  103.419
 27.7096  10484.6  102.097
 27.7516  10357.7  101.62
 27.7936  10323.9  101.638
 27.8356  10350.4  101.381
 27.8776  10356.1  101.457
 27.9196  10225.2  100.66
 27.9616  10303.4  101.238
 28.0036  10257.3  100.986
 28.0456  10402.9  101.827
 28.0876  10186.5  100.858
 28.1296  10191.8  100.726
 28.1716  10172.5  100.638
 28.2136  10242.3  100.944
 28.2556  10040.6  100.063
 28.2976  10072.4  100.213
 28.3396  10283.1  101.013
 28.3816  10173.9  100.496
 28.4236  10157.6  100.567
 28.4656  10102.9  100.332
 28.5076  10100.9  99.9562
 28.5496  10127.6  100.356
 28.5916  10194.9  100.494
 28.6336  9994.7  99.8472
 28.6756  10064.5  99.3898
 28.7176  10063.8  99.9366
 28.7596  9988.55  99.4618
 28.8016  10152.5  100.305
 28.8436  9902.62  99.3081
 28.8856  9986.97  99.5803
 28.9276  10054.7  100.164
 28.9696  9946.05  99.28
 29.0116  9919.18  99.3288
 29.0536  9901.31  99.4426
 29.0956  9907.62  99.1914
 29.1376  9865.96  98.9464
 29.1796  9855.98  98.9429
 29.2216  9942.33  99.2131
 29.2636  9815.34  98.655
 29.3056  9877.99  98.7584
 29.3476  9785.86  98.822
 29.3896  9956.87  99.7727
 29.4316  9888.38  98.7593
 29.4736  9959.26  99.1807
 29.5156  10009.2  99.3399
 29.5576  9869.71  99.3975
 29.5996  9865.34  98.6283
 29.6416  9784.65  98.3424
 29.6836  9881.62  98.7548
 29.7256  9867.18  99.2545
 29.7676  9916.52  99.1613
 29.8096  9768.3  98.3598
 29.8516  9648.71  98.0907
 29.8936  9726.13  98.5767
 29.9356  9777.57  98.5895
 29.9776  9627.25  97.9831
 30.0196  9693.84  97.7011
 30.0616  9664.29  97.9323
 30.1036  9792.35  98.3951
 30.1456  9702.81  98.1885
 30.1876  9734.95  98.3254
 30.2296  9591.39  97.5495
 30.2716  9706.3  97.7636
 30.3136  9840.05  99.308
 30.3556  9790.74  99.0784
 30.3976  9511.59  99.187
 30.4396  9689.48  97.4282
 30.4816  9768.37  97.4105
 30.5236  9695.25  97.071
 30.5656  9558.26  97.0325
 30.6076  9610.79  96.732
 30.6496  9684.25  97.484
 30.6916  9515.02  96.7171
 30.7336  9507.75  96.8368
 30.7756  9525.24  97.0142
 30.8176  9424.22  96.418
 30.8596  9590.26  97.0286
 30.9016  9520.5  97.0215
 30.9436  9488.78  96.6129
 30.9856  9492.42  96.7375
 31.0276  9666.01  97.2203
 31.0696  9431.04  96.6047
 31.1116  9505.69  96.967
 31.1536  9554.42  97.0952
 31.1956  9401.03  96.4033
 31.2376  9398.98  96.3979
 31.2796  9307.09  95.4691
 31.3216  9492  96.3517
 31.3636  9502.48  97.0996
 31.4056  9477.42  98.3043
 31.4476  9512.6  96.3462
 31.4896  9379.18  96.1764
 31.5316  9468.12  96.0207
 31.5736  9527.12  96.1452
 31.6156  9463.97  95.8434
 31.6576  9461.98  95.9315
 31.6996  9544.82  96.0148
 31.7416  9264.7  95.6601
 31.7836  9429.96  95.5151
 31.8256  9294.8  95.1046
 31.8676  9373.54  95.4981
 31.9096  9184.92  94.89
 31.9516  9123.75  94.728
 31.9936  9167.12  94.7788
 32.0356  9310.42  95.5895
 32.0776  9407.5  95.9681
 32.1196  9259.56  95.2913
 32.1616  9337.57  95.1525
 32.2036  9207.07  95.0013
 32.2456  9236.14  95.5342
 32.2876  9350.67  95.6151
 32.3296  9067.74  94.1215
 32.3716  9287.2  95.3555
 32.4136  9159.07  94.9122
 32.4556  9396.59  95.4939
 32.4976  9296.72  94.8972
 32.5396  9193.16  94.4454
 32.5816  9090.76  94.04
 32.6236  9205.76  94.7004
 32.6656  9345.72  95.9634
 32.7076  8994.33  93.8015
 32.7496  9178.38  94.4151
 32.7916  9235.24  94.6597
 32.8336  9228.74  94.7307
 32.8756  9181.12  94.211
 32.9176  9031.82  93.9248
 32.9596  9064.51  94.1726
 33.0016  9048.86  93.8768
 33.0436  9252.44  95.108
 33.0856  9100.28  94.3905
 33.1276  8956.85  93.3791
 33.1696  9236.49  94.662
 33.2116  9107.1  94.2232
 33.2536  9126.82  94.3365
 33.2956  8988.24  93.695
 33.3376  9093.34  93.9828
 33.3796  8997.25  93.691
 33.4216  9120.47  93.9176
 33.4636  9070.52  93.8141
 33.5056  8901.56  93.1681
 33.5476  8915.43  93.2413
 33.5896  9077.05  93.851
 33.6316  8899.19  93.2502
 33.6736  8821.32  93.076
 33.7156  8918.93  93.6345
 33.7576  9014.69  93.757
 33.7996  9152.86  94.2417
 33.8416  8713.21  92.136
 33.8836  8906.31  92.9225
 33.9256  8877.97  92.8432
 33.9676  8984.2  93.2862
 34.0096  8749.91  92.3851
 34.0516  8865.4  92.6231
 34.0936  8713.82  92.0956
 34.1356  9012.3  93.3928
 34.1776  8770.92  92.1443
 34.2196  8806.06  92.5115
 34.2616  8701.1  92.0902
 34.3036  8785.22  92.7909
 34.3456  8760.3  92.4108
 34.3876  8732.89  92.2349
 34.4296  8667.91  91.5746
 34.4716  8752.65  92.174
 34.5136  8824.16  92.7535
 34.5556  8751.67  92.6223
 34.5976  8877.25  93.0917
 34.6396  8800.67  92.3925
 34.6816  8714.58  92.0586
 34.7236  8701.69  91.772
 34.7656  8672.77  91.8181
 34.8076  8690.3  92.2252
 34.8496  8703.19  92.1473
 34.8916  8665.74  91.8305
 34.9336  8817.03  92.5934
 34.9756  8808.01  92.4659
 35.0176  8817.41  93.0504
 35.0596  8699.83  92.2601
 35.1016  8713.11  92.0873
 35.1436  8717.68  91.7961
 35.1856  8591.3  91.2529
 35.2276  8709.55  92.0549
 35.2696  8688.63  92.141
 35.3116  8608.2  91.8059
 35.3536  8521.59  91.0571
 35.3956  8573.41  91.0341
 35.4376  8560.84  91.5313
 35.4796  8510.22  91.3203
 35.5216  8603.27  91.7721
 35.5636  8361.9  91.2199
 35.6056  8633.06  91.6914
 35.6476  8601.86  91.4195
 35.6896  8668.1  91.8598
 35.7316  8507.34  90.9808
 35.7736  8414.19  90.6791
 35.8156  8496.45  91.1232
 35.8576  8585.01  91.8465
 35.8996  8615.89  91.9864
 35.9416  8564.49  91.2085
 35.9836  8473.31  91.0635
 36.0256  8564.6  91.5797
 36.0676  8619.64  91.6263
 36.1096  8384.52  90.5059
 36.1516  8612.16  91.6138
 36.1936  8551.21  91.1371
 36.2356  8477.62  91.3867
 36.2776  8515.1  91.06
 36.3196  8477.42  90.5302
 36.3616  8433.97  90.4258
 36.4036  8482.55  90.75
 36.4456  8381.78  90.4199
 36.4876  8386.79  90.3872
 36.5296  8473.65  90.8955
 36.5716  8403.71  91.3038
 36.6136  8576.11  90.9836
 36.6556  8561.07  91.1076
 36.6976  8439.76  90.9629
 36.7396  8378.94  90.3634
 36.7816  8456.55  91.1607
 36.8236  8429.51  90.9358
 36.8656  8387.36  90.7839
 36.9076  8354.08  90.4749
 36.9496  8382  90.6178
 36.9916  8405.99  90.373
 37.0336  8579.8  91.6259
 37.0756  8465.66  90.8006
 37.1176  8239.38  89.8487
 37.1596  8382.91  90.6253
 37.2016  8342.33  90.6407
 37.2436  8273.51  89.5815
 37.2856  8321.56  90.0964
 37.3276  8377.81  89.7423
 37.3696  8236.66  89.8748
 37.4116  8413.82  90.7419
 37.4536  8354.97  90.2872
 37.4956  8191.69  89.4469
 37.5376  8357.6  91.9189
 37.5796  8264.4  91.3709
 37.6216  8115.74  88.8043
 37.6636  8147.5  88.8959
 37.7056  8235.88  89.5598
 37.7476  8187.19  88.8385
 37.7896  8109.38  88.9138
 37.8316  7988.9  88.4258
 37.8736  8322.44  89.763
 37.9156  8151.94  88.8437
 37.9576  8235.15  89.1835
 37.9996  8133.08  88.34
 38.0416  8109.15  89.0313
 38.0836  8197.47  89.4183
 38.1256  8182.74  89.2788
 38.1676  7970.32  88.2649
 38.2096  8045.51  88.3071
 38.2516  8226.9  89.5017
 38.2936  8199.67  89.1516
 38.3356  8201.44  89.0785
 38.3776  8070.59  88.6364
 38.4196  8289.88  89.6829
 38.4616  8197.77  89.4251
 38.5036  8159.81  89.0582
 38.5456  8047.09  89.2666
 38.5876  8128.67  89.7518
 38.6296  8031.64  88.1888
 38.6716  7977.88  87.6889
 38.7136  7926.63  87.3501
 38.7556  7944.83  87.9526
 38.7976  8071.21  88.5865
 38.8396  7955.2  88.4037
 38.8816  7851.28  87.5904
 38.9236  8000.16  88.2345
 38.9656  7871.7  87.4441
 39.0076  8050.41  87.8318
 39.0496  8095.25  88.6306
 39.0916  8065.71  88.0973
 39.1336  7968.69  87.9901
 39.1756  7941.87  87.9104
 39.2176  8120.2  89.4224
 39.2596  7974.82  88.5452
 39.3016  7950.04  87.979
 39.3436  7773.86  87.4198
 39.3856  8110.04  88.7336
 39.4276  8138.34  89.3955
 39.4696  8133.78  88.9785
 39.5116  7948.44  88.4839
 39.5536  8027.5  89.3494
 39.5956  8163.45  89.1845
 39.6376  8141.46  89.0712
 39.6796  7912.45  87.5471
 39.7216  8061.52  88.4703
 39.7636  8064.17  89.0606
 39.8056  8111.32  89.0996
 39.8476  8006.23  88.7696
 39.8896  7956.52  88.1252
 39.9316  8110.74  89.2339
 39.9736  8090.99  88.6877
 40.0156  8051.03  88.2988
 40.0576  7968.67  88.2016
 40.0996  8077.97  87.9762
 40.1416  8096.97  88.8826
 40.1836  8112.23  88.859
 40.2256  8068.46  88.6639
 40.2676  7975.7  88.262
 40.3096  8134  89.0486
 40.3516  8111.99  89.0441
 40.3936  8198.38  89.0704
 40.4356  8093.98  88.6939
 40.4776  8105.56  89.178
 40.5196  8157.96  89.5918
 40.5616  8131.07  89.088
 40.6036  8083.3  89.0778
 40.6456  8189.68  89.2631
 40.6876  8083.02  88.6641
 40.7296  8143.63  89.1394
 40.7716  8124.4  89.1644
 40.8136  8061.83  88.7574
 40.8556  8153.06  89.3998
 40.8976  8063.96  88.8256
 40.9396  7945.81  88.5289
 40.9816  8151.72  88.9308
 41.0236  8042.93  88.1248
 41.0656  8082.88  88.8893
 41.1076  8194.93  89.2634
 41.1496  8079.61  88.5462
 41.1916  8035.94  88.628
 41.2336  7929.3  88.036
 41.2756  8085.11  88.4927
 41.3176  8004.89  88.6742
 41.3596  8092.79  88.8868
 41.4016  7977.41  88.5078
 41.4436  8126.85  89.1192
 41.4856  8156.56  89.4416
 41.5276  8050.79  88.8851
 41.5696  8073.24  88.6306
 41.6116  7999.44  88.6279
 41.6536  7994.71  88.4558
 41.6956  8003.48  88.5692
 41.7376  8040.17  88.7928
 41.7796  8043.65  88.6972
 41.8216  8086.78  89.1685
 41.8636  8078.96  89.0617
 41.9056  8008.28  88.4608
 41.9476  8106.02  89.2327
 41.9896  8073.28  88.719
 42.0316  8106.77  88.9841
 42.0736  8043.58  88.7543
 42.1156  8018.69  88.4502
 42.1576  8165.64  89.3583
 42.1996  8123.87  89.2664
 42.2416  8110.93  88.7735
 42.2836  7899.41  87.7263
 42.3256  7916.71  87.939
 42.3676  7956.59  87.9599
 42.4096  8083.56  88.6205
 42.4516  7986.48  88.1792
 42.4936  7914.64  87.8479
 42.5356  7963.63  88.2535
 42.5776  8013.55  88.4667
 42.6196  8002.76  88.4643
 42.6616  7786.63  87.4351
 42.7036  7957.02  87.7652
 42.7456  7916.81  87.9027
 42.7876  7948.06  88.1743
 42.8296  8000.54  88.297
 42.8716  7843.47  87.5862
 42.9136  7922.81  87.815
 42.9556  7942.15  88.0567
 42.9976  8035.39  88.5288
 43.0396  7885  87.4317
 43.0816  7929.92  88.0602
 43.1236  7869.28  87.7837
 43.1656  7875.48  87.6483
 43.2076  7842.55  87.5727
 43.2496  7875.47  87.5626
 43.2916  7803.07  87.5278
 43.3336  7952.25  88.1912
 43.3756  7895.94  87.6369
 43.4176  7750.79  86.9091
 43.4596  7777.92  86.911
 43.5016  7813.51  87.5203
 43.5436  7926.18  88.0521
 43.5856  7835.3  87.571
 43.6276  7761.79  87.0508
 43.6696  7743.31  87.2087
 43.7116  7905.27  87.6075
 43.7536  7795.8  87.4895
 43.7956  7741.37  88.3916
 43.8376  7753.45  86.976
 43.8796  7678.94  86.6361
 43.9216  7797.02  87.2211
 43.9636  7813.82  87.4251
 44.0056  7724.45  87.1503
 44.0476  7734.37  86.8401
 44.0896  7569.05  86.246
 44.1316  7768.61  86.8959
 44.1736  7777.03  87.0689
 44.2156  7731.16  86.6579
 44.2576  7606.72  86.2907
 44.2996  7685.68  86.7038
 44.3416  7728.09  86.7015
 44.3836  7524.4  85.8777
 44.4256  7508.82  85.4401
 44.4676  7491.27  85.4946
 44.5096  7713.96  86.9014
 44.5516  7558.75  85.985
 44.5936  7508.16  85.6494
 44.6356  7531.43  85.5222
 44.6776  7589  86.167
 44.7196  7518.3  86.0755
 44.7616  7645.21  88.1319
 44.8036  7559.29  86.0673
 44.8456  7545.36  86.196
 44.8876  7610.28  86.4131
 44.9296  7626.47  85.9499
 44.9716  7566.17  86.0499
 45.0136  7654.71  86.4814
 45.0556  7636.78  86.3539
 45.0976  7595.06  86.2868
 45.1396  7371.29  84.7678
 45.1816  7468.95  85.2509
 45.2236  7572.89  85.7496
 45.2656  7471.41  85.6658
 45.3076  7509.98  85.6784
 45.3496  7470.19  85.7519
 45.3916  7540.12  86.4216
 45.4336  7487.49  85.9711
 45.4756  7464.42  85.6927
 45.5176  7521.89  85.6346
 45.5596  7610.54  86.2623
 45.6016  7493.07  86.0097
 45.6436  7570.88  85.6306
 45.6856  7351.39  85.0291
 45.7276  7340.25  86.2694
 45.7696  7392.94  86.2538
 45.8116  7502.39  86.3086
 45.8536  7352.71  85.3557
 45.8956  7542.32  85.7935
 45.9376  7460.02  84.789
 45.9796  7441.99  85.368
 46.0216  7366.94  85.2831
 46.0636  7466.94  85.0034
 46.1056  7392.92  84.5623
 46.1476  7427.68  85.3564
 46.1896  7415.78  85.4366
 46.2316  7404.65  85.2422
 46.2736  7246.58  84.6942
 46.3156  7496.08  85.7221
 46.3576  7370.75  85.2049
 46.3996  7324.44  85.0948
 46.4416  7487.72  85.6103
 46.4836  7304.81  84.9145
 46.5256  7448.18  85.6808
 46.5676  7208.15  84.4046
 46.6096  7381.88  85.3427
 46.6516  7411.96  84.5639
 46.6936  7511.5  85.6276
 46.7356  7410.91  85.1509
 46.7776  7294.46  85.3254
 46.8196  7328.53  85.1217
 46.8616  7175.09  84.164
 46.9036  7167.8  83.7858
 46.9456  7280.38  84.0844
 46.9876  7351.84  84.5794
 47.0296  7218.69  84.4953
 47.0716  7240.99  84.4478
 47.1136  7245.03  84.1553
 47.1556  7225.68  83.9054
 47.1976  7336.89  84.6297
 47.2396  7113.7  83.7218
 47.2816  7121.7  83.477
 47.3236  7169.89  84.1272
 47.3656  7298.82  84.8066
 47.4076  7223.2  84.1721
 47.4496  7201.06  84.136
 47.4916  7164.59  84.1114
 47.5336  7345.9  84.9806
 47.5756  7275.43  84.6944
 47.6176  7098.69  83.5491
 47.6596  7117.82  83.384
 47.7016  7336.12  84.4732
 47.7436  7274.5  84.4499
 47.7856  7376.37  85.07
 47.8276  7212.15  84.1555
 47.8696  7174.5  84.0399
 47.9116  7287.34  84.4039
 47.9536  7216.13  83.9304
 47.9956  7097.9  83.9446
 48.0376  7158.47  84.0746
 48.0796  7153.42  84.1747
 48.1216  7289.93  84.7838
 48.1636  7282.14  84.3246
 48.2056  7211.7  84.1741
 48.2476  7199.15  84.4127
 48.2896  7344.77  85.1712
 48.3316  7107.4  83.722
 48.3736  7024.74  83.2565
 48.4156  7117.25  83.6541
 48.4576  7079.33  83.7237
 48.4996  7153.77  83.6205
 48.5416  7185.45  84.137
 48.5836  7093.09  83.2625
 48.6256  7138.33  83.7445
 48.6676  7138.08  84.2544
 48.7096  7151.72  83.5951
 48.7516  7076.85  83.3093
 48.7936  7011.58  82.9854
 48.8356  7058.05  83.3107
 48.8776  6995.95  83.5046
 48.9196  7231.34  84.278
 48.9616  7011.49  83.3562
 49.0036  7025.1  83.7881
 49.0456  7030.41  83.7887
 49.0876  7028.45  83.322
 49.1296  6870.14  82.5439
 49.1716  6921.53  82.7148
 49.2136  6897.97  82.5105
 49.2556  7069.67  83.5582
 49.2976  6981.99  83.1093
 49.3396  6959.48  83.0286
 49.3816  7143.65  83.5477
 49.4236  6963.53  82.9104
 49.4656  6825.05  82.0974
 49.5076  6998.25  82.885
 49.5496  6893.24  82.3198
 49.5916  6931.68  82.4695
 49.6336  7013.35  83.1619
 49.6756  6989.29  83.2525
 49.7176  6966.88  83.0543
 49.7596  6893.08  82.386
 49.8016  6945.2  82.6091
 49.8436  6888.87  82.5709
 49.8856  6924.62  82.7905
 49.9276  6805.18  82.171
 49.9696  6852.7  82.4422
 50.0116  6911.72  82.9329
 50.0536  6897.77  82.7945
 50.0956  6901.39  82.879
 50.1376  6924.1  82.7196
 50.1796  6805.65  82.2725
 50.2216  6887.41  82.7667
 50.2636  6763.64  81.6418
 50.3056  6794.14  81.9934
 50.3476  6860.71  82.4162
 50.3896  6764.4  81.8104
 50.4316  6859.03  82.2174
 50.4736  6816.76  82.18
 50.5156  6866.24  82.4636
 50.5576  6827.09  81.983
 50.5996  6783.61  82.0096
 50.6416  6790.13  81.9778
 50.6836  6815.33  82.1894
 50.7256  6815.21  82.1222
 50.7676  6729.59  81.9079
 50.8096  6806.89  81.9186
 50.8516  6663.63  81.4612
 50.8936  6784.07  81.974
 50.9356  6872.45  82.6175
 50.9776  6762.11  82.0984
 51.0196  6716.05  81.9461
 51.0616  6702.38  81.1882
 51.1036  6898.21  82.7263
 51.1456  6779.1  81.9206
 51.1876  6607.36  80.2333
 51.2296  6694.26  81.3739
 51.2716  6752.94  81.4524
 51.3136  6680.15  81.4634
 51.3556  6796.23  81.7922
 51.3976  6676.87  81.2213
 51.4396  6450.84  80.1339
 51.4816  6542.96  80.5513
 51.5236  6714.58  81.6863
 51.5656  6598.74  80.5944
 51.6076  6585.49  80.5907
 51.6496  6685.27  81.3942
 51.6916  6620.65  81.3506
 51.7336  6670.48  81.7503
 51.7756  6601.56  81.0233
 51.8176  6698.94  81.7274
 51.8596  6678.62  81.6194
 51.9016  6857.99  82.3125
 51.9436  6612.32  82.2483
 51.9856  6630.99  82.8238
 52.0276  6616.57  81.2579
 52.0696  6615.3  81.316
 52.1116  6568.36  81.1332
 52.1536  6643.72  81.491
 52.1956  6665.95  81.0926
 52.2376  6813.5  82.159
 52.2796  6628.2  80.8399
 52.3216  6473.44  80.5817
 52.3636  6505.33  80.3607
 52.4056  6550.45  80.4968
 52.4476  6549.9  80.8584
 52.4896  6537.81  80.8358
 52.5316  6486.04  80.5629
 52.5736  6501.47  80.3746
 52.6156  6499.06  80.7409
 52.6576  6659.33  81.1766
 52.6996  6359.68  80.2792
 52.7416  6598.86  81.6319
 52.7836  6618.49  81.6372
 52.8256  6585.13  80.6484
 52.8676  6365.58  79.8703
 52.9096  6579.2  81.2831
 52.9516  6488.83  81.0837
 52.9936  6411.67  80.9882
 53.0356  6479.8  80.4234
 53.0776  6387.96  80.1119
 53.1196  6462.12  80.7009
 53.1616  6357.36  80.0913
 53.2036  6346.08  79.9755
 53.2456  6396.42  80.3932
 53.2876  6403.23  80.1431
 53.3296  6307.68  79.8645
 53.3716  6426.16  80.3561
 53.4136  6372.78  80.1694
 53.4556  6312.69  79.824
 53.4976  6321.75  79.7297
 53.5396  6379.67  80.4814
 53.5816  6336.37  79.85
 53.6236  6233.95  79.532
 53.6656  6458.49  80.5812
 53.7076  6449.25  80.4865
 53.7496  6426.68  80.4658
 53.7916  6507.36  81.0967
 53.8336  6298.61  79.6864
 53.8756  6239.17  79.8493
 53.9176  6398.12  80.2083
 53.9596  6407.9  81.0344
 54.0016  6365.23  80.0976
 54.0436  6346.33  80.1944
 54.0856  6297.4  79.3186
 54.1276  6369.47  79.9721
 54.1696  6360.6  80.0845
 54.2116  6402.17  80.1052
 54.2536  6343.95  79.554
 54.2956  6343.55  79.5939
 54.3376  6388.24  80.3602
 54.3796  6285  79.6036
 54.4216  6546.24  81.2901
 54.4636  6351.2  80.0338
 54.5056  6390.32  80.1014
 54.5476  6353.48  80.2025
 54.5896  6346.56  79.9963
 54.6316  6303.92  79.5807
 54.6736  6415.39  80.3557
 54.7156  6304.8  79.6785
 54.7576  6324.04  79.798
 54.7996  6349.42  80.0967
 54.8416  6339.65  80.0877
 54.8836  6251.97  79.6464
 54.9256  6243.46  79.3409
 54.9676  6323.31  79.6945
 55.0096  6355.55  79.9727
 55.0516  6357.03  80.2175
 55.0936  6333.22  79.6927
 55.1356  6262.23  79.2877
 55.1776  6186.36  79.0765
 55.2196  6425.12  80.3648
 55.2616  6257.33  79.523
 55.3036  6196.97  79.2937
 55.3456  6263.23  79.8696
 55.3876  6308.87  79.8977
 55.4296  6238.75  79.4308
 55.4716  6281.07  79.7384
 55.5136  6298.15  79.5984
 55.5556  6311.14  79.7577
 55.5976  6272.21  79.5662
 55.6396  6236.65  79.2906
 55.6816  6321.92  79.7024
 55.7236  6259.71  79.3527
 55.7656  6288.98  79.2938
 55.8076  6346.84  79.6404
 55.8496  6239.67  79.2884
 55.8916  6195.18  79.2057
 55.9336  6269.87  79.5049
 55.9756  6229.42  79.1348
 56.0176  6282.43  79.6227
 56.0596  6321.35  79.8559
 56.1016  6252.56  79.4194
 56.1436  6203.92  79.3752
 56.1856  6310.08  79.7949
 56.2276  6210.04  79.2183
 56.2696  6150.46  78.8066
 56.3116  6198.85  79.5236
 56.3536  6264.16  79.5958
 56.3956  6292.93  79.7699
 56.4376  6238.89  79.4579
 56.4796  6303.13  79.6608
 56.5216  6180.43  79.2521
 56.5636  6291.69  79.5579
 56.6056  6208.48  79.2626
 56.6476  6124.53  78.3586
 56.6896  6233.95  79.5043
 56.7316  6170.98  79.012
 56.7736  6205.54  79.2215
 56.8156  6215.53  79.2904
 56.8576  6196.34  79.1098
 56.8996  6311.51  79.7807
 56.9416  6206.97  79.4152
 56.9836  6153.28  78.5904
 57.0256  6169.18  79.008
 57.0676  6193.33  79.2839
 57.1096  6236.07  79.3455
 57.1516  6261.66  79.5768
 57.1936  6147.69  78.5934
 57.2356  6207.57  79.2924
 57.2776  6270.4  79.6557
 57.3196  6232.02  79.7784
 57.3616  6191.58  79.0131
 57.4036  6305.18  79.7965
 57.4456  6186.77  79.0128
 57.4876  6222.23  79.0969
 57.5296  6203.57  79.3178
 57.5716  6230.42  79.4784
 57.6136  6187.08  79.0189
 57.6556  6210.95  79.3045
 57.6976  6291.09  79.6394
 57.7396  6125.92  78.9637
 57.7816  6102.87  79.17
 57.8236  6127.72  79.1252
 57.8656  6188.26  79.1734
 57.9076  6215.56  79.377
 57.9496  6160.87  79.3724
 57.9916  6172.34  78.9623
 58.0336  6113.24  78.8555
 58.0756  6266.94  79.4777
 58.1176  6160.75  78.7965
 58.1596  6159.42  79.3421
 58.2016  6250.74  79.1555
 58.2436  6235.16  79.4725
 58.2856  6185.32  79.0728
 58.3276  6234.19  79.7612
 58.3696  6182.9  79.1794
 58.4116  6097.46  78.4868
 58.4536  6180.75  78.9141
 58.4956  6066.99  78.3667
 58.5376  6249.17  79.1003
 58.5796  6161.63  78.9634
 58.6216  6197.2  79.005
 58.6636  6259.35  79.6216
 58.7056  6315.51  79.8341
 58.7476  6175.32  79.3927
 58.7896  6092.34  78.5012
 58.8316  6225.66  79.3492
 58.8736  6253.79  79.5267
 58.9156  6168.58  79.0351
 58.9576  6227.57  79.7401
 58.9996  6320.63  79.5596
 59.0416  6423.85  80.5752
 59.0836  6328.94  79.9131
 59.1256  6090.29  79.0902
 59.1676  6099.97  79.4448
 59.2096  6290.93  79.9984
 59.2516  6292.16  79.5786
 59.2936  6204.08  79.3522
 59.3356  6218.56  79.3207
 59.3776  6231.12  79.5724
 59.4196  6181.94  79.1882
 59.4616  6236.01  79.3963
 59.5036  6152.35  78.8967
 59.5456  6259.62  79.2702
 59.5876  6278.56  79.5849
 59.6296  6092.33  78.4653
 59.6716  6198.88  79.2072
 59.7136  6304.5  79.8671
 59.7556  6193.92  79.3018
 59.7976  6088.21  78.3633
 59.8396  6242.89  79.245
 59.8816  6110.33  78.948
 59.9236  6275.03  79.6414
 59.9656  6152.81  79.1245
 60.0076  6403.76  80.0609
 60.0496  6152.04  78.9798
 60.0916  6279.51  79.2008
 60.1336  6190.82  79.7606
 60.1756  6204.29  81.0476
 60.1996  0.0000000E+00  0.0000000E+00