File: docs/examples/opeando_xrd/IS17_D/Data/IS17_D/17_Db_f00044.xye
# /beamlines/bl04/projects/cycle2025-II/20250340211-lsimonelli/DATA/IS17_D/17_Db_f00044.xye : mythproc.py merge -s 0.006 -l 0.5 -f /beamlines/bl04/inhouse/ff/FlatField/ff_20Nov2024rod8mm60s_17keV.raw -b True -c true -o xye /beamlines/bl04/projects/cycle2025-II/20250340211-lsimonelli/DATA/IS17_D/17_Db_00044.dat
# IsMon = [6739669, 6741153, 6739099]  IsPos = [-1.5000, -2.4885, -3.4988]
# Wave = 0.4962  CalPath /beamlines/bl04/projects/cycle2025-II/20250340211-lsimonelli/DATA/Align/Si_Pos1_25keV_f00001.cal
# Date = 2025-09-24_05:56:05 Dt = 4.8000  Bin = 0.0060  <imon> = 6739974 +/- 866 (Min/Max) 6739099 / 6741153
# icurr 248.7371  mocoIn 1.6972E-05  mocoOut 0.7958  i15 7.06216e+06  imon 6.73997e+06  i7 5.3333  iEMpd_timer 4.8000  iEMpd_1 3.4722E-08  iEMpd_2 7.9005E-08  iEMpd_3 1.6334E-08  iEMpd_4 4.8953E-08  iEMhp_timer 4.8000  iEMhp_1 4.8606E-06  iEMhp_2 -2.4607E-08  iEMhp_3 -2.3562E-08  iEMhp_4 -2.0036E-08
#      9776
 1.5856  44687  217.072
 1.6276  51655.4  229.379
 1.6696  57325.6  240.789
 1.7116  64338.6  255.591
 1.7536  73189.2  271.444
 1.7956  76895.9  278.928
 1.8376  73777.9  273.647
 1.8796  63272.3  251.559
 1.9216  52633.2  230.345
 1.9636  45540.9  213.926
 2.0056  41736.4  203.486
 2.0476  38945.3  198.72
 2.0896  37565.9  194.024
 2.1316  36492.8  190.314
 2.1736  34873.2  187.518
 2.2156  35517.4  187.724
 2.2576  34110.1  184.627
 2.2996  33288  183.057
 2.3416  33236.1  181.456
 2.3836  33300.2  181.742
 2.4256  31367.2  176.963
 2.4676  31323.8  176.589
 2.5096  31101.4  176.019
 2.5516  29797.9  176.243
 2.5936  29875.7  172.931
 2.6356  29056.4  171.254
 2.6776  29087.8  170.223
 2.7196  28784  169.836
 2.7616  28819.6  169.721
 2.8036  28198.8  168.054
 2.8456  28275.9  168.941
 2.8876  27674.7  166.961
 2.9296  27020.5  165.146
 2.9716  26668  163.542
 3.0136  26275.5  162.401
 3.0556  26621.6  163.863
 3.0976  26726.6  163.061
 3.1396  26090.5  161.839
 3.1816  25955.1  161.379
 3.2236  25842.7  161.026
 3.2656  25522.9  159.037
 3.3076  25357.2  160.029
 3.3496  25560  159.807
 3.3916  25721.7  159.886
 3.4336  26346.4  162.419
 3.4756  26518.3  162.884
 3.5176  27403  165.34
 3.5596  26653.1  166.127
 3.6016  26951.6  164.053
 3.6436  26093.6  162.545
 3.6856  25913  160.248
 3.7276  24705  157.56
 3.7696  24571.6  157.127
 3.8116  24333.9  156.457
 3.8536  24312.4  156.323
 3.8956  24134.7  155.559
 3.9376  24022.8  155.478
 3.9796  23996.3  154.878
 4.0216  23968.7  153.806
 4.0636  23882.5  155.014
 4.1056  23674.7  153.99
 4.1476  24293.3  156.308
 4.1896  24229.4  155.958
 4.2316  24316.9  156.068
 4.2736  24727  157.171
 4.3156  24824.2  157.716
 4.3576  25667.1  160.269
 4.3996  25833.4  161.062
 4.4416  26352.8  162.258
 4.4836  26816.4  163.837
 4.5256  27259.6  165.805
 4.5676  27322.7  166.253
 4.6096  27609  166.134
 4.6516  27936.8  166.44
 4.6936  28098.6  167.764
 4.7356  28321.1  168.246
 4.7776  28196.7  167.703
 4.8196  28067.1  167.976
 4.8616  27477.4  165.816
 4.9036  27327.7  164.958
 4.9456  27057.1  164.804
 4.9876  26310.4  162.412
 5.0296  26885.7  164.012
 5.0716  26637.4  163.873
 5.1136  26760.4  164.111
 5.1556  26842.1  163.814
 5.1976  27548  165.954
 5.2396  27396.4  165.181
 5.2816  27492.1  165.947
 5.3236  27509.8  165.699
 5.3656  27036.8  165.2
 5.4076  26676.1  164.236
 5.4496  26868  164.321
 5.4916  26693.7  163.536
 5.5336  26764.9  163.765
 5.5756  26875.5  164.119
 5.6176  26927.5  163.723
 5.6596  27154.8  165.233
 5.7016  27156.3  164.656
 5.7436  27402.5  165.683
 5.7856  27046.9  164.671
 5.8276  27427.6  165.538
 5.8696  27744.6  166.548
 5.9116  27372  166.142
 5.9536  27854  167.341
 5.9956  28084  167.416
 6.0376  28038.5  167.897
 6.0796  28400.6  168.812
 6.1216  28184.5  168.37
 6.1636  28451.5  168.218
 6.2056  28388.1  168.711
 6.2476  29054.5  170.364
 6.2896  28970.2  169.983
 6.3316  28923.1  170.011
 6.3736  29057.9  170.304
 6.4156  29173.5  170.578
 6.4576  29253  170.383
 6.4996  29236.5  170.812
 6.5416  29367.5  171.326
 6.5836  29289.7  171.327
 6.6256  29511.3  171.539
 6.6676  30076.3  172.734
 6.7096  30084.5  173.623
 6.7516  30357.2  174.065
 6.7936  30592  174.141
 6.8356  30647  174.393
 6.8776  30753.1  175.499
 6.9196  30848.3  176.167
 6.9616  31308.5  176.89
 7.0036  31695.5  177.661
 7.0456  31939.1  177.639
 7.0876  32177.6  179.91
 7.1296  31742.7  177.912
 7.1716  31640.7  177.171
 7.2136  31553.5  176.7
 7.2556  31724.9  177.342
 7.2976  31645.9  177.615
 7.3396  31589.7  177.67
 7.3816  31754  178.356
 7.4236  31988.5  178.302
 7.4656  32012.6  177.83
 7.5076  32353.1  178.923
 7.5496  32021.7  178.541
 7.5916  32295.6  179.353
 7.6336  32675.4  180.292
 7.6756  32586  179.895
 7.7176  33296.7  182.166
 7.7596  32966.6  182.493
 7.8016  33591.1  186.442
 7.8436  33439.9  182.683
 7.8856  33092.3  181.335
 7.9276  33817.6  183.719
 7.9696  34303.1  185.337
 8.0116  35517.4  187.132
 8.0536  35418.1  187.123
 8.0956  35468.7  188.424
 8.1376  35593.4  188.235
 8.1796  35935  189.665
 8.2216  36422.2  189.696
 8.2636  36584  190.373
 8.3056  36749.9  191.577
 8.3476  37086  191.761
 8.3896  36894.1  191.356
 8.4316  36963.7  191.705
 8.4736  37203.7  191.796
 8.5156  36996  191.536
 8.5576  36545.3  191.317
 8.5996  36390.8  189.81
 8.6416  36340.7  190.923
 8.6836  36241.5  190.507
 8.7256  36842  191.513
 8.7676  36500.2  193.54
 8.8096  36781  191.592
 8.8516  36861.1  191.426
 8.8936  36259.1  189.756
 8.9356  36722.9  191.294
 8.9776  36626.5  191.129
 9.0196  36574.5  190.658
 9.0616  36459.6  189.863
 9.1036  35553  188.65
 9.1456  35431  187.665
 9.1876  35903.4  188.842
 9.2296  35457.1  187.118
 9.2716  35153.5  186.341
 9.3136  35216.2  186.511
 9.3556  35708.2  187.787
 9.3976  34543.4  185.205
 9.4396  34341.6  184.573
 9.4816  34420.3  184.644
 9.5236  33965  183.328
 9.5656  33918.3  183.547
 9.6076  33190.1  182.091
 9.6496  33600.7  183.098
 9.6916  32958  181.296
 9.7336  33442.3  182.411
 9.7756  33160  182.841
 9.8176  32824.2  181.461
 9.8596  32846.8  179.976
 9.9016  32469  178.931
 9.9436  31814.5  176.855
 9.9856  31970.1  177.729
 10.0276  31393  177.189
 10.0696  31512  176.557
 10.1116  30765.8  174.721
 10.1536  30922.7  174.832
 10.1956  30287.6  173.124
 10.2376  30180  172.336
 10.2796  30088  172.168
 10.3216  29556  170.764
 10.3636  29328.2  170.305
 10.4056  28796.6  169.144
 10.4476  28905.1  169.086
 10.4896  29161.6  169.282
 10.5316  28816.3  168.665
 10.5736  28124  167.363
 10.6156  28370.8  167.855
 10.6576  28060.9  165.518
 10.6996  27645.8  164.98
 10.7416  27412.2  164.494
 10.7836  27083.6  164.165
 10.8256  26726.6  163.497
 10.8676  26607.2  162.685
 10.9096  26481.9  162.339
 10.9516  26395.7  161.027
 10.9936  26500  161.56
 11.0356  26156.2  161.106
 11.0776  25954.5  159.826
 11.1196  25508.8  159.199
 11.1616  25244.3  158.051
 11.2036  25467.5  158.597
 11.2456  25280.9  158.703
 11.2876  25573.5  159.352
 11.3296  25019.7  157.535
 11.3716  25279.9  158.088
 11.4136  25143.4  158.487
 11.4556  24926.8  157.471
 11.4976  25338.3  157.778
 11.5396  25186  157.466
 11.5816  26157.9  160.903
 11.6236  26298.1  161.798
 11.6656  27228.6  163.547
 11.7076  26122.7  161.03
 11.7496  25609.7  163.461
 11.7916  25339.6  157.857
 11.8336  24449.4  155.966
 11.8756  24222.5  154.768
 11.9176  24452.5  155.173
 11.9596  24499.9  155.498
 12.0016  24362.8  155.825
 12.0436  24220.6  154.829
 12.0856  24002.2  154.63
 12.1276  23899.5  154.244
 12.1696  23975.9  153.615
 12.2116  23875.6  153.29
 12.2536  23721.2  153.578
 12.2956  23680  152.817
 12.3376  23943.2  153.871
 12.3796  23721.3  153.638
 12.4216  23878.8  153.346
 12.4636  23283.6  152.343
 12.5056  23803.9  153.304
 12.5476  23600.5  152.166
 12.5896  23511.3  152.516
 12.6316  23727.4  153.368
 12.6736  23326  152.55
 12.7156  23558.8  153.138
 12.7576  23550  153.365
 12.7996  23606.3  152.198
 12.8416  23411.5  152.618
 12.8836  23833.7  153.822
 12.9256  24110.6  153.742
 12.9676  23865.4  153.359
 13.0096  24082.1  155.169
 13.0516  24084.3  154.209
 13.0936  24188  154.662
 13.1356  24589.1  155.19
 13.1776  24331.1  155.39
 13.2196  24608.6  155.909
 13.2616  24252.7  155.098
 13.3036  24682.5  156.605
 13.3456  24321.4  155.424
 13.3876  24965.8  156.954
 13.4296  24466.4  155.535
 13.4716  24442.7  155.086
 13.5136  24292.1  154.734
 13.5556  24203.7  155.083
 13.5976  24481.4  156.14
 13.6396  24382.4  155.183
 13.6816  24584  156.172
 13.7236  24837.1  156.674
 13.7656  26437  162.11
 13.8076  27198.5  163.08
 13.8496  25692.6  159.356
 13.8916  24768.4  157.394
 13.9336  24015.9  154.268
 13.9756  24002.6  153.598
 14.0176  23688.6  153.272
 14.0596  23870.2  153.781
 14.1016  23457.3  152.871
 14.1436  23800.7  153.113
 14.1856  23161.8  151.338
 14.2276  23089.5  151.587
 14.2696  23124.1  151.55
 14.3116  22555.5  149.584
 14.3536  22382.3  149.173
 14.3956  22347.9  148.783
 14.4376  22639.7  149.535
 14.4796  22324.3  148.487
 14.5216  22082.5  148.465
 14.5636  21833.9  147.205
 14.6056  22002.1  147.327
 14.6476  22093  146.884
 14.6896  21595.1  145.759
 14.7316  21392  146.107
 14.7736  21139.1  144.381
 14.8156  20928.3  143.686
 14.8576  21006.6  143.813
 14.8996  20655  143.792
 14.9416  20261.1  142.431
 14.9836  20190.8  142.167
 15.0256  19681.1  139.282
 15.0676  19567.9  139.188
 15.1096  19574.3  138.952
 15.1516  19233.9  138.287
 15.1936  19187.9  137.554
 15.2356  18812.9  136.483
 15.2776  18854.3  136.226
 15.3196  18560.8  136.143
 15.3616  18399.4  135.317
 15.4036  18378.7  135.097
 15.4456  18774.1  136.192
 15.4876  18234.7  133.912
 15.5296  18260.5  134.285
 15.5716  18059.8  133.155
 15.6136  17771.9  132.407
 15.6556  18050.1  132.69
 15.6976  17745  131.64
 15.7396  17577.3  131.618
 15.7816  17566.4  131.086
 15.8236  17244.1  130.566
 15.8656  17258.2  130.415
 15.9076  17400.6  130.772
 15.9496  17826.3  135.176
 15.9916  17543  134.502
 16.0336  17561.8  131.462
 16.0756  17323.9  130.888
 16.1176  17158.4  130.175
 16.1596  16747.1  129.93
 16.2016  16743  128.691
 16.2436  16755.7  129.115
 16.2856  16856.6  129.027
 16.3276  16333.2  127.441
 16.3696  16589.4  128.251
 16.4116  16520.1  128.442
 16.4536  16565.7  128.413
 16.4956  16481.7  127.822
 16.5376  16281.4  127.234
 16.5796  16311.9  126.715
 16.6216  16269.7  126.82
 16.6636  16048.5  126.141
 16.7056  16178  126.517
 16.7476  16269.5  126.398
 16.7896  16200  126.876
 16.8316  15985  126.009
 16.8736  16278.2  127.397
 16.9156  16105.4  127.054
 16.9576  15946  127.207
 16.9996  15945.9  127.681
 17.0416  16225.3  127.168
 17.0836  16080.3  126.363
 17.1256  16022  126.135
 17.1676  16099.8  126.409
 17.2096  15944.5  125.689
 17.2516  16181  126.715
 17.2936  16130.3  126.563
 17.3356  15733.2  124.983
 17.3776  15403.2  123.843
 17.4196  15595.2  124.318
 17.4616  15574.9  124.14
 17.5036  15106  122.62
 17.5456  15218.8  123.701
 17.5876  15020.4  121.961
 17.6296  15190.5  122.464
 17.6716  14978.2  122.197
 17.7136  14813.4  121.645
 17.7556  14910.3  122.335
 17.7976  14511.1  120.292
 17.8396  14430.6  119.612
 17.8816  14397.8  120.024
 17.9236  14573.8  120.542
 17.9656  14376  120.418
 18.0076  14334.1  119.679
 18.0496  14389.7  119.048
 18.0916  14272  119.094
 18.1336  14239.6  119.061
 18.1756  14374.3  119.18
 18.2176  13941.6  117.578
 18.2596  13916.5  117.204
 18.3016  14159.8  118.485
 18.3436  14129.2  118.598
 18.3856  14009.8  117.989
 18.4276  13984.5  117.571
 18.4696  13864.6  117.154
 18.5116  13955.3  117.805
 18.5536  13939.4  118.097
 18.5956  13832.7  117.208
 18.6376  13864.3  117.739
 18.6796  13822.8  116.895
 18.7216  13845.8  117.534
 18.7636  13807.2  117.309
 18.8056  13660.2  116.603
 18.8476  13487  116.491
 18.8896  13758.3  116.988
 18.9316  13744.8  116.755
 18.9736  13701.4  116.438
 19.0156  13584.5  116.344
 19.0576  13830  116.253
 19.0996  13844.5  117.019
 19.1416  13680.9  116.72
 19.1836  13602.3  115.991
 19.2256  13612.5  116.249
 19.2676  13683.6  116.633
 19.3096  13601.5  116.538
 19.3516  13561.7  116.14
 19.3936  13564.5  116.233
 19.4356  13805.5  117.142
 19.4776  13533.4  116.069
 19.5196  13642.4  116.391
 19.5616  13462.5  115.875
 19.6036  13423.5  115.219
 19.6456  13437.1  115.389
 19.6876  13498.5  115.296
 19.7296  13661.5  116.44
 19.7716  13502.4  115.793
 19.8136  13763.9  117.246
 19.8556  13769.7  116.761
 19.8976  13530  115.789
 19.9396  13711.4  116.163
 19.9816  13661.7  116.201
 20.0236  13793.4  116.944
 20.0656  13937  117.556
 20.1076  14163  118.982
 20.1496  14292  119.518
 20.1916  14654.6  120.486
 20.2336  14705.3  120.661
 20.2756  14529  120.383
 20.3176  14235.9  118.905
 20.3596  13996.9  117.889
 20.4016  13901.1  117.279
 20.4436  13663  116.848
 20.4856  13695.5  116.765
 20.5276  13399.9  115.961
 20.5696  13327.7  115.2
 20.6116  13358  115.51
 20.6536  13258.6  114.639
 20.6956  13170.5  114.336
 20.7376  13089.7  114.194
 20.7796  12920.9  113.15
 20.8216  13164.1  113.93
 20.8636  13100.6  114.026
 20.9056  13020.8  113.617
 20.9476  13021.6  113.466
 20.9896  13134.6  113.824
 21.0316  13087.4  113.52
 21.0736  13039.3  113.83
 21.1156  12875.7  113.273
 21.1576  12836.8  113.148
 21.1996  12699.4  112.514
 21.2416  12913  113.282
 21.2836  12953.8  113.442
 21.3256  12878.9  113.183
 21.3676  12955.1  113.067
 21.4096  12685.8  112.252
 21.4516  12622.2  111.781
 21.4936  12534.9  111.659
 21.5356  12784.5  112.716
 21.5776  12829.8  112.746
 21.6196  12677  112.115
 21.6616  12573  111.736
 21.7036  12676.2  111.969
 21.7456  12638.5  111.878
 21.7876  12599.3  111.463
 21.8296  12610.3  111.359
 21.8716  12635.6  111.698
 21.9136  12817.8  112.699
 21.9556  12494.5  110.955
 21.9976  12487.3  110.948
 22.0396  12391.5  110.773
 22.0816  12346  111.096
 22.1236  12573.9  111.572
 22.1656  12439.6  111.17
 22.2076  12274.7  109.844
 22.2496  12236.6  109.696
 22.2916  12262.8  109.704
 22.3336  12155.9  109.916
 22.3756  12227.2  109.982
 22.4176  12180.2  109.619
 22.4596  11997.6  109.381
 22.5016  12120.3  109.449
 22.5436  12239.5  109.863
 22.5856  12621.9  111.81
 22.6276  12631.9  111.983
 22.6696  12378.1  111.213
 22.7116  12261.5  110.198
 22.7536  12354.8  110.598
 22.7956  12281.8  109.611
 22.8376  12084.3  109.242
 22.8796  12224.5  109.672
 22.9216  12301  110.558
 22.9636  12263.4  109.541
 23.0056  12146.5  109.157
 23.0476  12284.6  110.342
 23.0896  12504.8  110.706
 23.1316  12377.9  110.575
 23.1736  12314.6  113.202
 23.2156  12501.4  111.458
 23.2576  12585  111.957
 23.2996  12475.2  111.248
 23.3416  12852.5  113.447
 23.3836  12589.6  111.515
 23.4256  12807.8  112.598
 23.4676  12550  111.152
 23.5096  12606.6  112.068
 23.5516  12591.2  111.286
 23.5936  12578.2  112.148
 23.6356  12811.1  112.837
 23.6776  12354.8  111.029
 23.7196  12500.5  111.467
 23.7616  12435.4  110.882
 23.8036  12598.6  111.658
 23.8456  12379.8  110.241
 23.8876  12338.7  110.413
 23.9296  12210.9  110.32
 23.9716  12234.2  109.639
 24.0136  12417.4  111.362
 24.0556  12236.4  110.266
 24.0976  12202.7  109.929
 24.1396  12007.5  111.642
 24.1816  12247.7  111.498
 24.2236  12206.2  110.603
 24.2656  12010.1  109.178
 24.3076  12022  109.507
 24.3496  12033.6  109.434
 24.3916  11863.9  108.715
 24.4336  12012.7  109.595
 24.4756  12005.1  109.447
 24.5176  11729.3  107.81
 24.5596  11881.4  108.84
 24.6016  11622.5  107.742
 24.6436  11882.8  108.443
 24.6856  11726.8  107.476
 24.7276  11562.2  107.037
 24.7696  11511.5  106.906
 24.8116  11479.2  106.936
 24.8536  11586.1  107.438
 24.8956  11415.7  106.38
 24.9376  11387.8  106.422
 24.9796  11397.1  106.584
 25.0216  11276  106.132
 25.0636  11313.8  105.962
 25.1056  11000.3  104.903
 25.1476  11123.1  107.4
 25.1896  11067.2  105.633
 25.2316  11075.4  104.96
 25.2736  11052.9  104.506
 25.3156  10915.6  103.931
 25.3576  11153  105.481
 25.3996  11016.8  104.827
 25.4416  10890.9  104.196
 25.4836  10841.9  104.476
 25.5256  10913  104.19
 25.5676  10799.1  103.378
 25.6096  10755  103.735
 25.6516  10858.7  103.737
 25.6936  10832.2  103.924
 25.7356  10870.7  104.243
 25.7776  10746.3  103.321
 25.8196  10604.6  102.804
 25.8616  10787.5  103.618
 25.9036  10813  103.204
 25.9456  10696.9  103.233
 25.9876  10788.6  103.591
 26.0296  10873.3  103.753
 26.0716  10746.6  103.477
 26.1136  10685.9  103.114
 26.1556  10856.6  103.332
 26.1976  10595.5  102.993
 26.2396  10628.2  102.563
 26.2816  10754.9  103.528
 26.3236  10688.2  103.357
 26.3656  10832.1  103.776
 26.4076  10623.4  102.981
 26.4496  10862.8  103.726
 26.4916  10950.6  104.03
 26.5336  11364.5  106.332
 26.5756  11229  105.577
 26.6176  10771.2  103.427
 26.6596  10787.5  103.809
 26.7016  10660.7  102.955
 26.7436  10814.9  103.834
 26.7856  10548.8  102.535
 26.8276  10545.3  102.483
 26.8696  10634.9  102.785
 26.9116  10463.1  101.896
 26.9536  10403.8  101.655
 26.9956  10240.6  100.886
 27.0376  10335  101.573
 27.0796  10401.2  101.698
 27.1216  10390.9  101.631
 27.1636  10159  100.665
 27.2056  10300.3  101.242
 27.2476  10275.7  101.121
 27.2896  10141.7  100.562
 27.3316  10165.3  100.406
 27.3736  10108.4  100.386
 27.4156  10245.6  100.911
 27.4576  10189.9  100.854
 27.4996  10247.9  100.748
 27.5416  10170.7  100.664
 27.5836  10140.5  100.363
 27.6256  10046.9  100.077
 27.6676  10068.4  100.175
 27.7096  10095.4  100.19
 27.7516  10036.5  100.044
 27.7936  10323.6  101.602
 27.8356  10157.5  100.413
 27.8776  10220.4  100.776
 27.9196  9939.81  99.2427
 27.9616  10083.8  100.16
 28.0036  9953.79  99.4687
 28.0456  9957.37  99.6263
 28.0876  9923.77  99.5461
 28.1296  9907.4  99.3004
 28.1716  10043.5  99.9931
 28.2136  9943.14  99.4633
 28.2556  9837.6  99.0456
 28.2976  9742.43  98.5618
 28.3396  9827.28  98.7839
 28.3816  9891.45  99.0826
 28.4236  9812.64  98.8377
 28.4656  9684.02  98.2303
 28.5076  9780.65  98.358
 28.5496  9758.71  98.4965
 28.5916  9802.75  98.5386
 28.6336  9805.73  98.8924
 28.6756  9722.22  97.6775
 28.7176  9790.48  98.5732
 28.7596  9652.67  97.7724
 28.8016  9635.09  97.716
 28.8436  9534.81  97.4438
 28.8856  9703.39  98.1505
 28.9276  9606.32  97.8922
 28.9696  9659.61  97.828
 29.0116  9433.61  96.8618
 29.0536  9506.56  97.4392
 29.0956  9632.03  97.7906
 29.1376  9528.44  97.2369
 29.1796  9546.83  97.3762
 29.2216  9576.61  97.3712
 29.2636  9618.07  97.5721
 29.3056  9474  96.7039
 29.3476  9632.26  98.0352
 29.3896  9552.67  97.7457
 29.4316  9357.36  96.081
 29.4736  9328.98  95.9999
 29.5156  9427.15  96.4239
 29.5576  9278.17  96.3817
 29.5996  9349.44  96.0234
 29.6416  9250.91  95.6289
 29.6836  9247.09  95.5427
 29.7256  9387.41  96.8231
 29.7676  9267.72  95.8704
 29.8096  9121.83  95.053
 29.8516  9038.52  94.9471
 29.8936  9175.51  95.752
 29.9356  9385.82  96.6025
 29.9776  9258.54  96.0905
 30.0196  9195.28  95.1639
 30.0616  9132.01  95.205
 30.1036  9226.96  95.521
 30.1456  9130.75  95.2584
 30.1876  9176.42  95.4705
 30.2296  9089.29  94.9697
 30.2716  9237.22  95.3805
 30.3136  9343.39  96.7777
 30.3556  9318.41  96.6453
 30.3976  9237.18  97.7209
 30.4396  9515.84  96.5304
 30.4816  9499.96  96.0563
 30.5236  9379.23  95.4441
 30.5656  9504.56  96.7424
 30.6076  9263.73  95.2841
 30.6496  9425.44  96.1618
 30.6916  9237.58  95.2887
 30.7336  9276.37  95.6457
 30.7756  9118.88  94.8973
 30.8176  9202.13  95.26
 30.8596  9439.44  96.2347
 30.9016  9422.96  96.0221
 30.9436  9364.15  95.9522
 30.9856  9417.53  96.329
 31.0276  9296.68  95.3509
 31.0696  9247.11  95.649
 31.1116  9332.92  96.0653
 31.1536  9345.58  96.0069
 31.1956  9235.52  95.5261
 31.2376  9136.46  95.0421
 31.2796  9290.33  95.3629
 31.3216  9325.55  95.4854
 31.3636  9323.51  96.1658
 31.4056  9126.4  96.4551
 31.4476  9309.53  95.3077
 31.4896  9331.04  95.9188
 31.5316  9166.06  94.5195
 31.5736  9281  94.9001
 31.6156  9273.53  94.8645
 31.6576  9228.71  94.7249
 31.6996  9362.27  95.0702
 31.7416  9244.63  95.4105
 31.7836  9282.98  94.7455
 31.8256  9156.64  94.4487
 31.8676  9296.61  95.0882
 31.9096  9108.79  94.337
 31.9516  9042.67  94.3072
 31.9936  8909.17  93.4318
 32.0356  9111.98  94.5367
 32.0776  9055.23  94.14
 32.1196  9243.99  95.1321
 32.1616  9134.12  94.1025
 32.2036  9089.46  94.382
 32.2456  9109.9  94.8642
 32.2876  8937.92  93.3051
 32.3296  9020.22  93.8563
 32.3716  8904.88  93.38
 32.4136  8916.06  93.647
 32.4556  9072.07  93.9018
 32.4976  8934.86  93.0825
 32.5396  8842.58  92.6185
 32.5816  8911.15  93.1042
 32.6236  8942.73  93.3291
 32.6656  8957.56  93.9543
 32.7076  8833.76  92.9599
 32.7496  8918.99  93.0766
 32.7916  8838.77  92.6217
 32.8336  8876.72  92.9058
 32.8756  9023.74  93.4018
 32.9176  8724.93  92.3178
 32.9596  8863.45  93.1209
 33.0016  8826.4  92.6882
 33.0436  8931.24  93.4254
 33.0856  8742.35  92.5212
 33.1276  8714.17  92.1038
 33.1696  8862.2  92.7176
 33.2116  8751.93  92.3699
 33.2536  8967.64  93.4878
 33.2956  8861.77  93.0295
 33.3376  8604.81  91.4936
 33.3796  8907.78  93.225
 33.4216  8757.03  92.0291
 33.4636  8849.67  92.6643
 33.5056  8652.7  91.8679
 33.5476  8821.35  92.7349
 33.5896  8865.17  92.7404
 33.6316  8734.34  92.3824
 33.6736  8684.89  92.3628
 33.7156  8763.14  92.8145
 33.7576  8789.76  92.5953
 33.7996  8835.34  92.5976
 33.8416  8587.34  91.4715
 33.8836  8691.93  91.8032
 33.9256  8880.91  92.8495
 33.9676  8717.37  91.8913
 34.0096  8601.91  91.5924
 34.0516  8562.99  91.0244
 34.0936  8634.06  91.6748
 34.1356  8734.7  91.9478
 34.1776  8492.31  90.6578
 34.2196  8479.46  90.7664
 34.2616  8430.2  90.6388
 34.3036  8613.94  91.8678
 34.3456  8457.86  90.7891
 34.3876  8642.97  91.8433
 34.4296  8636.35  91.4034
 34.4716  8569.17  91.2038
 34.5136  8629.07  91.7104
 34.5556  8490.8  91.2337
 34.5976  8505.41  91.1501
 34.6396  8552.1  91.0864
 34.6816  8639.74  91.6561
 34.7236  8541.41  90.9072
 34.7656  8402.92  90.3809
 34.8076  8361.28  90.4761
 34.8496  8407.37  90.5806
 34.8916  8578.62  91.3558
 34.9336  8502.95  90.938
 34.9756  8629.86  91.5608
 35.0176  8482.37  91.2747
 35.0596  8426.39  90.7953
 35.1016  8455.55  90.7063
 35.1436  8764.43  92.0328
 35.1856  8506.42  90.7952
 35.2276  8423.28  90.5259
 35.2696  8498.66  91.1198
 35.3116  8577.51  91.641
 35.3536  8457.33  90.7368
 35.3956  8435.2  90.302
 35.4376  8521.89  91.3296
 35.4796  8507.29  91.2839
 35.5216  8417.08  90.7711
 35.5636  8102.77  89.7833
 35.6056  8381.27  90.341
 35.6476  8449.92  90.6104
 35.6896  8439.38  90.7215
 35.7316  8344.36  90.1092
 35.7736  8416.24  90.6828
 35.8156  8377.6  90.4684
 35.8576  8318.1  90.3968
 35.8996  8477.28  91.2297
 35.9416  8382.35  90.2211
 35.9836  8222.94  89.8141
 36.0256  8499.95  91.2181
 36.0676  8647.18  91.5253
 36.1096  8380.39  90.4742
 36.1516  8456.98  90.7826
 36.1936  8389.49  90.2555
 36.2356  8320.63  90.5392
 36.2776  8298.37  89.8781
 36.3196  8281.27  89.4674
 36.3616  8363.95  90.0533
 36.4036  8298.03  89.758
 36.4456  8285.87  89.8926
 36.4876  8039.32  88.4942
 36.5296  8227.77  89.5617
 36.5716  8308.43  90.7785
 36.6136  8160.5  88.7629
 36.6556  8094.52  88.6025
 36.6976  7977.45  88.4401
 36.7396  8079.68  88.7384
 36.7816  7912.26  88.186
 36.8236  7998.74  88.588
 36.8656  8071.52  89.0625
 36.9076  7941.15  88.347
 36.9496  7896.59  87.9637
 36.9916  7951.27  87.9025
 37.0336  8143.65  89.2711
 37.0756  8073.14  88.6781
 37.1176  7916.71  88.0747
 37.1596  7824.45  87.5712
 37.2016  7922.32  88.2878
 37.2436  8144.93  88.8814
 37.2856  7938.25  87.9988
 37.3276  7954.64  87.4593
 37.3696  7931.03  88.1969
 37.4116  7958.06  88.2605
 37.4536  7914.31  87.8855
 37.4956  7809.26  87.3485
 37.5376  8072.73  90.3798
 37.5796  8105.17  90.4926
 37.6216  7941.86  87.8677
 37.6636  8034.28  88.2665
 37.7056  8047.82  88.5335
 37.7476  8184.45  88.8183
 37.7896  7931.02  87.9362
 37.8316  7958.67  88.2326
 37.8736  7978.46  87.8865
 37.9156  7979.87  87.8799
 37.9576  7912.39  87.4253
 37.9996  7853.77  86.8147
 38.0416  7860.53  87.6551
 38.0836  8046.82  88.5881
 38.1256  8031.63  88.478
 38.1676  7869.64  87.6953
 38.2096  8025.06  88.167
 38.2516  7941.75  87.9349
 38.2936  8065.65  88.4126
 38.3356  7985.33  87.9072
 38.3776  7953.21  87.9748
 38.4196  7937.32  87.7521
 38.4616  7930.44  87.9538
 38.5036  8012.23  88.2485
 38.5456  7815.53  87.9787
 38.5876  7834.68  88.0962
 38.6296  7873.57  87.2992
 38.6716  7894.71  87.2194
 38.7136  7856.33  86.9566
 38.7556  7795.03  87.1162
 38.7976  7963.83  87.979
 38.8396  7896.94  88.0661
 38.8816  7787.28  87.2468
 38.9236  7992.52  88.1817
 38.9656  7908.31  87.6331
 39.0076  7866.33  86.8077
 39.0496  8024.56  88.2354
 39.0916  7990.79  87.6926
 39.1336  7923.36  87.7301
 39.1756  7948.84  87.9189
 39.2176  7808.47  87.6842
 39.2596  7798.71  87.5553
 39.3016  7923.63  87.8379
 39.3436  7701.53  87.0034
 39.3856  7778.03  86.8739
 39.4276  7978.56  88.5086
 39.4696  7940.49  87.9161
 39.5116  8033.69  88.9491
 39.5536  7983.08  89.0874
 39.5956  7853.07  87.4671
 39.6376  7819.38  87.2916
 39.6796  7842.37  87.1595
 39.7216  7855.12  87.3336
 39.7636  7867.89  87.9673
 39.8056  7885.61  87.8515
 39.8476  7757.12  87.3753
 39.8896  7803.33  87.2746
 39.9316  7846.01  87.7561
 39.9736  7917.57  87.7323
 40.0156  7736.48  86.5592
 40.0576  7813.74  87.3286
 40.0996  7980.79  87.4521
 40.1416  7750.98  86.9642
 40.1836  7898.24  87.6794
 40.2256  7799.02  87.1671
 40.2676  7747.92  87.0527
 40.3096  7908.57  87.803
 40.3516  7910.64  87.9241
 40.3936  7883  87.329
 40.4356  7823.98  87.2062
 40.4776  8022.6  88.5426
 40.5196  7882.48  88.0653
 40.5616  7970.01  88.1927
 40.6036  7806.63  87.5374
 40.6456  7819.72  87.2131
 40.6876  7821.68  87.2209
 40.7296  7816.74  87.3318
 40.7716  8006.11  88.5072
 40.8136  7705.38  86.762
 40.8556  8005.66  88.5826
 40.8976  7932.9  88.0955
 40.9396  7896.56  88.2364
 40.9816  7882.12  87.4565
 41.0236  7914.31  87.4208
 41.0656  7857.57  87.6341
 41.1076  7928.56  87.8049
 41.1496  8103.25  88.6716
 41.1916  7835.92  87.4996
 41.2336  7857.79  87.6265
 41.2756  7914.96  87.5599
 41.3176  7931.34  88.2589
 41.3596  7886.41  87.7454
 41.4016  7779.19  87.4046
 41.4436  7889.85  87.8041
 41.4856  7854.29  87.775
 41.5276  7839.68  87.7106
 41.5696  7846.04  87.3601
 41.6116  7977.07  88.4897
 41.6536  7841.24  87.5971
 41.6956  7975.13  88.3164
 41.7376  7818.07  87.5535
 41.7796  7782.46  87.2885
 41.8216  7885.22  88.04
 41.8636  7841.46  87.7436
 41.9056  7801.69  87.3142
 41.9476  7880.71  87.9874
 41.9896  7898.45  87.7512
 42.0316  7952.03  88.1388
 42.0736  7876.53  87.853
 42.1156  7780.42  87.1206
 42.1576  7870.9  87.7307
 42.1996  7862.21  87.8056
 42.2416  7919.57  87.7233
 42.2836  7768.77  86.9977
 42.3256  7797.45  87.2648
 42.3676  7927  87.7915
 42.4096  7880.28  87.5027
 42.4516  7833.67  87.321
 42.4936  7818.73  87.2901
 42.5356  7679.92  86.6693
 42.5776  7814.83  87.3655
 42.6196  7921.12  88.011
 42.6616  7617.4  86.4806
 42.7036  7707.02  86.3645
 42.7456  7881.79  87.6991
 42.7876  7793.22  87.299
 42.8296  7840.53  87.4024
 42.8716  7747.86  87.0473
 42.9136  7667.48  86.3487
 42.9556  7798.78  87.2521
 42.9976  7837.78  87.4277
 43.0396  7858.34  87.2847
 43.0816  7793.27  87.3046
 43.1236  7615.33  86.3554
 43.1656  7805.1  87.2448
 43.2076  7675.84  86.6343
 43.2496  7660.15  86.3623
 43.2916  7752.38  87.241
 43.3336  7818.33  87.436
 43.3756  7759.24  86.8666
 43.4176  7716.85  86.7151
 43.4596  7691.17  86.43
 43.5016  7665.02  86.6753
 43.5436  7732.75  86.9647
 43.5856  7679.58  86.6986
 43.6276  7688.06  86.63
 43.6696  7609.43  86.3286
 43.7116  7740.01  86.6848
 43.7536  7777.5  87.3878
 43.7956  7521.29  87.1362
 43.8376  7588.42  86.042
 43.8796  7442.32  85.3008
 43.9216  7528.66  85.7123
 43.9636  7511.08  85.7241
 44.0056  7506.9  85.9275
 44.0476  7448.61  85.2303
 44.0896  7582.52  86.3304
 44.1316  7574.68  85.9509
 44.1736  7494.93  85.4776
 44.2156  7621.17  86.0512
 44.2576  7589  86.1938
 44.2996  7478.16  85.5337
 44.3416  7555.78  85.7428
 44.3836  7428.8  85.3304
 44.4256  7446.07  85.0895
 44.4676  7310.87  84.4605
 44.5096  7421.63  85.2446
 44.5516  7395.01  85.0567
 44.5936  7348.48  84.7437
 44.6356  7568.16  85.736
 44.6776  7451.04  85.3849
 44.7196  7459.25  85.739
 44.7616  7574.3  87.7265
 44.8036  7579.57  86.39
 44.8456  7641.52  86.7405
 44.8876  7572.19  86.1851
 44.9296  7635.72  86.0019
 44.9716  7622.75  86.3436
 45.0136  7489.3  85.5413
 45.0556  7504.53  85.7097
 45.0976  7611.2  86.3709
 45.1396  7557.86  85.8076
 45.1816  7513.13  85.4995
 45.2236  7607.92  85.9452
 45.2656  7426.84  85.4137
 45.3076  7484.81  85.5248
 45.3496  7455.5  85.66
 45.3916  7486.07  86.1108
 45.4336  7554.26  86.3447
 45.4756  7532.49  86.0671
 45.5176  7540.48  85.7327
 45.5596  7600.16  86.1878
 45.6016  7470.77  85.881
 45.6436  7496.36  85.1924
 45.6856  7387.37  85.2254
 45.7276  7408.15  86.6589
 45.7696  7400.98  86.3017
 45.8116  7476.04  86.1635
 45.8536  7402.66  85.6293
 45.8956  7451.19  85.2655
 45.9376  7404.68  84.4693
 45.9796  7439.49  85.3659
 46.0216  7506.02  86.0695
 46.0636  7652.79  86.0197
 46.1056  7572.04  85.573
 46.1476  7473.57  85.6077
 46.1896  7472.86  85.762
 46.2316  7443.25  85.4517
 46.2736  7424.25  85.5601
 46.3156  7331.43  84.7706
 46.3576  7428.87  85.5328
 46.3996  7485.42  86.0181
 46.4416  7558.13  85.9821
 46.4836  7399.28  85.4551
 46.5256  7364.91  85.199
 46.5676  7391.84  85.4678
 46.6096  7518.11  86.1095
 46.6516  7463.33  84.8427
 46.6936  7490.76  85.5052
 46.7356  7470.68  85.495
 46.7776  7385.04  85.8501
 46.8196  7352.4  85.3959
 46.8616  7247.76  84.5979
 46.9036  7234.26  84.1768
 46.9456  7285.26  84.1163
 46.9876  7340.29  84.5121
 47.0296  7342.22  85.2077
 47.0716  7350.13  85.0833
 47.1136  7301.64  84.4758
 47.1556  7366.41  84.7168
 47.1976  7431.25  85.2533
 47.2396  7299.23  84.8159
 47.2816  7256.24  84.2588
 47.3236  7364.2  85.2593
 47.3656  7399.37  85.3928
 47.4076  7427.18  85.2745
 47.4496  7319.86  84.8329
 47.4916  7314.28  84.985
 47.5336  7348.58  84.9966
 47.5756  7331.38  85.0215
 47.6176  7232.85  84.3474
 47.6596  7334.16  84.6472
 47.7016  7500.02  85.3959
 47.7436  7431.81  85.3646
 47.7856  7369.03  85.0338
 47.8276  7265.8  84.4787
 47.8696  7324.96  84.9123
 47.9116  7413.24  85.1293
 47.9536  7383.99  84.9033
 47.9956  7220.24  84.6668
 48.0376  7272.42  84.7425
 48.0796  7363.79  85.3977
 48.1216  7301.98  84.8612
 48.1636  7382.5  84.8956
 48.2056  7269.18  84.5118
 48.2476  7475.13  86.0108
 48.2896  7417.4  85.5778
 48.3316  7352.74  85.1595
 48.3736  7409.86  85.5144
 48.4156  7330.82  84.9024
 48.4576  7387.98  85.5323
 48.4996  7423.2  85.1806
 48.5416  7472.98  85.7964
 48.5836  7415.99  85.1415
 48.6256  7301.57  84.6957
 48.6676  7446.56  86.0555
 48.7096  7396.13  85.0204
 48.7516  7310.28  84.674
 48.7936  7163.8  83.8836
 48.8356  7289.05  84.6645
 48.8776  7363.5  85.5948
 48.9196  7420.93  85.3622
 48.9616  7391.92  85.5896
 49.0036  7298.52  85.3984
 49.0456  7263.46  85.1736
 49.0876  7213.06  84.5105
 49.1296  7248.53  84.786
 49.1716  7108.17  83.834
 49.2136  7338.76  85.095
 49.2556  7307.16  84.9506
 49.2976  7411.62  85.6126
 49.3396  7252.12  84.7569
 49.3816  7374.81  84.8851
 49.4236  7321.17  85.0107
 49.4656  7158.6  84.0727
 49.5076  7245.62  84.3335
 49.5496  7215.13  84.2165
 49.5916  7237.71  84.2674
 49.6336  7214.58  84.3391
 49.6756  7445.24  85.9176
 49.7176  7302.01  85.0288
 49.7596  7266  84.5868
 49.8016  7371.9  85.1089
 49.8436  7273.64  84.8474
 49.8856  7185.19  84.3362
 49.9276  7147.81  84.2161
 49.9696  7188.84  84.4414
 50.0116  7222.85  84.7759
 50.0536  7227.39  84.7504
 50.0956  7205.56  84.6874
 50.1376  7192.65  84.3092
 50.1796  7156.09  84.3675
 50.2216  7161.2  84.3818
 50.2636  7189.67  84.1672
 50.3056  7169.76  84.227
 50.3476  7262.86  84.7959
 50.3896  7253.53  84.7159
 50.4316  7173.08  84.0737
 50.4736  7075.07  83.7204
 50.5156  7221.77  84.5782
 50.5576  7275.83  84.6486
 50.5996  7167.57  84.3001
 50.6416  7083.16  83.7239
 50.6836  7223.86  84.6092
 50.7256  7189.89  84.3444
 50.7676  7379.44  85.719
 50.8096  7203.79  84.2718
 50.8516  7146.57  84.3673
 50.8936  7057.8  83.6081
 50.9356  7216.92  84.6571
 50.9776  7150.22  84.4314
 51.0196  7036.53  83.8833
 51.0616  6995.8  82.9548
 51.1036  7164.62  84.3186
 51.1456  7150.58  84.1434
 51.1876  7089.86  83.1126
 51.2296  7006.02  83.2596
 51.2716  6990.15  82.8726
 51.3136  6946.21  83.079
 51.3556  6853.95  82.1444
 51.3976  6846.27  82.25
 51.4396  6975.57  83.3387
 51.4816  6947.24  83.022
 51.5236  7031.42  83.6054
 51.5656  6971.67  82.845
 51.6076  7056.49  83.4307
 51.6496  6985.19  83.206
 51.6916  6925.15  83.2045
 51.7336  6900.32  83.1538
 51.7756  7028.5  83.6008
 51.8176  6913.59  83.0351
 51.8596  7041.79  83.8163
 51.9016  7068.14  83.5714
 51.9436  7139.7  85.5193
 51.9856  6999.91  85.0962
 52.0276  7061.67  83.9327
 52.0696  7088.43  84.1662
 52.1116  6904.68  83.1936
 52.1536  7013.6  83.6756
 52.1956  7021.46  83.2336
 52.2376  7020.55  83.3995
 52.2796  7031.94  83.2806
 52.3216  6891.66  83.1431
 52.3636  6864.77  82.5317
 52.4056  6979.06  83.0858
 52.4476  6920.47  83.0887
 52.4896  6854.06  82.7468
 52.5316  7101.51  84.2869
 52.5736  6752.14  81.9057
 52.6156  7101.78  84.4031
 52.6576  6900.25  82.6148
 52.6996  6773.74  82.8587
 52.7416  6838.76  83.1099
 52.7836  7081.59  84.4591
 52.8256  7004.95  83.1968
 52.8676  6760.78  82.3108
 52.9096  6891.75  83.1807
 52.9516  6937.45  83.8466
 52.9936  6925.09  84.1524
 53.0356  6988.93  83.503
 53.0776  6988.52  83.8074
 53.1196  7141.69  84.8173
 53.1616  7030.49  84.2157
 53.2036  6870.33  83.2093
 53.2456  6875.6  83.3504
 53.2876  6889.69  83.1225
 53.3296  6907.26  83.564
 53.3716  7098.5  84.4499
 53.4136  6928.98  83.5926
 53.4556  6902.95  83.4572
 53.4976  6780.46  82.5587
 53.5396  6871.15  83.5105
 53.5816  6832.53  82.9053
 53.6236  6797.33  83.0463
 53.6656  6952.65  83.5907
 53.7076  7019.71  83.9427
 53.7496  7021.97  84.0956
 53.7916  6883.53  83.4009
 53.8336  6806.2  82.8191
 53.8756  6804.01  83.3694
 53.9176  6819.27  82.792
 53.9596  6702.49  82.8534
 54.0016  6703.13  82.1841
 54.0436  6514.09  81.234
 54.0856  6747.42  82.0919
 54.1276  6609.56  81.4444
 54.1696  6721.81  82.3147
 54.2116  6825.96  82.6775
 54.2536  6640.6  81.3535
 54.2956  6624.57  81.317
 54.3376  6501.85  81.0447
 54.3796  6608.3  81.6032
 54.4216  6663.91  82.0158
 54.4636  6559.32  81.3117
 54.5056  6680.57  81.8616
 54.5476  6593.31  81.6761
 54.5896  6561.3  81.3197
 54.6316  6635.74  81.6254
 54.6736  6621.13  81.5737
 54.7156  6544.43  81.1724
 54.7576  6494.36  80.8319
 54.7996  6609.21  81.7048
 54.8416  6471.34  80.9061
 54.8836  6562.91  81.568
 54.9256  6516.35  81.0277
 54.9676  6448.43  80.4847
 55.0096  6542.86  81.0957
 55.0516  6435.46  80.6125
 55.0936  6506.14  80.7759
 55.1356  6539.19  81.0141
 55.1776  6565.2  81.4044
 55.2196  6519.91  80.9176
 55.2616  6642.18  81.9106
 55.3036  6434.64  80.7803
 55.3456  6359.39  80.4624
 55.3876  6572.14  81.5205
 55.4296  6334.96  80.028
 55.4716  6452.4  80.7935
 55.5136  6481.71  80.7382
 55.5556  6688.11  82.0681
 55.5976  6376.85  80.2248
 55.6396  6445.76  80.501
 55.6816  6465.91  80.5865
 55.7236  6355.37  79.9531
 55.7656  6568.94  81.0044
 55.8076  6430.22  80.1416
 55.8496  6542.28  81.2801
 55.8916  6438.38  80.6758
 55.9336  6538.79  81.16
 55.9756  6305.78  79.6027
 56.0176  6323.19  79.8595
 56.0596  6408.24  80.3743
 56.1016  6297.21  79.7355
 56.1436  6350.52  80.2798
 56.1856  6287.81  79.6405
 56.2276  6432.62  80.6039
 56.2696  6359.52  80.1131
 56.3116  6467.72  81.1839
 56.3536  6338.11  80.0278
 56.3956  6339.81  80.0083
 56.4376  6335.98  80.0484
 56.4796  6277.12  79.4806
 56.5216  6257.5  79.7185
 56.5636  6264.53  79.3552
 56.6056  6448.39  80.7448
 56.6476  6326.53  79.5917
 56.6896  6447.14  80.811
 56.7316  6362.62  80.1945
 56.7736  6279.89  79.6779
 56.8156  6413.57  80.5326
 56.8576  6167.57  78.9199
 56.8996  6281.52  79.5569
 56.9416  6291.84  79.9153
 56.9836  6368.4  79.9268
 57.0256  6243.42  79.4448
 57.0676  6337.62  80.1697
 57.1096  6342.18  79.9656
 57.1516  6216.79  79.2201
 57.1936  6230.11  79.0924
 57.2356  6135.71  78.8095
 57.2776  6280.89  79.7025
 57.3196  6303.12  80.1812
 57.3616  6279.12  79.5376
 57.4036  6179.38  78.9573
 57.4456  6286.51  79.6086
 57.4876  6212.55  79.0236
 57.5296  6144.17  78.8
 57.5716  6164.39  79.0296
 57.6136  6120.49  78.5909
 57.6556  6193.8  79.1798
 57.6976  6162.65  78.8216
 57.7396  6120.46  78.8907
 57.7816  6156.55  79.5022
 57.8236  6056.39  78.6318
 57.8656  6143.47  78.8774
 57.9076  6196.63  79.2381
 57.9496  6099.96  78.9762
 57.9916  6220.52  79.2562
 58.0336  6105.4  78.7889
 58.0756  6183.27  78.8886
 58.1176  6137.76  78.6345
 58.1596  6175.71  79.4703
 58.2016  5985.3  77.4636
 58.2436  5920.92  77.4481
 58.2856  5967.33  77.6719
 58.3276  5956.16  77.9686
 58.3696  5893.32  77.3092
 58.4116  5933.1  77.4384
 58.4536  6019.65  77.8846
 58.4956  5840.65  76.8962
 58.5376  5926.25  77.0363
 58.5796  5896.55  77.2595
 58.6216  5970.56  77.5642
 58.6636  5963.28  77.7258
 58.7056  5959.87  77.5611
 58.7476  5815.83  77.0533
 58.7896  5826.66  76.7771
 58.8316  5917.09  77.3634
 58.8736  5877.64  77.1175
 58.9156  5999.13  77.9502
 58.9576  5911.28  77.6957
 58.9996  5957.38  77.249
 59.0416  5972.55  77.7151
 59.0836  5962.55  77.5675
 59.1256  5839.22  77.4497
 59.1676  5826.09  77.6647
 59.2096  5831.32  77.0295
 59.2516  5926.95  77.2434
 59.2936  5950.29  77.7211
 59.3356  5920.49  77.4051
 59.3776  5904.82  77.4697
 59.4196  5836.4  76.9569
 59.4616  5916.9  77.347
 59.5036  5769.61  76.4123
 59.5456  5879.5  76.8344
 59.5876  5938.98  77.4116
 59.6296  5786.95  76.4821
 59.6716  5747.75  76.2792
 59.7136  5968.89  77.7211
 59.7556  5947.12  77.7147
 59.7976  5925.01  77.3146
 59.8396  6009.69  77.7597
 59.8816  5876.31  77.4297
 59.9236  5944.03  77.5213
 59.9656  5941.86  77.7658
 60.0076  5835.73  76.4364
 60.0496  5852.73  77.0416
 60.0916  6078.72  77.9332
 60.1336  5728.03  76.7302
 60.1756  5781.59  78.247
 60.1996  0.0000000E+00  0.0000000E+00