File: docs/examples/opeando_xrd/IS17_D/Data/IS17_D/17_Da_f00107.xye
# /beamlines/bl04/projects/cycle2025-II/20250340211-lsimonelli/DATA/IS17_D/17_Da_f00107.xye : mythproc.py merge -s 0.006 -l 0.5 -f /beamlines/bl04/inhouse/ff/FlatField/ff_20Nov2024rod8mm60s_17keV.raw -b True -c true -o xye /beamlines/bl04/projects/cycle2025-II/20250340211-lsimonelli/DATA/IS17_D/17_Da_00107.dat
# IsMon = [6775498, 6779978, 6779728]  IsPos = [-1.4999, -2.4884, -3.4988]
# Wave = 0.4962  CalPath /beamlines/bl04/projects/cycle2025-II/20250340211-lsimonelli/DATA/Align/Si_Pos1_25keV_f00001.cal
# Date = 2025-09-24_23:24:26 Dt = 4.8000  Bin = 0.0060  <imon> = 6778401 +/- 2056 (Min/Max) 6775498 / 6779978
# icurr 251.6229  mocoIn 1.7162E-05  mocoOut 0.8053  i15 7.09677e+06  imon 6.7784e+06  i7 4.3333  iEMpd_timer 4.8000  iEMpd_1 3.4814E-08  iEMpd_2 7.8897E-08  iEMpd_3 1.6285E-08  iEMpd_4 4.8361E-08  iEMhp_timer 4.8000  iEMhp_1 4.9165E-06  iEMhp_2 -2.5349E-08  iEMhp_3 -2.4712E-08  iEMhp_4 -2.0506E-08
#      9776
 1.5856  40832.1  207.538
 1.6276  48316.9  221.885
 1.6696  55114  236.144
 1.7116  63832.1  254.632
 1.7536  73166.6  271.454
 1.7956  77828.9  280.669
 1.8376  73699.7  273.555
 1.8796  62182.5  249.424
 1.9216  50618.9  225.937
 1.9636  42647.8  206.537
 2.0056  38727.1  196.051
 2.0476  35943  190.943
 2.0896  35003.5  187.326
 2.1316  33715.6  182.964
 2.1736  32215.5  180.266
 2.2156  32881.1  180.657
 2.2576  31750.1  178.161
 2.2996  30627.3  175.623
 2.3416  31099.2  175.56
 2.3836  30660.1  174.422
 2.4256  29411.1  171.389
 2.4676  28853.5  169.516
 2.5096  29085.7  170.252
 2.5516  28556.1  172.581
 2.5936  28663.7  169.409
 2.6356  28159.6  168.621
 2.6776  28112.8  167.338
 2.7196  27763.8  166.828
 2.7616  27835.5  166.814
 2.8036  27316.1  165.426
 2.8456  27015.4  165.141
 2.8876  26628.4  163.822
 2.9296  26291.6  162.92
 2.9716  26014.9  161.54
 3.0136  25848.1  161.089
 3.0556  25919.9  161.725
 3.0976  25570.1  159.538
 3.1396  25170.7  159.012
 3.1816  24961.1  158.288
 3.2236  24794.9  157.758
 3.2656  24840.6  156.907
 3.3076  24522.6  157.391
 3.3496  24684.2  156.82
 3.3916  24966.2  157.543
 3.4336  25306.3  159.2
 3.4756  25630.6  160.15
 3.5176  26697.5  163.233
 3.5596  26297.6  164.475
 3.6016  26755.1  163.458
 3.6436  25654.3  161.173
 3.6856  25074.7  157.623
 3.7276  24124.9  155.707
 3.7696  24013  155.541
 3.8116  23610.9  154.124
 3.8536  23602.3  154.028
 3.8956  23482.5  153.457
 3.9376  23377  153.368
 3.9796  23216  152.346
 4.0216  23425.8  152.054
 4.0636  23216.7  152.864
 4.1056  23454.8  153.276
 4.1476  23595.6  154.069
 4.1896  23904  154.923
 4.2316  23950.1  154.897
 4.2736  24092.7  155.14
 4.3156  24615.8  157.042
 4.3576  25306.6  159.157
 4.3996  25529  160.116
 4.4416  26062.8  161.367
 4.4836  26537.6  162.977
 4.5256  26830.4  164.504
 4.5676  26652.6  164.207
 4.6096  27247.5  164.683
 4.6516  27954.5  166.507
 4.6936  28016.5  167.505
 4.7356  28148.4  167.732
 4.7776  28112.2  167.45
 4.8196  27762.6  167.065
 4.8616  27348.9  165.292
 4.9036  26996  163.972
 4.9456  26867.8  164.231
 4.9876  26167.7  161.979
 5.0296  26459.5  162.69
 5.0716  26574.9  163.832
 5.1136  26713.5  163.963
 5.1556  27006  164.313
 5.1976  27347.5  165.358
 5.2396  27582.5  165.754
 5.2816  27423.8  165.749
 5.3236  27708.8  166.302
 5.3656  26956.3  164.951
 5.4076  26669.1  164.223
 5.4496  26937.5  164.526
 5.4916  26961.2  164.357
 5.5336  26985.7  164.433
 5.5756  26814  163.95
 5.6176  27234.4  164.654
 5.6596  27124.8  165.309
 5.7016  27482  165.645
 5.7436  27613.2  166.318
 5.7856  27400.2  165.736
 5.8276  27786.7  166.613
 5.8696  27814.9  166.873
 5.9116  27777.4  167.372
 5.9536  28068.4  168
 5.9956  28347.8  168.183
 6.0376  28562.6  169.466
 6.0796  28662.1  169.594
 6.1216  28589.5  169.577
 6.1636  28930.4  169.644
 6.2056  28923.1  170.289
 6.2476  29128.1  170.77
 6.2896  29333.2  171.048
 6.3316  29167  170.744
 6.3736  29344.7  171.147
 6.4156  29410.9  171.246
 6.4576  29661.6  171.57
 6.4996  29970.6  172.942
 6.5416  29911.1  172.912
 6.5836  29869.3  173.021
 6.6256  30135.7  173.352
 6.6676  30562.9  174.14
 6.7096  30198.2  173.961
 6.7516  30617.7  174.814
 6.7936  30897.1  175.036
 6.8356  31166.7  175.871
 6.8776  31471  177.533
 6.9196  31469.4  177.938
 6.9616  31898.9  178.582
 7.0036  32327.3  179.43
 7.0456  32164.6  178.268
 7.0876  32026.8  179.583
 7.1296  32082.7  178.872
 7.1716  32183.7  178.692
 7.2136  31811.6  177.434
 7.2556  32196.9  178.666
 7.2976  32195.4  179.166
 7.3396  32120.6  179.166
 7.3816  31964.7  178.951
 7.4236  32382.9  179.403
 7.4656  32575.6  179.413
 7.5076  32857.9  180.328
 7.5496  32585.1  180.117
 7.5916  32814.3  180.78
 7.6336  33090.4  181.438
 7.6756  33224.2  181.657
 7.7176  33614.7  183.03
 7.7596  33565.9  184.161
 7.8016  33692.4  186.697
 7.8436  34500.2  185.541
 7.8856  34574  185.349
 7.9276  35232.7  187.505
 7.9696  35437.9  188.36
 8.0116  36448.2  189.55
 8.0536  36320.9  189.474
 8.0956  36282.8  190.554
 8.1376  37034.5  191.99
 8.1796  36860.4  192.084
 8.2216  37750.1  193.117
 8.2636  38160.6  194.411
 8.3056  37890.3  194.502
 8.3476  38512.1  195.412
 8.3896  38238.3  194.797
 8.4316  38345.4  195.236
 8.4736  38644.1  195.453
 8.5156  38220.2  194.659
 8.5576  37659.2  194.199
 8.5996  37551.7  192.79
 8.6416  37626  194.252
 8.6836  37572.3  193.946
 8.7256  38126.1  194.81
 8.7676  37355.2  195.754
 8.8096  37391.8  193.162
 8.8516  37015.9  191.798
 8.8936  36612.2  190.641
 8.9356  36447.4  190.569
 8.9776  36852.3  191.713
 9.0196  36465.4  190.37
 9.0616  36714.9  190.497
 9.1036  36218.8  190.403
 9.1456  36429.8  190.292
 9.1876  36266.2  189.818
 9.2296  36509.4  189.85
 9.2716  35878.3  188.272
 9.3136  35705.2  187.793
 9.3556  35955.7  188.44
 9.3976  34632.8  185.475
 9.4396  35138.2  186.708
 9.4816  34389  184.57
 9.5236  34460.4  184.674
 9.5656  34460.2  184.986
 9.6076  34061.3  184.449
 9.6496  33925.4  184.009
 9.6916  34092  184.425
 9.7336  34049.8  184.096
 9.7756  34174.1  185.684
 9.8176  33194.3  182.51
 9.8596  33175.2  180.903
 9.9016  32867.2  180.054
 9.9436  32475.6  178.89
 9.9856  32351  178.784
 10.0276  31692.5  178.05
 10.0696  31873.6  177.595
 10.1116  30987  175.369
 10.1536  31236.3  176.242
 10.1956  30656  174.2
 10.2376  30287.5  172.662
 10.2796  30302.7  172.821
 10.3216  30013.8  172.267
 10.3636  29721.4  171.453
 10.4056  29469.6  171.117
 10.4476  29270.7  170.172
 10.4896  29492.1  170.271
 10.5316  28766.7  168.864
 10.5736  28597.4  168.767
 10.6156  28117.2  167.123
 10.6576  28454.2  166.695
 10.6996  27957.3  165.89
 10.7416  27682.4  165.314
 10.7836  27884.1  166.587
 10.8256  27397.3  165.556
 10.8676  27700.2  165.999
 10.9096  27200.9  164.548
 10.9516  26940.8  162.687
 10.9936  26946.2  162.908
 11.0356  27183.2  164.256
 11.0776  26817.4  162.46
 11.1196  26200.3  161.322
 11.1616  26000.9  160.392
 11.2036  26278  161.105
 11.2456  26069.7  161.165
 11.2876  25894.1  160.356
 11.3296  25675.9  159.574
 11.3716  26038  160.394
 11.4136  25854.1  160.715
 11.4556  25956.5  160.701
 11.4976  26005.3  159.827
 11.5396  26205.4  160.611
 11.5816  26769.2  162.791
 11.6236  27291.8  164.598
 11.6656  27177.2  163.401
 11.7076  26551.8  162.355
 11.7496  25987.3  164.585
 11.7916  25831  159.396
 11.8336  25387.2  158.908
 11.8756  25113.3  157.581
 11.9176  25311.3  157.843
 11.9596  24843.8  156.585
 12.0016  24662.4  156.804
 12.0436  24542.1  155.84
 12.0856  24542  156.37
 12.1276  24488.1  156.113
 12.1696  24561.9  155.479
 12.2116  24657.8  155.775
 12.2536  24190.3  155.124
 12.2956  24399  155.119
 12.3376  24242.3  154.842
 12.3796  24262  155.351
 12.4216  24264.3  154.586
 12.4636  24098.9  154.966
 12.5056  24222.7  154.639
 12.5476  24452.1  154.897
 12.5896  24238.9  154.85
 12.6316  23911.7  153.971
 12.6736  24038.3  154.855
 12.7156  23918.8  154.339
 12.7576  24080.5  155.094
 12.7996  24389.7  154.725
 12.8416  23926.7  154.3
 12.8836  24498.2  155.953
 12.9256  24589.5  155.261
 12.9676  24738.4  156.15
 13.0096  24389  156.157
 13.0516  24856  156.665
 13.0936  24825  156.97
 13.1356  25174.4  157.046
 13.1776  25002.7  157.505
 13.2196  25096.8  157.452
 13.2616  25022  157.531
 13.3036  25188.9  158.029
 13.3456  25080.2  158.041
 13.3876  24913.7  156.818
 13.4296  24973.1  157.149
 13.4716  24970.8  156.744
 13.5136  25066.4  157.201
 13.5556  24927.9  157.382
 13.5976  24984.4  157.714
 13.6396  25074.9  157.352
 13.6816  24676.9  156.597
 13.7236  25476.7  158.76
 13.7656  24590.1  156.508
 13.8076  24931.8  156.362
 13.8496  24593.1  155.906
 13.8916  24556  156.785
 13.9336  24646.4  156.297
 13.9756  24394.2  154.846
 14.0176  24306.1  155.247
 14.0596  24294.8  155.175
 14.1016  23917  154.364
 14.1436  23773.2  153.034
 14.1856  23793.5  153.394
 14.2276  23433.8  152.722
 14.2696  23657.9  153.279
 14.3116  23352.8  152.18
 14.3536  22881.6  150.823
 14.3956  22864.2  150.494
 14.4376  22990.3  150.691
 14.4796  22939.8  150.516
 14.5216  22660.4  150.394
 14.5636  22437.3  149.219
 14.6056  22653.5  149.514
 14.6476  22623.2  148.636
 14.6896  22194.4  147.758
 14.7316  21871  147.707
 14.7736  21680.8  146.214
 14.8156  21650  146.153
 14.8576  21539.1  145.625
 14.8996  21176.3  145.607
 14.9416  20694  143.934
 14.9836  20852.3  144.446
 15.0256  20689.8  142.792
 15.0676  20588.1  142.757
 15.1096  20754.8  143.069
 15.1516  20168  141.593
 15.1936  20067.5  140.66
 15.2356  19724.4  139.737
 15.2776  19915.9  139.988
 15.3196  19433.6  139.297
 15.3616  19455.1  139.127
 15.4036  19198.6  138.068
 15.4456  19279.2  138.003
 15.4876  19099.2  137.035
 15.5296  19004  136.98
 15.5716  18822.6  135.925
 15.6136  18665.2  135.688
 15.6556  18769.9  135.296
 15.6976  18578.7  134.903
 15.7396  18517.5  135.076
 15.7816  18465.3  134.38
 15.8236  18233  134.246
 15.8656  18114.8  133.597
 15.9076  17787.1  132.212
 15.9496  17757.6  134.911
 15.9916  17688.5  135.09
 16.0336  17477.8  131.18
 16.0756  17651.3  132.136
 16.1176  17457.9  131.478
 16.1596  16957.8  130.757
 16.2016  17296.5  130.791
 16.2436  17024.9  130.154
 16.2856  17235.2  130.493
 16.3276  16807.3  129.281
 16.3696  17030.4  129.951
 16.4116  16733.4  129.278
 16.4536  16775.4  129.225
 16.4956  16637  128.424
 16.5376  16583.6  128.403
 16.5796  16468.6  127.325
 16.6216  16839.2  129.053
 16.6636  16478.1  127.806
 16.7056  16720.7  128.624
 16.7476  16533.4  127.417
 16.7896  16397  127.644
 16.8316  16487.7  127.969
 16.8736  16357.2  127.728
 16.9156  16540  128.765
 16.9576  16304  128.642
 16.9996  16303.5  129.123
 17.0416  16531.8  128.368
 17.0836  16362.3  127.469
 17.1256  16264.7  127.096
 17.1676  16215.7  126.905
 17.2096  16080.4  126.249
 17.2516  16030.3  125.832
 17.2936  15956.3  125.866
 17.3356  15830.3  125.383
 17.3776  15686  124.994
 17.4196  15845.5  125.309
 17.4616  15561.9  124.11
 17.5036  15500.5  124.228
 17.5456  15268.3  123.941
 17.5876  15205.6  122.733
 17.6296  15196.2  122.504
 17.6716  15317.5  123.576
 17.7136  14774.3  121.513
 17.7556  14844.4  122.084
 17.7976  14834.7  121.789
 17.8396  14700.5  120.738
 17.8816  14798.4  121.675
 17.9236  14746.8  121.28
 17.9656  14827.1  122.143
 18.0076  14647.2  120.984
 18.0496  14703.3  120.351
 18.0916  14610  120.502
 18.1336  14566.9  120.419
 18.1756  14832.2  121.04
 18.2176  14392.3  119.461
 18.2596  14449.1  119.431
 18.3016  14602.4  120.316
 18.3436  14517.7  119.968
 18.3856  14280  119.128
 18.4276  14294.4  118.862
 18.4696  14212  118.613
 18.5116  14528.2  120.214
 18.5536  14475.4  120.342
 18.5956  14173.9  118.645
 18.6376  14284.6  119.511
 18.6796  14266.1  118.758
 18.7216  14416  119.866
 18.7636  14076  118.443
 18.8056  14122  118.573
 18.8476  14119.3  119.185
 18.8896  14212.4  118.911
 18.9316  14243.3  119.024
 18.9736  14024.5  117.804
 19.0156  13952  117.9
 19.0576  13966.7  116.846
 19.0996  14321.3  119.029
 19.1416  14055.7  118.317
 19.1836  13962.9  117.525
 19.2256  13863  117.308
 19.2676  14121.4  118.494
 19.3096  14194.4  119.045
 19.3516  13976  118.087
 19.3936  13924  117.765
 19.4356  13922.1  117.643
 19.4776  14022.4  118.153
 19.5196  14023.2  118.007
 19.5616  14048.7  118.375
 19.6036  13867.8  117.101
 19.6456  13938.6  117.524
 19.6876  14091.1  117.808
 19.7296  13979.3  117.801
 19.7716  13732.1  116.911
 19.8136  13909.7  117.879
 19.8556  14117.8  118.231
 19.8976  14019.2  117.882
 19.9396  14115.3  117.86
 19.9816  14233.9  118.598
 20.0236  14201.3  118.68
 20.0656  14624.1  120.416
 20.1076  14574  120.692
 20.1496  14882.8  121.969
 20.1916  15029.7  122.072
 20.2336  15045.1  122.064
 20.2756  14789.1  121.457
 20.3176  14569.1  120.297
 20.3596  14330.9  119.279
 20.4016  14064.2  117.971
 20.4436  14040.9  118.433
 20.4856  13735.5  116.94
 20.5276  13732.7  117.38
 20.5696  13658  116.525
 20.6116  13645.3  116.745
 20.6536  13640.4  116.234
 20.6956  13477.5  115.658
 20.7376  13487.4  115.923
 20.7796  13450.8  115.456
 20.8216  13564.4  115.648
 20.8636  13315.1  114.952
 20.9056  13323.3  114.936
 20.9476  13249.2  114.458
 20.9896  13389.6  114.929
 21.0316  13448.1  115.065
 21.0736  13310  115
 21.1156  13247.1  114.886
 21.1576  13317.7  115.248
 21.1996  13207.9  114.749
 21.2416  13046.1  113.877
 21.2836  13218.9  114.59
 21.3256  13020.6  113.816
 21.3676  13104.1  113.724
 21.4096  13034.4  113.732
 21.4516  12949.8  113.243
 21.4936  12882.8  113.195
 21.5356  13068.4  113.96
 21.5776  13175.2  114.257
 21.6196  12925.3  113.19
 21.6616  12906.7  113.205
 21.7036  12962.1  113.232
 21.7456  12992.7  113.439
 21.7876  12877.6  112.682
 21.8296  12914.2  112.702
 21.8716  12847  112.64
 21.9136  13072.5  113.825
 21.9556  12690.7  111.826
 21.9976  12809.1  112.356
 22.0396  12806  112.601
 22.0816  12922.7  113.657
 22.1236  12930.2  113.143
 22.1656  12798.1  112.677
 22.2076  12913.7  112.659
 22.2496  12973.5  112.944
 22.2916  13026.2  113.054
 22.3336  12969.2  113.538
 22.3756  12902.6  112.967
 22.4176  12614.6  111.555
 22.4596  12549.8  111.857
 22.5016  12933.8  113.047
 22.5436  13033.5  113.356
 22.5856  12893.7  112.996
 22.6276  12780.3  112.632
 22.6696  12970.5  113.833
 22.7116  12831.4  112.723
 22.7536  12752  112.35
 22.7956  12897.2  112.309
 22.8376  12683.7  111.903
 22.8796  12692  111.74
 22.9216  12817.2  112.842
 22.9636  12768.6  111.772
 23.0056  12730.5  111.741
 23.0476  12687.5  112.121
 23.0896  13113.4  113.357
 23.1316  12801.6  112.439
 23.1736  12748.8  115.182
 23.2156  12884  113.138
 23.2576  12854.4  113.147
 23.2996  12850.9  112.916
 23.3416  12784.1  113.152
 23.3836  12807.4  112.481
 23.4256  12864  112.85
 23.4676  12835.7  112.412
 23.5096  12918.5  113.46
 23.5516  12796.8  112.202
 23.5936  12769.6  112.986
 23.6356  13058.7  113.92
 23.6776  12791  112.962
 23.7196  12548.8  111.453
 23.7616  12847.9  112.7
 23.8036  12666.7  111.954
 23.8456  12790.6  112.056
 23.8876  12518  111.221
 23.9296  12387.6  111.121
 23.9716  12399.7  110.373
 24.0136  12459.3  111.539
 24.0556  12378.4  110.909
 24.0976  12484.1  111.174
 24.1396  12210.2  112.599
 24.1816  12401.6  111.894
 24.2236  12367.2  111.346
 24.2656  12154.9  109.859
 24.3076  12075.6  109.744
 24.3496  12049.6  109.518
 24.3916  11985.8  109.278
 24.4336  11902.4  109.109
 24.4756  11940.7  109.149
 24.5176  11878.5  108.517
 24.5596  11858.8  108.555
 24.6016  11615.8  107.722
 24.6436  11849.8  108.299
 24.6856  11669.5  107.222
 24.7276  11889.3  108.542
 24.7696  11645.7  107.545
 24.8116  11682.9  107.896
 24.8536  11497.7  107.027
 24.8956  11612.7  107.304
 24.9376  11566.7  107.032
 24.9796  11344.5  106.351
 25.0216  11239.1  105.972
 25.0636  11342.7  106.107
 25.1056  11144.3  105.876
 25.1476  11465  109.062
 25.1896  11407.4  107.252
 25.2316  11466  106.793
 25.2736  11362.8  105.962
 25.3156  11230.9  105.428
 25.3576  11179.3  105.599
 25.3996  11219.9  105.779
 25.4416  11275.9  106.018
 25.4836  10955.4  105.027
 25.5256  11120.2  105.178
 25.5676  11162.6  105.105
 25.6096  11027.8  105.043
 25.6516  11176.9  105.242
 25.6936  11037.1  104.906
 25.7356  11143.3  105.544
 25.7776  11121.5  105.04
 25.8196  10957.8  104.496
 25.8616  11120.3  105.192
 25.9036  11090.1  104.52
 25.9456  11033  104.844
 25.9876  10964.1  104.582
 26.0296  11148.2  104.964
 26.0716  10908.4  104.256
 26.1136  11011.1  104.681
 26.1556  11089.7  104.432
 26.1976  10945  104.681
 26.2396  10973.3  103.955
 26.2816  10855.3  104.016
 26.3236  10899.5  104.385
 26.3656  10880.6  104.023
 26.4076  10973.1  104.676
 26.4496  11625.2  107.195
 26.4916  11070.1  104.626
 26.5336  10985.1  104.542
 26.5756  11174  105.3
 26.6176  10923.5  104.164
 26.6596  10792.6  103.845
 26.7016  10944.7  104.33
 26.7436  10797.8  103.768
 26.7856  10631.9  102.942
 26.8276  10748.4  103.468
 26.8696  10814.2  103.65
 26.9116  10687  102.976
 26.9536  10660.2  102.897
 26.9956  10640.1  102.831
 27.0376  10640.8  103.056
 27.0796  10672.5  102.935
 27.1216  10499.8  102.182
 27.1636  10439.9  102.052
 27.2056  10437.2  101.921
 27.2476  10377.6  101.63
 27.2896  10457.6  102.129
 27.3316  10451.5  101.812
 27.3736  10345.5  101.558
 27.4156  10398  101.665
 27.4576  10369.7  101.757
 27.4996  10437.8  101.685
 27.5416  10421.2  101.919
 27.5836  10366.9  101.475
 27.6256  10555.2  102.546
 27.6676  10606.7  102.823
 27.7096  10396.1  101.665
 27.7516  10253  101.11
 27.7936  10133.1  100.692
 27.8356  10363  101.444
 27.8776  10185.1  100.616
 27.9196  10092.7  100.008
 27.9616  10269.6  101.069
 28.0036  10133.1  100.37
 28.0456  10217.4  100.917
 28.0876  10099.9  100.429
 28.1296  10044  99.9925
 28.1716  10114.4  100.356
 28.2136  10269.8  101.084
 28.2556  10104.6  100.386
 28.2976  10017.6  99.9392
 28.3396  10095.1  100.088
 28.3816  10085.2  100.055
 28.4236  10043.4  99.9995
 28.4656  9986.87  99.7578
 28.5076  9989.87  99.3937
 28.5496  10007.3  99.7576
 28.5916  10052.8  99.7896
 28.6336  9942.84  99.5895
 28.6756  10019.3  99.1662
 28.7176  9933.94  99.2921
 28.7596  9784.21  98.4375
 28.8016  10015.9  99.6277
 28.8436  9812.91  98.859
 28.8856  10019  99.7359
 28.9276  9814.98  98.9584
 28.9696  9850.72  98.7994
 29.0116  9815.47  98.8098
 29.0536  9667.98  98.2634
 29.0956  9865.3  98.9804
 29.1376  9798.41  98.6049
 29.1796  9710.49  98.2081
 29.2216  9772.31  98.3608
 29.2636  9840.46  98.7813
 29.3056  9762.57  98.1783
 29.3476  9758.94  98.6838
 29.3896  9787.82  98.9131
 29.4316  10010.4  99.3646
 29.4736  9862.63  98.6965
 29.5156  9761.79  98.1013
 29.5576  9794.54  99.0203
 29.5996  9754.15  98.0708
 29.6416  9702.4  97.9174
 29.6836  9767.05  98.1791
 29.7256  9672.61  98.2725
 29.7676  9594.1  97.5338
 29.8096  9841.32  98.7234
 29.8516  9604.22  97.8588
 29.8936  9730.37  98.5907
 29.9356  9800.81  98.7053
 29.9776  9576.52  97.7204
 30.0196  9643.75  97.4482
 30.0616  9518.57  97.1902
 30.1036  9580.42  97.3223
 30.1456  9580.75  97.567
 30.1876  9622.4  97.7546
 30.2296  9623.53  97.7098
 30.2716  9749.24  97.9787
 30.3136  9800.99  99.1094
 30.3556  9573.93  97.974
 30.3976  9406.82  98.6283
 30.4396  9664.83  97.3049
 30.4816  9672.35  96.9295
 30.5236  9438.42  95.7766
 30.5656  9545.57  96.9625
 30.6076  9575.99  96.5514
 30.6496  9639.11  97.2551
 30.6916  9551.21  96.899
 30.7336  9397.67  96.2727
 30.7756  9411.5  96.436
 30.8176  9508.92  96.8482
 30.8596  9462.26  96.3815
 30.9016  9553.48  97.1838
 30.9436  9548.29  96.9136
 30.9856  9583.41  97.204
 31.0276  9446.33  96.1071
 31.0696  9389.61  96.3927
 31.1116  9381.97  96.3335
 31.1536  9592.96  97.2896
 31.1956  9361.16  96.1975
 31.2376  9295.87  95.8652
 31.2796  9333.25  95.5986
 31.3216  9404.9  95.9018
 31.3636  9432.34  96.741
 31.4056  9432.26  98.0758
 31.4476  9327.41  95.4039
 31.4896  9251.84  95.5237
 31.5316  9335.08  95.3366
 31.5736  9391.73  95.4599
 31.6156  9321.17  95.1199
 31.6576  9407.34  95.6567
 31.6996  9340.43  94.988
 31.7416  9251.82  95.5874
 31.7836  9345.72  95.09
 31.8256  9254.11  94.8967
 31.8676  9258.79  94.9145
 31.9096  9174.77  94.8369
 31.9516  9118.3  94.7046
 31.9936  9130.11  94.5879
 32.0356  9154.63  94.7773
 32.0776  9202.17  94.9168
 32.1196  9227.64  95.1225
 32.1616  9308.68  95.01
 32.2036  9028.01  94.0729
 32.2456  9065.19  94.6451
 32.2876  9095.17  94.3025
 32.3296  9155.3  94.5772
 32.3716  9063.41  94.2008
 32.4136  9090.95  94.5578
 32.4556  9195.77  94.4718
 32.4976  9166.78  94.2361
 32.5396  9140.15  94.1734
 32.5816  9002.3  93.5818
 32.6236  9065.21  93.9765
 32.6656  9055.82  94.4702
 32.7076  9152.38  94.6178
 32.7496  9106.78  94.0507
 32.7916  9041.56  93.6767
 32.8336  9063.91  93.8838
 32.8756  9081.21  93.701
 32.9176  8959.17  93.543
 32.9596  8978.82  93.7277
 33.0016  9060.04  93.9436
 33.0436  9091.01  94.2744
 33.0856  9008.96  93.9184
 33.1276  8903.37  93.1006
 33.1696  8993.06  93.4161
 33.2116  9120.05  94.2927
 33.2536  9018.01  93.7724
 33.2956  8936.06  93.4244
 33.3376  8954.87  93.2647
 33.3796  8998.59  93.6963
 33.4216  9066.25  93.6379
 33.4636  8992.41  93.4044
 33.5056  8873.66  93.0257
 33.5476  8954.93  93.4431
 33.5896  9049.86  93.7088
 33.6316  8914.16  93.3284
 33.6736  8941.92  93.7138
 33.7156  8791.58  92.9661
 33.7576  8949.19  93.4115
 33.7996  9035.63  93.6314
 33.8416  8823.49  92.7138
 33.8836  8947.75  93.1406
 33.9256  8885.47  92.8834
 33.9676  8795.54  92.304
 34.0096  8716.55  92.2034
 34.0516  8781.58  92.1842
 34.0936  8796.36  92.5234
 34.1356  8914.01  92.8806
 34.1776  8821.77  92.4085
 34.2196  8643.1  91.6502
 34.2616  8656.94  91.8561
 34.3036  8644.88  92.0483
 34.3456  8712.22  92.1544
 34.3876  8676.04  91.933
 34.4296  8677.92  91.6262
 34.4716  8684.05  91.7947
 34.5136  8771.54  92.4719
 34.5556  8713.59  92.4222
 34.5976  8762.79  92.4796
 34.6396  8768.95  92.231
 34.6816  8631.77  91.6189
 34.7236  8601.03  91.2388
 34.7656  8722.63  92.0791
 34.8076  8646.27  92.0016
 34.8496  8624.35  91.7354
 34.8916  8520.73  91.0616
 34.9336  8746.45  92.2158
 34.9756  8724.49  92.0314
 35.0176  8669.73  92.2651
 35.0596  8548.53  91.4472
 35.1016  8618.66  91.5849
 35.1436  8722.05  91.8161
 35.1856  8529.9  90.9306
 35.2276  8629.03  91.6306
 35.2696  8669.84  92.0427
 35.3116  8663.48  92.1012
 35.3536  8553.92  91.2302
 35.3956  8597.6  91.1666
 35.4376  8511.58  91.2727
 35.4796  8749.1  92.5908
 35.5216  8487.53  91.1572
 35.5636  8361.24  91.2177
 35.6056  8649.91  91.7797
 35.6476  8619.19  91.5151
 35.6896  8613.2  91.5706
 35.7316  8444.88  90.647
 35.7736  8438.39  90.8114
 35.8156  8432.29  90.7772
 35.8576  8542.09  91.6258
 35.8996  8556.19  91.6585
 35.9416  8540.32  91.0817
 35.9836  8406.63  90.7123
 36.0256  8519.3  91.3371
 36.0676  8520.83  91.1012
 36.1096  8343.94  90.2865
 36.1516  8421.05  90.5871
 36.1936  8385.99  90.2529
 36.2356  8435.65  91.1557
 36.2776  8377.95  90.3267
 36.3196  8421.18  90.23
 36.3616  8441.85  90.4724
 36.4036  8417.51  90.4018
 36.4456  8386.21  90.4419
 36.4876  8210.6  89.4333
 36.5296  8445.97  90.7443
 36.5716  8371.55  91.1271
 36.6136  8561.08  90.8896
 36.6556  8492.02  90.7407
 36.6976  8421.68  90.8649
 36.7396  8327.67  90.0849
 36.7816  8241.99  89.9961
 36.8236  8293.21  90.1975
 36.8656  8264.47  90.111
 36.9076  8306.7  90.2195
 36.9496  8297.36  90.1533
 36.9916  8292.11  89.758
 37.0336  8399.37  90.6547
 37.0756  8427.77  90.5963
 37.1176  8139.71  89.3025
 37.1596  8251.83  89.9218
 37.2016  8294.9  90.3833
 37.2436  8293.79  89.6879
 37.2856  8213.65  89.5091
 37.3276  8317.41  89.4188
 37.3696  8256.66  89.9824
 37.4116  8349.52  90.3931
 37.4536  8208.43  89.4949
 37.4956  8223.17  89.6206
 37.5376  8210.17  91.1196
 37.5796  8186.43  90.945
 37.6216  8041.03  88.4064
 37.6636  8117.26  88.7312
 37.7056  8173.54  89.2253
 37.7476  8111.2  88.4224
 37.7896  8065.19  88.6675
 37.8316  7953.48  88.226
 37.8736  8126.82  88.6985
 37.9156  8124.53  88.6926
 37.9576  8255.14  89.2864
 37.9996  8159.73  88.4859
 38.0416  8055.85  88.7327
 38.0836  8127.9  89.035
 38.1256  8131.15  89.0085
 38.1676  8066.18  88.7912
 38.2096  7988.12  87.9918
 38.2516  8280.76  89.7848
 38.2936  8155.8  88.9091
 38.3356  8046.8  88.2218
 38.3776  7966.81  88.0636
 38.4196  8101.61  88.6545
 38.4616  8038.18  88.5444
 38.5036  8274.75  89.6725
 38.5456  8056.27  89.3184
 38.5876  8056.93  89.3532
 38.6296  7834.53  87.1054
 38.6716  7989.92  87.7565
 38.7136  7882.16  87.1054
 38.7556  7822.32  87.2749
 38.7976  7961.4  87.9856
 38.8396  8001.86  88.6643
 38.8816  7867.94  87.687
 38.9236  7879.78  87.5782
 38.9656  7883.64  87.5125
 39.0076  8040.06  87.781
 39.0496  8085.15  88.5753
 39.0916  7979.14  87.6267
 39.1336  7945.31  87.8627
 39.1756  7896.08  87.6554
 39.2176  7922.09  88.3297
 39.2596  7921.62  88.2505
 39.3016  7886.78  87.6186
 39.3436  7979.61  88.5722
 39.3856  7963.57  87.9297
 39.4276  8009.61  88.6881
 39.4696  7926.24  87.8442
 39.5116  7820.1  87.767
 39.5536  8066.27  89.5641
 39.5956  8074.95  88.7015
 39.6376  8020.25  88.4061
 39.6796  7958.52  87.805
 39.7216  7997.3  88.1084
 39.7636  8052.27  88.9981
 39.8056  8016.72  88.5816
 39.8476  7895.4  88.1576
 39.8896  7930.55  87.9869
 39.9316  7857.7  87.8323
 39.9736  8042.05  88.4185
 40.0156  7953.8  87.7641
 40.0576  7949.91  88.0978
 40.0996  8034.05  87.7431
 40.1416  8042.72  88.5843
 40.1836  8013.46  88.3174
 40.2256  7937.12  87.9403
 40.2676  8021.07  88.5117
 40.3096  8195.08  89.3854
 40.3516  8015.32  88.5074
 40.3936  8112.15  88.5993
 40.4356  8038.28  88.392
 40.4776  8179.68  89.5836
 40.5196  8102.23  89.2874
 40.5616  8010  88.4223
 40.6036  7895.95  88.0355
 40.6456  8063.98  88.5724
 40.6876  8062.9  88.5562
 40.7296  8072.25  88.7429
 40.7716  8043.14  88.7118
 40.8136  8124.51  89.1004
 40.8556  8079.69  88.9994
 40.8976  8060.45  88.81
 40.9396  8087.91  89.3167
 40.9816  8130.75  88.8262
 41.0236  8082.66  88.3407
 41.0656  8156.08  89.2897
 41.1076  8160.27  89.0778
 41.1496  8057.04  88.4241
 41.1916  7913.56  87.9533
 41.2336  8011.13  88.4859
 41.2756  7986.35  87.9531
 41.3176  7993.65  88.6132
 41.3596  8023.54  88.5044
 41.4016  8053.86  88.931
 41.4436  7954.86  88.1686
 41.4856  8112.57  89.2012
 41.5276  7966.55  88.4173
 41.5696  8042.15  88.4657
 41.6116  8015.7  88.716
 41.6536  8016.01  88.5766
 41.6956  7987.22  88.4737
 41.7376  7895.7  87.9916
 41.7796  7918.78  87.991
 41.8216  7909.01  88.1841
 41.8636  8058.79  88.9504
 41.9056  7902.64  87.875
 41.9476  8084.12  89.1156
 41.9896  7967.29  88.1383
 42.0316  8059.15  88.7216
 42.0736  7905.78  87.9916
 42.1156  7825.18  87.3749
 42.1576  7987.77  88.3688
 42.1996  7968.43  88.4151
 42.2416  8012.67  88.2345
 42.2836  7892.62  87.6901
 42.3256  7913.82  87.9222
 42.3676  7910.13  87.71
 42.4096  8035.19  88.3533
 42.4516  7879.99  87.5932
 42.4936  7833.07  87.3964
 42.5356  7900.66  87.9012
 42.5776  7942.1  88.075
 42.6196  7999.01  88.4453
 42.6616  7797.99  87.4972
 42.7036  7970.98  87.8405
 42.7456  7888.38  87.7477
 42.7876  7856.35  87.6687
 42.8296  7864.72  87.5424
 42.8716  7850.89  87.6215
 42.9136  7853.83  87.4326
 42.9556  7934.05  88.0144
 42.9976  7977.39  88.2093
 43.0396  7866.58  87.3286
 43.0816  7806.89  87.3664
 43.1236  7751.95  87.1277
 43.1656  7861.09  87.5655
 43.2076  7829.06  87.4937
 43.2496  7742.34  86.8242
 43.2916  7743.91  87.1937
 43.3336  7841.84  87.5812
 43.3756  7799.31  87.0915
 43.4176  7737.24  86.833
 43.4596  7719.07  86.5868
 43.5016  7792.92  87.407
 43.5436  7806.27  87.3805
 43.5856  7793.65  87.3272
 43.6276  7783.86  87.1748
 43.6696  7691.89  86.9167
 43.7116  7804.69  87.0485
 43.7536  7762.47  87.3016
 43.7956  7545.52  87.2584
 43.8376  7731.06  86.8491
 43.8796  7679.87  86.6441
 43.9216  7840.88  87.4619
 43.9636  7672.64  86.6324
 44.0056  7687.82  86.9435
 44.0476  7668.55  86.4688
 44.0896  7520.82  85.9726
 44.1316  7818.3  87.1712
 44.1736  7595.89  86.0492
 44.2156  7700.99  86.4814
 44.2576  7609.47  86.302
 44.2996  7699.32  86.7801
 44.3416  7602.03  85.9936
 44.3836  7593.1  86.2667
 44.4256  7543.94  85.6382
 44.4676  7572.83  85.958
 44.5096  7609.01  86.3012
 44.5516  7598.5  86.2135
 44.5936  7572.37  86.0161
 44.6356  7547.9  85.6114
 44.6776  7529.99  85.8311
 44.7196  7543.3  86.216
 44.7616  7592.36  87.8316
 44.8036  7387.31  85.0763
 44.8456  7417.37  85.46
 44.8876  7590.41  86.2994
 44.9296  7570.74  85.6428
 44.9716  7485.51  85.5914
 45.0136  7531.71  85.7847
 45.0556  7497.82  85.5677
 45.0976  7405.48  85.195
 45.1396  7455.16  85.2479
 45.1816  7395.36  84.8337
 45.2236  7613.55  85.9788
 45.2656  7453.97  85.568
 45.3076  7392.29  84.9998
 45.3496  7347.15  85.0334
 45.3916  7323.74  85.1735
 45.4336  7430.1  85.6368
 45.4756  7432.68  85.5055
 45.5176  7428  85.0987
 45.5596  7590.98  86.1488
 45.6016  7375.36  85.332
 45.6436  7444.03  84.907
 45.6856  7386.38  85.2369
 45.7276  7334.99  86.2511
 45.7696  7322.44  85.8372
 45.8116  7428.29  85.8909
 45.8536  7197.36  84.4504
 45.8956  7378.51  84.8594
 45.9376  7450.46  84.7371
 45.9796  7393.98  85.0976
 46.0216  7415.16  85.5624
 46.0636  7486.66  85.1038
 46.1056  7366.94  84.4146
 46.1476  7369.4  85.0228
 46.1896  7312.53  84.8427
 46.2316  7386.81  85.1465
 46.2736  7274.72  84.8606
 46.3156  7407.64  85.2168
 46.3576  7347.3  85.0727
 46.3996  7381.85  85.4331
 46.4416  7373.99  84.9629
 46.4836  7315.05  84.971
 46.5256  7448.58  85.6887
 46.5676  7259.23  84.7056
 46.6096  7339.79  85.1106
 46.6516  7417.2  84.5984
 46.6936  7431  85.167
 46.7356  7361.12  84.8707
 46.7776  7210.6  84.8327
 46.8196  7245.01  84.6345
 46.8616  7142.03  83.9704
 46.9036  7100.84  83.3955
 46.9456  7158.47  83.3681
 46.9876  7189.63  83.6423
 47.0296  7151.76  84.0981
 47.0716  7146.06  83.8922
 47.1136  7191.28  83.8465
 47.1556  7187.84  83.6835
 47.1976  7227.22  83.9976
 47.2396  7246.11  84.5053
 47.2816  7115.42  83.4412
 47.3236  7173.58  84.1529
 47.3656  7260.65  84.588
 47.4076  7121.38  83.5675
 47.4496  7081.81  83.4437
 47.4916  7118.31  83.8452
 47.5336  7174.49  83.9877
 47.5756  7217.19  84.3561
 47.6176  7090.59  83.5091
 47.6596  7094.96  83.2494
 47.7016  7277.52  84.1411
 47.7436  7145.07  83.7027
 47.7856  7207.46  84.0932
 47.8276  6988.49  82.8501
 47.8696  7145.21  83.8583
 47.9116  7207.84  83.9416
 47.9536  7123.15  83.3892
 47.9956  7023.75  83.5063
 48.0376  7056.34  83.47
 48.0796  7175.67  84.3074
 48.1216  7187.26  84.1878
 48.1636  7229.71  84.0185
 48.2056  7111.89  83.5924
 48.2476  7185.6  84.3318
 48.2896  7009.18  83.1987
 48.3316  7075.23  83.5358
 48.3736  6982.63  83.005
 48.4156  7034.81  83.1695
 48.4576  6952.12  82.9706
 48.4996  7095.38  83.2771
 48.5416  7107.62  83.6786
 48.5836  7008.97  82.7759
 48.6256  7082.7  83.4098
 48.6676  6970.83  83.2504
 48.7096  7060.01  83.0698
 48.7516  6978.49  82.7319
 48.7936  6968.45  82.7296
 48.8356  7072.75  83.3989
 48.8776  6954.19  83.259
 48.9196  7128.06  83.6643
 48.9616  7035.82  83.502
 49.0036  6999.49  83.6293
 49.0456  6960.2  83.3714
 49.0876  6949.77  82.8531
 49.1296  6778.76  81.9934
 49.1716  6837.6  82.2056
 49.2136  7001.2  83.1108
 49.2556  6995.39  83.121
 49.2976  6975.04  83.0719
 49.3396  6851.09  82.3788
 49.3816  7000.2  82.7002
 49.4236  6891.27  82.4753
 49.4656  6844.14  82.2111
 49.5076  6938.7  82.5311
 49.5496  6954.64  82.6864
 49.5916  6987.9  82.79
 49.6336  6834.13  82.0881
 49.6756  6898.27  82.6994
 49.7176  6837.66  82.2786
 49.7596  6925.76  82.5828
 49.8016  6963.45  82.712
 49.8436  6803.09  82.0539
 49.8856  6783.1  81.9421
 49.9276  6764.93  81.9285
 49.9696  6774.89  81.971
 50.0116  6916.72  82.9648
 50.0536  6874.91  82.6581
 50.0956  6852  82.5848
 50.1376  6903.42  82.5935
 50.1796  6691.99  81.5855
 50.2216  6824.35  82.3787
 50.2636  6822.3  81.9948
 50.3056  6740.86  81.6703
 50.3476  6797.59  82.0214
 50.3896  6762.81  81.8009
 50.4316  6828.07  82.031
 50.4736  6653.24  81.1885
 50.5156  6831.92  82.2584
 50.5576  6851.86  82.1435
 50.5996  6746.91  81.7893
 50.6416  6678.01  81.2991
 50.6836  6699.57  81.4841
 50.7256  6887.8  82.5418
 50.7676  6792.46  82.2898
 50.8096  6690.12  81.2157
 50.8516  6675.68  81.5377
 50.8936  6693.42  81.4315
 50.9356  6776.48  82.0384
 50.9776  6760.61  82.0929
 51.0196  6517.98  80.7279
 51.0616  6625.92  80.7266
 51.1036  6727.2  81.6952
 51.1456  6747.98  81.7351
 51.1876  6781.96  81.2843
 51.2296  6667.92  81.2291
 51.2716  6716.33  81.2246
 51.3136  6622.86  81.1086
 51.3556  6603.97  80.6237
 51.3976  6660.94  81.1239
 51.4396  6569.4  80.8618
 51.4816  6600.55  80.9084
 51.5236  6600.21  80.9922
 51.5656  6618.93  80.7168
 51.6076  6601.23  80.689
 51.6496  6681.07  81.3628
 51.6916  6565.5  81.0098
 51.7336  6579.36  81.1874
 51.7756  6696.4  81.6044
 51.8176  6471.34  80.3256
 51.8596  6638.78  81.3743
 51.9016  6666.28  81.148
 51.9436  6688.96  82.7535
 51.9856  6514.94  82.0975
 52.0276  6626.38  81.3175
 52.0696  6563.68  80.9992
 52.1116  6643.38  81.5983
 52.1536  6591.65  81.1698
 52.1956  6693.93  81.2496
 52.2376  6718.71  81.5874
 52.2796  6634.71  80.8766
 52.3216  6396.27  80.0961
 52.3636  6605.19  80.9749
 52.4056  6421.22  79.6988
 52.4476  6419.12  80.0467
 52.4896  6400.49  79.9812
 52.5316  6448.63  80.324
 52.5736  6535.29  80.5851
 52.6156  6475.04  80.5955
 52.6576  6624.48  80.9638
 52.6996  6237.72  79.5139
 52.7416  6517.87  81.1256
 52.7836  6535.84  81.1194
 52.8256  6553.48  80.4537
 52.8676  6397.68  80.0714
 52.9096  6491.35  80.7373
 52.9516  6536.87  81.3729
 52.9936  6378.14  80.7763
 53.0356  6396.18  79.9043
 53.0776  6309.41  79.6184
 53.1196  6373.99  80.1509
 53.1616  6374.41  80.2007
 53.2036  6290.62  79.6242
 53.2456  6310.22  79.8507
 53.2876  6224.28  79.017
 53.3296  6374.84  80.2909
 53.3716  6449.27  80.5086
 53.4136  6331.42  79.9121
 53.4556  6308.21  79.7962
 53.4976  6241.25  79.2186
 53.5396  6350.9  80.2992
 53.5816  6423.83  80.3968
 53.6236  6186.47  79.2358
 53.6656  6308.32  79.6442
 53.7076  6296.58  79.5332
 53.7496  6408.54  80.359
 53.7916  6418.4  80.5389
 53.8336  6322.25  79.8382
 53.8756  6256.28  79.9641
 53.9176  6356.25  79.9439
 53.9596  6411.25  81.0561
 54.0016  6261.2  79.4407
 54.0436  6217.48  79.3725
 54.0856  6435.76  80.181
 54.1276  6368.95  79.9622
 54.1696  6382.42  80.2228
 54.2116  6331.59  79.6634
 54.2536  6287.69  79.1984
 54.2956  6376.44  79.7903
 54.3376  6300.17  79.803
 54.3796  6253.97  79.409
 54.4216  6319.6  79.8774
 54.4636  6237.1  79.3079
 54.5056  6297.49  79.5155
 54.5476  6209.28  79.2889
 54.5896  6322.21  79.8395
 54.6316  6329.49  79.7426
 54.6736  6307.31  79.6762
 54.7156  6245.67  79.3132
 54.7576  6219.05  79.1318
 54.7996  6379.44  80.2867
 54.8416  6398.29  80.4572
 54.8836  6209.85  79.3779
 54.9256  6263.31  79.463
 54.9676  6316.19  79.6514
 55.0096  6290.67  79.5595
 55.0516  6305.08  79.8892
 55.0936  6259.09  79.2251
 55.1356  6196.89  78.8733
 55.1776  6336.6  80.029
 55.2196  6284.08  79.4792
 55.2616  6309.38  79.8528
 55.3036  6200.81  79.3103
 55.3456  6282.84  79.9931
 55.3876  6264.53  79.6217
 55.4296  6297.79  79.8067
 55.4716  6301.65  79.8607
 55.5136  6238.63  79.2232
 55.5556  6265.22  79.4671
 55.5976  6191.09  79.048
 55.6396  6269.3  79.4989
 55.6816  6296.14  79.5442
 55.7236  6269.99  79.4204
 55.7656  6198.04  78.7217
 55.8076  6326.92  79.5178
 55.8496  6171.67  78.8545
 55.8916  6187.4  79.1579
 55.9336  6157.05  78.7805
 55.9756  6155.4  78.6632
 56.0176  6141.74  78.7255
 56.0596  6229.65  79.271
 56.1016  6231.59  79.2874
 56.1436  6225.74  79.516
 56.1856  6256.01  79.4502
 56.2276  6245.84  79.4509
 56.2696  6208.95  79.1799
 56.3116  6088.14  78.8084
 56.3536  6246.35  79.4833
 56.3956  6203.23  79.1947
 56.4376  6209.91  79.2683
 56.4796  6207.67  79.0606
 56.5216  6205.11  79.4181
 56.5636  6210.3  79.0409
 56.6056  6201.72  79.2247
 56.6476  6152.37  78.5299
 56.6896  6213.34  79.3747
 56.7316  6146.5  78.8459
 56.7736  6185.04  79.0969
 56.8156  6231.41  79.3719
 56.8576  6140.78  78.7505
 56.8996  6255.62  79.4221
 56.9416  6167.02  79.1596
 56.9836  6181.38  78.7638
 57.0256  6198.35  79.1931
 57.0676  6144.94  78.9808
 57.1096  6198.71  79.11
 57.1516  6246.12  79.4753
 57.1936  6199.43  78.9236
 57.2356  6180.97  79.1221
 57.2776  6217.8  79.3133
 57.3196  6143.82  79.2134
 57.3616  6184.79  78.9682
 57.4036  6206.88  79.1716
 57.4456  6067.66  78.2421
 57.4876  6175.93  78.7909
 57.5296  6136.08  78.883
 57.5716  6033.94  78.2124
 57.6136  6131.73  78.6541
 57.6556  6094.63  78.5635
 57.6976  6234.24  79.2736
 57.7396  6084.84  78.6906
 57.7816  6065.03  78.9286
 57.8236  6050.27  78.6263
 57.8656  6205.75  79.286
 57.9076  6214.41  79.3708
 57.9496  6076.83  78.8333
 57.9916  6092.34  78.447
 58.0336  6148.17  79.0861
 58.0756  6174.09  78.8896
 58.1176  6156.64  78.7677
 58.1596  6060.9  78.728
 58.2016  6209.93  78.8949
 58.2436  6163.47  79.0136
 58.2856  6262.69  79.5658
 58.3276  6226.6  79.7072
 58.3696  6105.61  78.6756
 58.4116  6212.88  79.2357
 58.4536  6155.67  78.7541
 58.4956  6195.79  79.194
 58.5376  6209.89  78.8498
 58.5796  6205.94  79.2529
 58.6216  6228.58  79.2114
 58.6636  6125.45  78.7668
 58.7056  6209.66  79.1618
 58.7476  6000.19  78.2584
 58.7896  6014.38  77.996
 58.8316  6181.81  79.069
 58.8736  6227.06  79.3649
 58.9156  6201.44  79.246
 58.9576  6252.94  79.9034
 58.9996  6213.89  78.8854
 59.0416  6310.13  79.862
 59.0836  6112.31  78.5257
 59.1256  6130.56  79.3494
 59.1676  6121.92  79.6094
 59.2096  6255.92  79.7716
 59.2516  6180.3  78.8642
 59.2936  6285.22  79.8655
 59.3356  6127.05  78.731
 59.3776  6164.59  79.1426
 59.4196  6189.86  79.2403
 59.4616  6195.84  79.1363
 59.5036  6129.32  78.7443
 59.5456  6314.77  79.6148
 59.5876  6358.22  80.0843
 59.6296  5944.33  77.5026
 59.6716  6284.21  79.7465
 59.7136  6187.29  79.1173
 59.7556  6167.71  79.1299
 59.7976  6024.18  77.9463
 59.8396  6210.48  79.0351
 59.8816  6141.92  79.1471
 59.9236  6255.62  79.5143
 59.9656  6188.54  79.3506
 60.0076  6293.27  79.3633
 60.0496  6194.91  79.2504
 60.0916  6204.84  78.7247
 60.1336  6087.09  79.0857
 60.1756  6096.03  80.3335
 60.1996  0.0000000E+00  0.0000000E+00