File: docs/examples/opeando_xrd/IS17_D/Data/IS17_D/17_Db_f00135.xye
# /beamlines/bl04/projects/cycle2025-II/20250340211-lsimonelli/DATA/IS17_D/17_Db_f00135.xye : mythproc.py merge -s 0.006 -l 0.5 -f /beamlines/bl04/inhouse/ff/FlatField/ff_20Nov2024rod8mm60s_17keV.raw -b True -c true -o xye /beamlines/bl04/projects/cycle2025-II/20250340211-lsimonelli/DATA/IS17_D/17_Db_00135.dat
# IsMon = [6783079, 6783416, 6784552]  IsPos = [-1.5000, -2.4884, -3.4988]
# Wave = 0.4962  CalPath /beamlines/bl04/projects/cycle2025-II/20250340211-lsimonelli/DATA/Align/Si_Pos1_25keV_f00001.cal
# Date = 2025-09-25_07:19:05 Dt = 4.8000  Bin = 0.0060  <imon> = 6783682 +/- 630 (Min/Max) 6783079 / 6784552
# icurr 252.7890  mocoIn 1.7244E-05  mocoOut 0.8097  i15 7.10712e+06  imon 6.78368e+06  i7 4.0000  iEMpd_timer 4.8000  iEMpd_1 3.3493E-08  iEMpd_2 7.8873E-08  iEMpd_3 1.9452E-08  iEMpd_4 4.8358E-08  iEMhp_timer 4.8000  iEMhp_1 4.9379E-06  iEMhp_2 -2.6956E-08  iEMhp_3 -2.4096E-08  iEMhp_4 -2.0965E-08
#      9776
 1.5856  44296.3  216.126
 1.6276  51236.4  228.452
 1.6696  56743.7  239.569
 1.7116  63721.8  254.369
 1.7536  71979.4  269.197
 1.7956  75665.3  276.693
 1.8376  72951.4  272.116
 1.8796  62574.9  250.173
 1.9216  52042.3  229.053
 1.9636  44370.5  211.163
 2.0056  40426.7  200.273
 2.0476  37965.6  196.209
 2.0896  36833  192.126
 2.1316  35696.3  188.229
 2.1736  33995.9  185.149
 2.2156  34225.7  184.282
 2.2576  32988.5  181.569
 2.2996  31862.8  179.1
 2.3416  32303.3  178.895
 2.3836  31764.9  177.507
 2.4256  30437.9  174.326
 2.4676  30034.2  172.92
 2.5096  29921.1  172.651
 2.5516  30891.9  179.426
 2.5936  70876.1  266.307
 2.6356  29411  172.297
 2.6776  27926.2  166.8
 2.7196  27415.6  165.747
 2.7616  27478.6  165.732
 2.8036  26885.2  164.105
 2.8456  26884.7  164.742
 2.8876  25955.4  161.733
 2.9296  25537.2  160.553
 2.9716  25465.9  159.819
 3.0136  25486.2  159.953
 3.0556  25684.8  160.958
 3.0976  25413  159.022
 3.1396  24914.3  158.171
 3.1816  24873.3  157.978
 3.2236  24712  157.457
 3.2656  24325.6  155.276
 3.3076  24400.9  156.987
 3.3496  24476.7  156.153
 3.3916  25164.9  158.143
 3.4336  25302.5  159.167
 3.4756  25637.8  160.166
 3.5176  26432.6  162.385
 3.5596  25915.3  163.8
 3.6016  26434.5  162.468
 3.6436  25385  160.326
 3.6856  25110.8  157.75
 3.7276  24023.3  155.379
 3.7696  24019.6  155.348
 3.8116  23593.6  154.06
 3.8536  23669.7  154.244
 3.8956  23408.3  153.204
 3.9376  23865.6  154.968
 3.9796  23236.6  152.397
 4.0216  23408.8  152.002
 4.0636  23412  153.476
 4.1056  23475.6  153.336
 4.1476  23640.5  154.191
 4.1896  23853.1  154.741
 4.2316  23993.6  155.022
 4.2736  24515.4  156.497
 4.3156  24559.9  156.871
 4.3576  25325.2  159.199
 4.3996  25499.9  160.027
 4.4416  26033.5  161.275
 4.4836  26814.7  163.836
 4.5256  27047.8  165.158
 4.5676  26791.5  164.626
 4.6096  27306.5  165.223
 4.6516  27948.6  166.476
 4.6936  27880.5  167.107
 4.7356  28566.5  168.969
 4.7776  28001.3  167.119
 4.8196  27806  167.189
 4.8616  27140.7  164.666
 4.9036  27163.1  164.458
 4.9456  26957.2  164.501
 4.9876  26312.5  162.411
 5.0296  26408.7  162.547
 5.0716  26165.6  162.551
 5.1136  26485.3  163.264
 5.1556  26743.1  163.516
 5.1976  30412.5  174.351
 5.2396  27290.4  164.866
 5.2816  27381.2  165.613
 5.3236  27147.8  164.587
 5.3656  26910.5  164.814
 5.4076  26525.3  163.764
 5.4496  26719.2  163.862
 5.4916  26915.7  164.21
 5.5336  26565.1  163.15
 5.5756  26796.8  163.878
 5.6176  26591.5  162.681
 5.6596  27142.9  165.193
 5.7016  27300.5  165.095
 5.7436  27421.6  165.742
 5.7856  27281.2  165.381
 5.8276  27562.6  165.943
 5.8696  27924.6  167.095
 5.9116  27603.9  166.845
 5.9536  28005.8  167.79
 5.9956  28328.1  168.143
 6.0376  28426.3  169.062
 6.0796  28346.9  168.655
 6.1216  28312.2  168.75
 6.1636  28569.1  168.568
 6.2056  28702.8  169.641
 6.2476  28975.1  170.127
 6.2896  28839.4  169.595
 6.3316  29087.7  170.498
 6.3736  28938.7  169.952
 6.4156  28797.3  169.473
 6.4576  29228.4  170.311
 6.4996  29177.9  170.636
 6.5416  29372.3  171.33
 6.5836  29244.2  171.196
 6.6256  29506.1  171.525
 6.6676  30076.1  172.731
 6.7096  30019.4  173.433
 6.7516  30283.9  173.854
 6.7936  30957.1  175.17
 6.8356  31495.2  176.782
 6.8776  31014.8  176.235
 6.9196  30803.5  176.036
 6.9616  31213  176.644
 7.0036  31824.4  178.02
 7.0456  31774.6  177.182
 7.0876  31926.5  179.208
 7.1296  31933.6  178.445
 7.1716  31635.1  177.149
 7.2136  31556.3  176.708
 7.2556  31630.4  177.075
 7.2976  31762.8  177.944
 7.3396  31477.3  177.358
 7.3816  31831  178.563
 7.4236  31997.2  178.324
 7.4656  32289.2  178.594
 7.5076  32333  178.862
 7.5496  32204.6  179.05
 7.5916  32285.9  179.323
 7.6336  32851.2  180.769
 7.6756  32771.9  180.401
 7.7176  33426.7  182.527
 7.7596  33232.5  183.217
 7.8016  35828.1  192.565
 7.8436  33462.5  182.738
 7.8856  33650  182.859
 7.9276  34373.6  185.21
 7.9696  34562.2  186.03
 8.0116  35508.6  187.107
 8.0536  35777.5  188.068
 8.0956  36406.3  190.906
 8.1376  35983  189.261
 8.1796  36519  191.205
 8.2216  37261.6  191.872
 8.2636  37735.3  193.343
 8.3056  37116.8  192.519
 8.3476  38441.8  195.246
 8.3896  37886.1  193.913
 8.4316  37837.7  193.955
 8.4736  37484.1  192.518
 8.5156  37354.3  192.46
 8.5576  37245.5  193.143
 8.5996  37164.3  191.814
 8.6416  37064.6  192.82
 8.6836  36771.6  191.886
 8.7256  37586.5  193.444
 8.7676  38663  199.188
 8.8096  38689.5  196.487
 8.8516  38230  194.941
 8.8936  38402.1  195.271
 8.9356  37594  193.541
 8.9776  37455.9  193.266
 9.0196  37395.1  192.781
 9.0616  37612.9  192.832
 9.1036  38000.2  195.021
 9.1456  36295.4  189.921
 9.1876  36534.9  190.494
 9.2296  36325.4  189.381
 9.2716  36126  188.897
 9.3136  36246.1  189.21
 9.3556  36749.5  190.496
 9.3976  35400.2  187.488
 9.4396  35471.1  187.573
 9.4816  35259.1  186.878
 9.5236  34918.1  185.857
 9.5656  34907.2  186.193
 9.6076  34063.2  184.456
 9.6496  34279.7  184.927
 9.6916  34089.8  184.37
 9.7336  34543  185.373
 9.7756  34315.6  185.899
 9.8176  33851.1  184.268
 9.8596  33861.6  182.743
 9.9016  33285.4  181.159
 9.9436  32694.4  179.295
 9.9856  33228.5  181.206
 10.0276  32401  180.019
 10.0696  32757.9  180.031
 10.1116  32046.3  178.339
 10.1536  31939  177.687
 10.1956  31336.1  176.112
 10.2376  31065.2  174.852
 10.2796  31143  175.179
 10.3216  30607.3  173.806
 10.3636  30537.7  173.793
 10.4056  31364.3  176.54
 10.4476  31847.5  177.49
 10.4896  33685.4  181.958
 10.5316  32607.2  179.427
 10.5736  30123.7  173.218
 10.6156  29892.5  172.308
 10.6576  32706.3  178.678
 10.6996  29549.4  170.576
 10.7416  28864.8  168.805
 10.7836  29230.6  170.554
 10.8256  28051.1  167.503
 10.8676  28161.7  167.374
 10.9096  28036  167.031
 10.9516  27556.3  164.532
 10.9936  28265.3  166.848
 11.0356  27700.1  165.793
 11.0776  28465.5  167.384
 11.1196  28122.5  167.155
 11.1616  26973.1  163.372
 11.2036  27807.2  165.713
 11.2456  28238.9  167.745
 11.2876  27211.7  164.385
 11.3296  26976.4  163.579
 11.3716  27338  164.393
 11.4136  27406.2  165.469
 11.4556  27718.6  166.05
 11.4976  28433.8  167.136
 11.5396  27596.2  164.827
 11.5816  26975.2  163.397
 11.6236  26005.3  160.678
 11.6656  26362.8  160.92
 11.7076  25711.9  159.758
 11.7496  25704.8  163.79
 11.7916  25948.6  159.739
 11.8336  24913.8  157.41
 11.8756  25163.3  157.743
 11.9176  25192.8  157.508
 11.9596  25077.2  157.318
 12.0016  24758.2  157.085
 12.0436  24856.2  156.845
 12.0856  24468  156.119
 12.1276  24554.8  156.348
 12.1696  24360.8  154.84
 12.2116  24539.4  155.406
 12.2536  25905.2  160.477
 12.2956  24446.2  155.269
 12.3376  24690.1  156.256
 12.3796  24428.5  155.91
 12.4216  24685.4  155.909
 12.4636  24473.8  156.191
 12.5056  24276.7  154.817
 12.5476  24512  155.074
 12.5896  23939.4  153.896
 12.6316  24185.5  154.837
 12.6736  23777.2  154.013
 12.7156  24234.1  155.322
 12.7576  23912.3  154.547
 12.7996  24268.6  154.325
 12.8416  24242.2  155.3
 12.8836  24698.5  156.588
 12.9256  24837.1  156.05
 12.9676  24496  155.372
 13.0096  24712.3  157.181
 13.0516  24573.7  155.768
 13.0936  24637.9  156.099
 13.1356  24857.8  156.039
 13.1776  24398.1  155.605
 13.2196  24418.9  155.309
 13.2616  24391.8  155.542
 13.3036  24670.9  156.564
 13.3456  24286.4  155.511
 13.3876  24871.6  156.646
 13.4296  24523.6  155.717
 13.4716  24788.4  156.177
 13.5136  24584.2  155.652
 13.5556  24521.9  156.099
 13.5976  24821.5  157.222
 13.6396  24909.7  156.849
 13.6816  25042  157.617
 13.7236  25276.9  158.054
 13.7656  26778.3  163.155
 13.8076  27679.3  164.532
 13.8496  26317.3  161.269
 13.8916  24870.1  157.713
 13.9336  24277.5  155.103
 13.9756  24404.1  154.88
 14.0176  23990.4  154.245
 14.0596  24469  155.691
 14.1016  23862.6  154.189
 14.1436  24028.1  153.849
 14.1856  23470.3  152.34
 14.2276  23622.3  153.322
 14.2696  23685.1  153.374
 14.3116  22888.6  150.685
 14.3536  22502.3  149.574
 14.3956  22447  149.108
 14.4376  22630.1  149.502
 14.4796  22412.7  148.782
 14.5216  22515.9  149.915
 14.5636  22274.3  148.68
 14.6056  22448.2  148.811
 14.6476  22136.2  147.02
 14.6896  21785.2  146.397
 14.7316  21708.8  147.185
 14.7736  21224.3  144.674
 14.8156  21007.5  143.942
 14.8576  21122.4  144.204
 14.8996  20774.1  144.214
 14.9416  20381.1  142.849
 14.9836  20459.5  143.108
 15.0256  19991.2  140.373
 15.0676  19849.4  140.18
 15.1096  19564.2  138.915
 15.1516  19515.9  139.301
 15.1936  19314  138.01
 15.2356  19165.6  137.754
 15.2776  19065.2  136.985
 15.3196  18683.5  136.593
 15.3616  18547.2  135.853
 15.4036  18623  135.996
 15.4456  18949.1  136.82
 15.4876  18390.1  134.479
 15.5296  18355.5  134.638
 15.5716  17746.1  131.993
 15.6136  18105.9  133.654
 15.6556  18657.5  134.903
 15.6976  18170.3  133.426
 15.7396  17947.7  132.991
 15.7816  17760.1  131.808
 15.8236  17566.7  131.779
 15.8656  17729.8  132.184
 15.9076  17498  131.136
 15.9496  18385.2  137.279
 15.9916  17743.9  135.268
 16.0336  18049.6  133.257
 16.0756  17783.8  132.61
 16.1176  17482.2  131.384
 16.1596  17251.6  131.861
 16.2016  17187.8  130.375
 16.2436  17156  130.639
 16.2856  17070.4  129.837
 16.3276  16642.2  128.624
 16.3696  16953  129.638
 16.4116  16740.8  129.277
 16.4536  16710.6  128.969
 16.4956  17233.9  130.699
 16.5376  16783.5  129.161
 16.5796  16729.5  128.319
 16.6216  16826.8  128.965
 16.6636  16711.7  128.714
 16.7056  16615.1  128.196
 16.7476  16790.9  128.405
 16.7896  16841.3  129.353
 16.8316  16826.9  129.275
 16.8736  16930.4  129.928
 16.9156  16651.1  129.188
 16.9576  16455.4  129.224
 16.9996  16377.2  129.402
 17.0416  16406.3  127.888
 17.0836  16608.7  128.429
 17.1256  16306.7  127.265
 17.1676  16640  128.51
 17.2096  16392.6  127.45
 17.2516  16247.8  126.975
 17.2936  16000.8  126.062
 17.3356  15685.5  124.803
 17.3776  15770.9  125.326
 17.4196  15643.3  124.517
 17.4616  15893.9  125.417
 17.5036  15796.5  125.397
 17.5456  15663.3  125.511
 17.5876  15426.7  123.603
 17.6296  15726.8  124.611
 17.6716  15418.7  123.987
 17.7136  15834.8  125.777
 17.7556  15355.6  124.164
 17.7976  15439.7  124.234
 17.8396  15222.9  122.857
 17.8816  15125.2  123.028
 17.9236  15099  122.708
 17.9656  15048.1  123.025
 18.0076  15276.2  123.534
 18.0496  15570  123.838
 18.0916  17330.2  131.242
 18.1336  16740.8  129.087
 18.1756  15653  124.367
 18.2176  15517.2  124.043
 18.2596  14921.7  121.364
 18.3016  15255.7  122.986
 18.3436  15468.2  123.843
 18.3856  15153.3  122.71
 18.4276  14965.2  121.627
 18.4696  14833.4  121.174
 18.5116  14930  121.848
 18.5536  14709.7  121.309
 18.5956  14691.9  120.792
 18.6376  14859.6  121.89
 18.6796  14826.2  121.069
 18.7216  14702.8  121.048
 18.7636  14652.7  120.848
 18.8056  14252.2  119.103
 18.8476  14237.7  119.679
 18.8896  14193.9  118.818
 18.9316  14471.4  119.958
 18.9736  14316.2  119.023
 19.0156  14421.9  119.879
 19.0576  14603.9  119.452
 19.0996  14515.2  119.823
 19.1416  14399.6  119.742
 19.1836  14208.2  118.551
 19.2256  14088.5  118.27
 19.2676  14231.5  118.951
 19.3096  14146  118.843
 19.3516  14261.8  119.098
 19.3936  14157.9  118.741
 19.4356  14362.9  119.483
 19.4776  14297.5  119.301
 19.5196  14147.8  118.532
 19.5616  14210.1  119.045
 19.6036  14073.2  117.967
 19.6456  14340.6  119.201
 19.6876  14412.4  119.134
 19.7296  14335.5  119.284
 19.7716  14138  118.634
 19.8136  14507.7  120.369
 19.8556  14931.9  121.585
 19.8976  14919.8  121.596
 19.9396  14887.7  121.049
 19.9816  14652.9  120.342
 20.0236  14563.8  120.166
 20.0656  14171  118.536
 20.1076  14176  119.032
 20.1496  13757.3  117.259
 20.1916  13970.7  117.641
 20.2336  13883.5  117.244
 20.2756  13739.1  117.063
 20.3176  13606  116.247
 20.3596  13484.2  115.708
 20.4016  13710.6  116.471
 20.4436  13508  116.168
 20.4856  13465  115.781
 20.5276  13452.6  116.183
 20.5696  13401.7  115.523
 20.6116  13325.8  115.364
 20.6536  13333  114.913
 20.6956  13328.8  115.021
 20.7376  13191.2  114.636
 20.7796  13328.5  114.92
 20.8216  13484.4  115.304
 20.8636  13435.2  115.474
 20.9056  13717.1  116.612
 20.9476  13428.1  115.223
 20.9896  13919.4  117.175
 21.0316  13254.5  114.241
 21.0736  13325.7  115.073
 21.1156  13410.1  115.597
 21.1576  13415.7  115.662
 21.1996  13185.1  114.642
 21.2416  13217.6  114.612
 21.2836  13158.6  114.328
 21.3256  13092.1  114.116
 21.3676  13197.2  114.108
 21.4096  13229  114.623
 21.4516  13183.1  114.233
 21.4936  12810.7  112.883
 21.5356  13045.2  113.858
 21.5776  13046.2  113.696
 21.6196  13041.8  113.715
 21.6616  12994.4  113.587
 21.7036  13097.4  113.806
 21.7456  12810.2  112.631
 21.7876  12776.6  112.246
 21.8296  12792.9  112.161
 21.8716  12868.6  112.716
 21.9136  13047.8  113.708
 21.9556  12990.4  113.136
 21.9976  12727.1  112.01
 22.0396  12764.4  112.428
 22.0816  12759.8  112.935
 22.1236  13243  114.505
 22.1656  12842.1  112.899
 22.2076  12545.4  111.041
 22.2496  12679.2  111.665
 22.2916  12590.6  111.161
 22.3336  12499.6  111.478
 22.3756  12617.8  111.722
 22.4176  12420.4  110.699
 22.4596  12162.5  110.124
 22.5016  12558.3  111.406
 22.5436  12633.5  111.613
 22.5856  12755.5  112.4
 22.6276  12823.7  112.835
 22.6696  12491.6  111.72
 22.7116  12502.3  111.275
 22.7536  12592.8  111.657
 22.7956  12666.3  111.313
 22.8376  12283  110.13
 22.8796  12416.3  110.528
 22.9216  12515.9  111.513
 22.9636  12501.1  110.604
 23.0056  12580.5  111.088
 23.0476  12519.8  111.39
 23.0896  12627.8  111.247
 23.1316  12543.5  111.312
 23.1736  12596.9  114.493
 23.2156  12735.3  112.487
 23.2576  13033.9  113.933
 23.2996  12606.4  111.823
 23.3416  12898.8  113.651
 23.3836  12756.1  112.242
 23.4256  12776.7  112.453
 23.4676  12712  111.864
 23.5096  12715.4  112.524
 23.5516  12702.7  111.778
 23.5936  12659.4  112.503
 23.6356  13042.7  113.849
 23.6776  12623.9  112.221
 23.7196  12577.6  111.803
 23.7616  12699.6  112.046
 23.8036  12792.7  112.509
 23.8456  12624.5  111.319
 23.8876  12556.7  111.382
 23.9296  12454.6  111.416
 23.9716  12626  111.374
 24.0136  12599  112.165
 24.0556  12294.6  110.513
 24.0976  12337  110.524
 24.1396  12222.8  112.649
 24.1816  12365  111.694
 24.2236  12332.7  111.172
 24.2656  12300.8  110.496
 24.3076  12323.2  110.877
 24.3496  12312.4  110.703
 24.3916  12358.8  110.961
 24.4336  12156.6  110.256
 24.4756  12211  110.389
 24.5176  12070  109.377
 24.5596  12153.4  110.079
 24.6016  11973  109.348
 24.6436  12149.8  109.66
 24.6856  12025.8  108.844
 24.7276  11830.9  108.28
 24.7696  11830.1  108.383
 24.8116  11712  108.02
 24.8536  11785  108.364
 24.8956  11752.6  107.945
 24.9376  11669.6  107.738
 24.9796  11624.7  107.648
 25.0216  11623.1  107.755
 25.0636  11607.1  107.332
 25.1056  11391.3  107.028
 25.1476  11475  109.072
 25.1896  11478.8  107.585
 25.2316  11346.7  106.232
 25.2736  11274.9  105.546
 25.3156  11259.1  105.552
 25.3576  11268.4  106.024
 25.3996  11249.8  105.927
 25.4416  11359.2  106.413
 25.4836  10988.3  105.175
 25.5256  11265.9  105.864
 25.5676  11261.8  105.564
 25.6096  11112.4  105.441
 25.6516  11142.9  105.09
 25.6936  11203.6  105.694
 25.7356  11122.2  105.442
 25.7776  11121  105.11
 25.8196  11042.3  104.9
 25.8616  11016.8  104.711
 25.9036  11234.9  105.188
 25.9456  10976.7  104.578
 25.9876  11218.3  105.628
 26.0296  11161.1  105.028
 26.0716  11156.5  105.433
 26.1136  11132.9  105.246
 26.1556  11214.3  105.013
 26.1976  10923.4  104.576
 26.2396  11015.3  104.164
 26.2816  11081.7  105.092
 26.3236  11172.8  105.683
 26.3656  11244.6  105.74
 26.4076  10962.1  104.615
 26.4496  11139.5  105.041
 26.4916  11177.2  105.111
 26.5336  11393  106.465
 26.5756  11727.4  107.893
 26.6176  11170.6  105.325
 26.6596  10921.2  104.441
 26.7016  10913.6  104.175
 26.7436  11008.7  104.758
 26.7856  10800.7  103.755
 26.8276  10890  104.146
 26.8696  10786.2  103.519
 26.9116  10659.2  102.838
 26.9536  10633.1  102.769
 26.9956  10487.3  102.093
 27.0376  10687.8  103.289
 27.0796  10745.3  103.293
 27.1216  10740.5  103.315
 27.1636  10420.1  101.942
 27.2056  10593.3  102.673
 27.2476  10528.2  102.337
 27.2896  10527.2  102.461
 27.3316  10483.2  101.955
 27.3736  10400.9  101.827
 27.4156  10579.2  102.532
 27.4576  10425.2  102.008
 27.4996  10588.2  102.405
 27.5416  10341.1  101.52
 27.5836  10399  101.63
 27.6256  10541.5  102.51
 27.6676  10399.7  101.808
 27.7096  10513.9  102.246
 27.7516  10608  102.849
 27.7936  10881.8  104.314
 27.8356  10697.4  103.041
 27.8776  10682.1  103.036
 27.9196  10384.6  101.446
 27.9616  10456.1  101.992
 28.0036  10398  101.672
 28.0456  10146.9  100.57
 28.0876  10164.3  100.745
 28.1296  10181  100.651
 28.1716  10325  101.385
 28.2136  10252.2  100.998
 28.2556  10169.3  100.701
 28.2976  10081.8  100.263
 28.3396  10222.8  100.72
 28.3816  10237.8  100.795
 28.4236  10185.1  100.691
 28.4656  9993.82  99.7866
 28.5076  10062.2  99.7647
 28.5496  9978.19  99.6021
 28.5916  10097.6  100.008
 28.6336  10083.9  100.284
 28.6756  10094.7  99.53
 28.7176  9932.06  99.2828
 28.7596  9815.31  98.5888
 28.8016  9926.29  99.1788
 28.8436  9803.65  98.8061
 28.8856  9943.69  99.3648
 28.9276  9924.65  99.5137
 28.9696  9967.37  99.3834
 29.0116  9860.05  99.0216
 29.0536  9770.07  98.7867
 29.0956  9930.53  99.2863
 29.1376  9905.85  99.1414
 29.1796  9850.21  98.9122
 29.2216  9798.07  98.4874
 29.2636  9881.49  98.9843
 29.3056  9874.05  98.7161
 29.3476  9770.3  98.7236
 29.3896  9770.51  98.8504
 29.4316  9672.07  97.6783
 29.4736  9447.68  96.6002
 29.5156  9589.02  97.244
 29.5576  9583.81  97.9587
 29.5996  9531.24  96.9517
 29.6416  9494.89  96.8836
 29.6836  9533.66  97.0108
 29.7256  9502.94  97.4144
 29.7676  9496.05  97.0411
 29.8096  9483.06  96.9205
 29.8516  9353.68  96.5864
 29.8936  9585.65  97.8672
 29.9356  9618.58  97.7921
 29.9776  9540.11  97.538
 30.0196  9491.49  96.6902
 30.0616  9450.16  96.8481
 30.1036  9496.11  96.908
 30.1456  9348.62  96.3811
 30.1876  9443.01  96.8491
 30.2296  9265.1  95.8803
 30.2716  9529.82  96.877
 30.3136  9506.87  97.6195
 30.3556  9663.5  98.4227
 30.3976  9603.58  99.6308
 30.4396  10028.3  99.0949
 30.4816  9697.78  97.0514
 30.5236  9788.14  97.5052
 30.5656  9701.67  97.7343
 30.6076  9642.56  97.1874
 30.6496  9763.36  97.8652
 30.6916  9429.65  96.2644
 30.7336  9584.54  97.1839
 30.7756  9658.33  97.6552
 30.8176  9518.72  96.8711
 30.8596  9514.45  96.5924
 30.9016  9677.5  97.3117
 30.9436  9624.98  97.2624
 30.9856  9647.57  97.4936
 31.0276  9475.2  96.2536
 31.0696  9482.15  96.8504
 31.1116  9525.53  97.0508
 31.1536  9366.04  96.0931
 31.1956  9434.75  96.5536
 31.2376  9186.17  95.293
 31.2796  9417.8  96.0194
 31.3216  9512.39  96.422
 31.3636  9374.91  96.4331
 31.4056  9397.82  97.8787
 31.4476  9481.18  96.1858
 31.4896  9551.11  97.0452
 31.5316  9486.75  96.1193
 31.5736  9912.92  98.0838
 31.6156  9748.87  97.2739
 31.6576  9683.88  97.0222
 31.6996  9518.65  95.8791
 31.7416  9635.3  97.407
 31.7836  9618.8  96.4619
 31.8256  9607  96.6657
 31.8676  9412.27  95.6697
 31.9096  9265.66  95.147
 31.9516  9219.29  95.2295
 31.9936  9170.13  94.7954
 32.0356  9510.03  96.5979
 32.0776  9517.1  96.5187
 32.1196  9607.05  96.9852
 32.1616  9612.26  96.543
 32.2036  9387.5  95.9203
 32.2456  9319.67  95.9637
 32.2876  9284.82  95.2759
 32.3296  9275.01  95.186
 32.3716  9057.16  94.173
 32.4136  9160.36  94.9073
 32.4556  9276.58  94.8934
 32.4976  9215.42  94.5292
 32.5396  9002.12  93.4561
 32.5816  9106.16  94.113
 32.6236  9108.28  94.1817
 32.6656  9210.02  95.265
 32.7076  9039.68  94.0355
 32.7496  9053.97  93.778
 32.7916  9019.84  93.5638
 32.8336  9063.95  93.8844
 32.8756  9180.28  94.1994
 32.9176  9007.93  93.8022
 32.9596  9042.82  94.0546
 33.0016  9134.33  94.2978
 33.0436  9088.37  94.2379
 33.0856  9089.58  94.3414
 33.1276  8895.43  93.0564
 33.1696  9143.38  94.174
 33.2116  9109.21  94.2405
 33.2536  9228.85  94.8388
 33.2956  9061.17  94.0665
 33.3376  8802.35  92.5345
 33.3796  9049.96  93.9666
 33.4216  9058.13  93.5839
 33.4636  8962.86  93.2573
 33.5056  8867.89  93.0063
 33.5476  8944.77  93.3772
 33.5896  8900.9  92.9496
 33.6316  8949.67  93.5111
 33.6736  8797.03  92.9637
 33.7156  8842.06  93.2302
 33.7576  9011.38  93.7574
 33.7996  8990.24  93.4038
 33.8416  8781.58  92.5019
 33.8836  8798.5  92.3645
 33.9256  8995.7  93.4505
 33.9676  8954.82  93.1363
 34.0096  8801.11  92.6443
 34.0516  8722.71  91.8661
 34.0936  8740.25  92.2379
 34.1356  8917.22  92.9017
 34.1776  8692.87  91.7146
 34.2196  8799.47  92.4699
 34.2616  8690.61  92.0375
 34.3036  8706.75  92.3612
 34.3456  8633.33  91.7301
 34.3876  8883.83  93.116
 34.4296  8705.61  91.7766
 34.4716  8781.53  92.3212
 34.5136  8759.62  92.3985
 34.5556  8638.87  92.022
 34.5976  8871.43  93.0908
 34.6396  8633.61  91.5079
 34.6816  8721.71  92.085
 34.7236  8807.19  92.3102
 34.7656  8793.76  92.4555
 34.8076  8677  92.1736
 34.8496  8627.95  91.7577
 34.8916  8707.46  92.0453
 34.9336  8621.32  91.5684
 34.9756  8720.78  92.0352
 35.0176  8636.69  92.1002
 35.0596  8744.23  92.4956
 35.1016  8681.77  91.9109
 35.1436  8828.85  92.3723
 35.1856  8693.48  91.7887
 35.2276  8665.59  91.8086
 35.2696  8646.28  91.9036
 35.3116  8513.95  91.2997
 35.3536  8707.74  92.0617
 35.3956  8571.12  91.0253
 35.4376  8521.57  91.3299
 35.4796  8549.02  91.5094
 35.5216  8560.16  91.5371
 35.5636  8400.98  91.4214
 35.6056  8445.91  90.6875
 35.6476  8697.46  91.9195
 35.6896  8587.71  91.4369
 35.7316  8451.53  90.686
 35.7736  8465.6  90.9504
 35.8156  8570.46  91.5098
 35.8576  8543.18  91.6081
 35.8996  8638.62  92.0951
 35.9416  8559.26  91.1699
 35.9836  8447.21  91.0334
 36.0256  8670.02  92.105
 36.0676  8640.76  91.7108
 36.1096  8565.72  91.4675
 36.1516  8656.66  91.8465
 36.1936  8522.81  90.9733
 36.2356  8574.32  91.901
 36.2776  8517.15  91.0535
 36.3196  8456.14  90.3992
 36.3616  8490.64  90.7201
 36.4036  8391.82  90.2681
 36.4456  8512.71  91.1228
 36.4876  8291.62  89.8737
 36.5296  8390.87  90.4518
 36.5716  8331.11  90.8972
 36.6136  8314.27  89.5913
 36.6556  8340.81  89.9307
 36.6976  8187.64  89.6007
 36.7396  8223.62  89.5258
 36.7816  8238.85  89.9862
 36.8236  8260.94  90.0262
 36.8656  8167.15  89.5935
 36.9076  8115.38  89.1831
 36.9496  8108.07  89.1298
 36.9916  8205.06  89.2905
 37.0336  8225.94  89.717
 37.0756  8126.5  88.9702
 37.1176  8031.4  88.7131
 37.1596  8117.06  89.1931
 37.2016  8026.09  88.9145
 37.2436  8268.45  89.5525
 37.2856  8191.38  89.3946
 37.3276  8238.38  89.0032
 37.3696  8125.51  89.276
 37.4116  8262.03  89.9272
 37.4536  8055.09  88.6627
 37.4956  7996.83  88.3861
 37.5376  8280.07  91.5374
 37.5796  8076.88  90.3382
 37.6216  8059.38  88.5107
 37.6636  8214.98  89.2487
 37.7056  8276.99  89.7728
 37.7476  8315.31  89.5191
 37.7896  7985.3  88.2322
 37.8316  8220.99  89.6776
 37.8736  8154.88  88.8505
 37.9156  8164.5  88.8795
 37.9576  8203.8  89.0178
 37.9996  8095.58  88.1391
 38.0416  8115.59  89.0528
 38.0836  8278.95  89.8444
 38.1256  8125.03  88.9867
 38.1676  8010.25  88.4796
 38.2096  8288.52  89.6081
 38.2516  8233.82  89.5335
 38.2936  8276.87  89.553
 38.3356  8117.1  88.6238
 38.3776  8133.75  88.9628
 38.4196  8081.78  88.5234
 38.4616  8176.37  89.3014
 38.5036  8372.22  90.2019
 38.5456  8079.3  89.441
 38.5876  8058.11  89.3593
 38.6296  8083.84  88.447
 38.6716  8213.86  88.9615
 38.7136  8004.17  87.7752
 38.7556  7967.05  88.0758
 38.7976  8084.29  88.6433
 38.8396  8050.41  88.9112
 38.8816  8097.03  88.9742
 38.9236  8118.95  88.8915
 38.9656  8064.75  88.5033
 39.0076  8261.82  88.968
 39.0496  8207.56  89.2394
 39.0916  8176.01  88.7093
 39.1336  8124.3  88.8358
 39.1756  8136.26  88.9783
 39.2176  7961.62  88.5404
 39.2596  8095.81  89.2127
 39.3016  8101.42  88.8247
 39.3436  7952.18  88.4152
 39.3856  8095.44  88.6466
 39.4276  8215.31  89.8158
 39.4696  8096.13  88.7783
 39.5116  8155.51  89.622
 39.5536  8138.26  89.9482
 39.5956  8096.06  88.8133
 39.6376  8055.12  88.5897
 39.6796  8061.65  88.3718
 39.7216  7992.48  88.0877
 39.7636  8088.3  89.1767
 39.8056  8128.33  89.1887
 39.8476  7936.92  88.3862
 39.8896  8000.99  88.3701
 39.9316  8002.11  88.6237
 39.9736  8107.8  88.778
 40.0156  7976.59  87.8921
 40.0576  7975.27  88.2369
 40.0996  8126.83  88.2492
 40.1416  7982.85  88.2604
 40.1836  8099.57  88.7873
 40.2256  8122.69  88.951
 40.2676  7883.79  87.8117
 40.3096  8043.76  88.5499
 40.3516  8139.74  89.1903
 40.3936  8195.81  89.0505
 40.4356  8027.6  88.3403
 40.4776  8176.12  89.3913
 40.5196  8168.63  89.6476
 40.5616  8283.46  89.9047
 40.6036  8015.88  88.6967
 40.6456  8028.86  88.3735
 40.6876  8139.85  88.9811
 40.7296  7989.47  88.2882
 40.7716  8102.64  89.0341
 40.8136  7934.37  88.0533
 40.8556  8149.61  89.3645
 40.8976  7980.4  88.3614
 40.9396  8091.52  89.3241
 40.9816  8172.6  89.053
 41.0236  8058.9  88.2122
 41.0656  8061.59  88.7659
 41.1076  8063.61  88.5492
 41.1496  8084.91  88.5663
 41.1916  8119.41  89.0767
 41.2336  8078.04  88.8549
 41.2756  7952.29  87.7652
 41.3176  8042.91  88.873
 41.3596  8064.02  88.7244
 41.4016  8039.26  88.8521
 41.4436  8094.65  88.9367
 41.4856  8065.98  88.949
 41.5276  7983.43  88.5084
 41.5696  7999.06  88.2261
 41.6116  8070.66  89.013
 41.6536  8128.43  89.1751
 41.6956  8163.35  89.3594
 41.7376  7979.28  88.4507
 41.7796  7930.52  88.0613
 41.8216  7982.57  88.5896
 41.8636  7990.63  88.5728
 41.9056  7947.49  88.126
 41.9476  8099.26  89.2032
 41.9896  8192.55  89.3724
 42.0316  8137.09  89.1564
 42.0736  8160.06  89.4176
 42.1156  8102.75  88.9068
 42.1576  8027.54  88.5983
 42.1996  8123.12  89.2506
 42.2416  7915.46  87.6927
 42.2836  7965.12  88.0868
 42.3256  7912.69  87.9043
 42.3676  8126.04  88.8767
 42.4096  8014.1  88.2407
 42.4516  8004.85  88.2605
 42.4936  7952.42  88.0557
 42.5356  7917.8  88.0034
 42.5776  8129.96  89.1057
 42.6196  7968.21  88.2752
 42.6616  7856.76  87.8264
 42.7036  7957.91  87.7681
 42.7456  8054.94  88.6619
 42.7876  7903.05  87.9152
 42.8296  8015.42  88.3757
 42.8716  7917.93  87.9923
 42.9136  7799.07  87.0815
 42.9556  7985.76  88.294
 42.9976  7943.28  88.0237
 43.0396  7866.72  87.329
 43.0816  7865.64  87.7085
 43.1236  7916.02  88.0424
 43.1656  7933.83  87.9586
 43.2076  7895.15  87.8595
 43.2496  7938.46  87.9153
 43.2916  7864.46  87.8716
 43.3336  7982.93  88.3463
 43.3756  7921.34  87.7704
 43.4176  7823.35  87.2953
 43.4596  7772.6  86.8856
 43.5016  7884.72  87.9102
 43.5436  7832.91  87.5152
 43.5856  7830.25  87.5413
 43.6276  7785.08  87.181
 43.6696  7795.01  87.4929
 43.7116  7932.49  87.7508
 43.7536  7858.39  87.843
 43.7956  7800.96  88.7529
 43.8376  7719.85  86.7979
 43.8796  7592.68  86.1581
 43.9216  7666.23  86.4917
 43.9636  7694.4  86.759
 44.0056  7660.45  86.8009
 44.0476  7681.3  86.5462
 44.0896  7619.37  86.5407
 44.1316  7771.93  86.9214
 44.1736  7618.16  86.1839
 44.2156  7696.94  86.4807
 44.2576  7582.86  86.1616
 44.2996  7623.45  86.3658
 44.3416  7741.99  86.7879
 44.3836  7481.19  85.6466
 44.4256  7580.04  85.8463
 44.4676  7587.35  86.0474
 44.5096  7530.75  85.8678
 44.5516  7535.41  85.8596
 44.5936  7584.38  86.0919
 44.6356  7677.45  86.3542
 44.6776  7558.98  86.0037
 44.7196  7583.71  86.4528
 44.7616  7621.63  87.9975
 44.8036  7703.82  87.0822
 44.8456  7792.06  87.5876
 44.8876  7754.91  87.2179
 44.9296  7901.4  87.4717
 44.9716  7680.56  86.6776
 45.0136  7784.17  87.1885
 45.0556  7734.9  87.0111
 45.0976  7756.93  87.1871
 45.1396  7683.42  86.5105
 45.1816  7648.19  86.2669
 45.2236  7800.79  87.0237
 45.2656  7564.19  86.1824
 45.3076  7716.77  86.836
 45.3496  7631.88  86.6691
 45.3916  7767.18  87.7093
 45.4336  7768.51  87.5513
 45.4756  7707.08  87.0567
 45.5176  7629.43  86.2347
 45.5596  7776.13  87.1865
 45.6016  7769.57  87.5773
 45.6436  7638.97  86.0029
 45.6856  7720.68  87.1286
 45.7276  7571.68  87.6116
 45.7696  7634.65  87.6542
 45.8116  7603.35  86.8973
 45.8536  7541.01  86.4207
 45.8956  7701.93  86.6936
 45.9376  7686.96  86.0657
 45.9796  7696.3  86.8191
 46.0216  7637.32  86.8284
 46.0636  7766.9  86.665
 46.1056  7709.87  86.3479
 46.1476  7599.41  86.3392
 46.1896  7764.36  87.4241
 46.2316  7690.32  86.8637
 46.2736  7680.26  87.0293
 46.3156  7590.19  86.2564
 46.3576  7681.44  86.9784
 46.3996  7544.57  86.3594
 46.4416  7572.88  86.0717
 46.4836  7554.97  86.349
 46.5256  7674.7  86.9735
 46.5676  7521.16  86.2188
 46.6096  7595.27  86.561
 46.6516  7667  85.9961
 46.6936  7761.61  87.0327
 46.7356  7770.94  87.1886
 46.7776  7478.46  86.3878
 46.8196  7546.59  86.5233
 46.8616  7412.85  85.5549
 46.9036  7497.42  85.6903
 46.9456  7478.52  85.221
 46.9876  7562.76  85.7793
 47.0296  7519.86  86.2376
 47.0716  7533.96  86.1406
 47.1136  7557.11  85.9469
 47.1556  7557.45  85.8124
 47.1976  7563.2  86.0002
 47.2396  7599.57  86.5397
 47.2816  7450.69  85.3833
 47.3236  7477.87  85.9008
 47.3656  7528.68  86.1386
 47.4076  7575.13  86.1201
 47.4496  7525.79  86.0145
 47.4916  7429.74  85.658
 47.5336  7535.35  86.0734
 47.5756  7569.37  86.3834
 47.6176  7465.86  85.6955
 47.6596  7435.38  85.2231
 47.7016  7594.31  85.9409
 47.7436  7453.07  85.4824
 47.7856  7572.3  86.189
 47.8276  7507.53  85.864
 47.8696  7500.87  85.9169
 47.9116  7565.09  85.9956
 47.9536  7368.4  84.81
 47.9956  7335.94  85.3429
 48.0376  7362.85  85.2705
 48.0796  7545.02  86.4394
 48.1216  7384.48  85.3446
 48.1636  7509.64  85.6199
 48.2056  7437.54  85.4843
 48.2476  7601.84  86.7331
 48.2896  7595.5  86.6142
 48.3316  7519.34  86.1184
 48.3736  7465.84  85.8305
 48.4156  7538.5  86.1004
 48.4576  7532.24  86.3622
 48.4996  7583.41  86.0988
 48.5416  7620.49  86.6393
 48.5836  7573.09  86.0341
 48.6256  7457.22  85.5909
 48.6676  7495.96  86.3366
 48.7096  7515.82  85.7043
 48.7516  7579.34  86.2168
 48.7936  7371.38  85.0904
 48.8356  7434.21  85.5028
 48.8776  7514.79  86.5544
 48.9196  7601.1  86.3939
 48.9616  7422.94  85.7575
 49.0036  7528.3  86.7348
 49.0456  7446.06  86.2317
 49.0876  7398.2  85.4841
 49.1296  7458.23  85.9862
 49.1716  7370.33  85.3638
 49.2136  7430.54  85.6325
 49.2556  7501.08  86.068
 49.2976  7391.79  85.5078
 49.3396  7399.14  85.61
 49.3816  7615.09  86.2591
 49.4236  7518.22  86.1494
 49.4656  7301.51  84.914
 49.5076  7527.53  85.9599
 49.5496  7312.64  84.7932
 49.5916  7464  85.5719
 49.6336  7381.45  85.3045
 49.6756  7528.21  86.389
 49.7176  7333.49  85.2024
 49.7596  7446.4  85.6176
 49.8016  7429.88  85.4434
 49.8436  7323.26  85.1365
 49.8856  7510.39  86.2155
 49.9276  7331.42  85.2921
 49.9696  7369.75  85.4937
 50.0116  7424.33  85.9455
 50.0536  7424.2  85.8934
 50.0956  7303.55  85.2604
 50.1376  7417.19  85.5956
 50.1796  7313.09  85.2872
 50.2216  7356.92  85.5379
 50.2636  7220.67  84.3477
 50.3056  7288.9  84.9269
 50.3476  7327.99  85.17
 50.3896  7288.67  84.9228
 50.4316  7419.96  85.5097
 50.4736  7274.45  84.8904
 50.5156  7318.78  85.1409
 50.5576  7357.22  85.1193
 50.5996  7282.45  84.9698
 50.6416  7274.66  84.8545
 50.6836  7317.19  85.1606
 50.7256  7382.56  85.4569
 50.7676  7431.64  86.0756
 50.8096  7359.25  85.1643
 50.8516  7302.92  85.2836
 50.8936  7288.97  84.9691
 50.9356  7366.81  85.5351
 50.9776  7386.67  85.8118
 51.0196  7043.94  83.9256
 51.0616  7183.47  84.0641
 51.1036  7238.91  84.7533
 51.1456  7336.78  85.2331
 51.1876  7224.77  83.8971
 51.2296  7253.39  84.7186
 51.2716  7110.37  83.5841
 51.3136  7050.77  83.701
 51.3556  7186.13  84.1094
 51.3976  7166.93  84.1531
 51.4396  6886.36  82.8019
 51.4816  7054.05  83.6514
 51.5236  7109.49  84.0713
 51.5656  6950.72  82.7198
 51.6076  7230.31  84.4528
 51.6496  7063.25  83.6667
 51.6916  7049.2  83.9485
 51.7336  7098.82  84.3363
 51.7756  7102.82  84.0371
 51.8176  7017.57  83.6561
 51.8596  7030.52  83.7484
 51.9016  7112.47  83.8315
 51.9436  7050.45  84.9786
 51.9856  7146.55  85.9726
 52.0276  7179.71  84.629
 52.0696  7339.94  85.6403
 52.1116  7053.42  84.0762
 52.1536  7148.05  84.4618
 52.1956  7124.7  83.8337
 52.2376  7301.27  85.0443
 52.2796  7175.75  84.1236
 52.3216  6932.8  83.38
 52.3636  7204.61  84.548
 52.4056  7162.17  84.1676
 52.4476  7190.47  84.7071
 52.4896  6948.2  83.2898
 52.5316  7297.09  85.4334
 52.5736  6993.36  83.3531
 52.6156  7188.57  84.9173
 52.6576  7005.84  83.2554
 52.6996  6899.22  83.6176
 52.7416  6939.59  83.7058
 52.7836  6981.28  83.8541
 52.8256  7038.59  83.3898
 52.8676  6830.73  82.7239
 52.9096  7104.4  84.4537
 52.9516  7086.97  84.7417
 52.9936  7022.69  84.7329
 53.0356  7099.27  84.1778
 53.0776  7060.25  84.2232
 53.1196  7109.57  84.6399
 53.1616  7170.65  85.0569
 53.2036  7004.69  84.0276
 53.2456  7089.47  84.6344
 53.2876  7193.11  84.9312
 53.3296  6990.94  84.0505
 53.3716  7121.2  84.5864
 53.4136  7070.99  84.4438
 53.4556  6917.39  83.5496
 53.4976  7041.96  84.1272
 53.5396  6939.3  83.9359
 53.5816  7061.47  84.2896
 53.6236  6955.88  84.0177
 53.6656  7028.95  84.0576
 53.7076  7048.34  84.1226
 53.7496  7059.17  84.3225
 53.7916  6978.45  83.9681
 53.8336  7071.11  84.4246
 53.8756  7008.24  84.6063
 53.9176  6873.71  83.1287
 53.9596  6732.38  83.0415
 54.0016  6789.3  82.7017
 54.0436  6706.29  82.4228
 54.0856  7010.45  83.6744
 54.1276  6835.93  82.8331
 54.1696  6714.12  82.2559
 54.2116  6967.3  83.5366
 54.2536  6716.19  81.8321
 54.2956  6793.16  82.3528
 54.3376  6712.35  82.3517
 54.3796  6683.99  82.0714
 54.4216  6732.76  82.4292
 54.4636  6668.97  81.9988
 54.5056  6797.78  82.5821
 54.5476  6702.65  82.3498
 54.5896  6657.46  81.9027
 54.6316  6792.88  82.5787
 54.6736  6701.06  82.1003
 54.7156  6701.01  82.1336
 54.7576  6628.64  81.6572
 54.7996  6836.99  83.1043
 54.8416  6720.87  82.4405
 54.8836  6685.8  82.3262
 54.9256  6575.51  81.3921
 54.9676  6544.01  81.0618
 55.0096  6641.67  81.7244
 55.0516  6498.61  81.0348
 55.0936  6725.7  82.1232
 55.1356  6547.69  81.0658
 55.1776  6751.24  82.5592
 55.2196  6660.31  81.7907
 55.2616  6723.25  82.4056
 55.3036  6554.71  81.5162
 55.3456  6409.29  80.7699
 55.3876  6593.56  81.6426
 55.4296  6522.44  81.202
 55.4716  6615.02  81.791
 55.5136  6641.83  81.729
 55.5556  6681.37  82.0123
 55.5976  6570.84  81.4149
 55.6396  6510.9  80.8945
 55.6816  6537.76  81.018
 55.7236  6477.99  80.7099
 55.7656  6608.65  81.2333
 55.8076  6515.65  80.6792
 55.8496  6579.63  81.4952
 55.8916  6522.92  81.2564
 55.9336  6639.53  81.7987
 55.9756  6552.64  81.1326
 56.0176  6393.48  80.2919
 56.0596  6451.45  80.6464
 56.1016  6341.54  79.9837
 56.1436  6487.38  81.1543
 56.1856  6418.46  80.466
 56.2276  6616.7  81.751
 56.2696  6433.88  80.5934
 56.3116  6601.93  82.0203
 56.3536  6514.44  81.1343
 56.3956  6455.5  80.7517
 56.4376  6437.08  80.6828
 56.4796  6356.39  79.9884
 56.5216  6427.34  80.818
 56.5636  6409.72  80.2644
 56.6056  6584  81.584
 56.6476  6489.11  80.6065
 56.6896  6581.22  81.6571
 56.7316  6354.63  80.1281
 56.7736  6497.31  81.0484
 56.8156  6524.53  81.2106
 56.8576  6234.14  79.3438
 56.8996  6422.42  80.4205
 56.9416  6415.14  80.697
 56.9836  6404.55  80.1518
 57.0256  6426.44  80.6071
 57.0676  6467.52  80.9888
 57.1096  6394.58  80.3151
 57.1516  6381.25  80.2889
 57.1936  6430.28  80.3466
 57.2356  6263.93  79.6137
 57.2776  6415.91  80.5583
 57.3196  6413.52  80.8869
 57.3616  6371.82  80.0954
 57.4036  6346.84  80.0247
 57.4456  6412.8  80.4159
 57.4876  6385.8  80.1076
 57.5296  6337.15  80.1388
 57.5716  6378.56  80.4015
 57.6136  6199.34  79.0993
 57.6556  6280.61  79.7406
 57.6976  6302.33  79.7092
 57.7396  6227.97  79.5801
 57.7816  6243.95  80.0482
 57.8236  6291.74  80.1643
 57.8656  6357.37  80.2296
 57.9076  6301.5  79.8929
 57.9496  6235.53  79.8365
 57.9916  6345.48  80.0385
 58.0336  6213.54  79.4856
 58.0756  6278.87  79.5176
 58.1176  6322.46  79.8048
 58.1596  6259.26  80.005
 58.2016  6097.08  78.1781
 58.2436  6150.71  78.9384
 58.2856  6036.68  78.1221
 58.3276  6099.05  78.898
 58.3696  6106.88  78.7001
 58.4116  6023.14  78.0149
 58.4536  6037.47  78.0012
 58.4956  6022.6  78.0861
 58.5376  6059.78  77.8966
 58.5796  6022.45  78.0775
 58.6216  6075.64  78.2283
 58.6636  6042.81  78.2377
 58.7056  6050.23  78.1455
 58.7476  5999.77  78.2621
 58.7896  6005.05  77.9419
 58.8316  5973.2  77.7311
 58.8736  6048.04  78.2265
 58.9156  6073.9  78.4348
 58.9576  5996.53  78.253
 58.9996  6080.91  78.0539
 59.0416  6193.39  79.1384
 59.0836  6023.1  77.9531
 59.1256  6033.78  78.7302
 59.1676  6067.15  79.2573
 59.2096  5936.94  77.7139
 59.2516  6168.79  78.7935
 59.2936  6011.8  78.1117
 59.3356  6083  78.4501
 59.3776  5966.26  77.8617
 59.4196  5903.76  77.3884
 59.4616  5880.76  77.1004
 59.5036  5947.01  77.5686
 59.5456  6104.06  78.2779
 59.5876  6112.86  78.5265
 59.6296  5883.4  77.1069
 59.6716  5939.88  77.5336
 59.7136  6038.5  78.1629
 59.7556  6012.55  78.1309
 59.7976  5877.89  76.9966
 59.8396  6090.64  78.2715
 59.8816  5991.34  78.1721
 59.9236  6113.62  78.6093
 59.9656  6067.18  78.5691
 60.0076  6015.02  77.5916
 60.0496  6036.71  78.2352
 60.0916  6128.19  78.2396
 60.1336  5953.24  78.214
 60.1756  6025.62  79.8709
 60.1996  0.0000000E+00  0.0000000E+00