File: docs/examples/opeando_xrd/IS17_D/Data/IS17_D/17_Db_f00092.xye
# /beamlines/bl04/projects/cycle2025-II/20250340211-lsimonelli/DATA/IS17_D/17_Db_f00092.xye : mythproc.py merge -s 0.006 -l 0.5 -f /beamlines/bl04/inhouse/ff/FlatField/ff_20Nov2024rod8mm60s_17keV.raw -b True -c true -o xye /beamlines/bl04/projects/cycle2025-II/20250340211-lsimonelli/DATA/IS17_D/17_Db_00092.dat
# IsMon = [6782937, 6779903, 6780978]  IsPos = [-1.5000, -2.4885, -3.4986]
# Wave = 0.4962  CalPath /beamlines/bl04/projects/cycle2025-II/20250340211-lsimonelli/DATA/Align/Si_Pos1_25keV_f00001.cal
# Date = 2025-09-24_19:21:00 Dt = 4.8000  Bin = 0.0060  <imon> = 6781273 +/- 1256 (Min/Max) 6779903 / 6782937
# icurr 252.2988  mocoIn 1.7209E-05  mocoOut 0.8071  i15 7.10581e+06  imon 6.78127e+06  i7 6.6667  iEMpd_timer 4.8000  iEMpd_1 3.4943E-08  iEMpd_2 7.7290E-08  iEMpd_3 1.7296E-08  iEMpd_4 4.7240E-08  iEMhp_timer 4.8000  iEMhp_1 4.9271E-06  iEMhp_2 -2.6164E-08  iEMhp_3 -2.4737E-08  iEMhp_4 -2.0251E-08
#      9776
 1.5856  44322.3  216.153
 1.6276  50958.2  227.793
 1.6696  56691.1  239.418
 1.7116  64073.7  255.028
 1.7536  71868.9  268.945
 1.7956  76309.7  277.822
 1.8376  72869.9  271.919
 1.8796  62889.9  250.751
 1.9216  52151.8  229.256
 1.9636  45289.9  213.304
 2.0056  40516.9  200.463
 2.0476  37947  196.128
 2.0896  36700.9  191.75
 2.1316  35222  186.943
 2.1736  33846.7  184.711
 2.2156  34328.1  184.527
 2.2576  33259.1  182.283
 2.2996  31504.5  178.06
 2.3416  32566  179.591
 2.3836  31643.4  177.137
 2.4256  30763.3  175.225
 2.4676  30326.4  173.73
 2.5096  29917.2  172.61
 2.5516  28882.9  173.494
 2.5936  28677.4  169.425
 2.6356  28039.5  168.219
 2.6776  27890.8  166.687
 2.7196  27758.4  166.773
 2.7616  27317.2  165.238
 2.8036  27036.2  164.547
 2.8456  27050.9  165.236
 2.8876  26328  162.848
 2.9296  26077.5  162.23
 2.9716  25928.3  161.255
 3.0136  25577.9  160.233
 3.0556  25672.2  160.92
 3.0976  25470.5  159.167
 3.1396  25505.2  160.036
 3.1816  25185.3  158.966
 3.2236  25008.7  158.386
 3.2656  24724.1  156.543
 3.3076  24510.2  157.329
 3.3496  25097.6  158.36
 3.3916  25224.9  158.346
 3.4336  25513.6  159.832
 3.4756  25935.3  161.078
 3.5176  26518  162.658
 3.5596  26180.7  164.624
 3.6016  26527.4  162.755
 3.6436  25407.1  160.394
 3.6856  25125.7  157.795
 3.7276  24312.8  156.31
 3.7696  24317.1  156.296
 3.8116  23801.2  154.733
 3.8536  23954.7  155.161
 3.8956  23757.7  154.347
 3.9376  23575.7  154.055
 3.9796  23478.3  153.189
 4.0216  23625.1  152.7
 4.0636  23586.1  154.044
 4.1056  23517.4  153.481
 4.1476  24022.1  155.425
 4.1896  23795  154.544
 4.2316  23939.6  154.847
 4.2736  24517.5  156.505
 4.3156  24664  157.203
 4.3576  25494.1  159.715
 4.3996  25521.7  159.887
 4.4416  26426.3  162.486
 4.4836  26750.3  163.645
 4.5256  27235.7  165.723
 4.5676  27033.8  165.374
 4.6096  27525.1  165.882
 4.6516  27958.5  166.507
 4.6936  27993  167.445
 4.7356  28118.4  167.641
 4.7776  28036.6  167.228
 4.8196  28059.9  167.941
 4.8616  27449  165.731
 4.9036  27377.1  165.093
 4.9456  27089.2  164.894
 4.9876  26355.5  162.549
 5.0296  26855.1  163.918
 5.0716  26443.6  163.281
 5.1136  26945.5  164.68
 5.1556  27016  164.35
 5.1976  27707.9  166.421
 5.2396  27482.3  165.441
 5.2816  27787.7  166.832
 5.3236  27828.4  166.649
 5.3656  27087.4  165.356
 5.4076  26981.5  165.177
 5.4496  26908.3  164.442
 5.4916  27198.7  165.075
 5.5336  27102.6  164.799
 5.5756  27023.5  164.556
 5.6176  27334.4  164.951
 5.6596  27522.1  166.35
 5.7016  27679.7  166.238
 5.7436  27806.6  166.898
 5.7856  27518.9  166.101
 5.8276  27841.2  166.788
 5.8696  28173.2  167.827
 5.9116  27683.6  167.057
 5.9536  28383.4  168.911
 5.9956  28509.3  168.681
 6.0376  28638.6  169.689
 6.0796  28694.4  169.683
 6.1216  28636.4  169.717
 6.1636  29026.3  169.906
 6.2056  28700.3  169.641
 6.2476  29275  171
 6.2896  29219.6  170.712
 6.3316  29145.2  170.66
 6.3736  29447.3  171.427
 6.4156  29024  170.143
 6.4576  29368  170.716
 6.4996  29485.3  171.538
 6.5416  29404  171.423
 6.5836  29440.4  171.771
 6.6256  29629.3  171.873
 6.6676  30022.8  172.575
 6.7096  30214  173.987
 6.7516  30506.8  174.485
 6.7936  31092.9  175.291
 6.8356  30721.7  174.587
 6.8776  30694.3  175.328
 6.9196  30813.6  176.07
 6.9616  31305.7  176.868
 7.0036  31649.2  177.526
 7.0456  31588.3  176.659
 7.0876  31927.6  179.205
 7.1296  31665  177.691
 7.1716  31656.6  177.208
 7.2136  31343.8  176.112
 7.2556  31525.9  176.779
 7.2976  31626.9  177.553
 7.3396  31360.7  177.033
 7.3816  31570.3  177.836
 7.4236  31815.9  177.818
 7.4656  31861.9  177.399
 7.5076  31919.5  177.723
 7.5496  31838.6  178.028
 7.5916  31947  178.378
 7.6336  32390.5  179.499
 7.6756  32538.9  179.76
 7.7176  33077.2  181.566
 7.7596  32741.8  181.853
 7.8016  33578.5  186.412
 7.8436  32912.5  181.249
 7.8856  33291.6  181.906
 7.9276  33631.9  183.222
 7.9696  33746.8  183.842
 8.0116  34925.5  185.941
 8.0536  35049.5  186.152
 8.0956  35180.2  187.676
 8.1376  35547.1  188.128
 8.1796  35811.5  189.36
 8.2216  36363.3  189.56
 8.2636  36438.8  190.009
 8.3056  36378.5  190.612
 8.3476  36973  191.495
 8.3896  36703.6  191.315
 8.4316  36883.5  191.51
 8.4736  36987.3  191.253
 8.5156  36425.1  190.067
 8.5576  36346.8  190.821
 8.5996  36159.3  189.22
 8.6416  36295.9  190.823
 8.6836  35675  189.016
 8.7256  36526.8  190.713
 8.7676  36330.9  193.086
 8.8096  36975.1  192.077
 8.8516  36908.8  191.523
 8.8936  36145.7  189.441
 8.9356  36547.3  190.815
 8.9776  36416  190.556
 9.0196  36459.1  190.332
 9.0616  36104.6  188.918
 9.1036  35719.2  189.065
 9.1456  35591.5  188.059
 9.1876  35694.2  188.278
 9.2296  35473  187.14
 9.2716  35388.9  186.938
 9.3136  35265.7  186.62
 9.3556  35654.1  187.616
 9.3976  34414.8  184.842
 9.4396  34619.9  185.305
 9.4816  34464.9  184.733
 9.5236  34376.5  184.399
 9.5656  33889.5  183.446
 9.6076  33181.7  182.048
 9.6496  33625.4  183.133
 9.6916  33232.7  182.018
 9.7336  33464.3  182.43
 9.7756  33203.2  182.957
 9.8176  32923.5  181.735
 9.8596  32770.5  179.765
 9.9016  32694.2  179.547
 9.9436  32079.7  177.593
 9.9856  32025.9  177.889
 10.0276  31480.1  177.422
 10.0696  31969.3  177.844
 10.1116  30722.5  174.596
 10.1536  30890.9  174.734
 10.1956  30424.2  173.517
 10.2376  30390.4  172.927
 10.2796  30229.9  172.591
 10.3216  29945.8  171.91
 10.3636  29830.1  171.752
 10.4056  29283.9  170.575
 10.4476  29689.2  171.352
 10.4896  29574.7  170.48
 10.5316  29618.6  170.983
 10.5736  29053.2  170.109
 10.6156  28980.2  169.64
 10.6576  28621.9  167.156
 10.6996  28508.7  167.538
 10.7416  27990.5  166.223
 10.7836  27560.1  165.609
 10.8256  27191.3  164.916
 10.8676  27373.7  165.015
 10.9096  27162.4  164.409
 10.9516  26849.6  162.417
 10.9936  26965.5  162.961
 11.0356  26898  163.374
 11.0776  26530.4  161.589
 11.1196  26008.6  160.752
 11.1616  25794.7  159.765
 11.2036  26002.9  160.247
 11.2456  25963.9  160.844
 11.2876  26255.9  161.455
 11.3296  25684.3  159.609
 11.3716  26010.4  160.354
 11.4136  26021.8  161.228
 11.4556  26045.8  160.966
 11.4976  26491.4  161.324
 11.5396  26677.3  162.066
 11.5816  26989.4  163.43
 11.6236  26152.2  161.35
 11.6656  25974.7  159.717
 11.7076  25394.9  158.766
 11.7496  24955.8  161.396
 11.7916  25035.5  156.897
 11.8336  24411  155.845
 11.8756  24362.8  155.218
 11.9176  24395.6  155.238
 11.9596  24588  155.767
 12.0016  24066.4  154.873
 12.0436  24410.3  155.423
 12.0856  23901.1  154.285
 12.1276  23871.7  154.154
 12.1696  23899.6  153.359
 12.2116  23883.5  153.316
 12.2536  23771.5  153.732
 12.2956  23751.7  153.048
 12.3376  23900.2  153.727
 12.3796  23697.1  153.558
 12.4216  23669.9  152.66
 12.4636  23433.8  152.835
 12.5056  23538.2  152.439
 12.5476  23860.8  153.003
 12.5896  23591.8  152.781
 12.6316  23822.4  153.654
 12.6736  23515.2  153.02
 12.7156  23699.3  153.599
 12.7576  23605.6  153.548
 12.7996  23735.6  152.613
 12.8416  23379.1  152.505
 12.8836  23857.4  153.874
 12.9256  24042.4  153.523
 12.9676  23878.1  153.396
 13.0096  24286.4  155.819
 13.0516  24093.6  154.233
 13.0936  24228.4  154.8
 13.1356  24231.3  154.062
 13.1776  24058.9  154.517
 13.2196  24281.5  154.873
 13.2616  23872.4  153.883
 13.3036  24509.2  156.045
 13.3456  23827.2  153.84
 13.3876  24457.8  155.322
 13.4296  24110.8  154.396
 13.4716  24226.1  154.393
 13.5136  24312.2  154.794
 13.5556  24189.5  155.031
 13.5976  24443.3  156.017
 13.6396  24228  154.69
 13.6816  24503  155.895
 13.7236  24646.5  156.065
 13.7656  26299.7  161.649
 13.8076  26950.7  162.272
 13.8496  25695.8  159.331
 13.8916  24770  157.386
 13.9336  23861.6  153.765
 13.9756  23828.3  153.043
 14.0176  23491.8  152.637
 14.0596  23654.6  153.086
 14.1016  23447.3  152.836
 14.1436  23639.9  152.583
 14.1856  22974.9  150.718
 14.2276  23058.5  151.474
 14.2696  22847.7  150.641
 14.3116  22309.5  148.771
 14.3536  22358.4  149.093
 14.3956  22150  148.123
 14.4376  22494.2  149.055
 14.4796  22395.9  148.728
 14.5216  22019.8  148.252
 14.5636  21867.9  147.314
 14.6056  21951.4  147.154
 14.6476  21758  145.758
 14.6896  21518.3  145.496
 14.7316  21101.4  145.108
 14.7736  20964.1  143.784
 14.8156  20843.9  143.382
 14.8576  20730.3  142.857
 14.8996  20635.6  143.725
 14.9416  20211.1  142.249
 14.9836  20116  141.902
 15.0256  19623.9  139.089
 15.0676  19564  139.185
 15.1096  19565.8  138.934
 15.1516  19177.6  138.101
 15.1936  19025.7  136.986
 15.2356  18708.5  136.113
 15.2776  18694.3  135.657
 15.3196  18421.3  135.642
 15.3616  18438.3  135.463
 15.4036  18377.2  135.11
 15.4456  18457.7  134.828
 15.4876  18118.7  133.494
 15.5296  18160.6  133.933
 15.5716  17933.5  132.699
 15.6136  17683.9  132.097
 15.6556  17987.3  132.47
 15.6976  17559  130.956
 15.7396  17515.6  131.388
 15.7816  17507.2  130.882
 15.8236  17205.4  130.427
 15.8656  17237.3  130.345
 15.9076  17250.3  130.218
 15.9496  17775.2  134.965
 15.9916  17498.7  134.309
 16.0336  17775.1  132.226
 16.0756  17335.6  130.923
 16.1176  17170.2  130.213
 16.1596  16824.8  130.208
 16.2016  16846.5  129.074
 16.2436  16789.2  129.214
 16.2856  16953.6  129.373
 16.3276  16730.4  128.957
 16.3696  16731.1  128.77
 16.4116  16622  128.813
 16.4536  16570.7  128.418
 16.4956  16661.3  128.494
 16.5376  16383.6  127.622
 16.5796  16417.9  127.11
 16.6216  16470.3  127.566
 16.6636  16141.7  126.494
 16.7056  16110.8  126.236
 16.7476  16108.5  125.898
 16.7896  16300.5  127.254
 16.8316  16370.8  127.5
 16.8736  16359.8  127.713
 16.9156  16287.7  127.744
 16.9576  16046.4  127.606
 16.9996  16048.8  128.09
 17.0416  16101.2  126.69
 17.0836  16322.1  127.312
 17.1256  16039  126.209
 17.1676  16097.6  126.405
 17.2096  15845.1  125.301
 17.2516  15956.6  125.826
 17.2936  15940.6  125.818
 17.3356  15761.5  125.089
 17.3776  15582.1  124.569
 17.4196  15600.6  124.343
 17.4616  15525.9  123.955
 17.5036  15091.3  122.569
 17.5456  15175.9  123.534
 17.5876  15158.6  122.516
 17.6296  15294.8  122.88
 17.6716  15207.6  123.127
 17.7136  15093  122.789
 17.7556  15092  123.087
 17.7976  14651.5  120.886
 17.8396  14987.8  121.898
 17.8816  14571.6  120.755
 17.9236  14721.1  121.152
 17.9656  14766.4  122.031
 18.0076  14818.3  121.667
 18.0496  14624.7  120.013
 18.0916  14545.1  120.229
 18.1336  14624.5  120.658
 18.1756  14748  120.72
 18.2176  14510.8  119.953
 18.2596  14536  119.782
 18.3016  14753.9  120.949
 18.3436  14720.3  121.041
 18.3856  14659.2  120.684
 18.4276  14379.8  119.225
 18.4696  14413.4  119.447
 18.5116  14462.7  119.932
 18.5536  14543  120.613
 18.5956  14256.3  118.98
 18.6376  14167.1  119.017
 18.6796  14219  118.559
 18.7216  14234.1  119.174
 18.7636  14159.3  118.79
 18.8056  14099.5  118.457
 18.8476  13995.9  118.354
 18.8896  14040.4  118.185
 18.9316  14052.2  118.056
 18.9736  14123.1  118.211
 19.0156  14129.7  118.639
 19.0576  14197  117.768
 19.0996  14052.4  117.892
 19.1416  13868.6  117.506
 19.1836  13925.3  117.361
 19.2256  13864.7  117.325
 19.2676  13896.4  117.546
 19.3096  13924.7  117.914
 19.3516  13964.6  117.837
 19.3936  13822.3  117.401
 19.4356  14042  118.136
 19.4776  13686.9  116.726
 19.5196  13887.7  117.425
 19.5616  13713.9  116.955
 19.6036  13898.5  117.095
 19.6456  13880.9  117.265
 19.6876  13828.1  116.686
 19.7296  13907.4  117.487
 19.7716  13870.1  117.356
 19.8136  14184.4  119.02
 19.8556  14165.4  118.419
 19.8976  14102.2  118.206
 19.9396  14159.6  118.046
 19.9816  14129.4  118.175
 20.0236  14493.3  119.872
 20.0656  14473.5  119.793
 20.1076  14480.7  120.304
 20.1496  14238.1  119.294
 20.1916  14070.2  118.063
 20.2336  13803.8  116.897
 20.2756  13619.5  116.555
 20.3176  13461.3  115.626
 20.3596  13346.5  115.119
 20.4016  13424.9  115.25
 20.4436  13277  115.187
 20.4856  13309.8  115.102
 20.5276  13207.2  115.126
 20.5696  13194.9  114.626
 20.6116  13079.4  114.291
 20.6536  13031.3  113.658
 20.6956  13046  113.794
 20.7376  12953.2  113.604
 20.7796  13052.7  113.727
 20.8216  13175.4  113.975
 20.8636  13130.7  114.152
 20.9056  13015.5  113.585
 20.9476  13007.7  113.396
 20.9896  13091.3  113.632
 21.0316  12993.5  113.115
 21.0736  12870.6  113.087
 21.1156  12825.1  113.052
 21.1576  13022.1  113.948
 21.1996  12972.4  113.72
 21.2416  13071.2  113.971
 21.2836  13041.7  113.82
 21.3256  13012  113.765
 21.3676  12965.3  113.096
 21.4096  12741.2  112.488
 21.4516  12819.9  112.644
 21.4936  12509.5  111.542
 21.5356  12820.3  112.87
 21.5776  12941.9  113.234
 21.6196  12638.7  111.946
 21.6616  12671.8  112.165
 21.7036  12631.4  111.765
 21.7456  12617.4  111.781
 21.7876  12534.7  111.172
 21.8296  12590.5  111.268
 21.8716  12775.7  112.302
 21.9136  12828.8  112.754
 21.9556  12714.7  111.921
 21.9976  12536.1  111.163
 22.0396  12458  111.07
 22.0816  12396.9  111.323
 22.1236  12540.6  111.426
 22.1656  12388  110.938
 22.2076  12176.6  109.407
 22.2496  12369.5  110.304
 22.2916  12331.6  110.018
 22.3336  12234.1  110.277
 22.3756  12261  110.14
 22.4176  12180.3  109.636
 22.4596  12080.4  109.759
 22.5016  12153.1  109.606
 22.5436  12354.1  110.38
 22.5856  12421.8  110.929
 22.6276  12461  111.235
 22.6696  12241.6  110.604
 22.7116  12380.7  110.746
 22.7536  12199.3  109.907
 22.7956  12250.3  109.479
 22.8376  12135.1  109.474
 22.8796  12151.3  109.352
 22.9216  12260.2  110.379
 22.9636  12193  109.242
 23.0056  12177.9  109.305
 23.0476  12245.5  110.174
 23.0896  12480.5  110.605
 23.1316  12371.7  110.553
 23.1736  12483.9  113.985
 23.2156  12899.9  113.135
 23.2576  12783  112.821
 23.2996  12492  111.314
 23.3416  12625.4  112.43
 23.3836  12472.8  110.969
 23.4256  12816  112.621
 23.4676  12541.2  111.105
 23.5096  12530.1  111.714
 23.5516  12545.8  111.077
 23.5936  12335.8  111.046
 23.6356  12665.8  112.186
 23.6776  12490.8  111.944
 23.7196  12374.8  110.887
 23.7616  12474.9  111.052
 23.8036  12699.1  112.088
 23.8456  12264.1  109.714
 23.8876  12425.8  110.79
 23.9296  12343.6  110.91
 23.9716  12208.8  109.515
 24.0136  12267.1  110.675
 24.0556  12239  110.254
 24.0976  12093.9  109.422
 24.1396  12041  111.806
 24.1816  12171.9  111.152
 24.2236  12141.3  110.305
 24.2656  12010.5  109.18
 24.3076  12066.9  109.713
 24.3496  11990.1  109.247
 24.3916  11977.1  109.236
 24.4336  11855.8  108.871
 24.4756  12013.1  109.483
 24.5176  11966.9  108.894
 24.5596  11900.2  108.905
 24.6016  11819  108.632
 24.6436  11853.9  108.307
 24.6856  11716.8  107.429
 24.7276  11526.5  106.879
 24.7696  11579.6  107.227
 24.8116  11365.5  106.405
 24.8536  11392.9  106.541
 24.8956  11562.3  107.055
 24.9376  11549  107.174
 24.9796  11418.2  106.669
 25.0216  11264.5  106.073
 25.0636  11475.6  106.713
 25.1056  11179.7  105.758
 25.1476  11340.1  108.409
 25.1896  11220.7  106.37
 25.2316  11208.5  105.47
 25.2736  11105.8  104.743
 25.3156  11061.2  104.612
 25.3576  11017.6  104.839
 25.3996  11078.7  105.117
 25.4416  11037.2  104.894
 25.4836  10869.8  104.608
 25.5256  10912.1  104.181
 25.5676  10972.1  104.201
 25.6096  10793.9  103.923
 25.6516  11014.5  104.479
 25.6936  11053.1  104.977
 25.7356  10820  104
 25.7776  10897.1  104.048
 25.8196  10695.9  103.243
 25.8616  10940.3  104.35
 25.9036  11053.5  104.33
 25.9456  10773.8  103.608
 25.9876  10850.7  103.886
 26.0296  11036.9  104.525
 26.0716  10890.8  104.168
 26.1136  10805.7  103.689
 26.1556  10922.9  103.555
 26.1976  10729.5  103.639
 26.2396  10746.8  103.137
 26.2816  10691.2  103.22
 26.3236  10687.7  103.275
 26.3656  10919.7  104.192
 26.4076  10608.2  102.905
 26.4496  10941.3  104.095
 26.4916  10975.2  104.151
 26.5336  11328.3  106.164
 26.5756  11700.2  107.772
 26.6176  10897.7  104.027
 26.6596  10793.5  103.838
 26.7016  10641.5  102.911
 26.7436  10755.3  103.534
 26.7856  10544.3  102.513
 26.8276  10617.8  102.838
 26.8696  10596.4  102.601
 26.9116  10593.7  102.529
 26.9536  10420.9  101.734
 26.9956  10387.5  101.613
 27.0376  10402.6  101.899
 27.0796  10486.9  102.086
 27.1216  10536.9  102.332
 27.1636  10361.5  101.651
 27.2056  10294.6  101.215
 27.2476  10267.3  101.062
 27.2896  10246.4  101.002
 27.3316  10300.6  101.054
 27.3736  10165.4  100.675
 27.4156  10375  101.535
 27.4576  10325  101.525
 27.4996  10233.8  100.681
 27.5416  10197.5  100.8
 27.5836  10173  100.519
 27.6256  10265.4  101.158
 27.6676  10229  100.963
 27.7096  10073.6  100.077
 27.7516  10030.4  100.014
 27.7936  10413.6  102.039
 27.8356  10182.9  100.522
 27.8776  10375.9  101.531
 27.9196  10103.6  100.056
 27.9616  10136.8  100.421
 28.0036  10103.2  100.213
 28.0456  10044.1  100.066
 28.0876  9978.29  99.8191
 28.1296  9901.35  99.2739
 28.1716  10081.2  100.177
 28.2136  9973.7  99.6143
 28.2556  9971.53  99.7143
 28.2976  9917.65  99.4441
 28.3396  9886.11  99.0805
 28.3816  9980.34  99.5098
 28.4236  9758.44  98.5633
 28.4656  9762.38  98.6288
 28.5076  9937.87  99.1399
 28.5496  9810.88  98.7597
 28.5916  9922.11  99.1362
 28.6336  9872.36  99.2224
 28.6756  9917.49  98.6494
 28.7176  9795.22  98.5922
 28.7596  9673.33  97.8731
 28.8016  9638.95  97.8181
 28.8436  9773.25  98.6523
 28.8856  9728.82  98.28
 28.9276  9743.26  98.6001
 28.9696  9667.19  97.8704
 29.0116  9666.49  98.0471
 29.0536  9463.47  97.2254
 29.0956  9667.36  97.971
 29.1376  9607.73  97.6225
 29.1796  9664.07  97.9711
 29.2216  9571.55  97.3415
 29.2636  9690.83  97.9382
 29.3056  9653.98  97.6114
 29.3476  9435.58  97.0291
 29.3896  9636.86  98.1749
 29.4316  9474.84  96.6888
 29.4736  9283.1  95.7665
 29.5156  9448.39  96.5387
 29.5576  9320.45  96.6106
 29.5996  9405.59  96.3169
 29.6416  9333.75  96.0637
 29.6836  9305.61  95.8499
 29.7256  9260.29  96.1723
 29.7676  9303.82  96.0638
 29.8096  9411.31  96.5609
 29.8516  9138.11  95.4736
 29.8936  9231.2  96.0508
 29.9356  9370.89  96.5323
 29.9776  9224.31  95.9219
 30.0196  9287.21  95.6502
 30.0616  9260.3  95.8787
 30.1036  9248.23  95.637
 30.1456  9157.02  95.4135
 30.1876  9167.4  95.4338
 30.2296  9170.48  95.3977
 30.2716  9160.05  94.9879
 30.3136  9180.96  95.6804
 30.3556  9552.11  97.8499
 30.3976  9382.64  98.4569
 30.4396  9702.93  97.4704
 30.4816  9613.48  96.6189
 30.5236  9468.65  95.8913
 30.5656  9320.24  95.7782
 30.6076  9387.44  95.9092
 30.6496  9602.18  97.0437
 30.6916  9331.98  95.7735
 30.7336  9415.84  96.3361
 30.7756  9263.98  95.8644
 30.8176  9425.06  96.3939
 30.8596  9422.63  96.1295
 30.9016  9483.02  96.3246
 30.9436  9434.03  96.2943
 30.9856  9584.58  97.176
 31.0276  9334.07  95.5325
 31.0696  9224.16  95.3812
 31.1116  9242.72  95.5846
 31.1536  9217.13  95.3412
 31.1956  9291.85  95.8049
 31.2376  9173.64  95.2257
 31.2796  9307.67  95.4462
 31.3216  9219.71  94.9366
 31.3636  9364.03  96.3741
 31.4056  9205.32  96.8432
 31.4476  9365.85  95.5924
 31.4896  9267.56  95.5955
 31.5316  9327.91  95.3504
 31.5736  9415.17  95.583
 31.6156  9132.81  94.1485
 31.6576  9382.63  95.4972
 31.6996  9362.11  95.0563
 31.7416  9359.29  95.997
 31.7836  9299.04  94.8341
 31.8256  9287.14  95.1141
 31.8676  9310.72  95.1558
 31.9096  9107.05  94.3344
 31.9516  9042.81  94.3079
 31.9936  8955.47  93.6725
 32.0356  9190.85  94.9369
 32.0776  9205.71  94.9188
 32.1196  9369.39  95.7729
 32.1616  9293.26  94.9183
 32.2036  9236.72  95.1412
 32.2456  9111.12  94.8667
 32.2876  9013.24  93.6952
 32.3296  9092.58  94.238
 32.3716  8875.04  93.2235
 32.4136  8891.97  93.5097
 32.4556  9025.24  93.6502
 32.4976  9091.27  93.8885
 32.5396  9012.33  93.5024
 32.5816  9077.97  93.8726
 32.6236  8998.1  93.6087
 32.6656  8945.29  93.8854
 32.7076  8938.43  93.5089
 32.7496  8862.33  92.7855
 32.7916  8932.71  93.1098
 32.8336  8778.18  92.3982
 32.8756  9073.39  93.7302
 32.9176  8839.03  92.9204
 32.9596  8788.92  92.7251
 33.0016  8897.89  93.0661
 33.0436  8867.39  93.081
 33.0856  8801.61  92.8346
 33.1276  8726.28  92.17
 33.1696  8919.9  93.0101
 33.2116  8925.56  93.2825
 33.2536  9004.69  93.6769
 33.2956  8675.52  92.041
 33.3376  8738.87  92.1729
 33.3796  8869.12  93.022
 33.4216  8732.09  91.8866
 33.4636  8793.5  92.3725
 33.5056  8712.79  92.0318
 33.5476  8801.28  92.6273
 33.5896  8886.37  92.8512
 33.6316  8753.05  92.4733
 33.6736  8586.92  91.842
 33.7156  8618.03  92.0376
 33.7576  8799.98  92.6437
 33.7996  8750.69  92.1529
 33.8416  8524.68  91.1357
 33.8836  8629.04  91.4737
 33.9256  8706.89  91.9366
 33.9676  8620.25  91.3761
 34.0096  8585.83  91.5031
 34.0516  8589.85  91.167
 34.0936  8504.13  90.9818
 34.1356  8662.27  91.5608
 34.1776  8522.13  90.8147
 34.2196  8629.73  91.5585
 34.2616  8456.93  90.8494
 34.3036  8598.02  91.7775
 34.3456  8537.12  91.2115
 34.3876  8594.43  91.5751
 34.4296  8561.21  90.9977
 34.4716  8686.59  91.8273
 34.5136  8530.34  91.1682
 34.5556  8390.62  90.6806
 34.5976  8680.79  92.0835
 34.6396  8426.85  90.4139
 34.6816  8547.43  91.1544
 34.7236  8420.21  90.252
 34.7656  8484.85  90.8027
 34.8076  8350.1  90.4174
 34.8496  8340.81  90.2227
 34.8916  8439.06  90.6048
 34.9336  8507.65  90.9669
 34.9756  8640.58  91.6078
 35.0176  8472.59  91.2134
 35.0596  8565  91.5348
 35.1016  8546.06  91.1865
 35.1436  8666.25  91.5158
 35.1856  8482.58  90.6605
 35.2276  8440.34  90.6139
 35.2696  8540.88  91.3468
 35.3116  8386.46  90.6134
 35.3536  8518.52  91.0539
 35.3956  8358.3  89.8847
 35.4376  8529.89  91.3713
 35.4796  8388.09  90.6434
 35.5216  8381.58  90.4985
 35.5636  8210.41  90.3845
 35.6056  8404.62  90.4712
 35.6476  8459.57  90.6606
 35.6896  8438.98  90.7132
 35.7316  8240.87  89.5483
 35.7736  8268.05  89.8781
 35.8156  8364.57  90.397
 35.8576  8475.63  91.2486
 35.8996  8554.34  91.6358
 35.9416  8358.83  90.0993
 35.9836  8258.92  90.0074
 36.0256  8471.23  91.0571
 36.0676  8559.11  91.0424
 36.1096  8319.26  90.138
 36.1516  8414.36  90.5365
 36.1936  8405.37  90.3304
 36.2356  8382.46  90.867
 36.2776  8394.26  90.3864
 36.3196  8317.63  89.6609
 36.3616  8363.79  90.0462
 36.4036  8373.13  90.166
 36.4456  8371.75  90.3549
 36.4876  8138.06  89.0351
 36.5296  8254.28  89.7057
 36.5716  8230.1  90.3528
 36.6136  8073.88  88.2971
 36.6556  8160.22  88.9628
 36.6976  8013.32  88.6454
 36.7396  8175.9  89.3665
 36.7816  8163.73  89.5794
 36.8236  8105.06  89.1848
 36.8656  8107.86  89.2526
 36.9076  7898.41  88.1152
 36.9496  7978.68  88.5741
 36.9916  7906.37  87.6577
 37.0336  7987.55  88.4164
 37.0756  8063.89  88.6323
 37.1176  7966.77  88.4561
 37.1596  7921.04  88.1181
 37.2016  7911.34  88.2379
 37.2436  8050.15  88.3707
 37.2856  8010.91  88.4103
 37.3276  8001.66  87.7232
 37.3696  7836.43  87.6775
 37.4116  7972.66  88.345
 37.4536  7860.6  87.5892
 37.4956  7783.82  87.2032
 37.5376  8107.05  90.578
 37.5796  8011.11  89.9682
 37.6216  7991.81  88.1302
 37.6636  8133.98  88.7943
 37.7056  8046.19  88.4987
 37.7476  8156  88.6525
 37.7896  7912.11  87.8284
 37.8316  7985.95  88.3765
 37.8736  8054.34  88.2883
 37.9156  8011.04  88.0472
 37.9576  7959.73  87.8263
 37.9996  7785.52  86.4314
 38.0416  7984.98  88.3304
 38.0836  8056.16  88.6275
 38.1256  8049.35  88.5678
 38.1676  7784.13  87.2146
 38.2096  8060.13  88.3566
 38.2516  8168.81  89.0842
 38.2936  8084.94  88.506
 38.3356  7894.11  87.3936
 38.3776  7807.48  87.1529
 38.4196  7966.96  87.8952
 38.4616  7962.94  88.1243
 38.5036  8101.05  88.7294
 38.5456  7783  87.7904
 38.5876  7813.36  87.984
 38.6296  7954.98  87.7506
 38.6716  7947.62  87.5056
 38.7136  7837.75  86.8426
 38.7556  7916.71  87.7968
 38.7976  7936.57  87.8207
 38.8396  7839.15  87.7437
 38.8816  7776.98  87.1931
 38.9236  7857.91  87.4442
 38.9656  7902.96  87.6018
 39.0076  8036.73  87.7369
 39.0496  8143.41  88.8824
 39.0916  7972.81  87.5943
 39.1336  7898.22  87.5765
 39.1756  7986.06  88.1185
 39.2176  7848.47  87.9153
 39.2596  7850.89  87.8419
 39.3016  7935.21  87.9042
 39.3436  7825.61  87.6987
 39.3856  8006.14  88.1538
 39.4276  8088.95  89.1134
 39.4696  7961.87  88.0351
 39.5116  7973.08  88.6073
 39.5536  7871.38  88.457
 39.5956  7894.59  87.6979
 39.6376  7895.9  87.5492
 39.6796  7881.28  87.3784
 39.7216  7868.2  87.4047
 39.7636  7830.15  87.736
 39.8056  7885.21  87.847
 39.8476  7686.93  86.9805
 39.8896  7852.86  87.5441
 39.9316  7667.3  86.7499
 39.9736  7863.57  87.4277
 40.0156  7785.59  86.8308
 40.0576  7761.81  87.0439
 40.0996  7910.95  87.063
 40.1416  7838.28  87.4527
 40.1836  7902.97  87.7012
 40.2256  7861.81  87.4989
 40.2676  7804.72  87.3666
 40.3096  7935.67  87.9578
 40.3516  7855.33  87.7012
 40.3936  7886.51  87.3402
 40.4356  7876.36  87.5001
 40.4776  7941.66  88.0926
 40.5196  7860.17  87.9326
 40.5616  7973.02  88.2045
 40.6036  7851.07  87.7861
 40.6456  7866.17  87.4821
 40.6876  8023.1  88.3422
 40.7296  7813.06  87.3019
 40.7716  7908.17  87.9555
 40.8136  7823.94  87.4337
 40.8556  7973.49  88.3995
 40.8976  7894.55  87.8782
 40.9396  7892.55  88.2085
 40.9816  7911.51  87.6162
 41.0236  7910.77  87.3989
 41.0656  7998.69  88.4181
 41.1076  7880.91  87.5376
 41.1496  8013.97  88.1801
 41.1916  7898.77  87.863
 41.2336  7907.83  87.9117
 41.2756  7887.92  87.4072
 41.3176  7949.77  88.3458
 41.3596  7931.69  87.9957
 41.4016  7875.2  87.9373
 41.4436  7885.16  87.7828
 41.4856  7973.32  88.4344
 41.5276  7849.27  87.7495
 41.5696  7835.35  87.3031
 41.6116  7955.94  88.3649
 41.6536  7885.59  87.8353
 41.6956  7893.46  87.868
 41.7376  7802.55  87.4509
 41.7796  7716.22  86.9172
 41.8216  7955.2  88.4247
 41.8636  7883.3  87.982
 41.9056  7724.08  86.8728
 41.9476  7863.27  87.8836
 41.9896  7919.07  87.858
 42.0316  7918.95  87.9531
 42.0736  7919.83  88.0908
 42.1156  7810.14  87.2855
 42.1576  7771.08  87.1759
 42.1996  7926.07  88.1693
 42.2416  7943.21  87.849
 42.2836  7866.89  87.5366
 42.3256  7791.19  87.2232
 42.3676  7948.89  87.9076
 42.4096  7937.09  87.8164
 42.4516  7957.96  87.9981
 42.4936  7767.73  87.0227
 42.5356  7785.65  87.2645
 42.5776  7785.94  87.2017
 42.6196  7764.57  87.0522
 42.6616  7737.65  87.1573
 42.7036  7763  86.6795
 42.7456  7930.51  87.9618
 42.7876  7832.57  87.5112
 42.8296  7851.77  87.5203
 42.8716  7617.6  86.3136
 42.9136  7644.33  86.2216
 42.9556  7762.89  87.0557
 42.9976  7794.2  87.194
 43.0396  7735.77  86.5952
 43.0816  7646.44  86.4782
 43.1236  7722.78  86.954
 43.1656  7760.96  86.9944
 43.2076  7696.02  86.7397
 43.2496  7656.96  86.3416
 43.2916  7693.35  86.9061
 43.3336  7787.05  87.2616
 43.3756  7722.95  86.6604
 43.4176  7655.45  86.3708
 43.4596  7664.33  86.2795
 43.5016  7707.85  86.9203
 43.5436  7756.23  87.1002
 43.5856  7660.84  86.5911
 43.6276  7584.24  86.0435
 43.6696  7682.56  86.7415
 43.7116  7781.36  86.9112
 43.7536  7790.97  87.4659
 43.7956  7493.93  86.9852
 43.8376  7490.56  85.4999
 43.8796  7484  85.5464
 43.9216  7510.31  85.6139
 43.9636  7574.02  86.0846
 44.0056  7500.17  85.8936
 44.0476  7492.66  85.4829
 44.0896  7363.26  85.0805
 44.1316  7425.74  85.1115
 44.1736  7421.61  85.0681
 44.2156  7493.74  85.3413
 44.2576  7431.99  85.3069
 44.2996  7502.27  85.6778
 44.3416  7537.98  85.6445
 44.3836  7370.78  85.0126
 44.4256  7394.42  84.7863
 44.4676  7363.12  84.7682
 44.5096  7397.76  85.115
 44.5516  7471.26  85.5022
 44.5936  7353.94  84.7799
 44.6356  7465.82  85.1625
 44.6776  7552.16  85.9736
 44.7196  7383.52  85.2683
 44.7616  7518.14  87.3963
 44.8036  7571.46  86.3302
 44.8456  7593.79  86.4614
 44.8876  7546.83  86.0378
 44.9296  7613.67  85.8655
 44.9716  7558.84  85.9826
 45.0136  7555.58  85.8916
 45.0556  7665.65  86.6168
 45.0976  7596.47  86.2673
 45.1396  7465.87  85.2811
 45.1816  7696.83  86.3538
 45.2236  7539.26  85.5487
 45.2656  7487.8  85.7454
 45.3076  7509.53  85.6726
 45.3496  7379.22  85.2249
 45.3916  7447.28  85.8773
 45.4336  7666.25  86.9688
 45.4756  7529.47  86.0293
 45.5176  7636.7  86.2676
 45.5596  7486.61  85.5406
 45.6016  7428.14  85.6242
 45.6436  7518.05  85.3051
 45.6856  7394.57  85.2578
 45.7276  7451.81  87.4206
 45.7696  7476.44  86.7334
 45.8116  7539.58  86.5386
 45.8536  7324.12  85.1826
 45.8956  7544.5  85.8019
 45.9376  7547.19  85.2786
 45.9796  7592.35  86.2324
 46.0216  7612.8  86.6724
 46.0636  7603.97  85.7622
 46.1056  7635.37  85.9322
 46.1476  7464.46  85.5622
 46.1896  7613.24  86.5625
 46.2316  7525.72  85.9165
 46.2736  7437.12  85.6251
 46.3156  7491.44  85.692
 46.3576  7476.21  85.8006
 46.3996  7452.87  85.826
 46.4416  7471  85.4811
 46.4836  7368.82  85.2764
 46.5256  7477.27  85.8431
 46.5676  7436.8  85.7268
 46.6096  7410.54  85.4992
 46.6516  7541.61  85.2946
 46.6936  7549.65  85.8422
 46.7356  7551.78  85.9501
 46.7776  7424.26  86.072
 46.8196  7364.18  85.462
 46.8616  7302.17  84.9125
 46.9036  7277.88  84.4314
 46.9456  7335.73  84.4024
 46.9876  7297.71  84.2682
 47.0296  7382.08  85.4503
 47.0716  7339.42  85.0213
 47.1136  7396.89  85.0243
 47.1556  7345.48  84.5888
 47.1976  7417.45  85.1756
 47.2396  7376.83  85.2594
 47.2816  7274.88  84.3717
 47.3236  7323.91  85.0135
 47.3656  7417.87  85.5029
 47.4076  7434.69  85.3166
 47.4496  7306.19  84.7501
 47.4916  7247.84  84.591
 47.5336  7311.28  84.7871
 47.5756  7446.23  85.6328
 47.6176  7308.53  84.7893
 47.6596  7335.41  84.657
 47.7016  7500.38  85.405
 47.7436  7314.35  84.6858
 47.7856  7374.42  85.0576
 47.8276  7317.97  84.7858
 47.8696  7352.68  85.0616
 47.9116  7397.23  85.0331
 47.9536  7378.02  84.8672
 47.9956  7207.25  84.5907
 48.0376  7228.15  84.4836
 48.0796  7402.2  85.6213
 48.1216  7316.91  84.9541
 48.1636  7392.55  84.9535
 48.2056  7423.01  85.4007
 48.2476  7447.92  85.8468
 48.2896  7334.96  85.1034
 48.3316  7409.74  85.4706
 48.3736  7366.09  85.258
 48.4156  7324.33  84.8666
 48.4576  7353.35  85.3307
 48.4996  7378.64  84.9224
 48.5416  7450.75  85.6664
 48.5836  7340.49  84.7049
 48.6256  7448.67  85.5324
 48.6676  7364.63  85.5781
 48.7096  7322.86  84.5942
 48.7516  7277.38  84.4825
 48.7936  7215.05  84.1792
 48.8356  7247.9  84.4253
 48.8776  7340.5  85.4449
 48.9196  7436.21  85.4472
 48.9616  7316.73  85.1527
 49.0036  7317.11  85.4987
 49.0456  7268.47  85.1974
 49.0876  7224.35  84.5751
 49.1296  7285.48  84.9947
 49.1716  7186.85  84.2914
 49.2136  7275.02  84.7307
 49.2556  7243.38  84.5805
 49.2976  7333.3  85.1636
 49.3396  7217.58  84.5419
 49.3816  7345.38  84.7132
 49.4236  7349.12  85.1789
 49.4656  7152.18  84.0365
 49.5076  7197.41  84.0541
 49.5496  7287.67  84.5225
 49.5916  7287.9  84.5602
 49.6336  7247.38  84.5333
 49.6756  7284.77  84.9824
 49.7176  7236.33  84.6445
 49.7596  7383.15  85.4372
 49.8016  7320.79  84.8118
 49.8436  7220  84.5346
 49.8856  7186.38  84.337
 49.9276  7225.18  84.6701
 49.9696  7308.89  85.1381
 50.0116  7222.31  84.7679
 50.0536  7309.27  85.2217
 50.0956  7096.25  84.0427
 50.1376  7296.76  84.9058
 50.1796  7202.22  84.6311
 50.2216  7264.6  84.9846
 50.2636  7145.35  83.9093
 50.3056  7186.28  84.3291
 50.3476  7158.39  84.1844
 50.3896  7072.55  83.6524
 50.4316  7252  84.5328
 50.4736  7112.05  83.9393
 50.5156  7119.97  83.9741
 50.5576  7234.3  84.4028
 50.5996  7128.33  84.0639
 50.6416  7168.25  84.2267
 50.6836  7242.07  84.7184
 50.7256  7233.91  84.5881
 50.7676  7320.74  85.3777
 50.8096  7183.08  84.1556
 50.8516  7116.1  84.1848
 50.8936  7159.02  84.2116
 50.9356  7319.45  85.2549
 50.9776  7079.41  84.0076
 51.0196  6975.57  83.5253
 51.0616  6974.03  82.833
 51.1036  7043.43  83.6071
 51.1456  7117.74  83.9564
 51.1876  7039.24  82.8262
 51.2296  6971.04  83.0643
 51.2716  6995.33  82.9111
 51.3136  7028.67  83.5715
 51.3556  6844.93  82.0944
 51.3976  6987.26  83.0933
 51.4396  6847  82.5692
 51.4816  6712.48  81.6127
 51.5236  6977.69  83.2958
 51.5656  6963.05  82.8006
 51.6076  6901.76  82.5193
 51.6496  6931.08  82.8853
 51.6916  6970.2  83.4866
 51.7336  6948.49  83.4453
 51.7756  6925.52  82.9918
 51.8176  6856.67  82.684
 51.8596  6903.42  82.9948
 51.9016  7011.44  83.2412
 51.9436  7038.09  84.9127
 51.9856  7030.71  85.2732
 52.0276  6934.05  83.1667
 52.0696  7183.18  84.717
 52.1116  6980.15  83.6412
 52.1536  7028.28  83.7484
 52.1956  7031.52  83.2835
 52.2376  7100.93  83.8673
 52.2796  7067.07  83.4807
 52.3216  7001.51  83.7894
 52.3636  6989.4  83.2719
 52.4056  6995.54  83.1773
 52.4476  6999.76  83.5682
 52.4896  6955.31  83.3492
 52.5316  7099.94  84.2693
 52.5736  6864.36  82.5771
 52.6156  6981.98  83.681
 52.6576  6899.96  82.6232
 52.6996  6842.58  83.2737
 52.7416  6896.52  83.4501
 52.7836  6914.83  83.4509
 52.8256  6969.21  82.9765
 52.8676  6740.18  82.1786
 52.9096  7001.21  83.8149
 52.9516  6835.12  83.2231
 52.9936  6883.53  83.8902
 53.0356  7044.12  83.836
 53.0776  7083.57  84.3789
 53.1196  6953.27  83.704
 53.1616  6884.08  83.3239
 53.2036  6924.67  83.542
 53.2456  6875.38  83.3513
 53.2876  6859.44  82.9332
 53.3296  6941.16  83.7714
 53.3716  7044.38  84.1235
 53.4136  6891.08  83.3657
 53.4556  6853.64  83.1685
 53.4976  6897.06  83.2523
 53.5396  6797.53  83.0673
 53.5816  6915.11  83.4113
 53.6236  6798.12  83.0577
 53.6656  6868.09  83.075
 53.7076  6920.38  83.3472
 53.7496  6954.51  83.6884
 53.7916  6946.02  83.7721
 53.8336  6876.12  83.2299
 53.8756  6841.64  83.5928
 53.9176  6813.12  82.7557
 53.9596  6634.27  82.4323
 54.0016  6607.96  81.5994
 54.0436  6455.65  80.8708
 54.0856  6705.22  81.8333
 54.1276  6608.75  81.4401
 54.1696  6633.78  81.7491
 54.2116  6758.06  82.2664
 54.2536  6575.66  80.9594
 54.2956  6643.65  81.4356
 54.3376  6520.76  81.1484
 54.3796  6548.81  81.2255
 54.4216  6615.92  81.6919
 54.4636  6544.57  81.2299
 54.5056  6639.14  81.6184
 54.5476  6554.64  81.4356
 54.5896  6463.32  80.715
 54.6316  6609.45  81.4542
 54.6736  6474.9  80.6697
 54.7156  6584.7  81.4115
 54.7576  6466.88  80.6516
 54.7996  6581.15  81.5324
 54.8416  6517.54  81.1812
 54.8836  6572.17  81.6048
 54.9256  6540.21  81.1874
 54.9676  6480.57  80.6591
 55.0096  6499.73  80.8271
 55.0516  6452.3  80.705
 55.0936  6541.16  80.9835
 55.1356  6461.04  80.5315
 55.1776  6565.13  81.4058
 55.2196  6477  80.6592
 55.2616  6640.57  81.8877
 55.3036  6425.38  80.7317
 55.3456  6376.55  80.5679
 55.3876  6513.3  81.1265
 55.4296  6291.17  79.745
 55.4716  6418.58  80.5736
 55.5136  6461.7  80.6065
 55.5556  6650.5  81.8261
 55.5976  6424.23  80.494
 55.6396  6349.9  79.9061
 55.6816  6421.23  80.2937
 55.7236  6423.7  80.475
 55.7656  6400.96  79.9528
 55.8076  6317.08  79.4263
 55.8496  6543.95  81.2816
 55.8916  6339.17  80.06
 55.9336  6510.34  80.983
 55.9756  6390.39  80.1112
 56.0176  6338.72  79.9274
 56.0596  6342.35  79.9598
 56.1016  6250.62  79.4388
 56.1436  6177.13  79.1838
 56.1856  6201.71  79.0966
 56.2276  6552.16  81.3295
 56.2696  6315.76  79.838
 56.3116  6436.51  80.9461
 56.3536  6359.61  80.1711
 56.3956  6306.8  79.794
 56.4376  6422.49  80.5777
 56.4796  6195.04  78.9572
 56.5216  6270.88  79.8113
 56.5636  6239.99  79.1952
 56.6056  6470.49  80.875
 56.6476  6264.05  79.1744
 56.6896  6451.57  80.8358
 56.7316  6201.44  79.1482
 56.7736  6334.97  80.0148
 56.8156  6287.71  79.7215
 56.8576  6135.7  78.7003
 56.8996  6208.99  79.0692
 56.9416  6142.75  78.8178
 56.9836  6329.43  79.6785
 57.0256  6264.29  79.5883
 57.0676  6381.47  80.4415
 57.1096  6306.2  79.7604
 57.1516  6072.47  78.2913
 57.1936  6278.65  79.3828
 57.2356  6104.89  78.6116
 57.2776  6268.62  79.619
 57.3196  6095.73  78.8425
 57.3616  6239.11  79.2726
 57.4036  6243.14  79.3578
 57.4456  6326.98  79.874
 57.4876  6138.39  78.5482
 57.5296  6189.92  79.0857
 57.5716  6181.38  79.1482
 57.6136  6068.59  78.258
 57.6556  6221.63  79.3626
 57.6976  6294.59  79.6547
 57.7396  6187.77  79.3061
 57.7816  6083.67  79.0215
 57.8236  6157.31  79.3003
 57.8656  6101.38  78.6039
 57.9076  6163.91  79.0223
 57.9496  6136.06  79.1878
 57.9916  6145.84  78.7182
 58.0336  6068.37  78.5606
 58.0756  6148.11  78.6619
 58.1176  6083.64  78.2846
 58.1596  6076.99  78.8216
 58.2016  5855.33  76.6383
 58.2436  5963.4  77.7297
 58.2856  5850.05  76.9022
 58.3276  5844.83  77.2397
 58.3696  5866.32  77.141
 58.4116  5851.93  76.9079
 58.4536  5917.4  77.2278
 58.4956  5864.49  77.0605
 58.5376  5942.51  77.1465
 58.5796  5821.2  76.7701
 58.6216  5913.92  77.2002
 58.6636  5885.03  77.2138
 58.7056  5750.55  76.1921
 58.7476  5845.67  77.2553
 58.7896  5875.13  77.0998
 58.8316  5800.15  76.6002
 58.8736  5994.53  77.8871
 58.9156  5891.59  77.2564
 58.9576  5949.39  77.8458
 58.9996  5938.51  77.1409
 59.0416  5928.25  77.4306
 59.0836  6052.77  78.1567
 59.1256  5844.77  77.1933
 59.1676  5903.15  78.1897
 59.2096  5796.42  76.7953
 59.2516  5988.04  77.6371
 59.2936  5890.67  77.3274
 59.3356  5953.58  77.6178
 59.3776  5842.31  77.0553
 59.4196  5807.33  76.7618
 59.4616  5878.8  77.0942
 59.5036  5741.38  76.2199
 59.5456  5959.68  77.3532
 59.5876  5850.25  76.8278
 59.6296  5713.23  75.9901
 59.6716  5837.16  76.8669
 59.7136  5812.22  76.691
 59.7556  5645.24  75.7133
 59.7976  5822.39  76.6388
 59.8396  5831.23  76.5931
 59.8816  5751.77  76.6011
 59.9236  5932.64  77.4437
 59.9656  5850.01  77.1588
 60.0076  5946.12  77.1526
 60.0496  5940.31  77.6126
 60.0916  5950.06  77.1007
 60.1336  5857.93  77.592
 60.1756  5881.21  78.9148
 60.1996  0.0000000E+00  0.0000000E+00