File: docs/examples/opeando_xrd/IS17_D/Data/IS17_D/17_Db_f00130.xye
# /beamlines/bl04/projects/cycle2025-II/20250340211-lsimonelli/DATA/IS17_D/17_Db_f00130.xye : mythproc.py merge -s 0.006 -l 0.5 -f /beamlines/bl04/inhouse/ff/FlatField/ff_20Nov2024rod8mm60s_17keV.raw -b True -c true -o xye /beamlines/bl04/projects/cycle2025-II/20250340211-lsimonelli/DATA/IS17_D/17_Db_00130.dat
# IsMon = [6737979, 6738277, 6740647]  IsPos = [-1.4999, -2.4884, -3.4988]
# Wave = 0.4962  CalPath /beamlines/bl04/projects/cycle2025-II/20250340211-lsimonelli/DATA/Align/Si_Pos1_25keV_f00001.cal
# Date = 2025-09-25_05:56:15 Dt = 4.8000  Bin = 0.0060  <imon> = 6738968 +/- 1194 (Min/Max) 6737979 / 6740647
# icurr 248.7972  mocoIn 1.6984E-05  mocoOut 0.7969  i15 7.0614e+06  imon 6.73897e+06  i7 5.6667  iEMpd_timer 4.8000  iEMpd_1 3.5666E-08  iEMpd_2 7.9299E-08  iEMpd_3 1.8872E-08  iEMpd_4 4.9376E-08  iEMhp_timer 4.8000  iEMhp_1 4.8608E-06  iEMhp_2 -2.6044E-08  iEMhp_3 -2.5432E-08  iEMhp_4 -2.2996E-08
#      9776
 1.5856  44151.8  215.779
 1.6276  51274.7  228.544
 1.6696  56380.1  238.807
 1.7116  63278.3  253.489
 1.7536  70976.1  267.322
 1.7956  74987.9  275.459
 1.8376  72049.1  270.436
 1.8796  61726.5  248.478
 1.9216  51167.2  227.126
 1.9636  44381.3  210.662
 2.0056  40491.5  200.439
 2.0476  37431.2  194.828
 2.0896  36549.7  191.392
 2.1316  35264  187.092
 2.1736  33859  184.781
 2.2156  33962.5  183.578
 2.2576  32779.5  180.993
 2.2996  32099.1  179.768
 2.3416  32019.4  178.111
 2.3836  31240.4  176.04
 2.4256  30355.5  174.094
 2.4676  29783.7  172.202
 2.5096  29914.8  172.638
 2.5516  29145.5  174.318
 2.5936  37728.3  194.348
 2.6356  28035.2  168.242
 2.6776  27562.2  165.71
 2.7196  27296.1  165.399
 2.7616  27066.6  164.494
 2.8036  26706.4  163.557
 2.8456  26760.9  164.37
 2.8876  26075.9  162.11
 2.9296  25452.6  160.291
 2.9716  25633.1  160.348
 3.0136  25086.4  158.699
 3.0556  25292.7  159.736
 3.0976  25291.7  158.655
 3.1396  24870.8  158.039
 3.1816  24677.7  157.368
 3.2236  24624.1  157.189
 3.2656  24337.6  155.32
 3.3076  24422.7  157.062
 3.3496  24456.2  156.087
 3.3916  24866.1  157.223
 3.4336  25326.5  159.264
 3.4756  25397.9  159.419
 3.5176  26275.1  161.922
 3.5596  25889.3  163.156
 3.6016  25944.9  160.955
 3.6436  25350.7  160.214
 3.6856  25007.7  157.426
 3.7276  24100.2  155.625
 3.7696  23704.6  154.525
 3.8116  23428.2  153.519
 3.8536  23563.9  153.897
 3.8956  23597.7  153.831
 3.9376  23411.3  153.487
 3.9796  23374.2  152.852
 4.0216  23323.1  151.719
 4.0636  23330.7  153.206
 4.1056  23281.2  152.709
 4.1476  23609.4  154.087
 4.1896  23631.2  154.02
 4.2316  23966.5  154.936
 4.2736  24313.2  155.85
 4.3156  24420.8  156.418
 4.3576  25424.2  159.514
 4.3996  25281.7  159.339
 4.4416  25973.2  161.089
 4.4836  26272.9  162.174
 4.5256  26914.7  164.754
 4.5676  26669.4  164.258
 4.6096  27418.8  165.189
 4.6516  27441.4  164.958
 4.6936  27548.3  166.105
 4.7356  27755.3  166.556
 4.7776  27724.1  166.292
 4.8196  27744.5  167.009
 4.8616  26947  164.077
 4.9036  26890.6  163.636
 4.9456  26637  163.517
 4.9876  26096.6  161.749
 5.0296  26342.1  162.355
 5.0716  26021.5  162.109
 5.1136  26338.5  162.813
 5.1556  26526  162.849
 5.1976  27828.5  166.796
 5.2396  27213.8  164.633
 5.2816  27143.7  164.895
 5.3236  27187.3  164.718
 5.3656  26635.4  163.969
 5.4076  26559.2  163.865
 5.4496  26596  163.484
 5.4916  26771  163.773
 5.5336  26605.8  163.274
 5.5756  26648.3  163.413
 5.6176  26763.7  163.214
 5.6596  26969.9  164.826
 5.7016  27174.1  164.707
 5.7436  27396.2  165.665
 5.7856  27237.3  165.249
 5.8276  27531.1  165.849
 5.8696  27519.3  165.987
 5.9116  27468.4  166.434
 5.9536  28095.3  168.067
 5.9956  27944.7  167.003
 6.0376  28018  167.842
 6.0796  28436.8  168.917
 6.1216  28044.9  167.946
 6.1636  28577.1  168.591
 6.2056  28339.9  168.566
 6.2476  28520.3  168.97
 6.2896  28891.8  169.752
 6.3316  28987.9  170.207
 6.3736  28823.5  169.614
 6.4156  29066.1  170.204
 6.4576  29082.6  169.88
 6.4996  29020.9  170.173
 6.5416  29057.2  170.418
 6.5836  29175.8  171
 6.6256  29445.5  171.346
 6.6676  29835.5  172.044
 6.7096  29808.1  172.823
 6.7516  30175.5  173.541
 6.7936  30467.3  173.77
 6.8356  30351.6  173.538
 6.8776  30526.9  174.847
 6.9196  30679.4  175.683
 6.9616  31086.5  176.292
 7.0036  31586.6  177.354
 7.0456  31695.2  176.96
 7.0876  31338.4  177.638
 7.1296  31500.1  177.23
 7.1716  31378.7  176.427
 7.2136  31324.8  176.061
 7.2556  31448.8  176.562
 7.2976  31366  176.83
 7.3396  31519.6  177.474
 7.3816  31542.9  177.762
 7.4236  31670.2  177.416
 7.4656  31940.9  177.626
 7.5076  32089.8  178.2
 7.5496  32025.7  178.553
 7.5916  32134.6  178.903
 7.6336  32451.6  179.673
 7.6756  32659.1  180.095
 7.7176  33230.2  181.987
 7.7596  33074.1  182.79
 7.8016  34069.4  187.776
 7.8436  33180.8  181.971
 7.8856  33652.5  182.873
 7.9276  33881  183.875
 7.9696  34277  185.264
 8.0116  35256.1  186.437
 8.0536  35237.1  186.633
 8.0956  35368  188.164
 8.1376  35823.1  188.837
 8.1796  35889.9  189.55
 8.2216  36854.1  190.816
 8.2636  37030.9  191.526
 8.3056  36567  191.084
 8.3476  37355.9  192.465
 8.3896  37019.5  191.674
 8.4316  37173.3  192.241
 8.4736  37347.6  192.164
 8.5156  36776.9  190.964
 8.5576  36985.3  192.473
 8.5996  36608.8  190.373
 8.6416  36748.2  191.996
 8.6836  36458.1  191.061
 8.7256  37218.5  192.5
 8.7676  36934.7  194.678
 8.8096  37463.3  193.347
 8.8516  37025  191.777
 8.8936  36697.5  190.887
 8.9356  36953.8  191.884
 8.9776  36632.2  191.131
 9.0196  36844.1  191.346
 9.0616  36658.3  190.367
 9.1036  36635.9  191.485
 9.1456  35751.2  188.479
 9.1876  36423.7  190.2
 9.2296  36138.3  188.883
 9.2716  35635.7  187.605
 9.3136  35631.4  187.598
 9.3556  35893.8  188.262
 9.3976  34882.1  186.103
 9.4396  34981.6  186.276
 9.4816  34870.6  185.84
 9.5236  34731.3  185.353
 9.5656  34386.6  184.8
 9.6076  33659.5  183.349
 9.6496  33922.3  183.958
 9.6916  33514.9  182.807
 9.7336  33674  183.022
 9.7756  33659.9  184.252
 9.8176  33490.3  183.31
 9.8596  33400.1  181.492
 9.9016  33167.8  180.853
 9.9436  32970.8  180.232
 9.9856  32545.7  179.34
 10.0276  31880  178.571
 10.0696  32403.4  179.057
 10.1116  31323.8  176.321
 10.1536  31321.3  176.459
 10.1956  31067.4  175.351
 10.2376  30904.9  174.408
 10.2796  30633.9  173.754
 10.3216  30387.4  173.341
 10.3636  30272  173.035
 10.4056  29941.4  172.496
 10.4476  30383.3  173.362
 10.4896  30946.5  174.412
 10.5316  30067.3  172.645
 10.5736  29315.1  170.887
 10.6156  29168.4  170.207
 10.6576  29891.3  170.843
 10.6996  28775.9  168.333
 10.7416  28502.5  167.751
 10.7836  28133.3  167.328
 10.8256  27701.7  166.458
 10.8676  27924.8  166.672
 10.9096  27589.3  165.69
 10.9516  27302.7  163.775
 10.9936  27568.1  164.777
 11.0356  27285.4  164.54
 11.0776  27096.4  163.303
 11.1196  26842.7  163.307
 11.1616  26468.8  161.835
 11.2036  26716.5  162.437
 11.2456  26755.7  163.276
 11.2876  26983.2  163.695
 11.3296  26315.9  161.565
 11.3716  26985.5  163.287
 11.4136  26960.1  164.115
 11.4556  27356.9  164.968
 11.4976  27768  165.167
 11.5396  27082  163.29
 11.5816  26418.2  161.72
 11.6236  25837.2  160.163
 11.6656  26190  160.396
 11.7076  25477.8  159.027
 11.7496  25259.8  162.366
 11.7916  25181.9  157.358
 11.8336  24819.6  157.111
 11.8756  24644.6  156.109
 11.9176  24706.8  155.982
 11.9596  24778  156.379
 12.0016  24655.9  156.767
 12.0436  24695.4  156.337
 12.0856  24322.9  155.655
 12.1276  24321.8  155.603
 12.1696  24277.2  154.57
 12.2116  24111.7  154.041
 12.2536  24415.7  155.827
 12.2956  24129.2  154.259
 12.3376  24192.3  154.67
 12.3796  23824.8  153.972
 12.4216  24032.8  153.831
 12.4636  23829.4  154.116
 12.5056  23836.1  153.408
 12.5476  24091.2  153.738
 12.5896  23835.2  153.56
 12.6316  23901.3  153.925
 12.6736  23758.4  153.949
 12.7156  23914.1  154.299
 12.7576  23798.9  154.184
 12.7996  24004.3  153.48
 12.8416  23593.2  153.208
 12.8836  24185.8  154.952
 12.9256  24466.5  154.879
 12.9676  24361.5  154.943
 13.0096  24427  156.274
 13.0516  24460.5  155.41
 13.0936  24754.4  156.753
 13.1356  24798.4  155.848
 13.1776  24546.5  156.074
 13.2196  24278.6  154.853
 13.2616  24175  154.848
 13.3036  24136.8  154.692
 13.3456  24016.3  154.65
 13.3876  24558.5  155.662
 13.4296  24285.4  154.958
 13.4716  24609.4  155.614
 13.5136  24466.5  155.274
 13.5556  24230.6  155.167
 13.5976  24550.5  156.361
 13.6396  24495  155.534
 13.6816  24662.6  156.551
 13.7236  24912.6  156.935
 13.7656  26454.6  162.181
 13.8076  27213.3  163.102
 13.8496  26595.9  161.935
 13.8916  24694.1  157.162
 13.9336  23992.5  154.188
 13.9756  24090.3  153.876
 14.0176  23733.6  153.413
 14.0596  23929.4  153.965
 14.1016  23726.6  153.747
 14.1436  23759  152.982
 14.1856  23086.9  151.091
 14.2276  23131.7  151.723
 14.2696  23239.3  151.925
 14.3116  22602.1  149.736
 14.3536  22598.1  149.89
 14.3956  22351.2  148.801
 14.4376  22480  149.01
 14.4796  22553.2  149.251
 14.5216  22183.7  148.814
 14.5636  22066  147.984
 14.6056  22226.5  148.07
 14.6476  22001.2  146.576
 14.6896  21658.9  145.971
 14.7316  21272.5  145.688
 14.7736  21128.6  144.35
 14.8156  20965.6  143.808
 14.8576  21067.9  144.02
 14.8996  20757.2  144.138
 14.9416  20233.4  142.332
 14.9836  20232.7  142.31
 15.0256  19672.3  139.246
 15.0676  19587.7  139.252
 15.1096  19519.6  138.754
 15.1516  19312.6  138.57
 15.1936  19333.3  138.075
 15.2356  18909.8  136.83
 15.2776  18936.7  136.518
 15.3196  18448.1  135.729
 15.3616  18595.1  136.023
 15.4036  18230.3  134.547
 15.4456  18716.6  135.98
 15.4876  18297.9  134.139
 15.5296  18061.4  133.553
 15.5716  18019.5  133.004
 15.6136  18077.2  133.545
 15.6556  18017.6  132.568
 15.6976  17751.4  131.879
 15.7396  17642.7  131.851
 15.7816  17551.9  131.034
 15.8236  17416.9  131.211
 15.8656  17414.6  131.001
 15.9076  17432.9  130.89
 15.9496  17883.3  135.4
 15.9916  17593.2  134.706
 16.0336  17609.2  131.624
 16.0756  17466.6  131.414
 16.1176  17531  131.732
 16.1596  16946.6  130.687
 16.2016  16886.4  129.222
 16.2436  16890.2  129.609
 16.2856  16828.9  128.894
 16.3276  16464.6  127.935
 16.3696  16791.8  129.023
 16.4116  16630.7  128.848
 16.4536  16880.9  129.619
 16.4956  17054.4  130.012
 16.5376  16549.1  128.266
 16.5796  16523.9  127.529
 16.6216  16766.6  128.732
 16.6636  16307.8  127.145
 16.7056  16486.6  127.708
 16.7476  16642.1  127.83
 16.7896  16524.9  128.123
 16.8316  16458.7  127.851
 16.8736  16673.1  128.94
 16.9156  16558.5  128.823
 16.9576  16227.3  128.323
 16.9996  16325.9  129.184
 17.0416  16397.2  127.852
 17.0836  16356.2  127.45
 17.1256  16260.9  127.089
 17.1676  16207.4  126.847
 17.2096  16043.8  126.093
 17.2516  16032.1  125.839
 17.2936  15930.3  125.787
 17.3356  15651.5  124.672
 17.3776  15802.8  125.462
 17.4196  15727.8  124.856
 17.4616  15626.6  124.361
 17.5036  15327.3  123.536
 17.5456  15420  124.528
 17.5876  15225.3  122.797
 17.6296  15264.2  122.791
 17.6716  15145.9  122.89
 17.7136  15269.4  123.524
 17.7556  15226.8  123.647
 17.7976  15088.1  122.822
 17.8396  15067.7  122.223
 17.8816  14939.5  122.275
 17.9236  14899.8  121.902
 17.9656  14775.1  121.908
 18.0076  14960.9  122.259
 18.0496  15001.5  121.543
 18.0916  15255.4  123.135
 18.1336  15117.3  122.676
 18.1756  15101.9  122.158
 18.2176  14799.3  121.139
 18.2596  14678.8  120.373
 18.3016  15026.6  122.056
 18.3436  14861  121.381
 18.3856  14711.2  120.909
 18.4276  14680.8  120.466
 18.4696  14527.8  119.918
 18.5116  14608.1  120.53
 18.5536  14553.7  120.66
 18.5956  14472.1  119.883
 18.6376  14174.3  119.044
 18.6796  14315.1  118.949
 18.7216  14342  119.551
 18.7636  14516.1  120.283
 18.8056  14289.7  119.268
 18.8476  14106.9  119.122
 18.8896  14266.9  119.131
 18.9316  14289.1  119.207
 18.9736  14227  118.65
 19.0156  14071.3  118.415
 19.0576  14307.9  118.241
 19.0996  14174.8  118.412
 19.1416  14097.4  118.483
 19.1836  14096.9  118.085
 19.2256  13946.8  117.675
 19.2676  14072.7  118.286
 19.3096  13897.4  117.794
 19.3516  13900.9  117.77
 19.3936  14061  118.344
 19.4356  14195.4  118.788
 19.4776  14120.2  118.559
 19.5196  14102.8  118.34
 19.5616  13906.2  117.769
 19.6036  13865  117.087
 19.6456  14077.8  118.107
 19.6876  14247.8  118.452
 19.7296  14180.6  118.634
 19.7716  14084.4  118.408
 19.8136  14558.2  120.582
 19.8556  14644.7  120.414
 19.8976  14709.6  120.735
 19.9396  14773.5  120.574
 19.9816  14726.4  120.641
 20.0236  14561.3  120.159
 20.0656  14219.9  118.745
 20.1076  14060.3  118.548
 20.1496  13773.7  117.33
 20.1916  13959.8  117.643
 20.2336  13812.7  116.943
 20.2756  13629.1  116.59
 20.3176  13562.3  116.05
 20.3596  13387.2  115.293
 20.4016  13440.6  115.317
 20.4436  13363.8  115.547
 20.4856  13392.9  115.468
 20.5276  13332.3  115.664
 20.5696  13359.4  115.237
 20.6116  13299.4  115.255
 20.6536  13317.2  114.837
 20.6956  13186.3  114.406
 20.7376  13001.6  113.813
 20.7796  13021.7  113.597
 20.8216  13275.9  114.403
 20.8636  13252.7  114.686
 20.9056  13104.1  113.977
 20.9476  13250.6  114.466
 20.9896  13356.3  114.774
 21.0316  13160.8  113.837
 21.0736  13109.8  114.137
 21.1156  13010.4  113.858
 21.1576  13032.2  113.995
 21.1996  12926.9  113.522
 21.2416  13116  114.173
 21.2836  13104  114.094
 21.3256  13001  113.722
 21.3676  12894.5  112.799
 21.4096  12915.4  113.207
 21.4516  12733.9  112.28
 21.4936  12534.5  111.656
 21.5356  12793.1  112.753
 21.5776  12918.2  113.135
 21.6196  12797.2  112.646
 21.6616  12819.8  112.826
 21.7036  12779.5  112.415
 21.7456  12844.4  112.782
 21.7876  12710.8  111.958
 21.8296  12502.4  110.881
 21.8716  12676  111.875
 21.9136  12876.8  112.964
 21.9556  12627.2  111.54
 21.9976  12529.9  111.134
 22.0396  12716.3  112.216
 22.0816  12563.2  112.064
 22.1236  12766  112.423
 22.1656  12635.7  111.988
 22.2076  12315.3  110.023
 22.2496  12426.8  110.55
 22.2916  12311.7  109.923
 22.3336  12420.7  111.125
 22.3756  12389.9  110.708
 22.4176  12268.4  110.016
 22.4596  12076.8  109.731
 22.5016  12368.2  110.551
 22.5436  12385  110.504
 22.5856  12503.3  111.278
 22.6276  12587.7  111.793
 22.6696  12411.6  111.361
 22.7116  12323.2  110.48
 22.7536  12412.9  110.854
 22.7956  12405.5  110.165
 22.8376  12224.8  109.866
 22.8796  12262.3  109.839
 22.9216  12522.3  111.54
 22.9636  12306.8  109.734
 23.0056  12303.2  109.858
 23.0476  12378.8  110.762
 23.0896  12634.7  111.276
 23.1316  12603.9  111.578
 23.1736  12449.5  113.82
 23.2156  12625.4  111.998
 23.2576  12737.5  112.632
 23.2996  12451.6  111.126
 23.3416  12561.7  112.153
 23.3836  12590.4  111.512
 23.4256  12787.2  112.502
 23.4676  12549.7  111.142
 23.5096  12640.6  112.21
 23.5516  12559.5  111.145
 23.5936  12394.5  111.318
 23.6356  12709.8  112.385
 23.6776  12330.8  110.905
 23.7196  12357.8  110.608
 23.7616  12515.9  111.232
 23.8036  12643.4  111.853
 23.8456  12392.8  110.294
 23.8876  12469  110.988
 23.9296  12431.6  111.309
 23.9716  12338  110.096
 24.0136  12356.7  111.082
 24.0556  12163  109.928
 24.0976  12064.7  109.298
 24.1396  12022.8  111.714
 24.1816  12210.1  111
 24.2236  12201.9  110.595
 24.2656  12109.6  109.642
 24.3076  12037.1  109.586
 24.3496  11972.4  109.163
 24.3916  12096.8  109.787
 24.4336  12020.2  109.645
 24.4756  12017.4  109.514
 24.5176  11995.8  109.046
 24.5596  11851.1  108.499
 24.6016  11682.2  108.028
 24.6436  11835.1  108.234
 24.6856  11701.3  107.366
 24.7276  11670.5  107.544
 24.7696  11668.8  107.646
 24.8116  11613.4  107.577
 24.8536  11593.2  107.482
 24.8956  11568.6  107.094
 24.9376  11421.4  106.337
 24.9796  11386.6  106.541
 25.0216  11417.9  106.803
 25.0636  11560.4  107.121
 25.1056  11179.8  106.037
 25.1476  11278.6  108.131
 25.1896  11257  106.537
 25.2316  11185  105.476
 25.2736  11269.6  105.529
 25.3156  11084.3  104.724
 25.3576  11081  105.141
 25.3996  11146.4  105.44
 25.4416  11061.1  105.009
 25.4836  10964.8  105.068
 25.5256  10919.3  104.218
 25.5676  11046.7  104.549
 25.6096  10957.4  104.699
 25.6516  10945.8  104.155
 25.6936  10984.8  104.654
 25.7356  10869.3  104.237
 25.7776  10996.6  104.439
 25.8196  10901  104.233
 25.8616  10778.6  103.572
 25.9036  11007.6  104.116
 25.9456  10941  104.411
 25.9876  10864.5  104.1
 26.0296  11054.6  104.527
 26.0716  11026.6  104.821
 26.1136  11032  104.771
 26.1556  11026.5  104.127
 26.1976  10833.3  104.138
 26.2396  10872.6  103.484
 26.2816  10827.9  103.883
 26.3236  10853.1  104.158
 26.3656  10943.6  104.311
 26.4076  10830.5  103.98
 26.4496  10979  104.283
 26.4916  11054.5  104.533
 26.5336  11212.5  105.62
 26.5756  11703.4  107.783
 26.6176  10991.6  104.477
 26.6596  10851.5  104.126
 26.7016  10778.1  103.531
 26.7436  10838.6  103.945
 26.7856  10654.5  103.048
 26.8276  10558.9  102.55
 26.8696  10654.8  102.884
 26.9116  10577.9  102.453
 26.9536  10505.9  102.15
 26.9956  10392.1  101.629
 27.0376  10498.7  102.373
 27.0796  10452.3  101.868
 27.1216  10536.5  102.334
 27.1636  10360.3  101.655
 27.2056  10494.5  102.192
 27.2476  10449.5  101.961
 27.2896  10208.6  100.897
 27.3316  10314.4  101.134
 27.3736  10309  101.378
 27.4156  10331.3  101.331
 27.4576  10358.2  101.684
 27.4996  10358.9  101.295
 27.5416  10243.5  101.017
 27.5836  10186.2  100.589
 27.6256  10220.3  100.934
 27.6676  10215  100.902
 27.7096  10198.7  100.703
 27.7516  10237.9  101.037
 27.7936  10505.1  102.496
 27.8356  10355.6  101.383
 27.8776  10445.4  101.878
 27.9196  10187.8  100.48
 27.9616  10162.5  100.548
 28.0036  10329.9  101.328
 28.0456  10038.6  100.03
 28.0876  9962.3  99.7335
 28.1296  10039.2  99.9571
 28.1716  10103.6  100.299
 28.2136  10125.5  100.372
 28.2556  10034.6  100.037
 28.2976  9875.7  99.2328
 28.3396  10012.2  99.6677
 28.3816  9991.66  99.5762
 28.4236  9982.48  99.6893
 28.4656  9804.01  98.8296
 28.5076  9909.07  99.002
 28.5496  9899.76  99.2108
 28.5916  9989.57  99.4684
 28.6336  9916.02  99.452
 28.6756  9740.3  97.7654
 28.7176  9777.24  98.5016
 28.7596  9702.51  98.0216
 28.8016  9669.81  97.8943
 28.8436  9685.09  98.2082
 28.8856  9859.5  98.9419
 28.9276  9814.41  98.9633
 28.9696  9676.87  97.9144
 29.0116  9713.7  98.2912
 29.0536  9556.99  97.7023
 29.0956  9831.02  98.7952
 29.1376  9635.06  97.7761
 29.1796  9701.45  98.1634
 29.2216  9636.61  97.6713
 29.2636  9770.27  98.4267
 29.3056  9675.31  97.7298
 29.3476  9637.62  98.0631
 29.3896  9705.57  98.5165
 29.4316  9562.28  97.1226
 29.4736  9436.01  96.5392
 29.5156  9493.14  96.7577
 29.5576  9325.56  96.6283
 29.5996  9474.2  96.6593
 29.6416  9426.21  96.5328
 29.6836  9542.22  97.0521
 29.7256  9346.76  96.6105
 29.7676  9320.3  96.138
 29.8096  9336.36  96.1661
 29.8516  9209.07  95.832
 29.8936  9423.68  97.0379
 29.9356  9394.83  96.6463
 29.9776  9280.75  96.1976
 30.0196  9306.85  95.7404
 30.0616  9192.01  95.5151
 30.1036  9352.82  96.177
 30.1456  9315.43  96.2095
 30.1876  9235.54  95.7784
 30.2296  9256.05  95.8315
 30.2716  9326.19  95.8361
 30.3136  9394.3  97.0379
 30.3556  9568.78  97.9374
 30.3976  9357.8  98.3265
 30.4396  9635.24  97.1348
 30.4816  9601.53  96.5687
 30.5236  9689.4  97.0035
 30.5656  9494.24  96.6821
 30.6076  9619.16  96.7248
 30.6496  9545.98  96.7679
 30.6916  9258.75  95.3868
 30.7336  9475.39  96.6331
 30.7756  9315.37  95.9108
 30.8176  9504.3  96.7957
 30.8596  9489.01  96.4723
 30.9016  9329.17  96.0085
 30.9436  9425.34  96.2598
 30.9856  9613.73  97.3225
 31.0276  9298.44  95.3487
 31.0696  9276.61  95.801
 31.1116  9340.26  96.0992
 31.1536  9215.59  95.3152
 31.1956  9297.44  95.8463
 31.2376  9047.69  94.5708
 31.2796  9317.36  95.5034
 31.3216  9328.01  95.4817
 31.3636  9376.38  96.4351
 31.4056  9288.77  97.2817
 31.4476  9363.37  95.5903
 31.4896  9292.3  95.7301
 31.5316  9247.78  94.9078
 31.5736  9516.32  96.1045
 31.6156  9439.89  95.7224
 31.6576  9420.55  95.7043
 31.6996  9432.43  95.4276
 31.7416  9306.19  95.8809
 31.7836  9381.7  95.2673
 31.8256  9389.92  95.5651
 31.8676  9568.74  96.4714
 31.9096  9203.02  94.9729
 31.9516  9125.51  94.745
 31.9936  9026.16  94.0502
 32.0356  9383.03  95.948
 32.0776  9267.41  95.2422
 32.1196  9332.8  95.6857
 32.1616  9321  95.0652
 32.2036  9183.97  94.8794
 32.2456  9314.09  95.9348
 32.2876  9311.86  95.4204
 32.3296  9082.35  94.1865
 32.3716  8971.07  93.7286
 32.4136  8950.23  93.8152
 32.4556  9160.45  94.2957
 32.4976  9056.36  93.6727
 32.5396  9004.06  93.453
 32.5816  9033.46  93.7403
 32.6236  8964.9  93.4424
 32.6656  9035.66  94.3627
 32.7076  8836.37  92.9711
 32.7496  8923.07  93.0995
 32.7916  8984.89  93.3808
 32.8336  8840.95  92.7217
 32.8756  8989.92  93.2202
 32.9176  8708.3  92.2301
 32.9596  8929.01  93.4614
 33.0016  8936.4  93.2691
 33.0436  8961.43  93.5771
 33.0856  8910.5  93.4074
 33.1276  8768.73  92.3912
 33.1696  8819.48  92.4992
 33.2116  8998.72  93.6612
 33.2536  9078.2  94.0679
 33.2956  8841.16  92.9226
 33.3376  8885.85  92.8846
 33.3796  8828.98  92.812
 33.4216  8883.06  92.6821
 33.4636  8917.07  93.0196
 33.5056  8645.22  91.8309
 33.5476  8839.7  92.8276
 33.5896  8955.49  93.2354
 33.6316  8791.81  92.6848
 33.6736  8750.33  92.7138
 33.7156  8722.65  92.6003
 33.7576  8856.88  92.9484
 33.7996  8843.86  92.6374
 33.8416  8643.08  91.7677
 33.8836  8704.31  91.8715
 33.9256  8840.61  92.6396
 33.9676  8775.02  92.1991
 34.0096  8595.46  91.555
 34.0516  8664.18  91.5567
 34.0936  8712.59  92.0904
 34.1356  8802.56  92.3007
 34.1776  8604.09  91.2558
 34.2196  8731.65  92.1113
 34.2616  8497.42  91.0064
 34.3036  8547.64  91.5145
 34.3456  8547.52  91.2631
 34.3876  8738.92  92.263
 34.4296  8651.72  91.489
 34.4716  8687.82  91.8338
 34.5136  8619.14  91.6574
 34.5556  8486.9  91.2133
 34.5976  8710.65  92.213
 34.6396  8501.81  90.8148
 34.6816  8621.34  91.5618
 34.7236  8586.76  91.1437
 34.7656  8649.58  91.6928
 34.8076  8483.32  91.1351
 34.8496  8527.9  91.2249
 34.8916  8519.42  91.0357
 34.9336  8531.3  91.089
 34.9756  8645.78  91.6144
 35.0176  8498.55  91.3606
 35.0596  8629.11  91.8822
 35.1016  8578.79  91.365
 35.1436  8740.78  91.906
 35.1856  8501.72  90.7692
 35.2276  8446.43  90.6499
 35.2696  8512.21  91.1843
 35.3116  8446.4  90.9381
 35.3536  8399.26  90.3908
 35.3956  8373.46  89.9648
 35.4376  8537.23  91.4144
 35.4796  8519.42  91.3511
 35.5216  8435.43  90.8664
 35.5636  8202.35  90.3296
 35.6056  8381.87  90.3394
 35.6476  8624.29  91.5352
 35.6896  8512.95  91.0457
 35.7316  8302.84  89.8855
 35.7736  8354.81  90.3519
 35.8156  8432.58  90.7749
 35.8576  8410.29  90.9024
 35.8996  8426.16  90.9563
 35.9416  8456.19  90.6186
 35.9836  8455.02  90.9641
 36.0256  8600.36  91.751
 36.0676  8628.23  91.6542
 36.1096  8507.53  91.154
 36.1516  8412.8  90.5341
 36.1936  8440.75  90.527
 36.2356  8390.81  90.9202
 36.2776  8306.03  89.9342
 36.3196  8402.34  90.1198
 36.3616  8394.91  90.2024
 36.4036  8357.52  90.0804
 36.4456  8408.11  90.558
 36.4876  8220.54  89.4812
 36.5296  8135.11  89.0582
 36.5716  8252.32  90.4733
 36.6136  8195.54  88.9465
 36.6556  8275.23  89.5772
 36.6976  8150.18  89.3942
 36.7396  8199.87  89.3994
 36.7816  8104.2  89.2455
 36.8236  8108.31  89.1932
 36.8656  7924.12  88.2399
 36.9076  7984.82  88.4637
 36.9496  7980.15  88.4212
 36.9916  8042.72  88.4037
 37.0336  8066.78  88.8448
 37.0756  8081.06  88.7198
 37.1176  7902.1  87.9947
 37.1596  8002.55  88.5604
 37.2016  7993.23  88.7287
 37.2436  8083.13  88.5427
 37.2856  7990.09  88.2816
 37.3276  8065.79  88.0667
 37.3696  8039.16  88.8013
 37.4116  8036.58  88.689
 37.4536  7921.25  87.9214
 37.4956  7867.45  87.6683
 37.5376  8132.5  90.7223
 37.5796  8042.96  90.1483
 37.6216  7989.23  88.1193
 37.6636  8106.95  88.6628
 37.7056  8126.39  88.9575
 37.7476  8095.1  88.3286
 37.7896  7926.51  87.9008
 37.8316  8034.49  88.6591
 37.8736  8025.05  88.131
 37.9156  8099.65  88.5314
 37.9576  8306.1  89.5694
 37.9996  8029.84  87.7765
 38.0416  8023.13  88.5507
 38.0836  8208.05  89.4536
 38.1256  7995.62  88.2734
 38.1676  7953.48  88.1569
 38.2096  8155.8  88.8872
 38.2516  8094.18  88.7626
 38.2936  8151.88  88.8849
 38.3356  8004.08  87.998
 38.3776  7980  88.0994
 38.4196  8040.63  88.3078
 38.4616  8038.04  88.5403
 38.5036  8189.76  89.2134
 38.5456  7949.49  88.7271
 38.5876  7888.74  88.412
 38.6296  7926.36  87.5819
 38.6716  7958.53  87.5831
 38.7136  7951.61  87.4854
 38.7556  7972.57  88.1089
 38.7976  8066.95  88.5447
 38.8396  7856  87.8369
 38.8816  7866.99  87.7047
 38.9236  7886.39  87.5944
 38.9656  8032.43  88.3185
 39.0076  8098.93  88.094
 39.0496  8246.87  89.4562
 39.0916  8081.66  88.1988
 39.1336  7906.94  87.6427
 39.1756  7979.54  88.1139
 39.2176  7940.76  88.4333
 39.2596  7979.01  88.5667
 39.3016  7812.67  87.229
 39.3436  7875.57  87.9864
 39.3856  8046.81  88.3722
 39.4276  8133.41  89.3661
 39.4696  7900.84  87.7064
 39.5116  7992.02  88.7228
 39.5536  7968.53  89.008
 39.5956  8004.44  88.3073
 39.6376  7919.86  87.8421
 39.6796  7976.03  87.9001
 39.7216  7895.94  87.5572
 39.7636  7901.7  88.1478
 39.8056  7945.05  88.174
 39.8476  7865.52  87.9877
 39.8896  8014.53  88.4501
 39.9316  7771.91  87.3436
 39.9736  7910.42  87.6978
 40.0156  7889.91  87.4107
 40.0576  7945.87  88.072
 40.0996  8026.92  87.6932
 40.1416  7977.96  88.2273
 40.1836  7946.48  87.9459
 40.2256  7834.62  87.3629
 40.2676  7916.25  87.9156
 40.3096  8023.68  88.444
 40.3516  7949.71  88.1499
 40.3936  7931.89  87.602
 40.4356  7891.15  87.5845
 40.4776  7962.19  88.3761
 40.5196  8053.85  89.017
 40.5616  8030.54  88.5244
 40.6036  7920.99  88.1788
 40.6456  7954.2  87.9607
 40.6876  8071.87  88.6116
 40.7296  7835.05  87.4334
 40.7716  7973.34  88.3219
 40.8136  7810.93  87.361
 40.8556  7971.67  88.3947
 40.8976  7967.26  88.2829
 40.9396  7920.22  88.3742
 40.9816  7920.4  87.6718
 41.0236  7982.8  87.7909
 41.0656  8062.01  88.7685
 41.1076  7904.55  87.6725
 41.1496  7983.28  88.0092
 41.1916  7855.06  87.6177
 41.2336  7933.36  88.0532
 41.2756  7849.39  87.1953
 41.3176  7879.18  87.9688
 41.3596  7966.2  88.1868
 41.4016  7851.06  87.805
 41.4436  7920.79  87.9689
 41.4856  7915.6  88.1164
 41.5276  7873.1  87.8962
 41.5696  7941.71  87.9108
 41.6116  7884.54  87.9827
 41.6536  8037.92  88.6872
 41.6956  8036.2  88.7361
 41.7376  7853.52  87.7515
 41.7796  7894.23  87.8554
 41.8216  7995.33  88.6585
 41.8636  7877.36  87.9429
 41.9056  7769.54  87.1294
 41.9476  7868.04  87.9158
 41.9896  8027.04  88.4591
 42.0316  7960.95  88.1836
 42.0736  8033.11  88.6854
 42.1156  7929.87  87.9538
 42.1576  7951.5  88.1725
 42.1996  8033.26  88.7544
 42.2416  7948.14  87.87
 42.2836  7957.6  88.0448
 42.3256  7903.42  87.8571
 42.3676  8003.39  88.202
 42.4096  7883.84  87.5175
 42.4516  7904.2  87.716
 42.4936  7734.25  86.8375
 42.5356  7770.23  87.1698
 42.5776  7941.22  88.0701
 42.6196  7894.27  87.8673
 42.6616  7740.98  87.1772
 42.7036  7905.33  87.4747
 42.7456  7940.24  88.0188
 42.7876  7796.69  87.3219
 42.8296  7870.28  87.5701
 42.8716  7688.64  86.7179
 42.9136  7747.99  86.8356
 42.9556  7900.77  87.8194
 42.9976  7880.97  87.6765
 43.0396  7815.83  87.0465
 43.0816  7784.65  87.2555
 43.1236  7817.36  87.4822
 43.1656  7740.05  86.8752
 43.2076  7798.21  87.3161
 43.2496  7778.21  87.0238
 43.2916  7749.72  87.2241
 43.3336  7746.97  87.0417
 43.3756  7829.75  87.262
 43.4176  7703.99  86.6366
 43.4596  7707.34  86.5108
 43.5016  7810.85  87.4956
 43.5436  7709.94  86.8382
 43.5856  7681.78  86.7076
 43.6276  7699.54  86.6966
 43.6696  7680.98  86.8511
 43.7116  7778.19  86.8963
 43.7536  7756.32  87.2713
 43.7956  7614.07  87.6774
 43.8376  7561.08  85.9017
 43.8796  7575.01  86.0564
 43.9216  7727.35  86.825
 43.9636  7609.69  86.2743
 44.0056  7533.12  86.0665
 44.0476  7635.22  86.2817
 44.0896  7562.8  86.2153
 44.1316  7664.71  86.3186
 44.1736  7536.07  85.7127
 44.2156  7589.25  85.8741
 44.2576  7501.11  85.6931
 44.2996  7646.55  86.492
 44.3416  7573.29  85.837
 44.3836  7370.37  85.0036
 44.4256  7424.18  84.9585
 44.4676  7431.15  85.1475
 44.5096  7512.17  85.761
 44.5516  7507.59  85.6876
 44.5936  7414.37  85.1197
 44.6356  7541.19  85.5822
 44.6776  7585.24  86.147
 44.7196  7479.68  85.8554
 44.7616  7498.81  87.2884
 44.8036  7511.09  85.7852
 44.8456  7629.63  86.6685
 44.8876  7683.3  86.8115
 44.9296  7711.67  86.4191
 44.9716  7683.16  86.6907
 45.0136  7605.77  86.1953
 45.0556  7665.83  86.5079
 45.0976  7605.29  86.3146
 45.1396  7497.51  85.4664
 45.1816  7515.75  85.5087
 45.2236  7752.19  86.7503
 45.2656  7502.98  85.8375
 45.3076  7601.42  86.1732
 45.3496  7360.27  85.105
 45.3916  7534.88  86.386
 45.4336  7664.21  86.9715
 45.4756  7501.52  85.874
 45.5176  7551.47  85.7944
 45.5596  7699.79  86.7525
 45.6016  7499.84  86.0425
 45.6436  7600.43  85.7676
 45.6856  7521.74  86.0004
 45.7276  7434.28  86.8049
 45.7696  7488.74  86.8089
 45.8116  7671.31  87.2846
 45.8536  7418.6  85.7364
 45.8956  7567.65  85.9409
 45.9376  7583.07  85.4877
 45.9796  7521.88  85.8218
 46.0216  7605.28  86.6439
 46.0636  7653.38  86.0418
 46.1056  7615.49  85.8311
 46.1476  7501.83  85.7813
 46.1896  7618.16  86.5729
 46.2316  7503.77  85.8061
 46.2736  7378.93  85.4656
 46.3156  7491.83  85.695
 46.3576  7498.52  85.944
 46.3996  7560.11  86.4579
 46.4416  7526.24  85.8277
 46.4836  7484.02  85.9445
 46.5256  7497.88  85.9656
 46.5676  7318.9  85.0533
 46.6096  7447.34  85.7222
 46.6516  7624.16  85.7657
 46.6936  7444.34  85.2474
 46.7356  7674.18  86.649
 46.7776  7427.05  86.0939
 46.8196  7501.86  86.1141
 46.8616  7312.67  84.9732
 46.9036  7294  84.5269
 46.9456  7347.02  84.463
 46.9876  7463.81  85.2203
 47.0296  7372.68  85.3872
 47.0716  7344.89  85.0525
 47.1136  7407.9  85.0908
 47.1556  7455.73  85.2313
 47.1976  7546.56  85.8336
 47.2396  7428.59  85.5606
 47.2816  7336.82  84.7325
 47.3236  7359.83  85.2313
 47.3656  7395.69  85.3732
 47.4076  7320.59  84.7398
 47.4496  7413.48  85.3671
 47.4916  7364.08  85.2649
 47.5336  7482.42  85.7757
 47.5756  7472.61  85.8333
 47.6176  7362.38  85.1025
 47.6596  7354.69  84.766
 47.7016  7555.47  85.719
 47.7436  7492.17  85.704
 47.7856  7450.24  85.4961
 47.8276  7326.94  84.8351
 47.8696  7391.58  85.2873
 47.9116  7435.51  85.2605
 47.9536  7431.67  85.1755
 47.9956  7311  85.1974
 48.0376  7342.1  85.1483
 48.0796  7518.53  86.298
 48.1216  7384.49  85.3454
 48.1636  7491.85  85.5248
 48.2056  7306.4  84.7279
 48.2476  7524.42  86.2997
 48.2896  7460.05  85.8319
 48.3316  7419.99  85.5456
 48.3736  7457.55  85.7783
 48.4156  7338.5  84.9445
 48.4576  7344.22  85.2785
 48.4996  7541.5  85.8475
 48.5416  7467.28  85.7656
 48.5836  7486.97  85.5462
 48.6256  7392.49  85.2141
 48.6676  7430.16  85.9537
 48.7096  7375.46  84.8851
 48.7516  7394.62  85.1595
 48.7936  7312.04  84.7457
 48.8356  7333.02  84.9197
 48.8776  7364.04  85.6816
 48.9196  7551.69  86.1121
 48.9616  7262.38  84.8324
 49.0036  7348.06  85.6934
 49.0456  7298.51  85.3712
 49.0876  7304.82  84.9469
 49.1296  7220.6  84.6109
 49.1716  7185.54  84.2848
 49.2136  7370.45  85.276
 49.2556  7401.35  85.4969
 49.2976  7362.15  85.3356
 49.3396  7244.36  84.7094
 49.3816  7458.29  85.3709
 49.4236  7353.02  85.1954
 49.4656  7200.24  84.3271
 49.5076  7414.72  85.313
 49.5496  7261.86  84.4942
 49.5916  7364.08  84.9966
 49.6336  7361.64  85.1967
 49.6756  7339.32  85.3
 49.7176  7260.55  84.786
 49.7596  7275.52  84.6343
 49.8016  7290.11  84.6418
 49.8436  7320.37  85.1162
 49.8856  7268.64  84.8174
 49.9276  7214.73  84.5934
 49.9696  7208.08  84.5499
 50.0116  7254.51  84.9569
 50.0536  7311.05  85.2288
 50.0956  7255.17  84.9697
 50.1376  7280.14  84.8153
 50.1796  7243.61  84.8705
 50.2216  7226.05  84.7757
 50.2636  7191.39  84.1809
 50.3056  7182.45  84.3023
 50.3476  7253.91  84.7484
 50.3896  7267.44  84.7978
 50.4316  7246.84  84.5045
 50.4736  7146.79  84.136
 50.5156  7176.88  84.3118
 50.5576  7345.46  85.0483
 50.5996  7241  84.7249
 50.6416  7260.45  84.7715
 50.6836  7212.64  84.5405
 50.7256  7274.99  84.829
 50.7676  7311.39  85.3782
 50.8096  7293.2  84.7947
 50.8516  7130.08  84.2625
 50.8936  7117.97  83.9729
 50.9356  7289.29  85.085
 50.9776  7133.66  84.3302
 51.0196  7095.67  84.2336
 51.0616  7031.87  83.1711
 51.1036  7130.41  84.1147
 51.1456  7209.87  84.4846
 51.1876  7102.4  83.1835
 51.2296  7047.64  83.5055
 51.2716  7007.49  82.9742
 51.3136  7109.05  84.0443
 51.3556  7019.31  83.1269
 51.3976  7096.17  83.731
 51.4396  6960.98  83.2495
 51.4816  7022.91  83.4711
 51.5236  7087.33  83.9395
 51.5656  7071.38  83.4342
 51.6076  7097.8  83.6754
 51.6496  6937.67  82.9174
 51.6916  6923.32  83.1876
 51.7336  6903.04  83.16
 51.7756  7023.18  83.5687
 51.8176  6919.64  83.069
 51.8596  6931.58  83.1558
 51.9016  7174.05  84.193
 51.9436  6960.82  84.4311
 51.9856  7047.04  85.3855
 52.0276  7114.37  84.2362
 52.0696  7161.84  84.5986
 52.1116  7030.9  83.9366
 52.1536  6969.59  83.4586
 52.1956  7072.91  83.5293
 52.2376  7143.04  84.1155
 52.2796  7071.7  83.5036
 52.3216  6920.69  83.2996
 52.3636  7048.52  83.61
 52.4056  6963.04  82.9768
 52.4476  6968.4  83.3769
 52.4896  7037.69  83.8351
 52.5316  7134.31  84.4714
 52.5736  6801.9  82.1932
 52.6156  6996.12  83.7726
 52.6576  6967.81  83.0209
 52.6996  6791.19  82.9507
 52.7416  6883.3  83.3663
 52.7836  7001.47  83.9742
 52.8256  7022  83.2891
 52.8676  6818.55  82.6543
 52.9096  7014.15  83.8951
 52.9516  6898.58  83.6123
 52.9936  6969.28  84.4099
 53.0356  7063.37  83.9549
 53.0776  6982.37  83.758
 53.1196  6937.02  83.6135
 53.1616  7085.01  84.5522
 53.2036  6924.1  83.5444
 53.2456  6930.12  83.6845
 53.2876  6918.05  83.2966
 53.3296  6975.72  83.9835
 53.3716  7080.35  84.3469
 53.4136  6912.32  83.4961
 53.4556  6973.29  83.8939
 53.4976  6773.05  82.5145
 53.5396  6826.78  83.2456
 53.5816  6999.93  83.9183
 53.6236  6913.44  83.7645
 53.6656  6900.82  83.284
 53.7076  6948.42  83.533
 53.7496  7067.07  84.3815
 53.7916  6921.02  83.6418
 53.8336  6917.27  83.4993
 53.8756  6842.89  83.5995
 53.9176  6859.3  83.0414
 53.9596  6606.01  82.2552
 54.0016  6613.12  81.6238
 54.0436  6615.88  81.8657
 54.0856  6834.53  82.6177
 54.1276  6704.34  82.019
 54.1696  6701.88  82.1859
 54.2116  6738.98  82.1431
 54.2536  6616.38  81.2168
 54.2956  6679.11  81.6416
 54.3376  6620.52  81.7789
 54.3796  6560.96  81.302
 54.4216  6631.49  81.806
 54.4636  6523.29  81.1095
 54.5056  6658.49  81.7336
 54.5476  6590.65  81.6529
 54.5896  6586.95  81.4747
 54.6316  6613.57  81.4772
 54.6736  6642.99  81.7382
 54.7156  6579.16  81.3796
 54.7576  6571.95  81.3081
 54.7996  6680.82  82.1433
 54.8416  6543.64  81.3445
 54.8836  6574.02  81.624
 54.9256  6588.59  81.4757
 54.9676  6421.11  80.2808
 55.0096  6494.38  80.7807
 55.0516  6402.69  80.4607
 55.0936  6557.36  81.0903
 55.1356  6420.15  80.2746
 55.1776  6571.22  81.4445
 55.2196  6478.33  80.6653
 55.2616  6695.48  82.2406
 55.3036  6430.07  80.7543
 55.3456  6343.65  80.3396
 55.3876  6574.08  81.5264
 55.4296  6383.76  80.3363
 55.4716  6423.6  80.6037
 55.5136  6438.93  80.4549
 55.5556  6634.15  81.7188
 55.5976  6381.24  80.2368
 55.6396  6527.41  81.0868
 55.6816  6499.54  80.8033
 55.7236  6389.97  80.1623
 55.7656  6593.95  81.1434
 55.8076  6451.31  80.274
 55.8496  6434.82  80.4812
 55.8916  6439.56  80.7358
 55.9336  6521.64  81.0589
 55.9756  6373.37  79.9942
 56.0176  6426.23  80.5015
 56.0596  6367.36  80.1148
 56.1016  6344.21  79.9922
 56.1436  6377.62  80.4557
 56.1856  6302.92  79.7345
 56.2276  6574.78  81.4843
 56.2696  6435.22  80.5979
 56.3116  6518.2  81.5017
 56.3536  6343.16  80.0674
 56.3956  6322.62  79.9109
 56.4376  6333.53  80.0371
 56.4796  6219.02  79.1215
 56.5216  6456.42  81.0005
 56.5636  6296.11  79.545
 56.6056  6498.06  81.0426
 56.6476  6372.66  79.8831
 56.6896  6441.75  80.7873
 56.7316  6355.66  80.1635
 56.7736  6295.21  79.7673
 56.8156  6285.01  79.7311
 56.8576  6134.54  78.7038
 56.8996  6293.23  79.6392
 56.9416  6201.45  79.3519
 56.9836  6377.17  79.9869
 57.0256  6220.5  79.3088
 57.0676  6366.11  80.3411
 57.1096  6279.16  79.607
 57.1516  6264.38  79.5275
 57.1936  6238.72  79.1572
 57.2356  6147.94  78.8885
 57.2776  6317.22  79.9225
 57.3196  6318.5  80.2854
 57.3616  6289.01  79.5876
 57.4036  6308.93  79.7847
 57.4456  6426.83  80.4999
 57.4876  6324.31  79.7269
 57.5296  6202.51  79.2836
 57.5716  6180.88  79.1497
 57.6136  6168.34  78.9017
 57.6556  6204.97  79.2611
 57.6976  6222.53  79.2057
 57.7396  6238.36  79.6484
 57.7816  6131.08  79.3367
 57.8236  6184.21  79.4654
 57.8656  6245.54  79.5238
 57.9076  6183.49  79.1363
 57.9496  6204.67  79.6454
 57.9916  6210.61  79.1891
 58.0336  6177.84  79.2577
 58.0756  6199.2  79.0381
 58.1176  6170.16  78.8409
 58.1596  6178.6  79.4895
 58.2016  5963.37  77.3158
 58.2436  5882.96  77.1941
 58.2856  5945.06  77.5251
 58.3276  5897.49  77.5759
 58.3696  5973.13  77.8339
 58.4116  6040.62  78.135
 58.4536  6034.75  77.9813
 58.4956  5909.77  77.35
 58.5376  6045.08  77.7994
 58.5796  5977.42  77.7839
 58.6216  5971.17  77.5669
 58.6636  6002.95  77.9806
 58.7056  5908.45  77.2237
 58.7476  5951.76  77.9458
 58.7896  5936.22  77.4924
 58.8316  5972.19  77.725
 58.8736  6076.72  78.4121
 58.9156  5969.18  77.7586
 58.9576  5895.74  77.5934
 58.9996  5973.16  77.3595
 59.0416  6082.74  78.426
 59.0836  5982.2  77.6879
 59.1256  5870.08  77.6533
 59.1676  5927.79  78.3426
 59.2096  5863.51  77.2271
 59.2516  6107.46  78.396
 59.2936  6022.9  78.179
 59.3356  5975.55  77.7495
 59.3776  5903.56  77.4468
 59.4196  5920.38  77.4937
 59.4616  5811.81  76.6425
 59.5036  5753.58  76.2913
 59.5456  6171.04  78.7014
 59.5876  5957.54  77.5178
 59.6296  5880.71  77.0846
 59.6716  5791.99  76.5577
 59.7136  6043.69  78.1918
 59.7556  5841.49  77.0068
 59.7976  5765.18  76.2503
 59.8396  5891.14  76.9743
 59.8816  5943  77.849
 59.9236  5920.03  77.35
 59.9656  5902.28  77.4916
 60.0076  5847.5  76.4989
 60.0496  5975.87  77.8352
 60.0916  5967.33  77.2012
 60.1336  5792.98  77.1494
 60.1756  5853.99  78.7205
 60.1996  0.0000000E+00  0.0000000E+00