File: docs/examples/opeando_xrd/IS17_D/Data/IS17_D/17_Db_f00153.xye
# /beamlines/bl04/projects/cycle2025-II/20250340211-lsimonelli/DATA/IS17_D/17_Db_f00153.xye : mythproc.py merge -s 0.006 -l 0.5 -f /beamlines/bl04/inhouse/ff/FlatField/ff_20Nov2024rod8mm60s_17keV.raw -b True -c true -o xye /beamlines/bl04/projects/cycle2025-II/20250340211-lsimonelli/DATA/IS17_D/17_Db_00153.dat
# IsMon = [6768582, 6768801, 6769457]  IsPos = [-1.4999, -2.4883, -3.4988]
# Wave = 0.4962  CalPath /beamlines/bl04/projects/cycle2025-II/20250340211-lsimonelli/DATA/Align/Si_Pos1_25keV_f00001.cal
# Date = 2025-09-25_12:22:02 Dt = 4.8000  Bin = 0.0060  <imon> = 6768947 +/- 372 (Min/Max) 6768582 / 6769457
# icurr 252.0431  mocoIn 1.7193E-05  mocoOut 0.8065  i15 7.09326e+06  imon 6.76895e+06  i7 4.6667  iEMpd_timer 4.8000  iEMpd_1 3.4234E-08  iEMpd_2 7.8172E-08  iEMpd_3 1.7475E-08  iEMpd_4 4.7917E-08  iEMhp_timer 4.8000  iEMhp_1 4.9229E-06  iEMhp_2 -2.4366E-08  iEMhp_3 -2.4539E-08  iEMhp_4 -2.0032E-08
#      9776
 1.5856  44410.5  216.4
 1.6276  51690.2  229.457
 1.6696  57112.5  240.342
 1.7116  64207.1  255.331
 1.7536  72522.2  270.205
 1.7956  75971.1  277.245
 1.8376  73262.2  272.69
 1.8796  63141.5  251.294
 1.9216  52429.3  229.899
 1.9636  45198.3  212.582
 2.0056  41152.1  202.058
 2.0476  38376.6  197.264
 2.0896  36798.8  192.034
 2.1316  36058.8  189.179
 2.1736  34567  186.694
 2.2156  34896.8  186.077
 2.2576  33535.1  183.066
 2.2996  32415  180.642
 2.3416  32674.6  179.915
 2.3836  32327.5  179.068
 2.4256  31316.4  176.82
 2.4676  30493.2  174.233
 2.5096  30337.7  173.845
 2.5516  29301  174.76
 2.5936  29160.2  170.846
 2.6356  28652.3  170.077
 2.6776  28574.7  168.72
 2.7196  28265.9  167.9
 2.7616  28087  167.557
 2.8036  27545.5  166.106
 2.8456  27367.9  166.213
 2.8876  26677.3  163.966
 2.9296  26482.1  163.495
 2.9716  26624.1  163.412
 3.0136  26045.6  161.69
 3.0556  26176.7  162.497
 3.0976  26267.6  161.676
 3.1396  25796.4  160.942
 3.1816  25636.8  160.097
 3.2236  25389.2  159.605
 3.2656  25358.9  158.54
 3.3076  24942.6  158.722
 3.3496  25175.3  158.359
 3.3916  25503.5  159.215
 3.4336  25932.8  161.142
 3.4756  26259.6  162.095
 3.5176  26794.6  163.499
 3.5596  26852.9  166.173
 3.6016  26815.3  163.636
 3.6436  25789.9  161.593
 3.6856  25597.3  159.272
 3.7276  24640.1  157.357
 3.7696  24387.5  156.741
 3.8116  24291.9  156.321
 3.8536  24205.8  155.974
 3.8956  24200.7  155.78
 3.9376  23935.2  155.192
 3.9796  23893.7  154.537
 4.0216  24056.9  154.09
 4.0636  23825.5  154.821
 4.1056  23951.7  154.886
 4.1476  24232.7  156.099
 4.1896  24275.3  156.098
 4.2316  24485  156.6
 4.2736  24924.9  157.791
 4.3156  24866  157.844
 4.3576  25706.5  160.389
 4.3996  25974.1  161.501
 4.4416  26346.8  162.237
 4.4836  26696.8  163.476
 4.5256  27482  166.474
 4.5676  27164.8  165.772
 4.6096  27903.7  166.647
 4.6516  28247.6  167.371
 4.6936  28197.2  168.054
 4.7356  28488.5  168.742
 4.7776  28376.8  168.239
 4.8196  28386.4  168.925
 4.8616  27446.2  165.59
 4.9036  27472.2  165.398
 4.9456  27237.6  165.353
 4.9876  26771.3  163.828
 5.0296  26970.7  164.268
 5.0716  26726.1  164.291
 5.1136  26896.1  164.525
 5.1556  27208.9  164.937
 5.1976  27738.3  166.521
 5.2396  27630.8  165.879
 5.2816  28092.3  167.746
 5.3236  27907.9  166.891
 5.3656  27345.7  166.14
 5.4076  27155.8  165.699
 5.4496  27124.7  165.103
 5.4916  27369  165.59
 5.5336  27178  165.022
 5.5756  27366.1  165.605
 5.6176  27581.9  165.699
 5.6596  27760.4  167.223
 5.7016  27800.2  166.6
 5.7436  28031  167.57
 5.7856  27963.7  167.439
 5.8276  27980.5  167.197
 5.8696  28285.6  168.28
 5.9116  28288.7  168.599
 5.9536  28646.8  169.706
 5.9956  28705.5  169.262
 6.0376  28631.1  169.666
 6.0796  29101.7  170.881
 6.1216  28829  170.325
 6.1636  29141.8  170.247
 6.2056  29040.9  170.639
 6.2476  29115  170.727
 6.2896  29605  171.83
 6.3316  29549.4  171.84
 6.3736  29457.6  171.471
 6.4156  29643.2  171.893
 6.4576  29690.3  171.647
 6.4996  29764.3  172.346
 6.5416  29863.7  172.755
 6.5836  29828.3  172.895
 6.6256  30116.2  173.28
 6.6676  30584.7  174.187
 6.7096  30365.8  174.43
 6.7516  30623.3  174.826
 6.7936  30843  174.843
 6.8356  30994.6  175.378
 6.8776  31190.4  176.738
 6.9196  31097.3  176.878
 6.9616  31646.4  177.871
 7.0036  32066.2  178.688
 7.0456  32121.4  178.144
 7.0876  31787.2  178.905
 7.1296  32045.3  178.753
 7.1716  32079  178.391
 7.2136  31801.1  177.39
 7.2556  32061.5  178.275
 7.2976  32194.9  179.131
 7.3396  31959.9  178.708
 7.3816  31907.4  178.782
 7.4236  32438.7  179.555
 7.4656  32330.5  178.703
 7.5076  32501.1  179.329
 7.5496  32202.3  179.04
 7.5916  32385.4  179.599
 7.6336  33035.2  181.279
 7.6756  32930.2  180.836
 7.7176  33670.5  183.189
 7.7596  33517.4  184.01
 7.8016  33921  187.366
 7.8436  33735.3  183.486
 7.8856  33931.5  183.626
 7.9276  34292.7  184.999
 7.9696  34505.6  185.877
 8.0116  35462.7  186.987
 8.0536  35728.1  187.937
 8.0956  35773.8  189.24
 8.1376  36031.7  189.39
 8.1796  36462.7  191.06
 8.2216  36955  191.086
 8.2636  37181.8  191.95
 8.3056  36970.6  192.145
 8.3476  37699.4  193.353
 8.3896  36995.1  191.621
 8.4316  37505.1  193.103
 8.4736  37747.2  193.19
 8.5156  37144.1  191.919
 8.5576  36750.2  192.486
 8.5996  36786.4  190.839
 8.6416  36910.1  192.419
 8.6836  36720.1  191.754
 8.7256  37287.8  192.682
 8.7676  37067.1  195.03
 8.8096  37416.8  193.23
 8.8516  37459.6  192.909
 8.8936  36917.5  191.461
 8.9356  37224.6  192.59
 8.9776  37150.3  192.48
 9.0196  37122.9  192.075
 9.0616  36857.2  190.886
 9.1036  36335  190.697
 9.1456  36003.8  189.16
 9.1876  36568.5  190.582
 9.2296  36330.2  189.393
 9.2716  36129.1  188.898
 9.3136  35950.9  188.433
 9.3556  36275.7  189.262
 9.3976  35156.2  186.831
 9.4396  35442.9  187.501
 9.4816  35222.7  186.769
 9.5236  34984  186.041
 9.5656  34329.9  184.649
 9.6076  34170.9  184.748
 9.6496  34208.9  184.728
 9.6916  33942.2  183.969
 9.7336  34333.7  184.811
 9.7756  33798.8  184.635
 9.8176  33713.9  183.906
 9.8596  33906.3  182.858
 9.9016  33416.8  181.516
 9.9436  33041.9  180.421
 9.9856  32684  179.712
 10.0276  32053.6  179.017
 10.0696  32815.2  180.186
 10.1116  31586.7  177.047
 10.1536  31486.7  176.92
 10.1956  31300.1  176.011
 10.2376  31073.1  174.873
 10.2796  30766.8  174.109
 10.3216  30595.4  173.925
 10.3636  30561.6  173.854
 10.4056  29833.6  172.176
 10.4476  29913.3  172.011
 10.4896  29786.3  171.245
 10.5316  29756.4  171.736
 10.5736  29400.6  171.123
 10.6156  29394.1  170.862
 10.6576  29261.9  169.034
 10.6996  28820.3  168.457
 10.7416  28395.7  167.424
 10.7836  28128.5  167.307
 10.8256  27939.2  167.174
 10.8676  27924.5  166.657
 10.9096  27574.7  165.651
 10.9516  27626  164.736
 10.9936  27532.3  164.673
 11.0356  27256.9  164.453
 11.0776  27159.9  163.496
 11.1196  26653.4  162.73
 11.1616  26461.6  161.815
 11.2036  26878.6  162.927
 11.2456  26512.8  162.53
 11.2876  26788.4  163.093
 11.3296  26376.1  161.749
 11.3716  26762.2  162.617
 11.4136  26667.6  163.219
 11.4556  26731.7  163.066
 11.4976  27165.5  163.362
 11.5396  27430.9  164.332
 11.5816  27372.5  164.614
 11.6236  26737.6  162.927
 11.6656  26753.8  162.112
 11.7076  25853.7  160.201
 11.7496  25567  163.347
 11.7916  25431.3  158.137
 11.8336  24990.9  157.65
 11.8756  24942.5  157.049
 11.9176  24925.3  156.67
 11.9596  25141.6  157.513
 12.0016  24654.8  156.485
 12.0436  24747.7  156.495
 12.0856  24461.9  156.099
 12.1276  24474.7  156.091
 12.1696  24476.3  155.203
 12.2116  24414.1  155.01
 12.2536  24097.1  154.817
 12.2956  23978.1  153.773
 12.3376  24249.8  154.846
 12.3796  24072.4  154.772
 12.4216  24446.2  155.149
 12.4636  23872  154.257
 12.5056  24127.1  154.337
 12.5476  24229  154.175
 12.5896  23923  153.846
 12.6316  24071.6  154.473
 12.6736  23759.2  154.132
 12.7156  23988  154.535
 12.7576  24076.9  155.073
 12.7996  24120.7  153.858
 12.8416  23916.9  154.258
 12.8836  24224.4  154.979
 12.9256  24548.7  155.134
 12.9676  24361.3  154.94
 13.0096  24795.7  157.453
 13.0516  24558.1  155.703
 13.0936  25063.3  157.727
 13.1356  25091.8  156.756
 13.1776  24625  156.326
 13.2196  24712.9  156.242
 13.2616  24428  155.655
 13.3036  24767  156.697
 13.3456  24433.6  155.987
 13.3876  24961.2  156.922
 13.4296  24481  155.584
 13.4716  24618.7  155.645
 13.5136  24638.7  155.844
 13.5556  24893.7  157.281
 13.5976  24663.5  156.716
 13.6396  24693.3  156.166
 13.6816  24742.8  156.799
 13.7236  25072.5  157.422
 13.7656  26662.2  162.799
 13.8076  27457  163.826
 13.8496  26876.9  162.771
 13.8916  24949.7  157.971
 13.9336  24201.2  154.854
 13.9756  24247  154.37
 14.0176  24073.5  154.508
 14.0596  24186.1  154.785
 14.1016  23980  154.565
 14.1436  24130.5  154.173
 14.1856  23539.8  152.565
 14.2276  23502  152.931
 14.2696  23367.5  152.343
 14.3116  22916.7  150.777
 14.3536  22672  150.136
 14.3956  22594.2  149.599
 14.4376  23041.3  150.858
 14.4796  22606.4  149.423
 14.5216  22380.1  149.471
 14.5636  22300.2  148.765
 14.6056  22475.8  148.893
 14.6476  22264.8  147.447
 14.6896  21841.8  146.58
 14.7316  21612.4  146.86
 14.7736  21372.3  145.174
 14.8156  21107.5  144.292
 14.8576  21372.1  145.06
 14.8996  20825.8  144.385
 14.9416  20449.3  143.081
 14.9836  20441.9  143.045
 15.0256  19911.5  140.095
 15.0676  19909.2  140.527
 15.1096  19748.9  139.568
 15.1516  19558.1  139.453
 15.1936  19356.3  138.159
 15.2356  19298.8  138.112
 15.2776  19135.6  137.237
 15.3196  18894.6  137.363
 15.3616  18671.1  136.306
 15.4036  18559  135.763
 15.4456  18813.8  136.339
 15.4876  18540.6  135.03
 15.5296  18508.7  135.199
 15.5716  18245  133.837
 15.6136  18398.5  134.726
 15.6556  18046.3  132.676
 15.6976  18095.3  133.154
 15.7396  17876.8  132.729
 15.7816  17873.3  132.231
 15.8236  17556.3  131.742
 15.8656  17607.2  131.723
 15.9076  17270.8  130.284
 15.9496  18141  136.368
 15.9916  17900.1  135.87
 16.0336  17934.2  132.833
 16.0756  17595.5  131.884
 16.1176  17496.8  131.611
 16.1596  17211.8  131.714
 16.2016  17099.9  130.045
 16.2436  17303.9  131.2
 16.2856  17076.5  129.854
 16.3276  16681.6  128.776
 16.3696  16984.2  129.761
 16.4116  16655.9  128.942
 16.4536  16932.2  129.819
 16.4956  16989  129.764
 16.5376  16857.5  129.458
 16.5796  16691.3  128.176
 16.6216  16644.1  128.255
 16.6636  16451.9  127.712
 16.7056  16855.2  129.125
 16.7476  16886.6  128.77
 16.7896  16595.8  128.407
 16.8316  16572.2  128.29
 16.8736  16757.6  129.265
 16.9156  16566.9  128.863
 16.9576  16499  129.396
 16.9996  16288.6  129.04
 17.0416  16694.7  129.003
 17.0836  16613.1  128.444
 17.1256  16511.6  128.06
 17.1676  16434  127.714
 17.2096  16362.1  127.336
 17.2516  16226  126.587
 17.2936  16030.4  126.177
 17.3356  15904  125.665
 17.3776  15920  125.919
 17.4196  15810.2  125.176
 17.4616  15953.5  125.644
 17.5036  15446  124.001
 17.5456  15355.4  124.275
 17.5876  15515.6  123.956
 17.6296  15563.4  123.98
 17.6716  15441.5  124.079
 17.7136  15209.4  123.275
 17.7556  15353.2  124.153
 17.7976  15369.6  123.94
 17.8396  15258.1  122.987
 17.8816  15061  122.764
 17.9236  15116.6  122.779
 17.9656  14928.5  122.532
 18.0076  15003  122.431
 18.0496  15030.9  121.664
 18.0916  14906.3  121.719
 18.1336  14723.5  121.063
 18.1756  15087.7  122.102
 18.2176  14587.7  120.269
 18.2596  14685.2  120.403
 18.3016  14942.4  121.716
 18.3436  14832.5  121.266
 18.3856  14819.3  121.347
 18.4276  14780.2  120.871
 18.4696  14673.2  120.511
 18.5116  14685.9  120.847
 18.5536  14573  120.748
 18.5956  14370.6  119.464
 18.6376  14391.2  119.95
 18.6796  14457.5  119.545
 18.7216  14496.3  120.194
 18.7636  14403.6  119.81
 18.8056  14177.2  118.784
 18.8476  14070.1  118.977
 18.8896  14254.7  119.079
 18.9316  14258.9  119.081
 18.9736  14249.9  118.742
 19.0156  14170.3  118.826
 19.0576  14437  118.771
 19.0996  14338.5  119.229
 19.1416  14173  118.798
 19.1836  14238.4  118.677
 19.2256  14037.5  118.055
 19.2676  14106.5  118.426
 19.3096  14197.5  119.056
 19.3516  14066.6  118.471
 19.3936  14088.5  118.452
 19.4356  14368.9  119.505
 19.4776  14077.1  118.377
 19.5196  14184.3  118.684
 19.5616  13994.3  118.145
 19.6036  13962.5  117.508
 19.6456  14091.4  118.16
 19.6876  14060.2  117.666
 19.7296  14154.5  118.531
 19.7716  14023.2  118.148
 19.8136  14407.6  119.954
 19.8556  14477.6  119.725
 19.8976  14271.8  118.928
 19.9396  14460.4  119.296
 19.9816  14516.6  119.85
 20.0236  14834.7  121.275
 20.0656  14839.6  121.3
 20.1076  14840  121.785
 20.1496  14574  120.686
 20.1916  14542.3  120.06
 20.2336  14053.3  117.954
 20.2756  13937.3  117.905
 20.3176  13729.8  116.772
 20.3596  13750.4  116.841
 20.4016  13618.1  116.071
 20.4436  13603.8  116.578
 20.4856  13673.1  116.665
 20.5276  13328  115.651
 20.5696  13593.7  116.238
 20.6116  13467.8  115.978
 20.6536  13378.5  115.1
 20.6956  13385.6  115.268
 20.7376  13317.3  115.193
 20.7796  13281.3  114.712
 20.8216  13483.7  115.296
 20.8636  13304.3  114.908
 20.9056  13346.6  115.036
 20.9476  13263.9  114.514
 20.9896  13323.7  114.639
 21.0316  13144.9  113.77
 21.0736  13172.8  114.41
 21.1156  13159.4  114.512
 21.1576  13262.4  114.989
 21.1996  13211.2  114.76
 21.2416  13230.5  114.66
 21.2836  13189.6  114.469
 21.3256  13104.4  114.177
 21.3676  13184.3  114.041
 21.4096  13020.3  113.661
 21.4516  12928.5  113.125
 21.4936  12683  112.325
 21.5356  13140.9  114.274
 21.5776  13061.4  113.763
 21.6196  12906.9  113.116
 21.6616  12729.1  112.424
 21.7036  12899.4  112.945
 21.7456  13007.9  113.5
 21.7876  12814.8  112.412
 21.8296  12659.7  111.576
 21.8716  12879.2  112.768
 21.9136  12889.9  113.019
 21.9556  12826.4  112.413
 21.9976  12910.4  112.815
 22.0396  12835.3  112.735
 22.0816  12688.9  112.616
 22.1236  12936.6  113.164
 22.1656  12818.5  112.795
 22.2076  12542.1  111.026
 22.2496  12576.4  111.212
 22.2916  12560.1  111.029
 22.3336  12576.1  111.818
 22.3756  12455  111.001
 22.4176  12415.9  110.681
 22.4596  12388  111.142
 22.5016  12410.5  110.75
 22.5436  12509.2  111.061
 22.5856  12709  112.195
 22.6276  12766.2  112.614
 22.6696  12497.6  111.745
 22.7116  12585.7  111.649
 22.7536  12554.4  111.487
 22.7956  12553.4  110.817
 22.8376  12325.9  110.323
 22.8796  12459.2  110.72
 22.9216  12467.5  111.301
 22.9636  12512.7  110.65
 23.0056  12380.6  110.2
 23.0476  12504.9  111.327
 23.0896  12788  111.952
 23.1316  12500.6  111.122
 23.1736  12644.7  114.504
 23.2156  12786.6  112.718
 23.2576  13049.8  114.004
 23.2996  12733.5  112.387
 23.3416  12953.5  113.89
 23.3836  12758.8  112.259
 23.4256  12840.1  112.733
 23.4676  12707.8  111.844
 23.5096  12746.1  112.677
 23.5516  12663.8  111.611
 23.5936  12775.7  113.019
 23.6356  12989.8  113.621
 23.6776  12590.1  112.069
 23.7196  12665.7  111.97
 23.7616  12691.7  112.014
 23.8036  12857.3  112.794
 23.8456  12551.8  110.998
 23.8876  12608.8  111.603
 23.9296  12337.8  110.891
 23.9716  12495.2  110.794
 24.0136  12527.9  111.85
 24.0556  12413.2  111.051
 24.0976  12340.2  110.54
 24.1396  12241.9  112.753
 24.1816  12407.9  111.887
 24.2236  12291.8  110.981
 24.2656  12224.5  110.155
 24.3076  12071.4  109.737
 24.3496  12091.8  109.704
 24.3916  12204.8  110.274
 24.4336  12153.3  110.239
 24.4756  12224.4  110.448
 24.5176  12124.6  109.617
 24.5596  12046.7  109.381
 24.6016  11910.8  109.067
 24.6436  12167.4  109.737
 24.6856  11981.5  108.639
 24.7276  11760.3  107.958
 24.7696  11817  108.323
 24.8116  11595  107.487
 24.8536  11563.4  107.339
 24.8956  11721.7  107.799
 24.9376  11591.5  107.132
 24.9796  11533  107.218
 25.0216  11568.8  107.501
 25.0636  11570.4  107.165
 25.1056  11458.7  107.347
 25.1476  11435.3  108.874
 25.1896  11379.2  107.112
 25.2316  11361.9  106.308
 25.2736  11209.1  105.24
 25.3156  11311.8  105.795
 25.3576  11258.6  105.978
 25.3996  11170.4  105.554
 25.4416  11172.9  105.54
 25.4836  11067.6  105.556
 25.5256  11191.4  105.51
 25.5676  11190.4  105.235
 25.6096  10995.2  104.88
 25.6516  11084.3  104.816
 25.6936  11156.5  105.468
 25.7356  10952.3  104.634
 25.7776  11188.3  105.351
 25.8196  10916.3  104.302
 25.8616  10916.2  104.233
 25.9036  11126.7  104.681
 25.9456  10996.2  104.668
 25.9876  11056.6  105.023
 26.0296  11154.1  104.993
 26.0716  11055.2  104.952
 26.1136  11026.6  104.746
 26.1556  11014.1  104.071
 26.1976  10992.2  104.905
 26.2396  10803.4  103.151
 26.2816  11014.7  104.777
 26.3236  11035.7  105.027
 26.3656  11072.4  104.919
 26.4076  10807.9  103.844
 26.4496  11236.7  105.488
 26.4916  11121.8  104.842
 26.5336  11459.9  106.774
 26.5756  11627.7  107.436
 26.6176  11017.6  104.566
 26.6596  10962.9  104.65
 26.7016  10946  104.331
 26.7436  10817.5  103.836
 26.7856  10673.2  103.138
 26.8276  10701.6  103.242
 26.8696  10756.5  103.376
 26.9116  10667.7  102.873
 26.9536  10560.3  102.417
 26.9956  10569  102.494
 27.0376  10609.7  102.913
 27.0796  10746.9  103.297
 27.1216  10658  102.928
 27.1636  10294  101.328
 27.2056  10518  102.302
 27.2476  10529.2  102.352
 27.2896  10418.4  101.955
 27.3316  10455.5  101.823
 27.3736  10276.1  101.222
 27.4156  10453.3  101.918
 27.4576  10445.2  102.109
 27.4996  10538.8  102.17
 27.5416  10386.3  101.727
 27.5836  10354.1  101.411
 27.6256  10342  101.534
 27.6676  10275.4  101.197
 27.7096  10359.6  101.49
 27.7516  10293.8  101.317
 27.7936  10601.3  102.959
 27.8356  10517.8  102.158
 27.8776  10476  102.021
 27.9196  10308.6  101.075
 27.9616  10278  101.118
 28.0036  10190.9  100.652
 28.0456  10175.9  100.716
 28.0876  10188.2  100.855
 28.1296  10182.1  100.596
 28.1716  10180.6  100.676
 28.2136  10132.1  100.403
 28.2556  10123.7  100.474
 28.2976  10034.5  100.028
 28.3396  10107  100.147
 28.3816  10091.1  100.067
 28.4236  10029.9  99.9238
 28.4656  10023.6  99.9357
 28.5076  9943.97  99.1733
 28.5496  9905.91  99.2392
 28.5916  10056.3  99.7961
 28.6336  10034.4  100.042
 28.6756  10011.5  99.122
 28.7176  9935.49  99.1851
 28.7596  9862.81  98.8273
 28.8016  9855  98.8236
 28.8436  9640.2  97.9783
 28.8856  9840.03  98.8848
 28.9276  9871.3  99.2461
 28.9696  9777.36  98.4253
 29.0116  9794.4  98.6996
 29.0536  9755.46  98.7097
 29.0956  9829.34  98.7737
 29.1376  9922.34  99.2269
 29.1796  9867.62  98.9976
 29.2216  9732  98.1591
 29.2636  9862.38  98.8873
 29.3056  9698.19  97.8478
 29.3476  9827.57  99.023
 29.3896  9750.94  98.7536
 29.4316  9743.24  98.0359
 29.4736  9523.87  96.9947
 29.5156  9551.78  97.0591
 29.5576  9588.53  97.9836
 29.5996  9449.3  96.5334
 29.6416  9529.24  97.0599
 29.6836  9611.86  97.4086
 29.7256  9469.8  97.0128
 29.7676  9479.91  96.9576
 29.8096  9422.28  96.6102
 29.8516  9274.51  96.1772
 29.8936  9502.95  97.4463
 29.9356  9448.45  96.9214
 29.9776  9308.65  96.3521
 30.0196  9409.72  96.536
 30.0616  9516.83  97.1882
 30.1036  9413.84  96.4895
 30.1456  9342.4  96.3482
 30.1876  9324.1  96.2358
 30.2296  9410.81  96.6322
 30.2716  9472.71  96.5883
 30.3136  9357.9  96.8527
 30.3556  9585.58  98.0104
 30.3976  9441.31  98.7684
 30.4396  9885.39  98.3876
 30.4816  9705.41  97.0915
 30.5236  9699.38  97.0547
 30.5656  9578.24  97.1126
 30.6076  9672.67  96.9966
 30.6496  9717.22  97.6294
 30.6916  9488.97  96.5671
 30.7336  9444.69  96.4872
 30.7756  9713.44  97.9425
 30.8176  9558.6  97.0722
 30.8596  9705.72  97.5622
 30.9016  9566.94  97.2421
 30.9436  9516.29  96.7179
 30.9856  9636.94  97.4481
 31.0276  9555.32  96.6627
 31.0696  9384.87  96.3474
 31.1116  9421.12  96.5043
 31.1536  9359.18  96.0721
 31.1956  9480.81  96.7799
 31.2376  9157.49  95.1428
 31.2796  9422.32  96.0414
 31.3216  9489.71  96.3115
 31.3636  9466.33  96.9003
 31.4056  9360.62  97.667
 31.4476  9496.83  96.2616
 31.4896  9339.78  95.9723
 31.5316  9380.65  95.5813
 31.5736  9580.83  96.4219
 31.6156  9438.14  95.7113
 31.6576  9560.39  96.3898
 31.6996  9577.95  96.1447
 31.7416  9359.33  96.1502
 31.7836  9449.28  95.6037
 31.8256  9434.03  95.7827
 31.8676  9349.34  95.3473
 31.9096  9344.58  95.6957
 31.9516  9276.72  95.5225
 31.9936  9183.88  94.8655
 32.0356  9333.26  95.6717
 32.0776  9388.22  95.8476
 32.1196  9385.67  95.9537
 32.1616  9443.91  95.6908
 32.2036  9360.95  95.7804
 32.2456  9438.26  96.5673
 32.2876  9285.76  95.2774
 32.3296  9116.12  94.3652
 32.3716  9064.99  94.2181
 32.4136  9012.14  94.1431
 32.4556  9311.19  95.0654
 32.4976  9165.72  94.2352
 32.5396  9073.8  93.8224
 32.5816  9162.53  94.4106
 32.6236  9073.3  94.0073
 32.6656  9212  95.2751
 32.7076  9009.39  93.8737
 32.7496  8946.39  93.2214
 32.7916  9121.8  94.0913
 32.8336  8998.81  93.5453
 32.8756  9138.84  93.9904
 32.9176  8986.77  93.692
 32.9596  8924.7  93.4352
 33.0016  9021.56  93.7093
 33.0436  9033  93.9503
 33.0856  8992.89  93.8346
 33.1276  8820.39  92.661
 33.1696  9172.25  94.3218
 33.2116  9039.57  93.8775
 33.2536  9001.23  93.6558
 33.2956  8962.58  93.5531
 33.3376  8962.86  93.2886
 33.3796  9034.19  93.8846
 33.4216  8930.37  92.9262
 33.4636  9113.54  94.0207
 33.5056  8890.16  93.1198
 33.5476  8950.88  93.4154
 33.5896  8948.93  93.1988
 33.6316  8935.95  93.4443
 33.6736  8739.87  92.6545
 33.7156  8864.31  93.3464
 33.7576  8972.42  93.5508
 33.7996  8923.25  93.0564
 33.8416  8688.88  92.0117
 33.8836  8768.82  92.2101
 33.9256  8855.28  92.7173
 33.9676  8860.03  92.6431
 34.0096  8845.06  92.8764
 34.0516  8704.89  91.7785
 34.0936  8774.95  92.4197
 34.1356  8887.72  92.7457
 34.1776  8721.5  91.8769
 34.2196  8678.69  91.8362
 34.2616  8651.21  91.8279
 34.3036  8673.22  92.19
 34.3456  8765.66  92.4307
 34.3876  8772.79  92.4371
 34.4296  8690.12  91.6904
 34.4716  8817.66  92.5164
 34.5136  8760.93  92.4069
 34.5556  8596.87  91.7954
 34.5976  8834.38  92.8644
 34.6396  8676.14  91.8617
 34.6816  8708.95  92.0246
 34.7236  8672.46  91.6015
 34.7656  8638.21  91.6356
 34.8076  8550.49  91.499
 34.8496  8572.12  91.5354
 34.8916  8642.87  91.7009
 34.9336  8648.89  91.7151
 34.9756  8682.84  91.8153
 35.0176  8757.51  92.7438
 35.0596  8855.85  93.0759
 35.1016  8727.66  92.1649
 35.1436  8785.96  92.1472
 35.1856  8561.31  91.0755
 35.2276  8579.56  91.3552
 35.2696  8637.38  91.8527
 35.3116  8499.13  91.2251
 35.3536  8442.57  90.6302
 35.3956  8558.5  90.9525
 35.4376  8686.33  92.2068
 35.4796  8624.24  91.9102
 35.5216  8545.6  91.4574
 35.5636  8432.17  91.5927
 35.6056  8431.73  90.6118
 35.6476  8592.71  91.3674
 35.6896  8541.11  91.1932
 35.7316  8412.02  90.4723
 35.7736  8510.84  91.1908
 35.8156  8564.95  91.4789
 35.8576  8479.84  91.2684
 35.8996  8590.33  91.8366
 35.9416  8486.01  90.7728
 35.9836  8582.69  91.6399
 36.0256  8672.2  92.1387
 36.0676  8641.16  91.725
 36.1096  8552.72  91.3987
 36.1516  8557.85  91.3241
 36.1936  8534.3  91.0123
 36.2356  8565.36  91.8419
 36.2776  8432.08  90.6137
 36.3196  8537.26  90.8356
 36.3616  8446.75  90.4817
 36.4036  8449.89  90.5776
 36.4456  8509.56  91.1038
 36.4876  8253.36  89.6634
 36.5296  8485.25  90.9508
 36.5716  8361.63  91.0592
 36.6136  8307.05  89.5545
 36.6556  8225.82  89.3132
 36.6976  8192.74  89.6219
 36.7396  8017.67  88.5696
 36.7816  8100.14  89.2247
 36.8236  8222.79  89.8223
 36.8656  8111.38  89.2807
 36.9076  8105.87  89.1312
 36.9496  8093.28  89.0498
 36.9916  8029.39  88.3252
 37.0336  8237.03  89.781
 37.0756  8180.24  89.264
 37.1176  7915.26  88.0712
 37.1596  8114.11  89.1769
 37.2016  8113.06  89.3956
 37.2436  8283.59  89.6403
 37.2856  8180.54  89.3269
 37.3276  8173.48  88.6542
 37.3696  8076.12  89.0042
 37.4116  8127.83  89.1954
 37.4536  8084.42  88.6754
 37.4956  7914.93  87.9335
 37.5376  8275.63  91.5161
 37.5796  8125.21  90.6087
 37.6216  8044.63  88.4271
 37.6636  8295.93  89.6793
 37.7056  8236.72  89.5593
 37.7476  8380.07  89.8706
 37.7896  8093.26  88.8264
 37.8316  8164.55  89.3742
 37.8736  8099.94  88.5479
 37.9156  8234.88  89.2681
 37.9576  8213.63  89.0713
 37.9996  8004.25  87.6394
 38.0416  8071.94  88.8202
 38.0836  8126.12  89.0161
 38.1256  8214.19  89.4743
 38.1676  8036.22  88.6124
 38.2096  8245.39  89.3749
 38.2516  8047.77  88.5119
 38.2936  8196.15  89.1211
 38.3356  8050.2  88.2554
 38.3776  7999.46  88.2192
 38.4196  8023.96  88.2161
 38.4616  8037.87  88.5413
 38.5036  8187.34  89.2037
 38.5456  8016.29  89.0944
 38.5876  8057.57  89.5091
 38.6296  8038.85  88.1965
 38.6716  8098.72  88.339
 38.7136  8101.01  88.2939
 38.7556  8003.45  88.2734
 38.7976  7980.87  88.0671
 38.8396  7956.13  88.2055
 38.8816  8047.8  88.7032
 38.9236  8014.79  88.3116
 38.9656  8063.47  88.4971
 39.0076  8064.26  87.9045
 39.0496  8115.94  88.7393
 39.0916  8138.07  88.5023
 39.1336  8036.13  88.3533
 39.1756  8046.19  88.4711
 39.2176  7966.45  88.5643
 39.2596  7931.7  88.3037
 39.3016  7916.87  87.7354
 39.3436  7950.46  88.4042
 39.3856  8187.64  89.1307
 39.4276  8197.38  89.7139
 39.4696  8118.54  88.8963
 39.5116  8082.6  89.2198
 39.5536  8143.09  89.9727
 39.5956  8120.61  88.9493
 39.6376  8024.59  88.4247
 39.6796  7988.35  87.9682
 39.7216  7982.44  88.0375
 39.7636  7968.31  88.5077
 39.8056  8111.99  89.1007
 39.8476  8002.13  88.7505
 39.8896  7999.52  88.3673
 39.9316  7864.25  87.8593
 39.9736  8087.14  88.7529
 40.0156  8044.76  88.266
 40.0576  7985.81  88.2872
 40.0996  8088.04  88.0406
 40.1416  8014.34  88.4411
 40.1836  8045.51  88.4937
 40.2256  7981.49  88.1653
 40.2676  7936.78  88.0239
 40.3096  8077.83  88.7465
 40.3516  8039.37  88.6431
 40.3936  8106.89  88.5567
 40.4356  7970.31  88.021
 40.4776  8145.29  89.3938
 40.5196  8066.5  89.0074
 40.5616  8229.44  89.6106
 40.6036  7938.76  88.2793
 40.6456  7951.28  87.9464
 40.6876  8062.22  88.5538
 40.7296  8040.4  88.4512
 40.7716  7931.94  88.0886
 40.8136  7907.21  87.8933
 40.8556  8103.15  89.1142
 40.8976  8057.18  88.7798
 40.9396  8055.36  89.1214
 40.9816  8153.53  88.9391
 41.0236  8051.61  88.1738
 41.0656  8125.09  89.117
 41.1076  7986.8  88.1243
 41.1496  8001.93  88.1068
 41.1916  8019.74  88.5244
 41.2336  8054.68  88.7255
 41.2756  8006.61  88.0628
 41.3176  8005.06  88.6658
 41.3596  8055.66  88.6763
 41.4016  8027.89  88.7844
 41.4436  8004.99  88.443
 41.4856  8002.6  88.6001
 41.5276  7992.86  88.5637
 41.5696  7973.28  88.0831
 41.6116  7986.62  88.5383
 41.6536  8027.53  88.6254
 41.6956  8101.98  89.0984
 41.7376  7942.66  88.2467
 41.7796  7944.78  88.1448
 41.8216  7981.37  88.5835
 41.8636  7978.72  88.505
 41.9056  7931.71  88.0385
 41.9476  7960.11  88.3203
 41.9896  8100.98  88.8592
 42.0316  7992.77  88.364
 42.0736  8081.54  88.9562
 42.1156  7960.69  88.1258
 42.1576  7930.59  88.0425
 42.1996  8069.65  88.9548
 42.2416  8009.2  88.2064
 42.2836  7892.82  87.6863
 42.3256  7885.32  87.76
 42.3676  8110.17  88.7938
 42.4096  7986.53  88.0923
 42.4516  8043.36  88.475
 42.4936  7973.74  88.1657
 42.5356  7851.16  87.6283
 42.5776  7854.32  87.5879
 42.6196  8038.55  88.6648
 42.6616  7773.78  87.3627
 42.7036  7906.14  87.4785
 42.7456  7953.59  88.0958
 42.7876  7869.12  87.7146
 42.8296  7974.69  88.1464
 42.8716  7891.35  87.854
 42.9136  7871.13  87.5234
 42.9556  7940.93  88.046
 42.9976  7889.56  87.727
 43.0396  7896.84  87.4884
 43.0816  7816.72  87.4357
 43.1236  7878.97  87.831
 43.1656  7874.98  87.6278
 43.2076  7897.11  87.8654
 43.2496  7870.4  87.5387
 43.2916  7845.61  87.7587
 43.3336  7799.76  87.3236
 43.3756  7937.95  87.8629
 43.4176  7738.9  86.8396
 43.4596  7830.64  87.2052
 43.5016  7822.17  87.5625
 43.5436  7861.62  87.6888
 43.5856  7800.71  87.3796
 43.6276  7757.74  87.0175
 43.6696  7802.28  87.5325
 43.7116  7847  87.2686
 43.7536  7853.33  87.8171
 43.7956  7704.38  88.1777
 43.8376  7631.09  86.2981
 43.8796  7651.51  86.4899
 43.9216  7702.93  86.701
 43.9636  7601.45  86.236
 44.0056  7603.4  86.4731
 44.0476  7635.27  86.2883
 44.0896  7587.91  86.3632
 44.1316  7815.62  87.1626
 44.1736  7585.08  85.994
 44.2156  7688.64  86.4353
 44.2576  7616.62  86.3487
 44.2996  7661.61  86.5759
 44.3416  7695.45  86.5298
 44.3836  7543.03  85.9979
 44.4256  7520.11  85.5099
 44.4676  7565.32  85.9234
 44.5096  7730.06  86.9989
 44.5516  7601.46  86.2382
 44.5936  7586.05  86.1021
 44.6356  7532.28  85.5336
 44.6776  7549.36  85.8693
 44.7196  7600.52  86.5464
 44.7616  7586.67  87.7976
 44.8036  7615.2  86.3774
 44.8456  7822.72  87.7596
 44.8876  7716.63  87.004
 44.9296  7757.82  86.6834
 44.9716  7713.73  86.8607
 45.0136  7662.5  86.5119
 45.0556  7820.17  87.3731
 45.0976  7702.13  86.8593
 45.1396  7575.93  85.8989
 45.1816  7585.75  85.9074
 45.2236  7779.71  86.9064
 45.2656  7616.22  86.4865
 45.3076  7707.07  86.7715
 45.3496  7526.63  86.0705
 45.3916  7633.14  86.9481
 45.4336  7687.5  87.0915
 45.4756  7565.85  86.2594
 45.5176  7774.48  87.0527
 45.5596  7805.42  87.3484
 45.6016  7497.97  86.0335
 45.6436  7634.64  85.9734
 45.6856  7574.27  86.2945
 45.7276  7495.8  87.1709
 45.7696  7477.87  86.7462
 45.8116  7618.15  86.9766
 45.8536  7501.66  86.2066
 45.8956  7568.28  85.9381
 45.9376  7484.43  84.9201
 45.9796  7602.87  86.2845
 46.0216  7662.92  86.9729
 46.0636  7778.6  86.7285
 46.1056  7441.13  84.839
 46.1476  7522.07  85.8934
 46.1896  7612.25  86.5613
 46.2316  7517.91  85.8824
 46.2736  7370.63  85.4131
 46.3156  7510.08  85.8024
 46.3576  7680.1  86.9713
 46.3996  7615.65  86.7672
 46.4416  7556.01  85.9911
 46.4836  7564.71  86.4085
 46.5256  7534.05  86.1712
 46.5676  7423.21  85.6518
 46.6096  7641.43  86.8381
 46.6516  7503.39  85.0766
 46.6936  7733.52  86.8838
 46.7356  7759.17  87.1207
 46.7776  7535.67  86.7233
 46.8196  7544.79  86.3649
 46.8616  7359.33  85.244
 46.9036  7428  85.2906
 46.9456  7541.02  85.5737
 46.9876  7425.17  85.004
 47.0296  7494.08  86.0864
 47.0716  7437.59  85.5874
 47.1136  7399.2  85.0437
 47.1556  7584.77  85.9659
 47.1976  7606.58  86.1626
 47.2396  7519.42  86.0823
 47.2816  7363.15  84.8813
 47.3236  7395.28  85.4427
 47.3656  7567.68  86.3585
 47.4076  7381.35  85.0869
 47.4496  7457.65  85.614
 47.4916  7399.6  85.4833
 47.5336  7515.79  85.963
 47.5756  7580.79  86.4465
 47.6176  7434.82  85.5092
 47.6596  7326  84.5989
 47.7016  7619.36  86.0838
 47.7436  7462.4  85.5435
 47.7856  7570.01  86.1749
 47.8276  7495.94  85.8013
 47.8696  7432.05  85.5203
 47.9116  7447.04  85.3168
 47.9536  7414.42  85.0768
 47.9956  7378.07  85.5869
 48.0376  7443  85.7315
 48.0796  7384.63  85.5233
 48.1216  7419.71  85.5469
 48.1636  7525.95  85.7139
 48.2056  7470.02  85.6674
 48.2476  7524.31  86.2936
 48.2896  7579.94  86.5092
 48.3316  7458.18  85.7632
 48.3736  7417.2  85.5545
 48.4156  7457.64  85.6375
 48.4576  7551.85  86.4726
 48.4996  7544.16  85.8711
 48.5416  7540.66  86.1851
 48.5836  7486.41  85.5433
 48.6256  7505.95  85.8648
 48.6676  7479.01  86.245
 48.7096  7487.81  85.5414
 48.7516  7555.39  86.0744
 48.7936  7391.09  85.2035
 48.8356  7434.03  85.5019
 48.8776  7496.06  86.4448
 48.9196  7474.31  85.6734
 48.9616  7381.11  85.5131
 49.0036  7379.23  85.8707
 49.0456  7361.58  85.7456
 49.0876  7369.67  85.3047
 49.1296  7316.3  85.1815
 49.1716  7196.52  84.344
 49.2136  7435.71  85.6542
 49.2556  7338.17  85.2423
 49.2976  7457.89  85.8916
 49.3396  7362.77  85.4052
 49.3816  7525.88  85.7453
 49.4236  7383.21  85.3499
 49.4656  7451.96  85.748
 49.5076  7423.07  85.3621
 49.5496  7398.73  85.2911
 49.5916  7375.72  85.0614
 49.6336  7434.19  85.6105
 49.6756  7443.19  85.9059
 49.7176  7399.39  85.5917
 49.7596  7313.43  84.8519
 49.8016  7448.07  85.5517
 49.8436  7333.84  85.196
 49.8856  7279.41  84.8847
 49.9276  7219.66  84.6374
 49.9696  7329.74  85.2543
 50.0116  7403.44  85.8146
 50.0536  7312.31  85.2311
 50.0956  7327.83  85.404
 50.1376  7342  85.1705
 50.1796  7386.44  85.7096
 50.2216  7346.78  85.4744
 50.2636  7324.2  84.9521
 50.3056  7259.41  84.7565
 50.3476  7342.8  85.2638
 50.3896  7277.28  84.8553
 50.4316  7272.32  84.6547
 50.4736  7208.4  84.5031
 50.5156  7360.96  85.3815
 50.5576  7397.96  85.3512
 50.5996  7275.36  85.0479
 50.6416  7253.06  84.7235
 50.6836  7311.9  85.1255
 50.7256  7373.35  85.4119
 50.7676  7355.43  85.6364
 50.8096  7312.28  84.896
 50.8516  7283.26  85.1569
 50.8936  7191.32  84.3949
 50.9356  7463.24  86.0915
 50.9776  7280.32  85.1948
 51.0196  7065.59  84.0545
 51.0616  7210.29  84.215
 51.1036  7269.33  84.927
 51.1456  7263.64  84.8076
 51.1876  7188.05  83.682
 51.2296  7141.92  84.1757
 51.2716  7074.63  83.3749
 51.3136  7022.14  83.5317
 51.3556  7068.9  83.4234
 51.3976  7055.97  83.496
 51.4396  6877.43  82.7503
 51.4816  7026.86  83.4961
 51.5236  7045.17  83.7125
 51.5656  7055  83.3324
 51.6076  7099.01  83.685
 51.6496  7074.52  83.7354
 51.6916  7107.53  84.2946
 51.7336  7095.58  84.32
 51.7756  7109.45  84.0802
 51.8176  6998.01  83.5405
 51.8596  7006.39  83.6038
 51.9016  7156.08  84.0881
 51.9436  7054.24  85.0113
 51.9856  7126.26  85.8602
 52.0276  7185.77  84.6611
 52.0696  7260.28  85.1739
 52.1116  7117.93  84.4609
 52.1536  7223.21  84.959
 52.1956  7053.09  83.4129
 52.2376  7245.75  84.7044
 52.2796  7126.13  83.8325
 52.3216  7024.68  83.9262
 52.3636  7025.18  83.4794
 52.4056  7203.38  84.4073
 52.4476  7093.93  84.1258
 52.4896  7060.68  83.9892
 52.5316  7117.43  84.3588
 52.5736  6986.84  83.3098
 52.6156  7145.62  84.6612
 52.6576  7060.21  83.5731
 52.6996  6862.36  83.3906
 52.7416  6935.07  83.687
 52.7836  7059.89  84.3256
 52.8256  6998.11  83.152
 52.8676  6881.74  83.0336
 52.9096  7038.32  84.0538
 52.9516  7020.68  84.3439
 52.9936  6970.44  84.4211
 53.0356  7053.22  83.9016
 53.0776  6942.86  83.5193
 53.1196  7006.1  84.0177
 53.1616  7148.15  84.9086
 53.2036  7022.05  84.1305
 53.2456  7006.86  84.1441
 53.2876  7072.96  84.2265
 53.3296  6977.22  83.9788
 53.3716  7063.53  84.2454
 53.4136  7044.61  84.2887
 53.4556  6987.82  83.9747
 53.4976  7022.61  84.0188
 53.5396  6883.81  83.5851
 53.5816  7047.48  84.201
 53.6236  6839.97  83.2453
 53.6656  6985.47  83.784
 53.7076  6967.08  83.6179
 53.7496  7042.19  84.2229
 53.7916  7023.17  84.2481
 53.8336  7033.24  84.1954
 53.8756  6892.41  83.9091
 53.9176  6904.83  83.2979
 53.9596  6745.1  83.1172
 54.0016  6815.11  82.8606
 54.0436  6629.35  81.9482
 54.0856  6771.85  82.2481
 54.1276  6784.5  82.5165
 54.1696  6714.26  82.2548
 54.2116  6853.26  82.8499
 54.2536  6792.67  82.2928
 54.2956  6781.84  82.2164
 54.3376  6698.33  82.2617
 54.3796  6642.56  81.8143
 54.4216  6703.91  82.2538
 54.4636  6665.17  82.0254
 54.5056  6790.65  82.5487
 54.5476  6652.79  82.0491
 54.5896  6637.1  81.7878
 54.6316  6671.17  81.828
 54.6736  6662.63  81.8643
 54.7156  6635.36  81.7293
 54.7576  6597.56  81.4699
 54.7996  6705.8  82.2864
 54.8416  6655.05  81.9558
 54.8836  6647.66  82.0782
 54.9256  6786  82.6864
 54.9676  6602.64  81.4372
 55.0096  6717.68  82.1503
 55.0516  6461.42  80.8332
 55.0936  6535.99  80.9565
 55.1356  6558.35  81.1342
 55.1776  6724.88  82.4015
 55.2196  6545.22  81.1363
 55.2616  6673.2  82.1062
 55.3036  6434.08  80.7785
 55.3456  6436.33  80.9408
 55.3876  6567.33  81.4784
 55.4296  6429.43  80.6563
 55.4716  6522.24  81.2147
 55.5136  6537.86  81.0861
 55.5556  6766.43  82.5302
 55.5976  6554.92  81.3168
 55.6396  6607.93  81.5854
 55.6816  6466.64  80.585
 55.7236  6469.11  80.654
 55.7656  6592.89  81.1216
 55.8076  6471.99  80.4061
 55.8496  6414.43  80.3402
 55.8916  6516.66  81.1983
 55.9336  6701.27  82.1679
 55.9756  6427.47  80.3519
 56.0176  6426.77  80.4921
 56.0596  6355.42  80.0499
 56.1016  6393.01  80.3074
 56.1436  6408.04  80.6434
 56.1856  6326.89  79.892
 56.2276  6560.31  81.3826
 56.2696  6445.91  80.6862
 56.3116  6600.2  82.0058
 56.3536  6391.92  80.3741
 56.3956  6267.57  79.5549
 56.4376  6448.05  80.7567
 56.4796  6358.21  79.9965
 56.5216  6485.62  81.1921
 56.5636  6393.35  80.1681
 56.6056  6529.51  81.2461
 56.6476  6370.26  79.8623
 56.6896  6557.3  81.5011
 56.7316  6302.25  79.8263
 56.7736  6383.64  80.3201
 56.8156  6343.2  80.0934
 56.8576  6275.61  79.6013
 56.8996  6410.88  80.3633
 56.9416  6307.54  80.0202
 56.9836  6483.81  80.6544
 57.0256  6373.32  80.2636
 57.0676  6478.3  81.0478
 57.1096  6327.02  79.9006
 57.1516  6265.41  79.5602
 57.1936  6336.58  79.745
 57.2356  6228.86  79.4053
 57.2776  6306.35  79.8654
 57.3196  6318.22  80.086
 57.3616  6277.01  79.5037
 57.4036  6388.75  80.2746
 57.4456  6388.73  80.2634
 57.4876  6353.32  79.9092
 57.5296  6264.47  79.6669
 57.5716  6332.42  80.1154
 57.6136  6106.07  78.4915
 57.6556  6296.36  79.8301
 57.6976  6259.22  79.3463
 57.7396  6144.28  79.0486
 57.7816  6214.21  79.8744
 57.8236  6211.97  79.6393
 57.8656  6311.7  79.9387
 57.9076  6254.32  79.588
 57.9496  6155.45  79.3318
 57.9916  6281.09  79.6358
 58.0336  6180.5  79.2864
 58.0756  6344.37  79.9566
 58.1176  6270.38  79.4837
 58.1596  6210.37  79.6884
 58.2016  6132.46  78.4078
 58.2436  6001.02  77.9685
 58.2856  5991.54  77.8291
 58.3276  6097.75  78.8895
 58.3696  5925.54  77.5209
 58.4116  6075.89  78.3629
 58.4536  6064.22  78.1728
 58.4956  5991.59  77.8856
 58.5376  6045.49  77.928
 58.5796  5990.01  77.8696
 58.6216  5940.57  77.3625
 58.6636  6018.14  78.0819
 58.7056  5964.57  77.59
 58.7476  5931.75  77.8181
 58.7896  5987.2  77.8276
 58.8316  5952.22  77.7018
 58.8736  6024.55  78.0765
 58.9156  5962.89  77.7181
 58.9576  6009.34  78.3388
 58.9996  6063.13  77.9354
 59.0416  6001.51  77.9034
 59.0836  6056.6  78.168
 59.1256  5947.73  78.1656
 59.1676  5988.35  78.7365
 59.2096  6075.83  78.6198
 59.2516  6073.75  78.1862
 59.2936  5955.97  77.7502
 59.3356  5877.77  77.1175
 59.3776  5946.9  77.7373
 59.4196  5914.03  77.4589
 59.4616  5914.7  77.3246
 59.5036  5960.72  77.6601
 59.5456  6028.69  77.7952
 59.5876  5898.12  77.1369
 59.6296  5817.42  76.6754
 59.6716  5873.02  77.098
 59.7136  5949.88  77.5893
 59.7556  6040.44  78.314
 59.7976  5832.6  76.7015
 59.8396  6069.09  78.135
 59.8816  5953.04  77.9259
 59.9236  5991.28  77.8209
 59.9656  5892.53  77.4345
 60.0076  5863.5  76.6101
 60.0496  5940.3  77.6098
 60.0916  6069.46  77.8658
 60.1336  5851.39  77.5441
 60.1756  5769.08  78.1542
 60.1996  0.0000000E+00  0.0000000E+00