File: docs/examples/opeando_xrd/IS17_D/Data/IS17_D/17_Db_f00129.xye
# /beamlines/bl04/projects/cycle2025-II/20250340211-lsimonelli/DATA/IS17_D/17_Db_f00129.xye : mythproc.py merge -s 0.006 -l 0.5 -f /beamlines/bl04/inhouse/ff/FlatField/ff_20Nov2024rod8mm60s_17keV.raw -b True -c true -o xye /beamlines/bl04/projects/cycle2025-II/20250340211-lsimonelli/DATA/IS17_D/17_Db_00129.dat
# IsMon = [6783382, 6781756, 6782594]  IsPos = [-1.4999, -2.4885, -3.4986]
# Wave = 0.4962  CalPath /beamlines/bl04/projects/cycle2025-II/20250340211-lsimonelli/DATA/Align/Si_Pos1_25keV_f00001.cal
# Date = 2025-09-25_05:39:41 Dt = 4.8000  Bin = 0.0060  <imon> = 6782577 +/- 664 (Min/Max) 6781756 / 6783382
# icurr 252.6617  mocoIn 1.7236E-05  mocoOut 0.8086  i15 7.1044e+06  imon 6.78258e+06  i7 4.3333  iEMpd_timer 4.8000  iEMpd_1 3.5855E-08  iEMpd_2 8.0400E-08  iEMpd_3 1.8769E-08  iEMpd_4 4.8972E-08  iEMhp_timer 4.8000  iEMhp_1 4.9347E-06  iEMhp_2 -2.5686E-08  iEMhp_3 -2.4792E-08  iEMhp_4 -2.1529E-08
#      9776
 1.5856  44876.9  217.515
 1.6276  51853.1  229.799
 1.6696  56988  240.059
 1.7116  63992.2  254.882
 1.7536  72124.4  269.44
 1.7956  76405.2  278.014
 1.8376  73521.5  273.149
 1.8796  62966.2  250.923
 1.9216  52061.2  229.071
 1.9636  44926.6  211.924
 2.0056  41333.4  202.485
 2.0476  38106.7  196.552
 2.0896  36738.5  191.86
 2.1316  35990.1  188.983
 2.1736  34515.5  186.539
 2.2156  34799.1  185.8
 2.2576  33304.8  182.421
 2.2996  32142.2  179.865
 2.3416  32433.5  179.237
 2.3836  32036.6  178.246
 2.4256  31091.7  176.169
 2.4676  30283.1  173.617
 2.5096  30118.7  173.202
 2.5516  29090.1  174.132
 2.5936  34796.7  186.633
 2.6356  28576.8  169.852
 2.6776  28083.5  167.263
 2.7196  27670.6  166.512
 2.7616  27550.2  165.946
 2.8036  26993.1  164.417
 2.8456  27048.9  165.238
 2.8876  26542.2  163.524
 2.9296  25972.7  161.906
 2.9716  25852.1  161.023
 3.0136  25534.4  160.091
 3.0556  25917.9  161.684
 3.0976  25758  160.088
 3.1396  25396.2  159.702
 3.1816  25051.6  158.548
 3.2236  24914.9  158.103
 3.2656  24659.1  156.338
 3.3076  24683.7  157.894
 3.3496  24966.4  157.954
 3.3916  25399.4  158.887
 3.4336  25619.9  160.17
 3.4756  26030.3  161.378
 3.5176  26806.2  163.538
 3.5596  26528.1  165.153
 3.6016  26431.4  162.462
 3.6436  25759.2  161.501
 3.6856  25287.3  158.303
 3.7276  24463.8  156.787
 3.7696  23999.2  155.489
 3.8116  23704.1  154.421
 3.8536  24041  155.445
 3.8956  23923.2  154.884
 3.9376  23766.3  154.672
 3.9796  23690.9  153.887
 4.0216  23660.8  152.818
 4.0636  23740.1  154.548
 4.1056  23656.7  153.936
 4.1476  24132.5  155.788
 4.1896  23988.9  155.18
 4.2316  24337.7  156.129
 4.2736  24736.6  157.199
 4.3156  24695.3  157.303
 4.3576  25625.2  160.143
 4.3996  25596.1  160.126
 4.4416  26267.1  161.992
 4.4836  26756.2  163.659
 4.5256  27346.8  166.065
 4.5676  27204.2  165.894
 4.6096  27883.7  166.579
 4.6516  27936  166.441
 4.6936  28009  167.493
 4.7356  28248  168.028
 4.7776  28185.7  167.673
 4.8196  28029.3  167.85
 4.8616  27579.8  166.127
 4.9036  27326.4  164.956
 4.9456  26990.9  164.599
 4.9876  26406.4  162.709
 5.0296  26858.8  163.925
 5.0716  26615.8  163.807
 5.1136  26764.9  164.125
 5.1556  26903.3  164.01
 5.1976  27999.3  167.301
 5.2396  27446.3  165.335
 5.2816  27678  166.503
 5.3236  27506.5  165.686
 5.3656  27298.5  165.996
 5.4076  26943.5  165.055
 5.4496  26959.3  164.598
 5.4916  27223.3  165.153
 5.5336  27032.8  164.584
 5.5756  26987.9  164.461
 5.6176  27261  164.718
 5.6596  27449.2  166.284
 5.7016  27556  165.862
 5.7436  27719.6  166.636
 5.7856  27439.1  165.859
 5.8276  27841.6  166.785
 5.8696  28166.5  167.928
 5.9116  27832.2  167.504
 5.9536  28402.3  168.972
 5.9956  28356.4  168.228
 6.0376  28490  169.249
 6.0796  28827.7  170.073
 6.1216  28704.1  169.92
 6.1636  29046.6  169.961
 6.2056  28789.8  169.905
 6.2476  29079.5  170.623
 6.2896  29567.2  171.724
 6.3316  29429.4  171.484
 6.3736  29271.4  170.925
 6.4156  29608.5  171.787
 6.4576  29682.5  171.629
 6.4996  29419.7  171.347
 6.5416  29590.2  171.965
 6.5836  29584.9  172.198
 6.6256  29812.9  172.409
 6.6676  30417.9  173.708
 6.7096  30462  174.706
 6.7516  30390.8  174.16
 6.7936  30923.5  174.82
 6.8356  30820.7  174.881
 6.8776  31031.7  176.293
 6.9196  30926.4  176.39
 6.9616  31529.5  177.509
 7.0036  32036.6  178.616
 7.0456  32156.5  178.238
 7.0876  31966.2  179.409
 7.1296  32126.6  178.981
 7.1716  32203.2  178.729
 7.2136  31843.4  177.51
 7.2556  31966.4  178.008
 7.2976  31992.1  178.574
 7.3396  31934.4  178.641
 7.3816  31980.1  178.983
 7.4236  32094.2  178.598
 7.4656  32522.2  179.238
 7.5076  32532.1  179.414
 7.5496  32356.4  179.473
 7.5916  32627.4  180.27
 7.6336  33089.2  181.426
 7.6756  33038.5  181.133
 7.7176  33513.9  182.754
 7.7596  33470.6  183.875
 7.8016  34299  188.402
 7.8436  33664  183.3
 7.8856  33920.7  183.607
 7.9276  34496.8  185.558
 7.9696  34597.3  186.137
 8.0116  35537.9  187.56
 8.0536  35659.4  187.762
 8.0956  35717.9  189.102
 8.1376  36412.6  190.398
 8.1796  36525.9  191.234
 8.2216  37194.6  191.704
 8.2636  37600.3  193.008
 8.3056  37093.9  192.471
 8.3476  37818.2  193.662
 8.3896  37399.9  193.111
 8.4316  37760.7  193.768
 8.4736  38092.8  194.085
 8.5156  37739.4  193.459
 8.5576  37424.4  193.619
 8.5996  37086.5  191.623
 8.6416  37286.7  193.408
 8.6836  36884.4  192.19
 8.7256  37535.3  193.324
 8.7676  37616.8  196.477
 8.8096  37754.4  194.094
 8.8516  37946.1  194.141
 8.8936  37547.8  193.084
 8.9356  37547.4  193.409
 8.9776  37592.7  193.606
 9.0196  37644  193.41
 9.0616  37172.8  191.697
 9.1036  37051.9  192.565
 9.1456  36447.8  190.321
 9.1876  36840.9  191.27
 9.2296  36348.7  189.441
 9.2716  36488.9  189.836
 9.3136  36301.2  189.35
 9.3556  36312.7  189.352
 9.3976  35586.3  187.964
 9.4396  35736.2  188.273
 9.4816  35419.5  187.285
 9.5236  35059.4  186.238
 9.5656  35040.4  186.547
 9.6076  34178.8  184.77
 9.6496  34543.5  185.636
 9.6916  34153.1  184.53
 9.7336  34458  185.133
 9.7756  34180  185.769
 9.8176  34114.4  184.995
 9.8596  33875.8  182.774
 9.9016  33451  181.614
 9.9436  33363.4  181.295
 9.9856  33074.3  180.779
 10.0276  32506.4  180.306
 10.0696  32957.1  180.579
 10.1116  31956.7  178.078
 10.1536  31951.5  178.215
 10.1956  31086.9  175.402
 10.2376  31366.4  175.69
 10.2796  31227.1  175.417
 10.3216  30885.1  174.749
 10.3636  30696.7  174.231
 10.4056  30039  172.771
 10.4476  30601.8  173.975
 10.4896  30978.2  174.478
 10.5316  30067.5  172.64
 10.5736  29922.6  172.635
 10.6156  29764.8  171.922
 10.6576  29806.6  170.594
 10.6996  29316.2  169.896
 10.7416  28824  168.676
 10.7836  28742.4  169.126
 10.8256  28063.3  167.546
 10.8676  28134.2  167.293
 10.9096  27990.4  166.888
 10.9516  27944.5  165.689
 10.9936  27815.5  165.517
 11.0356  27655.7  165.655
 11.0776  27434.8  164.32
 11.1196  27138.2  164.203
 11.1616  26643.2  162.372
 11.2036  27059  163.473
 11.2456  27114.8  164.367
 11.2876  27231.9  164.439
 11.3296  26671.7  162.651
 11.3716  27432.8  164.632
 11.4136  27386.3  165.407
 11.4556  27656.5  165.861
 11.4976  27949.3  165.704
 11.5396  27402.3  164.249
 11.5816  26795.9  162.871
 11.6236  26392.9  162.089
 11.6656  26528.6  161.419
 11.7076  25769.6  159.94
 11.7496  25731.5  163.867
 11.7916  25633.6  158.763
 11.8336  25105.1  158.051
 11.8756  25191.3  157.832
 11.9176  25078.4  157.398
 11.9596  25332.7  158.112
 12.0016  24866.6  157.431
 12.0436  25072.2  157.516
 12.0856  24540.2  156.352
 12.1276  24599.4  156.488
 12.1696  24543.7  155.411
 12.2116  24637.7  155.721
 12.2536  24397.4  155.773
 12.2956  24261.2  154.681
 12.3376  24632.5  156.061
 12.3796  24426.6  155.905
 12.4216  24387.6  154.967
 12.4636  24144.6  155.135
 12.5056  24290.8  154.864
 12.5476  24587.8  155.308
 12.5896  24158.3  154.602
 12.6316  24375.1  155.443
 12.6736  24064.9  154.796
 12.7156  24270  155.44
 12.7576  24158.2  155.337
 12.7996  24298  154.417
 12.8416  24106.9  154.868
 12.8836  24826.1  156.972
 12.9256  24779.6  155.867
 12.9676  24861  156.526
 13.0096  24788.3  157.418
 13.0516  24895.1  156.784
 13.0936  24947.3  157.36
 13.1356  25247.8  157.254
 13.1776  24622.7  156.315
 13.2196  24833.4  156.624
 13.2616  24620.7  156.274
 13.3036  24786.1  156.757
 13.3456  24489.5  155.967
 13.3876  25248.8  157.835
 13.4296  24830.7  156.684
 13.4716  24876.2  156.455
 13.5136  24809.1  156.368
 13.5556  24857.3  157.168
 13.5976  24910.3  157.502
 13.6396  24768.1  156.406
 13.6816  24866.5  157.19
 13.7236  25309.8  158.172
 13.7656  26899.8  163.518
 13.8076  27651.4  164.414
 13.8496  27154.3  163.607
 13.8916  25165  158.638
 13.9336  24482.5  155.748
 13.9756  24477.4  155.108
 14.0176  24085.6  154.554
 14.0596  24154.1  154.693
 14.1016  24143.4  155.091
 14.1436  24235.9  154.504
 14.1856  23443.8  152.255
 14.2276  23480.5  152.856
 14.2696  23466.3  152.665
 14.3116  22997.3  151.045
 14.3536  22655  150.079
 14.3956  22721.7  150.021
 14.4376  22990.6  150.689
 14.4796  22938  150.518
 14.5216  22499.8  149.862
 14.5636  22151.7  148.266
 14.6056  22554.1  149.157
 14.6476  22406.1  147.91
 14.6896  21912.4  146.817
 14.7316  21733.8  147.265
 14.7736  21346.4  145.084
 14.8156  21329.6  145.053
 14.8576  21252.9  144.644
 14.8996  20843.2  144.45
 14.9416  20737  144.094
 14.9836  20529.7  143.356
 15.0256  19967.9  140.299
 15.0676  20029.1  140.824
 15.1096  19846.9  139.919
 15.1516  19436  139.018
 15.1936  19410.7  138.361
 15.2356  19172  137.783
 15.2776  19166.5  137.352
 15.3196  18712  136.704
 15.3616  18765.4  136.655
 15.4036  18591.3  135.881
 15.4456  18966.8  136.67
 15.4876  18576.3  135.165
 15.5296  18372.1  134.705
 15.5716  18077.5  133.227
 15.6136  18251.6  134.195
 15.6556  18157  133.089
 15.6976  18057  132.798
 15.7396  17924.9  132.912
 15.7816  18048.5  132.885
 15.8236  17479.6  131.456
 15.8656  17588.4  131.663
 15.9076  17270.8  130.289
 15.9496  18173.5  136.488
 15.9916  17881.2  135.787
 16.0336  17885.2  132.654
 16.0756  17897.4  133.01
 16.1176  17550.8  131.808
 16.1596  17247.5  131.849
 16.2016  17120.2  130.118
 16.2436  17161.6  130.663
 16.2856  17348.2  130.872
 16.3276  16832.5  129.348
 16.3696  17282.4  130.891
 16.4116  16869  129.776
 16.4536  17139.4  130.608
 16.4956  17236.5  130.701
 16.5376  16822  129.319
 16.5796  16782.7  128.529
 16.6216  16900.8  129.245
 16.6636  16623.1  128.375
 16.7056  16867.4  129.171
 16.7476  16702.4  128.202
 16.7896  16788.8  129.139
 16.8316  16795.2  129.151
 16.8736  16884.7  129.742
 16.9156  16824.7  129.851
 16.9576  16609.8  129.824
 16.9996  16529.8  129.987
 17.0416  16516.2  128.312
 17.0836  16680.4  128.704
 17.1256  16546.3  128.192
 17.1676  16429.9  127.71
 17.2096  16184.3  126.641
 17.2516  16097.9  126.087
 17.2936  16232.6  126.966
 17.3356  16069.2  126.308
 17.3776  15839.4  125.595
 17.4196  15799.5  125.136
 17.4616  15918.8  125.509
 17.5036  15438.8  123.966
 17.5456  15603.5  125.269
 17.5876  15653  124.511
 17.6296  15658.6  124.359
 17.6716  15508.6  124.345
 17.7136  15467.9  124.309
 17.7556  15375.9  124.236
 17.7976  15087  122.666
 17.8396  15197.5  122.748
 17.8816  15067.6  122.792
 17.9236  15196.7  123.104
 17.9656  15033.2  123.114
 18.0076  15078.6  122.731
 18.0496  15084.3  121.884
 18.0916  15234.6  123.053
 18.1336  15141.5  122.77
 18.1756  15284.9  122.894
 18.2176  14971.8  121.843
 18.2596  14926.7  121.388
 18.3016  15098.2  122.345
 18.3436  15004.6  122.204
 18.3856  14936.7  121.828
 18.4276  14767.5  120.821
 18.4696  14788.2  120.988
 18.5116  14769.1  121.188
 18.5536  14751.9  121.482
 18.5956  14673.9  120.717
 18.6376  14621.7  120.913
 18.6796  14656.4  120.362
 18.7216  14672.5  120.994
 18.7636  14507.9  120.249
 18.8056  14387.9  119.674
 18.8476  14306.1  119.661
 18.8896  14482.8  120.031
 18.9316  14501.3  119.924
 18.9736  14403.9  119.373
 19.0156  14432  119.904
 19.0576  14500.6  119.042
 19.0996  14548  119.956
 19.1416  14379.7  119.662
 19.1836  14169.5  118.39
 19.2256  14094.5  118.292
 19.2676  14442.1  119.829
 19.3096  14212.9  119.128
 19.3516  14161.2  118.866
 19.3936  14214.8  119.052
 19.4356  14478.2  119.964
 19.4776  14257.8  119.138
 19.5196  14194.8  118.723
 19.5616  14025  118.274
 19.6036  14122.8  118.041
 19.6456  14250.5  118.822
 19.6876  14154.3  118.058
 19.7296  14472.3  119.849
 19.7716  14311.5  119.209
 19.8136  14638.4  120.906
 19.8556  14799.3  121.045
 19.8976  14922.8  121.605
 19.9396  15131.9  122.034
 19.9816  14896.3  121.339
 20.0236  14746.3  120.921
 20.0656  14412.4  119.546
 20.1076  14258.9  119.381
 20.1496  14021.4  118.382
 20.1916  14152.3  118.446
 20.2336  14041.2  117.905
 20.2756  13918.7  117.82
 20.3176  13727.5  116.755
 20.3596  13615  116.269
 20.4016  13724.9  116.529
 20.4436  13565.3  116.428
 20.4856  13577.3  116.26
 20.5276  13441.3  116.142
 20.5696  13661.7  116.514
 20.6116  13423.6  115.777
 20.6536  13417.1  115.326
 20.6956  13409.5  115.368
 20.7376  13283.4  115.038
 20.7796  13391.2  115.195
 20.8216  13534.7  115.522
 20.8636  13371.3  115.197
 20.9056  13292.4  114.794
 20.9476  13384.1  115.032
 20.9896  13455.7  115.199
 21.0316  13194.5  113.983
 21.0736  13284  114.893
 21.1156  13144.2  114.45
 21.1576  13264.1  115.01
 21.1996  13214.3  114.781
 21.2416  13325.6  115.082
 21.2836  13269.8  114.811
 21.3256  13175.1  114.476
 21.3676  13207.3  114.149
 21.4096  13096.5  113.999
 21.4516  13106.8  113.908
 21.4936  12751.4  112.618
 21.5356  13135.6  114.244
 21.5776  13058.9  113.746
 21.6196  12954.4  113.331
 21.6616  12854.5  112.982
 21.7036  12968.2  113.243
 21.7456  13038.7  113.632
 21.7876  12903.9  112.799
 21.8296  12919.6  112.716
 21.8716  12894.7  112.838
 21.9136  13142.3  114.124
 21.9556  12875.8  112.637
 21.9976  12792.3  112.289
 22.0396  12791.8  112.547
 22.0816  12709  112.719
 22.1236  12988.8  113.399
 22.1656  12725.5  112.439
 22.2076  12488.2  110.794
 22.2496  12581.5  111.241
 22.2916  12565.3  111.053
 22.3336  12595.6  111.89
 22.3756  12555.8  111.454
 22.4176  12597.4  111.48
 22.4596  12256.3  110.553
 22.5016  12511.1  111.204
 22.5436  12522.4  111.128
 22.5856  12756.5  112.41
 22.6276  12757.6  112.552
 22.6696  12638.3  112.377
 22.7116  12395.9  110.81
 22.7536  12585.5  111.628
 22.7956  12558  110.839
 22.8376  12385.4  110.595
 22.8796  12598.4  111.339
 22.9216  12658.7  112.152
 22.9636  12428.9  110.285
 23.0056  12519.1  110.822
 23.0476  12710.9  112.245
 23.0896  12992.5  112.849
 23.1316  12649.5  111.783
 23.1736  12750.4  115.2
 23.2156  12984  113.504
 23.2576  12970.6  113.651
 23.2996  12816.1  112.753
 23.3416  12839.8  113.386
 23.3836  12733.7  112.127
 23.4256  13006.2  113.46
 23.4676  12818.9  112.329
 23.5096  12858.8  113.171
 23.5516  12855.5  112.445
 23.5936  12698  112.669
 23.6356  12827  112.902
 23.6776  12818.3  113.41
 23.7196  12658.8  111.948
 23.7616  12703.9  112.066
 23.8036  12902.6  112.989
 23.8456  12569.5  111.073
 23.8876  12675.4  111.896
 23.9296  12522.3  111.718
 23.9716  12435.5  110.53
 24.0136  12806.5  113.085
 24.0556  12419.2  111.076
 24.0976  12494.7  111.228
 24.1396  12247.9  112.752
 24.1816  12367.7  112.051
 24.2236  12338.3  111.196
 24.2656  12149.8  109.82
 24.3076  12315.1  110.837
 24.3496  12132.7  109.891
 24.3916  12294  110.671
 24.4336  12253.8  110.693
 24.4756  12229.5  110.468
 24.5176  12107  109.542
 24.5596  12032.4  109.331
 24.6016  11909.1  109.061
 24.6436  12037.5  109.146
 24.6856  11989  108.674
 24.7276  11864.2  108.433
 24.7696  11815.1  108.317
 24.8116  11568.6  107.362
 24.8536  11604.3  107.527
 24.8956  11634.5  107.396
 24.9376  11706.2  107.649
 24.9796  11590.3  107.484
 25.0216  11527  107.307
 25.0636  11664.4  107.596
 25.1056  11372.1  106.665
 25.1476  11389.2  108.661
 25.1896  11501  107.689
 25.2316  11451.6  106.612
 25.2736  11357.6  105.929
 25.3156  11357.9  106.011
 25.3576  11183.6  105.625
 25.3996  11254.4  105.949
 25.4416  11260.1  105.95
 25.4836  11105.6  105.738
 25.5256  11244.9  105.764
 25.5676  11146.9  105.029
 25.6096  11206.3  105.883
 25.6516  11179.9  105.267
 25.6936  11279  106.04
 25.7356  11209.4  105.85
 25.7776  11232.3  105.555
 25.8196  11086.1  105.112
 25.8616  11080.6  105.016
 25.9036  11272.2  105.367
 25.9456  11085.6  105.094
 25.9876  10838.5  103.976
 26.0296  11209  105.343
 26.0716  11274.6  105.99
 26.1136  11045.2  104.833
 26.1556  11231.3  105.001
 26.1976  11060.6  105.233
 26.2396  11037.2  104.522
 26.2816  11162.5  105.478
 26.3236  11059.4  105.062
 26.3656  11117.5  105.134
 26.4076  11045.9  104.993
 26.4496  11187.4  105.263
 26.4916  11257  105.489
 26.5336  11355.4  106.292
 26.5756  11803.2  108.244
 26.6176  11124.9  105.115
 26.6596  10930.8  104.493
 26.7016  10841.9  103.878
 26.7436  11062  105.005
 26.7856  10834  103.907
 26.8276  10728.8  103.374
 26.8696  10758.9  103.383
 26.9116  10771.9  103.384
 26.9536  10674.2  102.966
 26.9956  10586.2  102.58
 27.0376  10634.4  103.03
 27.0796  10630.2  102.774
 27.1216  10692.3  103.092
 27.1636  10491.1  102.297
 27.2056  10538.1  102.401
 27.2476  10588.1  102.643
 27.2896  10436.7  101.945
 27.3316  10488.3  101.99
 27.3736  10470.2  102.174
 27.4156  10453.5  101.909
 27.4576  10451.8  102.14
 27.4996  10593.3  102.427
 27.5416  10507.8  102.328
 27.5836  10330.7  101.293
 27.6256  10371  101.679
 27.6676  10403.7  101.827
 27.7096  10453.3  101.951
 27.7516  10358.6  101.635
 27.7936  10629.8  103.097
 27.8356  10557.7  102.343
 27.8776  10591.1  102.585
 27.9196  10260.2  100.834
 27.9616  10319.8  101.324
 28.0036  10190.6  100.647
 28.0456  10161.2  100.643
 28.0876  10125.7  100.555
 28.1296  10161.5  100.563
 28.1716  10279.2  101.163
 28.2136  10173.1  100.606
 28.2556  10274.3  101.21
 28.2976  10080.3  100.256
 28.3396  10096.2  100.127
 28.3816  10136.5  100.308
 28.4236  9998.93  99.7721
 28.4656  10033.9  99.988
 28.5076  10038.1  99.6455
 28.5496  10209.1  100.751
 28.5916  10103  100.03
 28.6336  10088.9  100.304
 28.6756  10056.6  99.3329
 28.7176  10035.9  99.8019
 28.7596  9908.57  99.0571
 28.8016  9838.41  98.8259
 28.8436  9928.12  99.4308
 28.8856  9980.59  99.5434
 28.9276  10005.4  99.9215
 28.9696  9908.65  99.0867
 29.0116  9818.7  98.8039
 29.0536  9814.64  99.0135
 29.0956  9863.15  98.9517
 29.1376  9826.11  98.7355
 29.1796  9923.11  99.2786
 29.2216  9836.01  98.6774
 29.2636  9917.75  99.0807
 29.3056  9798.63  98.3467
 29.3476  9863.05  99.2038
 29.3896  9764.9  98.824
 29.4316  9781.3  98.2377
 29.4736  9507.32  96.9142
 29.5156  9602.66  97.3223
 29.5576  9529.81  97.6869
 29.5996  9726.45  97.9416
 29.6416  9581.84  97.3225
 29.6836  9599.98  97.3527
 29.7256  9366.42  96.7181
 29.7676  9488.93  97.0116
 29.8096  9567.39  97.3556
 29.8516  9386.35  96.7559
 29.8936  9621.35  98.0568
 29.9356  9529.46  97.3416
 29.9776  9373.06  96.6927
 30.0196  9487.39  96.667
 30.0616  9447.11  96.8365
 30.1036  9539.26  97.1347
 30.1456  9354.61  96.4431
 30.1876  9468.59  96.986
 30.2296  9285.2  95.9898
 30.2716  9502.03  96.7413
 30.3136  9385.24  96.7356
 30.3556  9576.26  97.9768
 30.3976  9651.8  99.8664
 30.4396  9920.91  98.554
 30.4816  9776.34  97.4441
 30.5236  9787.35  97.4953
 30.5656  9642.04  97.4285
 30.6076  9753.23  97.3879
 30.6496  9671.58  97.4052
 30.6916  9568.79  96.971
 30.7336  9615.43  97.3552
 30.7756  9507.25  97.1203
 30.8176  9589.04  97.2284
 30.8596  9612.55  97.102
 30.9016  9480.24  96.7897
 30.9436  9521.77  96.7448
 30.9856  9643.77  97.4651
 31.0276  9508.76  96.4241
 31.0696  9551.69  97.0677
 31.1116  9463.01  96.722
 31.1536  9458.62  96.5835
 31.1956  9435.42  96.5482
 31.2376  9301.77  95.8783
 31.2796  9456.38  96.2108
 31.3216  9533.76  96.539
 31.3636  9475.05  96.9448
 31.4056  9413.16  97.9395
 31.4476  9508.02  96.3212
 31.4896  9396  96.2553
 31.5316  9549.77  96.4808
 31.5736  9712.14  97.0825
 31.6156  9632.79  96.6922
 31.6576  9590.87  96.5561
 31.6996  9613.27  96.3201
 31.7416  9267.3  95.6737
 31.7836  9489.73  95.7988
 31.8256  9338.09  95.3857
 31.8676  9537.69  96.309
 31.9096  9348.07  95.7136
 31.9516  9305.85  95.6707
 31.9936  9126.99  94.5735
 32.0356  9256.34  95.2703
 32.0776  9498.1  96.4158
 32.1196  9441.92  96.239
 32.1616  9595.11  96.4562
 32.2036  9453.99  96.2547
 32.2456  9269.78  95.6934
 32.2876  9282.33  95.087
 32.3296  9185.7  94.7269
 32.3716  9102.39  94.4146
 32.4136  9012.04  94.1413
 32.4556  9200.05  94.5586
 32.4976  9124.41  94.0178
 32.5396  9151.58  94.2255
 32.5816  9217.28  94.59
 32.6236  9161.92  94.4682
 32.6656  9216.03  95.2942
 32.7076  9071.81  94.2034
 32.7496  9083.9  93.931
 32.7916  9239.75  94.6996
 32.8336  9067.74  93.9056
 32.8756  9318.64  95.0018
 32.9176  8903.17  93.253
 32.9596  9085.73  94.2772
 33.0016  9051.67  93.8783
 33.0436  9046.37  94.0227
 33.0856  8972.16  93.7305
 33.1276  8887.67  93.0179
 33.1696  9083.31  93.8572
 33.2116  9073.58  94.053
 33.2536  9278.25  95.097
 33.2956  9029.75  93.9048
 33.3376  9068.36  93.8008
 33.3796  9108.07  94.2634
 33.4216  9037.68  93.4933
 33.4636  9027.82  93.5946
 33.5056  8905.51  93.0419
 33.5476  9017.04  93.7556
 33.5896  9075.31  93.8293
 33.6316  8940.79  93.4623
 33.6736  8744.93  92.681
 33.7156  8923.21  93.6525
 33.7576  8979.77  93.5926
 33.7996  8952.5  93.2136
 33.8416  8651.28  91.8136
 33.8836  8808.96  92.419
 33.9256  8940.32  93.1644
 33.9676  8920.7  92.9574
 34.0096  8903.39  93.1798
 34.0516  8852.32  92.5494
 34.0936  8838.54  92.7555
 34.1356  8886.35  92.7374
 34.1776  8789.17  92.229
 34.2196  8815.02  92.5534
 34.2616  8630.04  91.7772
 34.3036  8755.66  92.6148
 34.3456  8708.82  92.1259
 34.3876  8746.59  92.2973
 34.4296  8648.14  91.4699
 34.4716  8894.07  92.9115
 34.5136  8734.62  92.2713
 34.5556  8662.27  92.1484
 34.5976  8734.7  92.3381
 34.6396  8624.11  91.4635
 34.6816  8769.38  92.339
 34.7236  8716.36  91.8309
 34.7656  8764.93  92.3055
 34.8076  8702.89  92.3096
 34.8496  8506.78  91.1169
 34.8916  8690.96  91.9577
 34.9336  8616  91.5411
 34.9756  8577.5  91.2573
 35.0176  8721.86  92.5546
 35.0596  8838.95  92.9903
 35.1016  8715.16  92.086
 35.1436  8837  92.4201
 35.1856  8604.46  91.3026
 35.2276  8533.16  91.1112
 35.2696  8522.79  91.249
 35.3116  8550.73  91.4988
 35.3536  8559.56  91.2528
 35.3956  8644.42  91.4127
 35.4376  8691.76  92.2305
 35.4796  8670.12  92.1605
 35.5216  8651.51  91.9523
 35.5636  8370.92  91.2606
 35.6056  8586.47  91.4467
 35.6476  8626.59  91.5506
 35.6896  8567.89  91.4125
 35.7316  8435.76  90.6013
 35.7736  8548.21  91.3868
 35.8156  8466.41  90.9532
 35.8576  8598.43  91.9057
 35.8996  8656.44  92.1877
 35.9416  8615.06  91.4607
 35.9836  8595.54  91.7104
 36.0256  8737.14  92.4803
 36.0676  8758.43  92.1129
 36.1096  8532.99  91.3007
 36.1516  8655.13  91.8311
 36.1936  8534.78  91.0235
 36.2356  8424.61  91.0982
 36.2776  8474.46  90.8486
 36.3196  8463.64  90.4483
 36.3616  8476.42  90.6451
 36.4036  8481.08  90.7359
 36.4456  8482.52  90.9649
 36.4876  8367.41  90.2829
 36.5296  8438.94  90.6974
 36.5716  8464.85  91.6301
 36.6136  8333.26  89.6982
 36.6556  8338.61  89.9293
 36.6976  8173.89  89.5275
 36.7396  8205.27  89.5264
 36.7816  8275.76  90.1926
 36.8236  8255.24  90.003
 36.8656  8175.91  89.6339
 36.9076  8117.84  89.3276
 36.9496  8348.23  90.5998
 36.9916  8201.03  89.2737
 37.0336  8266.61  89.9457
 37.0756  8194.86  89.3471
 37.1176  8059.44  88.9659
 37.1596  8125.61  89.2457
 37.2016  8071.13  89.1203
 37.2436  8184.24  89.1091
 37.2856  8118.05  88.9903
 37.3276  8128.97  88.4142
 37.3696  8086.11  89.0634
 37.4116  8138.2  89.2553
 37.4536  8038.23  88.5716
 37.4956  7978.01  88.2837
 37.5376  8150.89  90.8235
 37.5796  8200.48  91.0162
 37.6216  8220.37  89.3882
 37.6636  8242.54  89.3855
 37.7056  8148.49  89.0762
 37.7476  8435.05  90.1585
 37.7896  8128.67  89.0197
 37.8316  8208.04  89.5963
 37.8736  8199.35  89.0807
 37.9156  8104.51  88.5533
 37.9576  8176.56  89.0186
 37.9996  8137.54  88.3659
 38.0416  8272.29  89.9158
 38.0836  8362.97  90.3046
 38.1256  8141.34  89.0743
 38.1676  8087.99  88.8944
 38.2096  8225.54  89.258
 38.2516  8264.63  89.6065
 38.2936  8274.67  89.5472
 38.3356  8126.09  88.672
 38.3776  8098.43  88.7681
 38.4196  8023.21  88.2098
 38.4616  8240.72  89.6441
 38.5036  8197.55  89.2529
 38.5456  8038.2  89.2212
 38.5876  8047.92  89.3009
 38.6296  8041.28  88.2137
 38.6716  8116.32  88.4438
 38.7136  7994.79  87.7213
 38.7556  8058.01  88.5729
 38.7976  8177.54  89.143
 38.8396  8159.46  89.5186
 38.8816  7982.75  88.3402
 38.9236  8157.23  89.1009
 38.9656  8090.54  88.6363
 39.0076  8004.46  87.5767
 39.0496  8224.28  89.3255
 39.0916  8205.65  88.8652
 39.1336  8060.55  88.4862
 39.1756  8204.12  89.334
 39.2176  8169.8  89.694
 39.2596  8117.45  89.325
 39.3016  8005.43  88.2941
 39.3436  7920.74  88.2356
 39.3856  8126.1  88.7999
 39.4276  8232.74  89.9029
 39.4696  8047.83  88.511
 39.5116  8086.65  89.2378
 39.5536  8144.78  89.9941
 39.5956  8137.35  89.043
 39.6376  8103.68  88.6891
 39.6796  8031.87  88.2111
 39.7216  7966.23  87.9484
 39.7636  7883.81  88.0497
 39.8056  8000.08  88.4852
 39.8476  7937.32  88.392
 39.8896  7998.7  88.3604
 39.9316  8003.1  88.6285
 39.9736  8155.36  89.0452
 40.0156  8023.69  88.1486
 40.0576  8034.48  88.5615
 40.0996  8105.78  88.1334
 40.1416  8068.8  88.7326
 40.1836  8150.63  89.0655
 40.2256  8063.69  88.628
 40.2676  8033.38  88.5663
 40.3096  8040.63  88.5348
 40.3516  8058.11  88.8225
 40.3936  8269.01  89.444
 40.4356  7966.28  88.0009
 40.4776  8155.94  89.4433
 40.5196  8053.82  89.0168
 40.5616  8134.46  89.09
 40.6036  8062.77  88.9617
 40.6456  8060.49  88.556
 40.6876  8253.1  89.5997
 40.7296  8031.22  88.5199
 40.7716  8093.21  88.9789
 40.8136  8048.08  88.6835
 40.8556  8117.06  89.1852
 40.8976  8014.18  88.547
 40.9396  8019.72  88.9267
 40.9816  8134.76  88.844
 41.0236  8037.74  88.0969
 41.0656  8205.89  89.5574
 41.1076  8036.67  88.4047
 41.1496  8019.3  88.1988
 41.1916  8078.09  88.8532
 41.2336  8068.91  88.8012
 41.2756  8009.75  88.0793
 41.3176  8039.79  88.8491
 41.3596  8063.43  88.7192
 41.4016  8008.26  88.6797
 41.4436  8073.13  88.8165
 41.4856  8029.51  88.7517
 41.5276  8028.37  88.7576
 41.5696  8061.98  88.5496
 41.6116  8146.08  89.4239
 41.6536  8021.23  88.5838
 41.6956  8108.79  89.1296
 41.7376  7981.56  88.4595
 41.7796  7917.37  88.0338
 41.8216  8049.91  88.9553
 41.8636  7977.71  88.5074
 41.9056  7837.92  87.5176
 41.9476  7999.45  88.6496
 41.9896  8064.81  88.6709
 42.0316  8015.08  88.4865
 42.0736  8209.79  89.652
 42.1156  7960.86  88.1113
 42.1576  8055.34  88.7534
 42.1996  8116.21  89.2096
 42.2416  8051.1  88.4463
 42.2836  7924.28  87.8651
 42.3256  7937.4  88.0413
 42.3676  8066.38  88.5542
 42.4096  8166.99  89.0797
 42.4516  7991.33  88.1933
 42.4936  7997.99  88.3071
 42.5356  7867.11  87.7197
 42.5776  8047.28  88.6536
 42.6196  7979.01  88.2508
 42.6616  7683.17  86.8502
 42.7036  7960.03  87.7795
 42.7456  8138.63  89.1135
 42.7876  7940.46  88.1176
 42.8296  8024.48  88.4843
 42.8716  7869.85  87.7294
 42.9136  7894.79  87.6559
 42.9556  7994.66  88.3364
 42.9976  8026  88.4797
 43.0396  7969.75  87.9013
 43.0816  7864.89  87.7047
 43.1236  7892.32  87.9097
 43.1656  7890.66  87.7229
 43.2076  7898.07  87.8718
 43.2496  7829.45  87.311
 43.2916  7822.49  87.6284
 43.3336  7955.68  88.2054
 43.3756  7899.35  87.6494
 43.4176  7804.08  87.2065
 43.4596  7752.54  86.7718
 43.5016  7792.47  87.3905
 43.5436  7863.7  87.7027
 43.5856  7715.93  86.9027
 43.6276  7822.85  87.3873
 43.6696  7749.46  87.1273
 43.7116  7969.78  87.9631
 43.7536  7855.11  87.8205
 43.7956  7739.2  88.3903
 43.8376  7808.62  87.2978
 43.8796  7646.12  86.4652
 43.9216  7657.19  86.4347
 43.9636  7676.91  86.666
 44.0056  7691.19  86.971
 44.0476  7642.21  86.3294
 44.0896  7667.52  86.8175
 44.1316  7672.69  86.5146
 44.1736  7577.37  85.958
 44.2156  7618.29  86.0434
 44.2576  7619.88  86.3699
 44.2996  7681.85  86.6997
 44.3416  7720.6  86.6745
 44.3836  7616.1  86.4118
 44.4256  7594.37  85.9333
 44.4676  7488.59  85.4889
 44.5096  7641.89  86.5054
 44.5516  7542.81  85.9032
 44.5936  7517.24  85.7125
 44.6356  7714.97  86.5693
 44.6776  7586.15  86.1634
 44.7196  7690.53  87.0247
 44.7616  7647.05  88.151
 44.8036  7591.08  86.2435
 44.8456  7827.31  87.7835
 44.8876  7715.32  86.9943
 44.9296  8009.79  88.078
 44.9716  7769.12  87.157
 45.0136  7905.93  87.8753
 45.0556  7730.78  86.8721
 45.0976  7600.59  86.3
 45.1396  7735.22  86.8032
 45.1816  7711.99  86.4499
 45.2236  7819.91  87.1276
 45.2656  7617.86  86.4895
 45.3076  7840.13  87.5351
 45.3496  7671.53  86.8963
 45.3916  7555.72  86.5044
 45.4336  7662.28  86.9446
 45.4756  7565.98  86.2637
 45.5176  7662.97  86.4189
 45.5596  7774.4  87.168
 45.6016  7700.98  87.185
 45.6436  7694.72  86.3111
 45.6856  7662.44  86.8017
 45.7276  7575.97  88.1534
 45.7696  7607.01  87.4902
 45.8116  7661.9  87.2316
 45.8536  7506.47  86.2319
 45.8956  7648.32  86.3925
 45.9376  7646.01  85.8315
 45.9796  7619.59  86.3911
 46.0216  7642.59  86.8621
 46.0636  7823.91  86.9914
 46.1056  7601.72  85.7493
 46.1476  7678.14  86.7807
 46.1896  7728.04  87.2027
 46.2316  7641.39  86.5842
 46.2736  7437.9  85.7991
 46.3156  7743.95  87.1264
 46.3576  7604.58  86.5411
 46.3996  7600.58  86.6859
 46.4416  7666.62  86.6263
 46.4836  7587.29  86.5338
 46.5256  7526.58  86.1274
 46.5676  7495.99  86.0705
 46.6096  7531.95  86.1961
 46.6516  7660.85  85.9563
 46.6936  7535.21  85.7584
 46.7356  7752.41  87.0816
 46.7776  7515.4  86.6071
 46.8196  7546.29  86.3667
 46.8616  7438.75  85.702
 46.9036  7540.93  85.9399
 46.9456  7509.85  85.4031
 46.9876  7570.79  85.8254
 47.0296  7501.79  86.1373
 47.0716  7496.7  85.9269
 47.1136  7558.37  85.9406
 47.1556  7540.91  85.714
 47.1976  7589.72  86.0747
 47.2396  7430.36  85.5616
 47.2816  7449.2  85.3785
 47.3236  7485.88  85.9604
 47.3656  7506.46  86.0131
 47.4076  7438.45  85.4103
 47.4496  7438.92  85.5182
 47.4916  7551.94  86.3527
 47.5336  7666.82  86.8203
 47.5756  7485.19  85.8699
 47.6176  7482.29  85.7942
 47.6596  7485.65  85.5165
 47.7016  7639.98  86.1883
 47.7436  7567.95  86.1393
 47.7856  7562.8  86.135
 47.8276  7518.05  85.9277
 47.8696  7506.04  85.9466
 47.9116  7484.69  85.539
 47.9536  7508.19  85.6124
 47.9956  7550.37  86.5804
 48.0376  7455.31  85.8033
 48.0796  7595.03  86.7303
 48.1216  7423  85.5661
 48.1636  7601.58  86.1481
 48.2056  7538.84  86.0637
 48.2476  7601.75  86.7366
 48.2896  7593.3  86.5922
 48.3316  7482.07  85.8988
 48.3736  7439.15  85.6705
 48.4156  7498.15  85.8681
 48.4576  7411.73  85.6649
 48.4996  7530.29  85.794
 48.5416  7616.73  86.6196
 48.5836  7495.74  85.5937
 48.6256  7577.96  86.2691
 48.6676  7564.27  86.7317
 48.7096  7565.99  85.9933
 48.7516  7538.65  85.9889
 48.7936  7405.39  85.2863
 48.8356  7462.48  85.6638
 48.8776  7423.39  85.9319
 48.9196  7639.08  86.6054
 48.9616  7539.71  86.435
 49.0036  7539.44  86.7953
 49.0456  7427.9  86.1302
 49.0876  7453.36  85.914
 49.1296  7436.49  85.8724
 49.1716  7352.42  85.2574
 49.2136  7452.02  85.7606
 49.2556  7457.39  85.8116
 49.2976  7470.92  85.9625
 49.3396  7350.79  85.327
 49.3816  7575.91  86.0396
 49.4236  7466.51  85.8437
 49.4656  7342.23  85.1572
 49.5076  7412.56  85.3031
 49.5496  7381.63  85.0663
 49.5916  7414.95  85.2931
 49.6336  7496.33  85.9661
 49.6756  7446.71  85.9225
 49.7176  7322.18  85.1454
 49.7596  7517.23  86.2112
 49.8016  7378.57  85.1494
 49.8436  7373.99  85.4298
 49.8856  7318.06  85.1141
 49.9276  7364.58  85.4802
 49.9696  7315.4  85.1771
 50.0116  7304.81  85.2482
 50.0536  7365.27  85.5559
 50.0956  7391.9  85.7798
 50.1376  7375.44  85.3645
 50.1796  7278.51  85.0848
 50.2216  7330.2  85.3718
 50.2636  7281.08  84.7014
 50.3056  7337.66  85.2116
 50.3476  7368.99  85.4092
 50.3896  7326.11  85.1366
 50.4316  7443.26  85.6409
 50.4736  7395.67  85.5984
 50.5156  7302.66  85.0408
 50.5576  7441.59  85.6016
 50.5996  7303.19  85.0881
 50.6416  7268.69  84.8146
 50.6836  7339.6  85.2859
 50.7256  7443.77  85.8113
 50.7676  7515.2  86.5146
 50.8096  7331.27  85.0139
 50.8516  7222.18  84.7878
 50.8936  7224.18  84.5941
 50.9356  7337.43  85.3641
 50.9776  7253.94  85.0403
 51.0196  7045.12  83.9382
 51.0616  7230.49  84.3396
 51.1036  7298.45  85.104
 51.1456  7232.17  84.6293
 51.1876  7230.91  83.9415
 51.2296  7126.89  83.9776
 51.2716  7126.47  83.6808
 51.3136  7176.24  84.4399
 51.3556  7226.38  84.3436
 51.3976  7089.99  83.7004
 51.4396  6991.05  83.4348
 51.4816  7105.34  83.9653
 51.5236  7164.27  84.3998
 51.5656  6979.37  82.8949
 51.6076  7172.66  84.1212
 51.6496  7064.57  83.6781
 51.6916  7125.77  84.4088
 51.7336  7030.41  83.9336
 51.7756  7162.27  84.4035
 51.8176  7028.94  83.7142
 51.8596  7140.69  84.4058
 51.9016  7274.53  84.7815
 51.9436  7184.53  85.7864
 51.9856  7121.15  85.8225
 52.0276  7175.37  84.6047
 52.0696  7218.94  84.9234
 52.1116  7033.04  83.952
 52.1536  7178.23  84.6886
 52.1956  7154.64  84.0053
 52.2376  7237.75  84.6697
 52.2796  7326.13  84.9961
 52.3216  6991.18  83.7322
 52.3636  7087.89  83.857
 52.4056  7131.42  83.9842
 52.4476  7005.84  83.5871
 52.4896  7072.37  84.0594
 52.5316  7261.93  85.2272
 52.5736  7029.95  83.5602
 52.6156  7157.5  84.7296
 52.6576  7007.38  83.2611
 52.6996  6862.19  83.3954
 52.7416  6925.45  83.6258
 52.7836  7084.04  84.4667
 52.8256  7084.11  83.652
 52.8676  6952.53  83.4558
 52.9096  7090.17  84.3599
 52.9516  6979.41  84.0994
 52.9936  7076.64  85.0639
 53.0356  7210.82  84.821
 53.0776  7120.26  84.6006
 53.1196  6958.9  83.7388
 53.1616  7028.71  84.2031
 53.2036  7058.46  84.3446
 53.2456  6924.24  83.6479
 53.2876  7065.87  84.1793
 53.3296  7085.81  84.6318
 53.3716  7152.43  84.7729
 53.4136  7030.43  84.2016
 53.4556  7068.36  84.4623
 53.4976  6971.86  83.7046
 53.5396  6947.42  83.9783
 53.5816  7097.14  84.5032
 53.6236  6771.66  82.8961
 53.6656  7063.3  84.2599
 53.7076  7073.17  84.2557
 53.7496  7053.8  84.2875
 53.7916  7110.19  84.7633
 53.8336  7040.24  84.2356
 53.8756  6897.9  83.9441
 53.9176  6959.5  83.6416
 53.9596  6727.73  83.0223
 54.0016  6754.7  82.4858
 54.0436  6584.11  81.6759
 54.0856  6769.04  82.2255
 54.1276  6735.65  82.223
 54.1696  6694.74  82.1422
 54.2116  6851.42  82.8389
 54.2536  6775.87  82.1946
 54.2956  6802.49  82.403
 54.3376  6866.62  83.291
 54.3796  6755.29  82.5037
 54.4216  6805.29  82.8672
 54.4636  6662.61  81.9509
 54.5056  6772.27  82.4334
 54.5476  6786.65  82.8774
 54.5896  6787.07  82.7039
 54.6316  6772.74  82.4547
 54.6736  6654.92  81.7788
 54.7156  6734.12  82.3223
 54.7576  6676.53  81.9554
 54.7996  6609.72  81.7096
 54.8416  6730.7  82.5
 54.8836  6663.64  82.1819
 54.9256  6655.97  81.8945
 54.9676  6625.22  81.5649
 55.0096  6719.92  82.1942
 55.0516  6579.13  81.4957
 55.0936  6647.83  81.6359
 55.1356  6625.31  81.545
 55.1776  6756.2  82.5763
 55.2196  6697.81  82.0265
 55.2616  6717.36  82.3486
 55.3036  6550.52  81.5054
 55.3456  6463.47  81.1084
 55.3876  6633.76  81.9129
 55.4296  6496.23  81.0426
 55.4716  6625.88  81.8751
 55.5136  6575.52  81.3205
 55.5556  6772.85  82.5752
 55.5976  6531.22  81.1687
 55.6396  6664.68  81.9483
 55.6816  6635.58  81.6256
 55.7236  6610.96  81.6366
 55.7656  6545.54  80.8423
 55.8076  6504.99  80.6085
 55.8496  6504.5  80.9201
 55.8916  6511.42  81.1232
 55.9336  6557.41  81.2841
 55.9756  6564.68  81.1983
 56.0176  6512.53  81.0217
 56.0596  6493.93  80.9072
 56.1016  6348.95  80.0576
 56.1436  6426.65  80.7691
 56.1856  6289.3  79.6559
 56.2276  6545.84  81.2962
 56.2696  6489.46  80.938
 56.3116  6582.47  81.8791
 56.3536  6462.26  80.8014
 56.3956  6430.06  80.5882
 56.4376  6399.68  80.4558
 56.4796  6347.81  79.9329
 56.5216  6356.97  80.3489
 56.5636  6373.93  80.0465
 56.6056  6645.05  81.9673
 56.6476  6373.79  79.8885
 56.6896  6620.25  81.8774
 56.7316  6370.5  80.2229
 56.7736  6426.75  80.6038
 56.8156  6430.22  80.6301
 56.8576  6318.47  79.873
 56.8996  6437.42  80.5353
 56.9416  6273.67  79.6843
 56.9836  6489.65  80.6974
 57.0256  6416.6  80.5446
 57.0676  6464.62  80.9593
 57.1096  6425.66  80.4981
 57.1516  6250.38  79.4283
 57.1936  6315.46  79.6192
 57.2356  6255.16  79.5684
 57.2776  6403.4  80.4721
 57.3196  6438.98  81.0528
 57.3616  6344.58  79.9444
 57.4036  6371.96  80.1689
 57.4456  6493.78  80.9164
 57.4876  6399.6  80.1996
 57.5296  6277.46  79.6603
 57.5716  6294.2  79.8751
 57.6136  6271.98  79.5593
 57.6556  6334.38  80.0818
 57.6976  6301.44  79.6994
 57.7396  6238.36  79.6426
 57.7816  6146.77  79.4406
 57.8236  6317.48  80.3261
 57.8656  6299.09  79.8595
 57.9076  6302.32  79.9111
 57.9496  6269.04  80.03
 57.9916  6263.41  79.4773
 58.0336  6273.66  79.8643
 58.0756  6406.73  80.3407
 58.1176  6407.95  80.3485
 58.1596  6269.01  80.0633
 58.2016  6065.99  77.9982
 58.2436  6114.99  78.7035
 58.2856  6032.81  78.1011
 58.3276  6104.64  78.9375
 58.3696  6058.55  78.3897
 58.4116  6092.85  78.4776
 58.4536  6090.03  78.3448
 58.4956  6048.36  78.257
 58.5376  6131.96  78.3651
 58.5796  5932.71  77.5001
 58.6216  6141.11  78.6684
 58.6636  6078.62  78.4758
 58.7056  6083.06  78.3613
 58.7476  5911.1  77.6811
 58.7896  6038.25  78.1615
 58.8316  6129.02  78.7419
 58.8736  6043.53  78.2023
 58.9156  6044.1  78.2492
 58.9576  6031.5  78.3785
 58.9996  6115.11  78.2769
 59.0416  6099.87  78.5428
 59.0836  6082.93  78.3407
 59.1256  6044.84  78.5014
 59.1676  5974.04  78.6555
 59.2096  6147.05  79.082
 59.2516  6144.73  78.6446
 59.2936  5963.3  77.8008
 59.3356  6042.25  78.1919
 59.3776  5909.94  77.4982
 59.4196  5932.38  77.582
 59.4616  6091.2  78.4727
 59.5036  5761.59  76.3536
 59.5456  6118.77  78.3771
 59.5876  6010.55  77.8715
 59.6296  5887.11  77.1361
 59.6716  6019.66  78.0575
 59.7136  5977  77.7687
 59.7556  5910.88  77.4724
 59.7976  6005.52  77.833
 59.8396  5972.12  77.5111
 59.8816  5979.92  78.1041
 59.9236  6117.35  78.6382
 59.9656  5946.99  77.7943
 60.0076  5963.83  77.2656
 60.0496  5977.08  77.8524
 60.0916  6092.93  78.019
 60.1336  5870.31  77.6722
 60.1756  5827.11  78.5492
 60.1996  0.0000000E+00  0.0000000E+00