File: docs/examples/opeando_xrd/IS17_D/Data/IS17_D/17_Da_f00154.xye
# /beamlines/bl04/projects/cycle2025-II/20250340211-lsimonelli/DATA/IS17_D/17_Da_f00154.xye : mythproc.py merge -s 0.006 -l 0.5 -f /beamlines/bl04/inhouse/ff/FlatField/ff_20Nov2024rod8mm60s_17keV.raw -b True -c true -o xye /beamlines/bl04/projects/cycle2025-II/20250340211-lsimonelli/DATA/IS17_D/17_Da_00154.dat
# IsMon = [6746496, 6750373, 6747709]  IsPos = [-1.5000, -2.4883, -3.4989]
# Wave = 0.4962  CalPath /beamlines/bl04/projects/cycle2025-II/20250340211-lsimonelli/DATA/Align/Si_Pos1_25keV_f00001.cal
# Date = 2025-09-25_12:30:20 Dt = 4.8000  Bin = 0.0060  <imon> = 6748193 +/- 1619 (Min/Max) 6746496 / 6750373
# icurr 250.1029  mocoIn 1.7059E-05  mocoOut 0.7996  i15 7.07213e+06  imon 6.74819e+06  i7 4.6667  iEMpd_timer 4.8000  iEMpd_1 3.4535E-08  iEMpd_2 7.8455E-08  iEMpd_3 1.6046E-08  iEMpd_4 4.8657E-08  iEMhp_timer 4.8000  iEMhp_1 4.8849E-06  iEMhp_2 -2.5281E-08  iEMhp_3 -2.3972E-08  iEMhp_4 -2.0706E-08
#      9776
 1.5856  40075.4  205.588
 1.6276  47632.7  220.289
 1.6696  54003.4  233.732
 1.7116  62928.3  252.801
 1.7536  71335.3  268.011
 1.7956  76577.6  278.379
 1.8376  73073.7  272.366
 1.8796  61270  247.573
 1.9216  49927.3  224.369
 1.9636  42319.2  206.241
 2.0056  38081  194.391
 2.0476  34799.2  187.864
 2.0896  34015.1  184.646
 2.1316  32934.6  180.816
 2.1736  31046.2  176.948
 2.2156  31687.6  177.332
 2.2576  30374.5  174.238
 2.2996  29171.1  171.382
 2.3416  29721.2  171.61
 2.3836  28927.2  169.406
 2.4256  28100.4  167.512
 2.4676  27853.7  166.538
 2.5096  27419.7  165.29
 2.5516  26766.1  167.05
 2.5936  27026.5  164.489
 2.6356  26541.8  163.692
 2.6776  26578  162.69
 2.7196  26114.7  161.41
 2.7616  26115.4  161.563
 2.8036  25582.2  160.078
 2.8456  25709.2  161.094
 2.8876  25071.4  158.952
 2.9296  24622.5  157.654
 2.9716  24640.1  157.203
 3.0136  24221.5  155.927
 3.0556  24437.1  157.017
 3.0976  24277  155.444
 3.1396  23920.2  154.994
 3.1816  23872  154.501
 3.2236  23689.8  154.181
 3.2656  23775.6  153.5
 3.3076  23559  154.257
 3.3496  23833.6  154.085
 3.3916  23921.4  154.197
 3.4336  24570.9  156.859
 3.4756  24901.9  157.846
 3.5176  25652.4  159.991
 3.5596  25675.2  163.072
 3.6016  25776.5  160.44
 3.6436  24838.4  158.585
 3.6856  24587.6  156.084
 3.7276  23535.4  153.788
 3.7696  23439  153.476
 3.8116  22959.7  151.981
 3.8536  23106.6  152.404
 3.8956  23019.2  151.939
 3.9376  22950.1  151.962
 3.9796  22873.4  151.218
 4.0216  23062  150.87
 4.0636  22790.7  151.447
 4.1056  22899.5  151.444
 4.1476  23061  152.309
 4.1896  23217.7  152.678
 4.2316  23437.2  153.231
 4.2736  23949.5  154.678
 4.3156  24247  155.871
 4.3576  24944.3  158.025
 4.3996  25093.6  158.74
 4.4416  25740.1  160.363
 4.4836  26005  161.328
 4.5256  26492  163.459
 4.5676  26447.3  163.573
 4.6096  26887  163.944
 4.6516  27504.6  165.159
 4.6936  27657.2  166.436
 4.7356  27866.7  166.892
 4.7776  27715.3  166.265
 4.8196  27353.4  165.831
 4.8616  27015.3  164.276
 4.9036  26694.5  163.051
 4.9456  26542  163.231
 4.9876  26142.6  161.899
 5.0296  26519  162.888
 5.0716  26294.2  162.968
 5.1136  26347.7  162.842
 5.1556  26862.3  163.875
 5.1976  26969.9  164.208
 5.2396  27171  164.51
 5.2816  27238  165.183
 5.3236  27223.9  164.841
 5.3656  26861.4  164.662
 5.4076  26666.9  164.218
 5.4496  26875.7  164.338
 5.4916  27016.9  164.526
 5.5336  27005.2  164.574
 5.5756  26602.4  163.299
 5.6176  27099.6  164.249
 5.6596  27191  165.352
 5.7016  27436.3  165.508
 5.7436  27710.2  166.22
 5.7856  27410  165.762
 5.8276  27862.5  166.841
 5.8696  27990  167.291
 5.9116  27975.2  167.654
 5.9536  28080.3  168.031
 5.9956  28501.6  168.642
 6.0376  28479.4  169.221
 6.0796  28572.2  169.323
 6.1216  28685.2  169.915
 6.1636  28897.7  169.544
 6.2056  28871.4  170.135
 6.2476  28920.5  169.98
 6.2896  29187.5  170.622
 6.3316  29204.8  170.849
 6.3736  29145.8  170.57
 6.4156  29116.2  170.436
 6.4576  29640.3  171.508
 6.4996  29741.1  172.28
 6.5416  29594.2  171.992
 6.5836  29700.1  172.373
 6.6256  29528.1  171.596
 6.6676  30542.8  174.083
 6.7096  30013.1  173.424
 6.7516  30407.1  174.205
 6.7936  30576.1  174.117
 6.8356  30758  174.712
 6.8776  31164  176.667
 6.9196  31189.4  177.145
 6.9616  31543  177.58
 7.0036  32015.9  178.565
 7.0456  32003.7  177.822
 7.0876  31986.6  179.39
 7.1296  32057.8  178.805
 7.1716  31864.2  177.802
 7.2136  31686.1  177.084
 7.2556  31989.4  178.091
 7.2976  31821.8  178.124
 7.3396  31723.8  178.055
 7.3816  31693.9  178.192
 7.4236  32240.5  179.007
 7.4656  32243  178.495
 7.5076  32544.5  179.464
 7.5496  32647.2  180.295
 7.5916  32491.3  179.894
 7.6336  32797.5  180.711
 7.6756  33000.6  181.044
 7.7176  33274.6  182.097
 7.7596  32920.3  182.376
 7.8016  33622.6  186.502
 7.8436  33908.3  184.107
 7.8856  34527.2  185.232
 7.9276  35115.4  187.202
 7.9696  35375.8  188.204
 8.0116  35901.1  188.129
 8.0536  36427  189.763
 8.0956  36181.2  190.296
 8.1376  36630.2  190.946
 8.1796  36805  191.942
 8.2216  37779.5  192.924
 8.2636  37765.7  193.433
 8.3056  37705.1  194.042
 8.3476  38180  194.576
 8.3896  37994.2  194.181
 8.4316  38282  195.083
 8.4736  38506.2  195.116
 8.5156  38122.3  194.418
 8.5576  37704.4  194.96
 8.5996  37676.2  193.123
 8.6416  37666.3  194.359
 8.6836  37543.2  193.883
 8.7256  37922.1  194.286
 8.7676  37207.9  195.378
 8.8096  36940.3  191.984
 8.8516  37184.1  192.289
 8.8936  36541.9  190.474
 8.9356  36617.2  191.011
 8.9776  36685.8  191.284
 9.0196  36461.1  190.374
 9.0616  36691.5  190.517
 9.1036  36128.1  190.164
 9.1456  36440.1  190.326
 9.1876  36103.1  189.399
 9.2296  36616.6  190.138
 9.2716  35801.1  188.074
 9.3136  35741.1  187.901
 9.3556  36076  188.752
 9.3976  34780.5  185.872
 9.4396  35127.1  186.681
 9.4816  34637.2  185.24
 9.5236  34636.2  185.148
 9.5656  34359.3  184.729
 9.6076  34497.4  185.633
 9.6496  34204.7  184.769
 9.6916  34098.9  184.455
 9.7336  33907  183.713
 9.7756  33970.6  184.996
 9.8176  33188.4  182.482
 9.8596  33272.9  181.156
 9.9016  32950.7  180.272
 9.9436  33012.4  180.176
 9.9856  32190.1  178.304
 10.0276  31998.7  178.861
 10.0696  32234.6  178.589
 10.1116  31344.8  176.369
 10.1536  31093.9  175.341
 10.1956  31005.8  175.177
 10.2376  30379  172.908
 10.2796  30455.5  173.246
 10.3216  30607.2  173.797
 10.3636  30271.2  173.019
 10.4056  29931  172.435
 10.4476  29709.8  171.433
 10.4896  29896.4  171.557
 10.5316  29153.6  169.668
 10.5736  29268  170.73
 10.6156  28736.6  168.949
 10.6576  28900.5  167.984
 10.6996  28598.3  167.769
 10.7416  28211.1  166.866
 10.7836  28372.8  168.039
 10.8256  28124.4  167.744
 10.8676  28207.1  167.512
 10.9096  27803.3  166.361
 10.9516  27592.5  164.647
 10.9936  27549.9  164.721
 11.0356  27401.4  164.914
 11.0776  27253.1  163.779
 11.1196  26914.9  163.506
 11.1616  26927.4  163.227
 11.2036  26982.3  163.253
 11.2456  27003.8  164.026
 11.2876  26690.1  162.797
 11.3296  26577.1  162.348
 11.3716  27094.1  163.651
 11.4136  26944.3  164.072
 11.4556  27247.6  164.652
 11.4976  27307.7  163.788
 11.5396  27539.8  164.645
 11.5816  27488.5  164.961
 11.6236  27046.7  163.848
 11.6656  26586.5  161.612
 11.7076  25922.3  160.423
 11.7496  25629.5  162.641
 11.7916  25771.9  159.214
 11.8336  25482.9  159.208
 11.8756  25121.8  157.606
 11.9176  25319.2  157.869
 11.9596  24844  156.583
 12.0016  24940.1  157.393
 12.0436  24914.6  157.021
 12.0856  24579.1  156.486
 12.1276  24664.7  156.573
 12.1696  24452.3  155.133
 12.2116  24844.2  156.361
 12.2536  24196.3  155.118
 12.2956  24394.4  154.985
 12.3376  24214.4  154.748
 12.3796  24560.6  156.317
 12.4216  24403.8  155.029
 12.4636  24064.8  154.858
 12.5056  24457.6  155.46
 12.5476  24535.3  155.161
 12.5896  24336.7  155.161
 12.6316  23900.9  153.926
 12.6736  23947.6  154.739
 12.7156  23954.3  154.452
 12.7576  24279  155.734
 12.7996  24268.3  154.339
 12.8416  23998.9  154.531
 12.8836  24542.3  156.012
 12.9256  24758.4  155.792
 12.9676  24706.6  156.054
 13.0096  24558.9  156.694
 13.0516  24641.7  155.991
 13.0936  24766  156.507
 13.1356  25137.8  156.928
 13.1776  24755.1  156.727
 13.2196  24738.9  156.332
 13.2616  24867.3  157.045
 13.3036  24623.5  156.416
 13.3456  24933.5  157.765
 13.3876  24817.8  156.512
 13.4296  24650.6  156.131
 13.4716  24887.1  156.485
 13.5136  24876.3  156.604
 13.5556  25038.1  157.369
 13.5976  24785.1  157.08
 13.6396  25110.4  157.472
 13.6816  24439.5  155.723
 13.7236  25238.8  158.019
 13.7656  24562.3  156.421
 13.8076  24990.9  156.55
 13.8496  24626.7  156.192
 13.8916  24425.6  156.367
 13.9336  24565.3  156.038
 13.9756  24265.3  154.434
 14.0176  24121  154.551
 14.0596  24274  155.116
 14.1016  24008  154.658
 14.1436  23755.2  152.978
 14.1856  23458.7  152.313
 14.2276  23465.7  152.776
 14.2696  23662.5  153.302
 14.3116  23408  152.37
 14.3536  22868.5  150.786
 14.3956  22888.4  150.575
 14.4376  23071.6  150.955
 14.4796  22967  150.606
 14.5216  22441.7  149.675
 14.5636  22320.3  148.826
 14.6056  22575.7  149.259
 14.6476  22429.2  147.991
 14.6896  22107.3  147.476
 14.7316  21775  147.395
 14.7736  21617.3  145.995
 14.8156  21490.3  145.609
 14.8576  21589.1  145.789
 14.8996  20910.2  144.69
 14.9416  20711.6  144.003
 14.9836  20769.6  144.163
 15.0256  20332  141.552
 15.0676  20648  143.033
 15.1096  20547  142.357
 15.1516  20059.9  141.215
 15.1936  20021.7  140.51
 15.2356  19801.6  139.888
 15.2776  19822  140.101
 15.3196  19503.4  139.553
 15.3616  19305.6  138.602
 15.4036  19173  137.977
 15.4456  19328  138.183
 15.4876  19458.4  138.323
 15.5296  18879.1  136.532
 15.5716  18827.9  135.948
 15.6136  18726.6  135.905
 15.6556  18683.5  135.37
 15.6976  18560  134.834
 15.7396  18619.7  135.457
 15.7816  18330.1  133.903
 15.8236  18145.1  133.872
 15.8656  18182.2  133.85
 15.9076  17914.9  132.692
 15.9496  17668.3  134.574
 15.9916  17709  135.168
 16.0336  17539.1  131.406
 16.0756  17492.2  131.542
 16.1176  17682.9  132.169
 16.1596  17248.3  131.87
 16.2016  17350.5  131
 16.2436  16927.2  129.78
 16.2856  17083.5  129.921
 16.3276  16797.2  129.238
 16.3696  16837.3  129.211
 16.4116  16672.3  129.05
 16.4536  17053  130.289
 16.4956  16780.2  128.982
 16.5376  16768.2  129.116
 16.5796  16558.4  127.664
 16.6216  16882.9  129.226
 16.6636  16655.6  128.512
 16.7056  16475.7  127.67
 16.7476  16693.6  128.037
 16.7896  16618.2  128.513
 16.8316  16504.1  128.03
 16.8736  16286.1  127.44
 16.9156  16533.8  128.743
 16.9576  16435.1  129.154
 16.9996  16476.2  129.811
 17.0416  16667.2  128.879
 17.0836  16370  127.495
 17.1256  16181.5  126.769
 17.1676  16234.1  126.965
 17.2096  16081.2  126.243
 17.2516  15917.7  125.685
 17.2936  15793.9  125.212
 17.3356  15656.9  124.679
 17.3776  15644.1  124.815
 17.4196  15740.2  124.887
 17.4616  15679.1  124.57
 17.5036  15377.1  123.726
 17.5456  15223.2  123.749
 17.5876  15188.8  122.656
 17.6296  15451.6  123.52
 17.6716  15233.8  123.222
 17.7136  15085.1  122.777
 17.7556  14992.3  122.686
 17.7976  15046.8  122.647
 17.8396  14840.4  121.303
 17.8816  15056.6  122.727
 17.9236  14852.6  121.708
 17.9656  15038.1  123.007
 18.0076  15037.5  122.585
 18.0496  14921.6  121.242
 18.0916  14858.5  121.443
 18.1336  14919.6  121.873
 18.1756  15075  122.034
 18.2176  14702.3  120.744
 18.2596  14744.1  120.644
 18.3016  14937.4  121.683
 18.3436  14960.6  121.789
 18.3856  14784.5  121.403
 18.4276  14766.6  120.809
 18.4696  14718.6  120.706
 18.5116  14719  120.997
 18.5536  14686.2  121.221
 18.5956  14652.1  120.631
 18.6376  14559  120.652
 18.6796  14423.8  119.426
 18.7216  14543.7  120.397
 18.7636  14317.4  119.451
 18.8056  14376.4  119.638
 18.8476  14334.7  120.094
 18.8896  14423.6  119.796
 18.9316  14434.5  119.828
 18.9736  14261.4  118.8
 19.0156  14414.5  119.836
 19.0576  14234.9  117.961
 19.0996  14443.7  119.672
 19.1416  14268.1  119.204
 19.1836  14120.8  118.187
 19.2256  14113.6  118.462
 19.2676  14281.9  119.164
 19.3096  14400.5  119.909
 19.3516  14276.7  119.175
 19.3936  14214.8  118.989
 19.4356  14173.3  118.689
 19.4776  14186.5  118.843
 19.5196  14090.1  118.289
 19.5616  14103.2  118.592
 19.6036  14129.3  118.198
 19.6456  14084.3  118.132
 19.6876  14209.6  118.304
 19.7296  14155.3  118.536
 19.7716  14071.6  118.343
 19.8136  14203.1  119.114
 19.8556  14489  119.773
 19.8976  14407.2  119.503
 19.9396  14544.6  119.643
 19.9816  14649.6  120.387
 20.0236  14893.1  121.536
 20.0656  15038.4  122.121
 20.1076  14853.1  121.845
 20.1496  14595.9  120.79
 20.1916  14556.4  120.088
 20.2336  14211  118.63
 20.2756  14001.1  118.182
 20.3176  13711.7  116.703
 20.3596  13717.6  116.702
 20.4016  13741.4  116.607
 20.4436  13758.9  117.142
 20.4856  13562.9  116.205
 20.5276  13554.9  116.627
 20.5696  13557  116.19
 20.6116  13551.1  116.339
 20.6536  13718.6  116.522
 20.6956  13341.5  115.071
 20.7376  13429.6  115.682
 20.7796  13412.4  115.294
 20.8216  13462.5  115.21
 20.8636  13322.8  114.981
 20.9056  13330.7  114.97
 20.9476  13171.5  114.122
 20.9896  13555  115.638
 21.0316  13454.4  115.099
 21.0736  13228  114.649
 21.1156  13232.9  114.817
 21.1576  13264.4  115.018
 21.1996  13201.3  114.72
 21.2416  13069.5  113.983
 21.2836  13221.7  114.593
 21.3256  12992.3  113.739
 21.3676  13254.9  114.379
 21.4096  13177.5  114.408
 21.4516  13057.2  113.711
 21.4936  12896.9  113.255
 21.5356  13086.9  114.041
 21.5776  13110.5  113.976
 21.6196  13047.3  113.734
 21.6616  12892.2  113.144
 21.7036  12891.2  112.923
 21.7456  13076.1  113.803
 21.7876  12903.1  112.795
 21.8296  12781  112.119
 21.8716  12821.3  112.524
 21.9136  13146.3  114.148
 21.9556  12856.6  112.553
 21.9976  12845.9  112.525
 22.0396  12894.3  112.992
 22.0816  12943.5  113.756
 22.1236  12898  112.998
 22.1656  12837.7  113.209
 22.2076  12883.9  112.528
 22.2496  12850.4  112.409
 22.2916  12810.6  112.122
 22.3336  12951.4  113.46
 22.3756  12785.6  112.459
 22.4176  12743.4  112.128
 22.4596  12708.4  112.569
 22.5016  12734.8  112.172
 22.5436  13023  113.434
 22.5856  12773.8  112.474
 22.6276  12823.1  112.864
 22.6696  12699.9  112.635
 22.7116  12798.3  112.58
 22.7536  12955.1  113.246
 22.7956  12883.1  112.251
 22.8376  12663  111.82
 22.8796  12774.7  112.108
 22.9216  12872.5  113.093
 22.9636  12856.6  112.162
 23.0056  12873.3  112.371
 23.0476  12818.4  112.704
 23.0896  13114.6  113.368
 23.1316  12974.4  113.202
 23.1736  12641.6  114.5
 23.2156  12924.1  113.314
 23.2576  12810.3  112.953
 23.2996  12814.1  112.76
 23.3416  12693.3  112.744
 23.3836  12765.2  112.29
 23.4256  12765.7  112.411
 23.4676  12647.9  111.593
 23.5096  12583  111.98
 23.5516  12721.9  111.874
 23.5936  12692.4  112.653
 23.6356  12858.6  113.047
 23.6776  12734.6  112.722
 23.7196  12473.1  111.351
 23.7616  12939.8  113.108
 23.8036  12828.6  112.664
 23.8456  12671.9  111.387
 23.8876  12327.7  110.367
 23.9296  12472.8  111.51
 23.9716  12539.8  110.989
 24.0136  12602.6  112.178
 24.0556  12349.2  110.779
 24.0976  12341  110.552
 24.1396  12307.9  113.041
 24.1816  12391.4  111.847
 24.2236  12189.5  110.535
 24.2656  12023.1  109.254
 24.3076  12012.5  109.454
 24.3496  12233.8  110.344
 24.3916  12202.4  110.259
 24.4336  11949.5  109.316
 24.4756  12010.1  109.462
 24.5176  11961.1  108.886
 24.5596  11685.2  107.951
 24.6016  11705.5  108.13
 24.6436  11735.4  107.749
 24.6856  11644  107.101
 24.7276  11701  107.674
 24.7696  11782.9  108.167
 24.8116  11618.4  107.59
 24.8536  11398.7  106.563
 24.8956  11423.8  106.422
 24.9376  11405.5  106.521
 24.9796  11454.5  106.858
 25.0216  11345.8  106.456
 25.0636  11353.1  106.146
 25.1056  11313  106.666
 25.1476  11445.1  108.971
 25.1896  11424.2  107.33
 25.2316  11386  106.423
 25.2736  11340.5  105.857
 25.3156  11363.4  106.05
 25.3576  11326.8  106.297
 25.3996  11297  106.144
 25.4416  11278.8  106.039
 25.4836  11145.9  105.938
 25.5256  11289.9  105.974
 25.5676  11250.9  105.519
 25.6096  11005  104.933
 25.6516  11225.1  105.473
 25.6936  11142.2  105.399
 25.7356  11044.6  105.07
 25.7776  11282.2  105.876
 25.8196  11068.1  105.028
 25.8616  11117.6  105.183
 25.9036  11130.2  104.709
 25.9456  11067.2  105.004
 25.9876  11065.5  104.93
 26.0296  10995.3  104.24
 26.0716  10907.3  104.248
 26.1136  10936.4  104.331
 26.1556  11112.3  104.54
 26.1976  10923  104.573
 26.2396  11043.7  104.298
 26.2816  10878.8  104.121
 26.3236  11023.4  104.973
 26.3656  10943.1  104.315
 26.4076  11099.3  105.239
 26.4496  11439.8  106.35
 26.4916  11206.6  105.266
 26.5336  11001.1  104.707
 26.5756  11510  106.834
 26.6176  10867.4  103.873
 26.6596  10892.9  104.323
 26.7016  10883.8  104.037
 26.7436  10751.4  103.541
 26.7856  10630.5  102.94
 26.8276  10619.8  102.838
 26.8696  10744.7  103.319
 26.9116  10808.5  103.566
 26.9536  10791.5  103.53
 26.9956  10717.3  103.208
 27.0376  10634.7  103.022
 27.0796  10729.8  103.211
 27.1216  10566.5  102.504
 27.1636  10511.1  102.402
 27.2056  10512.3  102.286
 27.2476  10525.8  102.355
 27.2896  10484.8  102.295
 27.3316  10490  102.003
 27.3736  10502.4  102.329
 27.4156  10452.7  101.933
 27.4576  10413.6  101.97
 27.4996  10344.1  101.228
 27.5416  10458.1  102.099
 27.5836  10315.7  101.214
 27.6256  10642.6  102.976
 27.6676  10578.5  102.69
 27.7096  10451.3  101.938
 27.7516  10279  101.15
 27.7936  10238.1  101.214
 27.8356  10292.5  101.099
 27.8776  10218.6  100.778
 27.9196  10185.4  100.465
 27.9616  10334.6  101.396
 28.0036  10339.2  101.389
 28.0456  10244.4  101.052
 28.0876  10231.7  101.082
 28.1296  10176.9  100.583
 28.1716  10062  100.09
 28.2136  10056.1  100.026
 28.2556  10101.2  100.366
 28.2976  10128.4  100.489
 28.3396  10179.7  100.506
 28.3816  9979.34  99.5286
 28.4236  10063.7  100.102
 28.4656  9962.56  99.6319
 28.5076  9946.8  99.1907
 28.5496  10022.1  99.8304
 28.5916  10108.6  100.068
 28.6336  10068.3  100.213
 28.6756  10011.5  99.1277
 28.7176  9966.37  99.3443
 28.7596  9816.22  98.5971
 28.8016  9983.48  99.4681
 28.8436  9763.89  98.6087
 28.8856  9970.47  99.5433
 28.9276  9835.92  99.0716
 28.9696  9908.19  99.0891
 29.0116  9815.64  98.8071
 29.0536  9744.08  98.636
 29.0956  9736.65  98.3342
 29.1376  9815.69  98.6953
 29.1796  9758.75  98.4511
 29.2216  9776.9  98.3861
 29.2636  9848.85  98.8227
 29.3056  9830.47  98.5207
 29.3476  9746.95  98.6253
 29.3896  10005.5  100.009
 29.4316  9946.14  99.0529
 29.4736  9905.03  98.9151
 29.5156  9879.11  98.7011
 29.5576  9728.02  98.6846
 29.5996  9791  98.2592
 29.6416  9780.43  98.3215
 29.6836  9957.79  99.1382
 29.7256  9684.05  98.0948
 29.7676  9740.75  98.2841
 29.8096  9832.94  98.6841
 29.8516  9685.63  98.2837
 29.8936  9773.61  98.8187
 29.9356  9672.26  98.0605
 29.9776  9556.26  97.6241
 30.0196  9541.36  97.2062
 30.0616  9619.63  97.709
 30.1036  9730.44  98.088
 30.1456  9529.61  97.3127
 30.1876  9555.96  97.4147
 30.2296  9734.09  98.276
 30.2716  9722.57  97.8488
 30.3136  9733.02  98.77
 30.3556  9736.33  98.8007
 30.3976  9485.14  99.0399
 30.4396  9747.87  97.7123
 30.4816  9721.16  97.1753
 30.5236  9506.49  96.1221
 30.5656  9624.91  97.371
 30.6076  9631.47  97.1788
 30.6496  9662.99  97.3707
 30.6916  9413.62  96.2052
 30.7336  9437.69  96.4803
 30.7756  9507.47  96.9254
 30.8176  9593.82  97.2815
 30.8596  9514.79  96.6485
 30.9016  9574.21  96.8198
 30.9436  9579.25  97.0717
 30.9856  9555.65  97.0596
 31.0276  9297.38  95.3211
 31.0696  9304.34  95.9584
 31.1116  9475.32  96.814
 31.1536  9482.5  96.733
 31.1956  9418.84  96.4958
 31.2376  9263.96  95.7092
 31.2796  9345.99  95.6657
 31.3216  9507.32  96.4338
 31.3636  9512.94  97.1498
 31.4056  9446.09  98.1393
 31.4476  9244.4  94.977
 31.4896  9380.71  96.1761
 31.5316  9415.03  95.7489
 31.5736  9474.33  95.8739
 31.6156  9234.88  94.6703
 31.6576  9537.44  96.3103
 31.6996  9408.36  95.3184
 31.7416  9270.81  95.5544
 31.7836  9446.83  95.5947
 31.8256  9244.79  94.8453
 31.8676  9442.69  95.8416
 31.9096  9265.26  95.1557
 31.9516  9023.3  94.2061
 31.9936  9150.4  94.6894
 32.0356  9275.84  95.4062
 32.0776  9160.57  94.6961
 32.1196  9181.6  94.8055
 32.1616  9352.91  95.2305
 32.2036  9194.59  94.9358
 32.2456  9101.89  94.8323
 32.2876  9197.45  94.8252
 32.3296  8985.33  93.6896
 32.3716  9151.37  94.6547
 32.4136  9164.42  94.9431
 32.4556  9256.84  94.7875
 32.4976  9217.61  94.5465
 32.5396  9217.89  94.5666
 32.5816  9062.44  93.8902
 32.6236  9175.4  94.5479
 32.6656  9263.45  95.5407
 32.7076  9064.36  94.1658
 32.7496  9191.81  94.4836
 32.7916  9066.8  93.8069
 32.8336  9106.75  94.1023
 32.8756  9174.29  94.1806
 32.9176  8919.88  93.344
 32.9596  8990.82  93.7874
 33.0016  9055.69  93.916
 33.0436  9273.49  94.9372
 33.0856  8923.55  93.4707
 33.1276  8957.29  93.3813
 33.1696  9236.28  94.6625
 33.2116  9111.67  94.2469
 33.2536  9025.99  93.8114
 33.2956  9093.63  94.2454
 33.3376  8909.2  93.1038
 33.3796  9022.61  93.8223
 33.4216  9062.9  93.6281
 33.4636  9134.7  94.1433
 33.5056  8780.14  92.5338
 33.5476  8912.91  93.2306
 33.5896  9022.88  93.57
 33.6316  8912.91  93.3256
 33.6736  8688.68  92.3747
 33.7156  8903.22  93.2798
 33.7576  8837.74  92.8442
 33.7996  8944.77  93.1637
 33.8416  8666.89  91.8885
 33.8836  8918.12  93.1255
 33.9256  8912.6  93.0201
 33.9676  9023.29  93.4814
 34.0096  8771.34  92.4956
 34.0516  8803.33  92.2972
 34.0936  8823.15  92.5777
 34.1356  8897.99  92.7991
 34.1776  8804.73  92.3226
 34.2196  8787.27  92.412
 34.2616  8704.09  92.1037
 34.3036  8702.2  92.3506
 34.3456  8730.96  92.2556
 34.3876  8813.57  92.745
 34.4296  8755.5  92.0302
 34.4716  8845.45  92.6163
 34.5136  8826.29  92.7647
 34.5556  8697.28  92.3387
 34.5976  8687.94  92.1245
 34.6396  8629.7  91.6168
 34.6816  8710.25  92.0329
 34.7236  8649.88  91.4996
 34.7656  8764.28  92.2941
 34.8076  8580.25  91.6372
 34.8496  8616.64  91.7667
 34.8916  8624.06  91.6103
 34.9336  8785.15  92.4245
 34.9756  8643.81  91.6256
 35.0176  8683.9  92.3392
 35.0596  8602.37  91.7387
 35.1016  8571.74  91.3384
 35.1436  8669.99  91.5441
 35.1856  8523.98  90.8987
 35.2276  8674.24  91.8718
 35.2696  8565.13  91.4842
 35.3116  8665.57  92.1042
 35.3536  8529.72  91.1334
 35.3956  8478.24  90.5319
 35.4376  8483.66  91.118
 35.4796  8623.94  91.929
 35.5216  8468.84  91.0555
 35.5636  8431.16  91.5984
 35.6056  8526.54  91.1272
 35.6476  8555.14  91.1773
 35.6896  8620.15  91.6042
 35.7316  8442.78  90.6383
 35.7736  8525  91.276
 35.8156  8391.1  90.55
 35.8576  8447.43  91.1083
 35.8996  8570.41  91.7414
 35.9416  8402.03  90.3371
 35.9836  8480.3  91.201
 36.0256  8565.27  91.5814
 36.0676  8473.61  90.8465
 36.1096  8456.77  90.8942
 36.1516  8459.83  90.7977
 36.1936  8454.82  90.6193
 36.2356  8438.09  91.1787
 36.2776  8480.75  90.875
 36.3196  8525.69  90.7864
 36.3616  8391.73  90.1539
 36.4036  8490.22  90.7872
 36.4456  8417.28  90.6089
 36.4876  8340.36  90.1323
 36.5296  8351.1  90.2358
 36.5716  8426.19  91.1859
 36.6136  8493.12  90.5412
 36.6556  8467.35  90.6129
 36.6976  8372.52  90.6032
 36.7396  8221.44  89.6854
 36.7816  8430.22  91.018
 36.8236  8342.55  90.4667
 36.8656  8251.45  90.0493
 36.9076  8280.07  90.0751
 36.9496  8293.21  90.1404
 36.9916  8274.44  89.6658
 37.0336  8395.84  90.6382
 37.0756  8365.35  90.263
 37.1176  8264.95  89.9914
 37.1596  8307.13  90.2252
 37.2016  8331.32  90.5827
 37.2436  8293.5  89.6938
 37.2856  8158.88  89.2141
 37.3276  8311.38  89.5691
 37.3696  8276.91  90.0947
 37.4116  8295.46  90.106
 37.4536  8213.45  89.3727
 37.4956  8087.13  89.0837
 37.5376  8208.06  91.1076
 37.5796  8199.57  91.0061
 37.6216  8079.14  88.6133
 37.6636  8191.47  89.1311
 37.7056  8277.88  89.7921
 37.7476  8214.95  88.9865
 37.7896  8182.78  89.3114
 37.8316  7944.68  88.1755
 37.8736  8212.57  89.1736
 37.9156  7937.98  87.6699
 37.9576  8135.8  88.6486
 37.9996  7972.38  87.4677
 38.0416  8087.3  88.9116
 38.0836  8049.86  88.6085
 38.1256  8060.83  88.6232
 38.1676  7851.16  87.6013
 38.2096  8114.23  88.6834
 38.2516  8160.44  89.1394
 38.2936  8152.38  88.8953
 38.3356  8236.98  89.2702
 38.3776  7934.27  87.8856
 38.4196  8118.74  88.7533
 38.4616  8109.56  88.941
 38.5036  8237.42  89.4844
 38.5456  8013.39  89.0873
 38.5876  7986.36  89.1381
 38.6296  7906.56  87.4916
 38.6716  8027.16  87.9551
 38.7136  7909.94  87.2543
 38.7556  7987.48  88.1854
 38.7976  8077.54  88.6194
 38.8396  7918.27  87.9924
 38.8816  7901.54  87.8702
 38.9236  7971.32  88.0787
 38.9656  8035.41  88.3455
 39.0076  8029.05  87.7151
 39.0496  8005.38  88.1302
 39.0916  8094.78  88.2602
 39.1336  7880.94  87.5003
 39.1756  7899.12  87.6675
 39.2176  7947.56  88.4663
 39.2596  7885.21  88.039
 39.3016  7880.81  87.5257
 39.3436  7845.14  87.8172
 39.3856  7987.31  88.056
 39.4276  8078.22  89.0614
 39.4696  7923.65  87.8246
 39.5116  7805.78  87.6846
 39.5536  8165.01  90.1084
 39.5956  7996.36  88.2663
 39.6376  8048.43  88.565
 39.6796  7930.92  87.651
 39.7216  8094.73  88.6523
 39.7636  7952.32  88.441
 39.8056  8079.37  88.9183
 39.8476  7974.92  88.6027
 39.8896  7927.56  87.9658
 39.9316  7839.4  87.7324
 39.9736  8075.89  88.6903
 40.0156  8073.39  88.4157
 40.0576  7943.57  88.0585
 40.0996  8126.78  88.2454
 40.1416  7966.71  88.165
 40.1836  8021.53  88.361
 40.2256  8015.33  88.369
 40.2676  7967.62  88.2819
 40.3096  8108.49  88.9101
 40.3516  8127.2  89.1235
 40.3936  8270.65  89.4621
 40.4356  8011.93  88.2433
 40.4776  8065.49  88.7916
 40.5196  8156.82  89.5004
 40.5616  8026.84  88.5104
 40.6036  8138.81  89.381
 40.6456  8085.24  88.6924
 40.6876  8141.75  88.9836
 40.7296  8007.17  88.2738
 40.7716  8063.05  88.8299
 40.8136  8056.85  88.7316
 40.8556  8014.7  88.638
 40.8976  8059.34  88.8045
 40.9396  7966.12  88.6413
 40.9816  8087.7  88.5913
 41.0236  8143.64  88.6765
 41.0656  8102.4  88.9932
 41.1076  8099.05  88.744
 41.1496  8147.84  88.922
 41.1916  7978.42  88.313
 41.2336  7969.3  88.2495
 41.2756  7958.43  87.7991
 41.3176  7976.16  88.5148
 41.3596  7971.37  88.2145
 41.4016  8055.98  88.9465
 41.4436  8001.46  88.4277
 41.4856  8114.53  89.2145
 41.5276  7895.31  88.0197
 41.5696  7985.95  88.1536
 41.6116  8013.82  88.709
 41.6536  7936.18  88.1351
 41.6956  8116.84  89.1123
 41.7376  7953.69  88.3149
 41.7796  7981.17  88.3547
 41.8216  8077.95  89.1212
 41.8636  7942.57  88.3084
 41.9056  7931.32  88.0387
 41.9476  7879.22  87.8658
 41.9896  8026.4  88.4668
 42.0316  7903.66  87.8637
 42.0736  7937.49  88.1948
 42.1156  7888.79  87.7287
 42.1576  7924.34  88.0044
 42.1996  7953.72  88.3356
 42.2416  7929.57  87.6856
 42.2836  7978.77  88.1618
 42.3256  7903.75  87.8669
 42.3676  7952.45  87.943
 42.4096  7835.63  87.2526
 42.4516  7933.93  87.9504
 42.4936  7836.96  87.4168
 42.5356  7885.76  87.8204
 42.5776  7909.36  87.8823
 42.6196  7919.93  88.0021
 42.6616  7805.86  87.538
 42.7036  7876.73  87.3196
 42.7456  7919.84  87.918
 42.7876  7815.99  87.4377
 42.8296  7886.53  87.6676
 42.8716  7848.64  87.6151
 42.9136  7828.26  87.249
 42.9556  7816.85  87.3619
 42.9976  7909.98  87.8375
 43.0396  7978.4  87.9459
 43.0816  7728.72  86.9256
 43.1236  7750.16  87.118
 43.1656  7785.16  87.1426
 43.2076  7749.22  87.0478
 43.2496  7810.81  87.205
 43.2916  7746.11  87.2076
 43.3336  7840.36  87.5747
 43.3756  7769.4  86.9309
 43.4176  7791.9  87.1391
 43.4596  7707.83  86.522
 43.5016  7761.6  87.2314
 43.5436  7799.99  87.3471
 43.5856  7729.76  86.9791
 43.6276  7729.23  86.8688
 43.6696  7728.07  87.0729
 43.7116  7830.9  87.1949
 43.7536  7815.82  87.6008
 43.7956  7611.29  87.6285
 43.8376  7744.36  86.9263
 43.8796  7714.1  86.84
 43.9216  7750.81  86.9667
 43.9636  7701.47  86.7998
 44.0056  7743.61  87.2593
 44.0476  7600.25  86.2035
 44.0896  7682.32  86.8941
 44.1316  7666.78  86.3268
 44.1736  7542.17  85.7489
 44.2156  7656.3  86.2358
 44.2576  7636.58  86.4611
 44.2996  7729.58  86.9526
 44.3416  7671.38  86.3904
 44.3836  7630.96  86.4914
 44.4256  7496.16  85.3726
 44.4676  7507.27  85.5887
 44.5096  7550.63  85.9797
 44.5516  7470.87  85.4872
 44.5936  7501.88  85.6192
 44.6356  7601.38  85.9216
 44.6776  7626.67  86.3026
 44.7196  7546.77  86.2435
 44.7616  7535.63  87.4947
 44.8036  7517.85  86.0367
 44.8456  7497.23  85.9176
 44.8876  7461.42  85.664
 44.9296  7678.19  86.2398
 44.9716  7513.31  85.7428
 45.0136  7537.97  85.822
 45.0556  7559.83  86.0279
 45.0976  7530.86  85.9131
 45.1396  7322.69  84.4801
 45.1816  7478.98  85.3128
 45.2236  7550.59  85.6205
 45.2656  7466.12  85.6385
 45.3076  7274.47  84.3201
 45.3496  7367.14  85.1663
 45.3916  7297.66  85.0243
 45.4336  7396.75  85.444
 45.4756  7408.08  85.3712
 45.5176  7473.22  85.3555
 45.5596  7519.65  85.7458
 45.6016  7252.45  84.6173
 45.6436  7357.44  84.4114
 45.6856  7299.71  84.7361
 45.7276  7240.85  85.6921
 45.7696  7416.57  86.3855
 45.8116  7437.68  85.9407
 45.8536  7347.89  85.3228
 45.8956  7473.39  85.3973
 45.9376  7492.55  84.9704
 45.9796  7396.92  85.1069
 46.0216  7510.51  86.1072
 46.0636  7373.52  84.4634
 46.1056  7446.39  84.8672
 46.1476  7307.16  84.6581
 46.1896  7422.29  85.472
 46.2316  7344.97  84.8931
 46.2736  7326.31  85.0028
 46.3156  7339.16  84.8172
 46.3576  7342.84  85.0411
 46.3996  7507.76  86.1536
 46.4416  7346.16  84.7687
 46.4836  7222.61  84.4353
 46.5256  7240.95  84.4763
 46.5676  7356.36  85.2646
 46.6096  7267.28  84.6842
 46.6516  7370.55  84.3211
 46.6936  7429.45  85.155
 46.7356  7411.17  85.1582
 46.7776  7296.68  85.4032
 46.8196  7202.63  84.5289
 46.8616  7150.19  84.025
 46.9036  7035.49  83.0028
 46.9456  7091.9  82.9908
 46.9876  7232.43  83.8915
 47.0296  7265.48  84.6818
 47.0716  7128.23  83.7876
 47.1136  7223.03  84.0189
 47.1556  7276.72  84.2033
 47.1976  7205.14  83.9299
 47.2396  7193.98  84.1921
 47.2816  7079.4  83.2275
 47.3236  7099.67  83.7091
 47.3656  7163.1  84.0173
 47.4076  7281.98  84.4407
 47.4496  7091.24  83.4859
 47.4916  7131.62  83.9256
 47.5336  7225.95  84.2908
 47.5756  7208.11  84.2992
 47.6176  7082.06  83.4652
 47.6596  7070.16  83.1044
 47.7016  7221.52  83.8061
 47.7436  7163.76  83.8083
 47.7856  7114.39  83.5388
 47.8276  7019.42  83.0418
 47.8696  7053.23  83.319
 47.9116  7152.02  83.6172
 47.9536  7059.61  83.0145
 47.9956  6975.38  83.218
 48.0376  7080  83.6115
 48.0796  7134.18  84.0615
 48.1216  7195.98  84.2349
 48.1636  7253.36  84.1533
 48.2056  7168.8  83.9254
 48.2476  7124.24  83.9596
 48.2896  7084.68  83.6439
 48.3316  7006.39  83.1293
 48.3736  6960.33  82.8713
 48.4156  6918.5  82.5874
 48.4576  7002.99  83.2741
 48.4996  7042.46  82.9653
 48.5416  7060.46  83.4
 48.5836  6996.85  82.6989
 48.6256  7050.89  83.2302
 48.6676  7019.9  83.5492
 48.7096  6996.85  82.6945
 48.7516  7034.64  83.056
 48.7936  6907.54  82.4639
 48.8356  7009.49  83.0243
 48.8776  6910.57  82.9962
 48.9196  7102.31  83.5149
 48.9616  6966.01  83.0853
 49.0036  6983.17  83.5346
 49.0456  6910.11  83.0797
 49.0876  7042  83.4003
 49.1296  6813.78  82.1996
 49.1716  6790.42  82.1526
 49.2136  7004.33  83.1213
 49.2556  6905.42  82.6868
 49.2976  6943.32  82.8722
 49.3396  6931.34  82.8604
 49.3816  6943.71  82.5218
 49.4236  6944.32  82.7994
 49.4656  6915.2  82.5998
 49.5076  6977.79  82.762
 49.5496  6806.36  81.7961
 49.5916  7023.65  83.0125
 49.6336  6887.16  82.4039
 49.6756  6900.03  82.7108
 49.7176  6842.01  82.3041
 49.7596  6881.67  82.3194
 49.8016  6974.88  82.7922
 49.8436  6756.66  81.7762
 49.8856  6851.07  82.3535
 49.9276  6842.07  82.3905
 49.9696  6795.36  82.1002
 50.0116  6890.89  82.7999
 50.0536  6834.6  82.4115
 50.0956  6682.31  81.5587
 50.1376  6891.46  82.5273
 50.1796  6799.39  82.2387
 50.2216  6817.79  82.3493
 50.2636  6753.95  81.582
 50.3056  6807.4  82.0741
 50.3476  6731.12  81.6364
 50.3896  6742.31  81.6751
 50.4316  6786.21  81.7759
 50.4736  6726.08  81.6301
 50.5156  6865.27  82.4663
 50.5576  6839.33  82.0681
 50.5996  6781.62  82.1171
 50.6416  6731.45  81.6259
 50.6836  6761.59  81.861
 50.7256  6829.31  82.1985
 50.7676  6792.65  82.2849
 50.8096  6827.84  82.0515
 50.8516  6712.17  81.7618
 50.8936  6674.74  81.3203
 50.9356  6827  82.3456
 50.9776  6788.22  82.2607
 51.0196  6477.84  80.4814
 51.0616  6554.52  80.2912
 51.1036  6672.22  81.3653
 51.1456  6709.43  81.5025
 51.1876  6786.15  81.3129
 51.2296  6611.57  80.998
 51.2716  6633.92  80.7319
 51.3136  6545.83  80.6424
 51.3556  6652.25  80.9232
 51.3976  6665.33  81.1531
 51.4396  6581.68  80.9347
 51.4816  6599.54  80.9074
 51.5236  6631.63  81.2107
 51.5656  6550.47  80.3018
 51.6076  6793.52  81.856
 51.6496  6647.66  81.1682
 51.6916  6659.16  81.5863
 51.7336  6641.91  81.5764
 51.7756  6696.5  81.6059
 51.8176  6518.81  80.6204
 51.8596  6575.23  80.9875
 51.9016  6801.4  81.9733
 51.9436  6497.69  81.5665
 51.9856  6582.74  82.5212
 52.0276  6443.75  80.1907
 52.0696  6659.19  81.5854
 52.1116  6602.38  81.3509
 52.1536  6572.77  81.0061
 52.1956  6678.12  81.1674
 52.2376  6623.64  81.0096
 52.2796  6479.83  79.9354
 52.3216  6392.1  80.0752
 52.3636  6543.71  80.5981
 52.4056  6483.34  80.0836
 52.4476  6500.25  80.5533
 52.4896  6435.19  80.1989
 52.5316  6452.37  80.3518
 52.5736  6511.59  80.4468
 52.6156  6491.18  80.6923
 52.6576  6464.3  79.9812
 52.6996  6336.96  80.149
 52.7416  6520.09  81.2165
 52.7836  6462.39  80.6717
 52.8256  6687.94  81.2775
 52.8676  6399.21  80.0807
 52.9096  6546.34  81.0769
 52.9516  6441.29  80.7933
 52.9936  6384.02  80.8138
 53.0356  6396  79.8992
 53.0776  6349.82  79.8697
 53.1196  6411.61  80.3798
 53.1616  6259.66  79.4703
 53.2036  6348.07  79.9842
 53.2456  6319.35  79.9024
 53.2876  6316  79.592
 53.3296  6264.14  79.585
 53.3716  6328.06  79.7435
 53.4136  6383.64  80.2346
 53.4556  6292.56  79.6915
 53.4976  6243.91  79.2342
 53.5396  6282.38  79.861
 53.5816  6307.81  79.6644
 53.6236  6194  79.2088
 53.6656  6354.87  79.9344
 53.7076  6377.31  80.0346
 53.7496  6343.83  79.9426
 53.7916  6303.1  79.8031
 53.8336  6363.76  80.0966
 53.8756  6205.85  79.6324
 53.9176  6373.53  80.0508
 53.9596  6381.7  80.875
 54.0016  6281  79.5652
 54.0436  6288.27  79.831
 54.0856  6336.27  79.5624
 54.1276  6329.09  79.7047
 54.1696  6254.47  79.4122
 54.2116  6295.23  79.4325
 54.2536  6275.33  79.1169
 54.2956  6360.07  79.6409
 54.3376  6307.25  79.852
 54.3796  6350.67  80.0223
 54.4216  6401.34  80.2148
 54.4636  6354.23  80.1041
 54.5056  6318.25  79.6474
 54.5476  6243.94  79.5097
 54.5896  6400.1  80.3239
 54.6316  6330.87  79.751
 54.6736  6359.25  80.0061
 54.7156  6303.7  79.6739
 54.7576  6249.7  79.327
 54.7996  6271.7  79.6201
 54.8416  6323.56  79.8878
 54.8836  6264.16  79.7162
 54.9256  6260.31  79.4476
 54.9676  6292.64  79.5099
 55.0096  6176.53  78.8368
 55.0516  6304.54  79.8839
 55.0936  6245.26  79.1398
 55.1356  6182.01  78.7808
 55.1776  6172.04  78.9851
 55.2196  6327.76  79.8112
 55.2616  6194.24  79.1231
 55.3036  6253.98  79.6614
 55.3456  6238.95  79.7139
 55.3876  6262.78  79.6061
 55.4296  6266.62  79.6483
 55.4716  6252.72  79.5557
 55.5136  6245.35  79.2638
 55.5556  6247.98  79.3556
 55.5976  6267.5  79.5359
 55.6396  6170.33  78.7863
 55.6816  6164.17  78.7064
 55.7236  6323.67  79.7577
 55.7656  6250.5  79.054
 55.8076  6376.61  79.8295
 55.8496  6143.88  78.7908
 55.8916  6205.66  79.2714
 55.9336  6207.69  79.1027
 55.9756  6094.15  78.27
 56.0176  6248.73  79.4087
 56.0596  6241.83  79.3458
 56.1016  6294.35  79.6935
 56.1436  6148.42  79.025
 56.1856  6209.58  79.1606
 56.2276  6153.39  78.8595
 56.2696  6262.13  79.5488
 56.3116  6130.21  79.0788
 56.3536  6198.59  79.1786
 56.3956  6302.82  79.8306
 56.4376  6135.24  78.793
 56.4796  6207.49  79.0608
 56.5216  6193.29  79.3419
 56.5636  6329.09  79.7941
 56.6056  6141.91  78.8384
 56.6476  6155.42  78.5545
 56.6896  6216.57  79.3903
 56.7316  6150.47  78.8788
 56.7736  6260.8  79.5546
 56.8156  6188.29  79.1138
 56.8576  6150.03  78.8078
 56.8996  6240.76  79.3301
 56.9416  6146.61  79.0243
 56.9836  6054.49  77.9462
 57.0256  6144.91  78.8499
 57.0676  6169.98  79.1335
 57.1096  6136.99  78.7142
 57.1516  6183.65  79.075
 57.1936  6184.96  78.831
 57.2356  6203.68  79.2679
 57.2776  6138.85  78.8134
 57.3196  6197.91  79.342
 57.3616  6195.16  79.0357
 57.4036  6152.97  78.8268
 57.4456  6126.87  78.6237
 57.4876  6170.1  78.7583
 57.5296  6072.58  78.4772
 57.5716  6129.08  78.8278
 57.6136  6092.5  78.407
 57.6556  6105.65  78.6263
 57.6976  6202.14  78.9836
 57.7396  6066.99  78.5834
 57.7816  6063.98  78.9203
 57.8236  6119.52  79.1189
 57.8656  6149.91  78.9283
 57.9076  6132.83  78.8481
 57.9496  6048.58  78.6513
 57.9916  6110.79  78.5678
 58.0336  6030.02  78.3238
 58.0756  6141.04  78.6455
 58.1176  6207.81  79.0986
 58.1596  6041.89  78.5959
 58.2016  6189.47  78.768
 58.2436  6168.12  79.0435
 58.2856  6136.44  78.7644
 58.3276  6134.58  79.122
 58.3696  6074.26  78.4802
 58.4116  6067.54  78.3065
 58.4536  6164.23  78.8075
 58.4956  6220.5  79.3548
 58.5376  6214.48  79.0014
 58.5796  6108.32  78.6327
 58.6216  6283.35  79.5595
 58.6636  6189.73  79.186
 58.7056  6069.29  78.2652
 58.7476  6209.02  79.6115
 58.7896  6079.28  78.4184
 58.8316  6113.99  78.7455
 58.8736  6103.81  78.5832
 58.9156  6103.67  78.6192
 58.9576  6168.19  79.3677
 58.9996  6197.5  78.7861
 59.0416  6193.13  79.1232
 59.0836  6152.91  78.7936
 59.1256  6046.45  78.805
 59.1676  6109.76  79.5294
 59.2096  6203.53  79.4475
 59.2516  6270.38  79.4475
 59.2936  6204.14  79.3593
 59.3356  6270.02  79.6549
 59.3776  6029.45  78.2808
 59.4196  6105.07  78.7052
 59.4616  6216.29  79.2774
 59.5036  6123.59  78.7193
 59.5456  6239.76  79.1511
 59.5876  6231.05  79.29
 59.6296  6115.13  78.6186
 59.6716  6196.97  79.2016
 59.7136  6283.82  79.7428
 59.7556  6138.83  78.955
 59.7976  6117  78.555
 59.8396  6249.91  79.2963
 59.8816  6240.78  79.7929
 59.9236  6144.52  78.8155
 59.9656  6102.28  78.8046
 60.0076  6098.14  78.1337
 60.0496  6113.22  78.2552
 60.0916  6289.58  79.2711
 60.1336  6016.71  78.6377
 60.1756  6169.45  80.8266
 60.1996  6200.31  83.2946