File: docs/examples/opeando_xrd/IS17_D/Data/IS17_D/17_Db_f00048.xye
# /beamlines/bl04/projects/cycle2025-II/20250340211-lsimonelli/DATA/IS17_D/17_Db_f00048.xye : mythproc.py merge -s 0.006 -l 0.5 -f /beamlines/bl04/inhouse/ff/FlatField/ff_20Nov2024rod8mm60s_17keV.raw -b True -c true -o xye /beamlines/bl04/projects/cycle2025-II/20250340211-lsimonelli/DATA/IS17_D/17_Db_00048.dat
# IsMon = [6770036, 6768014, 6773688]  IsPos = [-1.4999, -2.4884, -3.4986]
# Wave = 0.4962  CalPath /beamlines/bl04/projects/cycle2025-II/20250340211-lsimonelli/DATA/Align/Si_Pos1_25keV_f00001.cal
# Date = 2025-09-24_07:04:35 Dt = 4.8000  Bin = 0.0060  <imon> = 6770579 +/- 2348 (Min/Max) 6768014 / 6773688
# icurr 251.4453  mocoIn 1.7154E-05  mocoOut 0.8058  i15 7.09344e+06  imon 6.77058e+06  i7 4.3333  iEMpd_timer 4.8000  iEMpd_1 3.5440E-08  iEMpd_2 7.8560E-08  iEMpd_3 1.8383E-08  iEMpd_4 4.8619E-08  iEMhp_timer 4.8000  iEMhp_1 4.9140E-06  iEMhp_2 -2.5330E-08  iEMhp_3 -2.2586E-08  iEMhp_4 -2.0255E-08
#      9776
 1.5856  45493.8  219.027
 1.6276  52171.7  230.527
 1.6696  57451.2  241.057
 1.7116  64940.7  256.789
 1.7536  72823.2  270.769
 1.7956  77435.9  279.909
 1.8376  73588.3  273.3
 1.8796  63956.9  252.918
 1.9216  53262.1  231.721
 1.9636  45800.1  213.997
 2.0056  41424.3  202.728
 2.0476  38760.3  198.251
 2.0896  37917.5  194.934
 2.1316  36939.5  191.478
 2.1736  34941.9  187.706
 2.2156  35972.2  188.925
 2.2576  34591.4  185.925
 2.2996  33207.7  182.84
 2.3416  33780.3  182.935
 2.3836  32871.8  180.572
 2.4256  31719.9  177.958
 2.4676  31300.7  176.528
 2.5096  31591.5  177.404
 2.5516  29888  176.529
 2.5936  30260.1  174.068
 2.6356  29510.3  172.62
 2.6776  29326.5  170.942
 2.7196  28967.7  170.392
 2.7616  28497.1  168.793
 2.8036  28240.7  168.201
 2.8456  28332.4  169.136
 2.8876  27513.8  166.539
 2.9296  27252.2  165.865
 2.9716  27227.3  165.27
 3.0136  26587.9  163.384
 3.0556  26777.7  164.369
 3.0976  26735.4  163.098
 3.1396  26371.3  162.745
 3.1816  26166.6  162.053
 3.2236  26024.4  161.602
 3.2656  25779.3  159.867
 3.3076  25519.2  160.551
 3.3496  25621.6  159.781
 3.3916  26063  160.971
 3.4336  26419.9  162.669
 3.4756  26711  163.492
 3.5176  27552.5  165.81
 3.5596  27172.2  167.157
 3.6016  27306.3  165.128
 3.6436  26306.9  163.218
 3.6856  25910  160.241
 3.7276  25001.5  158.514
 3.7696  24775.8  157.978
 3.8116  24356.4  156.533
 3.8536  24546  157.064
 3.8956  24301.8  156.1
 3.9376  24004.9  155.442
 3.9796  24237.6  155.652
 4.0216  24195.5  154.543
 4.0636  24048.3  155.559
 4.1056  24247.2  155.851
 4.1476  24432.6  156.751
 4.1896  24462.4  156.703
 4.2316  24678.2  157.211
 4.2736  25185.5  158.624
 4.3156  25107  158.6
 4.3576  26066.3  161.519
 4.3996  26106.5  161.712
 4.4416  26584.4  162.97
 4.4836  27173.9  164.939
 4.5256  27649.5  166.986
 4.5676  27334.3  166.286
 4.6096  28108.1  167.256
 4.6516  28563.3  168.3
 4.6936  28386  168.607
 4.7356  28556.2  168.936
 4.7776  28595.7  168.884
 4.8196  28466.1  169.157
 4.8616  27657.1  166.233
 4.9036  27769.8  166.29
 4.9456  27365.4  165.741
 4.9876  26832.2  164.007
 5.0296  26997.4  164.355
 5.0716  26746.4  164.343
 5.1136  26994.8  164.827
 5.1556  27212.5  164.941
 5.1976  27952  167.161
 5.2396  27815.8  166.444
 5.2816  27970.7  167.382
 5.3236  27719.1  166.325
 5.3656  27279.2  165.939
 5.4076  27010.8  165.261
 5.4496  27029.6  164.811
 5.4916  27459.6  165.867
 5.5336  27195.8  165.077
 5.5756  27271.8  165.315
 5.6176  27289  164.812
 5.6596  27572.7  166.654
 5.7016  27538.5  165.812
 5.7436  27719  166.635
 5.7856  27528.8  166.129
 5.8276  27572.2  165.972
 5.8696  28127.3  167.811
 5.9116  27728.6  167.184
 5.9536  28289.9  168.644
 5.9956  28574.5  168.871
 6.0376  28392.3  168.955
 6.0796  28964.5  170.477
 6.1216  28715.5  169.946
 6.1636  29040.3  169.951
 6.2056  28815.8  169.976
 6.2476  29304.3  171.276
 6.2896  29352.5  171.096
 6.3316  29328.7  171.204
 6.3736  29606.9  171.901
 6.4156  29613.9  171.807
 6.4576  29522  171.161
 6.4996  29723.2  172.226
 6.5416  29858.6  172.745
 6.5836  29811.8  172.851
 6.6256  30150.8  173.388
 6.6676  30696.5  174.509
 6.7096  30457.5  174.696
 6.7516  30785.2  175.287
 6.7936  31248.4  175.736
 6.8356  31270.6  176.158
 6.8776  31153.2  176.631
 6.9196  31312.6  177.485
 6.9616  31734.3  178.125
 7.0036  32276.2  179.282
 7.0456  32341.5  178.755
 7.0876  32020.4  179.563
 7.1296  32404.7  179.75
 7.1716  32245.5  178.844
 7.2136  31991.6  177.923
 7.2556  32308.7  178.961
 7.2976  32168.2  179.073
 7.3396  32002.3  178.838
 7.3816  32199.2  179.6
 7.4236  32277.3  179.105
 7.4656  32820.1  180.065
 7.5076  32957.4  180.585
 7.5496  32295.5  179.29
 7.5916  32681.9  180.423
 7.6336  33203.6  181.737
 7.6756  33464.2  182.303
 7.7176  33616.3  183.045
 7.7596  33599.8  184.229
 7.8016  34094.1  187.84
 7.8436  33638.9  183.225
 7.8856  33833.2  183.357
 7.9276  34414  185.315
 7.9696  34735.1  186.494
 8.0116  35940.2  188.597
 8.0536  35665.4  187.772
 8.0956  35702.8  189.062
 8.1376  36181.8  189.784
 8.1796  36472.5  191.098
 8.2216  37182.6  191.674
 8.2636  37407.5  192.502
 8.3056  37248.7  192.853
 8.3476  37708.7  193.369
 8.3896  37455.6  193.237
 8.4316  37787.8  193.828
 8.4736  37930.3  193.661
 8.5156  37371.1  192.503
 8.5576  37043.6  192.636
 8.5996  37072.9  191.579
 8.6416  37291.9  193.422
 8.6836  36847.1  192.068
 8.7256  37497.4  193.23
 8.7676  37310.8  195.663
 8.8096  37549.1  193.556
 8.8516  37423.3  192.786
 8.8936  36980.6  191.608
 8.9356  37368.8  192.947
 8.9776  37217.7  192.638
 9.0196  37038.1  191.849
 9.0616  37023  191.298
 9.1036  36357.1  190.744
 9.1456  36290.3  189.874
 9.1876  36564.2  190.553
 9.2296  36103.8  188.781
 9.2716  35890.2  188.266
 9.3136  36066.5  188.721
 9.3556  36291.5  189.282
 9.3976  35299.1  187.194
 9.4396  35340.4  187.218
 9.4816  35200.1  186.707
 9.5236  34932.8  185.89
 9.5656  34672.7  185.55
 9.6076  33624.2  183.242
 9.6496  34110.6  184.456
 9.6916  33947.4  183.959
 9.7336  34162.6  184.331
 9.7756  33919.1  184.954
 9.8176  33645.6  183.749
 9.8596  33669.5  182.241
 9.9016  33174.2  180.881
 9.9436  32728.9  179.582
 9.9856  32845.8  180.174
 10.0276  32099.1  179.186
 10.0696  32540.9  179.45
 10.1116  31359  176.421
 10.1536  31289.1  176.383
 10.1956  31131.6  175.547
 10.2376  30914.5  174.439
 10.2796  30679.6  173.89
 10.3216  30351.8  173.248
 10.3636  30106.8  172.577
 10.4056  29429.3  171.027
 10.4476  29558.8  171.007
 10.4896  29814.7  171.193
 10.5316  28873.3  169.193
 10.5736  28993.9  169.958
 10.6156  28783  169.086
 10.6576  28813.1  167.746
 10.6996  28278.8  166.882
 10.7416  27978  166.208
 10.7836  27563  165.624
 10.8256  27316.9  165.295
 10.8676  27503.2  165.413
 10.9096  27304  164.833
 10.9516  26946.6  162.693
 10.9936  26952.8  162.927
 11.0356  26762.6  162.953
 11.0776  26468.5  161.396
 11.1196  26000.9  160.727
 11.1616  26100.7  160.712
 11.2036  26137.5  160.668
 11.2456  25800.3  160.342
 11.2876  26239.5  161.412
 11.3296  25427.7  158.814
 11.3716  25906.5  159.984
 11.4136  25731.8  160.328
 11.4556  25525.3  159.339
 11.4976  26157.4  160.303
 11.5396  26202.3  160.619
 11.5816  26904.8  163.191
 11.6236  27328.4  164.724
 11.6656  27516.5  164.404
 11.7076  26074.9  160.886
 11.7496  25882.3  164.348
 11.7916  25575.6  158.587
 11.8336  25200.6  158.307
 11.8756  24968.4  157.132
 11.9176  24900.8  156.835
 11.9596  25056.1  157.256
 12.0016  24693.7  156.882
 12.0436  24895.8  156.967
 12.0856  24316.1  155.629
 12.1276  24379.2  155.786
 12.1696  24364.9  154.853
 12.2116  24468.7  155.183
 12.2536  24468.2  156.011
 12.2956  24025.4  153.923
 12.3376  24473.3  155.57
 12.3796  24264.8  155.381
 12.4216  24090.9  154.024
 12.4636  24049.3  154.828
 12.5056  24142.8  154.393
 12.5476  24395.9  154.71
 12.5896  23951.9  153.938
 12.6316  24228.2  154.977
 12.6736  24064.2  154.79
 12.7156  24209.6  155.245
 12.7576  24096.7  155.14
 12.7996  24280.4  154.361
 12.8416  23881.3  154.141
 12.8836  24507  155.967
 12.9256  24572  155.214
 12.9676  24377.1  154.995
 13.0096  24700.6  157.153
 13.0516  24721.5  156.231
 13.0936  24952.5  157.38
 13.1356  24974.1  156.404
 13.1776  24727.5  156.652
 13.2196  25025  157.223
 13.2616  24700.2  156.522
 13.3036  24988.1  157.396
 13.3456  24853.5  157.321
 13.3876  25210.4  157.713
 13.4296  24761.8  156.471
 13.4716  25034.5  156.95
 13.5136  24798  156.343
 13.5556  24648.3  156.502
 13.5976  24920.1  157.529
 13.6396  24809.8  156.535
 13.6816  24748.3  156.813
 13.7236  25095.6  157.494
 13.7656  26649.7  162.757
 13.8076  27303.5  163.36
 13.8496  27135.1  163.552
 13.8916  25183.3  158.712
 13.9336  24342.4  155.314
 13.9756  24641.7  155.632
 14.0176  23939.6  154.078
 14.0596  24337.1  155.284
 14.1016  23929.8  154.409
 14.1436  24057.2  153.936
 14.1856  23564.3  152.648
 14.2276  23461.9  152.801
 14.2696  23478.1  152.706
 14.3116  22903.5  150.734
 14.3536  22902.8  150.892
 14.3956  22751.7  150.13
 14.4376  22848.4  150.222
 14.4796  22745  149.882
 14.5216  22465.8  149.756
 14.5636  22267.7  148.654
 14.6056  22694  149.623
 14.6476  22420.5  147.965
 14.6896  21983.1  147.056
 14.7316  21655.3  147.002
 14.7736  21477.2  145.537
 14.8156  21562.7  145.85
 14.8576  21300.3  144.811
 14.8996  20798.4  144.288
 14.9416  20533  143.369
 14.9836  20510.8  143.282
 15.0256  20084.1  140.698
 15.0676  19895.6  140.348
 15.1096  19909.1  140.135
 15.1516  19468.3  139.141
 15.1936  19489.3  138.634
 15.2356  19269.4  138.127
 15.2776  19188.2  137.426
 15.3196  18676.1  136.567
 15.3616  18791.4  136.736
 15.4036  18731.9  136.387
 15.4456  18858.9  136.264
 15.4876  18607.9  135.274
 15.5296  18307.4  134.469
 15.5716  18353.2  134.232
 15.6136  18209.9  134.044
 15.6556  18335.9  133.736
 15.6976  18033.2  132.928
 15.7396  17842.1  132.592
 15.7816  17663.2  131.448
 15.8236  17533.1  131.645
 15.8656  17432.9  131.073
 15.9076  17660.4  131.748
 15.9496  18196.9  136.571
 15.9916  17818.8  135.555
 16.0336  17942.1  132.865
 16.0756  17881.1  132.955
 16.1176  17522.7  131.699
 16.1596  16888.9  130.461
 16.2016  17212  130.456
 16.2436  17218.1  130.86
 16.2856  16987.3  129.484
 16.3276  16612.8  128.499
 16.3696  16990.5  129.771
 16.4116  16882.8  129.807
 16.4536  16868.6  129.554
 16.4956  16757.9  128.875
 16.5376  16627.4  128.561
 16.5796  16614  127.87
 16.6216  16694.3  128.455
 16.6636  16412.2  127.538
 16.7056  16553.7  127.949
 16.7476  16378  126.943
 16.7896  16560.7  128.253
 16.8316  16460.3  127.85
 16.8736  16652.3  128.851
 16.9156  16479.4  128.507
 16.9576  16383.4  128.944
 16.9996  16204  128.71
 17.0416  16498.9  128.26
 17.0836  16573.9  128.306
 17.1256  16439.9  127.791
 17.1676  16561.7  128.233
 17.2096  16291.2  127.067
 17.2516  16355.6  127.108
 17.2936  16284.4  127.176
 17.3356  15947.5  125.847
 17.3776  15906.7  125.876
 17.4196  15789.8  125.11
 17.4616  15847.2  125.23
 17.5036  15436.1  123.979
 17.5456  15459.6  124.7
 17.5876  15225  122.806
 17.6296  15302.6  122.953
 17.6716  15351  123.725
 17.7136  15201.1  123.245
 17.7556  15032.5  122.865
 17.7976  14938.8  122.207
 17.8396  14833.7  121.281
 17.8816  14725.6  121.404
 17.9236  15024.7  122.406
 17.9656  14603  121.205
 18.0076  14621.1  120.853
 18.0496  14757.6  120.558
 18.0916  14494  120.021
 18.1336  14470.5  120.02
 18.1756  14610.8  120.155
 18.2176  14285.1  119.02
 18.2596  14224.7  118.502
 18.3016  14468.1  119.77
 18.3436  14468.7  119.776
 18.3856  14287.7  119.148
 18.4276  14170.9  118.355
 18.4696  14220.2  118.634
 18.5116  14271.8  119.13
 18.5536  14126.4  118.877
 18.5956  14008.9  117.954
 18.6376  14047  118.525
 18.6796  14078.6  117.963
 18.7216  14180.1  118.882
 18.7636  14135.1  118.693
 18.8056  14057.5  118.292
 18.8476  13854  117.753
 18.8896  13958.3  117.842
 18.9316  14076.4  118.302
 18.9736  13922.5  117.371
 19.0156  13879.2  117.584
 19.0576  14077.8  117.293
 19.0996  14024.1  117.778
 19.1416  13955.1  117.88
 19.1836  13994.7  117.655
 19.2256  13817.7  117.125
 19.2676  13902.1  117.569
 19.3096  13782.3  117.309
 19.3516  13890.1  117.723
 19.3936  13761  117.132
 19.4356  13993.6  117.939
 19.4776  13837.4  117.367
 19.5196  13893.9  117.461
 19.5616  13758  117.144
 19.6036  13834.9  116.83
 19.6456  13808.7  116.973
 19.6876  13662.4  115.987
 19.7296  13980  117.797
 19.7716  13709.3  116.822
 19.8136  14085.4  118.61
 19.8556  14133.1  118.288
 19.8976  13959.4  117.615
 19.9396  13964.7  117.234
 19.9816  14150.9  118.262
 20.0236  14351.7  119.296
 20.0656  14391.1  119.458
 20.1076  14755.5  121.443
 20.1496  14826.8  121.725
 20.1916  15155.9  122.573
 20.2336  14994.3  121.821
 20.2756  14548.4  120.454
 20.3176  14238.1  118.91
 20.3596  14028.6  118.022
 20.4016  13904.7  117.296
 20.4436  13751.7  117.211
 20.4856  13720.8  116.873
 20.5276  13638.1  116.987
 20.5696  13733.9  116.827
 20.6116  13597.6  116.533
 20.6536  13451.7  115.428
 20.6956  13485.3  115.694
 20.7376  13311.4  115.155
 20.7796  13384.6  115.166
 20.8216  13341  114.687
 20.8636  13323  114.989
 20.9056  13165.2  114.247
 20.9476  13327.4  114.79
 20.9896  13387.6  114.914
 21.0316  13214.9  114.064
 21.0736  13221.2  114.621
 21.1156  13124.9  114.361
 21.1576  13182.9  114.653
 21.1996  13021  113.933
 21.2416  13140.2  114.275
 21.2836  13114  114.141
 21.3256  13115.5  114.223
 21.3676  13158.8  113.932
 21.4096  12969.2  113.439
 21.4516  12919.7  113.096
 21.4936  12736.1  112.545
 21.5356  12881.6  113.136
 21.5776  12977.2  113.39
 21.6196  12703  112.235
 21.6616  12810.5  112.783
 21.7036  12944.4  113.137
 21.7456  12884  112.957
 21.7876  12816.5  112.421
 21.8296  12782.2  112.117
 21.8716  12866.8  112.719
 21.9136  12911  113.113
 21.9556  12742.8  112.049
 21.9976  12680.2  111.803
 22.0396  12745.9  112.346
 22.0816  12719.1  112.751
 22.1236  12829.1  112.695
 22.1656  12750.3  112.488
 22.2076  12586.5  111.227
 22.2496  12551  111.107
 22.2916  12531.8  110.898
 22.3336  12389.6  110.992
 22.3756  12421.3  110.849
 22.4176  12374.9  110.489
 22.4596  12348.5  110.958
 22.5016  12407.4  110.732
 22.5436  12419.9  110.659
 22.5856  12658.3  111.971
 22.6276  12705.9  112.321
 22.6696  12588.4  112.154
 22.7116  12495.5  111.256
 22.7536  12333  110.499
 22.7956  12461.1  110.409
 22.8376  12258.3  110.012
 22.8796  12384.1  110.384
 22.9216  12353.1  110.779
 22.9636  12450.8  110.377
 23.0056  12449.1  110.507
 23.0476  12400.3  110.859
 23.0896  12574.4  111.013
 23.1316  12539.9  111.295
 23.1736  12556.5  114.316
 23.2156  12964.5  113.413
 23.2576  12922.2  113.438
 23.2996  12757  112.467
 23.3416  12976  113.983
 23.3836  12872.3  112.719
 23.4256  13048.6  113.633
 23.4676  12766.2  112.093
 23.5096  12895.4  113.326
 23.5516  12791  112.161
 23.5936  12660  112.497
 23.6356  12986.4  113.595
 23.6776  12717  112.945
 23.7196  12536.7  111.396
 23.7616  12588  111.538
 23.8036  12823.5  112.639
 23.8456  12625.9  111.311
 23.8876  12606.2  111.596
 23.9296  12549.7  111.827
 23.9716  12407  110.396
 24.0136  12598.2  112.154
 24.0556  12428  111.105
 24.0976  12289.3  110.303
 24.1396  12185.6  112.482
 24.1816  12467.6  112.162
 24.2236  12462.6  111.763
 24.2656  12308.6  110.549
 24.3076  12229  110.462
 24.3496  12259.7  110.483
 24.3916  12194.8  110.236
 24.4336  12189.1  110.412
 24.4756  12076.9  109.789
 24.5176  11973.4  108.952
 24.5596  11995.9  109.177
 24.6016  11855  108.829
 24.6436  12008.1  109.024
 24.6856  11831  107.971
 24.7276  11750.8  107.925
 24.7696  11793.5  108.221
 24.8116  11564.1  107.351
 24.8536  11679.6  107.886
 24.8956  11688.3  107.651
 24.9376  11510.8  106.769
 24.9796  11504.6  107.098
 25.0216  11435.7  106.889
 25.0636  11728  107.893
 25.1056  11348.1  106.841
 25.1476  11322.8  108.346
 25.1896  11334  106.907
 25.2316  11217.8  105.516
 25.2736  11251.8  105.441
 25.3156  11276.4  105.627
 25.3576  11347.9  106.401
 25.3996  11235.6  105.858
 25.4416  11192.5  105.629
 25.4836  10993.7  105.204
 25.5256  11117.1  105.162
 25.5676  11097.7  104.797
 25.6096  10954.3  104.689
 25.6516  11010.7  104.468
 25.6936  11018.7  104.816
 25.7356  11012.1  104.918
 25.7776  11139.5  105.116
 25.8196  10853.3  104
 25.8616  10842.6  103.874
 25.9036  10936.6  103.792
 25.9456  10872.6  104.086
 25.9876  10954.8  104.533
 26.0296  10909.5  103.84
 26.0716  10866  104.053
 26.1136  10969.1  104.478
 26.1556  11045.8  104.137
 26.1976  10822.6  104.091
 26.2396  10765.9  102.969
 26.2816  10911.1  104.277
 26.3236  10814.7  103.893
 26.3656  11007.3  104.618
 26.4076  10828  103.972
 26.4496  11040.7  104.572
 26.4916  11147.6  104.974
 26.5336  11603.4  107.446
 26.5756  11610.6  107.358
 26.6176  11004.9  104.544
 26.6596  11005.3  104.852
 26.7016  10819.4  103.767
 26.7436  10986  104.655
 26.7856  10828.2  103.887
 26.8276  10689.9  103.188
 26.8696  10656.6  102.894
 26.9116  10705.9  103.063
 26.9536  10538.1  102.306
 26.9956  10509.3  102.2
 27.0376  10636.6  103.044
 27.0796  10551.9  102.338
 27.1216  10554.1  102.417
 27.1636  10405.3  101.875
 27.2056  10481.9  102.135
 27.2476  10509.7  102.241
 27.2896  10427.9  101.908
 27.3316  10465.1  101.872
 27.3736  10244.5  101.063
 27.4156  10470  102.001
 27.4576  10366.4  101.725
 27.4996  10313.6  101.067
 27.5416  10287.2  101.247
 27.5836  10335.6  101.322
 27.6256  10284.5  101.25
 27.6676  10257.8  101.111
 27.7096  10264.7  101.023
 27.7516  10239.4  101.048
 27.7936  10480.3  102.378
 27.8356  10328.7  101.25
 27.8776  10515.3  102.219
 27.9196  10213.1  100.598
 27.9616  10258.1  101.024
 28.0036  10097.4  100.192
 28.0456  10091.1  100.293
 28.0876  10078.2  100.318
 28.1296  10009.8  99.814
 28.1716  10167.1  100.611
 28.2136  10111  100.302
 28.2556  10100.9  100.359
 28.2976  9981.89  99.7646
 28.3396  9977.92  99.4959
 28.3816  10081.9  100.026
 28.4236  9886.65  99.2094
 28.4656  9856.47  99.0969
 28.5076  9776.31  98.3402
 28.5496  9928.45  99.3555
 28.5916  9975.5  99.3947
 28.6336  10009.1  99.9134
 28.6756  10037.5  99.2434
 28.7176  9945.06  99.3475
 28.7596  9788.52  98.4448
 28.8016  9888.57  99.0734
 28.8436  9596.44  97.7583
 28.8856  9920.68  99.2464
 28.9276  9807.43  98.9268
 28.9696  9800.79  98.5429
 29.0116  9621.66  97.8045
 29.0536  9660.86  98.2343
 29.0956  9860.31  98.9403
 29.1376  9747.26  98.3449
 29.1796  9665.79  97.9822
 29.2216  9795.96  98.4774
 29.2636  9812.58  98.6405
 29.3056  9780.52  98.2497
 29.3476  9620.9  97.9818
 29.3896  9694.96  98.4595
 29.4316  9561.68  97.1197
 29.4736  9398.32  96.3442
 29.5156  9487.46  96.7328
 29.5576  9582.67  97.957
 29.5996  9433.94  96.456
 29.6416  9376.84  96.2832
 29.6836  9575.23  97.2224
 29.7256  9384.64  96.8076
 29.7676  9432.03  96.7076
 29.8096  9506.18  97.0386
 29.8516  9149.63  95.5185
 29.8936  9283.49  96.3152
 29.9356  9410.11  96.7236
 29.9776  9319.57  96.4101
 30.0196  9418.91  96.3178
 30.0616  9483.97  97.0218
 30.1036  9454.36  96.6995
 30.1456  9241.87  95.853
 30.1876  9411.98  96.6971
 30.2296  9300.26  96.0566
 30.2716  9362.71  96.0251
 30.3136  9262.76  96.0915
 30.3556  9619.07  98.1877
 30.3976  9399.89  98.5588
 30.4396  9824.97  98.0758
 30.4816  9623.34  96.6719
 30.5236  9593.46  96.525
 30.5656  9308.45  95.7275
 30.6076  9631.39  96.7668
 30.6496  9561.44  96.8409
 30.6916  9277.58  95.4802
 30.7336  9431.38  96.4109
 30.7756  9309.02  96.0915
 30.8176  9478.6  96.6586
 30.8596  9582.16  96.9481
 30.9016  9505.11  96.9005
 30.9436  9468.38  96.4514
 30.9856  9693.72  97.7223
 31.0276  9512.23  96.4297
 31.0696  9613.55  97.3906
 31.1116  9543.23  97.1288
 31.1536  9361.88  96.0603
 31.1956  9406.2  96.3939
 31.2376  9138.82  95.0307
 31.2796  9395.56  95.9002
 31.3216  9460.62  96.1529
 31.3636  9492.27  97.0395
 31.4056  9448.25  98.1223
 31.4476  9458.9  96.0805
 31.4896  9309.59  95.826
 31.5316  9314.34  95.2542
 31.5736  9542.66  96.2422
 31.6156  9386.91  95.4576
 31.6576  9359.44  95.381
 31.6996  9474.17  95.6515
 31.7416  9421.56  96.4768
 31.7836  9494.38  95.8349
 31.8256  9308.68  95.1713
 31.8676  9483.51  96.032
 31.9096  9312.73  95.5441
 31.9516  9060.76  94.4142
 31.9936  9216.45  95.0456
 32.0356  9299.82  95.5093
 32.0776  9427.19  96.0684
 32.1196  9429.34  96.185
 32.1616  9342.03  95.1798
 32.2036  9251.04  95.2252
 32.2456  9230.5  95.5078
 32.2876  9297.42  95.3444
 32.3296  9183.08  94.726
 32.3716  9006.28  93.9151
 32.4136  9105.8  94.625
 32.4556  9220.81  94.6107
 32.4976  9028.94  93.5208
 32.5396  9169.95  94.3189
 32.5816  9088.74  93.9204
 32.6236  9142.19  94.3662
 32.6656  9246.2  95.4459
 32.7076  9010.53  93.8853
 32.7496  8999.94  93.5056
 32.7916  9029.47  93.6118
 32.8336  8955.45  93.3251
 32.8756  9200.77  94.3969
 32.9176  8959.18  93.5506
 32.9596  8948.49  93.5575
 33.0016  8955.09  93.3717
 33.0436  9032.29  93.9352
 33.0856  8912.54  93.4194
 33.1276  8846.24  92.8053
 33.1696  8998.14  93.4253
 33.2116  8959.64  93.4633
 33.2536  9087.69  94.1124
 33.2956  9012.15  93.8091
 33.3376  8883.76  92.8374
 33.3796  9039.69  93.9129
 33.4216  8887.74  92.7039
 33.4636  9053.41  93.7221
 33.5056  8861.47  92.8085
 33.5476  8885.44  93.0751
 33.5896  8977.43  93.3525
 33.6316  8905.17  93.2797
 33.6736  8693.25  92.4076
 33.7156  8822.49  93.1279
 33.7576  8996.89  93.6788
 33.7996  8895.24  92.9063
 33.8416  8691.62  92.0274
 33.8836  8788.02  92.3114
 33.9256  8884.98  92.8736
 33.9676  8887.78  92.7858
 34.0096  8792.44  92.6022
 34.0516  8739.67  91.9573
 34.0936  8785.28  92.4728
 34.1356  8794.46  92.2623
 34.1776  8643.74  91.4667
 34.2196  8644.29  91.6489
 34.2616  8572.12  91.4662
 34.3036  8798.5  92.8461
 34.3456  8680.18  91.9784
 34.3876  8700.19  92.054
 34.4296  8832.85  92.446
 34.4716  8812.84  92.4797
 34.5136  8615.99  91.6386
 34.5556  8568.34  91.6439
 34.5976  8693.58  92.1212
 34.6396  8637.96  91.5401
 34.6816  8794.23  92.4744
 34.7236  8688.76  91.6901
 34.7656  8686.79  91.8923
 34.8076  8561.36  91.5572
 34.8496  8539.68  91.2883
 34.8916  8622.61  91.5944
 34.9336  8608.64  91.5003
 34.9756  8589.59  91.3225
 35.0176  8638.34  92.1111
 35.0596  8738.87  92.4622
 35.1016  8525.59  91.083
 35.1436  8909.1  92.7875
 35.1856  8584.96  91.2084
 35.2276  8609.13  91.5138
 35.2696  8711.46  92.2522
 35.3116  8557.01  91.534
 35.3536  8479.32  90.8251
 35.3956  8542.02  90.8717
 35.4376  8591.07  91.6949
 35.4796  8472.03  91.0968
 35.5216  8590.74  91.632
 35.5636  8353.58  91.1591
 35.6056  8469.76  90.8139
 35.6476  8540.62  91.0919
 35.6896  8577.06  91.3901
 35.7316  8392.91  90.3721
 35.7736  8504.74  91.1625
 35.8156  8476.49  91.0036
 35.8576  8455.25  91.1483
 35.8996  8524.3  91.4808
 35.9416  8431.03  90.4873
 35.9836  8424.77  90.7983
 36.0256  8644.01  91.9959
 36.0676  8585.28  91.4132
 36.1096  8539.37  91.3282
 36.1516  8559.67  91.3178
 36.1936  8586.66  91.2997
 36.2356  8516.79  91.589
 36.2776  8488.48  90.9176
 36.3196  8460.54  90.426
 36.3616  8411.04  90.3045
 36.4036  8388.15  90.2472
 36.4456  8473.84  90.9141
 36.4876  8301.84  89.9295
 36.5296  8422.45  90.6127
 36.5716  8383.78  91.1916
 36.6136  8361.47  89.8487
 36.6556  8054.29  88.3703
 36.6976  8209.98  89.7233
 36.7396  8206.66  89.5285
 36.7816  8227.13  89.9226
 36.8236  8171.17  89.5377
 36.8656  8103.33  89.2227
 36.9076  8080.6  88.9958
 36.9496  8094.28  89.2063
 36.9916  8074.16  88.5733
 37.0336  8166.26  89.3866
 37.0756  8302.97  89.9307
 37.1176  8002.03  88.6383
 37.1596  7998.09  88.5341
 37.2016  8114.22  89.4021
 37.2436  8198.93  89.1758
 37.2856  8032.04  88.5309
 37.3276  8128.2  88.4074
 37.3696  8075.35  89.0064
 37.4116  8009.38  88.5345
 37.4536  8091.98  88.8641
 37.4956  8005.07  88.4258
 37.5376  8161.97  90.8716
 37.5796  8143.01  90.6987
 37.6216  8038.22  88.3858
 37.6636  8239.39  89.3702
 37.7056  8132.92  88.9804
 37.7476  8320.66  89.5405
 37.7896  8060.7  88.6349
 37.8316  8214.15  89.6392
 37.8736  8132.85  88.7122
 37.9156  8164.51  88.8807
 37.9576  8107.76  88.63
 37.9996  8062.12  87.9502
 38.0416  8096.31  88.9381
 38.0836  8187.47  89.35
 38.1256  8129.09  88.9999
 38.1676  7969.83  88.24
 38.2096  8129.62  88.7412
 38.2516  8202.59  89.2633
 38.2936  8233.67  89.3233
 38.3356  8122.48  88.6366
 38.3776  7935.01  87.8523
 38.4196  7995.2  88.0505
 38.4616  8107.22  88.9111
 38.5036  8225.83  89.4014
 38.5456  7985.05  88.9202
 38.5876  8005.53  89.0604
 38.6296  8074.7  88.4205
 38.6716  8074.29  88.2209
 38.7136  7981.48  87.6586
 38.7556  7984.59  88.182
 38.7976  8112.57  88.7962
 38.8396  7997.48  88.6389
 38.8816  8117.23  89.0927
 38.9236  8033.3  88.4209
 38.9656  8190.13  89.1963
 39.0076  8059.57  87.8828
 39.0496  8047.03  88.3671
 39.0916  8167.82  88.6714
 39.1336  8076.96  88.5816
 39.1756  8144.31  89.0195
 39.2176  8004.52  88.7911
 39.2596  8060.53  89.0167
 39.3016  8009.52  88.3232
 39.3436  7959.53  88.4642
 39.3856  8170.57  89.0699
 39.4276  8131.46  89.3599
 39.4696  7999.34  88.2493
 39.5116  8121.33  89.4393
 39.5536  7994.87  89.1559
 39.5956  8071.02  88.6757
 39.6376  7966.35  87.943
 39.6796  7962.99  87.8343
 39.7216  8043.35  88.3652
 39.7636  8067.44  89.0583
 39.8056  8036.47  88.6816
 39.8476  7970.72  88.5775
 39.8896  8016.78  88.4533
 39.9316  7801  87.5076
 39.9736  8023.53  88.3222
 40.0156  7924.73  87.6014
 40.0576  7906.82  87.857
 40.0996  8050.82  87.8331
 40.1416  8000.57  88.3551
 40.1836  7998.03  88.2246
 40.2256  8010.92  88.3266
 40.2676  7889.21  87.7533
 40.3096  8070.64  88.6949
 40.3516  8069.73  88.8947
 40.3936  8099.44  88.5222
 40.4356  7915.02  87.7196
 40.4776  8021.25  88.7025
 40.5196  8125.2  89.4068
 40.5616  8223.99  89.5901
 40.6036  7977.77  88.4954
 40.6456  7971.48  88.0595
 40.6876  8063.54  88.5624
 40.7296  7954.86  88.0984
 40.7716  8014.38  88.5384
 40.8136  7937.32  88.0747
 40.8556  8093.22  89.0593
 40.8976  8057.83  88.7874
 40.9396  8084.79  89.2833
 40.9816  8084.77  88.5736
 41.0236  8012.51  87.9554
 41.0656  8128.4  89.1386
 41.1076  7974.4  88.0592
 41.1496  8116.12  88.7369
 41.1916  8010.63  88.4869
 41.2336  8041.61  88.6551
 41.2756  8061.55  88.3645
 41.3176  8124.44  89.3257
 41.3596  8038.34  88.586
 41.4016  7932.18  88.2513
 41.4436  8083.44  88.8778
 41.4856  7988.2  88.5216
 41.5276  7981.24  88.4984
 41.5696  7983.1  88.1411
 41.6116  8016.39  88.7084
 41.6536  7953.61  88.2067
 41.6956  8125.65  89.2326
 41.7376  8006.74  88.6053
 41.7796  7876.04  87.7595
 41.8216  7948.56  88.3936
 41.8636  7963.55  88.4252
 41.9056  7873.1  87.7146
 41.9476  7927.54  88.2532
 41.9896  8079.33  88.7531
 42.0316  7984.96  88.3191
 42.0736  8085.13  88.977
 42.1156  8016.99  88.4372
 42.1576  7936.47  88.0947
 42.1996  8091.61  89.0862
 42.2416  7995.83  88.1377
 42.2836  8029.9  88.444
 42.3256  7886.49  87.7583
 42.3676  8039.79  88.4051
 42.4096  7970.09  87.9998
 42.4516  8094.02  88.7503
 42.4936  7809.17  87.254
 42.5356  7854.61  87.6466
 42.5776  8033.66  88.5828
 42.6196  7890.44  87.7563
 42.6616  7835.25  87.7059
 42.7036  7903.63  87.4668
 42.7456  8141.83  89.1384
 42.7876  8019.68  88.5633
 42.8296  8044.92  88.5901
 42.8716  7877.84  87.769
 42.9136  7811.49  87.192
 42.9556  7882.53  87.713
 42.9976  7880.02  87.6753
 43.0396  7917.63  87.6104
 43.0816  7877.91  87.7743
 43.1236  7787.78  87.3202
 43.1656  7915.25  87.8489
 43.2076  7826.43  87.4729
 43.2496  7906.34  87.7386
 43.2916  7823.66  87.6441
 43.3336  7911.36  87.9607
 43.3756  7951.51  87.9435
 43.4176  7776.67  87.0464
 43.4596  7839.32  87.2493
 43.5016  7796.3  87.4128
 43.5436  7810.91  87.4083
 43.5856  7821.55  87.4891
 43.6276  7724.69  86.8394
 43.6696  7725.21  87.0967
 43.7116  7814.46  87.1003
 43.7536  7912.29  88.1472
 43.7956  7761.35  88.5204
 43.8376  7694.37  86.6566
 43.8796  7672.04  86.5952
 43.9216  7556.16  85.8709
 43.9636  7616.73  86.3102
 44.0056  7614.95  86.5418
 44.0476  7629.26  86.248
 44.0896  7419.99  85.4013
 44.1316  7614.55  86.0369
 44.1736  7679.74  86.5319
 44.2156  7729.07  86.6706
 44.2576  7566.69  86.0685
 44.2996  7650.22  86.5197
 44.3416  7652.08  86.2799
 44.3836  7477.22  85.6184
 44.4256  7494.68  85.3579
 44.4676  7518.09  85.6528
 44.5096  7651.88  86.5576
 44.5516  7571.77  86.0718
 44.5936  7476.75  85.4744
 44.6356  7687.59  86.4113
 44.6776  7642.92  86.4845
 44.7196  7608.13  86.5549
 44.7616  7546.57  87.568
 44.8036  7621.73  86.3969
 44.8456  7721.8  87.1844
 44.8876  7723.73  87.0407
 44.9296  7839.2  87.1196
 44.9716  7709.01  86.8219
 45.0136  7781.72  87.1724
 45.0556  7694.02  86.6659
 45.0976  7730.19  87.0163
 45.1396  7658.66  86.3726
 45.1816  7671.94  86.2184
 45.2236  7722.54  86.5776
 45.2656  7604.26  86.4023
 45.3076  7750.63  87.0119
 45.3496  7606.42  86.5097
 45.3916  7439.14  85.8298
 45.4336  7739.5  87.3914
 45.4756  7622.48  86.5695
 45.5176  7783.75  87.1002
 45.5596  7767.77  87.1289
 45.6016  7605.41  86.637
 45.6436  7688.72  86.2595
 45.6856  7586.67  86.3535
 45.7276  7542.8  87.9674
 45.7696  7558.53  87.2148
 45.8116  7636.92  87.1008
 45.8536  7536.13  86.4004
 45.8956  7685.37  86.6084
 45.9376  7666.98  85.9548
 45.9796  7540.62  85.9395
 46.0216  7588.43  86.5437
 46.0636  7695.66  86.2773
 46.1056  7631.42  85.9266
 46.1476  7599.34  86.344
 46.1896  7634.41  86.6909
 46.2316  7577.77  86.2375
 46.2736  7469.47  85.9944
 46.3156  7548.66  86.0309
 46.3576  7591.94  86.4767
 46.3996  7514.39  86.1967
 46.4416  7680.56  86.7179
 46.4836  7453.9  85.7744
 46.5256  7576.69  86.428
 46.5676  7492.05  86.0573
 46.6096  7626.73  86.7497
 46.6516  7524.68  85.1994
 46.6936  7643.94  86.3852
 46.7356  7634.35  86.4179
 46.7776  7609.56  87.1401
 46.8196  7529.07  86.2728
 46.8616  7418.48  85.581
 46.9036  7370.11  84.9666
 46.9456  7477.28  85.2071
 46.9876  7538.14  85.6437
 47.0296  7469.17  85.943
 47.0716  7492.31  85.9023
 47.1136  7486.52  85.5415
 47.1556  7468.09  85.299
 47.1976  7590.1  86.0781
 47.2396  7467.32  85.7822
 47.2816  7479.02  85.5505
 47.3236  7577.66  86.4832
 47.3656  7516.8  86.0683
 47.4076  7394.89  85.1642
 47.4496  7562.75  86.2244
 47.4916  7433.59  85.6731
 47.5336  7477.66  85.741
 47.5756  7555.95  86.2681
 47.6176  7506.32  85.9287
 47.6596  7435.17  85.2322
 47.7016  7585.81  85.8949
 47.7436  7489.93  85.6985
 47.7856  7535.05  85.9732
 47.8276  7363.79  85.0548
 47.8696  7341.09  84.9953
 47.9116  7506.34  85.662
 47.9536  7512.75  85.6347
 47.9956  7425.48  85.8618
 48.0376  7292.01  84.8595
 48.0796  7491.03  86.1414
 48.1216  7366.19  85.2391
 48.1636  7529.63  85.7401
 48.2056  7411.46  85.3338
 48.2476  7638.76  86.947
 48.2896  7502.64  86.0704
 48.3316  7454.75  85.7289
 48.3736  7454.13  85.7555
 48.4156  7394.91  85.269
 48.4576  7469.8  86.0035
 48.4996  7495.77  85.5996
 48.5416  7505.93  85.9873
 48.5836  7400.99  85.0507
 48.6256  7480.41  85.7183
 48.6676  7479.05  86.241
 48.7096  7418.87  85.1469
 48.7516  7500.67  85.7667
 48.7936  7317.86  84.7805
 48.8356  7449.51  85.5909
 48.8776  7402.41  85.9076
 48.9196  7549.26  86.0988
 48.9616  7372.46  85.474
 49.0036  7470.41  86.3944
 49.0456  7412.39  86.0413
 49.0876  7411.14  85.5478
 49.1296  7352.02  85.3811
 49.1716  7322.92  85.0866
 49.2136  7504.44  86.0555
 49.2556  7520.09  86.1782
 49.2976  7435.15  85.7506
 49.3396  7401.07  85.6207
 49.3816  7453.08  85.3383
 49.4236  7435.58  85.6649
 49.4656  7341.16  85.1424
 49.5076  7470.9  85.6382
 49.5496  7410.43  85.226
 49.5916  7475.83  85.6406
 49.6336  7365.44  85.2224
 49.6756  7389.17  85.5923
 49.7176  7268.71  84.8331
 49.7596  7462.83  85.9053
 49.8016  7407.81  85.3174
 49.8436  7368.78  85.3965
 49.8856  7277.91  84.8786
 49.9276  7304.65  85.1368
 49.9696  7408.39  85.7169
 50.0116  7383.82  85.7072
 50.0536  7289.59  85.1035
 50.0956  7341.06  85.4709
 50.1376  7312.11  85.0005
 50.1796  7262.06  84.9899
 50.2216  7242.32  84.8649
 50.2636  7339.15  85.0363
 50.3056  7192.84  84.369
 50.3476  7339.98  85.2451
 50.3896  7247.61  84.6809
 50.4316  7258.37  84.5749
 50.4736  7279.89  84.9226
 50.5156  7313.27  85.1034
 50.5576  7347.24  85.058
 50.5996  7271.98  84.9088
 50.6416  7219.06  84.5263
 50.6836  7371.74  85.4828
 50.7256  7344.09  85.2339
 50.7676  7411.77  85.9594
 50.8096  7311.42  84.9005
 50.8516  7316.89  85.3507
 50.8936  7198.34  84.4377
 50.9356  7249.77  84.8502
 50.9776  7163.02  84.4993
 51.0196  7152.45  84.5709
 51.0616  7206.17  84.1988
 51.1036  7256.6  84.8571
 51.1456  7188.76  84.3718
 51.1876  7144.96  83.4294
 51.2296  7243.24  84.6639
 51.2716  6979.4  82.8068
 51.3136  7075.44  83.8476
 51.3556  7094.02  83.566
 51.3976  6996.82  83.1501
 51.4396  6996.27  83.462
 51.4816  6977.11  83.198
 51.5236  7148.5  84.3066
 51.5656  7011.16  83.0807
 51.6076  7174.01  84.1278
 51.6496  7050.73  83.5866
 51.6916  7077.22  84.1191
 51.7336  7059.73  84.0989
 51.7756  7114.9  84.1179
 51.8176  6936.77  83.1565
 51.8596  6965.25  83.3571
 51.9016  7194.52  84.3144
 51.9436  7104.42  85.3091
 51.9856  7174.37  86.1464
 52.0276  7217.1  84.8432
 52.0696  7286.78  85.3151
 52.1116  7089.6  84.2844
 52.1536  7199.58  84.8196
 52.1956  7051.01  83.3877
 52.2376  7219.62  84.5561
 52.2796  7171.1  84.0883
 52.3216  6982.02  83.6732
 52.3636  7192.8  84.4681
 52.4056  7089.01  83.7279
 52.4476  7029.06  83.7335
 52.4896  7066.78  84.0044
 52.5316  7268.57  85.2608
 52.5736  6989.95  83.309
 52.6156  7126.17  84.5425
 52.6576  6998.12  83.1973
 52.6996  6978.99  84.0929
 52.7416  6924.67  83.6097
 52.7836  7050.16  84.2592
 52.8256  7169.78  84.1585
 52.8676  6918.36  83.2553
 52.9096  7092.35  84.3679
 52.9516  7013.18  84.2992
 52.9936  7015.17  84.7039
 53.0356  7021.61  83.7241
 53.0776  7057.8  84.2119
 53.1196  7030.95  84.1808
 53.1616  7054.03  84.3718
 53.2036  7098.02  84.5926
 53.2456  7158.26  85.0572
 53.2876  6940.48  83.44
 53.3296  7086.97  84.6497
 53.3716  7180.75  84.9496
 53.4136  7069.91  84.452
 53.4556  6913.33  83.5409
 53.4976  6976.88  83.759
 53.5396  6952.94  84.0222
 53.5816  6986.39  83.8516
 53.6236  6916.57  83.7822
 53.6656  7142.37  84.7427
 53.7076  7124.31  84.5774
 53.7496  7100.9  84.5824
 53.7916  7060.36  84.4751
 53.8336  7005.45  84.0362
 53.8756  6914.92  84.0635
 53.9176  6943.26  83.5532
 53.9596  6755.44  83.177
 54.0016  6705.61  82.1881
 54.0436  6642.38  82.025
 54.0856  6761.64  82.1833
 54.1276  6797.34  82.597
 54.1696  6697.53  82.166
 54.2116  6911.6  83.2004
 54.2536  6712.17  81.7798
 54.2956  6879.43  82.8638
 54.3376  6726.71  82.4417
 54.3796  6749.22  82.4714
 54.4216  6847.04  83.1239
 54.4636  6670.22  82.0033
 54.5056  6807.74  82.6453
 54.5476  6680.36  82.2189
 54.5896  6769.8  82.589
 54.6316  6730.06  82.1928
 54.6736  6765.77  82.5081
 54.7156  6700.29  82.1366
 54.7576  6528.95  81.0556
 54.7996  6592.72  81.5903
 54.8416  6737.41  82.5458
 54.8836  6730.04  82.5993
 54.9256  6628.37  81.724
 54.9676  6624.61  81.5589
 55.0096  6612.59  81.5175
 55.0516  6560.15  81.4456
 55.0936  6575.37  81.2055
 55.1356  6582.55  81.2821
 55.1776  6739.27  82.4917
 55.2196  6734.25  82.2382
 55.2616  6711.78  82.3288
 55.3036  6547.84  81.4866
 55.3456  6504.03  81.3513
 55.3876  6583.24  81.573
 55.4296  6510.21  81.1373
 55.4716  6683.64  82.225
 55.5136  6513.66  80.9359
 55.5556  6659.89  81.9046
 55.5976  6587.95  81.5153
 55.6396  6635.78  81.7594
 55.6816  6553.01  81.1176
 55.7236  6654.49  81.9155
 55.7656  6496.75  80.5522
 55.8076  6509.65  80.6313
 55.8496  6477.84  80.766
 55.8916  6471.02  80.924
 55.9336  6683.36  82.0602
 55.9756  6509.06  80.86
 56.0176  6459.03  80.7162
 56.0596  6565.12  81.3484
 56.1016  6444.92  80.6196
 56.1436  6509  81.2928
 56.1856  6439.32  80.5842
 56.2276  6628.22  81.8208
 56.2696  6482.46  80.8974
 56.3116  6529.66  81.5739
 56.3536  6383.6  80.3155
 56.3956  6440.97  80.6614
 56.4376  6364.49  80.2201
 56.4796  6364.71  80.0344
 56.5216  6440.18  80.8844
 56.5636  6376.39  80.0528
 56.6056  6574.58  81.537
 56.6476  6400.19  80.0493
 56.6896  6559.28  81.5077
 56.7316  6398.81  80.4331
 56.7736  6429.66  80.6151
 56.8156  6439.93  80.6976
 56.8576  6203.52  79.1402
 56.8996  6382.47  80.17
 56.9416  6267.35  79.6583
 56.9836  6457.68  80.4862
 57.0256  6339.05  80.064
 57.0676  6373.53  80.3841
 57.1096  6363.73  80.1334
 57.1516  6328  79.956
 57.1936  6444.83  80.4411
 57.2356  6275.26  79.6886
 57.2776  6424.62  80.6084
 57.3196  6370.29  80.6163
 57.3616  6336.72  79.8951
 57.4036  6340.59  79.9766
 57.4456  6421.91  80.4618
 57.4876  6334.94  79.7921
 57.5296  6351.05  80.2246
 57.5716  6303.15  79.932
 57.6136  6183.93  78.995
 57.6556  6269.7  79.6659
 57.6976  6339.57  79.941
 57.7396  6252.68  79.7341
 57.7816  6303.37  80.455
 57.8236  6205.98  79.6113
 57.8656  6179.95  79.1106
 57.9076  6326.24  80.0532
 57.9496  6334.36  80.4667
 57.9916  6260.66  79.453
 58.0336  6289.47  79.972
 58.0756  6265.69  79.4593
 58.1176  6254.88  79.3905
 58.1596  6162.22  79.3829
 58.2016  5997.45  77.5565
 58.2436  5959.96  77.7012
 58.2856  5996.78  77.8592
 58.3276  6056.58  78.6219
 58.3696  6000.9  78.0169
 58.4116  6070.49  78.3294
 58.4536  6140.88  78.6694
 58.4956  6025.75  78.1051
 58.5376  6125.94  78.323
 58.5796  5897.86  77.2622
 58.6216  6075.21  78.2391
 58.6636  6076.87  78.4533
 58.7056  6072.6  78.2904
 58.7476  6014.4  78.358
 58.7896  6023.08  78.0597
 58.8316  6064.93  78.3296
 58.8736  6093.45  78.5201
 58.9156  5992.61  77.9137
 58.9576  6085.39  78.7242
 58.9996  6057.73  77.9092
 59.0416  5969.46  77.6906
 59.0836  6102.58  78.4645
 59.1256  5968.98  78.0023
 59.1676  5909.93  78.2294
 59.2096  6068.59  78.5578
 59.2516  6208.46  79.0333
 59.2936  5915.28  77.4693
 59.3356  5956.52  77.6174
 59.3776  5996.75  78.0475
 59.4196  6018.88  78.1273
 59.4616  5856.07  76.9257
 59.5036  5936.61  77.4874
 59.5456  6000.49  77.5981
 59.5876  5952.32  77.4757
 59.6296  5958.59  77.5853
 59.6716  5911.25  77.3337
 59.7136  5925.87  77.4177
 59.7556  5920.98  77.5208
 59.7976  5797.66  76.4567
 59.8396  5953.49  77.3725
 59.8816  5845.53  77.2044
 59.9236  6191.68  79.0965
 59.9656  6031.72  78.3284
 60.0076  6001.05  77.4886
 60.0496  5930.35  77.5278
 60.0916  6051.13  77.7332
 60.1336  5912.37  77.9322
 60.1756  5844.27  78.6468
 60.1996  0.0000000E+00  0.0000000E+00