File: docs/examples/opeando_xrd/IS17_D/Data/IS17_D/17_Db_f00033.xye
# /beamlines/bl04/projects/cycle2025-II/20250340211-lsimonelli/DATA/IS17_D/17_Db_f00033.xye : mythproc.py merge -s 0.006 -l 0.5 -f /beamlines/bl04/inhouse/ff/FlatField/ff_20Nov2024rod8mm60s_17keV.raw -b True -c true -o xye /beamlines/bl04/projects/cycle2025-II/20250340211-lsimonelli/DATA/IS17_D/17_Db_00033.dat
# IsMon = [6747240, 6746103, 6745527]  IsPos = [-1.5000, -2.4885, -3.4986]
# Wave = 0.4962  CalPath /beamlines/bl04/projects/cycle2025-II/20250340211-lsimonelli/DATA/Align/Si_Pos1_25keV_f00001.cal
# Date = 2025-09-24_02:54:18 Dt = 4.8000  Bin = 0.0060  <imon> = 6746290 +/- 712 (Min/Max) 6745527 / 6747240
# icurr 249.2606  mocoIn 1.7011E-05  mocoOut 0.7981  i15 7.06742e+06  imon 6.74629e+06  i7 6.3333  iEMpd_timer 4.8000  iEMpd_1 3.5379E-08  iEMpd_2 7.6921E-08  iEMpd_3 1.5769E-08  iEMpd_4 4.7264E-08  iEMhp_timer 4.8000  iEMhp_1 4.8722E-06  iEMhp_2 -2.5873E-08  iEMhp_3 -2.3561E-08  iEMhp_4 -2.1874E-08
#      9776
 1.5856  44000.7  215.379
 1.6276  50218.4  226.145
 1.6696  56846.3  239.758
 1.7116  63428.5  253.754
 1.7536  71792  268.815
 1.7956  76095.7  277.447
 1.8376  72213.6  270.705
 1.8796  62164.2  249.321
 1.9216  50922.4  226.549
 1.9636  44265.8  210.89
 2.0056  40248.1  199.807
 2.0476  37469.8  194.901
 2.0896  36169  190.365
 2.1316  34877.1  186.036
 2.1736  33476.4  183.708
 2.2156  34367  184.641
 2.2576  32424.7  179.991
 2.2996  31607.1  178.359
 2.3416  31877.8  177.691
 2.3836  31275.8  176.114
 2.4256  29984.3  173.002
 2.4676  30059.4  172.973
 2.5096  29666.3  171.894
 2.5516  28213.4  171.469
 2.5936  28197.2  167.995
 2.6356  27719.4  167.269
 2.6776  27148  164.449
 2.7196  27268.5  165.296
 2.7616  27098  164.569
 2.8036  26487.5  162.864
 2.8456  26660.2  164.043
 2.8876  26227.8  162.546
 2.9296  25668.9  160.96
 2.9716  25333.8  159.396
 3.0136  24983.3  158.355
 3.0556  25037.6  158.924
 3.0976  25248.3  158.499
 3.1396  24835.5  157.92
 3.1816  24504.5  156.797
 3.2236  24321.8  156.203
 3.2656  24197  154.858
 3.3076  24075  155.928
 3.3496  24401.1  156.154
 3.3916  24660.2  156.546
 3.4336  24992.7  158.189
 3.4756  25378.8  159.343
 3.5176  26201.6  161.666
 3.5596  25612.1  162.85
 3.6016  25964.7  161.013
 3.6436  24938.8  158.906
 3.6856  24653.8  156.307
 3.7276  23699.8  154.328
 3.7696  23593.2  153.957
 3.8116  23205.8  152.79
 3.8536  23401.4  153.359
 3.8956  23339.8  152.979
 3.9376  22948.9  151.993
 3.9796  22999.6  151.625
 4.0216  22965.6  150.556
 4.0636  23083.8  152.401
 4.1056  23075.8  152.031
 4.1476  23560.7  153.929
 4.1896  23489.8  153.554
 4.2316  23511.9  153.458
 4.2736  24119.8  155.229
 4.3156  24140.3  155.523
 4.3576  24973.6  158.097
 4.3996  24978.2  158.185
 4.4416  25516.1  159.657
 4.4836  25945.5  161.161
 4.5256  26579.9  163.719
 4.5676  26538.2  163.851
 4.6096  27174.7  164.824
 4.6516  27266.5  164.433
 4.6936  27422.9  165.734
 4.7356  27734.9  166.495
 4.7776  27597.2  165.912
 4.8196  27580.5  166.503
 4.8616  26756.1  163.627
 4.9036  26727.1  163.126
 4.9456  26377  162.716
 4.9876  25934.7  161.239
 5.0296  26073.8  161.517
 5.0716  25884.8  161.541
 5.1136  26229.7  162.474
 5.1556  26306.9  162.18
 5.1976  26869.3  163.885
 5.2396  26837.9  163.498
 5.2816  26965.7  164.344
 5.3236  26961.2  164.031
 5.3656  26530.6  163.644
 5.4076  26339  163.192
 5.4496  26026  161.726
 5.4916  26269.5  162.233
 5.5336  26164.6  161.915
 5.5756  26313  162.385
 5.6176  26495.7  162.39
 5.6596  26526  163.305
 5.7016  26473.9  162.569
 5.7436  26827.1  163.934
 5.7856  26799.4  163.916
 5.8276  26822.2  163.705
 5.8696  27110.8  164.634
 5.9116  26997.4  164.977
 5.9536  27575.6  166.487
 5.9956  27360.2  165.247
 6.0376  27353  165.836
 6.0796  27737.1  166.829
 6.1216  27508.9  166.339
 6.1636  27893.7  166.561
 6.2056  27682.9  166.6
 6.2476  28395.6  168.417
 6.2896  28461.8  168.481
 6.3316  28512.4  168.797
 6.3736  28345  168.199
 6.4156  28416.1  168.346
 6.4576  28638.9  168.579
 6.4996  28587.8  168.905
 6.5416  28657.4  169.234
 6.5836  28576.9  169.238
 6.6256  28900.8  169.753
 6.6676  29254.1  170.351
 6.7096  29475.6  171.846
 6.7516  29431.6  171.386
 6.7936  30092.1  172.445
 6.8356  29615.7  171.429
 6.8776  29994.1  173.321
 6.9196  30093.8  173.997
 6.9616  30571.9  174.789
 7.0036  30865.3  175.317
 7.0456  30763.8  174.341
 7.0876  31175.3  177.075
 7.1296  30706.8  174.987
 7.1716  30651.3  174.366
 7.2136  30356.6  173.31
 7.2556  30779.6  174.67
 7.2976  30676  174.861
 7.3396  30444.7  174.421
 7.3816  30539.8  174.909
 7.4236  30858.4  175.121
 7.4656  30931.8  174.798
 7.5076  31164.5  175.609
 7.5496  30856.1  175.261
 7.5916  30959  175.598
 7.6336  31363.6  176.632
 7.6756  31619.6  177.197
 7.7176  32070.1  178.78
 7.7596  31615  178.693
 7.8016  32518.9  183.443
 7.8436  32051.4  178.857
 7.8856  32047.7  178.463
 7.9276  32756.4  180.82
 7.9696  32950.1  181.644
 8.0116  33627.2  182.452
 8.0536  33880  183.018
 8.0956  33992.4  184.471
 8.1376  34548.7  185.462
 8.1796  34327.2  185.386
 8.2216  35103.5  186.241
 8.2636  35207.1  186.765
 8.3056  35315.2  187.805
 8.3476  35744.4  188.283
 8.3896  35264.7  187.522
 8.4316  35668.6  188.325
 8.4736  35961.9  188.578
 8.5156  35190.9  186.813
 8.5576  35104.3  187.521
 8.5996  35318.6  187.002
 8.6416  34943.6  187.229
 8.6836  34627.2  186.217
 8.7256  35059.9  186.844
 8.7676  35137  189.889
 8.8096  35579.2  188.424
 8.8516  35414.3  187.613
 8.8936  34970.8  186.345
 8.9356  35234.4  187.357
 8.9776  35155.3  187.235
 9.0196  35110.1  186.791
 9.0616  35013  186.049
 9.1036  34275.8  185.214
 9.1456  34133.1  184.18
 9.1876  34397.2  184.828
 9.2296  34211.2  183.794
 9.2716  33816.6  182.758
 9.3136  33659.1  182.33
 9.3556  34073.2  183.425
 9.3976  33025.1  181.072
 9.4396  33221.5  181.53
 9.4816  33078.1  180.995
 9.5236  32791.3  180.105
 9.5656  32429.3  179.464
 9.6076  31830.6  178.316
 9.6496  32182.4  179.173
 9.6916  31582.8  177.453
 9.7336  32012.7  178.455
 9.7756  31893.8  179.321
 9.8176  31656  178.197
 9.8596  31803.5  177.082
 9.9016  31153.4  175.254
 9.9436  30725.9  173.795
 9.9856  30398.6  173.307
 10.0276  29877.8  172.851
 10.0696  30107.9  172.585
 10.1116  29714.5  171.709
 10.1536  29649.1  171.184
 10.1956  29084.7  169.659
 10.2376  29165.6  169.408
 10.2796  28795.9  168.438
 10.3216  28567.8  167.907
 10.3636  28513  167.914
 10.4056  27843.5  166.326
 10.4476  28011.7  166.444
 10.4896  28205  166.482
 10.5316  28017.1  166.304
 10.5736  27661.8  165.982
 10.6156  27733.6  165.953
 10.6576  27308.8  163.279
 10.6996  27104.6  163.358
 10.7416  26768.4  162.551
 10.7836  26478.7  162.322
 10.8256  25948  161.106
 10.8676  26169  161.344
 10.9096  25752.3  160.084
 10.9516  25650  158.739
 10.9936  25748.9  159.25
 11.0356  25606.1  159.403
 11.0776  25265.7  157.689
 11.1196  24734.2  156.765
 11.1616  24625.6  156.094
 11.2036  24867.3  156.711
 11.2456  24539.5  156.367
 11.2876  24914.1  157.287
 11.3296  24287.8  155.211
 11.3716  24558  155.813
 11.4136  24717.6  157.138
 11.4556  24547.8  156.271
 11.4976  25019.3  156.777
 11.5396  25216.5  157.564
 11.5816  25954.6  160.274
 11.6236  25323.6  158.768
 11.6656  25316  157.687
 11.7076  24338.6  155.418
 11.7496  24222.8  159.002
 11.7916  23869.3  153.208
 11.8336  23488.3  152.868
 11.8756  23379  152.05
 11.9176  23493.3  152.337
 11.9596  23560.9  152.482
 12.0016  23388.7  152.678
 12.0436  23345.4  152.001
 12.0856  23026.8  151.447
 12.1276  22768.2  150.55
 12.1696  23190  151.075
 12.2116  22932  150.226
 12.2536  22915  150.946
 12.2956  22605.8  149.315
 12.3376  22866.8  150.367
 12.3796  22958.5  151.147
 12.4216  22792.1  149.814
 12.4636  22582.3  150.028
 12.5056  22633  149.482
 12.5476  22814.7  149.603
 12.5896  22653.7  149.712
 12.6316  22737.9  150.122
 12.6736  22627.9  150.109
 12.7156  22762.6  150.542
 12.7576  22614  150.291
 12.7996  22865.9  149.794
 12.8416  22525.5  149.694
 12.8836  22930.8  150.857
 12.9256  23217.4  150.868
 12.9676  23165.6  151.102
 13.0096  23356.4  152.807
 13.0516  23161.3  151.217
 13.0936  23189.8  151.444
 13.1356  23686.7  152.312
 13.1776  23194.4  151.717
 13.2196  23491  152.335
 13.2616  23108.2  151.396
 13.3036  23659.5  153.316
 13.3456  23312.3  152.16
 13.3876  23621.7  152.653
 13.4296  23187.3  151.415
 13.4716  23287.9  151.376
 13.5136  23450  152.033
 13.5556  23230.3  151.93
 13.5976  23567.3  153.198
 13.6396  23398.7  152.022
 13.6816  23619.7  153.076
 13.7236  23914.5  153.732
 13.7656  25454.2  159.06
 13.8076  26203.8  160.022
 13.8496  24963.5  157.006
 13.8916  24025.5  155.004
 13.9336  23012.3  151.01
 13.9756  23153.6  150.851
 14.0176  22693.5  150.016
 14.0596  22780.4  150.229
 14.1016  22603.9  150.065
 14.1436  22869.4  150.086
 14.1856  22232  148.268
 14.2276  22056.2  148.15
 14.2696  22147.6  148.314
 14.3116  21615.7  146.437
 14.3536  21409  145.883
 14.3956  21478.8  145.859
 14.4376  21759  146.599
 14.4796  21585.8  146.014
 14.5216  21108.7  145.165
 14.5636  20985.1  144.311
 14.6056  21251.6  144.797
 14.6476  21122.9  143.614
 14.6896  20674.7  142.615
 14.7316  20415.1  142.733
 14.7736  20409.7  141.868
 14.8156  20349  141.681
 14.8576  20110.2  140.707
 14.8996  19959.4  141.358
 14.9416  19376.9  139.292
 14.9836  19396.4  139.345
 15.0256  18812  136.179
 15.0676  18756.6  136.278
 15.1096  18686.2  135.772
 15.1516  18491.6  135.6
 15.1936  18326.7  134.443
 15.2356  18093.3  133.853
 15.2776  18054.5  133.309
 15.3196  17805.4  133.352
 15.3616  17679.1  132.645
 15.4036  17769.1  132.844
 15.4456  17756.2  132.239
 15.4876  17621.8  131.648
 15.5296  17398.7  131.085
 15.5716  17231.1  130.072
 15.6136  17167.3  130.143
 15.6556  17168.6  129.416
 15.6976  17028.4  128.963
 15.7396  16739.7  128.446
 15.7816  16900  128.589
 15.8236  16572.2  128.001
 15.8656  16875.3  128.967
 15.9076  16505.3  127.374
 15.9496  17212.7  132.826
 15.9916  16881.8  131.938
 16.0336  17032.9  129.438
 16.0756  16949.5  129.45
 16.1176  16505.2  127.661
 16.1596  16168.7  127.657
 16.2016  16264.5  126.832
 16.2436  16373.6  127.61
 16.2856  16232.1  126.585
 16.3276  15912.3  125.775
 16.3696  16193.5  126.702
 16.4116  16031.5  126.503
 16.4536  16331.8  127.495
 16.4956  16058.2  126.158
 16.5376  15745.3  125.112
 16.5796  15842  124.874
 16.6216  15968.2  125.629
 16.6636  15609.5  124.405
 16.7056  15794.8  124.99
 16.7476  15553.2  123.721
 16.7896  15650.5  124.693
 16.8316  15653.2  124.685
 16.8736  15968.4  126.177
 16.9156  15822  125.919
 16.9576  15382.5  124.93
 16.9996  15440.3  125.632
 17.0416  15707.2  125.127
 17.0836  15614.4  124.52
 17.1256  15560.4  124.307
 17.1676  15640.1  124.577
 17.2096  15304.2  123.144
 17.2516  15598.2  124.407
 17.2936  15312.2  123.312
 17.3356  15141.6  122.606
 17.3776  14887.6  121.758
 17.4196  14978.2  121.837
 17.4616  14832.2  121.145
 17.5036  14509.7  120.183
 17.5456  14507.7  120.786
 17.5876  14564.2  120.095
 17.6296  14861.7  121.128
 17.6716  14422.5  119.908
 17.7136  14280.3  119.44
 17.7556  14414.6  120.291
 17.7976  14100.3  118.576
 17.8396  14265.3  118.926
 17.8816  14071.9  118.662
 17.9236  14073.5  118.457
 17.9656  13989.9  118.778
 18.0076  13987.5  118.206
 18.0496  13879.5  116.919
 18.0916  13908.8  117.573
 18.1336  13898.9  117.623
 18.1756  14072.5  117.923
 18.2176  13625.7  116.238
 18.2596  13780.1  116.631
 18.3016  13981.5  117.738
 18.3436  13989.3  118.01
 18.3856  13809.4  117.135
 18.4276  13762.8  116.639
 18.4696  13637.4  116.185
 18.5116  13667  116.568
 18.5536  13796.4  117.489
 18.5956  13488  115.737
 18.6376  13504.3  116.193
 18.6796  13509  115.562
 18.7216  13453.6  115.852
 18.7636  13501.6  116.002
 18.8056  13324.1  115.158
 18.8476  13256.2  115.18
 18.8896  13377.3  115.354
 18.9316  13347.7  115.056
 18.9736  13384.3  115.075
 19.0156  13234.8  114.823
 19.0576  13516  114.916
 19.0996  13425  115.24
 19.1416  13190  114.6
 19.1836  13146.8  114.03
 19.2256  13132.7  114.188
 19.2676  13308.2  115.024
 19.3096  13173  114.687
 19.3516  13229.5  114.711
 19.3936  13179.5  114.632
 19.4356  13370.4  115.276
 19.4776  13227.7  114.751
 19.5196  13262.5  114.762
 19.5616  13144.1  114.5
 19.6036  13203.1  114.129
 19.6456  13261.8  114.63
 19.6876  13214  114.074
 19.7296  13273.8  114.778
 19.7716  13051.5  113.843
 19.8136  13478.7  116.02
 19.8556  13528.3  115.734
 19.8976  13447.1  115.438
 19.9396  13384.1  114.769
 19.9816  13593.8  115.911
 20.0236  13795.2  116.958
 20.0656  14027.2  117.939
 20.1076  14156.1  118.947
 20.1496  13996  118.265
 20.1916  13806.5  116.944
 20.2336  13447.8  115.377
 20.2756  13372.9  115.495
 20.3176  13036.2  113.773
 20.3596  12964.8  113.458
 20.4016  13048  113.616
 20.4436  12761.3  112.925
 20.4856  12894.7  113.295
 20.5276  12892.4  113.742
 20.5696  12667.2  112.313
 20.6116  12771.8  112.942
 20.6536  12678.3  112.106
 20.6956  12562  111.661
 20.7376  12576.8  111.93
 20.7796  12540.4  111.473
 20.8216  12679.3  111.809
 20.8636  12654.3  112.065
 20.9056  12534.2  111.476
 20.9476  12600.5  111.613
 20.9896  12477.7  110.938
 21.0316  12514.4  111.01
 21.0736  12530.1  111.579
 21.1156  12315.8  110.783
 21.1576  12597.1  112.073
 21.1996  12353.5  110.967
 21.2416  12450.6  111.239
 21.2836  12467.9  111.29
 21.3256  12447.1  111.267
 21.3676  12325.4  110.268
 21.4096  12216.4  110.152
 21.4516  12206.4  109.933
 21.4936  12094  109.676
 21.5356  12258.8  110.366
 21.5776  12297.2  110.378
 21.6196  12081.9  109.453
 21.6616  12089.8  109.566
 21.7036  12223.1  109.935
 21.7456  12162.9  109.752
 21.7876  12113.5  109.292
 21.8296  12206  109.559
 21.8716  12201.7  109.756
 21.9136  12288.4  110.352
 21.9556  11985.3  108.66
 21.9976  12015.8  108.836
 22.0396  12085.4  109.396
 22.0816  11830.8  108.751
 22.1236  12284.4  110.279
 22.1656  11877.3  108.629
 22.2076  11855.1  107.956
 22.2496  11747.8  107.49
 22.2916  11803.5  107.637
 22.3336  11698.4  107.831
 22.3756  11737.6  107.762
 22.4176  11794.2  107.877
 22.4596  11700.2  108.018
 22.5016  11646.4  107.291
 22.5436  11893.2  108.3
 22.5856  12094.8  109.455
 22.6276  12218.4  110.138
 22.6696  11818.2  108.674
 22.7116  11865.5  108.408
 22.7536  11688.5  107.578
 22.7956  11893.8  107.867
 22.8376  11587.2  106.973
 22.8796  11804.4  107.775
 22.9216  11818.4  108.366
 22.9636  11840.3  107.647
 23.0056  11665.6  106.975
 23.0476  11776.6  108.042
 23.0896  12090.3  108.861
 23.1316  11755.7  107.766
 23.1736  11883.9  111.207
 23.2156  12339.8  110.656
 23.2576  12335.5  110.833
 23.2996  12057  109.366
 23.3416  12279.9  110.883
 23.3836  12174.5  109.638
 23.4256  12272.8  110.214
 23.4676  11999.5  108.679
 23.5096  12024.7  109.43
 23.5516  12014  108.705
 23.5936  12078.8  109.892
 23.6356  12234.5  110.267
 23.6776  11946.5  109.488
 23.7196  12142.4  109.848
 23.7616  11918.6  108.543
 23.8036  12333.5  110.47
 23.8456  11874.3  107.964
 23.8876  12012.5  108.93
 23.9296  11873.6  108.782
 23.9716  11815.6  107.742
 24.0136  11893.1  108.978
 24.0556  11877  108.629
 24.0976  11580.5  107.085
 24.1396  11560.9  109.551
 24.1816  11825.7  109.561
 24.2236  11823.1  108.84
 24.2656  11509.6  106.882
 24.3076  11600.4  107.57
 24.3496  11460.8  106.803
 24.3916  11513.2  107.093
 24.4336  11620.7  107.79
 24.4756  11394.6  106.622
 24.5176  11359.1  106.091
 24.5596  11484  107.002
 24.6016  11351.9  106.468
 24.6436  11389.1  106.16
 24.6856  11307.6  105.528
 24.7276  11154.8  105.14
 24.7696  10994.4  104.481
 24.8116  11103.1  105.173
 24.8536  11001.5  104.682
 24.8956  11071.2  104.757
 24.9376  11069.7  104.924
 24.9796  10910.4  104.273
 25.0216  10853.8  104.12
 25.0636  10869.8  103.861
 25.1056  10752.7  103.72
 25.1476  10741.7  105.517
 25.1896  10707.7  103.902
 25.2316  10830.9  103.685
 25.2736  10775.8  103.178
 25.3156  10650.5  102.655
 25.3576  10631.5  102.989
 25.3996  10645.4  103.042
 25.4416  10468.4  102.155
 25.4836  10517.8  102.907
 25.5256  10602.9  102.695
 25.5676  10568.3  102.259
 25.6096  10454.5  102.275
 25.6516  10549.2  102.252
 25.6936  10597.9  102.793
 25.7356  10453.1  102.222
 25.7776  10468.9  101.985
 25.8196  10313.7  101.384
 25.8616  10413  101.802
 25.9036  10529.2  101.832
 25.9456  10328.8  101.437
 25.9876  10415.6  101.774
 26.0296  10436.9  101.646
 26.0716  10496.8  102.265
 26.1136  10448.9  101.97
 26.1556  10505.3  101.555
 26.1976  10358.9  101.838
 26.2396  10292  100.935
 26.2816  10301.2  101.326
 26.3236  10316.2  101.466
 26.3656  10368.2  101.53
 26.4076  10275  101.27
 26.4496  10525.7  102.092
 26.4916  10768.8  103.184
 26.5336  10929.6  104.275
 26.5756  11039.4  104.682
 26.6176  10438.4  101.816
 26.6596  10438.3  102.105
 26.7016  10209.5  100.793
 26.7436  10392.3  101.781
 26.7856  10085.5  100.26
 26.8276  10179.5  100.691
 26.8696  10217.3  100.749
 26.9116  10077.8  100.001
 26.9536  10051.2  99.9193
 26.9956  10039.1  99.8881
 27.0376  10101.7  100.418
 27.0796  9968.66  99.5339
 27.1216  10074.6  100.071
 27.1636  9866.68  99.2008
 27.2056  9919.64  99.3529
 27.2476  9965.77  99.5725
 27.2896  9850.14  99.0352
 27.3316  9959.01  99.376
 27.3736  9806.03  98.8803
 27.4156  9948.91  99.4276
 27.4576  9867.19  99.2321
 27.4996  9941.15  99.2277
 27.5416  9842.99  99.0322
 27.5836  9834.06  98.833
 27.6256  9806.96  98.8754
 27.6676  9768.98  98.6725
 27.7096  9793.84  98.6784
 27.7516  9739.65  98.5517
 27.7936  9921.96  99.6075
 27.8356  9909.97  99.1622
 27.8776  10011.2  99.7346
 27.9196  9671.47  97.8941
 27.9616  9658.16  98.0162
 28.0036  9698.96  98.1839
 28.0456  9540.21  97.5182
 28.0876  9591.98  97.8628
 28.1296  9461.36  97.0344
 28.1716  9751.69  98.529
 28.2136  9708.84  98.2837
 28.2556  9667.6  98.1775
 28.2976  9441.82  97.0262
 28.3396  9466.33  96.961
 28.3816  9593.69  97.5795
 28.4236  9463.61  97.0691
 28.4656  9478.21  97.1782
 28.5076  9490.74  96.8848
 28.5496  9496.33  97.1694
 28.5916  9415.69  96.5543
 28.6336  9479.36  97.2263
 28.6756  9475.98  96.4301
 28.7176  9397.78  96.5736
 28.7596  9319.36  96.0635
 28.8016  9278.39  95.9706
 28.8436  9317.15  96.3254
 28.8856  9384.05  96.5281
 28.9276  9350.18  96.5867
 28.9696  9272.78  95.8497
 29.0116  9213.02  95.7075
 29.0536  9080.51  95.2315
 29.0956  9237.78  95.7703
 29.1376  9229.4  95.6929
 29.1796  9286.62  96.0359
 29.2216  9230.45  95.5935
 29.2636  9251.15  95.6919
 29.3056  9177.77  95.181
 29.3476  9183.91  95.7246
 29.3896  9175.95  95.8
 29.4316  9026.35  94.369
 29.4736  9005.87  94.3244
 29.5156  9025.2  94.3517
 29.5576  9047.74  95.1833
 29.5996  8954.34  93.9768
 29.6416  8940.58  94.0194
 29.6836  8972.95  94.1176
 29.7256  8940.94  94.4962
 29.7676  8906.16  93.9881
 29.8096  8906.02  93.9308
 29.8516  8771.58  93.5379
 29.8936  8882.67  94.2182
 29.9356  9037.23  94.7913
 29.9776  8822.27  93.804
 30.0196  8885.03  93.5471
 30.0616  8780.73  93.3605
 30.1036  8949.48  94.0843
 30.1456  8879.37  93.9613
 30.1876  8764.57  93.3086
 30.2296  8871.43  93.8208
 30.2716  8918.46  93.7247
 30.3136  8869.52  94.0437
 30.3556  9099.98  95.5169
 30.3976  8951.19  96.1585
 30.4396  9296.06  95.3944
 30.4816  9037.55  93.6873
 30.5236  9192.53  94.4819
 30.5656  9020.36  94.2456
 30.6076  8891.07  93.3357
 30.6496  9119.13  94.5834
 30.6916  8909.75  93.5781
 30.7336  9047.7  94.4417
 30.7756  9014.91  94.5744
 30.8176  9107.2  94.7638
 30.8596  8972.41  93.8203
 30.9016  9165.76  94.6858
 30.9436  9187.36  95.0131
 30.9856  9210.6  95.2577
 31.0276  9086.76  94.2614
 31.0696  9079.03  94.644
 31.1116  8922.06  93.909
 31.1536  8849.63  93.4154
 31.1956  8843.29  93.4813
 31.2376  8791.19  93.2244
 31.2796  8951.97  93.6127
 31.3216  9069.26  94.1442
 31.3636  8934.5  94.1347
 31.4056  8933.25  95.4129
 31.4476  9024.67  93.839
 31.4896  8963  94.008
 31.5316  8939.27  93.3406
 31.5736  8970.98  93.3005
 31.6156  8912.02  93.0018
 31.6576  8949.51  93.2632
 31.6996  9174.1  94.1069
 31.7416  8978.16  94.026
 31.7836  8952.1  93.0435
 31.8256  8879  93.0081
 31.8676  9025.38  93.6896
 31.9096  8795.06  92.6978
 31.9516  8734  92.6815
 31.9936  8738.03  92.5314
 32.0356  8819.04  93.0043
 32.0776  8978.65  93.7405
 32.1196  9039.7  94.0697
 32.1616  8964.01  93.2205
 32.2036  8879.99  93.2876
 32.2456  8813.86  93.3052
 32.2876  8695.5  92.0309
 32.3296  8643.06  91.8725
 32.3716  8574.55  91.6317
 32.4136  8569.69  91.8078
 32.4556  8621.24  91.5332
 32.4976  8677.66  91.7336
 32.5396  8606.14  91.3648
 32.5816  8702.59  91.9105
 32.6236  8635.21  91.7048
 32.6656  8701.97  92.5977
 32.7076  8523.06  91.3044
 32.7496  8584.38  91.314
 32.7916  8649.44  91.624
 32.8336  8563.19  91.2561
 32.8756  8672.78  91.649
 32.9176  8334.15  90.2276
 32.9596  8468.53  91.0211
 33.0016  8676.88  91.9146
 33.0436  8558.27  91.4472
 33.0856  8495.35  91.2033
 33.1276  8422.05  90.5534
 33.1696  8451.13  90.5319
 33.2116  8538.9  91.2396
 33.2536  8641.32  91.7705
 33.2956  8549.53  91.3679
 33.3376  8263.41  89.6328
 33.3796  8417.15  90.6231
 33.4216  8410.46  90.1858
 33.4636  8494.09  90.7865
 33.5056  8397.2  90.3481
 33.5476  8514.2  91.109
 33.5896  8537.03  91.0067
 33.6316  8361.81  90.3821
 33.6736  8247.1  90.0094
 33.7156  8352.03  90.6052
 33.7576  8407.6  90.5611
 33.7996  8373.61  90.1466
 33.8416  8280.47  89.8233
 33.8836  8320.25  89.8208
 33.9256  8439.9  90.5122
 33.9676  8420.33  90.3142
 34.0096  8359.64  90.2912
 34.0516  8354.63  89.9091
 34.0936  8203.88  89.3625
 34.1356  8397.16  90.1472
 34.1776  8164.39  88.8836
 34.2196  8156.2  89.0221
 34.2616  8140.73  89.1392
 34.3036  8276.28  90.0398
 34.3456  8215.74  89.4833
 34.3876  8332.42  90.1712
 34.4296  8166.55  88.8894
 34.4716  8358.21  90.0699
 34.5136  8267.41  89.7569
 34.5556  8156.22  89.4191
 34.5976  8423.08  90.7025
 34.6396  8167.63  89.0134
 34.6816  8228.81  89.4408
 34.7236  8297.01  89.5995
 34.7656  8231.64  89.4489
 34.8076  8143.87  89.2965
 34.8496  8113.06  88.982
 34.8916  8180.87  89.2152
 34.9336  8244.91  89.5488
 34.9756  8302.45  89.7986
 35.0176  8140.82  89.4165
 35.0596  8315.82  90.1967
 35.1016  8185.49  89.2505
 35.1436  8385.9  90.0264
 35.1856  8235.1  89.3305
 35.2276  8139.32  88.9838
 35.2696  8176.91  89.3769
 35.3116  8065.45  88.8627
 35.3536  8149.05  89.0498
 35.3956  8105.56  88.5188
 35.4376  8190.81  89.5308
 35.4796  8170.4  89.4523
 35.5216  8143.21  89.1965
 35.5636  7875.44  88.5079
 35.6056  8059.41  88.582
 35.6476  8166.27  89.0763
 35.6896  8065.57  88.6958
 35.7316  8061.79  88.5707
 35.7736  8042.59  88.6433
 35.8156  8128.25  89.1167
 35.8576  8061.84  88.9969
 35.8996  8157.45  89.4912
 35.9416  8042.17  88.3696
 35.9836  7995.31  88.5497
 36.0256  8180.28  89.4849
 36.0676  8287.36  89.6111
 36.1096  8094.95  88.9081
 36.1516  8023.88  88.4236
 36.1936  8118.24  88.7742
 36.2356  8135.95  89.5252
 36.2776  8088.91  88.7294
 36.3196  8033.56  88.1182
 36.3616  8002.19  88.0706
 36.4036  7930.54  87.745
 36.4456  8103  88.9043
 36.4876  7829.4  87.3301
 36.5296  7940.89  87.9902
 36.5716  7935.42  88.7183
 36.6136  7727.79  86.38
 36.6556  7803.36  86.9887
 36.6976  7638.81  86.5508
 36.7396  7829.88  87.4544
 36.7816  7727.19  87.1518
 36.8236  7793.15  87.4501
 36.8656  7692.55  86.9483
 36.9076  7736.45  87.2041
 36.9496  7600.62  86.4468
 36.9916  7671.98  86.3432
 37.0336  7867.48  87.7422
 37.0756  7764.11  86.9657
 37.1176  7631.78  86.575
 37.1596  7500.68  85.7433
 37.2016  7576.21  86.3429
 37.2436  7757.17  86.7419
 37.2856  7611.87  86.1696
 37.3276  7822.36  86.7321
 37.3696  7553.48  86.0809
 37.4116  7597.5  86.241
 37.4536  7655.18  86.4378
 37.4956  7517.14  85.6969
 37.5376  7791.25  88.7927
 37.5796  7738.76  88.4202
 37.6216  7784.68  86.9838
 37.6636  7783.73  86.8709
 37.7056  7755.93  86.8871
 37.7476  7890.56  87.2021
 37.7896  7607.12  86.1179
 37.8316  7704.05  86.8079
 37.8736  7789.71  86.8304
 37.9156  7715.11  86.4047
 37.9576  7674.18  86.2392
 37.9996  7605.1  85.4206
 38.0416  7757.33  87.0587
 38.0836  7804.37  87.2423
 38.1256  7762.39  86.978
 38.1676  7523.45  85.7429
 38.2096  7715.3  86.4486
 38.2516  7853.98  87.3523
 38.2936  7914.82  87.5703
 38.3356  7720.89  86.4358
 38.3776  7612.35  86.0458
 38.4196  7674.69  86.2776
 38.4616  7533.81  85.7188
 38.5036  7772.16  86.9123
 38.5456  7568.8  86.5716
 38.5876  7622.26  86.9081
 38.6296  7596.97  85.7501
 38.6716  7679.54  86.0225
 38.7136  7550.03  85.235
 38.7556  7632.39  86.2001
 38.7976  7681.45  86.4076
 38.8396  7690.5  86.9129
 38.8816  7660.04  86.5355
 38.9236  7672.83  86.4125
 38.9656  7690.53  86.4228
 39.0076  7735.93  86.0831
 39.0496  7780.82  86.8832
 39.0916  7580.05  85.4092
 39.1336  7670.91  86.3192
 39.1756  7716.07  86.6213
 39.2176  7482.76  85.8384
 39.2596  7631.96  86.6145
 39.3016  7604.47  86.0503
 39.3436  7509.21  85.8991
 39.3856  7716.73  86.5301
 39.4276  7733.12  87.1339
 39.4696  7610.84  86.0695
 39.5116  7642.84  86.7572
 39.5536  7602.26  86.9381
 39.5956  7634.83  86.2482
 39.6376  7611.44  85.9482
 39.6796  7600.64  85.8096
 39.7216  7601.77  85.9101
 39.7636  7662.13  86.8031
 39.8056  7654.38  86.5515
 39.8476  7494.98  85.8904
 39.8896  7683.49  86.5997
 39.9316  7453.45  85.5204
 39.9736  7607.88  85.9985
 40.0156  7580.89  85.6838
 40.0576  7585.26  86.052
 40.0996  7656.36  85.6527
 40.1416  7651.4  86.403
 40.1836  7617.09  86.107
 40.2256  7640.12  86.266
 40.2676  7470.67  85.4758
 40.3096  7685.19  86.5547
 40.3516  7570.38  86.0945
 40.3936  7652.81  86.0502
 40.4356  7591.9  85.9005
 40.4776  7813.57  87.3827
 40.5196  7536.36  86.103
 40.5616  7787.89  87.1605
 40.6036  7601.02  86.376
 40.6456  7644.06  86.2231
 40.6876  7760.21  86.8779
 40.7296  7552.55  85.8352
 40.7716  7720.21  86.9063
 40.8136  7581.51  86.0697
 40.8556  7725.87  87.0041
 40.8976  7657.76  86.5549
 40.9396  7584.53  86.474
 40.9816  7672.86  86.2876
 41.0236  7597.98  85.657
 41.0656  7726.06  86.9015
 41.1076  7605.2  85.9971
 41.1496  7640.65  86.1006
 41.1916  7597.05  86.165
 41.2336  7671.61  86.5892
 41.2756  7590.64  85.7456
 41.3176  7736.42  87.1599
 41.3596  7587.98  86.0714
 41.4016  7639  86.6089
 41.4436  7671.36  86.5794
 41.4856  7614.06  86.4229
 41.5276  7595.93  86.3309
 41.5696  7538.2  85.6291
 41.6116  7627.55  86.521
 41.6536  7635.79  86.4277
 41.6956  7562.63  86.0056
 41.7376  7520.29  85.8634
 41.7796  7555.25  86.0005
 41.8216  7644.91  86.6866
 41.8636  7546.63  86.0812
 41.9056  7519.36  85.7151
 41.9476  7620.82  86.5151
 41.9896  7696.45  86.6168
 42.0316  7631.69  86.3416
 42.0736  7674.31  86.7149
 42.1156  7518.94  85.6418
 42.1576  7541.27  85.8766
 42.1996  7610.6  86.3834
 42.2416  7591.78  85.8838
 42.2836  7494.83  85.4486
 42.3256  7624.02  86.2718
 42.3676  7675.8  86.382
 42.4096  7691.18  86.4442
 42.4516  7634.19  86.1822
 42.4936  7561.66  85.8527
 42.5356  7518.25  85.753
 42.5776  7716.08  86.8143
 42.6196  7509.58  85.6156
 42.6616  7417.82  85.3379
 42.7036  7564.67  85.5647
 42.7456  7638.6  86.3324
 42.7876  7497.04  85.6185
 42.8296  7514.85  85.6255
 42.8716  7454.28  85.3837
 42.9136  7396.44  84.8073
 42.9556  7498.8  85.5603
 42.9976  7582.59  85.9992
 43.0396  7425.26  84.8406
 43.0816  7436.69  85.2833
 43.1236  7352.55  84.8352
 43.1656  7517.19  85.6246
 43.2076  7519.8  85.7439
 43.2496  7501.39  85.4619
 43.2916  7418.55  85.3356
 43.3336  7494.58  85.6112
 43.3756  7502.47  85.4155
 43.4176  7378.69  84.7924
 43.4596  7493.78  85.3021
 43.5016  7426.73  85.3146
 43.5436  7412.38  85.147
 43.5856  7402.13  85.1163
 43.6276  7251.11  84.1206
 43.6696  7382.88  85.0419
 43.7116  7477.56  85.1955
 43.7536  7521.98  85.9345
 43.7956  7254.66  85.5752
 43.8376  7163.35  83.614
 43.8796  7276.8  84.3509
 43.9216  7202.59  83.8383
 43.9636  7274.69  84.3652
 44.0056  7315.86  84.8311
 44.0476  7157.92  83.551
 44.0896  7167.87  83.9429
 44.1316  7180.89  83.6943
 44.1736  7188.29  83.7208
 44.2156  7352.28  84.5234
 44.2576  7174.36  83.8143
 44.2996  7253.86  84.2432
 44.3416  7294.63  84.251
 44.3836  7242.88  84.2759
 44.4256  7177.83  83.5443
 44.4676  7138.86  83.4704
 44.5096  7271.81  84.3859
 44.5516  7120.81  83.4728
 44.5936  7232.55  84.0768
 44.6356  7219.91  83.7459
 44.6776  7235.3  84.145
 44.7196  7231.12  84.3857
 44.7616  7222.56  85.6645
 44.8036  7314.86  84.8618
 44.8456  7331.43  84.9594
 44.8876  7198.63  84.0343
 44.9296  7381.63  84.5424
 44.9716  7412.19  85.1289
 45.0136  7322.53  84.5742
 45.0556  7278.9  84.4063
 45.0976  7326.61  84.7289
 45.1396  7286.96  84.2667
 45.1816  7280.66  83.9894
 45.2236  7443.23  85.0058
 45.2656  7172.17  83.9252
 45.3076  7305.07  84.4855
 45.3496  7238.93  84.4042
 45.3916  7187.75  84.3698
 45.4336  7263.07  84.6477
 45.4756  7226.78  84.3045
 45.5176  7296.46  84.3299
 45.5596  7435.13  85.2474
 45.6016  7401.5  85.478
 45.6436  7285.01  83.9897
 45.6856  7253.81  84.4375
 45.7276  7106.33  85.3729
 45.7696  7183.71  85.0233
 45.8116  7287.65  85.0767
 45.8536  7104.78  83.8912
 45.8956  7230.81  83.9944
 45.9376  7242.91  83.5399
 45.9796  7338.6  84.7801
 46.0216  7208.24  84.3505
 46.0636  7365.63  84.4161
 46.1056  7176.36  83.313
 46.1476  7220.91  84.1433
 46.1896  7220.32  84.2943
 46.2316  7282.34  84.5201
 46.2736  7184.43  84.1637
 46.3156  7212.15  84.0784
 46.3576  7333.46  84.98
 46.3996  7199.29  84.3508
 46.4416  7137.87  83.555
 46.4836  7208.46  84.3439
 46.5256  7248.22  84.5167
 46.5676  7144.15  84.0246
 46.6096  7203.15  84.299
 46.6516  7181.04  83.2182
 46.6936  7169.97  83.6548
 46.7356  7402.62  85.0906
 46.7776  7147.68  84.4601
 46.8196  7151.78  84.2278
 46.8616  7009.33  83.1953
 46.9036  6993.04  82.7529
 46.9456  7117.86  83.1422
 46.9876  7106.55  83.146
 47.0296  7082.52  83.6943
 47.0716  7046.74  83.3083
 47.1136  7111.56  83.3601
 47.1556  7120.06  83.2876
 47.1976  7205.82  83.9427
 47.2396  7101.47  83.6588
 47.2816  7069.68  83.17
 47.3236  7122.46  83.8438
 47.3656  7175.1  84.0881
 47.4076  7239.84  84.1974
 47.4496  7040.36  83.1895
 47.4916  7141.54  83.9748
 47.5336  7224.57  84.2856
 47.5756  7140.34  83.8694
 47.6176  6995.59  82.9496
 47.6596  7039  82.9245
 47.7016  7170.49  83.5069
 47.7436  7093.14  83.3922
 47.7856  7184.02  83.9497
 47.8276  7114.28  83.599
 47.8696  7120.03  83.7041
 47.9116  7092.22  83.2668
 47.9536  7030.04  82.8449
 47.9956  7022.48  83.4989
 48.0376  6939.31  82.7804
 48.0796  7017.11  83.3656
 48.1216  7117.25  83.7833
 48.1636  7272.1  84.2519
 48.2056  7109.37  83.5745
 48.2476  7178.14  84.2841
 48.2896  7069.74  83.5556
 48.3316  7245.96  84.5403
 48.3736  7017.58  83.2118
 48.4156  7030.61  83.1481
 48.4576  7084.08  83.7531
 48.4996  7184.66  83.8013
 48.5416  7163.99  84.0043
 48.5836  7094.97  83.2734
 48.6256  7089.1  83.4476
 48.6676  7134.03  84.2278
 48.7096  7088.8  83.2203
 48.7516  7001.86  82.8669
 48.7936  6950.79  82.6301
 48.8356  7034.66  83.1735
 48.8776  7116.73  84.1431
 48.9196  7232.49  84.2695
 48.9616  7023.19  83.4217
 49.0036  7112.8  84.3024
 49.0456  7052.85  83.9294
 49.0876  6970.13  83.0763
 49.1296  6905.16  82.7519
 49.1716  6883.64  82.4971
 49.2136  7057.34  83.4716
 49.2556  7035.45  83.3535
 49.2976  7091.24  83.7513
 49.3396  6926.58  82.827
 49.3816  7121.43  83.4122
 49.4236  7032.81  83.3171
 49.4656  6955.97  82.8854
 49.5076  7023.94  83.0368
 49.5496  7031.6  83.019
 49.5916  7026.26  83.0229
 49.6336  7008.59  83.1341
 49.6756  7097.46  83.8834
 49.7176  6984.47  83.1576
 49.7596  7026.52  83.3501
 49.8016  7085.24  83.4363
 49.8436  6932.52  82.8331
 49.8856  6951.45  82.9515
 49.9276  6987.86  83.267
 49.9696  7034.15  83.5254
 50.0116  6959.89  83.2108
 50.0536  6946.73  83.0866
 50.0956  6933.87  83.0742
 50.1376  7041.06  83.4084
 50.1796  6927.79  83.0093
 50.2216  6969.14  83.2415
 50.2636  6977.2  82.9199
 50.3056  6971.99  83.0603
 50.3476  6894.95  82.6143
 50.3896  6888.03  82.5558
 50.4316  6926.26  82.6153
 50.4736  6867.87  82.4835
 50.5156  6963.87  83.0484
 50.5576  7024.73  83.1634
 50.5996  6925.48  82.8617
 50.6416  7005.95  83.2678
 50.6836  6952.66  83.0096
 50.7256  7022.33  83.3539
 50.7676  7105.92  84.1141
 50.8096  6916.86  82.5674
 50.8516  6859  82.6386
 50.8936  6810.94  82.1396
 50.9356  6952.77  83.0942
 50.9776  7007.6  83.5857
 51.0196  6730.72  82.0434
 51.0616  6735.55  81.4012
 51.1036  6936.05  82.9665
 51.1456  6819.58  82.1755
 51.1876  6830.31  81.5818
 51.2296  6896.05  82.6069
 51.2716  6605.77  80.5687
 51.3136  6664.01  81.3777
 51.3556  6773.42  81.6638
 51.3976  6789.53  81.9067
 51.4396  6590.94  81.0111
 51.4816  6614.18  81.0115
 51.5236  6799.25  82.2202
 51.5656  6788.49  81.7518
 51.6076  6805.23  81.9355
 51.6496  6721.38  81.6213
 51.6916  6789.54  82.3896
 51.7336  6588.93  81.2568
 51.7756  6613.91  81.1068
 51.8176  6662.29  81.5052
 51.8596  6692.74  81.7156
 51.9016  6820.19  82.0915
 51.9436  6774.03  83.2939
 51.9856  6802.84  83.8808
 52.0276  6841.95  82.6092
 52.0696  6976.82  83.4915
 52.1116  6778.83  82.429
 52.1536  6684.29  81.6827
 52.1956  6719.36  81.4139
 52.2376  6805.33  82.0975
 52.2796  6824.41  82.037
 52.3216  6689.92  81.8972
 52.3636  6885.04  82.6406
 52.4056  6774.86  81.8593
 52.4476  6732.03  81.963
 52.4896  6759.62  82.1583
 52.5316  6811  82.5329
 52.5736  6598.22  80.9584
 52.6156  6806.86  82.624
 52.6576  6655.46  81.1481
 52.6996  6503.21  81.1783
 52.7416  6594.55  81.6105
 52.7836  6654.58  81.8688
 52.8256  6707.82  81.4076
 52.8676  6624.25  81.4758
 52.9096  6722.06  82.1427
 52.9516  6676.98  82.263
 52.9936  6659.04  82.5119
 53.0356  6743.67  82.0341
 53.0776  6814.27  82.7621
 53.1196  6761.17  82.5248
 53.1616  6747.58  82.504
 53.2036  6772.57  82.6187
 53.2456  6703.51  82.3019
 53.2876  6665.24  81.755
 53.3296  6742.44  82.5405
 53.3716  6877.23  83.1222
 53.4136  6763.48  82.5893
 53.4556  6629.86  81.7976
 53.4976  6623.06  81.5853
 53.5396  6671.3  82.2965
 53.5816  6712.25  82.1745
 53.6236  6643.16  82.1017
 53.6656  6700.04  82.0428
 53.7076  6795.97  82.5671
 53.7496  6688.12  82.0583
 53.7916  6684.4  82.1898
 53.8336  6631.12  81.7413
 53.8756  6503.77  81.5181
 53.9176  6600.52  81.4466
 53.9596  6389.75  80.8978
 54.0016  6463.82  80.6974
 54.0436  6346.1  80.179
 54.0856  6418.04  80.0732
 54.1276  6398.62  80.1353
 54.1696  6414.1  80.3942
 54.2116  6516.48  80.7893
 54.2536  6445.21  80.1418
 54.2956  6408.17  79.9744
 54.3376  6365.68  80.1948
 54.3796  6358.07  80.0176
 54.4216  6480.96  80.8778
 54.4636  6303.23  79.711
 54.5056  6394.34  80.0934
 54.5476  6420.49  80.5809
 54.5896  6283.28  79.583
 54.6316  6386.65  80.0572
 54.6736  6331.87  79.7663
 54.7156  6405.18  80.2985
 54.7576  6284.8  79.514
 54.7996  6446.34  80.692
 54.8416  6283.32  79.7097
 54.8836  6345.69  80.2019
 54.9256  6369.62  80.0958
 54.9676  6280.46  79.4218
 55.0096  6356.95  79.9372
 55.0516  6217.71  79.2114
 55.0936  6331.19  79.6762
 55.1356  6299.56  79.5092
 55.1776  6288.2  79.6522
 55.2196  6320.67  79.6718
 55.2616  6359  80.1302
 55.3036  6222.25  79.4385
 55.3456  6146.88  79.1044
 55.3876  6231.86  79.3414
 55.4296  6154.43  78.8778
 55.4716  6144.45  78.8466
 55.5136  6252.09  79.2908
 55.5556  6314.26  79.7296
 55.5976  6260.67  79.4676
 55.6396  6219.3  79.0681
 55.6816  6111.71  78.3339
 55.7236  6187.79  78.9774
 55.7656  6270.85  79.1445
 55.8076  6169.85  78.5041
 55.8496  6268.18  79.5512
 55.8916  6159.59  78.8919
 55.9336  6253.72  79.378
 55.9756  6164.01  78.6792
 56.0176  6126.91  78.6038
 56.0596  6168.49  78.8609
 56.1016  6094.45  78.4398
 56.1436  6115.64  78.7859
 56.1856  5977.64  77.6549
 56.2276  6310.43  79.8209
 56.2696  6079.43  78.3339
 56.3116  6196.16  79.4258
 56.3536  6138.33  78.7532
 56.3956  6061.58  78.2498
 56.4376  6090.8  78.4782
 56.4796  5958.75  77.4361
 56.5216  6019.4  78.1962
 56.5636  6044.75  77.9456
 56.6056  6214.08  79.2561
 56.6476  6096.82  78.1398
 56.6896  6254.57  79.5699
 56.7316  6076.36  78.3517
 56.7736  6088.93  78.4402
 56.8156  6104.23  78.5756
 56.8576  5955.23  77.5461
 56.8996  6039.19  78.0062
 56.9416  6001.84  77.9314
 56.9836  6087.92  78.1431
 57.0256  6001.48  77.9092
 57.0676  6162.39  79.0588
 57.1096  6042.89  78.0766
 57.1516  5894.48  77.1308
 57.1936  6012.78  77.6944
 57.2356  5967.17  77.728
 57.2776  5965.96  77.6816
 57.3196  6032.4  78.4449
 57.3616  6076.91  78.2164
 57.4036  6104.55  78.4643
 57.4456  6130.89  78.6117
 57.4876  6032.43  77.8571
 57.5296  5952.88  77.5608
 57.5716  5951.47  77.6652
 57.6136  5844.22  76.7921
 57.6556  5943.69  77.5655
 57.6976  5996.3  77.751
 57.7396  5934.23  77.6839
 57.7816  5921.3  77.9709
 57.8236  5893.88  77.5689
 57.8656  5962.88  77.7061
 57.9076  5953.83  77.6663
 57.9496  5855.51  77.3655
 57.9916  5918.74  77.2492
 58.0336  5773.22  76.6223
 58.0756  5925.96  77.223
 58.1176  6055.53  78.1018
 58.1596  5927.47  77.8578
 58.2016  5827.64  76.4546
 58.2436  5710.44  76.0604
 58.2856  5630.65  75.4542
 58.3276  5666.58  76.0415
 58.3696  5622.47  75.5169
 58.4116  5765.85  76.3427
 58.4536  5692.28  75.7363
 58.4956  5665.14  75.7372
 58.5376  5775.37  76.0509
 58.5796  5734.42  76.1922
 58.6216  5771.83  76.2626
 58.6636  5688.82  75.9204
 58.7056  5642.62  75.4697
 58.7476  5717.61  76.4009
 58.7896  5643.26  75.5628
 58.8316  5672.31  75.7488
 58.8736  5744.89  76.2464
 58.9156  5718.52  76.1102
 58.9576  5604.42  75.5523
 58.9996  5726.71  75.7487
 59.0416  5715.87  76.029
 59.0836  5715.46  75.9352
 59.1256  5649.26  75.8921
 59.1676  5697.05  76.802
 59.2096  5573.68  75.3079
 59.2516  5599.95  75.0818
 59.2936  5823.09  76.8852
 59.3356  5803.76  76.6376
 59.3776  5698.05  76.1007
 59.4196  5652.23  75.7314
 59.4616  5697.19  75.8967
 59.5036  5510.15  74.6744
 59.5456  5753.89  76.0086
 59.5876  5749.54  76.1663
 59.6296  5579.05  75.0951
 59.6716  5612.28  75.3743
 59.7136  5691.06  75.8901
 59.7556  5647.6  75.7317
 59.7976  5518.42  74.6141
 59.8396  5726.26  75.9032
 59.8816  5579.27  75.4472
 59.9236  5576.89  75.0884
 59.9656  5616.49  75.6061
 60.0076  5703.76  75.5665
 60.0496  5562.86  75.1051
 60.0916  5666.17  75.2415
 60.1336  5628.67  76.0612
 60.1756  5636.04  77.2551
 60.1996  0.0000000E+00  0.0000000E+00