File: docs/examples/opeando_xrd/IS17_D/Data/IS17_D/17_Da_f00121.xye
# /beamlines/bl04/projects/cycle2025-II/20250340211-lsimonelli/DATA/IS17_D/17_Da_f00121.xye : mythproc.py merge -s 0.006 -l 0.5 -f /beamlines/bl04/inhouse/ff/FlatField/ff_20Nov2024rod8mm60s_17keV.raw -b True -c true -o xye /beamlines/bl04/projects/cycle2025-II/20250340211-lsimonelli/DATA/IS17_D/17_Da_00121.dat
# IsMon = [6742340, 6742789, 6740899]  IsPos = [-1.4999, -2.4884, -3.4989]
# Wave = 0.4962  CalPath /beamlines/bl04/projects/cycle2025-II/20250340211-lsimonelli/DATA/Align/Si_Pos1_25keV_f00001.cal
# Date = 2025-09-25_03:16:32 Dt = 4.8000  Bin = 0.0060  <imon> = 6742009 +/- 806 (Min/Max) 6740899 / 6742789
# icurr 248.6479  mocoIn 1.6972E-05  mocoOut 0.7974  i15 7.06287e+06  imon 6.74201e+06  i7 4.6667  iEMpd_timer 4.8000  iEMpd_1 3.5075E-08  iEMpd_2 8.0121E-08  iEMpd_3 1.8414E-08  iEMpd_4 4.7657E-08  iEMhp_timer 4.8000  iEMhp_1 4.8591E-06  iEMhp_2 -2.4323E-08  iEMhp_3 -2.6381E-08  iEMhp_4 -2.0325E-08
#      9776
 1.5856  40210.4  205.903
 1.6276  47496.7  219.941
 1.6696  53774.6  233.201
 1.7116  61963.9  250.818
 1.7536  71745  268.739
 1.7956  76270.8  277.779
 1.8376  72318.7  270.915
 1.8796  61209.8  247.416
 1.9216  49188.1  222.668
 1.9636  41578  203.879
 2.0056  37400.2  192.617
 2.0476  35163.5  188.816
 2.0896  33794.3  184.018
 2.1316  32864.2  180.596
 2.1736  30690.7  175.906
 2.2156  31730.5  177.426
 2.2576  30661.1  175.036
 2.2996  29400.8  172.029
 2.3416  29520.6  171.004
 2.3836  28952.8  169.456
 2.4256  28498.6  168.669
 2.4676  27896.5  166.641
 2.5096  27733.7  166.209
 2.5516  26963.6  167.674
 2.5936  26914.3  164.143
 2.6356  26587.2  163.831
 2.6776  26621.6  162.827
 2.7196  26181  161.988
 2.7616  26039.9  161.328
 2.8036  25587.4  160.091
 2.8456  25715.1  161.105
 2.8876  25160.9  159.239
 2.9296  24863  158.419
 2.9716  24695.8  157.377
 3.0136  24505.4  156.836
 3.0556  24459.7  157.085
 3.0976  24444.6  155.962
 3.1396  24068.7  155.485
 3.1816  23879.9  154.806
 3.2236  23553.8  153.739
 3.2656  23661.5  153.13
 3.3076  23432.4  153.838
 3.3496  23662.8  153.535
 3.3916  24065.6  154.662
 3.4336  24606.9  156.97
 3.4756  24853.6  157.685
 3.5176  25833.8  160.551
 3.5596  25563.9  162.155
 3.6016  25719.5  160.263
 3.6436  24986.8  159.06
 3.6856  24412.4  155.531
 3.7276  23620.8  154.071
 3.7696  23544.5  154.026
 3.8116  22938  151.912
 3.8536  22999.3  152.048
 3.8956  23096.2  152.192
 3.9376  23015.1  152.176
 3.9796  23010.1  151.67
 4.0216  23089.1  150.958
 4.0636  23021.8  152.218
 4.1056  23033.5  151.897
 4.1476  22986  152.055
 4.1896  23355.3  153.132
 4.2316  23473.2  153.345
 4.2736  23940.7  154.653
 4.3156  24140.6  155.53
 4.3576  24970.2  158.1
 4.3996  25000.5  158.451
 4.4416  25633.2  160.031
 4.4836  26024  161.394
 4.5256  26513.4  163.522
 4.5676  26346.9  163.262
 4.6096  26912.6  163.657
 4.6516  27481.3  165.091
 4.6936  27717.9  166.62
 4.7356  27733  166.49
 4.7776  27648.5  166.069
 4.8196  27477.7  166.203
 4.8616  26947.8  164.076
 4.9036  26632.8  162.859
 4.9456  26452.4  162.955
 4.9876  25925.8  161.228
 5.0296  26426.2  162.594
 5.0716  26210.5  162.714
 5.1136  26483.8  163.256
 5.1556  26548.7  162.926
 5.1976  26839.5  163.803
 5.2396  27230.9  164.689
 5.2816  26936.3  164.257
 5.3236  27232.3  164.865
 5.3656  26659.4  164.035
 5.4076  26482.7  163.65
 5.4496  26648.1  163.641
 5.4916  26761.1  163.747
 5.5336  26755.4  163.811
 5.5756  26509.2  163.006
 5.6176  26804.3  163.349
 5.6596  26991.6  164.894
 5.7016  27228.9  164.88
 5.7436  27274.9  164.916
 5.7856  27202.8  165.132
 5.8276  27571.2  165.973
 5.8696  27648.5  166.371
 5.9116  27652.4  166.991
 5.9536  27746.5  167.024
 5.9956  28249  167.901
 6.0376  28382.9  168.93
 6.0796  28311.1  168.55
 6.1216  28405.8  169.038
 6.1636  28725  169.042
 6.2056  28749.1  169.784
 6.2476  28879  170.037
 6.2896  29103.2  170.377
 6.3316  28928.2  170.033
 6.3736  29214.1  170.767
 6.4156  29296  170.898
 6.4576  29313.6  170.56
 6.4996  29471.9  171.505
 6.5416  29520.3  171.778
 6.5836  29688.5  172.344
 6.6256  29700.5  172.095
 6.6676  30091.4  172.791
 6.7096  30018.5  173.429
 6.7516  30492.5  174.456
 6.7936  30760.9  174.644
 6.8356  30879.3  175.059
 6.8776  31134.3  176.588
 6.9196  31253  177.326
 6.9616  31672.7  177.949
 7.0036  31876.4  178.175
 7.0456  31984.5  177.766
 7.0876  32081.1  179.738
 7.1296  31793.1  178.063
 7.1716  31875.8  177.831
 7.2136  31567.5  176.751
 7.2556  31916.5  177.886
 7.2976  32118  178.95
 7.3396  31863.6  178.451
 7.3816  31866.5  178.678
 7.4236  32327  179.248
 7.4656  32097.9  178.096
 7.5076  32553.2  179.491
 7.5496  32484.8  179.848
 7.5916  32557.1  180.077
 7.6336  32900.2  180.994
 7.6756  32999.6  181.042
 7.7176  33337.3  182.268
 7.7596  33598.6  184.247
 7.8016  33835.7  187.079
 7.8436  33959.2  184.258
 7.8856  34348.6  184.771
 7.9276  35169.8  187.362
 7.9696  35236.2  187.85
 8.0116  36371.9  189.373
 8.0536  36435.8  189.797
 8.0956  36402  190.888
 8.1376  36785.8  191.366
 8.1796  36898.9  192.201
 8.2216  37829.4  193.064
 8.2636  37945.7  193.887
 8.3056  37915.5  194.595
 8.3476  38540.1  195.501
 8.3896  37896.6  193.948
 8.4316  38705.9  196.173
 8.4736  38550  195.234
 8.5156  38016.7  194.159
 8.5576  37774.4  194.523
 8.5996  38246.1  194.59
 8.6416  37652  194.337
 8.6836  37573.2  193.973
 8.7256  38166.6  194.935
 8.7676  37608.7  196.425
 8.8096  37585.1  193.651
 8.8516  37360.7  192.683
 8.8936  36872.4  191.315
 8.9356  36631.9  191.033
 8.9776  36958.8  191.98
 9.0196  36693.8  190.953
 9.0616  37095.8  191.554
 9.1036  36273.8  190.532
 9.1456  36745.7  191.122
 9.1876  36959.4  191.62
 9.2296  36697.5  190.346
 9.2716  35897.1  188.315
 9.3136  36120.7  188.881
 9.3556  36356  189.472
 9.3976  34837.2  186.007
 9.4396  35217.7  186.91
 9.4816  34783.7  185.616
 9.5236  34691.1  185.286
 9.5656  34793.5  185.882
 9.6076  34552.2  185.774
 9.6496  34151.1  184.616
 9.6916  34503.5  185.538
 9.7336  34598.4  185.568
 9.7756  34387.8  186.273
 9.8176  33720  183.933
 9.8596  33479.8  181.715
 9.9016  33202.1  180.954
 9.9436  32986.6  180.275
 9.9856  32571.2  179.364
 10.0276  32153.3  179.321
 10.0696  32394.7  179.026
 10.1116  31433.2  176.613
 10.1536  31497.3  176.961
 10.1956  31020.6  175.216
 10.2376  30768  174.003
 10.2796  30694.1  173.92
 10.3216  30411.7  173.391
 10.3636  30071.1  172.447
 10.4056  29841.7  172.187
 10.4476  29996.8  172.254
 10.4896  29832  171.234
 10.5316  29197.2  170.112
 10.5736  28959.1  169.821
 10.6156  28785.3  169.08
 10.6576  29042.6  168.393
 10.6996  28540.8  167.6
 10.7416  28181.2  166.775
 10.7836  28523.4  168.488
 10.8256  28162  167.859
 10.8676  28132.4  167.292
 10.9096  27880.1  166.586
 10.9516  27720.2  165.028
 10.9936  27454.3  164.427
 11.0356  27400.2  164.912
 11.0776  27368.4  164.119
 11.1196  26808.4  163.18
 11.1616  26543.2  162.06
 11.2036  26603.7  162.102
 11.2456  26713.9  163.143
 11.2876  26623.2  162.596
 11.3296  26417.3  161.868
 11.3716  26655.7  162.285
 11.4136  26798.8  163.624
 11.4556  26899.7  163.602
 11.4976  27528.5  164.446
 11.5396  27822.7  165.495
 11.5816  27737.2  165.711
 11.6236  26880  163.35
 11.6656  26626.2  161.727
 11.7076  25975.9  160.585
 11.7496  25674.2  162.785
 11.7916  25624.7  158.756
 11.8336  25472.1  159.179
 11.8756  25111  157.581
 11.9176  25286.6  157.778
 11.9596  24863.9  156.637
 12.0016  24997.4  157.864
 12.0436  24754.6  156.512
 12.0856  24738.8  156.995
 12.1276  24746  156.836
 12.1696  24610.6  155.635
 12.2116  24948.6  156.7
 12.2536  24354.7  155.651
 12.2956  24505.2  155.337
 12.3376  24330.6  155.115
 12.3796  24451.6  155.96
 12.4216  24666.1  155.857
 12.4636  24038.8  154.776
 12.5056  24473.8  155.514
 12.5476  24478.4  154.98
 12.5896  24422.9  155.44
 12.6316  24053.8  154.414
 12.6736  24024.1  154.805
 12.7156  23988.6  154.556
 12.7576  24289.3  155.764
 12.7996  24305.5  154.457
 12.8416  24185.8  155.129
 12.8836  24649.5  156.442
 12.9256  24810.4  155.956
 12.9676  24985.3  156.936
 13.0096  24525.4  156.583
 13.0516  24865.5  156.693
 13.0936  24762  156.769
 13.1356  25153.1  156.98
 13.1776  24903.3  157.189
 13.2196  25150.4  157.627
 13.2616  24904.9  157.169
 13.3036  24764.6  156.697
 13.3456  24827.1  157.433
 13.3876  24743.8  156.272
 13.4296  24856  156.781
 13.4716  24864.7  156.411
 13.5136  25123.7  157.379
 13.5556  25112  157.67
 13.5976  25000.5  157.753
 13.6396  25158.1  157.618
 13.6816  24791.2  156.962
 13.7236  25410.3  158.548
 13.7656  24600.4  156.536
 13.8076  24839.5  156.075
 13.8496  24613.4  155.963
 13.8916  24553.1  156.784
 13.9336  24590.4  156.117
 13.9756  24387  154.82
 14.0176  24194  154.798
 14.0596  24205.5  154.894
 14.1016  24121.5  155.024
 14.1436  24022.2  153.828
 14.1856  23534.4  152.55
 14.2276  23448.1  152.715
 14.2696  23631.5  153.201
 14.3116  23263.6  151.905
 14.3536  22864.4  150.769
 14.3956  22889.2  150.575
 14.4376  23170.1  151.279
 14.4796  22954.8  150.561
 14.5216  22548.2  150.029
 14.5636  22384.7  149.042
 14.6056  22724.5  149.744
 14.6476  22533.5  148.342
 14.6896  22116.1  147.499
 14.7316  21786.7  147.421
 14.7736  21829.5  146.716
 14.8156  21362.9  145.174
 14.8576  21419.2  145.221
 14.8996  20916  144.711
 14.9416  20539.5  143.4
 14.9836  20949.6  144.794
 15.0256  20540.9  142.295
 15.0676  20608.8  142.75
 15.1096  20676.6  142.815
 15.1516  20125.1  141.455
 15.1936  19887.3  140.048
 15.2356  20045.6  140.887
 15.2776  19895.9  140.371
 15.3196  19442.7  139.345
 15.3616  19386  138.897
 15.4036  19236.6  138.21
 15.4456  19462.3  138.674
 15.4876  19173.9  137.315
 15.5296  19038  137.111
 15.5716  18618.4  135.198
 15.6136  18777.1  136.094
 15.6556  18708.5  135.469
 15.6976  18508.2  134.656
 15.7396  18431.9  134.777
 15.7816  18221.6  133.515
 15.8236  17989.3  133.305
 15.8656  18027  133.287
 15.9076  17848.6  132.455
 15.9496  17853.7  135.259
 15.9916  17783.2  135.458
 16.0336  17400  130.876
 16.0756  17562.2  131.797
 16.1176  17475.2  131.543
 16.1596  16931.7  130.648
 16.2016  17491.7  131.532
 16.2436  17088.5  130.386
 16.2856  17111.5  130.019
 16.3276  16836.9  129.392
 16.3696  16945.8  129.623
 16.4116  16715  129.202
 16.4536  16849.9  129.508
 16.4956  16700.2  128.657
 16.5376  16831.8  129.362
 16.5796  16693.7  128.184
 16.6216  16676.6  128.426
 16.6636  16625.2  128.385
 16.7056  16702.5  128.54
 16.7476  16534.6  127.419
 16.7896  16598.5  128.425
 16.8316  16590.2  128.355
 16.8736  16602.8  128.667
 16.9156  16566.4  128.868
 16.9576  16482.3  129.34
 16.9996  16623.4  130.391
 17.0416  16652  128.829
 17.0836  16330.7  127.337
 17.1256  16132.8  126.574
 17.1676  16339.7  127.378
 17.2096  16200.3  126.708
 17.2516  15826.6  125.021
 17.2936  16101.4  126.427
 17.3356  15747  125.033
 17.3776  15548.7  124.435
 17.4196  15788.9  125.083
 17.4616  15346.8  123.237
 17.5036  15475  124.118
 17.5456  15343.2  124.233
 17.5876  15321  123.186
 17.6296  15255.9  122.743
 17.6716  15118.1  122.761
 17.7136  15078.3  122.742
 17.7556  15130.4  123.242
 17.7976  15028  122.568
 17.8396  15142.8  122.529
 17.8816  14906.7  122.117
 17.9236  14760.2  121.325
 17.9656  15025.2  122.96
 18.0076  15050.2  122.637
 18.0496  14926.6  121.262
 18.0916  14773.8  121.093
 18.1336  14857.6  121.618
 18.1756  14987.2  121.676
 18.2176  14790.2  121.101
 18.2596  14664.2  120.316
 18.3016  14810.4  121.171
 18.3436  14702.4  120.734
 18.3856  14489.7  120.186
 18.4276  14712.8  120.59
 18.4696  14653.7  120.44
 18.5116  14832.2  121.464
 18.5536  14637.6  121.025
 18.5956  14391.3  119.553
 18.6376  14460.3  120.247
 18.6796  14359.4  119.146
 18.7216  14684.1  120.978
 18.7636  14153.8  118.759
 18.8056  14480.8  120.07
 18.8476  14247  119.722
 18.8896  14299.8  119.279
 18.9316  14431.9  119.818
 18.9736  14412.1  119.426
 19.0156  14310.3  119.404
 19.0576  14243.1  117.99
 19.0996  14415.1  119.414
 19.1416  14151.2  118.709
 19.1836  14282.1  118.859
 19.2256  14186.4  118.771
 19.2676  14380.5  119.58
 19.3096  14338.9  119.655
 19.3516  14157.3  118.85
 19.3936  14191.8  118.895
 19.4356  14136.8  118.532
 19.4776  14198  118.89
 19.5196  14147.2  118.527
 19.5616  14199  119.003
 19.6036  14092.7  118.051
 19.6456  14106.4  118.226
 19.6876  14124  117.949
 19.7296  14064.3  118.148
 19.7716  14073.7  118.355
 19.8136  14208.3  119.134
 19.8556  14397.6  119.393
 19.8976  14368.8  119.342
 19.9396  14592.3  119.837
 19.9816  14721  120.606
 20.0236  14829.5  121.276
 20.0656  15261.5  123.027
 20.1076  14875.8  121.932
 20.1496  14615.8  120.873
 20.1916  14396.8  119.465
 20.2336  14300.3  119
 20.2756  14032.4  118.316
 20.3176  13803.4  117.092
 20.3596  13918.6  117.557
 20.4016  13932.4  117.416
 20.4436  13780.3  117.238
 20.4856  13550  116.134
 20.5276  13648.6  117.024
 20.5696  13500.4  115.839
 20.6116  13544.2  116.314
 20.6536  13718.3  116.525
 20.6956  13523.6  115.858
 20.7376  13484.7  115.922
 20.7796  13379  115.147
 20.8216  13624.4  115.904
 20.8636  13313.3  114.936
 20.9056  13377.2  115.169
 20.9476  13183.1  114.168
 20.9896  13529.2  115.523
 21.0316  13528.2  115.416
 21.0736  13305.2  114.986
 21.1156  13286.8  115.066
 21.1576  13209.3  114.771
 21.1996  13236.3  114.872
 21.2416  13109.9  114.153
 21.2836  13354.6  115.173
 21.3256  13145.1  114.403
 21.3676  13212.6  114.193
 21.4096  13172.4  114.334
 21.4516  13050  113.68
 21.4936  12908.3  113.313
 21.5356  13126.6  114.213
 21.5776  13130.3  114.065
 21.6196  12984.5  113.448
 21.6616  12974.5  113.505
 21.7036  12931.9  113.101
 21.7456  13090.1  113.863
 21.7876  12972.4  113.098
 21.8296  13016.9  113.148
 21.8716  12872.3  112.748
 21.9136  13129.3  114.074
 21.9556  12956.8  112.991
 21.9976  12880.3  112.676
 22.0396  12884  112.934
 22.0816  12842  113.308
 22.1236  13099.9  113.884
 22.1656  12942.8  113.678
 22.2076  13064.7  113.326
 22.2496  12885.3  112.571
 22.2916  12885.1  112.453
 22.3336  12834.2  112.958
 22.3756  12857.3  112.78
 22.4176  12753.2  112.181
 22.4596  12622.2  112.193
 22.5016  12728.7  112.156
 22.5436  13035.7  113.496
 22.5856  12881.1  112.952
 22.6276  12881.7  113.093
 22.6696  12941.9  113.714
 22.7116  12775.2  112.487
 22.7536  12902.3  113.023
 22.7956  12787.9  111.84
 22.8376  12719.1  112.076
 22.8796  12631.9  111.487
 22.9216  12886.4  113.161
 22.9636  12773.7  111.808
 23.0056  12710.6  111.667
 23.0476  12972.6  113.389
 23.0896  13078.2  113.218
 23.1316  13044.9  113.517
 23.1736  12906.2  115.887
 23.2156  13041.4  113.836
 23.2576  12853.1  113.133
 23.2996  12905.5  113.156
 23.3416  12720.8  112.856
 23.3836  12636.1  111.713
 23.4256  12894.3  112.969
 23.4676  12740.9  111.995
 23.5096  12783.6  112.863
 23.5516  12560.7  111.155
 23.5936  12693.3  112.648
 23.6356  13003.8  113.675
 23.6776  12709.9  112.61
 23.7196  12471.9  111.119
 23.7616  12677.5  111.951
 23.8036  12601  111.648
 23.8456  12758.6  111.761
 23.8876  12353.3  110.47
 23.9296  12467.8  111.475
 23.9716  12373.8  110.257
 24.0136  12633.5  112.312
 24.0556  12534.2  111.601
 24.0976  12318.8  110.443
 24.1396  12114  112.156
 24.1816  12316.7  111.502
 24.2236  12283.8  110.959
 24.2656  12145.3  109.804
 24.3076  12085.6  109.785
 24.3496  12207.5  110.227
 24.3916  12048.5  109.558
 24.4336  12026.3  109.665
 24.4756  11923.5  109.07
 24.5176  11866  108.45
 24.5596  11801.5  108.283
 24.6016  11796.5  108.545
 24.6436  11732  107.736
 24.6856  11787.9  107.758
 24.7276  11740.7  107.858
 24.7696  11672.1  107.658
 24.8116  11623.8  107.619
 24.8536  11569.1  107.352
 24.8956  11487.3  106.715
 24.9376  11595.6  107.153
 24.9796  11392.1  106.565
 25.0216  11151.4  105.539
 25.0636  11375.8  106.253
 25.1056  11294  106.575
 25.1476  11504  109.238
 25.1896  11503.7  107.706
 25.2316  11422.9  106.597
 25.2736  11349.8  105.903
 25.3156  11310.1  105.796
 25.3576  11363.3  106.468
 25.3996  11390.2  106.579
 25.4416  11148.7  105.42
 25.4836  11143.4  105.924
 25.5256  11169.6  105.411
 25.5676  11236.2  105.453
 25.6096  11143.9  105.596
 25.6516  11185.4  105.289
 25.6936  11096.5  105.181
 25.7356  11223.1  105.915
 25.7776  11192  105.375
 25.8196  11024.2  104.815
 25.8616  11031.1  104.771
 25.9036  11128.5  104.699
 25.9456  11015.2  104.76
 25.9876  11053  105.006
 26.0296  11088.7  104.683
 26.0716  11015.5  104.761
 26.1136  11117.3  105.186
 26.1556  11135.3  104.652
 26.1976  11038.6  105.127
 26.2396  11121.2  104.667
 26.2816  10805.3  103.772
 26.3236  11063.1  105.164
 26.3656  11026.7  104.714
 26.4076  11073.9  105.152
 26.4496  11466.2  106.475
 26.4916  11039.9  104.484
 26.5336  11021.6  104.806
 26.5756  11534.4  106.952
 26.6176  10983  104.452
 26.6596  10800.1  103.882
 26.7016  10885.1  104.045
 26.7436  10849.1  104.008
 26.7856  10780.6  103.662
 26.8276  10773.6  103.576
 26.8696  10706.3  103.135
 26.9116  10824.1  103.649
 26.9536  10684.7  103.011
 26.9956  10658.8  102.923
 27.0376  10475.8  102.249
 27.0796  10668.2  102.92
 27.1216  10574.8  102.54
 27.1636  10403.6  101.875
 27.2056  10579.9  102.617
 27.2476  10514.9  102.301
 27.2896  10609.3  102.871
 27.3316  10490.1  102
 27.3736  10519.7  102.416
 27.4156  10402.1  101.681
 27.4576  10463  102.212
 27.4996  10354.5  101.274
 27.5416  10413.3  101.882
 27.5836  10443.6  101.845
 27.6256  10775.8  103.615
 27.6676  10598  102.782
 27.7096  10371.6  101.547
 27.7516  10304.3  101.277
 27.7936  10278.9  101.411
 27.8356  10304.4  101.159
 27.8776  10270.1  101.029
 27.9196  10227.3  100.661
 27.9616  10269.9  101.086
 28.0036  10117.1  100.291
 28.0456  10319.4  101.426
 28.0876  10232.7  101.086
 28.1296  10187.1  100.702
 28.1716  10124  100.394
 28.2136  10176.7  100.627
 28.2556  10051  100.111
 28.2976  10054.3  100.12
 28.3396  10079.5  100.009
 28.3816  10126.1  100.26
 28.4236  10151  100.54
 28.4656  9986.88  99.7543
 28.5076  9999.27  99.4408
 28.5496  9922.62  99.3348
 28.5916  10219.4  100.615
 28.6336  9879.01  99.2617
 28.6756  10147.1  99.7972
 28.7176  9925.53  99.2456
 28.7596  9956.1  99.3
 28.8016  10019.6  99.6457
 28.8436  9840.69  98.9984
 28.8856  9876.63  99.0313
 28.9276  9952.74  99.6523
 28.9696  9973.99  99.4129
 29.0116  9828.87  98.8825
 29.0536  9779.48  98.8243
 29.0956  9829.97  98.8019
 29.1376  9774.9  98.4876
 29.1796  9681.43  98.057
 29.2216  9939.16  99.1964
 29.2636  9887.78  99.0109
 29.3056  9844.42  98.59
 29.3476  9870.64  99.2482
 29.3896  9846.88  99.2293
 29.4316  10039.4  99.5237
 29.4736  9757.79  98.1831
 29.5156  9920.78  98.9152
 29.5576  9810.57  99.1107
 29.5996  9747.37  98.0463
 29.6416  9654.94  97.6975
 29.6836  9782.36  98.2697
 29.7256  9745.12  98.6523
 29.7676  9766.84  98.4211
 29.8096  9680.43  97.9255
 29.8516  9687.88  98.3025
 29.8936  9764.42  98.7778
 29.9356  9744.17  98.4316
 29.9776  9646.96  98.0904
 30.0196  9683.55  97.6498
 30.0616  9775.75  98.5058
 30.1036  9629.78  97.5864
 30.1456  9680.17  98.0851
 30.1876  9731.35  98.3168
 30.2296  9617.22  97.6911
 30.2716  9687.36  97.6791
 30.3136  9791.4  99.0716
 30.3556  9671.37  98.4705
 30.3976  9445.69  98.8469
 30.4396  9736.12  97.6465
 30.4816  9831.35  97.719
 30.5236  9498.27  96.0615
 30.5656  9714.39  97.8169
 30.6076  9640.25  96.8678
 30.6496  9655.14  97.3311
 30.6916  9466.58  96.4729
 30.7336  9587.78  97.2388
 30.7756  9513.41  96.9515
 30.8176  9436.26  96.4753
 30.8596  9627.9  97.2164
 30.9016  9479.74  96.8087
 30.9436  9573.15  97.037
 30.9856  9477.52  96.6524
 31.0276  9493.23  96.3458
 31.0696  9436.83  96.6375
 31.1116  9355.15  96.1921
 31.1536  9415.5  96.3887
 31.1956  9342.89  96.1009
 31.2376  9369.57  96.2505
 31.2796  9327.31  95.564
 31.3216  9490.51  96.3406
 31.3636  9446.13  96.809
 31.4056  9453.08  98.1666
 31.4476  9360.75  95.5701
 31.4896  9370.15  96.1201
 31.5316  9394.24  95.6402
 31.5736  9337.22  95.1651
 31.6156  9389.92  95.459
 31.6576  9317.99  95.1919
 31.6996  9369.52  95.1263
 31.7416  9310.33  95.8905
 31.7836  9318.11  94.9412
 31.8256  9196.09  94.5866
 31.8676  9477.1  96.0181
 31.9096  9222.94  95.0781
 31.9516  9086.64  94.5304
 31.9936  9130.42  94.5863
 32.0356  9162.14  94.819
 32.0776  9201.51  94.9051
 32.1196  9327.81  95.6345
 32.1616  9284.34  94.8763
 32.2036  9027.42  94.063
 32.2456  9109.91  94.8726
 32.2876  9084.76  94.24
 32.3296  9131.52  94.444
 32.3716  9054.86  94.1569
 32.4136  9192.22  95.083
 32.4556  9267.54  94.8456
 32.4976  9253.9  94.6763
 32.5396  9026.64  93.5825
 32.5816  9017.44  93.6533
 32.6236  9242.86  94.8923
 32.6656  9237.76  95.407
 32.7076  9038.38  94.0286
 32.7496  9058.32  93.8059
 32.7916  9078.99  93.8615
 32.8336  9060.07  93.8646
 32.8756  9186.23  94.2351
 32.9176  9044.42  93.99
 32.9596  8947.04  93.5597
 33.0016  9083.22  94.0582
 33.0436  9195.08  94.5384
 33.0856  9011.83  93.9324
 33.1276  8949.62  93.3352
 33.1696  9002.94  93.4594
 33.2116  9001.5  93.6843
 33.2536  8993.69  93.6395
 33.2956  9005.75  93.7846
 33.3376  8947.75  93.2273
 33.3796  9063.75  94.0373
 33.4216  9166.39  94.1592
 33.4636  9119.56  94.0626
 33.5056  8977.08  93.5667
 33.5476  8836.21  92.8246
 33.5896  9081.46  93.8709
 33.6316  8928.2  93.3964
 33.6736  8835.13  93.1537
 33.7156  8862.65  93.0652
 33.7576  9054.92  93.9663
 33.7996  9062.1  93.7786
 33.8416  8836.46  92.7798
 33.8836  8769.49  92.3492
 33.9256  8906.1  92.9828
 33.9676  8963.39  93.1762
 34.0096  8702.71  92.1255
 34.0516  8787.57  92.2141
 34.0936  8812.6  92.5221
 34.1356  8918.29  92.9057
 34.1776  8764.83  92.117
 34.2196  8884.87  92.9246
 34.2616  8726.94  92.229
 34.3036  8645.7  92.0451
 34.3456  8704.55  92.1176
 34.3876  8728.25  92.2026
 34.4296  8681.35  91.6446
 34.4716  8817.2  92.4685
 34.5136  8844.13  92.8587
 34.5556  8679.78  92.2445
 34.5976  8760.23  92.473
 34.6396  8690.94  91.8138
 34.6816  8679.11  91.8663
 34.7236  8709.38  91.8123
 34.7656  8743.6  92.1933
 34.8076  8715.76  92.3502
 34.8496  8718.59  92.2407
 34.8916  8627.07  91.6291
 34.9336  8765.28  92.3218
 34.9756  8661.06  91.6926
 35.0176  8687.06  92.3576
 35.0596  8613.77  91.7882
 35.1016  8569.39  91.3231
 35.1436  8737.33  91.8946
 35.1856  8540.92  90.9878
 35.2276  8679.17  91.8898
 35.2696  8612.34  91.7305
 35.3116  8636.62  91.9452
 35.3536  8544.45  91.1747
 35.3956  8569.27  91.0126
 35.4376  8473.57  91.0633
 35.4796  8641.56  92.0188
 35.5216  8519.97  91.3244
 35.5636  8353.78  91.1765
 35.6056  8624.85  91.6456
 35.6476  8556.16  91.1806
 35.6896  8533.86  91.1485
 35.7316  8520.5  91.0534
 35.7736  8415.9  90.6912
 35.8156  8505.37  91.1664
 35.8576  8441.83  91.0818
 35.8996  8531.6  91.5285
 35.9416  8442.24  90.5535
 35.9836  8415.41  90.7525
 36.0256  8521.72  91.346
 36.0676  8575.17  91.389
 36.1096  8371.68  90.4338
 36.1516  8464.74  90.8251
 36.1936  8397.42  90.3144
 36.2356  8481.9  91.4104
 36.2776  8459.69  90.7746
 36.3196  8521.99  90.7697
 36.3616  8441.96  90.4244
 36.4036  8377.04  90.1788
 36.4456  8332.02  90.1486
 36.4876  8351.1  90.1866
 36.5296  8363.56  90.2961
 36.5716  8341.26  90.7319
 36.6136  8445.96  90.3003
 36.6556  8530.84  90.9498
 36.6976  8503.49  91.3135
 36.7396  8439.11  90.6947
 36.7816  8466.25  91.2229
 36.8236  8333.85  90.4279
 36.8656  8376.16  90.7325
 36.9076  8279  90.0768
 36.9496  8326.35  90.3291
 36.9916  8367.94  90.1778
 37.0336  8447.22  90.925
 37.0756  8384.45  90.3737
 37.1176  8049.88  88.8184
 37.1596  8170.05  89.4803
 37.2016  8181.9  89.7771
 37.2436  8354.62  90.026
 37.2856  8270.92  89.8352
 37.3276  8339.35  89.7245
 37.3696  8200.14  89.6786
 37.4116  8289  90.0798
 37.4536  8190  89.4054
 37.4956  8080.18  89.0523
 37.5376  8210.89  91.1051
 37.5796  8168.2  90.8295
 37.6216  8103.18  88.7498
 37.6636  8068.18  88.4536
 37.7056  8264.97  89.72
 37.7476  8202.96  88.9108
 37.7896  8097.56  88.8386
 37.8316  8002.64  88.4913
 37.8736  8211.05  89.1621
 37.9156  8130.34  88.7218
 37.9576  8154.16  88.7436
 37.9996  8053.33  87.9068
 38.0416  8183.02  89.4337
 38.0836  8206.19  89.4642
 38.1256  8142.94  89.0737
 38.1676  8008.67  88.4751
 38.2096  8063.4  88.3928
 38.2516  8175.18  89.2188
 38.2936  8262  89.4817
 38.3356  8123.86  88.6508
 38.3776  8040.02  88.4639
 38.4196  8233.82  89.3805
 38.4616  8053.13  88.6301
 38.5036  8095.91  88.6957
 38.5456  8002.76  89.0246
 38.5876  8057.71  89.3655
 38.6296  7963.22  87.8101
 38.6716  8023.16  87.9326
 38.7136  8040.94  87.9713
 38.7556  7876.6  87.5703
 38.7976  7986.46  88.1117
 38.8396  8013.28  88.7198
 38.8816  7948.35  88.1337
 38.9236  8021.05  88.3485
 38.9656  8041.16  88.3754
 39.0076  7926.91  87.1531
 39.0496  7990.98  88.046
 39.0916  8009.4  87.788
 39.1336  8019.43  88.2611
 39.1756  7917.18  87.7679
 39.2176  8058.26  89.0826
 39.2596  7883.66  88.0312
 39.3016  7935.72  87.8835
 39.3436  7823.82  87.6956
 39.3856  8016.72  88.215
 39.4276  7923.45  88.1993
 39.4696  7967.44  88.0615
 39.5116  7865.25  88.0065
 39.5536  8117.18  89.8472
 39.5956  8031.13  88.4579
 39.6376  8043.22  88.5322
 39.6796  7973.26  87.8808
 39.7216  7974.41  87.9928
 39.7636  8034.77  88.9022
 39.8056  7957.2  88.2451
 39.8476  7901.89  88.1937
 39.8896  8014.3  88.4371
 39.9316  7887.6  87.9935
 39.9736  8092.45  88.6981
 40.0156  7959.01  87.7751
 40.0576  8033.8  88.5628
 40.0996  8156.01  88.4075
 40.1416  7883.19  87.705
 40.1836  7985.69  88.1609
 40.2256  8135.87  89.0318
 40.2676  7916.65  87.9329
 40.3096  8033.03  88.4961
 40.3516  8041.4  88.6525
 40.3936  8144.27  88.7751
 40.4356  8108  88.7729
 40.4776  8117.21  89.2407
 40.5196  8163.36  89.6199
 40.5616  8034.59  88.5511
 40.6036  7938.56  88.2777
 40.6456  8114.39  88.8534
 40.6876  8231.95  89.4761
 40.7296  8095.99  88.8761
 40.7716  8041.64  88.7092
 40.8136  8009.24  88.4706
 40.8556  8057.54  88.8722
 40.8976  8075.91  88.8927
 40.9396  7999.2  88.8202
 40.9816  8130.33  88.8231
 41.0236  8115.86  88.5266
 41.0656  8075.62  88.8481
 41.1076  8061.77  88.5374
 41.1496  8120.91  88.7745
 41.1916  8046.39  88.6874
 41.2336  8010.19  88.4779
 41.2756  8059.16  88.3534
 41.3176  7942.25  88.3217
 41.3596  8074.53  88.7881
 41.4016  8065.59  89.0006
 41.4436  8038.71  88.6355
 41.4856  8037.62  88.7972
 41.5276  7968.51  88.4289
 41.5696  7993.77  88.1968
 41.6116  7999.12  88.6229
 41.6536  8043.9  88.7306
 41.6956  8052.11  88.8228
 41.7376  7984.88  88.4851
 41.7796  7996.63  88.4345
 41.8216  8039.51  88.9059
 41.8636  8077.08  89.0516
 41.9056  7876.13  87.7265
 41.9476  8003.14  88.663
 41.9896  7977.95  88.1828
 42.0316  8089.81  88.8938
 42.0736  8033.21  88.6923
 42.1156  7910.13  87.8491
 42.1576  8016.58  88.536
 42.1996  8021.38  88.7099
 42.2416  8104.55  88.6508
 42.2836  7900.85  87.7359
 42.3256  7850.83  87.5722
 42.3676  7995.72  88.1741
 42.4096  8010.99  88.2174
 42.4516  7948.83  88.0322
 42.4936  7820.74  87.3282
 42.5356  7918.9  88.0078
 42.5776  7856.86  87.5991
 42.6196  8017.64  88.5458
 42.6616  7742.86  87.1872
 42.7036  7896.34  87.4292
 42.7456  7929.32  87.9688
 42.7876  7905.57  87.9445
 42.8296  7884.54  87.6537
 42.8716  7778.54  87.219
 42.9136  7802.53  87.1448
 42.9556  7900.49  87.8229
 42.9976  7939.48  88.004
 43.0396  7875.01  87.3766
 43.0816  7833.06  87.5088
 43.1236  7833.05  87.5819
 43.1656  7914.99  87.8671
 43.2076  7791.24  87.2835
 43.2496  7770.79  86.974
 43.2916  7797.09  87.4948
 43.3336  7870.58  87.7415
 43.3756  7818.14  87.2026
 43.4176  7711.46  86.6887
 43.4596  7714.5  86.562
 43.5016  7660.43  86.6615
 43.5436  7778.04  87.2233
 43.5856  7729.34  86.9793
 43.6276  7737.44  86.9116
 43.6696  7751.99  87.209
 43.7116  7852.51  87.3148
 43.7536  7806.5  87.5474
 43.7956  7569.21  87.3998
 43.8376  7675.27  86.5451
 43.8796  7723.95  86.902
 43.9216  7681.84  86.5844
 43.9636  7721.86  86.916
 44.0056  7775.47  87.4533
 44.0476  7750.27  87.0562
 44.0896  7595.45  86.4081
 44.1316  7732.26  86.7018
 44.1736  7756.11  86.9633
 44.2156  7626.93  86.0751
 44.2576  7679.44  86.7114
 44.2996  7620.52  86.3474
 44.3416  7620.96  86.1147
 44.3836  7668.83  86.7104
 44.4256  7608.7  86.0168
 44.4676  7543.56  85.802
 44.5096  7576.26  86.1318
 44.5516  7564.02  86.0284
 44.5936  7621.22  86.3037
 44.6356  7572.82  85.766
 44.6776  7654.16  86.5426
 44.7196  7469.11  85.8011
 44.7616  7533.42  87.4924
 44.8036  7528.45  85.8917
 44.8456  7538.31  86.1444
 44.8876  7594.18  86.4131
 44.9296  7477.48  85.1077
 44.9716  7581.4  86.1163
 45.0136  7603.58  86.1893
 45.0556  7629.6  86.306
 45.0976  7449.55  85.4407
 45.1396  7364.78  84.7214
 45.1816  7481.57  85.3325
 45.2236  7516.29  85.4251
 45.2656  7431.15  85.4414
 45.3076  7426.13  85.1899
 45.3496  7447.84  85.6267
 45.3916  7466.23  85.9964
 45.4336  7330.99  85.0552
 45.4756  7438.72  85.5272
 45.5176  7478.86  85.3831
 45.5596  7376.81  84.9175
 45.6016  7436.32  85.6816
 45.6436  7478.53  85.0888
 45.6856  7508.34  85.9326
 45.7276  7317.96  86.1355
 45.7696  7400.98  86.3022
 45.8116  7448.14  86.0016
 45.8536  7392.72  85.5818
 45.8956  7455.82  85.2965
 45.9376  7386.88  84.3672
 45.9796  7460.83  85.4725
 46.0216  7430.63  85.6431
 46.0636  7372.89  84.4524
 46.1056  7446.69  84.866
 46.1476  7242.57  84.2813
 46.1896  7441.29  85.5813
 46.2316  7309.37  84.6868
 46.2736  7240.78  84.6541
 46.3156  7414.23  85.2481
 46.3576  7355.43  85.1091
 46.3996  7345.19  85.2084
 46.4416  7342.37  84.7695
 46.4836  7243.26  84.5537
 46.5256  7429.35  85.5699
 46.5676  7252.97  84.6615
 46.6096  7328.79  85.0393
 46.6516  7348.69  84.1978
 46.6936  7284.36  84.3184
 46.7356  7407.06  85.1276
 46.7776  7246.71  85.1068
 46.8196  7278.15  84.8208
 46.8616  7138.03  83.954
 46.9036  7185.94  83.8941
 46.9456  7121.88  83.1656
 46.9876  7207.06  83.7414
 47.0296  7317.23  84.9774
 47.0716  7164.26  83.9968
 47.1136  7253.32  84.1965
 47.1556  7107.72  83.2213
 47.1976  7276.03  84.2688
 47.2396  7149.87  83.9425
 47.2816  7114.38  83.4333
 47.3236  7176.54  84.1665
 47.3656  7189.56  84.1679
 47.4076  7091.65  83.4072
 47.4496  7213.06  84.2122
 47.4916  7115.56  83.8212
 47.5336  7304.92  84.7427
 47.5756  7203.38  84.2797
 47.6176  7118.09  83.6762
 47.6596  7089.81  83.2183
 47.7016  7258.19  84.0279
 47.7436  7142.59  83.6885
 47.7856  7205.77  84.0723
 47.8276  7170.97  83.9235
 47.8696  7033.63  83.2059
 47.9116  7154.32  83.6305
 47.9536  7111.76  83.3259
 47.9956  7094.13  83.9234
 48.0376  7026.62  83.2999
 48.0796  7121.67  83.981
 48.1216  7264.68  84.6387
 48.1636  7300.24  84.422
 48.2056  7098.11  83.5109
 48.2476  7126.23  83.9675
 48.2896  7147.79  84.0138
 48.3316  6977.76  82.9577
 48.3736  7056.77  83.449
 48.4156  6994.54  83.0389
 48.4576  6957.29  83.0009
 48.4996  7094.3  83.2729
 48.5416  7166.38  84.0142
 48.5836  7093.99  83.2747
 48.6256  7076.1  83.366
 48.6676  7085.38  83.9381
 48.7096  7039.37  82.9462
 48.7516  7031.05  83.04
 48.7936  6956.26  82.7536
 48.8356  7121.88  83.6867
 48.8776  6952.29  83.2489
 48.9196  7170.71  83.9112
 48.9616  7005.8  83.323
 49.0036  6926.48  83.1856
 49.0456  6920.32  83.1401
 49.0876  6923.16  82.7019
 49.1296  6875.48  82.5675
 49.1716  6807.03  82.2466
 49.2136  7048.94  83.416
 49.2556  7008.98  83.206
 49.2976  6997.57  83.1939
 49.3396  6876.23  82.5354
 49.3816  6917.68  82.3625
 49.4236  7019  83.2426
 49.4656  6933.41  82.747
 49.5076  6930.48  82.4799
 49.5496  6925.3  82.5103
 49.5916  6953.46  82.5908
 49.6336  6901.13  82.4951
 49.6756  6922.57  82.8447
 49.7176  6920.17  82.7712
 49.7596  6960.31  82.7859
 49.8016  6971.3  82.7671
 49.8436  6925.55  82.7939
 49.8856  6869.14  82.4608
 49.9276  6835.86  82.3571
 49.9696  6879.44  82.6041
 50.0116  6896.75  82.8288
 50.0536  6892.69  82.7535
 50.0956  6852.33  82.5888
 50.1376  6898.26  82.5713
 50.1796  6843.99  82.5092
 50.2216  6813.33  82.3101
 50.2636  6855.9  82.1943
 50.3056  6718.77  81.5375
 50.3476  6774.78  81.9039
 50.3896  6718.63  81.5309
 50.4316  6939.62  82.6978
 50.4736  6753.77  81.8
 50.5156  6886.8  82.5973
 50.5576  6841.25  82.0838
 50.5996  6757.35  81.8532
 50.6416  6796.56  82.0185
 50.6836  6839.37  82.3301
 50.7256  6845.23  82.3007
 50.7676  6817.37  82.4411
 50.8096  6702.82  81.2956
 50.8516  6690.23  81.627
 50.8936  6698.95  81.4615
 50.9356  6750.97  81.8849
 50.9776  6804  82.3588
 51.0196  6616.2  81.3439
 51.0616  6637.25  80.8032
 51.1036  6720.63  81.6572
 51.1456  6824.47  82.2052
 51.1876  6750.11  81.1038
 51.2296  6622.59  80.9616
 51.2716  6624.07  80.6796
 51.3136  6618.58  81.0872
 51.3556  6621.76  80.7463
 51.3976  6675.88  81.2239
 51.4396  6536.62  80.671
 51.4816  6588.33  80.846
 51.5236  6688.95  81.54
 51.5656  6589.53  80.5468
 51.6076  6680.19  81.1776
 51.6496  6647.78  81.1735
 51.6916  6594.69  81.1995
 51.7336  6667.04  81.7379
 51.7756  6697.95  81.6256
 51.8176  6591.15  81.076
 51.8596  6502.13  80.5425
 51.9016  6722.01  81.4975
 51.9436  6516  81.6657
 51.9856  6572.38  82.4557
 52.0276  6673.61  81.6038
 52.0696  6667.65  81.6288
 52.1116  6623.69  81.4777
 52.1536  6441.24  80.2352
 52.1956  6672.42  81.1214
 52.2376  6694.33  81.4333
 52.2796  6645.29  80.9421
 52.3216  6555.51  81.0842
 52.3636  6479.94  80.2012
 52.4056  6516.07  80.281
 52.4476  6522.38  80.6854
 52.4896  6517.99  80.7037
 52.5316  6607.54  81.2969
 52.5736  6518.12  80.4865
 52.6156  6599.01  81.3476
 52.6576  6552.74  80.521
 52.6996  6397.62  80.5248
 52.7416  6485.56  80.9952
 52.7836  6607.46  81.5611
 52.8256  6530.98  80.325
 52.8676  6348.21  79.7505
 52.9096  6544.92  81.0664
 52.9516  6449.4  80.8347
 52.9936  6423.89  81.0614
 53.0356  6437.61  80.1554
 53.0776  6356.17  79.9071
 53.1196  6279.18  79.5453
 53.1616  6267.57  79.5179
 53.2036  6282.77  79.5702
 53.2456  6366  80.1957
 53.2876  6360.36  79.8688
 53.3296  6416.6  80.5458
 53.3716  6409.32  80.2488
 53.4136  6367.95  80.136
 53.4556  6323.12  79.8832
 53.4976  6285.53  79.4946
 53.5396  6375.82  80.4538
 53.5816  6380.15  80.1192
 53.6236  6369.65  80.3906
 53.6656  6365.79  79.9994
 53.7076  6474.97  80.6438
 53.7496  6280.58  79.5393
 53.7916  6498.61  81.0366
 53.8336  6298.83  79.6785
 53.8756  6191.46  79.5362
 53.9176  6299.21  79.5846
 53.9596  6405.42  81.0269
 54.0016  6352.3  80.0149
 54.0436  6346.62  80.1996
 54.0856  6431.42  80.1469
 54.1276  6324.73  79.6805
 54.1696  6345.71  79.9895
 54.2116  6318.67  79.5752
 54.2536  6373.25  79.7322
 54.2956  6465.44  80.3578
 54.3376  6357.82  80.1711
 54.3796  6246.05  79.3603
 54.4216  6404.24  80.2309
 54.4636  6348.87  80.019
 54.5056  6339.76  79.7851
 54.5476  6329.02  80.0478
 54.5896  6375.37  80.1757
 54.6316  6368.05  79.9843
 54.6736  6344.29  79.9099
 54.7156  6304.67  79.6841
 54.7576  6267.78  79.4431
 54.7996  6347.77  80.0806
 54.8416  6275.12  79.6774
 54.8836  6222.47  79.4491
 54.9256  6259.17  79.434
 54.9676  6248.81  79.2295
 55.0096  6351.46  79.9461
 55.0516  6315.6  79.9587
 55.0936  6330.4  79.6804
 55.1356  6245.73  79.1889
 55.1776  6281.93  79.6801
 55.2196  6274.6  79.4195
 55.2616  6295.74  79.766
 55.3036  6293.01  79.9096
 55.3456  6285.71  80.0116
 55.3876  6226.99  79.3834
 55.4296  6307.72  79.8729
 55.4716  6267.57  79.6524
 55.5136  6288.05  79.5378
 55.5556  6236.3  79.2785
 55.5976  6267.54  79.5331
 55.6396  6257.74  79.4182
 55.6816  6283.22  79.4617
 55.7236  6297.03  79.5955
 55.7656  6285.65  79.2761
 55.8076  6316.43  79.4545
 55.8496  6202.86  79.0542
 55.8916  6196.18  79.2159
 55.9336  6244.55  79.334
 55.9756  6218.21  79.0581
 56.0176  6148.57  78.7711
 56.0596  6219.94  79.2074
 56.1016  6232.39  79.2949
 56.1436  6166.33  79.1427
 56.1856  6235.13  79.3231
 56.2276  6166.39  78.9373
 56.2696  6204.15  79.1529
 56.3116  6151.99  79.2171
 56.3536  6263.12  79.5902
 56.3956  6166.9  78.9643
 56.4376  6173.05  79.0375
 56.4796  6228.47  79.1947
 56.5216  6291.68  79.9653
 56.5636  6283.61  79.5095
 56.6056  6262.66  79.6038
 56.6476  6226.21  79.0034
 56.6896  6183.43  79.1738
 56.7316  6248.84  79.5043
 56.7736  6296.35  79.7816
 56.8156  6292.31  79.7741
 56.8576  6184.4  79.0361
 56.8996  6213.84  79.1543
 56.9416  6197.47  79.352
 56.9836  6161.76  78.6373
 57.0256  6153.55  78.9064
 57.0676  6193.9  79.2891
 57.1096  6247.71  79.4222
 57.1516  6186.69  79.0948
 57.1936  6203.36  78.9468
 57.2356  6128.34  78.7908
 57.2776  6183.76  79.0996
 57.3196  6309.16  80.2722
 57.3616  6096.54  78.4034
 57.4036  6291.39  79.7066
 57.4456  6106.06  78.4911
 57.4876  6265.05  79.3654
 57.5296  6181.65  79.1745
 57.5716  6261.83  79.6724
 57.6136  6088.79  78.3904
 57.6556  6186.9  79.1479
 57.6976  6210.18  79.128
 57.7396  6155.97  79.1571
 57.7816  6055.76  78.8662
 57.8236  6155.83  79.355
 57.8656  6165.7  79.0304
 57.9076  6134.48  78.8531
 57.9496  6238.56  79.8767
 57.9916  6174.82  78.9749
 58.0336  6166.38  79.2034
 58.0756  6089.65  78.3465
 58.1176  6231.12  79.238
 58.1596  6103.93  78.9985
 58.2016  6202.63  78.8553
 58.2436  6230.4  79.446
 58.2856  6178.35  79.0381
 58.3276  6129.85  79.0968
 58.3696  6090.99  78.5892
 58.4116  6251.11  79.4837
 58.4536  6201.93  79.0567
 58.4956  6083.08  78.4775
 58.5376  6132.36  78.3664
 58.5796  6090.89  78.5278
 58.6216  6235.01  79.2624
 58.6636  6276.84  79.7446
 58.7056  6127.41  78.645
 58.7476  6121.28  79.0522
 58.7896  6194.63  79.1663
 58.8316  6217.41  79.302
 58.8736  6265.93  79.6229
 58.9156  6152.74  78.9405
 58.9576  6212.6  79.6569
 58.9996  6275.38  79.2856
 59.0416  6380.77  80.3116
 59.0836  6193.58  79.0589
 59.1256  6106.23  79.2036
 59.1676  6184.49  80.0206
 59.2096  6100.89  78.7911
 59.2516  6260.03  79.3856
 59.2936  6319.02  80.0944
 59.3356  6321.01  79.9819
 59.3776  6326.25  80.188
 59.4196  6246.64  79.6167
 59.4616  6295.03  79.7816
 59.5036  6003.66  77.9487
 59.5456  6349.92  79.8505
 59.5876  6310.94  79.8004
 59.6296  6170.13  78.975
 59.6716  6152.09  78.918
 59.7136  6144.05  78.8546
 59.7556  6276.31  79.838
 59.7976  6087.82  78.3711
 59.8396  6228.62  79.1648
 59.8816  6230.05  79.7282
 59.9236  6145.09  78.8229
 59.9656  6322.38  80.2174
 60.0076  6221.6  78.9243
 60.0496  5990.97  77.4724
 60.0916  6472.38  80.4185
 60.1336  6025.06  78.6959
 60.1756  6249.36  81.3522
 60.1996  6268.82  83.7575