File: docs/examples/opeando_xrd/IS17_D/Data/IS17_D/17_Da_f00106.xye
# /beamlines/bl04/projects/cycle2025-II/20250340211-lsimonelli/DATA/IS17_D/17_Da_f00106.xye : mythproc.py merge -s 0.006 -l 0.5 -f /beamlines/bl04/inhouse/ff/FlatField/ff_20Nov2024rod8mm60s_17keV.raw -b True -c true -o xye /beamlines/bl04/projects/cycle2025-II/20250340211-lsimonelli/DATA/IS17_D/17_Da_00106.dat
# IsMon = [6772121, 6766497, 6772257]  IsPos = [-1.4999, -2.4884, -3.4988]
# Wave = 0.4962  CalPath /beamlines/bl04/projects/cycle2025-II/20250340211-lsimonelli/DATA/Align/Si_Pos1_25keV_f00001.cal
# Date = 2025-09-24_23:05:21 Dt = 4.8000  Bin = 0.0060  <imon> = 6770292 +/- 2684 (Min/Max) 6766497 / 6772257
# icurr 251.2545  mocoIn 1.7139E-05  mocoOut 0.8043  i15 7.09382e+06  imon 6.77029e+06  i7 5.6667  iEMpd_timer 4.8000  iEMpd_1 3.4508E-08  iEMpd_2 7.7947E-08  iEMpd_3 1.5711E-08  iEMpd_4 4.6805E-08  iEMhp_timer 4.8000  iEMhp_1 4.9092E-06  iEMhp_2 -2.5591E-08  iEMhp_3 -2.5738E-08  iEMhp_4 -2.1242E-08
#      9776
 1.5856  40864.2  207.547
 1.6276  48253.7  221.663
 1.6696  55156.5  236.152
 1.7116  63484.3  253.849
 1.7536  72650.7  270.401
 1.7956  77618.9  280.192
 1.8376  74156.5  274.305
 1.8796  61945.7  248.867
 1.9216  50379.3  225.323
 1.9636  42909.8  207.098
 2.0056  38414.8  195.191
 2.0476  35826.2  190.566
 2.0896  34260.7  185.263
 2.1316  33895.5  183.387
 2.1736  32059.2  179.765
 2.2156  32530.6  179.629
 2.2576  31543.9  177.518
 2.2996  30462.9  175.09
 2.3416  30921.9  174.997
 2.3836  30128.7  172.843
 2.4256  29843.2  172.583
 2.4676  28994  169.869
 2.5096  29014.2  169.983
 2.5516  28206.6  171.526
 2.5936  28665.7  169.419
 2.6356  27887  167.807
 2.6776  27935.5  166.81
 2.7196  27612.8  166.376
 2.7616  27597  166.101
 2.8036  27080.9  164.717
 2.8456  27018  165.156
 2.8876  26715.5  164.115
 2.9296  25951.9  161.869
 2.9716  25793.7  160.856
 3.0136  25510.5  160.038
 3.0556  25557  160.591
 3.0976  25367.7  158.89
 3.1396  25312.7  159.466
 3.1816  24821.2  157.841
 3.2236  24730.7  157.553
 3.2656  24745.6  156.63
 3.3076  24446.6  157.15
 3.3496  24705.9  156.912
 3.3916  25137.1  158.085
 3.4336  25193.5  158.848
 3.4756  25604.8  160.052
 3.5176  26466.9  162.535
 3.5596  26128.3  163.932
 3.6016  26455.5  162.539
 3.6436  25529.2  160.793
 3.6856  25018.7  157.453
 3.7276  24129.4  155.736
 3.7696  23953.9  155.347
 3.8116  23506.7  153.781
 3.8536  23456.1  153.536
 3.8956  23562.4  153.721
 3.9376  23569.2  153.999
 3.9796  23319.5  152.684
 4.0216  23481.3  152.248
 4.0636  23275.1  153.055
 4.1056  23216.9  152.509
 4.1476  23298.5  153.083
 4.1896  23683.9  154.204
 4.2316  23835.5  154.515
 4.2736  24251.6  155.649
 4.3156  24441.9  156.488
 4.3576  25454.3  159.629
 4.3996  25453.6  159.897
 4.4416  25858.4  160.733
 4.4836  26417.7  162.626
 4.5256  26841.1  164.521
 4.5676  26835.3  164.769
 4.6096  27298.7  164.823
 4.6516  27907.1  166.363
 4.6936  28026.7  167.538
 4.7356  28076.9  167.519
 4.7776  28012.4  167.163
 4.8196  27808.4  167.195
 4.8616  27269.2  165.063
 4.9036  26947.5  163.813
 4.9456  26925.1  164.404
 4.9876  26314.6  162.433
 5.0296  26526.7  162.902
 5.0716  26583.4  163.857
 5.1136  26560.2  163.494
 5.1556  27013.2  164.345
 5.1976  27356  165.37
 5.2396  27433.6  165.308
 5.2816  27323.4  165.428
 5.3236  27375.1  165.297
 5.3656  27022  165.152
 5.4076  26648.8  164.158
 5.4496  26882.5  164.368
 5.4916  26930.3  164.263
 5.5336  27125  164.869
 5.5756  26744.9  163.723
 5.6176  26917.5  163.695
 5.6596  27168.1  165.426
 5.7016  27398.7  165.396
 5.7436  27490.1  165.946
 5.7856  27112.2  164.856
 5.8276  27790.2  166.635
 5.8696  27744.3  166.664
 5.9116  27711  167.171
 5.9536  27876.8  167.411
 5.9956  28493  168.625
 6.0376  28202.5  168.396
 6.0796  28545.3  169.246
 6.1216  28737.5  170.026
 6.1636  28810.7  169.292
 6.2056  28760  169.816
 6.2476  28972  170.31
 6.2896  29228.8  170.743
 6.3316  29056.4  170.404
 6.3736  29222.6  170.788
 6.4156  29399.4  171.197
 6.4576  29605.9  171.41
 6.4996  29820.8  172.521
 6.5416  29963.3  173.061
 6.5836  29745.4  172.669
 6.6256  29765.3  172.281
 6.6676  30639.8  174.359
 6.7096  30310.2  174.268
 6.7516  30766.7  175.233
 6.7936  30891.2  175.003
 6.8356  30962.8  175.294
 6.8776  31373.4  177.27
 6.9196  31353.8  177.61
 6.9616  31927.6  178.68
 7.0036  32184.9  179.035
 7.0456  32262.9  178.542
 7.0876  32296  180.338
 7.1296  32109.7  178.95
 7.1716  32238.6  178.826
 7.2136  31768.3  177.313
 7.2556  32076.4  178.332
 7.2976  32171.3  179.098
 7.3396  32120.8  179.184
 7.3816  31869.4  178.686
 7.4236  32197.9  178.89
 7.4656  32484.8  179.168
 7.5076  32848.1  180.302
 7.5496  32742.3  180.55
 7.5916  32688.4  180.437
 7.6336  33075  181.396
 7.6756  33048.4  181.174
 7.7176  33432.4  182.54
 7.7596  33286.5  183.392
 7.8016  33642.7  186.542
 7.8436  34136.2  184.592
 7.8856  34481.2  185.133
 7.9276  34937.3  186.735
 7.9696  35283.6  187.986
 8.0116  36199.1  188.934
 8.0536  36174.8  189.126
 8.0956  36067.9  190.039
 8.1376  36724.5  191.219
 8.1796  37000.3  192.497
 8.2216  37746.1  193.137
 8.2636  37858.8  193.675
 8.3056  37785.1  194.253
 8.3476  38254.7  194.794
 8.3896  38334.9  195.076
 8.4316  38100.3  194.645
 8.4736  38156.8  194.248
 8.5156  38070  194.309
 8.5576  37902.4  194.882
 8.5996  37857.7  193.613
 8.6416  37630.6  194.311
 8.6836  37593.9  194.023
 8.7256  38072.1  194.715
 8.7676  37549.3  196.261
 8.8096  37144.3  192.479
 8.8516  36811.4  191.228
 8.8936  36538  190.408
 8.9356  36428.2  190.456
 8.9776  36849.1  191.659
 9.0196  36321.7  189.951
 9.0616  36538.9  189.987
 9.1036  36192.8  190.283
 9.1456  36264.2  189.831
 9.1876  36546.9  190.514
 9.2296  36308.2  189.296
 9.2716  35688.2  187.736
 9.3136  35538  187.318
 9.3556  35862.9  188.156
 9.3976  34522.1  185.135
 9.4396  35009.1  186.331
 9.4816  34370.5  184.484
 9.5236  34660.7  185.174
 9.5656  34212.9  184.301
 9.6076  34092.2  184.504
 9.6496  33597.3  183.08
 9.6916  34072.9  184.345
 9.7336  33766.4  183.292
 9.7756  34118.4  185.532
 9.8176  33103.4  182.264
 9.8596  33239.4  181.083
 9.9016  32646.9  179.455
 9.9436  32412.8  178.723
 9.9856  31992.2  177.783
 10.0276  31419  177.285
 10.0696  31852.6  177.545
 10.1116  30976.2  175.347
 10.1536  31098.9  175.859
 10.1956  30454.5  173.631
 10.2376  30250.8  172.533
 10.2796  30141  172.365
 10.3216  29978.9  172.172
 10.3636  29649.2  171.251
 10.4056  29144.4  170.194
 10.4476  29204.2  169.982
 10.4896  29228.8  169.513
 10.5316  28602.5  168.388
 10.5736  28543.7  168.618
 10.6156  28154.9  167.223
 10.6576  28357.3  166.415
 10.6996  28038.2  166.133
 10.7416  27593.6  165.054
 10.7836  27911.5  166.684
 10.8256  27343.6  165.394
 10.8676  27621.3  165.781
 10.9096  27211.6  164.566
 10.9516  26867.7  162.474
 10.9936  26987.2  163.02
 11.0356  26685.8  162.747
 11.0776  26669.1  162.014
 11.1196  26012.9  160.739
 11.1616  26071.5  160.628
 11.2036  26061.1  160.441
 11.2456  26163.7  161.467
 11.2876  26001.7  160.672
 11.3296  25587  159.301
 11.3716  25976.4  160.197
 11.4136  25717.4  160.289
 11.4556  25813.5  160.256
 11.4976  25995.4  159.806
 11.5396  26160.6  160.487
 11.5816  26662.3  162.472
 11.6236  27251.1  164.486
 11.6656  27123.4  163.224
 11.7076  26445  162.03
 11.7496  25719.3  163.724
 11.7916  25415  158.105
 11.8336  25337.3  158.749
 11.8756  25063  157.423
 11.9176  25201.6  157.531
 11.9596  24671.5  156.032
 12.0016  24681.8  156.865
 12.0436  24675.3  156.251
 12.0856  24600.4  156.557
 12.1276  24591.7  156.449
 12.1696  24536  155.402
 12.2116  24512.3  155.323
 12.2536  24045.5  154.66
 12.2956  24298.9  154.812
 12.3376  24130.9  154.476
 12.3796  24354.6  155.649
 12.4216  24302.6  154.706
 12.4636  23984.4  154.603
 12.5056  24148.4  154.402
 12.5476  24485.5  155.003
 12.5896  24234.1  154.841
 12.6316  23961.9  154.114
 12.6736  23748.7  153.924
 12.7156  23711  153.657
 12.7576  24111.9  155.197
 12.7996  24115.6  153.851
 12.8416  24034.7  154.646
 12.8836  24343.2  155.47
 12.9256  24624.7  155.371
 12.9676  24663.9  155.928
 13.0096  24328.3  155.945
 13.0516  24653.6  156.019
 13.0936  24754.2  156.738
 13.1356  25073.8  156.732
 13.1776  24761.1  156.743
 13.2196  24841.9  156.655
 13.2616  24860.5  157.034
 13.3036  25037.4  157.555
 13.3456  24908.6  157.512
 13.3876  24908.4  156.789
 13.4296  24795.3  156.588
 13.4716  24870.4  156.435
 13.5136  24845  156.508
 13.5556  24849.6  157.149
 13.5976  24829.4  157.22
 13.6396  25093.5  157.427
 13.6816  24638.7  156.474
 13.7236  25333.8  158.313
 13.7656  24549.5  156.37
 13.8076  24996.9  156.57
 13.8496  24654.1  156.088
 13.8916  24657  157.111
 13.9336  24488.8  155.803
 13.9756  24421.5  154.928
 14.0176  24276.9  155.161
 14.0596  24229.9  154.973
 14.1016  24093.5  154.929
 14.1436  23837.9  153.235
 14.1856  23653.3  152.937
 14.2276  23076.2  151.534
 14.2696  23572.3  152.999
 14.3116  23201.5  151.702
 14.3536  22764.1  150.435
 14.3956  22965.1  150.837
 14.4376  22978.6  150.644
 14.4796  22884.3  150.332
 14.5216  22338.1  149.325
 14.5636  22274.1  148.668
 14.6056  22594.5  149.305
 14.6476  22406.3  147.919
 14.6896  22017.9  147.168
 14.7316  21969.3  148.047
 14.7736  21625.8  146.042
 14.8156  21497.9  145.634
 14.8576  21246.5  144.631
 14.8996  21046.3  145.16
 14.9416  20585.9  143.572
 14.9836  20960  144.808
 15.0256  20565.1  142.384
 15.0676  20664.6  143.049
 15.1096  20454.5  142.054
 15.1516  20089.2  141.348
 15.1936  20223.6  141.235
 15.2356  19712.8  139.72
 15.2776  19678.4  139.174
 15.3196  19386.8  139.154
 15.3616  19325  138.676
 15.4036  19278.2  138.368
 15.4456  19397.7  138.451
 15.4876  19113.9  137.111
 15.5296  18866.1  136.512
 15.5716  18801.5  135.871
 15.6136  18615.1  135.535
 15.6556  18607.4  134.73
 15.6976  18439  134.425
 15.7396  18470.4  134.915
 15.7816  18287.5  133.764
 15.8236  18093.7  133.743
 15.8656  18065.9  133.44
 15.9076  17767.8  132.163
 15.9496  17648.3  134.484
 15.9916  17885.2  135.841
 16.0336  17504.5  131.248
 16.0756  17732.3  132.413
 16.1176  17503.9  131.624
 16.1596  17167.5  131.538
 16.2016  17492.3  131.507
 16.2436  16967.5  129.907
 16.2856  16818.3  128.878
 16.3276  16707.9  128.87
 16.3696  16977.2  129.719
 16.4116  16683.1  129.059
 16.4536  16754.5  129.113
 16.4956  16687.2  128.595
 16.5376  16475.6  127.965
 16.5796  16520.2  127.497
 16.6216  16540.2  127.877
 16.6636  16496.1  127.865
 16.7056  16498.8  127.737
 16.7476  16429.9  127.002
 16.7896  16400.4  127.637
 16.8316  16297.1  127.202
 16.8736  16223.9  127.17
 16.9156  16375.8  128.103
 16.9576  16230.5  128.353
 16.9996  16325.5  129.222
 17.0416  16636.5  128.789
 17.0836  16473.8  127.91
 17.1256  16167.4  126.725
 17.1676  16136.9  126.596
 17.2096  16178  126.634
 17.2516  16114  126.166
 17.2936  15949.8  125.843
 17.3356  15605.5  124.471
 17.3776  15758.1  125.281
 17.4196  15675.6  124.657
 17.4616  15635.5  124.406
 17.5036  15400  123.837
 17.5456  15212.1  123.717
 17.5876  15194.3  122.69
 17.6296  15256.1  122.757
 17.6716  14942.7  122.058
 17.7136  14808.4  121.641
 17.7556  15007.1  122.757
 17.7976  14912.5  122.112
 17.8396  14844.7  121.333
 17.8816  14676  121.194
 17.9236  14588.6  120.633
 17.9656  14733.6  121.769
 18.0076  14748.6  121.396
 18.0496  14889.9  121.113
 18.0916  14629.6  120.58
 18.1336  14746.2  121.162
 18.1756  14754.7  120.726
 18.2176  14482.5  119.832
 18.2596  14370.1  119.113
 18.3016  14599.7  120.305
 18.3436  14578.1  120.226
 18.3856  14261  119.034
 18.4276  14442.4  119.462
 18.4696  14423.8  119.488
 18.5116  14349.6  119.472
 18.5536  14468.6  120.319
 18.5956  14298.8  119.168
 18.6376  14166.7  119.025
 18.6796  14173.9  118.375
 18.7216  14373.8  119.703
 18.7636  13960.1  117.945
 18.8056  14021.9  118.153
 18.8476  14118  119.178
 18.8896  14139.2  118.604
 18.9316  14132.6  118.563
 18.9736  14143.7  118.308
 19.0156  14008  118.15
 19.0576  13949.8  116.766
 19.0996  14283.8  118.875
 19.1416  13874.4  117.54
 19.1836  14035.6  117.826
 19.2256  13862.3  117.302
 19.2676  14060.8  118.237
 19.3096  14054.3  118.461
 19.3516  13885.6  117.707
 19.3936  13992.6  118.065
 19.4356  13992.1  117.916
 19.4776  14009.9  118.096
 19.5196  13877.5  117.391
 19.5616  13839  117.483
 19.6036  13923.6  117.334
 19.6456  13944.5  117.542
 19.6876  14007  117.465
 19.7296  13755.8  116.846
 19.7716  13886.3  117.574
 19.8136  13891.4  117.79
 19.8556  14139.5  118.318
 19.8976  13950.5  117.594
 19.9396  14061.9  117.64
 19.9816  14133.5  118.176
 20.0236  14334.4  119.234
 20.0656  14521.2  120.008
 20.1076  14583.8  120.728
 20.1496  14935  122.186
 20.1916  14947.9  121.729
 20.2336  15076.2  122.185
 20.2756  14759.9  121.343
 20.3176  14355.4  119.411
 20.3596  14255.6  118.975
 20.4016  13995.8  117.685
 20.4436  14053.1  118.491
 20.4856  13705.5  116.796
 20.5276  13648.2  117.024
 20.5696  13601.3  116.274
 20.6116  13505  116.141
 20.6536  13709.4  116.521
 20.6956  13498.9  115.747
 20.7376  13515.7  116.057
 20.7796  13309.3  114.841
 20.8216  13553.2  115.601
 20.8636  13289.4  114.829
 20.9056  13219.6  114.489
 20.9476  13173.2  114.124
 20.9896  13412.7  115.026
 21.0316  13454.6  115.097
 21.0736  13202.8  114.537
 21.1156  13279.3  115.035
 21.1576  13247.3  114.943
 21.1996  13156.8  114.526
 21.2416  13132.8  114.249
 21.2836  13234.8  114.655
 21.3256  12994.6  113.697
 21.3676  13168.7  114.003
 21.4096  13041.2  113.758
 21.4516  13020.5  113.552
 21.4936  12833.4  112.988
 21.5356  12890.4  113.178
 21.5776  13081.1  113.844
 21.6196  12977.8  113.421
 21.6616  12778.2  112.643
 21.7036  12935.5  113.108
 21.7456  12975.5  113.361
 21.7876  12775.1  112.237
 21.8296  12957.6  112.892
 21.8716  12795.4  112.414
 21.9136  12909.5  113.113
 21.9556  12913.7  112.806
 21.9976  12866.3  112.612
 22.0396  12839.5  112.754
 22.0816  12827.6  113.239
 22.1236  12878.7  112.918
 22.1656  12959.3  113.393
 22.2076  12768  112.041
 22.2496  12945.7  112.85
 22.2916  12912.5  112.572
 22.3336  12917.4  113.342
 22.3756  12847.4  112.745
 22.4176  12657.2  111.762
 22.4596  12686.3  112.475
 22.5016  12770.3  112.328
 22.5436  12942.6  112.972
 22.5856  12760.7  112.433
 22.6276  12634  112.019
 22.6696  12838.8  113.262
 22.7116  12785.6  112.55
 22.7536  12795.5  112.561
 22.7956  12802.2  111.927
 22.8376  12658.4  111.802
 22.8796  12785.7  112.17
 22.9216  12771.1  112.649
 22.9636  12748  111.702
 23.0056  12593.3  111.157
 23.0476  12713.7  112.259
 23.0896  13105.9  113.341
 23.1316  12942.6  113.077
 23.1736  12628.5  114.655
 23.2156  12866.4  113.034
 23.2576  12819.5  112.972
 23.2996  12887.6  113.055
 23.3416  12766.3  113.04
 23.3836  12716.9  112.058
 23.4256  12937.8  113.146
 23.4676  12876.2  112.555
 23.5096  12737.1  112.637
 23.5516  12715.3  111.82
 23.5936  12655.9  112.454
 23.6356  12875.9  113.101
 23.6776  12765.7  112.832
 23.7196  12516  111.297
 23.7616  12654.2  111.828
 23.8036  12738.8  112.238
 23.8456  12714.7  111.703
 23.8876  12492.2  111.075
 23.9296  12470.8  111.476
 23.9716  12484.8  110.723
 24.0136  12564.9  111.977
 24.0556  12323.2  110.636
 24.0976  12264.5  110.175
 24.1396  12404.2  113.497
 24.1816  12363.8  111.716
 24.2236  12109.4  110.182
 24.2656  12098.1  109.601
 24.3076  12166.3  110.156
 24.3496  12122.1  109.861
 24.3916  11979.2  109.254
 24.4336  12023.5  109.664
 24.4756  11815.9  108.585
 24.5176  11725.4  107.819
 24.5596  11729.5  107.964
 24.6016  11733.9  108.27
 24.6436  11666.2  107.445
 24.6856  11711.3  107.418
 24.7276  11741.3  107.876
 24.7696  11527.3  106.997
 24.8116  11558.5  107.337
 24.8536  11431.4  106.722
 24.8956  11523.9  106.898
 24.9376  11604.5  107.21
 24.9796  11310.5  106.194
 25.0216  11252.8  106.02
 25.0636  11501.7  106.849
 25.1056  11288.2  106.56
 25.1476  11466.2  109.055
 25.1896  11416.7  107.306
 25.2316  11455.7  106.745
 25.2736  11267.8  105.531
 25.3156  11254.4  105.53
 25.3576  11220.2  105.795
 25.3996  11189.2  105.615
 25.4416  11295  106.108
 25.4836  11163.9  106.02
 25.5256  11137.1  105.257
 25.5676  11121.1  104.92
 25.6096  11076.2  105.271
 25.6516  11151.3  105.138
 25.6936  11103.6  105.211
 25.7356  11197.3  105.798
 25.7776  11123.8  105.046
 25.8196  10956.7  104.498
 25.8616  11103.4  105.114
 25.9036  11081.8  104.481
 25.9456  11047.3  104.923
 25.9876  10899.9  104.276
 26.0296  11068.9  104.598
 26.0716  10873.7  104.078
 26.1136  10882.4  104.066
 26.1556  11112  104.536
 26.1976  10937.7  104.646
 26.2396  10967.3  103.933
 26.2816  11049.1  104.942
 26.3236  10917.4  104.48
 26.3656  10914.1  104.175
 26.4076  11052.8  105.055
 26.4496  11495.6  106.571
 26.4916  11149.2  104.987
 26.5336  10929.3  104.281
 26.5756  11212.1  105.49
 26.6176  10977.1  104.426
 26.6596  10933.8  104.524
 26.7016  10942.9  104.331
 26.7436  10766.8  103.604
 26.7856  10696.6  103.257
 26.8276  10788.5  103.655
 26.8696  10858.8  103.859
 26.9116  10737.5  103.226
 26.9536  10692  103.054
 26.9956  10664.9  102.96
 27.0376  10474.3  102.233
 27.0796  10742.6  103.278
 27.1216  10594.2  102.633
 27.1636  10429.7  102.002
 27.2056  10465.2  102.058
 27.2476  10502.9  102.239
 27.2896  10499  102.337
 27.3316  10383  101.482
 27.3736  10418.7  101.925
 27.4156  10325.7  101.3
 27.4576  10303.7  101.432
 27.4996  10297.3  100.99
 27.5416  10397.9  101.806
 27.5836  10287.8  101.077
 27.6256  10655.9  103.041
 27.6676  10568.3  102.639
 27.7096  10332.8  101.349
 27.7516  10244.7  101.077
 27.7936  10192.3  100.981
 27.8356  10224.7  100.762
 27.8776  10182.7  100.599
 27.9196  10177.3  100.426
 27.9616  10271.8  101.077
 28.0036  10122.2  100.318
 28.0456  10135.9  100.522
 28.0876  9953.25  99.6962
 28.1296  10252.3  101.024
 28.1716  10032.2  99.9366
 28.2136  10059.2  100.041
 28.2556  9881.15  99.2598
 28.2976  10039.4  100.047
 28.3396  10098.8  100.101
 28.3816  10085.4  100.058
 28.4236  10082  100.2
 28.4656  9932.65  99.4842
 28.5076  9996.74  99.4416
 28.5496  10046.8  99.9525
 28.5916  9920.94  99.1333
 28.6336  9876.99  99.2502
 28.6756  9972.29  98.9333
 28.7176  9921.66  99.2251
 28.7596  9873.53  98.886
 28.8016  9844.93  98.7853
 28.8436  9695.26  98.2661
 28.8856  9968.18  99.4848
 28.9276  9791.48  98.8384
 28.9696  9775.41  98.4205
 29.0116  9789.44  98.68
 29.0536  9734.36  98.6023
 29.0956  9827.24  98.7814
 29.1376  9764.77  98.4357
 29.1796  9744.77  98.3829
 29.2216  9687.88  97.9335
 29.2636  9799.71  98.5753
 29.3056  9781.97  98.2766
 29.3476  9713.9  98.4574
 29.3896  9812.47  99.043
 29.4316  9926.48  98.9679
 29.4736  9808.14  98.4334
 29.5156  9876.96  98.6902
 29.5576  9747.08  98.8034
 29.5996  9764.12  98.1378
 29.6416  9605.07  97.4554
 29.6836  9652.2  97.6192
 29.7256  9589.43  97.8664
 29.7676  9702.84  98.0906
 29.8096  9795.34  98.5024
 29.8516  9560.97  97.6492
 29.8936  9572.1  97.8087
 29.9356  9753.81  98.4859
 29.9776  9623.94  97.9826
 30.0196  9560.27  97.0475
 30.0616  9646.77  97.8566
 30.1036  9627.66  97.5914
 30.1456  9620.48  97.7789
 30.1876  9588.83  97.6045
 30.2296  9562.73  97.4084
 30.2716  9710.08  97.7981
 30.3136  9572.43  97.9625
 30.3556  9654.86  98.3883
 30.3976  9523.99  99.2327
 30.4396  9656.12  97.233
 30.4816  9593.75  96.5186
 30.5236  9476.69  95.9447
 30.5656  9505.86  96.7416
 30.6076  9500.18  96.1385
 30.6496  9499.47  96.5257
 30.6916  9421.31  96.2204
 30.7336  9443.66  96.4889
 30.7756  9366.04  96.1782
 30.8176  9461.32  96.5868
 30.8596  9499.93  96.5494
 30.9016  9437.52  96.5768
 30.9436  9591.33  97.1125
 30.9856  9647.14  97.5016
 31.0276  9460.65  96.1588
 31.0696  9400.03  96.4324
 31.1116  9476.64  96.7986
 31.1536  9457.01  96.5835
 31.1956  9380.59  96.2782
 31.2376  9244.66  95.5839
 31.2796  9245.55  95.1325
 31.3216  9321.1  95.4652
 31.3636  9397.25  96.5588
 31.4056  9315.45  97.4585
 31.4476  9353.42  95.5391
 31.4896  9189.64  95.2027
 31.5316  9321.46  95.2875
 31.5736  9333.03  95.1579
 31.6156  9202.25  94.5138
 31.6576  9291.26  95.0664
 31.6996  9299.11  94.7762
 31.7416  9062.52  94.6067
 31.7836  9199.72  94.3456
 31.8256  9111.77  94.1557
 31.8676  9410.68  95.6897
 31.9096  9021.71  94.0473
 31.9516  9101.24  94.6116
 31.9936  9100.33  94.4478
 32.0356  9199.98  95.0213
 32.0776  9174.96  94.7769
 32.1196  9081.3  94.3817
 32.1616  9184.4  94.3746
 32.2036  9045.75  94.1558
 32.2456  8966.8  94.1358
 32.2876  9017.57  93.893
 32.3296  9181.78  94.7144
 32.3716  9081.5  94.3078
 32.4136  9099.47  94.6005
 32.4556  9231.8  94.6703
 32.4976  9135.11  94.0655
 32.5396  9112.26  94.0274
 32.5816  8986.86  93.4943
 32.6236  9015.17  93.7118
 32.6656  9223.2  95.326
 32.7076  9060.54  94.146
 32.7496  9028.85  93.6525
 32.7916  9209.52  94.5405
 32.8336  9076.84  93.9572
 32.8756  9160.18  94.0979
 32.9176  8888.04  93.1688
 32.9596  8962.82  93.6341
 33.0016  9032.28  93.7969
 33.0436  9098.17  94.3094
 33.0856  9047.6  94.1128
 33.1276  8888.56  93.0281
 33.1696  8970.39  93.2883
 33.2116  8963.67  93.487
 33.2536  8968.16  93.5057
 33.2956  9022.82  93.8761
 33.3376  8866.56  92.7965
 33.3796  9024.79  93.8347
 33.4216  9131.06  93.9691
 33.4636  8934.31  93.0995
 33.5056  8851.95  92.9261
 33.5476  8916.71  93.2437
 33.5896  9005.57  93.4906
 33.6316  8816.45  92.8063
 33.6736  8812.61  93.0313
 33.7156  8894.57  93.5073
 33.7576  8923.6  93.2812
 33.7996  9071.43  93.819
 33.8416  8793.96  92.5546
 33.8836  8914.78  92.971
 33.9256  8845.81  92.6674
 33.9676  8995.98  93.3451
 34.0096  8808.5  92.6857
 34.0516  8779.11  92.1667
 34.0936  8721.95  92.1273
 34.1356  8858.2  92.5898
 34.1776  8764.33  92.1135
 34.2196  8741.87  92.1742
 34.2616  8642.19  91.7882
 34.3036  8578.56  91.6841
 34.3456  8697.7  92.0803
 34.3876  8685.65  91.9754
 34.4296  8802.01  92.2811
 34.4716  8828.4  92.5676
 34.5136  8775.34  92.4975
 34.5556  8685.49  92.2795
 34.5976  8789.1  92.6234
 34.6396  8630.85  91.5016
 34.6816  8645.13  91.6802
 34.7236  8697.08  91.7456
 34.7656  8657.5  91.7288
 34.8076  8548.55  91.4818
 34.8496  8595.32  91.5866
 34.8916  8665.28  91.8276
 34.9336  8709.12  92.0235
 34.9756  8653.98  91.6549
 35.0176  8606.87  91.9337
 35.0596  8573.67  91.5742
 35.1016  8532.13  91.1219
 35.1436  8675.97  91.5739
 35.1856  8613.7  91.3769
 35.2276  8694.79  91.9805
 35.2696  8545.02  91.3755
 35.3116  8584.54  91.6841
 35.3536  8514.1  91.0174
 35.3956  8541.77  90.8664
 35.4376  8453.37  90.9431
 35.4796  8536.97  91.465
 35.5216  8529.5  91.3693
 35.5636  8349.18  91.1517
 35.6056  8579.85  91.4109
 35.6476  8486.37  90.8089
 35.6896  8583.89  91.4226
 35.7316  8433.43  90.5901
 35.7736  8541.09  91.3624
 35.8156  8374.81  90.4574
 35.8576  8512.67  91.4689
 35.8996  8675.44  92.2878
 35.9416  8515.35  90.9448
 35.9836  8449.79  90.9331
 36.0256  8483.22  91.1407
 36.0676  8485.29  90.9189
 36.1096  8347.94  90.3114
 36.1516  8534.29  91.1983
 36.1936  8448.9  90.589
 36.2356  8452.74  91.2551
 36.2776  8318.93  90.0086
 36.3196  8386.96  90.0494
 36.3616  8387.42  90.1823
 36.4036  8286.25  89.686
 36.4456  8362.84  90.3172
 36.4876  8340.88  90.1403
 36.5296  8314.38  90.0328
 36.5716  8418.74  91.3842
 36.6136  8521.34  90.7085
 36.6556  8596.01  91.3012
 36.6976  8408.12  90.8066
 36.7396  8356.19  90.261
 36.7816  8354.13  90.6219
 36.8236  8275.54  90.1229
 36.8656  8290.06  90.2674
 36.9076  8258.75  89.9813
 36.9496  8306.84  90.2174
 36.9916  8286.79  89.7436
 37.0336  8370.14  90.5055
 37.0756  8341.53  90.1478
 37.1176  8229.84  89.8112
 37.1596  8354.03  90.4896
 37.2016  8306.96  90.4657
 37.2436  8341.8  89.9672
 37.2856  8268  89.8349
 37.3276  8308.03  89.3876
 37.3696  8196.12  89.6751
 37.4116  8172.09  89.4377
 37.4536  8340.1  90.2253
 37.4956  8193.13  89.4633
 37.5376  8266.22  91.4069
 37.5796  8299.63  91.5673
 37.6216  8009.32  88.2208
 37.6636  8077.28  88.4893
 37.7056  8116.7  88.8985
 37.7476  8157.3  88.6508
 37.7896  8033.14  88.4625
 37.8316  7881.55  87.8073
 37.8736  8143.07  88.7758
 37.9156  8025.21  88.1315
 37.9576  8087.13  88.3657
 37.9996  8070.53  87.9841
 38.0416  7970.08  88.2342
 38.0836  8242.08  89.6401
 38.1256  8005.53  88.3081
 38.1676  8004.4  88.4364
 38.2096  8004.8  88.0607
 38.2516  8297.72  89.8685
 38.2936  8019.47  88.1471
 38.3356  8047.58  88.2213
 38.3776  7918.63  87.7791
 38.4196  8166.81  88.9971
 38.4616  7986.49  88.2403
 38.5036  8198.07  89.2483
 38.5456  7954.13  88.7585
 38.5876  7946.08  88.7501
 38.6296  7909.64  87.5149
 38.6716  7983.08  87.7203
 38.7136  7960.66  87.5408
 38.7556  7980.83  88.1574
 38.7976  7945.09  87.8991
 38.8396  7930.82  88.2696
 38.8816  7816.22  87.4077
 38.9236  7807.53  87.1779
 38.9656  7928.27  87.7611
 39.0076  7931.93  87.1893
 39.0496  7935.6  87.7427
 39.0916  7983.83  87.6501
 39.1336  7902.22  87.627
 39.1756  7894.3  87.6505
 39.2176  7906.26  88.255
 39.2596  7836.54  87.7791
 39.3016  8054.84  88.5592
 39.3436  7857.25  87.893
 39.3856  8008.73  88.1812
 39.4276  7972.69  88.4743
 39.4696  7782.34  87.0432
 39.5116  7813.92  87.724
 39.5536  8052.9  89.4869
 39.5956  8019.71  88.4063
 39.6376  8029.97  88.4523
 39.6796  7889.16  87.4273
 39.7216  7986  88.0515
 39.7636  8033.22  88.8948
 39.8056  7982.01  88.3808
 39.8476  7904.19  88.2062
 39.8896  7947.08  88.0688
 39.9316  7875.37  87.9331
 39.9736  8120.23  88.8539
 40.0156  8004.21  88.0358
 40.0576  8006.36  88.4167
 40.0996  7943.09  87.2465
 40.1416  7981.92  88.2482
 40.1836  8041.97  88.4623
 40.2256  7930.48  87.9007
 40.2676  7890.56  87.7781
 40.3096  8006.54  88.3532
 40.3516  8013.4  88.4941
 40.3936  8098.13  88.5242
 40.4356  8003.77  88.2092
 40.4776  8014.33  88.6763
 40.5196  8034.52  88.9137
 40.5616  8042.56  88.5896
 40.6036  7988.85  88.5576
 40.6456  8029.55  88.3865
 40.6876  8124.63  88.8899
 40.7296  8067.05  88.7236
 40.7716  8032.81  88.6569
 40.8136  8063.36  88.7779
 40.8556  8100.95  89.1054
 40.8976  8063.89  88.8296
 40.9396  7963.46  88.6198
 40.9816  8128.3  88.8152
 41.0236  8065.85  88.2494
 41.0656  8171.7  89.3722
 41.1076  8158.48  89.0716
 41.1496  8103.34  88.6791
 41.1916  7926.72  88.0365
 41.2336  7938.34  88.0804
 41.2756  8038.33  88.2369
 41.3176  7989.63  88.5822
 41.3596  8024.29  88.508
 41.4016  7934.59  88.268
 41.4436  8088.02  88.9047
 41.4856  8032.35  88.7642
 41.5276  7955.28  88.3554
 41.5696  8044.77  88.488
 41.6116  7928.12  88.2271
 41.6536  7979.04  88.3667
 41.6956  8015.19  88.6232
 41.7376  7972.77  88.4226
 41.7796  7997.11  88.4279
 41.8216  8136.12  89.439
 41.8636  7958.59  88.4018
 41.9056  7757.89  87.0669
 41.9476  7931.61  88.2754
 41.9896  7979.32  88.1976
 42.0316  8018.93  88.4983
 42.0736  7940.61  88.1769
 42.1156  7794.16  87.2027
 42.1576  7933.49  88.0805
 42.1996  8022.5  88.7172
 42.2416  8020.17  88.2844
 42.2836  7840.98  87.3985
 42.3256  7920.72  87.9556
 42.3676  7950.52  87.9255
 42.4096  7932.85  87.7923
 42.4516  7924.23  87.8283
 42.4936  7794.56  87.1821
 42.5356  7941.06  88.1319
 42.5776  7882.39  87.7379
 42.6196  8073.09  88.8628
 42.6616  7826.49  87.6548
 42.7036  7964.53  87.8058
 42.7456  7890.61  87.7526
 42.7876  7861.15  87.6916
 42.8296  7816.48  87.2677
 42.8716  7882.92  87.8005
 42.9136  7812.36  87.2006
 42.9556  7884.09  87.7355
 42.9976  7936.58  87.9932
 43.0396  7902.92  87.5306
 43.0816  7844.53  87.5816
 43.1236  7726.36  86.9837
 43.1656  7815.33  87.3129
 43.2076  7682.22  86.6633
 43.2496  7773.86  86.9887
 43.2916  7741.99  87.1844
 43.3336  7790.98  87.2972
 43.3756  7799.06  87.0999
 43.4176  7619.8  86.1717
 43.4596  7683.94  86.3893
 43.5016  7687.23  86.8082
 43.5436  7572.69  86.0595
 43.5856  7604.8  86.2659
 43.6276  7797.16  87.2533
 43.6696  7637.23  86.6073
 43.7116  7777.67  86.8976
 43.7536  7836.4  87.7118
 43.7956  7675.75  88.0113
 43.8376  7695.6  86.6722
 43.8796  7598.32  86.1963
 43.9216  7822.73  87.3799
 43.9636  7684.53  86.7036
 44.0056  7777  87.4658
 44.0476  7724.26  86.7901
 44.0896  7672.19  86.8461
 44.1316  7706.36  86.5591
 44.1736  7628.93  86.2495
 44.2156  7699.21  86.5003
 44.2576  7700.68  86.8362
 44.2996  7605.71  86.2722
 44.3416  7652.66  86.2897
 44.3836  7503.03  85.771
 44.4256  7451.26  85.1181
 44.4676  7522.79  85.6887
 44.5096  7534.23  85.8973
 44.5516  7562.89  86.0171
 44.5936  7489.14  85.5563
 44.6356  7628.79  86.0869
 44.6776  7578.72  86.1305
 44.7196  7514.38  86.0577
 44.7616  7531.54  87.4874
 44.8036  7537.64  85.9199
 44.8456  7450.27  85.6265
 44.8876  7418.37  85.2995
 44.9296  7590.07  85.7301
 44.9716  7504.21  85.6784
 45.0136  7457.88  85.3461
 45.0556  7480.26  85.4422
 45.0976  7518.83  85.8258
 45.1396  7257.28  84.0851
 45.1816  7416.62  84.9414
 45.2236  7505.59  85.3484
 45.2656  7318.12  84.7744
 45.3076  7450.15  85.3045
 45.3496  7433.76  85.53
 45.3916  7314.55  85.1036
 45.4336  7372.11  85.2804
 45.4756  7390.54  85.245
 45.5176  7363.2  84.7067
 45.5596  7554.22  85.9225
 45.6016  7412.83  85.5299
 45.6436  7370.93  84.4735
 45.6856  7315.69  84.8054
 45.7276  7345.79  86.2949
 45.7696  7386.97  86.2168
 45.8116  7380.4  85.6358
 45.8536  7304.66  85.0809
 45.8956  7425.89  85.1325
 45.9376  7415.07  84.5355
 45.9796  7321.21  84.6792
 46.0216  7369.8  85.2986
 46.0636  7292.21  84.001
 46.1056  7455.58  84.927
 46.1476  7356.89  84.9535
 46.1896  7352.43  85.0765
 46.2316  7331.32  84.8244
 46.2736  7253.91  84.7409
 46.3156  7384.54  85.0853
 46.3576  7273.81  84.649
 46.3996  7424.14  85.6787
 46.4416  7330.42  84.7161
 46.4836  7304.18  84.9182
 46.5256  7302.02  84.8434
 46.5676  7337.89  85.1648
 46.6096  7273.2  84.7129
 46.6516  7256.06  83.6742
 46.6936  7366.84  84.8037
 46.7356  7306.29  84.5436
 46.7776  7320.23  85.4745
 46.8196  7214.22  84.4514
 46.8616  7091.56  83.675
 46.9036  7165.8  83.7827
 46.9456  7053.16  82.7589
 46.9876  7190.24  83.647
 47.0296  7236.46  84.5939
 47.0716  7163.57  83.9943
 47.1136  7190.09  83.8238
 47.1556  7223.44  83.8983
 47.1976  7273.51  84.2602
 47.2396  7165.08  84.0306
 47.2816  7177.44  83.8096
 47.3236  7199.01  84.2965
 47.3656  7289.52  84.7591
 47.4076  7094.12  83.4113
 47.4496  7148.1  83.8285
 47.4916  7120.71  83.8487
 47.5336  7207.59  84.1825
 47.5756  7181.85  84.1512
 47.6176  7140.98  83.8091
 47.6596  7104.22  83.3147
 47.7016  7284.45  84.179
 47.7436  7131.67  83.6286
 47.7856  7152.88  83.7702
 47.8276  7146.85  83.7784
 47.8696  7073.18  83.4285
 47.9116  7121.72  83.4292
 47.9536  7025.38  82.8108
 47.9956  7063.95  83.7457
 48.0376  6981.37  83.0361
 48.0796  7064.25  83.6504
 48.1216  7205.11  84.2908
 48.1636  7238.26  84.0618
 48.2056  7018.42  83.0413
 48.2476  7168.93  84.2212
 48.2896  6995.14  83.1123
 48.3316  7039.89  83.3177
 48.3736  6940.42  82.7601
 48.4156  6936.12  82.5919
 48.4576  6932.3  82.8512
 48.4996  7115.49  83.4011
 48.5416  7027.54  83.1984
 48.5836  7078.05  83.178
 48.6256  7073.3  83.3579
 48.6676  6884.61  82.745
 48.7096  7030.89  82.8859
 48.7516  7109.78  83.5053
 48.7936  6962.35  82.6978
 48.8356  7013.93  83.0482
 48.8776  6891.09  82.8917
 48.9196  7040.18  83.1406
 48.9616  6900.54  82.692
 49.0036  6973.55  83.4693
 49.0456  6872.74  82.8529
 49.0876  6916.42  82.6513
 49.1296  6811.05  82.183
 49.1716  6831.32  82.1819
 49.2136  6951.92  82.8266
 49.2556  7024.65  83.2919
 49.2976  6996.77  83.1922
 49.3396  6892.89  82.6288
 49.3816  6873  81.9459
 49.4236  6908.05  82.5795
 49.4656  6821.11  82.0767
 49.5076  6890.72  82.2453
 49.5496  6825.4  81.9172
 49.5916  6877.28  82.1359
 49.6336  6828.9  82.0554
 49.6756  6932.34  82.9018
 49.7176  6899.92  82.6538
 49.7596  6841.75  82.0688
 49.8016  6920.99  82.4703
 49.8436  6798.42  82.0248
 49.8856  6839.16  82.2809
 49.9276  6782.34  82.0361
 49.9696  6806.43  82.1636
 50.0116  6868.4  82.6712
 50.0536  6777.73  82.0639
 50.0956  6767.84  82.0799
 50.1376  6883.43  82.4767
 50.1796  6824.77  82.391
 50.2216  6840.23  82.4843
 50.2636  6850.77  82.1567
 50.3056  6769.58  81.854
 50.3476  6679.11  81.312
 50.3896  6712.11  81.4911
 50.4316  6877.61  82.3267
 50.4736  6679.06  81.3469
 50.5156  6810.02  82.1298
 50.5576  6783.95  81.7312
 50.5996  6710.44  81.568
 50.6416  6616.3  80.921
 50.6836  6696.83  81.4737
 50.7256  6872.27  82.4671
 50.7676  6740.64  81.9744
 50.8096  6700.98  81.285
 50.8516  6667.92  81.4916
 50.8936  6624.86  81.0103
 50.9356  6795.69  82.1494
 50.9776  6703.2  81.7372
 51.0196  6508.43  80.6728
 51.0616  6636.77  80.8119
 51.1036  6654.99  81.2692
 51.1456  6732.34  81.6581
 51.1876  6744.29  81.0726
 51.2296  6749.31  81.7344
 51.2716  6601.16  80.5298
 51.3136  6646.95  81.2621
 51.3556  6621.61  80.7424
 51.3976  6659.71  81.1272
 51.4396  6547.59  80.736
 51.4816  6539.42  80.5442
 51.5236  6578.89  80.8757
 51.5656  6712.28  81.295
 51.6076  6561.06  80.4625
 51.6496  6628.87  81.0542
 51.6916  6630.35  81.4273
 51.7336  6720.87  82.0643
 51.7756  6583.1  80.9273
 51.8176  6509.63  80.5775
 51.8596  6708.6  81.8156
 51.9016  6668.99  81.1834
 51.9436  6666.86  82.6068
 51.9856  6501.99  82.0077
 52.0276  6584.18  81.0342
 52.0696  6558.07  80.9363
 52.1116  6604.69  81.3463
 52.1536  6595.22  81.1742
 52.1956  6535.17  80.2787
 52.2376  6603.51  80.8571
 52.2796  6589.77  80.5955
 52.3216  6335.7  79.7022
 52.3636  6494.49  80.2729
 52.4056  6461.25  79.9298
 52.4476  6458.73  80.2778
 52.4896  6508.53  80.6372
 52.5316  6483.3  80.5245
 52.5736  6491.37  80.3021
 52.6156  6494.12  80.6874
 52.6576  6601.31  80.81
 52.6996  6333.1  80.097
 52.7416  6500.08  80.9989
 52.7836  6404.64  80.2802
 52.8256  6556.56  80.456
 52.8676  6326.66  79.6067
 52.9096  6562.17  81.159
 52.9516  6537.6  81.3904
 52.9936  6490.38  81.4875
 53.0356  6413.49  80.0158
 53.0776  6405.27  80.2259
 53.1196  6322.82  79.8301
 53.1616  6400.74  80.3669
 53.2036  6333.28  79.899
 53.2456  6242.5  79.4208
 53.2876  6388.9  80.0571
 53.3296  6300.26  79.8137
 53.3716  6325.45  79.7198
 53.4136  6333.15  79.9272
 53.4556  6281.76  79.631
 53.4976  6256.93  79.3241
 53.5396  6308.85  80.0453
 53.5816  6391.17  80.1984
 53.6236  6248.43  79.6335
 53.6656  6258.62  79.3337
 53.7076  6345.49  79.8427
 53.7496  6250.65  79.3536
 53.7916  6404.22  80.4555
 53.8336  6298.17  79.6792
 53.8756  6178.38  79.4655
 53.9176  6370.79  80.0478
 53.9596  6385.01  80.8883
 54.0016  6282.62  79.583
 54.0436  6256.51  79.6204
 54.0856  6330.25  79.5256
 54.1276  6274.87  79.3671
 54.1696  6349.87  80.0188
 54.2116  6291.04  79.4005
 54.2536  6332.87  79.4829
 54.2956  6271.72  79.1508
 54.3376  6205.73  79.2062
 54.3796  6273.86  79.5411
 54.4216  6410.44  80.4483
 54.4636  6315.37  79.8077
 54.5056  6302.37  79.544
 54.5476  6315.03  79.961
 54.5896  6314.34  79.7842
 54.6316  6401.41  80.1946
 54.6736  6328.61  79.8109
 54.7156  6383.33  80.1827
 54.7576  6220.08  79.1501
 54.7996  6273.97  79.6163
 54.8416  6229.22  79.3887
 54.8836  6194.82  79.2746
 54.9256  6214.7  79.1548
 54.9676  6308.48  79.6026
 55.0096  6277.49  79.4808
 55.0516  6273.6  79.6857
 55.0936  6229.82  79.043
 55.1356  6247.72  79.1999
 55.1776  6253.36  79.495
 55.2196  6291.82  79.5245
 55.2616  6249.83  79.4706
 55.3036  6168.62  79.1159
 55.3456  6274.25  79.9375
 55.3876  6379.35  80.3467
 55.4296  6300.69  79.8294
 55.4716  6236.53  79.4521
 55.5136  6244  79.2625
 55.5556  6194.99  79.014
 55.5976  6228.84  79.2935
 55.6396  6215.9  79.1493
 55.6816  6265.52  79.3473
 55.7236  6228.66  79.153
 55.7656  6226.9  78.9031
 55.8076  6351.73  79.6769
 55.8496  6223.28  79.1835
 55.8916  6215.91  79.3485
 55.9336  6207.85  79.1
 55.9756  6220.23  79.0735
 56.0176  6133.36  78.6737
 56.0596  6226.47  79.2504
 56.1016  6234.31  79.3075
 56.1436  6227.21  79.5205
 56.1856  6174.89  78.9406
 56.2276  6236.39  79.3843
 56.2696  6205.06  79.1555
 56.3116  6123.78  79.0359
 56.3536  6270.42  79.6343
 56.3956  6167.19  78.9673
 56.4376  6193.5  79.1703
 56.4796  6270.91  79.4618
 56.5216  6150.04  79.0625
 56.5636  6267.65  79.4102
 56.6056  6077.41  78.417
 56.6476  6236.95  79.0721
 56.6896  6159.89  79.019
 56.7316  6120.1  78.6828
 56.7736  6175.13  79.026
 56.8156  6194.04  79.1375
 56.8576  6199.16  79.1318
 56.8996  6125.59  78.596
 56.9416  6161.86  79.131
 56.9836  6087.79  78.1541
 57.0256  6048.2  78.2276
 57.0676  6191.11  79.2662
 57.1096  6109.02  78.5344
 57.1516  6143.4  78.8124
 57.1936  6049.27  77.9568
 57.2356  6166.34  79.0361
 57.2776  6165.78  78.9806
 57.3196  6139.57  79.1823
 57.3616  6106.22  78.4661
 57.4036  6226.78  79.2966
 57.4456  6180.88  78.9655
 57.4876  6170.86  78.7615
 57.5296  6091.06  78.5882
 57.5716  6130.56  78.8243
 57.6136  6128.4  78.6443
 57.6556  6190.11  79.1748
 57.6976  6197.18  79.0481
 57.7396  6175.11  79.2787
 57.7816  6019.6  78.6279
 57.8236  6096.79  78.9282
 57.8656  6118.98  78.7284
 57.9076  6166.44  79.0561
 57.9496  6144.16  79.2702
 57.9916  6080.15  78.372
 58.0336  6071.4  78.5866
 58.0756  6158.74  78.7922
 58.1176  6196.95  79.0271
 58.1596  6058.46  78.7072
 58.2016  6248.38  79.144
 58.2436  6157.78  78.9907
 58.2856  6149.33  78.8501
 58.3276  6141.6  79.1795
 58.3696  6144.84  78.9537
 58.4116  6228.48  79.3435
 58.4536  6201.8  79.0671
 58.4956  6050.57  78.271
 58.5376  6236.44  79.0328
 58.5796  6153.98  78.9302
 58.6216  6142.37  78.6752
 58.6636  6152.58  78.9507
 58.7056  6112.07  78.549
 58.7476  6162.22  79.3219
 58.7896  6139.06  78.8121
 58.8316  6120.96  78.6982
 58.8736  6167.27  79.0023
 58.9156  6043.88  78.2515
 58.9576  6293.78  80.1716
 58.9996  6208.58  78.8698
 59.0416  6312.16  79.8882
 59.0836  6228.09  79.285
 59.1256  6028.99  78.7049
 59.1676  6129.11  79.6622
 59.2096  6050.95  78.4502
 59.2516  6337.63  79.858
 59.2936  5958.63  77.7592
 59.3356  6156.11  78.9138
 59.3776  6222.05  79.5068
 59.4196  6124.69  78.8184
 59.4616  6146.8  78.8187
 59.5036  6135.21  78.7798
 59.5456  6359.98  79.8955
 59.5876  6230.78  79.2739
 59.6296  6125.78  78.6728
 59.6716  6173  79.034
 59.7136  6278.58  79.6951
 59.7556  6317.76  80.0829
 59.7976  6129.65  78.6219
 59.8396  6195.98  78.9391
 59.8816  6105.13  78.9066
 59.9236  6103.72  78.5393
 59.9656  6077.42  78.6315
 60.0076  6192.81  78.7236
 60.0496  6031.59  78.1952
 60.0916  6232.27  78.8948
 60.1336  6028.15  78.6982
 60.1756  6103.01  80.3757
 60.1996  0.0000000E+00  0.0000000E+00