File: docs/examples/opeando_xrd/IS17_D/Data/IS17_D/17_Db_f00035.xye
# /beamlines/bl04/projects/cycle2025-II/20250340211-lsimonelli/DATA/IS17_D/17_Db_f00035.xye : mythproc.py merge -s 0.006 -l 0.5 -f /beamlines/bl04/inhouse/ff/FlatField/ff_20Nov2024rod8mm60s_17keV.raw -b True -c true -o xye /beamlines/bl04/projects/cycle2025-II/20250340211-lsimonelli/DATA/IS17_D/17_Db_00035.dat
# IsMon = [6766478, 6765371, 6765831]  IsPos = [-1.5000, -2.4885, -3.4988]
# Wave = 0.4962  CalPath /beamlines/bl04/projects/cycle2025-II/20250340211-lsimonelli/DATA/Align/Si_Pos1_25keV_f00001.cal
# Date = 2025-09-24_03:27:23 Dt = 4.8000  Bin = 0.0060  <imon> = 6765893 +/- 454 (Min/Max) 6765371 / 6766478
# icurr 250.7291  mocoIn 1.7102E-05  mocoOut 0.8027  i15 7.08635e+06  imon 6.76589e+06  i7 5.6667  iEMpd_timer 4.8000  iEMpd_1 3.5060E-08  iEMpd_2 7.7228E-08  iEMpd_3 1.6104E-08  iEMpd_4 4.8741E-08  iEMhp_timer 4.8000  iEMhp_1 4.8992E-06  iEMhp_2 -2.5812E-08  iEMhp_3 -2.3458E-08  iEMhp_4 -2.1450E-08
#      9776
 1.5856  44368.2  216.282
 1.6276  51617.2  229.279
 1.6696  57000.7  240.09
 1.7116  64557.6  256.009
 1.7536  72381  269.923
 1.7956  76690.9  278.538
 1.8376  72724.9  271.669
 1.8796  62695.8  250.39
 1.9216  51916.1  228.755
 1.9636  45197.6  213.104
 2.0056  40592.9  200.666
 2.0476  37959  196.174
 2.0896  36535.1  191.331
 2.1316  35421  187.486
 2.1736  33598.3  184.047
 2.2156  34161.2  184.093
 2.2576  32872.7  181.236
 2.2996  31979.4  179.411
 2.3416  32056.1  178.193
 2.3836  31306.7  176.206
 2.4256  30715.1  175.102
 2.4676  30066.1  172.997
 2.5096  29832.6  172.38
 2.5516  28736.4  173.073
 2.5936  28547.6  169.042
 2.6356  27922.8  167.888
 2.6776  27939.2  166.83
 2.7196  27417.9  165.763
 2.7616  27250  165.035
 2.8036  26852.2  163.989
 2.8456  26930.5  164.879
 2.8876  26470  163.293
 2.9296  25966  161.895
 2.9716  25910.1  161.202
 3.0136  25354.1  159.533
 3.0556  25311.1  159.789
 3.0976  25575.5  159.521
 3.1396  25166.5  158.961
 3.1816  24976.7  158.305
 3.2236  24693.9  157.41
 3.2656  24367.3  155.404
 3.3076  24210.2  156.363
 3.3496  24705.6  157.112
 3.3916  24911.9  157.355
 3.4336  25300.5  159.157
 3.4756  25752.5  160.516
 3.5176  26516.1  162.647
 3.5596  25883.2  163.705
 3.6016  26276.2  161.984
 3.6436  25230.7  159.837
 3.6856  24964.3  157.29
 3.7276  24044.1  155.446
 3.7696  24026  155.359
 3.8116  23399  153.425
 3.8536  23422.5  153.426
 3.8956  23360.6  153.048
 3.9376  23151  152.63
 3.9796  23274.4  152.524
 4.0216  23298  151.645
 4.0636  23192.6  152.758
 4.1056  23251.2  152.606
 4.1476  23614.1  154.097
 4.1896  23582.1  153.845
 4.2316  23799.9  154.392
 4.2736  24091.5  155.139
 4.3156  24215.3  155.769
 4.3576  24962.9  158.059
 4.3996  25275.7  159.319
 4.4416  25896.7  160.842
 4.4836  26284.7  162.211
 4.5256  26685.3  164.044
 4.5676  26713.2  164.387
 4.6096  27094.9  164.581
 4.6516  27446.1  164.972
 4.6936  27533.9  166.068
 4.7356  27958.9  167.164
 4.7776  27495.4  165.604
 4.8196  27635.8  166.67
 4.8616  27065.3  164.566
 4.9036  26834.9  163.464
 4.9456  26488.8  163.055
 4.9876  26104.2  161.77
 5.0296  26295.9  162.205
 5.0716  26039.5  162.017
 5.1136  26273.6  162.615
 5.1556  26447.1  162.61
 5.1976  27058.8  164.466
 5.2396  26954.3  163.843
 5.2816  27130.3  164.851
 5.3236  27031  164.238
 5.3656  26719.6  164.228
 5.4076  26282  163.011
 5.4496  26292.8  162.555
 5.4916  26521.3  163.004
 5.5336  26217.2  162.079
 5.5756  26469.3  162.859
 5.6176  26376.3  162.031
 5.6596  26821.7  164.217
 5.7016  26829.3  163.664
 5.7436  26991.1  164.433
 5.7856  26746  163.752
 5.8276  27010.6  164.272
 5.8696  27206.7  164.927
 5.9116  27121.8  165.377
 5.9536  27590.9  166.539
 5.9956  27593.6  165.952
 6.0376  27757.6  167.062
 6.0796  27745.1  166.852
 6.1216  27658  166.787
 6.1636  28166.5  167.376
 6.2056  27884.6  167.204
 6.2476  28388.1  168.391
 6.2896  28505.9  168.609
 6.3316  28428.8  168.546
 6.3736  28340.1  168.184
 6.4156  28251.5  167.866
 6.4576  28678.5  168.696
 6.4996  28781  169.475
 6.5416  28754.2  169.516
 6.5836  28803.6  169.91
 6.6256  28804.5  169.469
 6.6676  29465.6  170.969
 6.7096  29524  171.988
 6.7516  29715  172.214
 6.7936  29867.4  172.061
 6.8356  30054.8  172.698
 6.8776  30116.4  173.664
 6.9196  29913.2  173.478
 6.9616  30779.8  175.379
 7.0036  31019.1  175.758
 7.0456  31119.4  175.344
 7.0876  31204.7  177.169
 7.1296  30804.8  175.26
 7.1716  30940.9  175.191
 7.2136  30668  174.202
 7.2556  30906.8  175.034
 7.2976  31152.1  176.221
 7.3396  30528.2  174.665
 7.3816  30658.1  175.244
 7.4236  31111.9  175.844
 7.4656  31138.7  175.379
 7.5076  31464.8  176.445
 7.5496  31091.8  175.927
 7.5916  31358  176.727
 7.6336  31756  177.734
 7.6756  31631.4  177.242
 7.7176  32238.4  179.245
 7.7596  31836.6  179.328
 7.8016  32595.1  183.663
 7.8436  32120  179.048
 7.8856  32270.8  179.085
 7.9276  32849.7  181.073
 7.9696  32666.4  180.866
 8.0116  33987.3  183.063
 8.0536  34155.5  183.752
 8.0956  33820.4  184.007
 8.1376  34433.8  185.151
 8.1796  34587.4  186.085
 8.2216  35522  187.348
 8.2636  35528  187.612
 8.3056  35513.4  188.324
 8.3476  35777.2  188.367
 8.3896  35880  188.716
 8.4316  36035.2  189.288
 8.4736  36119.8  188.988
 8.5156  35467.2  187.543
 8.5576  35350.1  188.181
 8.5996  35112.7  186.452
 8.6416  35214.6  187.954
 8.6836  34806.5  186.697
 8.7256  35501.5  188.018
 8.7676  35190.8  190.037
 8.8096  35570  188.4
 8.8516  35733.2  188.457
 8.8936  35340.7  187.326
 8.9356  35468  187.986
 8.9776  35527.2  188.214
 9.0196  35321  187.347
 9.0616  35058.2  186.167
 9.1036  34407.1  185.568
 9.1456  34376.2  184.835
 9.1876  34459.6  184.996
 9.2296  34473.3  184.489
 9.2716  33852.3  182.852
 9.3136  34348.7  184.188
 9.3556  34254.3  183.894
 9.3976  33394.6  182.089
 9.4396  33397.8  182.007
 9.4816  33084.1  181.011
 9.5236  32936.5  180.493
 9.5656  32573.7  179.859
 9.6076  31929.5  178.588
 9.6496  32202.8  179.218
 9.6916  31948  178.487
 9.7336  32379  179.449
 9.7756  31999.2  179.613
 9.8176  31837.1  178.704
 9.8596  31797.8  177.075
 9.9016  31397.6  175.927
 9.9436  30717.1  173.781
 9.9856  30582.1  173.834
 10.0276  30431.2  174.45
 10.0696  30894.2  174.816
 10.1116  29958.7  172.408
 10.1536  29750.8  171.49
 10.1956  29324.6  170.358
 10.2376  29141.6  169.341
 10.2796  29040.5  169.15
 10.3216  28764.6  168.492
 10.3636  28538.9  168
 10.4056  27823.1  166.272
 10.4476  28269.4  167.207
 10.4896  28295  166.758
 10.5316  27886.3  165.907
 10.5736  27413.3  165.231
 10.6156  27465.3  165.14
 10.6576  27223.6  163.02
 10.6996  27019.6  163.105
 10.7416  26623.2  162.106
 10.7836  26388.9  162.049
 10.8256  25937.1  161.065
 10.8676  25962.1  160.702
 10.9096  26044.1  160.988
 10.9516  25554.5  158.441
 10.9936  25743  159.23
 11.0356  25387.2  158.719
 11.0776  25159.6  157.36
 11.1196  24799.1  156.969
 11.1616  24533.3  155.804
 11.2036  24789.1  156.467
 11.2456  24761.8  157.071
 11.2876  24896.8  157.229
 11.3296  24577.3  156.135
 11.3716  24677.3  156.188
 11.4136  24722  157.153
 11.4556  24715.9  156.799
 11.4976  25167.1  157.243
 11.5396  25363.7  158.024
 11.5816  26260.6  161.214
 11.6236  25640.6  159.753
 11.6656  25510.7  158.29
 11.7076  24634  156.369
 11.7496  24049.6  158.42
 11.7916  24169.7  154.164
 11.8336  23646.5  153.39
 11.8756  23492.4  152.416
 11.9176  23680.4  152.708
 11.9596  23619.5  152.67
 12.0016  23279.1  152.325
 12.0436  23501.6  152.508
 12.0856  23034.9  151.482
 12.1276  22986  151.269
 12.1696  23070.1  150.676
 12.2116  22984  150.403
 12.2536  23095.3  151.535
 12.2956  22867.1  150.172
 12.3376  23150.6  151.299
 12.3796  23055.1  151.463
 12.4216  22911.4  150.204
 12.4636  22639.1  150.222
 12.5056  22975.2  150.608
 12.5476  23215.5  150.92
 12.5896  22709.4  149.898
 12.6316  22877.1  150.586
 12.6736  22565  150.038
 12.7156  22898.5  150.981
 12.7576  22808.9  150.941
 12.7996  22915.7  149.964
 12.8416  22762  150.487
 12.8836  22892.9  150.753
 12.9256  23282.3  151.079
 12.9676  23251.4  151.372
 13.0096  23375.5  152.872
 13.0516  23336.7  151.801
 13.0936  23619.1  152.842
 13.1356  23650.7  152.2
 13.1776  23293.8  152.04
 13.2196  23600.1  152.683
 13.2616  23407.7  152.371
 13.3036  23787.2  153.734
 13.3456  23228.5  151.886
 13.3876  23726.8  152.996
 13.4296  23528.6  152.528
 13.4716  23415.8  151.787
 13.5136  23525  152.256
 13.5556  23228.3  151.926
 13.5976  23615.9  153.351
 13.6396  23548.7  152.502
 13.6816  23700.8  153.33
 13.7236  24143.3  154.457
 13.7656  25689.5  159.795
 13.8076  26325.9  160.415
 13.8496  24922.6  156.886
 13.8916  23874.9  154.524
 13.9336  23093.9  151.267
 13.9756  23147.8  150.832
 14.0176  22710.5  150.072
 14.0596  23010  150.983
 14.1016  22788  150.677
 14.1436  22842.1  149.991
 14.1856  22313.1  148.534
 14.2276  22167.8  148.525
 14.2696  22224.7  148.572
 14.3116  21749.8  146.885
 14.3536  21635.6  146.661
 14.3956  21626  146.362
 14.4376  21732.8  146.503
 14.4796  21594.1  146.036
 14.5216  21211.8  145.516
 14.5636  21053.8  144.549
 14.6056  21331.6  145.058
 14.6476  21329.4  144.315
 14.6896  20968.3  143.625
 14.7316  20707.2  143.748
 14.7736  20405.5  141.852
 14.8156  20285.3  141.45
 14.8576  20212.3  141.059
 14.8996  19750.2  140.6
 14.9416  19424.8  139.465
 14.9836  19410.6  139.393
 15.0256  18922.9  136.578
 15.0676  19119.4  137.587
 15.1096  18952.2  136.732
 15.1516  18692.5  136.339
 15.1936  18396.2  134.697
 15.2356  18242.4  134.402
 15.2776  18183.5  133.785
 15.3196  17730.4  133.069
 15.3616  17743.8  132.884
 15.4036  17631.2  132.329
 15.4456  17835.5  132.75
 15.4876  17749.8  132.123
 15.5296  17569.5  131.729
 15.5716  17452.3  130.9
 15.6136  17287.7  130.604
 15.6556  17102.5  129.164
 15.6976  17206  129.627
 15.7396  17066.4  129.688
 15.7816  16809.7  128.24
 15.8236  16569.7  127.99
 15.8656  16623.9  128.001
 15.9076  16612.2  127.774
 15.9496  17334.6  133.299
 15.9916  16958.9  132.257
 16.0336  17172.4  129.98
 16.0756  17069.3  129.912
 16.1176  16571.8  127.924
 16.1596  16257.2  128.003
 16.2016  16270.1  126.853
 16.2436  16347.3  127.524
 16.2856  16239.8  126.615
 16.3276  15950.3  125.922
 16.3696  16235.4  126.866
 16.4116  16129.7  126.895
 16.4536  16190.7  126.944
 16.4956  16144.1  126.498
 16.5376  15905.9  125.748
 16.5796  15712.6  124.359
 16.6216  15917.2  125.411
 16.6636  15635.1  124.498
 16.7056  15995.5  125.79
 16.7476  15915.6  125.005
 16.7896  15923.8  125.772
 16.8316  15955.9  125.885
 16.8736  15973.3  126.199
 16.9156  15723.3  125.527
 16.9576  15573.9  125.714
 16.9996  15440.5  125.621
 17.0416  15822  125.587
 17.0836  15583.1  124.398
 17.1256  15718.7  124.942
 17.1676  15569  124.307
 17.2096  15510.1  123.964
 17.2516  15589  124.367
 17.2936  15212.7  122.914
 17.3356  15225.1  122.945
 17.3776  15068.9  122.496
 17.4196  14811.2  121.159
 17.4616  14979.2  121.744
 17.5036  14549.1  120.35
 17.5456  14708.4  121.618
 17.5876  14523.8  119.919
 17.6296  14851.3  121.085
 17.6716  14438.3  119.977
 17.7136  14437.7  120.1
 17.7556  14462  120.488
 17.7976  14161.7  118.841
 17.8396  14340.2  119.235
 17.8816  14064.4  118.633
 17.9236  14113.8  118.636
 17.9656  13975.6  118.716
 18.0076  13947.6  118.04
 18.0496  13879.1  116.919
 18.0916  14005  117.978
 18.1336  13750.7  116.99
 18.1756  14075.2  117.933
 18.2176  13749  116.764
 18.2596  13715.6  116.354
 18.3016  13981.4  117.731
 18.3436  13808  117.23
 18.3856  13701.6  116.68
 18.4276  13680.1  116.288
 18.4696  13523.9  115.701
 18.5116  13664.6  116.567
 18.5536  13702.4  117.089
 18.5956  13454.4  115.589
 18.6376  13489.1  116.134
 18.6796  13563.3  115.793
 18.7216  13599.5  116.493
 18.7636  13606.8  116.455
 18.8056  13443.9  115.671
 18.8476  13148.9  115.01
 18.8896  13297  115.011
 18.9316  13375  115.175
 18.9736  13253.8  114.519
 19.0156  13288.9  115.075
 19.0576  13432.9  114.56
 19.0996  13552.9  115.78
 19.1416  13345.1  115.27
 19.1836  13336  114.852
 19.2256  13250.1  114.695
 19.2676  13247.7  114.764
 19.3096  13190.2  114.764
 19.3516  13439  115.615
 19.3936  13167.1  114.516
 19.4356  13380.8  115.326
 19.4776  13148.9  114.41
 19.5196  13399.3  115.354
 19.5616  13088.3  114.243
 19.6036  13182.7  114.175
 19.6456  13191.8  114.33
 19.6876  13169.3  113.877
 19.7296  13347.6  115.102
 19.7716  13232.2  114.628
 19.8136  13480.1  116.031
 19.8556  13528.3  115.728
 19.8976  13428  115.356
 19.9396  13527.7  115.387
 19.9816  13697  116.349
 20.0236  13837.6  117.124
 20.0656  14009.1  117.859
 20.1076  14329.8  119.679
 20.1496  14152.3  118.927
 20.1916  13873.8  117.232
 20.2336  13762.9  116.726
 20.2756  13553.5  116.263
 20.3176  13205.9  114.524
 20.3596  13074.6  113.94
 20.4016  13196.1  114.258
 20.4436  12958.2  113.788
 20.4856  12982.5  113.678
 20.5276  12900.3  113.78
 20.5696  12817.1  112.978
 20.6116  12686.4  112.564
 20.6536  12684.3  112.134
 20.6956  12682  112.195
 20.7376  12639.9  112.219
 20.7796  12556.6  111.543
 20.8216  12859.7  112.588
 20.8636  12752.3  112.498
 20.9056  12572.5  111.635
 20.9476  12655  111.854
 20.9896  12770.6  112.235
 21.0316  12612.3  111.441
 21.0736  12488.1  111.397
 21.1156  12401.3  111.168
 21.1576  12567.6  111.94
 21.1996  12599.4  112.066
 21.2416  12467.4  111.301
 21.2836  12561.3  111.697
 21.3256  12427.7  111.183
 21.3676  12494.5  111.028
 21.4096  12327  110.65
 21.4516  12354  110.587
 21.4936  12075  109.595
 21.5356  12256.6  110.362
 21.5776  12395.4  110.822
 21.6196  12334  110.588
 21.6616  12159.4  109.88
 21.7036  12246.8  110.049
 21.7456  12348.2  110.58
 21.7876  12198.8  109.677
 21.8296  12295  109.95
 21.8716  12210.5  109.797
 21.9136  12283  110.325
 21.9556  12092.7  109.149
 21.9976  12098  109.205
 22.0396  12057.4  109.268
 22.0816  11953.9  109.311
 22.1236  12276.7  110.248
 22.1656  12035.4  109.346
 22.2076  11965  108.455
 22.2496  11807  107.761
 22.2916  11939.2  108.253
 22.3336  11874.3  108.638
 22.3756  11969.1  108.815
 22.4176  11804.8  107.926
 22.4596  11474  106.968
 22.5016  11747.5  107.75
 22.5436  11963.6  108.619
 22.5856  12202.2  109.935
 22.6276  12335.6  110.667
 22.6696  12050  109.734
 22.7116  11775.6  108.001
 22.7536  11887.1  108.487
 22.7956  11928.1  108.02
 22.8376  11576.7  106.921
 22.8796  11824.6  107.868
 22.9216  11858.4  108.552
 22.9636  11797.7  107.449
 23.0056  11780.5  107.499
 23.0476  11809.7  108.192
 23.0896  12156.2  109.156
 23.1316  11934.9  108.582
 23.1736  12034.8  111.909
 23.2156  12143.8  109.842
 23.2576  12583.4  111.943
 23.2996  12105.3  109.577
 23.3416  12494.2  111.852
 23.3836  12346.5  110.427
 23.4256  12430.9  110.912
 23.4676  12261.2  109.855
 23.5096  12134  109.934
 23.5516  12287.8  109.937
 23.5936  12294.3  110.864
 23.6356  12580  111.807
 23.6776  12056.9  109.672
 23.7196  12079.6  109.567
 23.7616  12113.6  109.432
 23.8036  12204.4  109.89
 23.8456  11996.6  108.517
 23.8876  11992  108.841
 23.9296  11956.8  109.167
 23.9716  11967.8  108.432
 24.0136  11977.6  109.365
 24.0556  11811.6  108.327
 24.0976  11840  108.275
 24.1396  11732.5  110.37
 24.1816  11784.8  109.362
 24.2236  11841.2  108.94
 24.2656  11767.9  108.079
 24.3076  11553.9  107.354
 24.3496  11547.7  107.211
 24.3916  11626.4  107.62
 24.4336  11568.8  107.552
 24.4756  11561.6  107.41
 24.5176  11354  106.066
 24.5596  11472.1  106.938
 24.6016  11250.1  105.996
 24.6436  11529.5  106.818
 24.6856  11292.2  105.466
 24.7276  11172.1  105.222
 24.7696  11149.8  105.206
 24.8116  11157.7  105.432
 24.8536  11218.3  105.722
 24.8956  11121.6  105.006
 24.9376  11117.6  105.159
 24.9796  10856.9  104.023
 25.0216  10930.7  104.493
 25.0636  11030.2  104.623
 25.1056  10801.5  103.958
 25.1476  10802.2  105.817
 25.1896  10874.3  104.718
 25.2316  10751.5  103.412
 25.2736  10777.6  103.198
 25.3156  10750.1  103.14
 25.3576  10704.5  103.337
 25.3996  10703.2  103.322
 25.4416  10680.9  103.19
 25.4836  10464.6  102.641
 25.5256  10736.6  103.339
 25.5676  10697.1  102.888
 25.6096  10458.6  102.292
 25.6516  10620.1  102.591
 25.6936  10721.6  103.39
 25.7356  10468.2  102.295
 25.7776  10500.2  102.137
 25.8196  10409.6  101.848
 25.8616  10495.5  102.206
 25.9036  10634.1  102.33
 25.9456  10404.3  101.814
 25.9876  10533.8  102.359
 26.0296  10580.4  102.34
 26.0716  10534.8  102.449
 26.1136  10389.8  101.681
 26.1556  10363.2  100.951
 26.1976  10331.5  101.701
 26.2396  10314.4  101.042
 26.2816  10314.6  101.39
 26.3236  10468.6  102.296
 26.3656  10565.8  102.49
 26.4076  10408.5  101.924
 26.4496  10631.7  102.609
 26.4916  10824.2  103.435
 26.5336  10990.9  104.565
 26.5756  11063.6  104.795
 26.6176  10481.2  102.024
 26.6596  10540.3  102.613
 26.7016  10386  101.616
 26.7436  10478  102.194
 26.7856  10035.7  100.006
 26.8276  10109  100.34
 26.8696  10294.3  101.125
 26.9116  10292.5  101.054
 26.9536  10042.2  99.87
 26.9956  10078.9  100.089
 27.0376  10109.4  100.456
 27.0796  10068.8  100.063
 27.1216  10060.3  99.9973
 27.1636  9900.29  99.3684
 27.2056  9907.09  99.2863
 27.2476  10032.4  99.9024
 27.2896  9853.76  99.1283
 27.3316  9922.13  99.1891
 27.3736  9782.65  98.7583
 27.4156  10022.9  99.7947
 27.4576  9992.83  99.8682
 27.4996  9992.08  99.4758
 27.5416  9840.4  99.0085
 27.5836  9886.7  99.0958
 27.6256  9718.42  98.4106
 27.6676  9810.38  98.8808
 27.7096  9860.62  99.0116
 27.7516  9733.39  98.5224
 27.7936  10032.1  100.158
 27.8356  9932.09  99.2664
 27.8776  10036.2  99.8602
 27.9196  9749.85  98.2913
 27.9616  9786.55  98.6719
 28.0036  9659.18  97.9937
 28.0456  9672.47  98.1955
 28.0876  9553.81  97.6668
 28.1296  9630.82  97.8993
 28.1716  9678.1  98.1618
 28.2136  9762.47  98.5508
 28.2556  9710.12  98.3932
 28.2976  9444.45  97.0426
 28.3396  9485.26  97.0535
 28.3816  9616.49  97.6887
 28.4236  9459.36  97.0466
 28.4656  9534.26  97.4654
 28.5076  9456.22  96.7103
 28.5496  9569.88  97.5439
 28.5916  9534.07  97.1772
 28.6336  9613.27  97.9114
 28.6756  9604.27  97.0834
 28.7176  9512.61  97.1599
 28.7596  9529.95  97.1451
 28.8016  9434.65  96.6903
 28.8436  9327.54  96.375
 28.8856  9459.5  96.9102
 28.9276  9404.15  96.8701
 28.9696  9363.74  96.3218
 29.0116  9371.62  96.5507
 29.0536  9345.26  96.6173
 29.0956  9398.26  96.6038
 29.1376  9239.16  95.7468
 29.1796  9312.16  96.1721
 29.2216  9370.49  96.3174
 29.2636  9419.22  96.5468
 29.3056  9305.49  95.8399
 29.3476  9228.77  95.9548
 29.3896  9345.08  96.6761
 29.4316  9176.43  95.1511
 29.4736  9042.11  94.5056
 29.5156  9129.57  94.8935
 29.5576  9009.83  94.982
 29.5996  8993.63  94.1821
 29.6416  8925.1  93.9303
 29.6836  9089.71  94.7267
 29.7256  9148.42  95.5838
 29.7676  8913.3  94.0202
 29.8096  9074.59  94.8143
 29.8516  8866.66  94.0442
 29.8936  8855.18  94.0699
 29.9356  9071.21  94.9729
 29.9776  9043.58  94.9756
 30.0196  8981.09  94.0543
 30.0616  8899.38  93.9869
 30.1036  8983.1  94.2541
 30.1456  8897.43  94.0299
 30.1876  8966.73  94.3795
 30.2296  8919.39  94.0788
 30.2716  9016.69  94.2379
 30.3136  9003.47  95.0011
 30.3556  9090.26  95.4601
 30.3976  8943.96  96.113
 30.4396  9340.71  95.6287
 30.4816  9232.87  94.6856
 30.5236  9245.5  94.7435
 30.5656  9034.05  94.3064
 30.6076  9011.52  93.9564
 30.6496  9101.3  94.4832
 30.6916  8881.54  93.4208
 30.7336  9142.16  94.9202
 30.7756  9113.87  94.8624
 30.8176  9124.64  94.8505
 30.8596  9165.61  94.8196
 30.9016  9140.22  94.5607
 30.9436  9259.74  95.4097
 30.9856  9282.84  95.6335
 31.0276  9049.62  94.0661
 31.0696  8948.72  94.0915
 31.1116  8842.95  93.4971
 31.1536  8957.34  93.9794
 31.1956  8970.46  94.1334
 31.2376  8857.25  93.5714
 31.2796  9006.74  93.8954
 31.3216  8938.49  93.474
 31.3636  8945.93  94.1912
 31.4056  8906.17  95.2729
 31.4476  9031.54  93.8777
 31.4896  8898.67  93.6745
 31.5316  9071.84  94.0355
 31.5736  9117.41  94.0624
 31.6156  8965.4  93.2813
 31.6576  9007.82  93.5728
 31.6996  9177.03  94.0934
 31.7416  8920.41  93.726
 31.7836  9017.56  93.3784
 31.8256  8944.15  93.3421
 31.8676  9054.8  93.8328
 31.9096  8862.28  93.046
 31.9516  8677.82  92.3873
 31.9936  8695.1  92.2994
 32.0356  8851.36  93.1644
 32.0776  8801.94  92.8053
 32.1196  9049.98  94.1307
 32.1616  8839.72  92.566
 32.2036  8962.41  93.7218
 32.2456  8897.88  93.7566
 32.2876  8749.88  92.3241
 32.3296  8764.54  92.5271
 32.3716  8626.35  91.9075
 32.4136  8605.81  91.9982
 32.4556  8780.41  92.3729
 32.4976  8838.84  92.5771
 32.5396  8653.34  91.6191
 32.5816  8765.14  92.3332
 32.6236  8536.57  91.1748
 32.6656  8771.49  92.9679
 32.7076  8544.15  91.4171
 32.7496  8582.93  91.312
 32.7916  8756.07  92.1866
 32.8336  8595.49  91.4288
 32.8756  8685.65  91.6276
 32.9176  8406.41  90.6174
 32.9596  8520.5  91.2999
 33.0016  8580.84  91.3849
 33.0436  8580.59  91.5614
 33.0856  8570.14  91.6059
 33.1276  8458.05  90.7445
 33.1696  8602.32  91.3437
 33.2116  8555.73  91.3271
 33.2536  8651.6  91.8267
 33.2956  8596.19  91.6177
 33.3376  8397.3  90.3858
 33.3796  8503.3  91.0839
 33.4216  8513.32  90.7332
 33.4636  8529.24  90.9694
 33.5056  8295.28  89.9523
 33.5476  8618.17  91.6565
 33.5896  8571.55  91.1897
 33.6316  8415.9  90.6746
 33.6736  8355.46  90.5952
 33.7156  8345.44  90.5598
 33.7576  8471.45  90.9065
 33.7996  8496.92  90.8022
 33.8416  8366.96  90.2904
 33.8836  8300.5  89.714
 33.9256  8443.14  90.5299
 33.9676  8496.85  90.7228
 34.0096  8360.77  90.2953
 34.0516  8386.98  90.0793
 34.0936  8221.36  89.458
 34.1356  8468.04  90.5263
 34.1776  8184.51  88.9998
 34.2196  8349.35  90.0774
 34.2616  8179.91  89.2887
 34.3036  8362.39  90.5179
 34.3456  8250.77  89.6549
 34.3876  8426.27  90.6798
 34.4296  8222.16  89.1872
 34.4716  8318.14  89.8587
 34.5136  8246.61  89.6608
 34.5556  8147.33  89.3719
 34.5976  8372.84  90.4343
 34.6396  8314.45  89.8102
 34.6816  8191.56  89.2455
 34.7236  8148.12  88.7803
 34.7656  8301.98  89.8277
 34.8076  8208.79  89.651
 34.8496  8162.84  89.2532
 34.8916  8297.99  89.8513
 34.9336  8172.22  89.1494
 34.9756  8380.31  90.2159
 35.0176  8258.92  90.065
 35.0596  8304.2  90.1324
 35.1016  8270.12  89.7067
 35.1436  8400.08  90.1022
 35.1856  8352.08  89.9577
 35.2276  8176  89.187
 35.2696  8219.3  89.609
 35.3116  8164.41  89.4069
 35.3536  8213.23  89.4143
 35.3956  8208.67  89.0807
 35.4376  8261.63  89.9227
 35.4796  8155.27  89.3785
 35.5216  8137.46  89.2415
 35.5636  7949.37  88.9147
 35.6056  8077.04  88.6911
 35.6476  8175.25  89.1196
 35.6896  8152.57  89.1659
 35.7316  8012.76  88.2957
 35.7736  8014.03  88.4918
 35.8156  8116.04  89.0488
 35.8576  8102.99  89.22
 35.8996  8174.55  89.587
 35.9416  8064.04  88.5027
 35.9836  8008.37  88.6309
 36.0256  8293.57  90.0939
 36.0676  8292.87  89.6312
 36.1096  8153.68  89.2245
 36.1516  8192.23  89.3367
 36.1936  8159.14  88.9992
 36.2356  8067.06  89.1346
 36.2776  8092.67  88.7562
 36.3196  8002.83  87.9393
 36.3616  8001.62  88.0742
 36.4036  8037.93  88.3405
 36.4456  8097.62  88.8713
 36.4876  7969.23  88.1068
 36.5296  7974.29  88.1661
 36.5716  8118.09  89.7287
 36.6136  7943.53  87.5763
 36.6556  7846.7  87.2325
 36.6976  7762.16  87.2443
 36.7396  7807.81  87.2351
 36.7816  7683.14  86.9021
 36.8236  7795.48  87.4586
 36.8656  7749.78  87.2704
 36.9076  7593.15  86.3921
 36.9496  7601.74  86.3019
 36.9916  7644.71  86.1908
 37.0336  7817.46  87.4662
 37.0756  7858.08  87.4917
 37.1176  7666.26  86.6772
 37.1596  7640.36  86.5395
 37.2016  7755.55  87.3593
 37.2436  7689.09  86.3718
 37.2856  7677.85  86.5436
 37.3276  7698.7  86.0443
 37.3696  7604.9  86.3712
 37.4116  7711.85  86.886
 37.4536  7604.59  86.1489
 37.4956  7572.54  86.0137
 37.5376  7888.27  89.3523
 37.5796  7756.39  88.5279
 37.6216  7775.1  86.9343
 37.6636  7852.54  87.2537
 37.7056  7826.37  87.297
 37.7476  7963.52  87.6043
 37.7896  7779.81  87.0924
 37.8316  7811.34  87.4012
 37.8736  7777.52  86.7657
 37.9156  7869.07  87.2705
 37.9576  7807  86.8367
 37.9996  7705.66  85.9846
 38.0416  7805.56  87.3381
 38.0836  7998.52  88.319
 38.1256  7777.43  87.0617
 38.1676  7601.69  86.1787
 38.2096  7761.48  86.6975
 38.2516  7717.58  86.6769
 38.2936  7825.82  87.0839
 38.3356  7617.77  85.8549
 38.3776  7584.2  85.908
 38.4196  7699.11  86.4105
 38.4616  7595.32  86.0642
 38.5036  8009.33  88.225
 38.5456  7604.92  86.7786
 38.5876  7612.33  86.851
 38.6296  7710.1  86.3787
 38.6716  7725.15  86.2771
 38.7136  7679.32  85.9696
 38.7556  7655.56  86.3326
 38.7976  7659.82  86.2854
 38.8396  7687.58  86.8887
 38.8816  7548.67  85.9068
 38.9236  7562.13  85.7835
 38.9656  7627.65  86.0691
 39.0076  7795.37  86.4051
 39.0496  7698.87  86.425
 39.0916  7844.27  86.8881
 39.1336  7679.15  86.3614
 39.1756  7586.44  85.9052
 39.2176  7687.98  87.0054
 39.2596  7663.24  86.7953
 39.3016  7657.03  86.3505
 39.3436  7570.08  86.2628
 39.3856  7682.8  86.3525
 39.4276  7709.27  86.9997
 39.4696  7725.75  86.7212
 39.5116  7677.19  86.9471
 39.5536  7645.65  87.1826
 39.5956  7654.79  86.3565
 39.6376  7576.9  85.9226
 39.6796  7451.88  84.9602
 39.7216  7704.52  86.4898
 39.7636  7645.75  86.7029
 39.8056  7603.76  86.2559
 39.8476  7574.12  86.3339
 39.8896  7594.47  86.0957
 39.9316  7469.86  85.6297
 39.9736  7667.1  86.3379
 40.0156  7623  85.9216
 40.0576  7546.06  85.8296
 40.0996  7726.67  86.0488
 40.1416  7641.74  86.3532
 40.1836  7724.93  86.7087
 40.2256  7622.56  86.1632
 40.2676  7527.86  85.805
 40.3096  7734.36  86.8258
 40.3516  7706.13  86.7889
 40.3936  7733.9  86.5007
 40.4356  7561.14  85.7265
 40.4776  7782.78  87.2093
 40.5196  7706.14  87.0703
 40.5616  7659.07  86.454
 40.6036  7609.41  86.4199
 40.6456  7607.49  86.0239
 40.6876  7802.86  87.1185
 40.7296  7590.63  86.0562
 40.7716  7672.5  86.6374
 40.8136  7513.17  85.676
 40.8556  7758.39  87.1994
 40.8976  7773.21  87.208
 40.9396  7726.99  87.2875
 40.9816  7709.84  86.4962
 41.0236  7685.78  86.1461
 41.0656  7756.7  87.067
 41.1076  7681.99  86.4231
 41.1496  7775.66  86.8562
 41.1916  7517.11  85.7173
 41.2336  7727.32  86.8962
 41.2756  7636.83  86.0046
 41.3176  7720.14  87.0736
 41.3596  7641.46  86.3678
 41.4016  7648.98  86.6681
 41.4436  7634.84  86.372
 41.4856  7649.78  86.6249
 41.5276  7543.02  86.0294
 41.5696  7671.31  86.3794
 41.6116  7731.06  87.1159
 41.6536  7623.08  86.3677
 41.6956  7681.42  86.6789
 41.7376  7515.1  85.8466
 41.7796  7572.48  86.0988
 41.8216  7618.89  86.5434
 41.8636  7615.63  86.4746
 41.9056  7499.1  85.6038
 41.9476  7690.16  86.9155
 41.9896  7830.15  87.3681
 42.0316  7643.14  86.4062
 42.0736  7721.82  86.9809
 42.1156  7614.4  86.1872
 42.1576  7588.94  86.1448
 42.1996  7690.08  86.8428
 42.2416  7578.15  85.8106
 42.2836  7523.93  85.6162
 42.3256  7548.96  85.8575
 42.3676  7706.8  86.5592
 42.4096  7614.92  86.0163
 42.4516  7716.25  86.6576
 42.4936  7485.2  85.4203
 42.5356  7536.4  85.8557
 42.5776  7591.79  86.1046
 42.6196  7527.57  85.7933
 42.6616  7465.23  85.6009
 42.7036  7607.04  85.8105
 42.7456  7592.88  86.0722
 42.7876  7678.76  86.6442
 42.8296  7577.13  85.9191
 42.8716  7388.43  85.0075
 42.9136  7477.34  85.2697
 42.9556  7663.4  86.4895
 42.9976  7556.78  85.8534
 43.0396  7492.54  85.2288
 43.0816  7444.33  85.3207
 43.1236  7476.87  85.5632
 43.1656  7542.12  85.7604
 43.2076  7516.71  85.721
 43.2496  7432.92  85.071
 43.2916  7519.19  85.9172
 43.3336  7487.61  85.5587
 43.3756  7505.11  85.4373
 43.4176  7497.29  85.4631
 43.4596  7421.28  84.8932
 43.5016  7455.25  85.4816
 43.5436  7442.02  85.3159
 43.5856  7379.59  84.9868
 43.6276  7396.31  84.9755
 43.6696  7376.98  85.0021
 43.7116  7498.61  85.3209
 43.7536  7527.36  85.9703
 43.7956  7366.23  86.2307
 43.8376  7250.81  84.1206
 43.8796  7281.77  84.3719
 43.9216  7357.03  84.7323
 43.9636  7311.58  84.5774
 44.0056  7358.37  85.0708
 44.0476  7218.61  83.9033
 44.0896  7264.33  84.5047
 44.1316  7218.07  83.9074
 44.1736  7345.2  84.6222
 44.2156  7288.98  84.1576
 44.2576  7351.37  84.8379
 44.2996  7277.25  84.3799
 44.3416  7322.71  84.4101
 44.3836  7189.15  83.9555
 44.4256  7181.18  83.5625
 44.4676  7320.56  84.5248
 44.5096  7255.16  84.2862
 44.5516  7233.53  84.1257
 44.5936  7202.22  83.8993
 44.6356  7212.89  83.7044
 44.6776  7165.66  83.7349
 44.7196  7309.13  84.876
 44.7616  7253.14  85.8525
 44.8036  7332.34  84.9593
 44.8456  7372.53  85.1956
 44.8876  7379.88  85.079
 44.9296  7451.11  84.9428
 44.9716  7309.21  84.5557
 45.0136  7422.43  85.1466
 45.0556  7378.31  84.9808
 45.0976  7320.2  84.6797
 45.1396  7322.06  84.4504
 45.1816  7259.4  84.0432
 45.2236  7483.45  85.2339
 45.2656  7336.32  84.889
 45.3076  7251.98  84.1707
 45.3496  7198.25  84.1668
 45.3916  7451.65  85.9067
 45.4336  7411.34  85.5097
 45.4756  7268.82  84.5517
 45.5176  7431.16  85.1046
 45.5596  7414.44  85.1311
 45.6016  7191.02  84.2484
 45.6436  7365.08  84.4439
 45.6856  7370.17  85.1207
 45.7276  7151.88  85.1479
 45.7696  7270.6  85.5344
 45.8116  7215.08  84.6487
 45.8536  7184.17  84.3471
 45.8956  7387.22  84.903
 45.9376  7333.05  84.06
 45.9796  7368.34  84.9565
 46.0216  7367.58  85.2806
 46.0636  7506.89  85.2165
 46.1056  7393.23  84.5632
 46.1476  7451.18  85.4892
 46.1896  7330.37  84.9345
 46.2316  7125.66  83.6133
 46.2736  7291.06  84.7858
 46.3156  7257.09  84.3392
 46.3576  7271  84.6201
 46.3996  7279.47  84.8311
 46.4416  7233.32  84.1119
 46.4836  7320.89  84.9982
 46.5256  7221.68  84.3588
 46.5676  7248.75  84.6365
 46.6096  7338.24  85.0817
 46.6516  7301.56  83.9193
 46.6936  7283.56  84.317
 46.7356  7350.73  84.799
 46.7776  7085.5  84.09
 46.8196  7185.93  84.4298
 46.8616  7018  83.2397
 46.9036  7047.69  83.0825
 46.9456  7165.05  83.4203
 46.9876  7301.4  84.283
 47.0296  7130.22  83.9694
 47.0716  7103.82  83.6453
 47.1136  7223.93  84.0286
 47.1556  7149.46  83.4611
 47.1976  7247.47  84.1851
 47.2396  7171.71  84.0655
 47.2816  7084.51  83.2614
 47.3236  7145.3  83.9748
 47.3656  7114.55  83.7321
 47.4076  7200.45  83.961
 47.4496  7076.58  83.4104
 47.4916  7088.32  83.6663
 47.5336  7108.13  83.5929
 47.5756  7257.79  84.5893
 47.6176  7075.88  83.4291
 47.6596  7146.88  83.5586
 47.7016  7275.59  84.1202
 47.7436  7145.34  83.7023
 47.7856  7227.42  84.2068
 47.8276  7113.56  83.5844
 47.8696  7152.42  83.8983
 47.9116  7135.77  83.5238
 47.9536  7166.06  83.6355
 47.9956  7051.74  83.6716
 48.0376  7032.79  83.337
 48.0796  7220.05  84.5642
 48.1216  7155.47  84.01
 48.1636  7210.71  83.9016
 48.2056  7226.23  84.248
 48.2476  7301.39  85.0044
 48.2896  7258.14  84.6635
 48.3316  7304.85  84.8832
 48.3736  7120.31  83.8235
 48.4156  7083.11  83.4574
 48.4576  7124.44  83.9904
 48.4996  7250.29  84.1795
 48.5416  7216.66  84.3115
 48.5836  7090.95  83.2533
 48.6256  7174.05  83.9431
 48.6676  7134.45  84.2326
 48.7096  7142.66  83.549
 48.7516  7078.24  83.3201
 48.7936  7046.07  83.1906
 48.8356  7110.8  83.623
 48.8776  7196.68  84.6101
 48.9196  7195.45  84.0593
 48.9616  7089.69  83.8137
 49.0036  7182.07  84.7056
 49.0456  7156.22  84.5286
 49.0876  7106.56  83.8753
 49.1296  7045.4  83.5893
 49.1716  6946.36  82.8706
 49.2136  7152.62  84.008
 49.2556  7133.69  83.9284
 49.2976  7171.71  84.2239
 49.3396  7052.54  83.5799
 49.3816  7120.74  83.4128
 49.4236  7121.19  83.8447
 49.4656  6956.33  82.8871
 49.5076  7076.74  83.3414
 49.5496  7088.92  83.4844
 49.5916  7120.17  83.5841
 49.6336  7059.09  83.4258
 49.6756  7100.81  83.9094
 49.7176  6943.95  82.9147
 49.7596  7104.11  83.6306
 49.8016  7068.5  83.3422
 49.8436  7010.14  83.2952
 49.8856  6962.71  83.019
 49.9276  7011.75  83.4094
 49.9696  7065.73  83.7075
 50.0116  7058.08  83.7995
 50.0536  7036.61  83.6194
 50.0956  7062.59  83.8451
 50.1376  7044.04  83.4284
 50.1796  7056.09  83.7654
 50.2216  7010.96  83.4966
 50.2636  6921.03  82.581
 50.3056  6964.64  83.018
 50.3476  6953.39  82.9729
 50.3896  6968.35  83.0315
 50.4316  7009.56  83.1112
 50.4736  6950.29  82.9773
 50.5156  6972.35  83.0987
 50.5576  6969.44  82.8343
 50.5996  6967.45  83.1119
 50.6416  6910.13  82.6887
 50.6836  7004.98  83.3189
 50.7256  7105.41  83.8366
 50.7676  7149.76  84.3807
 50.8096  6997.15  83.0391
 50.8516  6908.21  82.9391
 50.8936  6940.19  82.9106
 50.9356  7078.35  83.8436
 50.9776  6946.34  83.2187
 51.0196  6834.72  82.6684
 51.0616  6843.57  82.053
 51.1036  6850.74  82.4535
 51.1456  6840.7  82.3038
 51.1876  6894.15  81.9631
 51.2296  6780.99  81.922
 51.2716  6735.98  81.3549
 51.3136  6806.52  82.2404
 51.3556  6724.16  81.3671
 51.3976  6726.17  81.5295
 51.4396  6733.57  81.8834
 51.4816  6690.26  81.4749
 51.5236  6779.08  82.0962
 51.5656  6792.34  81.7767
 51.6076  6752.43  81.6168
 51.6496  6676.49  81.3473
 51.6916  6783.49  82.349
 51.7336  6788.68  82.4792
 51.7756  6764.56  82.0235
 51.8176  6583  81.028
 51.8596  6728.06  81.9303
 51.9016  6893.54  82.5354
 51.9436  6762.52  83.2257
 51.9856  6833.4  84.0777
 52.0276  6915.45  83.0459
 52.0696  6936.89  83.2469
 52.1116  6709.51  82.0033
 52.1536  6765.22  82.1662
 52.1956  6736.26  81.5117
 52.2376  6931.16  82.8596
 52.2796  6914.38  82.5766
 52.3216  6672.49  81.7991
 52.3636  6894.46  82.6954
 52.4056  6817.84  82.1187
 52.4476  6777.37  82.2388
 52.4896  6730.28  81.9999
 52.5316  6786.99  82.3964
 52.5736  6638.58  81.2161
 52.6156  6932.55  83.3813
 52.6576  6633.09  81.0058
 52.6996  6643.57  82.0483
 52.7416  6562.31  81.4059
 52.7836  6863.61  83.1438
 52.8256  6885.32  82.4785
 52.8676  6558.48  81.0654
 52.9096  6789.87  82.5494
 52.9516  6644.3  82.0521
 52.9936  6675.92  82.6177
 53.0356  6729.43  81.9502
 53.0776  6869.04  83.0962
 53.1196  6745.64  82.4322
 53.1616  6857.35  83.1727
 53.2036  6753.29  82.5008
 53.2456  6834.74  83.1056
 53.2876  6699.53  81.968
 53.3296  6730.29  82.4806
 53.3716  6815.86  82.7539
 53.4136  6709.67  82.2585
 53.4556  6717.79  82.342
 53.4976  6661.52  81.8344
 53.5396  6702.45  82.4782
 53.5816  6715.28  82.2006
 53.6236  6557.27  81.5685
 53.6656  6855.27  82.9828
 53.7076  6692.7  81.9738
 53.7496  6805.33  82.7911
 53.7916  6747.14  82.5762
 53.8336  6770.48  82.6031
 53.8756  6526.91  81.6375
 53.9176  6608.35  81.5025
 53.9596  6418.39  81.0586
 54.0016  6405.36  80.3231
 54.0436  6382.98  80.4197
 54.0856  6524.76  80.7232
 54.1276  6486.07  80.6812
 54.1696  6508.25  80.9858
 54.2116  6562.16  81.0543
 54.2536  6492.6  80.428
 54.2956  6515.75  80.6366
 54.3376  6358.94  80.1307
 54.3796  6393.89  80.2539
 54.4216  6398.21  80.351
 54.4636  6365.69  80.1109
 54.5056  6475.26  80.5948
 54.5476  6356.8  80.2056
 54.5896  6394.44  80.271
 54.6316  6376.65  80.0129
 54.6736  6414.97  80.2843
 54.7156  6383.49  80.1655
 54.7576  6268.29  79.3971
 54.7996  6455.7  80.7583
 54.8416  6358.73  80.1835
 54.8836  6449.65  80.8585
 54.9256  6308.25  79.7216
 54.9676  6237.73  79.1483
 55.0096  6300.39  79.5747
 55.0516  6306.15  79.7844
 55.0936  6211.91  78.9169
 55.1356  6328.21  79.6859
 55.1776  6520.98  81.1408
 55.2196  6293.78  79.5104
 55.2616  6452.6  80.716
 55.3036  6287.67  79.8557
 55.3456  6183.84  79.3313
 55.3876  6355.31  80.1436
 55.4296  6195.01  79.138
 55.4716  6254.8  79.5398
 55.5136  6273.78  79.43
 55.5556  6393.03  80.2156
 55.5976  6220.83  79.2316
 55.6396  6229.75  79.1389
 55.6816  6256.45  79.2472
 55.7236  6242.35  79.2267
 55.7656  6322.26  79.4672
 55.8076  6243.38  78.965
 55.8496  6399.8  80.3727
 55.8916  6199.81  79.1602
 55.9336  6347.86  79.9662
 55.9756  6199.64  78.908
 56.0176  6208.5  79.1219
 56.0596  6298.19  79.6732
 56.1016  6178.52  78.9753
 56.1436  6132.35  78.8822
 56.1856  6056.9  78.1628
 56.2276  6197.29  79.1026
 56.2696  6130.96  78.665
 56.3116  6267.54  79.8829
 56.3536  6160.78  78.8959
 56.3956  6141.3  78.7591
 56.4376  6152.58  78.8691
 56.4796  6029.35  77.9007
 56.5216  6195.98  79.3425
 56.5636  6049.89  77.9783
 56.6056  6276.67  79.6386
 56.6476  6094.07  78.1255
 56.6896  6229.38  79.4436
 56.7316  6028.45  78.0641
 56.7736  6188.25  79.094
 56.8156  6139.98  78.7913
 56.8576  5955.72  77.5556
 56.8996  6005.56  77.7764
 56.9416  6025.58  78.2072
 56.9836  6191.73  78.803
 57.0256  6061.38  78.288
 57.0676  6148.18  78.9447
 57.1096  6101.28  78.4385
 57.1516  5997.36  77.7886
 57.1936  6052  77.9394
 57.2356  5977.27  77.7757
 57.2776  6098.29  78.5364
 57.3196  6145.97  79.1754
 57.3616  6043.65  78.0267
 57.4036  6033.15  78.0049
 57.4456  6194.55  79.0271
 57.4876  6057.13  78.0032
 57.5296  5964.69  77.6407
 57.5716  6044.39  78.2671
 57.6136  5917.18  77.279
 57.6556  6043.59  78.2085
 57.6976  6036.56  77.9963
 57.7396  5990.49  78.0466
 57.7816  5852.72  77.5158
 57.8236  5945.41  77.91
 57.8656  5968.83  77.7412
 57.9076  6041.6  78.2369
 57.9496  5985.62  78.2194
 57.9916  6024.62  77.9895
 58.0336  5945.07  77.7418
 58.0756  5875.5  76.8938
 58.1176  5904.77  77.1107
 58.1596  5981.34  78.2018
 58.2016  5756.59  75.9691
 58.2436  5734.99  76.2224
 58.2856  5750.35  76.2497
 58.3276  5710.09  76.3414
 58.3696  5665.06  75.8033
 58.4116  5739.04  76.1643
 58.4536  5832.82  76.6704
 58.4956  5671.03  75.776
 58.5376  5689.69  75.4795
 58.5796  5688.29  75.8852
 58.6216  5729.24  75.9835
 58.6636  5742.84  76.2727
 58.7056  5805.99  76.5544
 58.7476  5634.36  75.8451
 58.7896  5738.53  76.1969
 58.8316  5706.4  75.9776
 58.8736  5762.53  76.3622
 58.9156  5642.17  75.6009
 58.9576  5748.18  76.618
 58.9996  5725.01  75.7381
 59.0416  5799.66  76.5857
 59.0836  5764.36  76.2646
 59.1256  5633.73  76.0758
 59.1676  5706.3  76.8723
 59.2096  5791.3  76.7601
 59.2516  5907.36  77.111
 59.2936  5719.04  76.1913
 59.3356  5764.62  76.3748
 59.3776  5721.08  76.2503
 59.4196  5765.84  76.4859
 59.4616  5598.67  75.2337
 59.5036  5627.61  75.4619
 59.5456  5924.61  77.124
 59.5876  5683.52  75.7239
 59.6296  5643.77  75.5255
 59.6716  5534.64  74.8472
 59.7136  5722.09  76.0928
 59.7556  5602.7  75.4262
 59.7976  5588.23  75.0806
 59.8396  5614.33  75.1539
 59.8816  5727.62  76.4397
 59.9236  5677.21  75.7569
 59.9656  5722.61  76.3103
 60.0076  5730.14  75.7371
 60.0496  5628.06  75.5456
 60.0916  5855.76  76.486
 60.1336  5654.36  76.2306
 60.1756  5674.18  77.512
 60.1996  0.0000000E+00  0.0000000E+00