File: docs/examples/opeando_xrd/IS17_D/Data/IS17_D/17_Da_f00123.xye
# /beamlines/bl04/projects/cycle2025-II/20250340211-lsimonelli/DATA/IS17_D/17_Da_f00123.xye : mythproc.py merge -s 0.006 -l 0.5 -f /beamlines/bl04/inhouse/ff/FlatField/ff_20Nov2024rod8mm60s_17keV.raw -b True -c true -o xye /beamlines/bl04/projects/cycle2025-II/20250340211-lsimonelli/DATA/IS17_D/17_Da_00123.dat
# IsMon = [6750321, 6756022, 6755140]  IsPos = [-1.4999, -2.4884, -3.4988]
# Wave = 0.4962  CalPath /beamlines/bl04/projects/cycle2025-II/20250340211-lsimonelli/DATA/Align/Si_Pos1_25keV_f00001.cal
# Date = 2025-09-25_03:52:08 Dt = 4.8000  Bin = 0.0060  <imon> = 6753828 +/- 2506 (Min/Max) 6750321 / 6756022
# icurr 249.7255  mocoIn 1.7038E-05  mocoOut 0.7995  i15 7.07177e+06  imon 6.75383e+06  i7 7.6667  iEMpd_timer 4.8000  iEMpd_1 3.5293E-08  iEMpd_2 7.8996E-08  iEMpd_3 1.6899E-08  iEMpd_4 4.8849E-08  iEMhp_timer 4.8000  iEMhp_1 4.8787E-06  iEMhp_2 -2.4601E-08  iEMhp_3 -2.5103E-08  iEMhp_4 -2.0909E-08
#      9776
 1.5856  40833.9  207.552
 1.6276  47906.8  220.952
 1.6696  54244.5  234.284
 1.7116  62573.6  252.121
 1.7536  71745  268.816
 1.7956  76626  278.504
 1.8376  72686.1  271.679
 1.8796  61387.6  247.84
 1.9216  49404.7  223.221
 1.9636  41735.2  204.322
 2.0056  37483  192.885
 2.0476  34951.6  188.3
 2.0896  33687.7  183.78
 2.1316  32597.6  179.913
 2.1736  31368  177.887
 2.2156  31526.7  176.905
 2.2576  30227.9  173.845
 2.2996  29378.7  172.014
 2.3416  29720.3  171.631
 2.3836  28948.1  169.49
 2.4256  28215.1  167.876
 2.4676  27693.3  166.08
 2.5096  27617.9  165.908
 2.5516  26815.9  167.245
 2.5936  26940.3  164.237
 2.6356  26392  163.243
 2.6776  26270.8  161.764
 2.7196  25931.4  161.228
 2.7616  25908.7  160.936
 2.8036  25603.8  160.156
 2.8456  25631.6  160.862
 2.8876  25062  158.927
 2.9296  24728.4  158.004
 2.9716  24420.6  156.512
 3.0136  24342.6  156.329
 3.0556  24177  156.191
 3.0976  24168.5  155.11
 3.1396  24015.9  155.329
 3.1816  23717.1  154.29
 3.2236  23601.4  153.911
 3.2656  23460.6  152.485
 3.3076  23407.8  153.772
 3.3496  23884  154.253
 3.3916  24159.5  154.977
 3.4336  24381.3  156.263
 3.4756  24911.6  157.89
 3.5176  25795.4  160.438
 3.5596  25549.1  162.116
 3.6016  25776.1  160.439
 3.6436  24891.6  158.753
 3.6856  24407.4  155.504
 3.7276  23586.7  153.958
 3.7696  23337.2  153.34
 3.8116  23078.5  152.376
 3.8536  23110.2  152.416
 3.8956  23002.8  151.884
 3.9376  22886.4  151.75
 3.9796  22770  150.876
 4.0216  22970.7  150.565
 4.0636  22840.7  151.622
 4.1056  22980.9  151.715
 4.1476  23073.1  152.348
 4.1896  23397.2  153.271
 4.2316  23461.2  153.309
 4.2736  24001.4  154.846
 4.3156  24202.9  155.724
 4.3576  24944.6  158.015
 4.3996  25078  158.697
 4.4416  25596.9  159.917
 4.4836  26011.2  161.356
 4.5256  26372.4  163.096
 4.5676  26610.5  164.075
 4.6096  27077.7  164.172
 4.6516  27478.4  165.082
 4.6936  27583.2  166.206
 4.7356  27879.8  166.932
 4.7776  27731.2  166.31
 4.8196  27449.2  166.125
 4.8616  26764.1  163.512
 4.9036  26702.2  163.081
 4.9456  26549.8  163.255
 4.9876  25947.3  161.29
 5.0296  26376.6  162.434
 5.0716  26198.4  162.662
 5.1136  26391.2  162.976
 5.1556  26621.8  163.141
 5.1976  27133  164.71
 5.2396  27189.6  164.57
 5.2816  27090.1  164.735
 5.3236  27205.3  164.783
 5.3656  26901.9  164.785
 5.4076  26415.7  163.439
 5.4496  26743.8  163.928
 5.4916  26704.3  163.573
 5.5336  26829.2  163.952
 5.5756  26775.4  163.835
 5.6176  26858  163.511
 5.6596  26839.9  164.433
 5.7016  27258.3  164.969
 5.7436  27438.8  165.789
 5.7856  27082.6  164.764
 5.8276  27662.3  166.237
 5.8696  27704.4  166.545
 5.9116  27628.6  166.916
 5.9536  27948.2  167.64
 5.9956  28319.4  168.103
 6.0376  28363.5  168.877
 6.0796  28600.3  169.41
 6.1216  28548.4  169.452
 6.1636  28846.5  169.401
 6.2056  28558.2  169.208
 6.2476  28836  169.912
 6.2896  29206.8  170.68
 6.3316  29132.2  170.646
 6.3736  29257.6  170.893
 6.4156  29088.1  170.305
 6.4576  29541.3  171.221
 6.4996  29791.3  172.421
 6.5416  29352.4  171.291
 6.5836  29604.7  172.246
 6.6256  29665.1  171.992
 6.6676  30190.3  173.075
 6.7096  29892.3  173.081
 6.7516  30643.6  174.889
 6.7936  30670.1  174.39
 6.8356  30800.4  174.833
 6.8776  31229.2  176.845
 6.9196  31207.7  177.194
 6.9616  31728.1  178.1
 7.0036  32111.6  178.826
 7.0456  31867.6  177.443
 7.0876  31980.1  179.453
 7.1296  31942.2  178.483
 7.1716  31904  177.913
 7.2136  31694.7  177.107
 7.2556  32068.6  178.311
 7.2976  32089.6  178.871
 7.3396  31795.3  178.255
 7.3816  31724.6  178.28
 7.4236  32132.4  178.707
 7.4656  32214.3  178.412
 7.5076  32611.4  179.651
 7.5496  32359.2  179.492
 7.5916  32512  179.95
 7.6336  33025.9  181.26
 7.6756  32929.6  180.848
 7.7176  33288.9  182.144
 7.7596  33704  184.535
 7.8016  33785.9  186.973
 7.8436  34376  185.201
 7.8856  34579.6  185.358
 7.9276  35107.3  187.168
 7.9696  35479.5  188.464
 8.0116  36185.2  188.856
 8.0536  36450.6  189.809
 8.0956  36191.4  190.313
 8.1376  36734.3  191.207
 8.1796  37154.7  192.841
 8.2216  37763.6  193.144
 8.2636  37947.1  193.864
 8.3056  37747.6  194.135
 8.3476  38672.7  195.814
 8.3896  38155.8  194.58
 8.4316  38393.8  195.355
 8.4736  38102.6  194.073
 8.5156  38626.3  195.685
 8.5576  37824.7  194.627
 8.5996  38164  194.351
 8.6416  37902.4  194.956
 8.6836  37704.8  194.285
 8.7256  38214.7  195.028
 8.7676  37386  195.839
 8.8096  37361  193.09
 8.8516  37313.3  192.571
 8.8936  36875  191.315
 8.9356  36952.3  191.893
 8.9776  37219.6  192.667
 9.0196  36658.1  190.885
 9.0616  37249.3  191.871
 9.1036  36610.7  191.421
 9.1456  36925  191.58
 9.1876  36626.7  190.765
 9.2296  36801.3  190.608
 9.2716  36240  189.218
 9.3136  36176.7  189.038
 9.3556  36394.5  189.58
 9.3976  34983.6  186.419
 9.4396  35289.2  187.114
 9.4816  34880.7  185.894
 9.5236  34966.1  186.027
 9.5656  34793.6  185.883
 9.6076  34643.6  186.018
 9.6496  34495.1  185.552
 9.6916  34455.6  185.407
 9.7336  33971.2  183.887
 9.7756  34697.2  187.099
 9.8176  33826.8  184.238
 9.8596  33734.1  182.422
 9.9016  33115.2  180.731
 9.9436  32814.3  179.82
 9.9856  32589.4  179.427
 10.0276  32217.4  179.52
 10.0696  32725.4  179.954
 10.1116  31555.9  176.975
 10.1536  31638.5  177.373
 10.1956  31231.4  175.82
 10.2376  30763.4  174.019
 10.2796  30995.1  174.787
 10.3216  30619.9  173.998
 10.3636  30295.1  173.1
 10.4056  29936.7  172.463
 10.4476  29907.1  172.012
 10.4896  30459.5  173.04
 10.5316  29362  170.604
 10.5736  29283.3  170.787
 10.6156  28824.1  169.218
 10.6576  29134.2  168.675
 10.6996  28704.4  168.088
 10.7416  28527.9  167.813
 10.7836  28558.9  168.589
 10.8256  28194.8  167.951
 10.8676  28299.1  167.782
 10.9096  27797.5  166.343
 10.9516  27709.8  164.997
 10.9936  27788.5  165.437
 11.0356  27742.6  165.938
 11.0776  27411.9  164.255
 11.1196  26938.1  163.579
 11.1616  26922.1  163.211
 11.2036  26838.2  162.814
 11.2456  26794.4  163.38
 11.2876  26829.3  163.235
 11.3296  26470.1  162.025
 11.3716  27013.7  163.374
 11.4136  26969.6  164.143
 11.4556  27351.9  164.963
 11.4976  27528.1  164.449
 11.5396  27993.3  166
 11.5816  27603.4  165.313
 11.6236  26820.2  163.169
 11.6656  26556.4  161.528
 11.7076  26044.2  160.8
 11.7496  25756.1  163.863
 11.7916  25487.5  158.331
 11.8336  25605.8  159.59
 11.8756  25132.6  157.648
 11.9176  25487.9  158.398
 11.9596  25063  157.28
 12.0016  25030.2  157.968
 12.0436  24816.7  156.721
 12.0856  24680.4  156.809
 12.1276  24830.2  157.191
 12.1696  24634.1  155.708
 12.2116  24851.7  156.386
 12.2536  24498.7  156.114
 12.2956  24667.2  155.97
 12.3376  24313.9  155.072
 12.3796  24394.9  155.781
 12.4216  24436  155.131
 12.4636  24218.1  155.359
 12.5056  24304  154.901
 12.5476  24556.2  155.228
 12.5896  24415  155.408
 12.6316  24084.5  154.524
 12.6736  24144.3  155.198
 12.7156  23973.8  154.519
 12.7576  24382.6  156.068
 12.7996  24221.6  154.19
 12.8416  24186.7  155.137
 12.8836  24684.7  156.544
 12.9256  24815.5  155.976
 12.9676  24999.4  156.971
 13.0096  24869.3  157.685
 13.0516  24954.2  156.974
 13.0936  24872.1  157.13
 13.1356  25330.8  157.533
 13.1776  25005.4  157.517
 13.2196  25023.3  157.228
 13.2616  24984.6  157.413
 13.3036  24982  157.381
 13.3456  25044.7  157.929
 13.3876  24798.9  156.454
 13.4296  24915.4  156.966
 13.4716  24999.3  156.839
 13.5136  24941.3  156.809
 13.5556  24996.8  157.598
 13.5976  25076.5  157.995
 13.6396  25252.6  157.909
 13.6816  24874.4  157.226
 13.7236  25434.5  158.624
 13.7656  24783.5  157.127
 13.8076  24860.7  156.142
 13.8496  24582.4  155.877
 13.8916  24945.9  158.034
 13.9336  24647.9  156.297
 13.9756  24622.7  155.563
 14.0176  24382.3  155.487
 14.0596  24237.7  154.999
 14.1016  24162.7  155.153
 14.1436  23914.4  153.492
 14.1856  23673.6  153.005
 14.2276  23332.2  152.392
 14.2696  23505.6  152.785
 14.3116  23346  152.165
 14.3536  22879.4  150.822
 14.3956  22910.8  150.645
 14.4376  23083.9  150.999
 14.4796  23089.1  151
 14.5216  22415.8  149.587
 14.5636  22408.2  149.117
 14.6056  22620.4  149.403
 14.6476  22424.7  147.977
 14.6896  22151.2  147.618
 14.7316  21742.6  147.288
 14.7736  21727.7  146.37
 14.8156  21498.3  145.637
 14.8576  21388.7  145.111
 14.8996  20960.5  144.867
 14.9416  20695.7  143.937
 14.9836  20854.8  144.453
 15.0256  20571.1  142.379
 15.0676  20607.2  142.821
 15.1096  20729.8  142.98
 15.1516  20124.5  141.436
 15.1936  19963.4  140.295
 15.2356  19737.8  139.781
 15.2776  19706.1  139.251
 15.3196  19390.7  139.14
 15.3616  19332.5  138.687
 15.4036  19197.4  138.057
 15.4456  19416.6  138.489
 15.4876  19348.2  137.923
 15.5296  19011.2  137
 15.5716  18569.1  135.006
 15.6136  18570.4  135.333
 15.6556  18498.6  134.311
 15.6976  18441.8  134.4
 15.7396  18417.7  134.706
 15.7816  18356.8  133.98
 15.8236  18183  134.059
 15.8656  18190.3  133.875
 15.9076  17762.6  132.117
 15.9496  17775.3  134.975
 15.9916  17721.8  135.224
 16.0336  17488.3  131.224
 16.0756  17741.1  132.473
 16.1176  17595  131.996
 16.1596  17000.8  130.927
 16.2016  17278.4  130.718
 16.2436  17097.2  130.423
 16.2856  17175.5  130.271
 16.3276  16940.3  129.792
 16.3696  17103  130.233
 16.4116  16900.4  129.925
 16.4536  17108.2  130.504
 16.4956  16894.6  129.427
 16.5376  16793.4  129.224
 16.5796  16679.3  128.142
 16.6216  16860.4  129.139
 16.6636  16747.6  128.86
 16.7056  16657.2  128.38
 16.7476  16783.6  128.385
 16.7896  16655.1  128.652
 16.8316  16615.4  128.462
 16.8736  16647.7  128.856
 16.9156  16719.8  129.464
 16.9576  16429.1  129.136
 16.9996  16530.2  130.023
 17.0416  16694.9  128.993
 17.0836  16632  128.517
 17.1256  16389.9  127.59
 17.1676  16360.5  127.47
 17.2096  16159.9  126.561
 17.2516  16079.4  126.027
 17.2936  15996.8  126.028
 17.3356  15723.8  124.963
 17.3776  15587.1  124.601
 17.4196  15782.2  125.06
 17.4616  15502.2  123.872
 17.5036  15412  123.869
 17.5456  15319.5  124.147
 17.5876  15376.2  123.419
 17.6296  15422.6  123.424
 17.6716  15355.1  123.724
 17.7136  15137.8  123.003
 17.7556  15101.8  123.14
 17.7976  15093.9  122.849
 17.8396  15070.9  122.25
 17.8816  14976.8  122.402
 17.9236  14871.6  121.792
 17.9656  15035.8  122.997
 18.0076  14911.1  122.072
 18.0496  15039.9  121.721
 18.0916  15017.7  122.18
 18.1336  14946.9  121.982
 18.1756  15110.2  122.175
 18.2176  14802  121.149
 18.2596  14819  120.946
 18.3016  14787.8  121.083
 18.3436  14975.4  121.848
 18.3856  14715.6  120.935
 18.4276  14800.3  120.946
 18.4696  14672.7  120.525
 18.5116  14791  121.293
 18.5536  14807.4  121.717
 18.5956  14489.4  119.961
 18.6376  14599.9  120.823
 18.6796  14612.2  120.194
 18.7216  14623.3  120.726
 18.7636  14330.4  119.5
 18.8056  14483  120.081
 18.8476  14396  120.346
 18.8896  14417.5  119.763
 18.9316  14502.6  120.104
 18.9736  14425.4  119.479
 19.0156  14419.8  119.858
 19.0576  14343.2  118.413
 19.0996  14516.9  119.833
 19.1416  14109.7  118.544
 19.1836  14358.4  119.177
 19.2256  14080.9  118.23
 19.2676  14272.5  119.129
 19.3096  14347.1  119.68
 19.3516  14216.5  119.1
 19.3936  14210.9  118.97
 19.4356  14225  118.902
 19.4776  14233.5  119.029
 19.5196  14192.1  118.709
 19.5616  14125.1  118.689
 19.6036  14315  118.98
 19.6456  14262.4  118.878
 19.6876  14232.1  118.394
 19.7296  14252.4  118.945
 19.7716  14126.9  118.579
 19.8136  14334.4  119.666
 19.8556  14696.9  120.627
 19.8976  14459.3  119.718
 19.9396  14749.5  120.484
 19.9816  14977.9  121.652
 20.0236  15204.7  122.8
 20.0656  15229  122.889
 20.1076  14710.8  121.264
 20.1496  14714.5  121.278
 20.1916  14255.1  118.886
 20.2336  14179.3  118.499
 20.2756  14091.9  118.566
 20.3176  13854.9  117.311
 20.3596  13850.6  117.26
 20.4016  13821.9  116.951
 20.4436  13786.4  117.35
 20.4856  13693.3  116.758
 20.5276  13631.8  116.95
 20.5696  13632.7  116.418
 20.6116  13545.3  116.317
 20.6536  13554.4  115.859
 20.6956  13417.1  115.396
 20.7376  13435.7  115.703
 20.7796  13517.1  115.738
 20.8216  13492.9  115.333
 20.8636  13372.5  115.206
 20.9056  13390  115.224
 20.9476  13277.7  114.587
 20.9896  13402.1  114.976
 21.0316  13609.2  115.758
 21.0736  13235.1  114.672
 21.1156  13341.8  115.296
 21.1576  13363.7  115.447
 21.1996  13226.8  114.832
 21.2416  13156.8  114.366
 21.2836  13305.4  114.955
 21.3256  13109.1  114.2
 21.3676  13244.2  114.331
 21.4096  13117.2  114.093
 21.4516  13061.2  113.729
 21.4936  12779.5  112.745
 21.5356  13100.4  114.096
 21.5776  13198.5  114.355
 21.6196  12947.7  113.304
 21.6616  12924.1  113.278
 21.7036  13080.9  113.751
 21.7456  13097.5  113.897
 21.7876  12975.3  113.105
 21.8296  12872.5  112.519
 21.8716  12903.4  112.889
 21.9136  13183.8  114.311
 21.9556  12994.6  113.157
 21.9976  12774.8  112.21
 22.0396  12844.7  112.766
 22.0816  12920.9  113.651
 22.1236  12871  112.884
 22.1656  13023.2  113.672
 22.2076  12826.7  112.272
 22.2496  12890.2  112.575
 22.2916  13105.3  113.397
 22.3336  12836.5  112.955
 22.3756  12914.2  113.016
 22.4176  12797.9  112.359
 22.4596  12778.9  112.871
 22.5016  12858  112.699
 22.5436  13079.6  113.556
 22.5856  12922.3  113.119
 22.6276  12925  113.267
 22.6696  12662.8  112.468
 22.7116  12780.8  112.498
 22.7536  12810  112.603
 22.7956  12914  112.383
 22.8376  12687.3  111.919
 22.8796  12768  112.071
 22.9216  13075.9  113.969
 22.9636  12927.4  112.463
 23.0056  12727.9  111.727
 23.0476  12923.6  113.159
 23.0896  13008.8  112.902
 23.1316  13138  113.906
 23.1736  12896.1  115.847
 23.2156  12939.2  113.383
 23.2576  12871  113.227
 23.2996  12870.4  113.003
 23.3416  12741.7  112.969
 23.3836  12691.2  111.967
 23.4256  12843.7  112.757
 23.4676  12758.1  112.074
 23.5096  12772.9  112.821
 23.5516  12575.2  111.23
 23.5936  12769.7  112.998
 23.6356  13025.6  113.777
 23.6776  12760.2  112.829
 23.7196  12497.2  111.235
 23.7616  12781.5  112.4
 23.8036  12803.3  112.552
 23.8456  12788.9  112.049
 23.8876  12458.6  110.953
 23.9296  12390.2  111.133
 23.9716  12506.1  110.848
 24.0136  12484.8  111.653
 24.0556  12417.1  111.083
 24.0976  12273.9  110.241
 24.1396  12437  113.63
 24.1816  12399.9  111.887
 24.2236  12324.7  111.154
 24.2656  12058.7  109.422
 24.3076  12116.3  109.942
 24.3496  12121.2  109.841
 24.3916  12045.6  109.555
 24.4336  12182.4  110.385
 24.4756  11950.4  109.199
 24.5176  11835.3  108.319
 24.5596  11870.7  108.606
 24.6016  11616.6  107.725
 24.6436  11933.9  108.681
 24.6856  11887.7  108.223
 24.7276  11732.2  107.821
 24.7696  11683  107.713
 24.8116  11666.3  107.81
 24.8536  11533.2  107.196
 24.8956  11504.7  106.803
 24.9376  11668.3  107.501
 24.9796  11400.8  106.615
 25.0216  11376  106.614
 25.0636  11624  107.416
 25.1056  11305.7  106.64
 25.1476  11584.1  109.615
 25.1896  11490.3  107.641
 25.2316  11565.9  107.256
 25.2736  11347.8  105.892
 25.3156  11301.3  105.759
 25.3576  11229.9  105.84
 25.3996  11383.8  106.544
 25.4416  11358.5  106.411
 25.4836  11161.8  106.013
 25.5256  11221.3  105.655
 25.5676  11387.5  106.156
 25.6096  11167.2  105.707
 25.6516  11265.4  105.657
 25.6936  11093.4  105.177
 25.7356  11105.7  105.358
 25.7776  11146.7  105.161
 25.8196  11028.3  104.837
 25.8616  11125.4  105.219
 25.9036  11085.5  104.495
 25.9456  11095.4  105.138
 25.9876  11070.3  105.089
 26.0296  11218.3  105.291
 26.0716  11029.8  104.835
 26.1136  11170.9  105.442
 26.1556  11151.1  104.72
 26.1976  10892.6  104.431
 26.2396  11111.4  104.611
 26.2816  10937.1  104.404
 26.3236  11168.4  105.659
 26.3656  10969.9  104.447
 26.4076  11091  105.234
 26.4496  11521.6  106.751
 26.4916  11101.2  104.771
 26.5336  11073.7  104.97
 26.5756  11395.5  106.311
 26.6176  11008.7  104.567
 26.6596  10799.1  103.882
 26.7016  10851.5  103.885
 26.7436  10847.6  104.008
 26.7856  10721.7  103.379
 26.8276  10835.5  103.88
 26.8696  10715  103.174
 26.9116  10742.6  103.254
 26.9536  10703.1  103.105
 26.9956  10701.6  103.127
 27.0376  10714.9  103.419
 27.0796  10699.7  103.071
 27.1216  10534.4  102.352
 27.1636  10421.1  101.961
 27.2056  10565.2  102.541
 27.2476  10601.7  102.721
 27.2896  10611.1  102.875
 27.3316  10465.8  101.883
 27.3736  10647.1  103.03
 27.4156  10454.7  101.942
 27.4576  10412.6  101.967
 27.4996  10416.2  101.582
 27.5416  10401.5  101.823
 27.5836  10559.6  102.402
 27.6256  10763.8  103.559
 27.6676  10597.7  102.777
 27.7096  10407.8  101.718
 27.7516  10361.7  101.643
 27.7936  10237.4  101.212
 27.8356  10295.3  101.112
 27.8776  10295.8  101.162
 27.9196  10188.6  100.484
 27.9616  10404.1  101.729
 28.0036  10282.4  101.114
 28.0456  10295.7  101.301
 28.0876  10221.3  101.028
 28.1296  10178.9  100.662
 28.1716  10202.1  100.789
 28.2136  10106.6  100.275
 28.2556  10036.6  100.045
 28.2976  10178.9  100.734
 28.3396  10126.7  100.238
 28.3816  10215.2  100.699
 28.4236  10157.2  100.564
 28.4656  9997.22  99.8069
 28.5076  10109.3  100.002
 28.5496  10025  99.8459
 28.5916  10125  100.147
 28.6336  9972.82  99.7431
 28.6756  10125.8  99.6905
 28.7176  9998.51  99.6136
 28.7596  10019.7  99.6173
 28.8016  10005.1  99.5751
 28.8436  9950.26  99.5497
 28.8856  9995.81  99.626
 28.9276  9948.8  99.6335
 28.9696  9903.76  99.0674
 29.0116  9846.46  98.9668
 29.0536  9827.63  99.0766
 29.0956  9830.01  98.8048
 29.1376  9704.27  98.1267
 29.1796  9873.01  99.0241
 29.2216  9853.48  98.7693
 29.2636  9914.86  99.1569
 29.3056  9793.68  98.3336
 29.3476  9864.21  99.2164
 29.3896  9870.67  99.3489
 29.4316  10153.4  100.071
 29.4736  9780.29  98.2823
 29.5156  9884.53  98.724
 29.5576  9827.49  99.1837
 29.5996  9850.51  98.5516
 29.6416  9639.7  97.6037
 29.6836  9830.67  98.4926
 29.7256  9907.92  99.4584
 29.7676  9752.58  98.3338
 29.8096  9783.26  98.4314
 29.8516  9526.84  97.4666
 29.8936  9659.36  98.2339
 29.9356  9887.7  99.1399
 29.9776  9621.56  97.9496
 30.0196  9627.63  97.3686
 30.0616  9686.85  98.0433
 30.1036  9739.4  98.1299
 30.1456  9775.72  98.5518
 30.1876  9529.15  97.2733
 30.2296  9595.39  97.5668
 30.2716  9775.92  98.1103
 30.3136  9744.72  98.8214
 30.3556  9723.14  98.7349
 30.3976  9613.39  99.7115
 30.4396  9644.84  97.205
 30.4816  9685.37  96.9991
 30.5236  9489.64  96.0385
 30.5656  9573.91  97.1124
 30.6076  9695.67  97.1419
 30.6496  9695.28  97.5375
 30.6916  9461.04  96.4426
 30.7336  9543.78  97.0207
 30.7756  9639.48  97.5966
 30.8176  9525.83  96.9349
 30.8596  9542.88  96.7906
 30.9016  9564.26  97.2449
 30.9436  9572.73  97.0364
 30.9856  9538.21  96.9782
 31.0276  9611.91  96.9488
 31.0696  9491.57  96.9206
 31.1116  9297.52  95.9002
 31.1536  9439.31  96.5037
 31.1956  9324.17  96.0094
 31.2376  9463.76  96.7323
 31.2796  9420.41  96.0468
 31.3216  9411.51  95.9474
 31.3636  9421.28  96.6851
 31.4056  9569.47  98.7922
 31.4476  9309.15  95.3103
 31.4896  9261.46  95.5733
 31.5316  9383.22  95.5878
 31.5736  9414.36  95.561
 31.6156  9290.28  94.9606
 31.6576  9397.99  95.6074
 31.6996  9420.49  95.3927
 31.7416  9186.22  95.2559
 31.7836  9238.98  94.5448
 31.8256  9214.47  94.6975
 31.8676  9384.22  95.5469
 31.9096  9269.95  95.33
 31.9516  9029.45  94.2434
 31.9936  9149.77  94.6897
 32.0356  9180.73  94.9222
 32.0776  9272.15  95.2771
 32.1196  9260.36  95.3011
 32.1616  9425.71  95.6044
 32.2036  9222.58  95.0871
 32.2456  9325.65  95.998
 32.2876  9209.19  94.8881
 32.3296  9119.87  94.3932
 32.3716  9088.9  94.3324
 32.4136  9204.23  95.1441
 32.4556  9273.73  94.8718
 32.4976  9134.11  94.0713
 32.5396  9241.58  94.6939
 32.5816  9064.5  93.902
 32.6236  9067.76  93.9899
 32.6656  9365.22  96.0675
 32.7076  9040.32  94.0408
 32.7496  9090.39  93.9652
 32.7916  9184.61  94.4073
 32.8336  9186.75  94.5163
 32.8756  9227.26  94.4508
 32.9176  8991.53  93.7157
 32.9596  9005.07  93.8641
 33.0016  8962.17  93.4312
 33.0436  9242.64  95.0588
 33.0856  9058.26  94.1748
 33.1276  8970.39  93.4421
 33.1696  9105.93  93.9883
 33.2116  9096.79  94.1683
 33.2536  9094.5  94.169
 33.2956  9100.81  94.282
 33.3376  8998.44  93.4928
 33.3796  9178.53  94.6237
 33.4216  9145.2  94.0508
 33.4636  8947.42  93.1687
 33.5056  8993.65  93.6478
 33.5476  8915.47  93.2463
 33.5896  9148.23  94.2181
 33.6316  8970.91  93.6231
 33.6736  8962.44  93.8172
 33.7156  8935.24  93.7247
 33.7576  8974.78  93.5465
 33.7996  9092.93  93.9278
 33.8416  8839.04  92.7867
 33.8836  8895.73  92.8652
 33.9256  8778.13  92.3222
 33.9676  9021.29  93.4793
 34.0096  8764.3  92.4579
 34.0516  8859.29  92.589
 34.0936  8801.39  92.5473
 34.1356  8990.71  93.2839
 34.1776  8764.5  92.1089
 34.2196  8753.24  92.2345
 34.2616  8755.48  92.3768
 34.3036  8747.39  92.5936
 34.3456  8743.78  92.3201
 34.3876  8694.61  92.0288
 34.4296  8809.9  92.3177
 34.4716  8825.17  92.553
 34.5136  8841.54  92.8431
 34.5556  8778.26  92.7596
 34.5976  8795.48  92.6541
 34.6396  8753  92.1476
 34.6816  8691.02  91.9388
 34.7236  8786.29  92.2153
 34.7656  8686.62  91.8828
 34.8076  8819.23  92.8998
 34.8496  8704.32  92.1609
 34.8916  8624.93  91.6186
 34.9336  8804.3  92.5184
 34.9756  8671.93  91.745
 35.0176  8796.17  92.9398
 35.0596  8684.76  92.1781
 35.1016  8746.75  92.2638
 35.1436  8823.04  92.3515
 35.1856  8599.96  91.3001
 35.2276  8740.69  92.2167
 35.2696  8555.19  91.4304
 35.3116  8645.37  91.999
 35.3536  8438.02  90.6093
 35.3956  8434.89  90.2996
 35.4376  8531.61  91.3761
 35.4796  8594.11  91.7682
 35.5216  8698.27  92.2804
 35.5636  8364.71  91.2343
 35.6056  8589.98  91.4604
 35.6476  8611.02  91.4764
 35.6896  8638.31  91.7048
 35.7316  8449.2  90.6722
 35.7736  8371.27  90.4484
 35.8156  8464.34  90.9541
 35.8576  8589.8  91.8763
 35.8996  8529.17  91.52
 35.9416  8500.44  90.8728
 35.9836  8391.03  90.6248
 36.0256  8526.46  91.3754
 36.0676  8590.46  91.4693
 36.1096  8388.43  90.5266
 36.1516  8521.17  91.1293
 36.1936  8476.11  90.7387
 36.2356  8547.27  91.7635
 36.2776  8433.22  90.6279
 36.3196  8411.25  90.1778
 36.3616  8409.21  90.2953
 36.4036  8424.03  90.4347
 36.4456  8448.56  90.7806
 36.4876  8397.24  90.4409
 36.5296  8420.09  90.6032
 36.5716  8385.75  91.2067
 36.6136  8472.94  90.4331
 36.6556  8522.13  90.8983
 36.6976  8312.59  90.2717
 36.7396  8390.28  90.421
 36.7816  8472.32  91.2428
 36.8236  8324.72  90.367
 36.8656  8408.43  90.8841
 36.9076  8330.76  90.3472
 36.9496  8358.16  90.4869
 36.9916  8342.77  90.0256
 37.0336  8445.67  90.9026
 37.0756  8485.85  90.9058
 37.1176  8273.51  90.0321
 37.1596  8213.09  89.7019
 37.2016  8292.75  90.3665
 37.2436  8293.87  89.6868
 37.2856  8402.14  90.5241
 37.3276  8355.27  89.6242
 37.3696  8409.66  90.8112
 37.4116  8429.17  90.8216
 37.4536  8352.33  90.2741
 37.4956  8262.93  89.8349
 37.5376  8284.49  91.5335
 37.5796  8197.87  91.0048
 37.6216  8027.35  88.3373
 37.6636  8097.96  88.6237
 37.7056  8220.77  89.4857
 37.7476  8209  88.9593
 37.7896  8137.41  89.0543
 37.8316  7962.23  88.2799
 37.8736  8275.38  89.506
 37.9156  8126.6  88.7057
 37.9576  8201.65  88.9996
 37.9996  8044.97  87.8686
 38.0416  8141.94  89.213
 38.0836  8328.43  90.1319
 38.1256  8141.17  89.0547
 38.1676  8054.21  88.7259
 38.2096  8065.56  88.417
 38.2516  8185.06  89.2731
 38.2936  8230.83  89.3238
 38.3356  8161.88  88.8423
 38.3776  8083.36  88.7074
 38.4196  8125.01  88.7854
 38.4616  8117.64  88.9818
 38.5036  8146.14  88.9855
 38.5456  8098.7  89.5611
 38.5876  8119.18  89.702
 38.6296  8014.7  88.1013
 38.6716  8104.56  88.384
 38.7136  7956.45  87.5155
 38.7556  7987.63  88.1871
 38.7976  7943.52  87.8854
 38.8396  8051.84  88.9412
 38.8816  7874.38  87.7177
 38.9236  7962.39  88.0361
 38.9656  8049.43  88.4274
 39.0076  8184.04  88.5636
 39.0496  8060.6  88.4435
 39.0916  8010.27  87.8055
 39.1336  8030.15  88.3315
 39.1756  8067.2  88.6014
 39.2176  7995.52  88.7357
 39.2596  7843.38  87.8149
 39.3016  7930.5  87.879
 39.3436  7926.94  88.2796
 39.3856  8028.62  88.2894
 39.4276  8008.18  88.6814
 39.4696  7989.32  88.1881
 39.5116  7828.84  87.8218
 39.5536  8093.49  89.7164
 39.5956  8113.71  88.9105
 39.6376  8026.4  88.4376
 39.6796  7928.87  87.6377
 39.7216  8034.37  88.3136
 39.7636  8024.12  88.8405
 39.8056  8087.36  88.9627
 39.8476  7958.91  88.5121
 39.8896  8033.85  88.5581
 39.9316  7948.16  88.3342
 39.9736  8172.59  89.1308
 40.0156  8112.59  88.6331
 40.0576  7957.85  88.1404
 40.0996  8131.04  88.2677
 40.1416  8090.32  88.8474
 40.1836  8147.52  89.0495
 40.2256  8139.82  89.0539
 40.2676  7995.3  88.3702
 40.3096  8109.47  88.9221
 40.3516  8093.76  88.9431
 40.3936  8144.92  88.7769
 40.4356  7989.37  88.1173
 40.4776  8135.88  89.3432
 40.5196  8050.34  89.0002
 40.5616  8067.96  88.7424
 40.6036  8044.32  88.8636
 40.6456  8089.23  88.7129
 40.6876  8168.94  89.1377
 40.7296  8186.35  89.372
 40.7716  8091.06  88.9771
 40.8136  7969.96  88.2517
 40.8556  8077.82  88.9891
 40.8976  8075.96  88.8961
 40.9396  8026.71  88.9797
 40.9816  8133.16  88.8419
 41.0236  8099.67  88.4305
 41.0656  8124.97  89.117
 41.1076  8164.65  89.0981
 41.1496  8086.68  88.5879
 41.1916  7982.02  88.3294
 41.2336  7979.97  88.3158
 41.2756  8074.45  88.438
 41.3176  7968.7  88.4755
 41.3596  8010.57  88.4263
 41.4016  8101.15  89.1803
 41.4436  8105.6  89.003
 41.4856  8080.61  89.0284
 41.5276  7921.24  88.1662
 41.5696  8079.98  88.6697
 41.6116  8012.96  88.7058
 41.6536  7997.03  88.4723
 41.6956  8012.89  88.6148
 41.7376  8050.66  88.8441
 41.7796  8012.37  88.5134
 41.8216  8047.75  88.9526
 41.8636  8034.04  88.8143
 41.9056  7828.19  87.4656
 41.9476  7905.05  88.1205
 41.9896  7992.6  88.2711
 42.0316  8004.69  88.4206
 42.0736  8003.66  88.5369
 42.1156  7913.78  87.8707
 42.1576  8046.3  88.6972
 42.1996  8074.29  88.9977
 42.2416  7931.99  87.7859
 42.2836  7993.29  88.2446
 42.3256  7944.27  88.0917
 42.3676  8024.7  88.3421
 42.4096  8042.39  88.3955
 42.4516  7965.71  88.0702
 42.4936  7825.73  87.3556
 42.5356  7936.19  88.0987
 42.5776  8023.12  88.5155
 42.6196  7944.14  88.1406
 42.6616  7909.74  88.1227
 42.7036  7926.64  87.5959
 42.7456  8030.29  88.5274
 42.7876  7851.29  87.6418
 42.8296  7885.02  87.6582
 42.8716  7758.2  87.1078
 42.9136  7860.54  87.4671
 42.9556  7904.39  87.8461
 42.9976  7966.56  88.1465
 43.0396  7957.5  87.8332
 43.0816  7827.68  87.4887
 43.1236  7916.87  88.05
 43.1656  7891.38  87.7355
 43.2076  7781.27  87.2267
 43.2496  7829.36  87.3054
 43.2916  7725.27  87.0904
 43.3336  7818.72  87.4545
 43.3756  7764.38  86.9052
 43.4176  7718.47  86.7271
 43.4596  7830.51  87.2095
 43.5016  7827.62  87.5976
 43.5436  7769.15  87.1752
 43.5856  7783.22  87.2752
 43.6276  7785  87.1801
 43.6696  7739.15  87.1834
 43.7116  7791.89  86.9756
 43.7536  7874.98  87.9365
 43.7956  7707.82  88.1868
 43.8376  7704.3  86.6978
 43.8796  7726.47  86.9044
 43.9216  7785.85  87.1442
 43.9636  7743.56  87.0291
 44.0056  7696.49  86.9938
 44.0476  7722.07  86.7662
 44.0896  7702.89  86.9993
 44.1316  7804.12  87.0917
 44.1736  7633.96  86.2634
 44.2156  7722.82  86.6103
 44.2576  7689.52  86.7558
 44.2996  7667.79  86.598
 44.3416  7697.57  86.5315
 44.3836  7599.89  86.313
 44.4256  7594.95  85.9249
 44.4676  7455.02  85.2846
 44.5096  7626.07  86.399
 44.5516  7548.08  85.9249
 44.5936  7505.13  85.6294
 44.6356  7570.27  85.7402
 44.6776  7627.64  86.3833
 44.7196  7520.76  86.0873
 44.7616  7507.82  87.3387
 44.8036  7489.01  85.6641
 44.8456  7537.27  86.1377
 44.8876  7440.92  85.447
 44.9296  7570.98  85.6464
 44.9716  7478.08  85.549
 45.0136  7510.63  85.6637
 45.0556  7524.75  85.723
 45.0976  7393.38  85.1371
 45.1396  7484.94  85.4177
 45.1816  7444.68  85.1144
 45.2236  7605.98  85.9374
 45.2656  7405.06  85.2902
 45.3076  7595.11  86.1691
 45.3496  7505.1  85.9546
 45.3916  7420.14  85.7338
 45.4336  7387.94  85.3946
 45.4756  7407.62  85.3634
 45.5176  7498.03  85.4998
 45.5596  7675.27  86.6268
 45.6016  7283.95  84.8017
 45.6436  7419.96  84.7756
 45.6856  7398.85  85.3073
 45.7276  7397.14  86.6074
 45.7696  7420.59  86.4151
 45.8116  7529.32  86.4728
 45.8536  7341.7  85.2845
 45.8956  7414.79  85.0673
 45.9376  7399.08  84.4443
 45.9796  7355.25  84.8717
 46.0216  7503.08  86.0694
 46.0636  7507.21  85.233
 46.1056  7347.13  84.3053
 46.1476  7260.69  84.3942
 46.1896  7294.66  84.7306
 46.2316  7414.85  85.2993
 46.2736  7281.48  84.8994
 46.3156  7401.9  85.1845
 46.3576  7394.47  85.3441
 46.3996  7348.59  85.236
 46.4416  7351.31  84.8296
 46.4836  7199.94  84.3024
 46.5256  7441.46  85.6337
 46.5676  7430.86  85.6991
 46.6096  7429.18  85.6323
 46.6516  7314.05  84.008
 46.6936  7496.11  85.5415
 46.7356  7346.35  84.7801
 46.7776  7303.84  85.3779
 46.8196  7221.26  84.497
 46.8616  7107.65  83.7718
 46.9036  7193.9  83.9351
 46.9456  7176.49  83.4838
 46.9876  7258.47  84.0345
 47.0296  7259.5  84.7299
 47.0716  7213.9  84.2897
 47.1136  7169.84  83.7213
 47.1556  7221.19  83.8754
 47.1976  7295.72  84.4003
 47.2396  7113.16  83.722
 47.2816  7244.34  84.1895
 47.3236  7248.47  84.5859
 47.3656  7204.7  84.2595
 47.4076  7175.27  83.8905
 47.4496  7153.53  83.8597
 47.4916  7122.19  83.8587
 47.5336  7075.55  83.4095
 47.5756  7238.58  84.4814
 47.6176  7006.38  83.0148
 47.6596  7152.77  83.5886
 47.7016  7318.63  84.3776
 47.7436  7230.86  84.2009
 47.7856  7204.1  84.0764
 47.8276  7081.4  83.4059
 47.8696  7175.3  84.039
 47.9116  7307.56  84.5223
 47.9536  7079.63  83.1316
 47.9956  7090.51  83.9028
 48.0376  7027.61  83.3044
 48.0796  7213.9  84.5335
 48.1216  7215.39  84.3513
 48.1636  7288.57  84.3611
 48.2056  7181.35  83.9992
 48.2476  7237.72  84.6413
 48.2896  7016.43  83.2413
 48.3316  7165.97  84.0681
 48.3736  7138.77  83.9356
 48.4156  7000.8  82.9651
 48.4576  7115.2  83.9386
 48.4996  7096.21  83.28
 48.5416  7170.27  84.0474
 48.5836  7003.9  82.746
 48.6256  7171.26  83.937
 48.6676  7097.41  84.0105
 48.7096  7125.9  83.4556
 48.7516  7092.04  83.3993
 48.7936  6893.88  82.2846
 48.8356  6981.14  82.8554
 48.8776  7042.13  83.7777
 48.9196  7142.61  83.7441
 48.9616  6992.43  83.2434
 49.0036  7103.11  84.2542
 49.0456  6953.93  83.3368
 49.0876  6968.14  82.9677
 49.1296  6844.45  82.3835
 49.1716  6900.25  82.59
 49.2136  6937.85  82.7439
 49.2556  7035.65  83.3573
 49.2976  6959.73  82.983
 49.3396  6864.21  82.4541
 49.3816  7013.15  82.7789
 49.4236  6963.14  82.9
 49.4656  6970.17  82.964
 49.5076  6924.52  82.4454
 49.5496  6908.47  82.412
 49.5916  7073.82  83.3016
 49.6336  6899.57  82.4703
 49.6756  6881.61  82.6079
 49.7176  6887.24  82.5761
 49.7596  6909.23  82.4847
 49.8016  7004.69  82.9667
 49.8436  6913.49  82.7116
 49.8856  6782.4  81.9399
 49.9276  6808.34  82.1895
 49.9696  6905.31  82.7547
 50.0116  6945.2  83.1185
 50.0536  6892.21  82.7636
 50.0956  6965.42  83.2663
 50.1376  6837.86  82.2014
 50.1796  6828.25  82.4136
 50.2216  6819.9  82.3518
 50.2636  6956.21  82.7946
 50.3056  6756.16  81.763
 50.3476  6854.37  82.3808
 50.3896  6798.02  82.0122
 50.4316  6759.63  81.6186
 50.4736  6726.03  81.632
 50.5156  6799.7  82.0631
 50.5576  6801.88  81.8427
 50.5996  6842.74  82.3678
 50.6416  6820.51  82.1656
 50.6836  6757.86  81.8426
 50.7256  6761.73  81.7923
 50.7676  6815.48  82.4311
 50.8096  6777.75  81.75
 50.8516  6697.3  81.6684
 50.8936  6633.08  81.0551
 50.9356  6821.41  82.3081
 50.9776  6798.96  82.3237
 51.0196  6617.63  81.3407
 51.0616  6733.55  81.3772
 51.1036  6775.99  81.9851
 51.1456  6697.95  81.4257
 51.1876  6757.99  81.1392
 51.2296  6691.53  81.3681
 51.2716  6597.28  80.5016
 51.3136  6664.52  81.3668
 51.3556  6656.22  80.9417
 51.3976  6667.57  81.162
 51.4396  6627.97  81.2249
 51.4816  6686.69  81.4278
 51.5236  6614.12  81.0643
 51.5656  6618.1  80.7093
 51.6076  6692.18  81.2385
 51.6496  6609.84  80.9308
 51.6916  6586.62  81.1363
 51.7336  6604.7  81.3417
 51.7756  6741.27  81.8778
 51.8176  6629.38  81.2992
 51.8596  6622.79  81.2746
 51.9016  6895.49  82.5346
 51.9436  6558.27  81.9282
 51.9856  6594.15  82.5974
 52.0276  6612.12  81.2297
 52.0696  6622.89  81.3654
 52.1116  6555.92  81.0531
 52.1536  6566.24  81.0202
 52.1956  6735.89  81.5183
 52.2376  6705.53  81.5067
 52.2796  6697.3  81.2666
 52.3216  6405.6  80.1597
 52.3636  6555.11  80.6693
 52.4056  6531.1  80.3735
 52.4476  6621.32  81.2995
 52.4896  6522.35  80.7409
 52.5316  6494.47  80.618
 52.5736  6591.62  80.9355
 52.6156  6594.52  81.3339
 52.6576  6552.2  80.5205
 52.6996  6314.2  79.9944
 52.7416  6510.76  81.0826
 52.7836  6569.86  81.3203
 52.8256  6540.11  80.3735
 52.8676  6373.51  79.9167
 52.9096  6588.85  81.3428
 52.9516  6483.36  81.0463
 52.9936  6459.62  81.2921
 53.0356  6394.78  79.8966
 53.0776  6391.86  80.1351
 53.1196  6350.82  80.0046
 53.1616  6324.43  79.8857
 53.2036  6292.48  79.6372
 53.2456  6350.13  80.1043
 53.2876  6416.42  80.2263
 53.3296  6393.77  80.4099
 53.3716  6391.23  80.1458
 53.4136  6347.32  80.0097
 53.4556  6322.67  79.8889
 53.4976  6357.44  79.9568
 53.5396  6397.84  80.5927
 53.5816  6484  80.7737
 53.6236  6354.49  80.3068
 53.6656  6369.53  80.0293
 53.7076  6436.36  80.4099
 53.7496  6430.53  80.4934
 53.7916  6434.02  80.6412
 53.8336  6310.27  79.7645
 53.8756  6240.51  79.8637
 53.9176  6320.16  79.7183
 53.9596  6382.47  80.8775
 54.0016  6344.6  79.9672
 54.0436  6309.14  79.9574
 54.0856  6306.66  79.3726
 54.1276  6373.34  79.9946
 54.1696  6305.17  79.7347
 54.2116  6375.99  79.9432
 54.2536  6338.47  79.519
 54.2956  6421.64  80.0816
 54.3376  6406.42  80.4744
 54.3796  6370.4  80.1438
 54.4216  6466.73  80.7992
 54.4636  6298.23  79.6992
 54.5056  6369.04  79.9688
 54.5476  6307.62  79.914
 54.5896  6342.83  79.9745
 54.6316  6433.73  80.396
 54.6736  6272.41  79.4555
 54.7156  6281  79.5186
 54.7576  6312.78  79.7245
 54.7996  6358.63  80.1522
 54.8416  6301.61  79.8396
 54.8836  6218.11  79.4288
 54.9256  6299.41  79.6904
 54.9676  6310.4  79.6201
 55.0096  6328.51  79.8057
 55.0516  6277.91  79.7159
 55.0936  6287.18  79.4053
 55.1356  6221.02  79.0221
 55.1776  6303.56  79.8219
 55.2196  6406.64  80.251
 55.2616  6167.64  78.9554
 55.3036  6316.17  80.0492
 55.3456  6320.54  80.2303
 55.3876  6247.12  79.5094
 55.4296  6295.4  79.7873
 55.4716  6202.71  79.2393
 55.5136  6321.24  79.7461
 55.5556  6308.71  79.742
 55.5976  6225.47  79.2691
 55.6396  6267.72  79.4852
 55.6816  6320.4  79.6978
 55.7236  6257.87  79.3369
 55.7656  6358.5  79.7345
 55.8076  6304.73  79.3759
 55.8496  6183.42  78.931
 55.8916  6255.86  79.593
 55.9336  6166.55  78.8413
 55.9756  6255.39  79.2988
 56.0176  6171.1  78.9139
 56.0596  6280.75  79.5928
 56.1016  6233.32  79.3005
 56.1436  6120.76  78.8379
 56.1856  6260.23  79.4711
 56.2276  6215.53  79.2617
 56.2696  6224.62  79.283
 56.3116  6223.56  79.6827
 56.3536  6191.5  79.1326
 56.3956  6200.47  79.1788
 56.4376  6250.81  79.5357
 56.4796  6250.2  79.3281
 56.5216  6239.17  79.6355
 56.5636  6293.69  79.5684
 56.6056  6206.06  79.2526
 56.6476  6178.81  78.7016
 56.6896  6280.35  79.7999
 56.7316  6232.46  79.3888
 56.7736  6233  79.4015
 56.8156  6199.28  79.1802
 56.8576  6222.82  79.2699
 56.8996  6297  79.6833
 56.9416  6199.75  79.3659
 56.9836  6109.89  78.3143
 57.0256  6243.12  79.4784
 57.0676  6194.45  79.2931
 57.1096  6209.5  79.1786
 57.1516  6270.26  79.6238
 57.1936  6255.62  79.2788
 57.2356  6231.46  79.4462
 57.2776  6174.5  79.0402
 57.3196  6225.94  79.739
 57.3616  6198.31  79.0547
 57.4036  6250  79.4432
 57.4456  6152.82  78.793
 57.4876  6089.18  78.2474
 57.5296  6125.55  78.8166
 57.5716  6193.28  79.2304
 57.6136  6240.24  79.3531
 57.6556  6172.81  79.0617
 57.6976  6229.79  79.2477
 57.7396  6125.79  78.9628
 57.7816  6094.23  79.1165
 57.8236  6023.47  78.4522
 57.8656  6218.13  79.3617
 57.9076  6202.18  79.2935
 57.9496  6168.48  79.428
 57.9916  6195.27  79.1096
 58.0336  6220.63  79.5495
 58.0756  6090.46  78.3473
 58.1176  6114.93  78.5017
 58.1596  6061.4  78.7255
 58.2016  6378.6  79.9578
 58.2436  6306.82  79.9176
 58.2856  6183.89  79.0626
 58.3276  6109.4  78.9563
 58.3696  6121.26  78.7809
 58.4116  6040.96  78.1302
 58.4536  6256.19  79.3917
 58.4956  6270.58  79.6689
 58.5376  6165.47  78.5665
 58.5796  6173.91  79.0449
 58.6216  6185.64  78.9361
 58.6636  6314.08  79.9693
 58.7056  6159.96  78.8431
 58.7476  6230.63  79.7445
 58.7896  6113.12  78.632
 58.8316  6171.43  78.9986
 58.8736  6126.34  78.7156
 58.9156  6166.25  79.0188
 58.9576  6124.94  79.0767
 58.9996  6333.96  79.6455
 59.0416  6343.06  80.074
 59.0836  6188.69  79.0174
 59.1256  6044.65  78.7895
 59.1676  6107.44  79.5126
 59.2096  6286.39  79.9657
 59.2516  6368.04  80.0532
 59.2936  6248.79  79.6338
 59.3356  6204.13  79.2247
 59.3776  6218.71  79.4893
 59.4196  6197.05  79.2853
 59.4616  6338.26  80.0407
 59.5036  6200.67  79.2019
 59.5456  6382.5  80.0407
 59.5876  6227.42  79.2563
 59.6296  6117.46  78.6231
 59.6716  6281.26  79.7278
 59.7136  6259.43  79.5773
 59.7556  6144.09  78.9783
 59.7976  6079.69  78.3046
 59.8396  6443.04  80.5014
 59.8816  6124.7  79.034
 59.9236  6152.77  78.858
 59.9656  6033.27  78.3489
 60.0076  6221.37  78.9087
 60.0496  6295.71  79.8902
 60.0916  6329.94  79.5144
 60.1336  6126.99  79.3445
 60.1756  6196.13  80.9904
 60.1996  0.0000000E+00  0.0000000E+00