File: docs/examples/opeando_xrd/IS17_D/Data/IS17_D/17_Db_f00008.xye
# /beamlines/bl04/projects/cycle2025-II/20250340211-lsimonelli/DATA/IS17_D/17_Db_f00008.xye : mythproc.py merge -s 0.006 -l 0.5 -f /beamlines/bl04/inhouse/ff/FlatField/ff_20Nov2024rod8mm60s_17keV.raw -b True -c true -o xye /beamlines/bl04/projects/cycle2025-II/20250340211-lsimonelli/DATA/IS17_D/17_Db_00008.dat
# IsMon = [6732173, 6733251, 6737257]  IsPos = [-1.5000, -2.4885, -3.4988]
# Wave = 0.4962  CalPath /beamlines/bl04/projects/cycle2025-II/20250340211-lsimonelli/DATA/Align/Si_Pos1_25keV_f00001.cal
# Date = 2025-09-23_19:55:17 Dt = 4.8000  Bin = 0.0060  <imon> = 6734227 +/- 2187 (Min/Max) 6732173 / 6737257
# icurr 248.8817  mocoIn 1.6993E-05  mocoOut 0.7967  i15 7.05376e+06  imon 6.73423e+06  i7 5.0000  iEMpd_timer 4.8000  iEMpd_1 3.5926E-08  iEMpd_2 7.8333E-08  iEMpd_3 1.7985E-08  iEMpd_4 4.7635E-08  iEMhp_timer 4.8000  iEMhp_1 4.8646E-06  iEMhp_2 -2.4560E-08  iEMhp_3 -2.2996E-08  iEMhp_4 -2.0641E-08
#      9776
 1.5856  41409.5  208.987
 1.6276  47849.4  220.796
 1.6696  53763  233.217
 1.7116  61450.9  249.822
 1.7536  69297.1  264.162
 1.7956  73753  273.204
 1.8376  70681.6  267.878
 1.8796  60223.5  245.452
 1.9216  49087.5  222.48
 1.9636  42690.8  207.15
 2.0056  38405.7  195.224
 2.0476  35293.3  189.198
 2.0896  34266.5  185.332
 2.1316  33328.4  181.899
 2.1736  31827.6  179.166
 2.2156  31965.6  178.113
 2.2576  31137.6  176.421
 2.2996  29998.5  173.8
 2.3416  30417.4  173.61
 2.3836  29723.5  171.726
 2.4256  28954.6  170.043
 2.4676  28747.4  169.194
 2.5096  29418.5  171.213
 2.5516  37616  198.018
 2.5936  148266  385.294
 2.6356  32699.1  181.705
 2.6776  27384.5  165.186
 2.7196  26162.4  161.929
 2.7616  25628.1  160.071
 2.8036  25156.4  158.751
 2.8456  25025.3  158.959
 2.8876  24597.5  157.432
 2.9296  24124.1  156.061
 2.9716  23946.1  154.989
 3.0136  23716.7  154.301
 3.0556  23729.6  154.735
 3.0976  23764.5  153.786
 3.1396  23234.7  152.744
 3.1816  23190.4  152.553
 3.2236  23115  152.298
 3.2656  22654.3  149.858
 3.3076  22916.5  152.149
 3.3496  23114.3  151.996
 3.3916  23249.4  152.029
 3.4336  23553.4  153.59
 3.4756  24255  155.799
 3.5176  24845.3  157.449
 3.5596  24250.2  158.464
 3.6016  24611  156.762
 3.6436  23640.2  154.713
 3.6856  23182.9  151.569
 3.7276  22451.1  150.205
 3.7696  22297.3  149.667
 3.8116  21849.7  148.256
 3.8536  21987.9  148.654
 3.8956  21903.1  148.196
 3.9376  22562.7  150.679
 3.9796  21821.1  147.681
 4.0216  21664  146.225
 4.0636  21700.9  147.757
 4.1056  21728.4  147.527
 4.1476  22089.8  149.052
 4.1896  22085.6  148.895
 4.2316  22330.7  149.553
 4.2736  22675.6  150.512
 4.3156  22828.8  151.236
 4.3576  23581  153.602
 4.3996  23821.4  154.667
 4.4416  24758.6  157.267
 4.4836  25936.6  161.134
 4.5256  25882.5  161.567
 4.5676  25351.3  160.145
 4.6096  25899.2  160.909
 4.6516  26455.9  161.968
 4.6936  26481.5  162.851
 4.7356  27350.2  165.327
 4.7776  26551.2  162.729
 4.8196  26109.6  162.01
 4.8616  25643.6  160.19
 4.9036  25501.5  159.35
 4.9456  25583.5  160.251
 4.9876  24900.2  157.998
 5.0296  24870  157.746
 5.0716  24667.4  157.687
 5.1136  24814.4  158.033
 5.1556  25294.8  159.019
 5.1976  34684.9  186.207
 5.2396  26112.7  161.27
 5.2816  25698.4  160.448
 5.3236  25735.4  160.266
 5.3656  25084.9  159.124
 5.4076  24825.9  158.435
 5.4496  24846.9  158.015
 5.4916  25062.2  158.459
 5.5336  24700.5  157.317
 5.5756  24977  158.219
 5.6176  24917.5  157.479
 5.6596  25236.9  159.296
 5.7016  25195  158.6
 5.7436  25202.4  158.888
 5.7856  25203.6  158.96
 5.8276  25271.8  158.893
 5.8696  25858.3  160.794
 5.9116  25443.6  160.185
 5.9536  25816.2  161.107
 5.9956  26040.1  161.208
 6.0376  26133.2  162.095
 6.0796  26215.3  162.184
 6.1216  26287.3  162.592
 6.1636  26449.8  162.188
 6.2056  26443  162.817
 6.2476  26921.5  163.995
 6.2896  26959  163.971
 6.3316  26925.9  164.04
 6.3736  27072.8  164.374
 6.4156  26877.5  163.73
 6.4576  27093.7  163.968
 6.4996  27323  165.115
 6.5416  27547.8  165.931
 6.5836  27774.9  166.836
 6.6256  27619  165.943
 6.6676  28125.8  167.037
 6.7096  28000.2  167.507
 6.7516  28266.4  167.959
 6.7936  29786.4  171.824
 6.8356  30456.2  173.844
 6.8776  29404.9  171.604
 6.9196  28890.3  170.483
 6.9616  29439.2  171.516
 7.0036  29747.8  172.117
 7.0456  30039  172.272
 7.0876  30038.2  173.828
 7.1296  29605.4  171.813
 7.1716  29748.9  171.785
 7.2136  29372.4  170.475
 7.2556  29655.3  171.455
 7.2976  29551.4  171.633
 7.3396  29518.6  171.754
 7.3816  29477.7  171.838
 7.4236  29921.7  172.444
 7.4656  29990.5  172.136
 7.5076  30545.7  173.855
 7.5496  30255.8  173.541
 7.5916  30336  173.824
 7.6336  31110.7  175.913
 7.6756  30681.6  174.553
 7.7176  31271  176.546
 7.7596  31507.4  178.392
 7.8016  37377.4  196.692
 7.8436  31761.2  178.029
 7.8856  31557.1  177.079
 7.9276  32344.4  179.647
 7.9696  32221.9  179.617
 8.0116  33503.5  181.738
 8.0536  33813.6  182.821
 8.0956  35832.4  189.392
 8.1376  34409.6  185.068
 8.1796  34534.4  185.932
 8.2216  35282.3  186.695
 8.2636  36005.1  188.849
 8.3056  35470.7  188.186
 8.3476  37275.9  192.253
 8.3896  36340.6  189.907
 8.4316  35391.6  187.571
 8.4736  35600.4  187.608
 8.5156  35307.5  187.102
 8.5576  34968.8  187.153
 8.5996  35025.4  186.204
 8.6416  34990.4  187.343
 8.6836  34754.2  186.524
 8.7256  35786.1  188.756
 8.7676  38041.7  197.573
 8.8096  38374.8  195.684
 8.8516  36374.4  190.154
 8.8936  37467.4  192.873
 8.9356  35642.2  188.46
 8.9776  35423  187.942
 9.0196  35457.8  187.723
 9.0616  35650  187.729
 9.1036  37107.1  192.705
 9.1456  34186.4  184.311
 9.1876  34367.7  184.746
 9.2296  33797.2  182.657
 9.2716  33623.7  182.232
 9.3136  33514  181.936
 9.3556  34066.1  183.403
 9.3976  32640.2  180.021
 9.4396  32864.7  180.55
 9.4816  32810.6  180.27
 9.5236  32506  179.306
 9.5656  31843.8  177.829
 9.6076  31257.2  176.681
 9.6496  31714  177.864
 9.6916  31426  176.998
 9.7336  31896.6  178.123
 9.7756  31521.8  178.266
 9.8176  31464.5  177.672
 9.8596  31115.3  175.174
 9.9016  30727.7  174.088
 9.9436  30530.9  173.271
 9.9856  30906.8  174.773
 10.0276  30276.6  174.032
 10.0696  30534.9  173.821
 10.1116  29673.3  171.61
 10.1536  29421.2  170.556
 10.1956  28718.2  168.609
 10.2376  28740.6  168.201
 10.2796  28721.9  168.255
 10.3216  28367.8  167.334
 10.3636  28181.5  166.963
 10.4056  31658.2  177.376
 10.4476  32570.3  179.499
 10.4896  36590.8  189.637
 10.5316  33687.2  182.368
 10.5736  28554.2  168.66
 10.6156  28369.9  167.868
 10.6576  33455.9  180.75
 10.6996  28017.3  166.109
 10.7416  26944.2  163.103
 10.7836  27618.7  165.781
 10.8256  25947.1  161.093
 10.8676  25923.9  160.59
 10.9096  25900.5  160.542
 10.9516  25570.8  158.491
 10.9936  26500.2  161.554
 11.0356  26111.9  160.968
 11.0776  27850.2  165.564
 11.1196  27406.7  165.015
 11.1616  25674.5  159.391
 11.2036  26824.2  162.767
 11.2456  28322  167.988
 11.2876  25463.8  159.014
 11.3296  25120.2  157.851
 11.3716  25437.3  158.57
 11.4136  24748  157.238
 11.4556  25098.8  157.993
 11.4976  26762.1  162.149
 11.5396  26782.8  162.383
 11.5816  25124.8  157.699
 11.6236  24369.9  155.75
 11.6656  24466.7  155.021
 11.7076  23615.1  153.106
 11.7496  24081.4  158.523
 11.7916  24486.4  155.171
 11.8336  23278.7  152.184
 11.8756  23944.4  153.877
 11.9176  23104.8  150.84
 11.9596  23250.3  151.482
 12.0016  22924.3  151.16
 12.0436  23004.6  150.886
 12.0856  22542.8  149.843
 12.1276  22799.2  150.652
 12.1696  22637.4  149.26
 12.2116  23074.2  150.692
 12.2536  25694  159.838
 12.2956  23265.9  151.469
 12.3376  23322.4  151.87
 12.3796  22879.3  150.885
 12.4216  22944.4  150.31
 12.4636  24009.3  154.696
 12.5056  22413.6  148.761
 12.5476  22569.2  148.805
 12.5896  22235.3  148.316
 12.6316  22481.4  149.292
 12.6736  22265  149.038
 12.7156  22775.3  150.579
 12.7576  22453.3  149.765
 12.7996  22827.8  149.677
 12.8416  22908.4  150.963
 12.8836  23678  153.317
 12.9256  23078.1  150.415
 12.9676  23017  150.606
 13.0096  23098  151.966
 13.0516  22877.2  150.296
 13.0936  23089.9  151.117
 13.1356  23235.7  150.851
 13.1776  23055.7  151.262
 13.2196  22974.9  150.649
 13.2616  22518.8  149.448
 13.3036  22983.7  151.119
 13.3456  22559.9  149.679
 13.3876  23198.8  151.294
 13.4296  23073.1  151.043
 13.4716  23258.3  151.278
 13.5136  23089.3  150.841
 13.5556  23055.2  151.357
 13.5976  23091  151.642
 13.6396  23306.6  151.718
 13.6816  23276.1  151.959
 13.7236  23784.1  153.298
 13.7656  25631.3  159.594
 13.8076  26918.8  162.207
 13.8496  24759.7  156.398
 13.8916  23516.1  153.354
 13.9336  22582  149.579
 13.9756  22670.8  149.282
 14.0176  22446.7  149.196
 14.0596  23491.5  152.549
 14.1016  22526.9  149.812
 14.1436  22100.5  147.544
 14.1856  22045.5  147.644
 14.2276  22381.3  149.239
 14.2696  22415  149.21
 14.3116  21289.8  145.318
 14.3536  21337.8  145.644
 14.3956  21094.1  144.544
 14.4376  21353.4  145.222
 14.4796  21130.9  144.468
 14.5216  20781.1  144.03
 14.5636  21173.5  144.96
 14.6056  20841  143.389
 14.6476  20616.7  141.884
 14.6896  20247.2  141.134
 14.7316  19736.5  140.341
 14.7736  19629.7  139.137
 14.8156  19591.4  139.011
 14.8576  19719.8  139.334
 14.8996  19510.6  139.748
 14.9416  19088.4  138.242
 14.9836  19056.9  138.112
 15.0256  18466.3  134.907
 15.0676  18367.2  134.843
 15.1096  18012.3  133.284
 15.1516  17967  133.655
 15.1936  17874.1  132.753
 15.2356  17906.2  133.144
 15.2776  17699.1  131.979
 15.3196  17548.3  132.369
 15.3616  17506.9  131.975
 15.4036  17234.6  130.822
 15.4456  17767.2  132.484
 15.4876  17196.7  130.036
 15.5296  17143.6  130.116
 15.5716  16702.9  128.049
 15.6136  16809.7  128.773
 15.6556  18636.2  134.819
 15.6976  17284.7  129.915
 15.7396  17009.5  129.457
 15.7816  16732.3  127.932
 15.8236  16532.4  127.825
 15.8656  16342.7  126.901
 15.9076  16269.8  126.444
 15.9496  17528.9  134.049
 15.9916  16360.8  129.888
 16.0336  16804.3  128.587
 16.0756  16454.8  127.547
 16.1176  16122  126.165
 16.1596  15972.7  126.876
 16.2016  15981.1  125.712
 16.2436  16040.4  126.304
 16.2856  15791.2  124.836
 16.3276  15529  124.245
 16.3696  15722  124.845
 16.4116  15518.9  124.468
 16.4536  15831.1  125.525
 16.4956  16414.6  127.56
 16.5376  15889.5  125.681
 16.5796  15641.8  124.079
 16.6216  15662.9  124.396
 16.6636  15517.6  124.025
 16.7056  15711.1  124.667
 16.7476  15451.5  123.172
 16.7896  15558.4  124.315
 16.8316  15418.7  123.746
 16.8736  15813.2  125.563
 16.9156  15703  125.445
 16.9576  15200.4  124.2
 16.9996  15305.5  125.082
 17.0416  15194.1  123.079
 17.0836  15415.1  123.74
 17.1256  15073.3  122.363
 17.1676  15721.5  124.916
 17.2096  15468.6  123.804
 17.2516  15410.6  123.679
 17.2936  14765.2  121.106
 17.3356  14664.6  120.674
 17.3776  14455.7  119.998
 17.4196  14566.1  120.16
 17.4616  14893.7  121.412
 17.5036  15051.4  122.415
 17.5456  14387.5  120.292
 17.5876  14291.6  118.981
 17.6296  14499.5  119.661
 17.6716  14626.8  120.773
 17.7136  15259.2  123.483
 17.7556  14442.4  120.424
 17.7976  14260.4  119.269
 17.8396  14345.2  119.264
 17.8816  13860.9  117.782
 17.9236  13791.3  117.268
 17.9656  14057.4  119.056
 18.0076  14525.6  120.466
 18.0496  15629.4  124.065
 18.0916  20686  143.366
 18.1336  18122.2  134.312
 18.1756  15648.8  124.349
 18.2176  15743.7  124.945
 18.2596  14116.3  118.044
 18.3016  14746.6  120.917
 18.3436  15430.9  123.933
 18.3856  14318.8  119.285
 18.4276  13839.7  116.964
 18.4696  14092.7  118.103
 18.5116  14076.2  118.312
 18.5536  13816  117.557
 18.5956  13912.3  117.547
 18.6376  13917.1  117.967
 18.6796  13792.1  116.772
 18.7216  13802.7  117.355
 18.7636  13635.4  116.582
 18.8056  13390.3  115.44
 18.8476  13046.1  114.553
 18.8896  13062  113.991
 18.9316  13280.2  114.763
 18.9736  13268.5  114.579
 19.0156  13636.9  116.574
 19.0576  13784.2  116.044
 19.0996  13276.3  114.598
 19.1416  13473.9  115.836
 19.1836  13094.6  113.805
 19.2256  12892.3  113.14
 19.2676  12980.4  113.604
 19.3096  12843.5  113.234
 19.3516  13232.8  114.727
 19.3936  13145.5  114.421
 19.4356  13127.5  114.234
 19.4776  13085.7  114.132
 19.5196  13087.3  114
 19.5616  13063.8  114.146
 19.6036  13008.1  113.411
 19.6456  13423.4  115.325
 19.6876  13571.3  115.592
 19.7296  13195.7  114.446
 19.7716  13052.5  113.845
 19.8136  13370.9  115.563
 19.8556  13769.6  116.763
 19.8976  13784.5  116.887
 19.9396  13749.8  116.323
 19.9816  13904.7  117.225
 20.0236  14271.2  118.951
 20.0656  13385.9  115.204
 20.1076  13088.2  114.379
 20.1496  12881.3  113.46
 20.1916  13071.5  113.795
 20.2336  12970.7  113.314
 20.2756  12759.9  112.811
 20.3176  12587.4  111.812
 20.3596  12621.9  111.943
 20.4016  12745.8  112.296
 20.4436  12640.5  112.382
 20.4856  12607.8  112.031
 20.5276  12623.4  112.55
 20.5696  12618.1  112.085
 20.6116  12580.4  112.093
 20.6536  12312.8  110.478
 20.6956  12425  111.053
 20.7376  12359.1  110.962
 20.7796  12327.9  110.526
 20.8216  12637.7  111.628
 20.8636  12905.6  113.179
 20.9056  13995.3  117.795
 20.9476  12954.1  113.175
 20.9896  13526.9  115.513
 21.0316  12610.5  111.426
 21.0736  12854.4  113.015
 21.1156  13034  113.963
 21.1576  12700.1  112.531
 21.1996  12305.8  110.758
 21.2416  12361.8  110.847
 21.2836  12603.1  111.896
 21.3256  12401.1  111.07
 21.3676  12417  110.68
 21.4096  12626.8  111.981
 21.4516  12348.5  110.55
 21.4936  12106.5  109.74
 21.5356  12295.7  110.536
 21.5776  12366.6  110.689
 21.6196  12429.4  111.016
 21.6616  12327.7  110.63
 21.7036  12144.5  109.583
 21.7456  12096.3  109.444
 21.7876  11948.5  108.543
 21.8296  11820.4  107.807
 21.8716  11909.2  108.443
 21.9136  12166.8  109.798
 21.9556  12397.4  110.518
 21.9976  12160.5  109.488
 22.0396  12053.7  109.249
 22.0816  11890.8  109.016
 22.1236  12399.6  110.796
 22.1656  11979.1  109.087
 22.2076  11937.6  108.317
 22.2496  11733.3  107.418
 22.2916  11793.2  107.578
 22.3336  11802.3  108.297
 22.3756  11697.1  107.564
 22.4176  11637.6  107.152
 22.4596  11485.7  107.008
 22.5016  11778.1  107.879
 22.5436  11832.8  108.006
 22.5856  12098.6  109.461
 22.6276  12271.7  110.367
 22.6696  11652.2  107.895
 22.7116  11492.8  106.689
 22.7536  11575.2  107.044
 22.7956  11601.6  106.528
 22.8376  11383.9  106.013
 22.8796  11628.5  106.958
 22.9216  11664.1  107.643
 22.9636  11705.5  107.018
 23.0056  11529.8  106.344
 23.0476  11907.1  108.626
 23.0896  12015.8  108.511
 23.1316  11747  107.714
 23.1736  11779.9  110.718
 23.2156  11997.6  109.174
 23.2576  12298.3  110.675
 23.2996  11794.7  108.154
 23.3416  12079.4  109.98
 23.3836  11931.3  108.548
 23.4256  12176.9  109.788
 23.4676  12076.5  109.028
 23.5096  12172.6  110.115
 23.5516  12138.9  109.265
 23.5936  12002.7  109.543
 23.6356  12365.2  110.841
 23.6776  11896.2  108.928
 23.7196  11835.6  108.46
 23.7616  12022.3  109.01
 23.8036  12045.8  109.177
 23.8456  11725.7  107.272
 23.8876  11760.9  107.793
 23.9296  11589.3  107.473
 23.9716  11875.6  108.008
 24.0136  11864.7  108.844
 24.0556  11620  107.438
 24.0976  11523.5  106.814
 24.1396  11454.4  109.054
 24.1816  11578.8  108.428
 24.2236  11592  107.8
 24.2656  11650  107.545
 24.3076  11696.1  108.028
 24.3496  11762.9  108.214
 24.3916  11743  108.171
 24.4336  11594.8  107.68
 24.4756  11507.9  107.17
 24.5176  11335.4  105.997
 24.5596  11335.9  106.32
 24.6016  11279.3  106.147
 24.6436  11441.5  106.424
 24.6856  11451.9  106.216
 24.7276  11354.8  106.085
 24.7696  11352.8  106.178
 24.8116  11423.1  106.686
 24.8536  11297.1  106.105
 24.8956  11180.4  105.294
 24.9376  11229  105.697
 24.9796  11028.6  104.861
 25.0216  11161.9  105.6
 25.0636  11130.7  105.117
 25.1056  10818.9  104.051
 25.1476  10828.4  105.963
 25.1896  10758.6  104.158
 25.2316  10691.7  103.115
 25.2736  10748.6  103.064
 25.3156  10762  103.194
 25.3576  10611.8  102.891
 25.3996  10711.8  103.361
 25.4416  10542.2  102.514
 25.4836  10519.2  102.912
 25.5256  10643.4  102.889
 25.5676  10709.2  102.944
 25.6096  10417.4  102.09
 25.6516  10551.9  102.264
 25.6936  10679.1  103.194
 25.7356  10502.8  102.466
 25.7776  10528.8  102.27
 25.8196  10544.4  102.513
 25.8616  10383.6  101.655
 25.9036  10734.5  102.823
 25.9456  10355.2  101.576
 25.9876  10469.1  102.046
 26.0296  10522.8  102.066
 26.0716  10560  102.578
 26.1136  10657.1  102.958
 26.1556  10673.2  102.443
 26.1976  10331.3  101.701
 26.2396  10412.4  101.515
 26.2816  10339.2  101.503
 26.3236  10555.9  102.713
 26.3656  10624.6  102.779
 26.4076  10295.9  101.382
 26.4496  10512.2  102.037
 26.4916  10674.3  102.714
 26.5336  10951.9  104.38
 26.5756  10946.2  104.238
 26.6176  10584  102.518
 26.6596  10458.1  102.217
 26.7016  10217  100.799
 26.7436  10288  101.277
 26.7856  10111.9  100.384
 26.8276  10037.1  99.9807
 26.8696  10099.7  100.167
 26.9116  10186  100.53
 26.9536  10046.2  99.8862
 26.9956  9920.13  99.29
 27.0376  10026.4  100.048
 27.0796  10058.1  100.004
 27.1216  10218.3  100.784
 27.1636  9903.67  99.3649
 27.2056  10104.6  100.27
 27.2476  9971.49  99.5923
 27.2896  9841.89  99.0616
 27.3316  9926.96  99.2189
 27.3736  9738.22  98.5321
 27.4156  9843.59  98.9119
 27.4576  9901.68  99.4142
 27.4996  10026  99.6596
 27.5416  9894.41  99.2965
 27.5836  9751.57  98.4156
 27.6256  9915  99.4082
 27.6676  9807  98.8659
 27.7096  9872.65  99.076
 27.7516  10435.6  102.008
 27.7936  10557.6  102.755
 27.8356  10296.9  101.089
 27.8776  10266  101.011
 27.9196  10138.4  100.224
 27.9616  10069.2  100.089
 28.0036  10002.7  99.7167
 28.0456  9605.1  97.8433
 28.0876  9541.41  97.6059
 28.1296  9857.44  99.0547
 28.1716  9851.62  99.0441
 28.2136  9770.12  98.5922
 28.2556  9716.7  98.4286
 28.2976  9669.5  98.1838
 28.3396  9576.99  97.5177
 28.3816  9740.03  98.308
 28.4236  9614.6  97.8283
 28.4656  9458.43  97.0762
 28.5076  9401.07  96.4269
 28.5496  9427.03  96.8138
 28.5916  9520.39  97.1007
 28.6336  9458.22  97.1277
 28.6756  9464.93  96.371
 28.7176  9482.67  97.0118
 28.7596  9284.42  95.8863
 28.8016  9278.03  95.892
 28.8436  9248.94  95.9732
 28.8856  9360.79  96.4011
 28.9276  9532.5  97.5285
 28.9696  9326.29  96.1234
 29.0116  9271.94  96.0221
 29.0536  9074.66  95.2082
 29.0956  9280.91  95.9899
 29.1376  9346.39  96.3013
 29.1796  9239.65  95.7977
 29.2216  9162.47  95.2349
 29.2636  9339.67  96.1519
 29.3056  9240.25  95.4887
 29.3476  9186.01  95.73
 29.3896  9231.03  96.0804
 29.4316  9200.71  95.2657
 29.4736  9041.24  94.4951
 29.5156  9066.36  94.5515
 29.5576  9059.32  95.2391
 29.5996  8992.95  94.1674
 29.6416  9027.18  94.4666
 29.6836  9160.34  95.0845
 29.7256  8837.9  93.9401
 29.7676  9121.55  95.1018
 29.8096  8939.73  94.0979
 29.8516  8773.89  93.5363
 29.8936  8820.88  93.8782
 29.9356  9028.98  94.7423
 29.9776  8986.2  94.6653
 30.0196  9020.15  94.2592
 30.0616  8982.24  94.415
 30.1036  8893.14  93.7822
 30.1456  8879.41  93.9258
 30.1876  8809.62  93.5443
 30.2296  8786.22  93.3603
 30.2716  8917.64  93.7094
 30.3136  8756.24  93.6818
 30.3556  9151.63  95.7778
 30.3976  8978.98  96.327
 30.4396  9332.22  95.5965
 30.4816  9268.77  94.8667
 30.5236  9306.39  95.0632
 30.5656  9131.44  94.827
 30.6076  9022.24  94.0186
 30.6496  9097.64  94.4595
 30.6916  8931.97  93.6882
 30.7336  9013.96  94.2667
 30.7756  8951.08  94.0042
 30.8176  8905.24  93.7023
 30.8596  8935.91  93.6227
 30.9016  9000.22  93.8441
 30.9436  8893.64  93.4941
 30.9856  9170.04  95.0466
 31.0276  8962.98  93.6167
 31.0696  8915.27  93.9108
 31.1116  9005.05  94.3514
 31.1536  8984.27  94.1248
 31.1956  8757.95  93.0159
 31.2376  8689.42  92.6745
 31.2796  8863.82  93.1484
 31.3216  8861.23  93.0657
 31.3636  8852.32  93.7015
 31.4056  8949.01  95.4879
 31.4476  8859.69  92.9892
 31.4896  8896.35  93.6624
 31.5316  9101.08  94.1936
 31.5736  9492.52  95.9876
 31.6156  9449.12  95.7702
 31.6576  9186.26  94.4922
 31.6996  9253.68  94.5162
 31.7416  9183.8  95.1147
 31.7836  8947.38  93.0401
 31.8256  8938.26  93.3319
 31.8676  9042.39  93.7906
 31.9096  8887.44  93.202
 31.9516  8589.79  91.9282
 31.9936  8789.46  92.8077
 32.0356  8827.3  93.0499
 32.0776  8797.33  92.7993
 32.1196  8885.67  93.2808
 32.1616  8950.05  93.1634
 32.2036  8807.8  92.9224
 32.2456  8707.73  92.766
 32.2876  8732.57  92.2328
 32.3296  8801.83  92.7359
 32.3716  8563.85  91.5778
 32.4136  8638.37  92.17
 32.4556  8731.69  92.1182
 32.4976  8735.5  92.0387
 32.5396  8549.81  91.0679
 32.5816  8543.66  91.1657
 32.6236  8593.07  91.4885
 32.6656  8612.63  92.1223
 32.7076  8558.22  91.4966
 32.7496  8498.48  90.8564
 32.7916  8554.08  91.116
 32.8336  8538.28  91.1209
 32.8756  8616.89  91.2577
 32.9176  8523.85  91.2507
 32.9596  8559.55  91.5065
 33.0016  8627.02  91.6428
 33.0436  8490.21  91.0901
 33.0856  8400.77  90.6944
 33.1276  8342.58  90.1219
 33.1696  8464.68  90.6141
 33.2116  8518.67  91.1321
 33.2536  8535.56  91.2108
 33.2956  8409.54  90.6119
 33.3376  8387.94  90.323
 33.3796  8564.52  91.4105
 33.4216  8421.36  90.2348
 33.4636  8435.95  90.4655
 33.5056  8304.08  90.0019
 33.5476  8409.65  90.5393
 33.5896  8365.14  90.083
 33.6316  8410.61  90.6489
 33.6736  8256.63  90.0622
 33.7156  8316.5  90.4117
 33.7576  8402.1  90.5282
 33.7996  8435.51  90.4679
 33.8416  8326.08  90.0709
 33.8836  8298.49  89.6984
 33.9256  8527.41  90.9883
 33.9676  8371.14  90.0507
 34.0096  8379.29  90.398
 34.0516  8176.29  88.9434
 34.0936  8132.42  88.9719
 34.1356  8337.49  89.8239
 34.1776  8193.7  89.0399
 34.2196  8134.1  88.9077
 34.2616  8166.4  89.2112
 34.3036  8312.69  90.246
 34.3456  8211.71  89.4581
 34.3876  8289.56  89.9456
 34.4296  8242.54  89.3042
 34.4716  8325.43  89.894
 34.5136  8262.22  89.736
 34.5556  8085.75  89.0188
 34.5976  8305.49  90.0773
 34.6396  8156.91  88.9545
 34.6816  8364.94  90.1795
 34.7236  8220.97  89.1835
 34.7656  8186.88  89.2055
 34.8076  8104.76  89.0807
 34.8496  8105.46  88.9362
 34.8916  8182.87  89.2303
 34.9336  8314.23  89.9218
 34.9756  8310.38  89.851
 35.0176  8249.77  90.0136
 35.0596  8289.27  90.0574
 35.1016  8149  89.0472
 35.1436  8391.53  90.0573
 35.1856  8145.69  88.8441
 35.2276  8057.66  88.5378
 35.2696  8222.37  89.6259
 35.3116  8186.76  89.5299
 35.3536  8246.52  89.6
 35.3956  8047.12  88.2012
 35.4376  8252.39  89.8724
 35.4796  8195.64  89.591
 35.5216  8135.37  89.2344
 35.5636  7934.92  88.8348
 35.6056  8097.01  88.7873
 35.6476  8088.35  88.6443
 35.6896  8197.8  89.4191
 35.7316  7980.13  88.1146
 35.7736  7963.26  88.2049
 35.8156  8095.44  88.9344
 35.8576  8129.15  89.3569
 35.8996  8080.45  89.0595
 35.9416  8045.36  88.3912
 35.9836  7975.93  88.4445
 36.0256  8341  90.3505
 36.0676  8205.93  89.1334
 36.1096  8083.31  88.8507
 36.1516  8214.06  89.4624
 36.1936  8129.01  88.8336
 36.2356  8039.73  88.9912
 36.2776  8061.56  88.5838
 36.3196  8054.57  88.2306
 36.3616  8055.94  88.3675
 36.4036  8021.81  88.2476
 36.4456  8030.98  88.5084
 36.4876  7895.18  87.6931
 36.5296  8024.19  88.4486
 36.5716  7971.06  88.9159
 36.6136  7971.42  87.7219
 36.6556  7999.51  88.0645
 36.6976  7931.06  88.1778
 36.7396  7854.67  87.4942
 36.7816  7747.03  87.2531
 36.8236  7866.45  87.852
 36.8656  7677.42  86.847
 36.9076  7685.59  86.9081
 36.9496  7643.24  86.5298
 36.9916  7626.39  86.0807
 37.0336  7795.82  87.3344
 37.0756  7738.43  86.8137
 37.1176  7515.32  85.8121
 37.1596  7632.01  86.4784
 37.2016  7530.99  86.0798
 37.2436  7817.14  87.0752
 37.2856  7672.24  86.5155
 37.3276  7601.46  85.4908
 37.3696  7609.8  86.3917
 37.4116  7570.85  86.0728
 37.4536  7647.23  86.3813
 37.4956  7582.09  86.0518
 37.5376  7773.2  88.6884
 37.5796  7724.45  88.343
 37.6216  7724.65  86.651
 37.6636  7806.59  86.9935
 37.7056  7805.8  87.1781
 37.7476  7937.95  87.4659
 37.7896  7673.41  86.4864
 37.8316  7599.94  86.2251
 37.8736  7693.35  86.2912
 37.9156  7717.97  86.41
 37.9576  7768.45  86.6202
 37.9996  7660.75  85.7329
 38.0416  7642.84  86.4242
 38.0836  7732.12  86.8355
 38.1256  7724.5  86.7633
 38.1676  7758.58  87.0633
 38.2096  7918.36  87.5819
 38.2516  7720.93  86.682
 38.2936  7867.55  87.3142
 38.3356  7725.71  86.4535
 38.3776  7648.66  86.2612
 38.4196  7641.08  86.0793
 38.4616  7716.1  86.7445
 38.5036  7781.08  86.9588
 38.5456  7679.99  87.1988
 38.5876  7636.56  86.9768
 38.6296  7786.32  86.8286
 38.6716  7720.29  86.2601
 38.7136  7589.56  85.4763
 38.7556  7672.5  86.4385
 38.7976  7681.12  86.4165
 38.8396  7647.1  86.6674
 38.8816  7619.01  86.3149
 38.9236  7702.22  86.5827
 38.9656  7623.39  86.046
 39.0076  7671.79  85.7445
 39.0496  7790.44  86.9485
 39.0916  7729.92  86.2622
 39.1336  7719.82  86.6035
 39.1756  7633.49  86.1728
 39.2176  7567.49  86.3372
 39.2596  7650.75  86.7285
 39.3016  7520.36  85.5849
 39.3436  7661.35  86.7808
 39.3856  7749.95  86.7343
 39.4276  7723.84  87.0896
 39.4696  7647.9  86.2944
 39.5116  7687.94  87.0197
 39.5536  7759.57  87.8268
 39.5956  7690.92  86.5664
 39.6376  7649.92  86.3345
 39.6796  7607.61  85.846
 39.7216  7616.99  85.9943
 39.7636  7578.51  86.3105
 39.8056  7723.16  86.9332
 39.8476  7540.76  86.1559
 39.8896  7652.21  86.431
 39.9316  7490.01  85.7429
 39.9736  7680.89  86.4134
 40.0156  7522.1  85.3482
 40.0576  7528.44  85.7253
 40.0996  7657.58  85.6618
 40.1416  7657.44  86.4381
 40.1836  7656.31  86.3194
 40.2256  7574.33  85.8954
 40.2676  7553.46  85.944
 40.3096  7567.4  85.8818
 40.3516  7611.82  86.2544
 40.3936  7714.85  86.392
 40.4356  7537.02  85.596
 40.4776  7767.88  87.1215
 40.5196  7627.25  86.6226
 40.5616  7708.81  86.7385
 40.6036  7643.84  86.617
 40.6456  7665.64  86.3603
 40.6876  7687.22  86.4729
 40.7296  7560.55  85.8828
 40.7716  7631.56  86.4032
 40.8136  7587.32  86.1029
 40.8556  7655.86  86.6188
 40.8976  7645.12  86.4832
 40.9396  7679.75  87.0234
 40.9816  7679.82  86.3263
 41.0236  7565.78  85.4644
 41.0656  7737.2  86.9541
 41.1076  7621.8  86.0853
 41.1496  7643.86  86.1254
 41.1916  7617.57  86.2875
 41.2336  7646.72  86.4472
 41.2756  7712.34  86.4266
 41.3176  7560.48  86.1681
 41.3596  7561.17  85.9162
 41.4016  7532.85  86.0044
 41.4436  7690.02  86.6878
 41.4856  7600.73  86.3454
 41.5276  7526.39  85.9373
 41.5696  7577.37  85.8521
 41.6116  7608.01  86.4219
 41.6536  7575.04  86.0889
 41.6956  7686.64  86.7053
 41.7376  7673.34  86.7339
 41.7796  7531.8  85.8645
 41.8216  7649.43  86.7186
 41.8636  7556.09  86.1314
 41.9056  7511.56  85.6777
 41.9476  7620.35  86.5275
 41.9896  7704.04  86.6634
 42.0316  7662.58  86.5195
 42.0736  7674.52  86.7184
 42.1156  7537.66  85.7397
 42.1576  7575.23  86.0627
 42.1996  7654.47  86.6481
 42.2416  7600.07  85.923
 42.2836  7584.15  85.9559
 42.3256  7514.82  85.6689
 42.3676  7708.31  86.5688
 42.4096  7614.77  86.0066
 42.4516  7626.05  86.1538
 42.4936  7497.25  85.4862
 42.5356  7469.69  85.4703
 42.5776  7543.78  85.8369
 42.6196  7648.92  86.491
 42.6616  7388.72  85.1652
 42.7036  7595.37  85.7448
 42.7456  7648.7  86.3989
 42.7876  7555.07  85.9493
 42.8296  7544.95  85.7343
 42.8716  7483.92  85.5489
 42.9136  7511.56  85.4621
 42.9556  7534.73  85.7612
 42.9976  7502.49  85.5449
 43.0396  7465.66  85.0677
 43.0816  7548.9  85.9234
 43.1236  7455.42  85.4435
 43.1656  7543.07  85.7646
 43.2076  7514.2  85.7111
 43.2496  7452.25  85.182
 43.2916  7403.67  85.2569
 43.3336  7438.01  85.2812
 43.3756  7395.84  84.8134
 43.4176  7353.51  84.642
 43.4596  7403.28  84.7876
 43.5016  7459.42  85.5012
 43.5436  7378.12  84.9528
 43.5856  7312.27  84.5939
 43.6276  7399.11  84.978
 43.6696  7290.61  84.5018
 43.7116  7386.23  84.6745
 43.7536  7487.38  85.7457
 43.7956  7357.16  86.1805
 43.8376  7296.24  84.379
 43.8796  7241.87  84.1388
 43.9216  7169.76  83.6377
 43.9636  7288.24  84.4281
 44.0056  7299.81  84.7258
 44.0476  7217.1  83.8832
 44.0896  7257.39  84.4561
 44.1316  7142.56  83.4596
 44.1736  7223.66  83.9166
 44.2156  7321.35  84.3434
 44.2576  7277.59  84.4056
 44.2996  7286.94  84.4332
 44.3416  7241.11  83.9282
 44.3836  7196.47  83.9885
 44.4256  7188.32  83.5911
 44.4676  7020.21  82.764
 44.5096  7271.7  84.3756
 44.5516  7227.56  84.0856
 44.5936  7152.09  83.5982
 44.6356  7258.11  83.9546
 44.6776  7220.68  84.0518
 44.7196  7296.03  84.7876
 44.7616  7288.81  86.0594
 44.8036  7324.33  84.9145
 44.8456  7316.83  84.8722
 44.8876  7324.59  84.7599
 44.9296  7503.09  85.2378
 44.9716  7330.64  84.6752
 45.0136  7424.18  85.1522
 45.0556  7294.63  84.4952
 45.0976  7324.65  84.705
 45.1396  7127  83.3168
 45.1816  7214.48  83.7761
 45.2236  7369.11  84.5793
 45.2656  7239.48  84.3154
 45.3076  7236.93  84.0722
 45.3496  7236.93  84.3897
 45.3916  7240.19  84.6794
 45.4336  7314.11  84.9576
 45.4756  7243.25  84.394
 45.5176  7301.44  84.3631
 45.5596  7377.58  84.911
 45.6016  7227.37  84.4641
 45.6436  7212.79  83.5537
 45.6856  7160.66  83.9044
 45.7276  7128.83  85.0114
 45.7696  7272.76  85.5522
 45.8116  7268.01  84.9593
 45.8536  7130.86  84.0589
 45.8956  7275.46  84.2669
 45.9376  7266.87  83.6813
 45.9796  7328.51  84.7376
 46.0216  7318.41  85.0026
 46.0636  7360.44  84.3873
 46.1056  7335.01  84.2402
 46.1476  7223.74  84.1792
 46.1896  7290.5  84.7169
 46.2316  7250.6  84.355
 46.2736  7280.71  84.7371
 46.3156  7238.98  84.2415
 46.3576  7264.33  84.5919
 46.3996  7248.37  84.6531
 46.4416  7265.43  84.3084
 46.4836  7136.98  83.9381
 46.5256  7269.12  84.6535
 46.5676  7141.47  84.0155
 46.6096  7278.64  84.7523
 46.6516  7275.83  83.7799
 46.6936  7309.07  84.4741
 46.7356  7305.19  84.5428
 46.7776  7160.63  84.5362
 46.8196  7102.75  83.9411
 46.8616  7063.15  83.5008
 46.9036  6996.88  82.7843
 46.9456  7104.37  83.0585
 46.9876  7110.33  83.179
 47.0296  7094.91  83.7644
 47.0716  7045.05  83.2975
 47.1136  7177.26  83.7562
 47.1556  7064.8  82.9659
 47.1976  7149.18  83.6104
 47.2396  7120.6  83.7714
 47.2816  7054.03  83.082
 47.3236  7018.93  83.2363
 47.3656  7086.74  83.5604
 47.4076  7130.65  83.5494
 47.4496  7088.39  83.4798
 47.4916  7082.11  83.6217
 47.5336  7125.21  83.7016
 47.5756  7190.81  84.1988
 47.6176  7084.47  83.4762
 47.6596  7036.68  82.9071
 47.7016  7272.37  84.0925
 47.7436  7189.98  83.965
 47.7856  7192.86  84.0062
 47.8276  7021.66  83.056
 47.8696  7093.93  83.5564
 47.9116  7124.16  83.4529
 47.9536  7156.81  83.5765
 47.9956  7068.35  83.771
 48.0376  7087.79  83.6644
 48.0796  7102.52  83.8779
 48.1216  7147.64  83.9636
 48.1636  7215.82  83.9352
 48.2056  7124.57  83.6643
 48.2476  7235.14  84.6249
 48.2896  7185.81  84.2345
 48.3316  7096.57  83.6589
 48.3736  7067.13  83.504
 48.4156  7028.7  83.1295
 48.4576  7150.63  84.1444
 48.4996  7140.29  83.5453
 48.5416  7249.14  84.5067
 48.5836  7091.69  83.2558
 48.6256  7186.59  84.0233
 48.6676  7049.85  83.7234
 48.7096  7138.41  83.5118
 48.7516  7121.68  83.569
 48.7936  7006.83  82.9585
 48.8356  7138.27  83.7837
 48.8776  7133.99  84.2439
 48.9196  7257.09  84.4205
 48.9616  7180.35  84.3551
 49.0036  7153.51  84.5473
 49.0456  7097.74  84.1924
 49.0876  7055.68  83.578
 49.1296  7020.36  83.4427
 49.1716  7037.05  83.4058
 49.2136  7109.77  83.7611
 49.2556  7112.54  83.8166
 49.2976  7134.99  84.0075
 49.3396  7005.15  83.2992
 49.3816  7080.69  83.1783
 49.4236  6983.52  83.0201
 49.4656  7016.17  83.2327
 49.5076  7037  83.1134
 49.5496  7037.04  83.1809
 49.5916  7100.77  83.4712
 49.6336  7054.15  83.4008
 49.6756  7043.18  83.5641
 49.7176  6950.74  82.9588
 49.7596  7013.29  83.097
 49.8016  7030.94  83.1197
 49.8436  6978.15  83.1002
 49.8856  6957.58  82.9775
 49.9276  7016.15  83.4377
 49.9696  7112.86  83.9863
 50.0116  7009.54  83.495
 50.0536  6970.48  83.2167
 50.0956  6929.08  83.0465
 50.1376  7001.43  83.1693
 50.1796  6968.11  83.2471
 50.2216  7023.87  83.5724
 50.2636  6961.79  82.823
 50.3056  6920.76  82.7562
 50.3476  6951.51  82.9577
 50.3896  6916.49  82.7207
 50.4316  6932.56  82.6486
 50.4736  6891.3  82.6192
 50.5156  6897.25  82.6504
 50.5576  6912.65  82.4997
 50.5996  6955.87  83.0401
 50.6416  6882.03  82.5233
 50.6836  6922.71  82.8279
 50.7256  6989.56  83.1534
 50.7676  7144.97  84.365
 50.8096  6999.47  83.0651
 50.8516  6972.46  83.3177
 50.8936  6919.44  82.7802
 50.9356  6937.7  83.0028
 50.9776  6915.24  83.027
 51.0196  6796.34  82.4307
 51.0616  6834.84  81.9975
 51.1036  6878.21  82.6099
 51.1456  6937.02  82.8757
 51.1876  6854.8  81.7121
 51.2296  6784.02  81.9216
 51.2716  6758.87  81.483
 51.3136  6723.7  81.73
 51.3556  6742.18  81.4644
 51.3976  6817.01  82.0609
 51.4396  6759.22  82.0311
 51.4816  6725.77  81.683
 51.5236  6806.52  82.2586
 51.5656  6672.25  81.0404
 51.6076  6748.85  81.5924
 51.6496  6691.77  81.4235
 51.6916  6766.03  82.2439
 51.7336  6605.41  81.3468
 51.7756  6817.13  82.3267
 51.8176  6643.05  81.3878
 51.8596  6688.32  81.6789
 51.9016  6905.77  82.5987
 51.9436  6701.52  82.8572
 51.9856  6807.88  83.919
 52.0276  6853.72  82.6738
 52.0696  6963.17  83.4207
 52.1116  6740.48  82.1868
 52.1536  6847.72  82.6728
 52.1956  6707.76  81.3381
 52.2376  6930.42  82.8526
 52.2796  6770.28  81.7101
 52.3216  6646.06  81.6303
 52.3636  6714.1  81.6067
 52.4056  6823.65  82.1524
 52.4476  6689.22  81.698
 52.4896  6733.68  82.0208
 52.5316  6805.43  82.508
 52.5736  6657.03  81.3094
 52.6156  6821.14  82.7187
 52.6576  6658.97  81.1605
 52.6996  6627.83  81.9557
 52.7416  6630.16  81.8176
 52.7836  6707.35  82.1881
 52.8256  6807.48  82.0092
 52.8676  6635.3  81.5341
 52.9096  6729.36  82.1868
 52.9516  6771.63  82.836
 52.9936  6693.99  82.7381
 53.0356  6782.47  82.283
 53.0776  6828.2  82.8561
 53.1196  6755.03  82.5117
 53.1616  6711.56  82.2879
 53.2036  6618.3  81.6838
 53.2456  6713.11  82.3679
 53.2876  6706.28  82.014
 53.3296  6700.69  82.3076
 53.3716  6767.59  82.4692
 53.4136  6652.73  81.9183
 53.4556  6745.8  82.5209
 53.4976  6615.23  81.5343
 53.5396  6681.01  82.3553
 53.5816  6734.09  82.3182
 53.6236  6727.35  82.6314
 53.6656  6675.86  81.9139
 53.7076  6616.07  81.5131
 53.7496  6639.99  81.787
 53.7916  6603.14  81.693
 53.8336  6688.54  82.1064
 53.8756  6405.51  80.8888
 53.9176  6605.13  81.4922
 53.9596  6351.85  80.6564
 54.0016  6344.79  79.9551
 54.0436  6382  80.3927
 54.0856  6598.58  81.1808
 54.1276  6482.57  80.6605
 54.1696  6463.44  80.717
 54.2116  6556.61  81.0316
 54.2536  6414.29  79.9587
 54.2956  6461.89  80.2944
 54.3376  6392.56  80.3637
 54.3796  6362.99  80.068
 54.4216  6463.11  80.7592
 54.4636  6370.93  80.1397
 54.5056  6423.22  80.2749
 54.5476  6375.9  80.3172
 54.5896  6325.56  79.839
 54.6316  6365.58  79.9433
 54.6736  6387.04  80.112
 54.7156  6301.53  79.65
 54.7576  6273.75  79.458
 54.7996  6437.47  80.655
 54.8416  6436.71  80.6808
 54.8836  6381.68  80.4288
 54.9256  6256.77  79.4077
 54.9676  6229.24  79.0882
 55.0096  6296.45  79.5572
 55.0516  6189.33  79.0405
 55.0936  6328.44  79.6483
 55.1356  6342.21  79.7859
 55.1776  6398.05  80.3672
 55.2196  6245.88  79.2114
 55.2616  6366.53  80.1887
 55.3036  6177.67  79.1529
 55.3456  6114.49  78.8806
 55.3876  6225.22  79.3224
 55.4296  6154.75  78.8853
 55.4716  6392.22  80.4045
 55.5136  6244.18  79.2436
 55.5556  6333.43  79.868
 55.5976  6263.41  79.4959
 55.6396  6251.33  79.2742
 55.6816  6167.05  78.6853
 55.7236  6110.81  78.3888
 55.7656  6204.13  78.7097
 55.8076  6173.82  78.5284
 55.8496  6292.4  79.7008
 55.8916  6130.94  78.7324
 55.9336  6293.56  79.6354
 55.9756  6178.18  78.7829
 56.0176  6108.53  78.4824
 56.0596  6188.64  78.9803
 56.1016  6135.33  78.695
 56.1436  6203.44  79.3485
 56.1856  6055.61  78.1573
 56.2276  6335.2  79.9837
 56.2696  6126.69  78.6194
 56.3116  6183.62  79.3644
 56.3536  6046.29  78.1703
 56.3956  6119.85  78.5853
 56.4376  6046.58  78.1974
 56.4796  6094.88  78.323
 56.5216  6162.14  79.1205
 56.5636  6017.35  77.7544
 56.6056  6255.97  79.5241
 56.6476  6051.34  77.8448
 56.6896  6224.32  79.4
 56.7316  6109.12  78.5508
 56.7736  6056.34  78.2366
 56.8156  6096.32  78.513
 56.8576  5945.07  77.4768
 56.8996  6094.72  78.3408
 56.9416  6047.22  78.3542
 56.9836  6194.15  78.8204
 57.0256  6053.62  78.2474
 57.0676  6104.16  78.6643
 57.1096  6050.87  78.1194
 57.1516  5924.2  77.3215
 57.1936  6038.1  77.8539
 57.2356  6031.69  78.1368
 57.2776  6022.13  78.0428
 57.3196  6042.89  78.502
 57.3616  6049.01  78.0527
 57.4036  6101.91  78.4356
 57.4456  6045.65  78.0823
 57.4876  6037.97  77.8928
 57.5296  5979.84  77.7431
 57.5716  5961.17  77.7245
 57.6136  5853.75  76.8586
 57.6556  6008.55  77.9866
 57.6976  6043.23  78.046
 57.7396  5969.75  77.9092
 57.7816  5943.61  78.1202
 57.8236  5974.84  78.106
 57.8656  6002.75  77.9555
 57.9076  5924.73  77.4739
 57.9496  5972.62  78.1305
 57.9916  6004.32  77.868
 58.0336  5914.18  77.5441
 58.0756  5980.91  77.5871
 58.1176  5989.61  77.6851
 58.1596  5888.32  77.5925
 58.2016  5754.65  75.9449
 58.2436  5733.61  76.2084
 58.2856  5724.96  76.0687
 58.3276  5672.94  76.0866
 58.3696  5720.79  76.1681
 58.4116  5741.81  76.1741
 58.4536  5856.02  76.8179
 58.4956  5589.01  75.218
 58.5376  5815.63  76.3085
 58.5796  5627.43  75.4638
 58.6216  5681.71  75.6561
 58.6636  5731.22  76.1886
 58.7056  5694.01  75.8062
 58.7476  5713.52  76.3632
 58.7896  5551.43  74.9364
 58.8316  5699.4  75.9276
 58.8736  5743.69  76.2298
 58.9156  5764.25  76.4105
 58.9576  5743.89  76.5821
 58.9996  5724.11  75.7261
 59.0416  5844.61  76.8678
 59.0836  5687.73  75.7545
 59.1256  5696.39  76.4931
 59.1676  5694.43  76.7797
 59.2096  5585.28  75.365
 59.2516  5763.63  76.1497
 59.2936  5734.14  76.2743
 59.3356  5679.98  75.7947
 59.3776  5653.54  75.7815
 59.4196  5635.96  75.6017
 59.4616  5569.4  75.0196
 59.5036  5566.4  75.0319
 59.5456  5873.11  76.7704
 59.5876  5662.09  75.5636
 59.6296  5547.23  74.8596
 59.6716  5664.43  75.7023
 59.7136  5763.92  76.3528
 59.7556  5762.55  76.477
 59.7976  5652.05  75.4909
 59.8396  5549.16  74.6992
 59.8816  5631.3  75.7746
 59.9236  5575.73  75.0595
 59.9656  5656.58  75.8537
 60.0076  5548.77  74.5118
 60.0496  5673.81  75.8351
 60.0916  5754.03  75.8012
 60.1336  5531.16  75.3783
 60.1756  5561.12  76.7183
 60.1996  0.0000000E+00  0.0000000E+00