File: docs/examples/opeando_xrd/IS17_D/Data/IS17_D/17_Db_f00144.xye
# /beamlines/bl04/projects/cycle2025-II/20250340211-lsimonelli/DATA/IS17_D/17_Db_f00144.xye : mythproc.py merge -s 0.006 -l 0.5 -f /beamlines/bl04/inhouse/ff/FlatField/ff_20Nov2024rod8mm60s_17keV.raw -b True -c true -o xye /beamlines/bl04/projects/cycle2025-II/20250340211-lsimonelli/DATA/IS17_D/17_Db_00144.dat
# IsMon = [6756388, 6752499, 6756473]  IsPos = [-1.5000, -2.4884, -3.4989]
# Wave = 0.4962  CalPath /beamlines/bl04/projects/cycle2025-II/20250340211-lsimonelli/DATA/Align/Si_Pos1_25keV_f00001.cal
# Date = 2025-09-25_09:50:36 Dt = 4.8000  Bin = 0.0060  <imon> = 6755120 +/- 1854 (Min/Max) 6752499 / 6756473
# icurr 250.1805  mocoIn 1.7071E-05  mocoOut 0.8008  i15 7.07788e+06  imon 6.75512e+06  i7 4.3333  iEMpd_timer 4.8000  iEMpd_1 3.5116E-08  iEMpd_2 7.8975E-08  iEMpd_3 1.7665E-08  iEMpd_4 4.9050E-08  iEMhp_timer 4.8000  iEMhp_1 4.8867E-06  iEMhp_2 -2.5047E-08  iEMhp_3 -2.3681E-08  iEMhp_4 -2.0961E-08
#      9776
 1.5856  45052.1  217.932
 1.6276  51783.7  229.637
 1.6696  56918.8  239.905
 1.7116  63546.6  253.984
 1.7536  71843.3  268.905
 1.7956  75459.5  276.278
 1.8376  72708.6  271.625
 1.8796  62426.7  249.836
 1.9216  52019.9  228.972
 1.9636  45179.1  213.049
 2.0056  41067.5  201.826
 2.0476  38087.3  196.496
 2.0896  36926.6  192.344
 2.1316  35471.9  187.611
 2.1736  33815  184.63
 2.2156  34504.4  185.006
 2.2576  33240.2  182.237
 2.2996  31795.3  178.885
 2.3416  32455.2  179.288
 2.3836  31272.3  176.1
 2.4256  30908.2  175.643
 2.4676  29978.7  172.736
 2.5096  29782.4  172.226
 2.5516  28876.7  173.496
 2.5936  32112.6  179.313
 2.6356  28049.7  168.284
 2.6776  27934.9  166.823
 2.7196  27565.3  166.208
 2.7616  27701.8  166.409
 2.8036  26994.4  164.436
 2.8456  26908.3  164.818
 2.8876  26088.3  162.161
 2.9296  25804.5  161.396
 2.9716  25789.4  160.834
 3.0136  25423.3  159.756
 3.0556  25572  160.618
 3.0976  25542.8  159.409
 3.1396  25334.1  159.516
 3.1816  24940.9  158.199
 3.2236  24860.1  157.949
 3.2656  24554.2  156.017
 3.3076  24454.4  157.154
 3.3496  24619.4  156.618
 3.3916  25181.3  158.2
 3.4336  25415  159.536
 3.4756  25843.1  160.8
 3.5176  26587.1  162.87
 3.5596  26029.4  164.165
 3.6016  26391.9  162.339
 3.6436  25352.2  160.22
 3.6856  24965.6  157.293
 3.7276  24226.9  156.036
 3.7696  24133  155.696
 3.8116  23752.3  154.58
 3.8536  23777.1  154.58
 3.8956  23872.1  154.717
 3.9376  23572.9  154.015
 3.9796  23536  153.376
 4.0216  23623.9  152.697
 4.0636  23485.4  153.721
 4.1056  23497.2  153.421
 4.1476  24033.6  155.464
 4.1896  23825.7  154.654
 4.2316  23971.8  154.949
 4.2736  24492.8  156.427
 4.3156  24528.4  156.763
 4.3576  25470.7  159.65
 4.3996  25498  160.026
 4.4416  25961.9  161.049
 4.4836  26425.4  162.649
 4.5256  27178.4  165.548
 4.5676  26979.2  165.205
 4.6096  27328.8  165.29
 4.6516  27782.2  165.978
 4.6936  27857  167.034
 4.7356  28214.8  167.929
 4.7776  27940.8  166.943
 4.8196  28038.2  167.875
 4.8616  27156  164.72
 4.9036  27164.9  164.463
 4.9456  26971.8  164.548
 4.9876  26390.5  162.656
 5.0296  26503  162.835
 5.0716  26298.7  162.962
 5.1136  26581.8  163.562
 5.1556  26870.7  163.91
 5.1976  27679.5  166.342
 5.2396  27354.7  165.063
 5.2816  27364.3  165.558
 5.3236  27521.7  165.73
 5.3656  27086  165.35
 5.4076  26814.3  164.657
 5.4496  27000.9  164.73
 5.4916  27110.1  164.806
 5.5336  26924.7  164.337
 5.5756  27150.5  164.944
 5.6176  27331.1  164.943
 5.6596  27546.8  166.415
 5.7016  27567.9  165.896
 5.7436  27591  165.866
 5.7856  27519.7  166.105
 5.8276  27773.2  166.582
 5.8696  28172.7  167.827
 5.9116  27855.7  167.607
 5.9536  28213.4  168.411
 5.9956  28468.2  168.561
 6.0376  28612.3  169.607
 6.0796  28560.3  169.282
 6.1216  28514.3  169.354
 6.1636  28860.9  169.428
 6.2056  28754.7  169.802
 6.2476  29205.4  170.798
 6.2896  29260.8  170.828
 6.3316  29146.7  170.663
 6.3736  29038.8  170.244
 6.4156  29067  170.267
 6.4576  29373.8  170.729
 6.4996  29390.1  171.26
 6.5416  29432.6  171.507
 6.5836  29532.5  171.898
 6.6256  29463.5  171.395
 6.6676  30046.7  172.644
 6.7096  30124.5  173.727
 6.7516  30290  173.869
 6.7936  30686.2  174.399
 6.8356  30667  174.443
 6.8776  30718.6  175.401
 6.9196  31079.9  176.827
 6.9616  31306.8  176.919
 7.0036  31665.3  177.574
 7.0456  31648.1  176.825
 7.0876  31956.1  179.287
 7.1296  31699.8  177.789
 7.1716  31635.8  177.147
 7.2136  31418.6  176.327
 7.2556  31675.2  177.193
 7.2976  31542.7  177.328
 7.3396  31356.8  177.023
 7.3816  31397.9  177.344
 7.4236  31968.3  178.245
 7.4656  32031.6  177.88
 7.5076  32152.8  178.371
 7.5496  32111  178.789
 7.5916  32360.6  179.53
 7.6336  32771.4  180.633
 7.6756  32778.2  180.411
 7.7176  33364.3  182.35
 7.7596  33066.4  182.765
 7.8016  33791.7  186.997
 7.8436  33334.7  182.548
 7.8856  33280  181.865
 7.9276  33897.6  183.935
 7.9696  34214.5  185.11
 8.0116  34905  185.523
 8.0536  35240.8  186.656
 8.0956  35633.1  188.884
 8.1376  35845  188.912
 8.1796  36056  190.011
 8.2216  36793.2  190.392
 8.2636  36879.5  191.151
 8.3056  36586.9  191.146
 8.3476  37369  192.513
 8.3896  37202.8  192.165
 8.4316  37245.4  192.443
 8.4736  37547.2  192.694
 8.5156  37068  191.734
 8.5576  36802.3  192.016
 8.5996  36801.6  190.89
 8.6416  36585.1  191.589
 8.6836  36021.6  189.925
 8.7256  37062.7  192.109
 8.7676  36932.9  194.677
 8.8096  37659.9  193.841
 8.8516  37613  193.336
 8.8936  36849  191.265
 8.9356  36965.5  191.898
 8.9776  36641.6  191.138
 9.0196  37037.2  191.838
 9.0616  36217.7  189.261
 9.1036  36632.2  191.46
 9.1456  36013  189.17
 9.1876  36348.6  189.984
 9.2296  35899.2  188.252
 9.2716  35809.8  188.04
 9.3136  36095.5  188.798
 9.3556  35889  188.226
 9.3976  35320.2  187.241
 9.4396  35089.1  186.551
 9.4816  35077.1  186.371
 9.5236  34632.9  185.082
 9.5656  34439.4  184.926
 9.6076  33893.8  183.982
 9.6496  34012.4  184.185
 9.6916  33752.3  183.426
 9.7336  33710.2  183.104
 9.7756  33779.6  184.439
 9.8176  33636.2  183.703
 9.8596  33558.9  181.924
 9.9016  33159.9  180.834
 9.9436  32673.7  179.252
 9.9856  32759.6  179.926
 10.0276  32357.9  179.903
 10.0696  32511.7  179.36
 10.1116  31467.6  176.723
 10.1536  31463.7  176.357
 10.1956  31012.9  175.203
 10.2376  31124.1  175.008
 10.2796  30932.7  174.597
 10.3216  30510.5  173.532
 10.3636  30658.2  174.137
 10.4056  29876.6  172.313
 10.4476  30263.1  173.01
 10.4896  30429.3  172.93
 10.5316  30492.9  173.493
 10.5736  29559.1  171.596
 10.6156  29591.1  171.429
 10.6576  29856.6  170.748
 10.6996  29046.5  169.121
 10.7416  29024.1  169.271
 10.7836  28254.5  167.681
 10.8256  27748.2  166.607
 10.8676  27971.1  166.814
 10.9096  27740.2  166.144
 10.9516  27430  164.151
 10.9936  27469  164.477
 11.0356  27363.7  164.789
 11.0776  27429.6  164.307
 11.1196  27139.1  164.205
 11.1616  26618.2  162.301
 11.2036  26677.8  162.314
 11.2456  26816.5  163.469
 11.2876  27037.7  163.837
 11.3296  26643.5  162.565
 11.3716  26693  162.438
 11.4136  26783.1  163.57
 11.4556  26964.2  163.772
 11.4976  27630.4  164.756
 11.5396  27469.7  164.458
 11.5816  27063.7  163.658
 11.6236  26366.6  161.802
 11.6656  26497.3  161.324
 11.7076  25504  159.109
 11.7496  25247.9  161.498
 11.7916  25265.2  157.618
 11.8336  24818.5  157.112
 11.8756  24938.1  157.037
 11.9176  24901.1  156.6
 11.9596  24985  157.026
 12.0016  24509.1  156.297
 12.0436  24602.2  156.039
 12.0856  24228.6  155.342
 12.1276  24302.8  155.427
 12.1696  24285  154.596
 12.2116  24344  154.786
 12.2536  24589.9  156.352
 12.2956  24136  154.171
 12.3376  24308.5  155.032
 12.3796  24227.4  155.268
 12.4216  24367.3  154.903
 12.4636  23995.1  154.655
 12.5056  23927  153.766
 12.5476  24177.8  154.011
 12.5896  23815.7  153.502
 12.6316  23924.8  153.997
 12.6736  23762.8  153.967
 12.7156  24045.1  154.707
 12.7576  23788.7  154.145
 12.7996  24034.8  153.581
 12.8416  23944.3  154.334
 12.8836  24048.7  154.519
 12.9256  24443.8  154.806
 12.9676  24445.8  155.212
 13.0096  24571.3  156.729
 13.0516  24653.5  156.021
 13.0936  24549.7  155.821
 13.1356  24814.8  155.901
 13.1776  24489.8  155.897
 13.2196  24478.8  155.503
 13.2616  24237.2  155.053
 13.3036  24763  156.849
 13.3456  24323.5  155.82
 13.3876  24840.6  156.542
 13.4296  24426.8  155.4
 13.4716  24580.2  155.517
 13.5136  24731.5  156.127
 13.5556  24498  155.745
 13.5976  24752.4  157.002
 13.6396  24583.4  155.824
 13.6816  24813.8  156.896
 13.7236  24982.4  157.126
 13.7656  26592  162.571
 13.8076  27343.4  163.512
 13.8496  26152.1  160.789
 13.8916  24788.2  157.467
 13.9336  24166.9  154.752
 13.9756  24196.9  154.223
 14.0176  24020  154.244
 14.0596  23948.8  154.02
 14.1016  23829  154.079
 14.1436  23874.2  153.338
 14.1856  23278.3  151.717
 14.2276  23154.2  151.745
 14.2696  23347.9  152.278
 14.3116  22724.9  150.145
 14.3536  22462.2  149.433
 14.3956  22434.6  149.083
 14.4376  22712.3  149.776
 14.4796  22706.4  149.752
 14.5216  22185.2  148.808
 14.5636  22039.4  147.896
 14.6056  22342.3  148.466
 14.6476  22090.2  146.868
 14.6896  21852.5  146.617
 14.7316  21574.2  146.722
 14.7736  21233.8  144.71
 14.8156  21119.2  144.332
 14.8576  21038.7  143.916
 14.8996  20740.2  144.084
 14.9416  20388.2  142.873
 14.9836  20264.2  142.422
 15.0256  19933.3  140.18
 15.0676  19720.4  139.653
 15.1096  19667.3  139.289
 15.1516  19362.7  138.767
 15.1936  19345.2  138.129
 15.2356  19093.9  137.506
 15.2776  18861  136.668
 15.3196  18703.2  136.674
 15.3616  18620.2  136.124
 15.4036  18451.5  135.379
 15.4456  18782.4  136.232
 15.4876  18392.3  134.497
 15.5296  18271.6  134.346
 15.5716  17945.1  132.741
 15.6136  18023.3  133.358
 15.6556  18073.3  133.145
 15.6976  17929.1  132.553
 15.7396  17702  132.08
 15.7816  17666.7  131.473
 15.8236  17563.3  131.72
 15.8656  17388.9  130.916
 15.9076  17163.9  129.89
 15.9496  18008.2  135.858
 15.9916  17815.1  135.526
 16.0336  17688.6  131.911
 16.0756  17609.4  131.947
 16.1176  17461.7  131.304
 16.1596  17178.2  131.576
 16.2016  16941.7  129.43
 16.2436  17089.1  130.373
 16.2856  16964.5  129.402
 16.3276  16670  128.719
 16.3696  16961.1  129.665
 16.4116  16865.7  129.743
 16.4536  16888.8  129.64
 16.4956  17001.1  129.802
 16.5376  16699.2  128.834
 16.5796  16623.1  127.904
 16.6216  16673.8  128.339
 16.6636  16387  127.444
 16.7056  16430.2  127.473
 16.7476  16744.9  128.21
 16.7896  16630.2  128.52
 16.8316  16650.9  128.587
 16.8736  16663.5  128.878
 16.9156  16577.2  128.882
 16.9576  16287.9  128.569
 16.9996  16426.1  129.578
 17.0416  16471.1  128.148
 17.0836  16488.2  127.966
 17.1256  16293.9  127.21
 17.1676  16370.6  127.48
 17.2096  16082.1  126.242
 17.2516  16207.3  126.82
 17.2936  15802.5  125.278
 17.3356  15813.8  125.304
 17.3776  15766.9  125.307
 17.4196  15688.4  124.705
 17.4616  15706  124.68
 17.5036  15295.4  123.405
 17.5456  15375.5  124.37
 17.5876  15495.1  123.876
 17.6296  15650.9  124.305
 17.6716  15434  124.052
 17.7136  15403.7  124.057
 17.7556  15323.9  124.034
 17.7976  15082.8  122.78
 17.8396  15192.5  122.734
 17.8816  15088.2  122.886
 17.9236  15108.9  122.751
 17.9656  14950.8  122.642
 18.0076  15021.2  122.499
 18.0496  14912.8  121.194
 18.0916  15199.9  122.819
 18.1336  15083.1  122.539
 18.1756  15109.6  122.189
 18.2176  14927.5  121.663
 18.2596  14849.8  121.08
 18.3016  14958  121.776
 18.3436  14953  121.765
 18.3856  14810.8  121.501
 18.4276  14793.2  120.924
 18.4696  14671  120.506
 18.5116  14822.7  121.401
 18.5536  14741.2  121.438
 18.5956  14362.7  119.431
 18.6376  14458  120.234
 18.6796  14498.9  119.713
 18.7216  14450.6  120.012
 18.7636  14513.6  120.265
 18.8056  14278.3  119.22
 18.8476  14114.9  119.16
 18.8896  14316  119.341
 18.9316  14376.2  119.566
 18.9736  14229.3  118.648
 19.0156  14280.7  119.297
 19.0576  14354.7  118.435
 19.0996  14370.1  119.225
 19.1416  14201.1  118.914
 19.1836  14117.4  118.172
 19.2256  13957.9  117.808
 19.2676  14241.6  118.998
 19.3096  14077.2  118.561
 19.3516  14231.7  118.969
 19.3936  14000.1  118.085
 19.4356  14246.9  118.989
 19.4776  13977.2  117.952
 19.5196  14055.7  118.14
 19.5616  14008.4  118.203
 19.6036  13983.5  117.59
 19.6456  14133.9  118.344
 19.6876  14063.3  117.689
 19.7296  14167.7  118.578
 19.7716  14018.3  118.133
 19.8136  14401.9  119.924
 19.8556  14468.3  119.686
 19.8976  14374.6  119.356
 19.9396  14596.7  119.858
 19.9816  14679.9  120.453
 20.0236  14926.6  121.653
 20.0656  14541.4  120.082
 20.1076  14396.1  119.953
 20.1496  14023  118.388
 20.1916  13895.1  117.326
 20.2336  13806.2  116.912
 20.2756  13680.6  116.811
 20.3176  13590  116.179
 20.3596  13478  115.682
 20.4016  13554.2  115.81
 20.4436  13533.6  116.182
 20.4856  13557.7  116.172
 20.5276  13398.6  115.956
 20.5696  13292.8  115.05
 20.6116  13336.6  115.418
 20.6536  13441  115.346
 20.6956  13385.5  115.264
 20.7376  13044.4  114.004
 20.7796  13182.8  114.297
 20.8216  13301.2  114.523
 20.8636  13253.9  114.689
 20.9056  13320.6  114.922
 20.9476  13254.1  114.47
 20.9896  13420.9  115.052
 21.0316  13118.5  113.652
 21.0736  13182.9  114.453
 21.1156  13035  113.971
 21.1576  13233  114.867
 21.1996  13118.8  114.362
 21.2416  13057.4  113.908
 21.2836  13236.3  114.668
 21.3256  12928.9  113.447
 21.3676  12941.6  112.991
 21.4096  12985.1  113.565
 21.4516  12888.3  112.96
 21.4936  12650.5  112.177
 21.5356  13065.4  113.938
 21.5776  12956.3  113.304
 21.6196  12847.1  112.862
 21.6616  12913.7  113.241
 21.7036  12819.4  112.588
 21.7456  13060.3  113.723
 21.7876  12811.1  112.398
 21.8296  12680.8  111.673
 21.8716  12886  112.795
 21.9136  12966.1  113.357
 21.9556  12671.7  111.729
 21.9976  12630.3  111.582
 22.0396  12690.8  112.102
 22.0816  12549.6  112
 22.1236  12678.9  112.041
 22.1656  12696.7  112.616
 22.2076  12506.9  110.879
 22.2496  12580.2  111.239
 22.2916  12488.2  110.717
 22.3336  12491.8  111.453
 22.3756  12459.9  111.028
 22.4176  12349.3  110.389
 22.4596  12227.9  110.425
 22.5016  12367.8  110.569
 22.5436  12559.2  111.408
 22.5856  12517.5  111.353
 22.6276  12690  112.256
 22.6696  12469.5  111.627
 22.7116  12476.8  111.174
 22.7536  12646.9  111.904
 22.7956  12409  110.19
 22.8376  12339.4  110.385
 22.8796  12280.8  109.931
 22.9216  12439.6  111.178
 22.9636  12484  110.536
 23.0056  12351.6  110.076
 23.0476  12506  111.339
 23.0896  12735.4  111.729
 23.1316  12428.4  110.805
 23.1736  12690.9  114.927
 23.2156  12635.5  112.041
 23.2576  12931.4  113.472
 23.2996  12452.9  111.137
 23.3416  12915.1  113.706
 23.3836  12561.9  111.374
 23.4256  12881.4  112.906
 23.4676  12824  112.34
 23.5096  12653.4  112.257
 23.5516  12540.7  111.05
 23.5936  12670.6  112.543
 23.6356  12897.9  113.208
 23.6776  12543.3  111.85
 23.7196  12588.7  111.842
 23.7616  12503  111.164
 23.8036  12728.2  112.213
 23.8456  12637.9  111.222
 23.8876  12467.5  110.964
 23.9296  12375.4  111.041
 23.9716  12448.2  110.576
 24.0136  12520.2  111.806
 24.0556  12246.9  110.284
 24.0976  12279.1  110.254
 24.1396  12171.2  112.412
 24.1816  12288.9  111.353
 24.2236  12216.8  110.651
 24.2656  12017.5  109.219
 24.3076  12089.6  109.823
 24.3496  12083.6  109.68
 24.3916  12200  110.253
 24.4336  11903.4  109.103
 24.4756  12070.9  109.756
 24.5176  11984.2  108.977
 24.5596  11968.7  109.24
 24.6016  11964  109.313
 24.6436  12023.9  109.086
 24.6856  11921.2  108.37
 24.7276  11840.2  108.33
 24.7696  11738.5  107.962
 24.8116  11511.1  107.094
 24.8536  11672.2  107.847
 24.8956  11574.2  107.12
 24.9376  11612.7  107.47
 24.9796  11547.3  107.291
 25.0216  11481.8  107.089
 25.0636  11487.4  106.777
 25.1056  11174.2  106.007
 25.1476  11289.1  108.2
 25.1896  11374.2  107.1
 25.2316  11342  106.206
 25.2736  11225.8  105.323
 25.3156  11203.9  105.289
 25.3576  11226.1  105.828
 25.3996  11248.4  105.918
 25.4416  11113.3  105.258
 25.4836  11132.3  105.86
 25.5256  11103.4  105.092
 25.5676  11089.9  104.766
 25.6096  11042  105.111
 25.6516  11108.8  104.934
 25.6936  11014.7  104.789
 25.7356  11090.6  105.294
 25.7776  11072.2  104.879
 25.8196  10957.4  104.501
 25.8616  10852.4  103.925
 25.9036  11168.5  104.874
 25.9456  10943  104.423
 25.9876  11032.4  104.753
 26.0296  11060.9  104.559
 26.0716  11038.4  104.873
 26.1136  11003.5  104.646
 26.1556  11065.3  104.311
 26.1976  10871.5  104.318
 26.2396  10986.8  104.032
 26.2816  10933  104.382
 26.3236  10938.8  104.574
 26.3656  11177.4  105.412
 26.4076  10851.9  104.074
 26.4496  10980.5  104.281
 26.4916  11244.4  105.425
 26.5336  11153.5  105.417
 26.5756  11590.4  107.255
 26.6176  11073.2  104.869
 26.6596  10891.2  104.306
 26.7016  10771.1  103.496
 26.7436  10862  104.06
 26.7856  10588.1  102.727
 26.8276  10736.1  103.408
 26.8696  10754.9  103.368
 26.9116  10558.2  102.357
 26.9536  10623.5  102.718
 26.9956  10485.1  102.088
 27.0376  10551.8  102.625
 27.0796  10515.2  102.184
 27.1216  10581.9  102.561
 27.1636  10395.6  101.82
 27.2056  10397.7  101.713
 27.2476  10486.6  102.136
 27.2896  10398.2  101.836
 27.3316  10477.1  101.935
 27.3736  10304.4  101.362
 27.4156  10410.4  101.704
 27.4576  10386.7  101.823
 27.4996  10437.1  101.666
 27.5416  10344.6  101.525
 27.5836  10275.9  101.03
 27.6256  10330.8  101.478
 27.6676  10257.7  101.11
 27.7096  10473.6  102.046
 27.7516  10234.3  100.94
 27.7936  10554.1  102.732
 27.8356  10545.8  102.299
 27.8776  10619.3  102.718
 27.9196  10199.8  100.532
 27.9616  10140.2  100.435
 28.0036  10249.5  100.938
 28.0456  10007  99.8773
 28.0876  10094.5  100.401
 28.1296  10105.4  100.277
 28.1716  10161.2  100.576
 28.2136  10241.2  100.943
 28.2556  10164.4  100.674
 28.2976  10045.9  100.082
 28.3396  9977.76  99.4981
 28.3816  10027.6  99.7533
 28.4236  9932.86  99.4476
 28.4656  9887.04  99.2546
 28.5076  9899.47  98.9523
 28.5496  9956.46  99.4947
 28.5916  10056.6  99.8046
 28.6336  9934.94  99.5364
 28.6756  9976.55  98.9454
 28.7176  9903.83  99.1414
 28.7596  9822.23  98.6256
 28.8016  9803.04  98.5697
 28.8436  9725.53  98.4129
 28.8856  9997.91  99.635
 28.9276  9829.51  99.0334
 28.9696  9794.16  98.5165
 29.0116  9649.1  97.958
 29.0536  9695.44  98.4107
 29.0956  9754.88  98.3974
 29.1376  9699.41  98.1056
 29.1796  9710.93  98.2103
 29.2216  9758.38  98.2914
 29.2636  9786.37  98.5043
 29.3056  9789.31  98.2984
 29.3476  9689.41  98.3273
 29.3896  9712.89  98.5552
 29.4316  9610.74  97.3792
 29.4736  9460.05  96.6664
 29.5156  9609.75  97.3588
 29.5576  9620.51  98.1567
 29.5996  9528.59  96.9406
 29.6416  9485.59  96.8408
 29.6836  9513.52  96.9134
 29.7256  9402.35  96.9031
 29.7676  9350.13  96.297
 29.8096  9425.85  96.6341
 29.8516  9170.76  95.641
 29.8936  9415.9  97.0061
 29.9356  9509.48  97.2423
 29.9776  9219.1  95.8916
 30.0196  9382.46  96.134
 30.0616  9409.14  96.6443
 30.1036  9364.61  96.2458
 30.1456  9289.05  96.0788
 30.1876  9200.29  95.6077
 30.2296  9292.4  96.0246
 30.2716  9391.73  96.1796
 30.3136  9347.53  96.8053
 30.3556  9629.04  98.2496
 30.3976  9475.24  98.956
 30.4396  9846.26  98.1739
 30.4816  9658.92  96.8427
 30.5236  9578.34  96.4501
 30.5656  9658.21  97.5081
 30.6076  9521.73  96.564
 30.6496  9635.8  97.2147
 30.6916  9452.89  96.3796
 30.7336  9586.12  97.1955
 30.7756  9653.94  97.6265
 30.8176  9637.36  97.4632
 30.8596  9497.72  96.5214
 30.9016  9563.59  96.7197
 30.9436  9615.39  97.2088
 30.9856  9570.1  97.0912
 31.0276  9409.09  95.9084
 31.0696  9369.18  96.2623
 31.1116  9365.35  96.2012
 31.1536  9306.22  95.7977
 31.1956  9303.83  95.8647
 31.2376  9176.76  95.2345
 31.2796  9297.98  95.4009
 31.3216  9340.54  95.5267
 31.3636  9472.56  96.9355
 31.4056  9248.78  97.0786
 31.4476  9355.53  95.5487
 31.4896  9367.9  96.1138
 31.5316  9350.59  95.4356
 31.5736  9578.13  96.4151
 31.6156  9397.68  95.5051
 31.6576  9458.34  95.9003
 31.6996  9487.74  95.7096
 31.7416  9474.61  96.5954
 31.7836  9372.99  95.2171
 31.8256  9456.07  95.8942
 31.8676  9351.1  95.3728
 31.9096  9240.19  95.0258
 31.9516  9128.72  94.7614
 31.9936  9208.14  95.0012
 32.0356  9214.84  95.0808
 32.0776  9396.84  95.9004
 32.1196  9470.42  96.2885
 32.1616  9412.97  95.5402
 32.2036  9297.63  95.4618
 32.2456  9284.47  95.7818
 32.2876  9434.87  96.0412
 32.3296  9047.43  94.0144
 32.3716  9005.2  93.908
 32.4136  8955.46  93.8407
 32.4556  9147.87  94.2311
 32.4976  9218.53  94.5462
 32.5396  8972.3  93.293
 32.5816  9173.06  94.4606
 32.6236  9114.26  94.2199
 32.6656  9184.79  95.1329
 32.7076  8967.17  93.6579
 32.7496  8999.38  93.5001
 32.7916  9102.81  93.9911
 32.8336  9044.61  93.7896
 32.8756  9106.96  93.8228
 32.9176  8920.27  93.3485
 32.9596  8919.13  93.4042
 33.0016  9011.69  93.6633
 33.0436  9192.75  94.5072
 33.0856  8861.71  93.1516
 33.1276  8842.21  92.7773
 33.1696  8944.95  93.1429
 33.2116  8952.53  93.4259
 33.2536  9084.3  94.0956
 33.2956  9034.21  93.9239
 33.3376  8788.63  92.4692
 33.3796  9013.99  93.7755
 33.4216  8970.19  93.1358
 33.4636  8834.54  92.5855
 33.5056  8745.69  92.3678
 33.5476  8796.37  92.6087
 33.5896  8961.33  93.2665
 33.6316  8897.25  93.237
 33.6736  8762.83  92.7786
 33.7156  8701.97  92.2142
 33.7576  8857.89  92.9516
 33.7996  8912.21  92.9957
 33.8416  8616.58  91.6291
 33.8836  8711.25  92.0469
 33.9256  8928.95  93.0984
 33.9676  8866.41  92.6747
 34.0096  8814.36  92.7172
 34.0516  8780.08  92.1691
 34.0936  8625.41  91.5331
 34.1356  8666.87  91.5856
 34.1776  8687.71  91.7036
 34.2196  8741.62  92.1673
 34.2616  8613.63  91.6303
 34.3036  8692.99  92.2898
 34.3456  8536.78  91.2062
 34.3876  8689.77  92.0886
 34.4296  8697.25  91.7302
 34.4716  8617.29  91.4056
 34.5136  8683.37  91.9996
 34.5556  8515.68  91.3623
 34.5976  8722.92  92.3048
 34.6396  8671.74  91.7136
 34.6816  8622.26  91.5571
 34.7236  8605.48  91.2417
 34.7656  8698.23  91.9515
 34.8076  8581.8  91.6657
 34.8496  8566.29  91.4329
 34.8916  8694  91.9681
 34.9336  8595.76  91.4344
 34.9756  8831.41  92.6169
 35.0176  8604.37  91.929
 35.0596  8737.61  92.4536
 35.1016  8643.9  91.7108
 35.1436  8781.99  92.1221
 35.1856  8602.12  91.2949
 35.2276  8458.48  90.7183
 35.2696  8633.89  91.8346
 35.3116  8500.58  91.2305
 35.3536  8487.35  90.8907
 35.3956  8512.67  90.7121
 35.4376  8565.93  91.5582
 35.4796  8486.95  91.1831
 35.5216  8473.8  91.0699
 35.5636  8380.23  91.3047
 35.6056  8457.33  90.7534
 35.6476  8441.71  90.5631
 35.6896  8520.44  91.0857
 35.7316  8416.52  90.4965
 35.7736  8427.7  90.7409
 35.8156  8423.38  90.7225
 35.8576  8618.09  92.0187
 35.8996  8476.82  91.2261
 35.9416  8462.95  90.6568
 35.9836  8380.53  90.6679
 36.0256  8581.89  91.6528
 36.0676  8599.22  91.5045
 36.1096  8493.42  91.0753
 36.1516  8587.64  91.4771
 36.1936  8500.74  90.8546
 36.2356  8431.01  91.1343
 36.2776  8443.82  90.6574
 36.3196  8282.45  89.4724
 36.3616  8431.54  90.3484
 36.4036  8442.23  90.5356
 36.4456  8371.84  90.357
 36.4876  8302.18  89.9295
 36.5296  8389.14  90.4384
 36.5716  8239.05  90.1633
 36.6136  8363.64  89.8664
 36.6556  8221.22  89.2906
 36.6976  8224.27  89.807
 36.7396  8154.92  89.1547
 36.7816  7981.55  88.5745
 36.8236  8222.07  89.8278
 36.8656  8173.55  89.6298
 36.9076  8140.42  89.3271
 36.9496  8122.46  89.213
 36.9916  8055.02  88.4771
 37.0336  8226.66  89.7273
 37.0756  8332.33  90.0957
 37.1176  7960.09  88.3253
 37.1596  8141.02  89.328
 37.2016  8107.78  89.3697
 37.2436  8132.27  88.8209
 37.2856  8013.66  88.4239
 37.3276  8106.4  88.4569
 37.3696  7991.49  88.5463
 37.4116  8169.5  89.4252
 37.4536  7964.21  88.161
 37.4956  7901.19  88.0645
 37.5376  8224.47  91.2312
 37.5796  8185.91  90.9445
 37.6216  7983.1  88.0817
 37.6636  8199.53  89.1576
 37.7056  8131.29  88.9712
 37.7476  8226.81  89.0303
 37.7896  7987.46  88.2375
 37.8316  8000.55  88.4584
 37.8736  8127.24  88.6808
 37.9156  8069.21  88.3671
 37.9576  8028.06  88.051
 37.9996  7873.83  86.916
 38.0416  8056.28  88.7165
 38.0836  8293.66  89.9244
 38.1256  8220.77  89.5018
 38.1676  7829.86  87.4694
 38.2096  8216.29  89.1993
 38.2516  8094.07  88.7598
 38.2936  8146.66  88.8426
 38.3356  8103.86  88.5448
 38.3776  8006.27  88.2594
 38.4196  8127.09  88.773
 38.4616  7971.86  88.1656
 38.5036  8077.16  88.5943
 38.5456  8026.07  89.147
 38.5876  7973.72  88.8977
 38.6296  8044.93  88.2325
 38.6716  8039.78  88.0285
 38.7136  8119.82  88.4085
 38.7556  8078.34  88.6869
 38.7976  8052.9  88.4798
 38.8396  7947.31  88.361
 38.8816  7906.36  87.9206
 38.9236  7992.23  88.1976
 38.9656  8103.58  88.7182
 39.0076  8037.63  87.7553
 39.0496  8118.89  88.7512
 39.0916  7885.69  87.1208
 39.1336  8033.64  88.3428
 39.1756  7980.82  88.1191
 39.2176  8010.63  88.8267
 39.2596  7994.28  88.6457
 39.3016  8038.82  88.4818
 39.3436  7893.55  88.0877
 39.3856  8051.04  88.4105
 39.4276  8132.73  89.3596
 39.4696  7954.62  87.9976
 39.5116  8081.84  89.216
 39.5536  7961.34  88.9697
 39.5956  7928.78  87.9
 39.6376  7808.91  87.2261
 39.6796  7943.3  87.7216
 39.7216  7932.98  87.7568
 39.7636  7989.89  88.6437
 39.8056  7974.29  88.3366
 39.8476  7838.94  87.8377
 39.8896  7997.7  88.3499
 39.9316  7953.78  88.363
 39.9736  7981.83  88.0934
 40.0156  7883.97  87.3794
 40.0576  7864.94  87.629
 40.0996  8073.3  87.9535
 40.1416  7912.26  87.8646
 40.1836  8011.89  88.3019
 40.2256  8004.25  88.3014
 40.2676  7865.61  87.7012
 40.3096  7930.41  87.9264
 40.3516  7999.85  88.4085
 40.3936  8139.23  88.7244
 40.4356  7848.38  87.3436
 40.4776  8067.79  88.7897
 40.5196  7978.98  88.5905
 40.5616  8075.47  88.7651
 40.6036  7896.7  88.0417
 40.6456  7979.75  88.1098
 40.6876  7991.73  88.1625
 40.7296  8008.94  88.3985
 40.7716  7986.02  88.3882
 40.8136  7889.35  87.8072
 40.8556  8121.83  89.2151
 40.8976  7988.94  88.4081
 40.9396  8013.75  88.8886
 40.9816  7989.38  88.0522
 41.0236  7979.73  87.7746
 41.0656  8057.82  88.7431
 41.1076  7934.73  87.8389
 41.1496  8024.44  88.2341
 41.1916  8030.55  88.6013
 41.2336  8047.38  88.6838
 41.2756  8058.85  88.3479
 41.3176  7995.69  88.6103
 41.3596  7967.45  88.1958
 41.4016  7895.25  88.0478
 41.4436  8061.13  88.7514
 41.4856  7950.94  88.318
 41.5276  7929.8  88.2117
 41.5696  7925.64  87.8226
 41.6116  7991.58  88.5684
 41.6536  7956.26  88.2289
 41.6956  8073.61  88.8653
 41.7376  7932.35  88.1845
 41.7796  7877.75  87.7712
 41.8216  7944.91  88.3571
 41.8636  7857.17  87.8363
 41.9056  7924.2  87.9984
 41.9476  8027.45  88.8024
 41.9896  7986.5  88.2406
 42.0316  8004.32  88.4274
 42.0736  8020.33  88.6345
 42.1156  7995.62  88.3128
 42.1576  7885.32  87.8145
 42.1996  8102  89.1335
 42.2416  8070.9  88.4668
 42.2836  7966.48  88.0904
 42.3256  7913.05  87.9081
 42.3676  8086.09  88.6515
 42.4096  7903.13  87.6286
 42.4516  7867.62  87.567
 42.4936  7810.8  87.2644
 42.5356  7840.32  87.5759
 42.5776  7933.55  88.0246
 42.6196  8008.11  88.4969
 42.6616  7688.09  86.8742
 42.7036  7944.88  87.6947
 42.7456  7943.99  88.0388
 42.7876  7937.75  88.0984
 42.8296  7893.83  87.6975
 42.8716  7756.57  87.0957
 42.9136  7736.89  86.7361
 42.9556  7942.89  88.0592
 42.9976  7848.02  87.4969
 43.0396  7928.91  87.6748
 43.0816  7864.89  87.7045
 43.1236  7746.57  87.087
 43.1656  7902.36  87.785
 43.2076  7855.63  87.6318
 43.2496  7846.69  87.4067
 43.2916  7785.15  87.4263
 43.3336  7796.9  87.3219
 43.3756  7842.31  87.3331
 43.4176  7806.25  87.2105
 43.4596  7775.42  86.8943
 43.5016  7848.21  87.7024
 43.5436  7780.3  87.2362
 43.5856  7759.05  87.1438
 43.6276  7852.7  87.5591
 43.6696  7879.96  87.9191
 43.7116  7831.46  87.1906
 43.7536  7836.35  87.7197
 43.7956  7618.9  87.6873
 43.8376  7568.38  85.946
 43.8796  7603.75  86.2258
 43.9216  7620.71  86.2283
 43.9636  7705.07  86.8248
 44.0056  7605.71  86.4964
 44.0476  7485.8  85.5613
 44.0896  7608  86.4818
 44.1316  7657.23  86.2836
 44.1736  7578.51  85.9558
 44.2156  7563.36  85.7335
 44.2576  7546.79  85.9608
 44.2996  7606.24  86.2772
 44.3416  7667.58  86.3697
 44.3836  7352.74  84.9107
 44.4256  7449.04  85.1057
 44.4676  7411.22  85.0486
 44.5096  7563.18  86.0587
 44.5516  7588.1  86.1656
 44.5936  7483.16  85.5207
 44.6356  7506.91  85.3945
 44.6776  7567.79  86.0648
 44.7196  7554.22  86.2866
 44.7616  7638.19  88.1008
 44.8036  7634.23  86.6862
 44.8456  7702.46  87.0731
 44.8876  7879.04  88.011
 44.9296  7798.82  86.8961
 44.9716  7665.8  86.5779
 45.0136  7648.79  86.4229
 45.0556  7633.64  86.4313
 45.0976  7740.77  87.0759
 45.1396  7574.43  85.8716
 45.1816  7636.15  86.1903
 45.2236  7661.4  86.2345
 45.2656  7519.65  85.9286
 45.3076  7459.52  85.3479
 45.3496  7524.52  86.0532
 45.3916  7585.42  86.6692
 45.4336  7659.71  86.9311
 45.4756  7450.11  85.5878
 45.5176  7694.81  86.5958
 45.5596  7659.72  86.5235
 45.6016  7405.65  85.4941
 45.6436  7629.67  85.939
 45.6856  7503.84  85.8913
 45.7276  7432.25  86.7995
 45.7696  7563.48  87.2378
 45.8116  7474.03  86.1628
 45.8536  7479.62  86.0857
 45.8956  7622.83  86.2486
 45.9376  7632.18  85.7611
 45.9796  7571.55  86.1077
 46.0216  7556.6  86.3549
 46.0636  7736.81  86.5088
 46.1056  7543.37  85.4217
 46.1476  7503.15  85.7876
 46.1896  7562.77  86.2771
 46.2316  7631.67  86.5418
 46.2736  7649.8  86.8497
 46.3156  7573.82  86.1684
 46.3576  7456.46  85.6919
 46.3996  7471.47  85.9365
 46.4416  7556.69  85.9857
 46.4836  7480.46  85.9304
 46.5256  7491.05  85.93
 46.5676  7439.14  85.7482
 46.6096  7595.27  86.578
 46.6516  7650.19  85.8996
 46.6936  7623.54  86.264
 46.7356  7604.23  86.2343
 46.7776  7479.74  86.4673
 46.8196  7426.67  85.8327
 46.8616  7380.76  85.3673
 46.9036  7367.58  84.949
 46.9456  7447.01  85.0334
 46.9876  7462.77  85.2128
 47.0296  7498.22  86.0239
 47.0716  7396.04  85.3487
 47.1136  7417.46  85.1441
 47.1556  7369.97  84.7431
 47.1976  7396.47  85.0406
 47.2396  7437.63  85.6136
 47.2816  7410.11  85.1568
 47.3236  7373.1  85.3089
 47.3656  7503.85  85.9954
 47.4076  7455.18  85.431
 47.4496  7516.85  85.9663
 47.4916  7395.94  85.4528
 47.5336  7441.16  85.5371
 47.5756  7444.01  85.6716
 47.6176  7432.77  85.4946
 47.6596  7437.66  85.2394
 47.7016  7520.56  85.5296
 47.7436  7415.28  85.2763
 47.7856  7563.63  86.1448
 47.8276  7414.92  85.3467
 47.8696  7392.83  85.2956
 47.9116  7436.65  85.2629
 47.9536  7467.63  85.3791
 47.9956  7370.23  85.5421
 48.0376  7256.73  84.6532
 48.0796  7513.69  86.2656
 48.1216  7334.27  85.0538
 48.1636  7548.49  85.8445
 48.2056  7444.46  85.524
 48.2476  7450.49  85.8474
 48.2896  7467.61  85.8781
 48.3316  7409.65  85.482
 48.3736  7345.52  85.1332
 48.4156  7547.97  86.2669
 48.4576  7409.44  85.6552
 48.4996  7499.54  85.6204
 48.5416  7444.96  85.6336
 48.5836  7356.49  84.7998
 48.6256  7474.36  85.6852
 48.6676  7436.55  85.9936
 48.7096  7462.94  85.4018
 48.7516  7364.5  84.9894
 48.7936  7337.53  84.9979
 48.8356  7357.38  85.0593
 48.8776  7445.71  86.1559
 48.9196  7516.99  85.9141
 48.9616  7320.32  85.1632
 49.0036  7474.99  86.4209
 49.0456  7290.14  85.3264
 49.0876  7371.26  85.3279
 49.1296  7204.07  84.5213
 49.1716  7202.24  84.6102
 49.2136  7392.62  85.4177
 49.2556  7353  85.2182
 49.2976  7431.85  85.734
 49.3396  7206.22  84.4908
 49.3816  7349.54  84.88
 49.4236  7383.76  85.3658
 49.4656  7262.42  84.6899
 49.5076  7299.79  84.6512
 49.5496  7340.26  84.9521
 49.5916  7417.24  85.308
 49.6336  7379.68  85.2944
 49.6756  7347.29  85.3468
 49.7176  7388.59  85.5302
 49.7596  7365.19  85.1504
 49.8016  7381.9  85.1742
 49.8436  7320.21  85.1184
 49.8856  7327.12  85.1583
 49.9276  7184.21  84.4341
 49.9696  7292.4  85.0405
 50.0116  7408.62  85.8536
 50.0536  7182.6  84.4824
 50.0956  7255.07  84.964
 50.1376  7305.38  84.9581
 50.1796  7281.47  85.0999
 50.2216  7263.31  84.9895
 50.2636  7264.33  84.5963
 50.3056  7266.07  84.7983
 50.3476  7204.67  84.4564
 50.3896  7191.95  84.3571
 50.4316  7264.34  84.5988
 50.4736  7181.21  84.3428
 50.5156  7213.96  84.5312
 50.5576  7279.69  84.6654
 50.5996  7247.4  84.7657
 50.6416  7223.13  84.5336
 50.6836  7257.21  84.8102
 50.7256  7259.99  84.7507
 50.7676  7357.54  85.6433
 50.8096  7191.08  84.1875
 50.8516  7194.71  84.6372
 50.8936  7061.59  83.6338
 50.9356  7310.12  85.2081
 50.9776  7169.81  84.5433
 51.0196  7034.6  83.8715
 51.0616  7060.3  83.3485
 51.1036  7082.68  83.8357
 51.1456  7180.74  84.3298
 51.1876  7151.45  83.4749
 51.2296  7120.97  83.9503
 51.2716  6994.9  82.9043
 51.3136  7025.34  83.5543
 51.3556  6995.05  82.988
 51.3976  7008.5  83.2239
 51.4396  6944.88  83.1605
 51.4816  6943.97  83.0076
 51.5236  7081.41  83.916
 51.5656  6886.2  82.3399
 51.6076  7054.28  83.4275
 51.6496  6974.26  83.1405
 51.6916  7097.98  84.2483
 51.7336  7049.06  84.0439
 51.7756  7002.68  83.4603
 51.8176  6903.76  82.9806
 51.8596  6986.99  83.4943
 51.9016  7070.41  83.5869
 51.9436  7005.21  84.7043
 51.9856  7138.75  85.9207
 52.0276  7156.38  84.479
 52.0696  7233.06  85.0064
 52.1116  6945.59  83.4237
 52.1536  7031.87  83.7691
 52.1956  7088.82  83.6167
 52.2376  7195.69  84.4118
 52.2796  7149.69  83.9633
 52.3216  6928.83  83.3459
 52.3636  6959.81  83.1004
 52.4056  6937.36  82.8201
 52.4476  7066.45  83.9665
 52.4896  6952.68  83.328
 52.5316  7114.36  84.3485
 52.5736  6907.31  82.8204
 52.6156  7115.32  84.4732
 52.6576  7031.58  83.3988
 52.6996  6793.66  82.9658
 52.7416  6902.89  83.5589
 52.7836  6898.36  83.3477
 52.8256  6917.93  82.6609
 52.8676  6758.75  82.2915
 52.9096  6997.85  83.7967
 52.9516  6926.68  83.7799
 52.9936  6953.92  84.3178
 53.0356  7033.12  83.7845
 53.0776  7024.85  84.0129
 53.1196  6931.02  83.5678
 53.1616  6969.37  83.85
 53.2036  7089.48  84.5361
 53.2456  6947.91  83.7942
 53.2876  7036.78  84.0049
 53.3296  7108.09  84.7771
 53.3716  7043.09  84.1192
 53.4136  7030.24  84.2082
 53.4556  6881.77  83.344
 53.4976  6883.33  83.1868
 53.5396  6927.93  83.8689
 53.5816  7000.99  83.9311
 53.6236  6803.8  83.0913
 53.6656  6980.84  83.7588
 53.7076  6958.29  83.5728
 53.7496  6951.27  83.6703
 53.7916  6930.38  83.6947
 53.8336  7022.62  84.1246
 53.8756  6845.91  83.6228
 53.9176  6857.74  83.0354
 53.9596  6667.21  82.6328
 54.0016  6737.25  82.3817
 54.0436  6590.97  81.7098
 54.0856  6717.34  81.913
 54.1276  6847.94  82.8957
 54.1696  6637.91  81.7894
 54.2116  6844.84  82.7905
 54.2536  6666  81.5232
 54.2956  6771  82.2057
 54.3376  6593.18  81.6021
 54.3796  6618.12  81.6531
 54.4216  6668.25  81.8606
 54.4636  6672.93  82.0225
 54.5056  6654.16  81.7092
 54.5476  6635.11  81.9178
 54.5896  6627.66  81.729
 54.6316  6688.05  81.9392
 54.6736  6629.69  81.6723
 54.7156  6552.48  81.2126
 54.7576  6611.56  81.5682
 54.7996  6762.51  82.6543
 54.8416  6700.99  82.3144
 54.8836  6514.61  81.2421
 54.9256  6547.54  81.2279
 54.9676  6542.22  81.0553
 55.0096  6573.84  81.2657
 55.0516  6451.41  80.742
 55.0936  6526.13  80.892
 55.1356  6511.89  80.8513
 55.1776  6671.78  82.0718
 55.2196  6560.42  81.1767
 55.2616  6703.21  82.2724
 55.3036  6487.72  81.1086
 55.3456  6343.04  80.3513
 55.3876  6508.99  81.1223
 55.4296  6475.09  80.9164
 55.4716  6518.36  81.1985
 55.5136  6442.08  80.4953
 55.5556  6682.6  82.0319
 55.5976  6546.25  81.2648
 55.6396  6500.62  80.8411
 55.6816  6494.37  80.7444
 55.7236  6407.18  80.2663
 55.7656  6522.45  80.7052
 55.8076  6418.58  80.0742
 55.8496  6672.65  82.0655
 55.8916  6385.56  80.4075
 55.9336  6513.22  81.0137
 55.9756  6394.84  80.1546
 56.0176  6446.34  80.6319
 56.0596  6462.68  80.7225
 56.1016  6330.79  79.8985
 56.1436  6352.57  80.2995
 56.1856  6333.26  79.9272
 56.2276  6538.74  81.2522
 56.2696  6493.44  80.9574
 56.3116  6456.32  81.1079
 56.3536  6391.9  80.3773
 56.3956  6321.37  79.9084
 56.4376  6380.91  80.3101
 56.4796  6261.69  79.3881
 56.5216  6393.76  80.5808
 56.5636  6298.92  79.5846
 56.6056  6462.01  80.8376
 56.6476  6272.66  79.2495
 56.6896  6604.03  81.778
 56.7316  6360.66  80.2109
 56.7736  6305.71  79.8147
 56.8156  6316.79  79.9163
 56.8576  6209.8  79.191
 56.8996  6355.13  80.0038
 56.9416  6304.14  80.0108
 56.9836  6325.15  79.6597
 57.0256  6240  79.4359
 57.0676  6367.15  80.3594
 57.1096  6345.21  79.9908
 57.1516  6291.21  79.7074
 57.1936  6363.29  79.9306
 57.2356  6179.3  79.0894
 57.2776  6198.59  79.1793
 57.3196  6263.55  79.9292
 57.3616  6253.86  79.3681
 57.4036  6311.94  79.8021
 57.4456  6455.28  80.6734
 57.4876  6358.74  79.9455
 57.5296  6169.03  79.0448
 57.5716  6206.28  79.2947
 57.6136  6180.09  78.9834
 57.6556  6350.34  80.1885
 57.6976  6324.97  79.85
 57.7396  6226.37  79.5702
 57.7816  6128.43  79.3251
 57.8236  6090.05  78.9137
 57.8656  6179.53  79.1029
 57.9076  6270.65  79.6972
 57.9496  6244.47  79.904
 57.9916  6312.76  79.8378
 58.0336  6174.69  79.2436
 58.0756  6208.14  79.0653
 58.1176  6235.29  79.2574
 58.1596  6184.44  79.5218
 58.2016  6037.27  77.7977
 58.2436  6069.04  78.4052
 58.2856  6071.64  78.3504
 58.3276  5974.04  78.0874
 58.3696  5986.98  77.9286
 58.4116  5940.75  77.4912
 58.4536  6051.67  78.1023
 58.4956  5961.14  77.692
 58.5376  6110.42  78.222
 58.5796  5975.76  77.7785
 58.6216  6013.59  77.8447
 58.6636  6033.67  78.1848
 58.7056  5899.38  77.1685
 58.7476  5993.62  78.2228
 58.7896  5876.91  77.1109
 58.8316  6025.34  78.0773
 58.8736  5953.47  77.6153
 58.9156  5929.99  77.5098
 58.9576  5958.25  78.0081
 58.9996  6011.27  77.6134
 59.0416  5968.01  77.6843
 59.0836  6060.45  78.2058
 59.1256  5916.35  77.9649
 59.1676  5943.54  78.4567
 59.2096  5797.95  76.7961
 59.2516  6163.38  78.756
 59.2936  6005.46  78.0677
 59.3356  5927.43  77.4377
 59.3776  6019.94  78.2084
 59.4196  5823.3  76.8579
 59.4616  5919.89  77.3538
 59.5036  5899.72  77.2567
 59.5456  6152.42  78.5845
 59.5876  6072.78  78.2659
 59.6296  5976.95  77.7147
 59.6716  5768.57  76.4046
 59.7136  6058.81  78.2914
 59.7556  5900.85  77.399
 59.7976  5959.73  77.528
 59.8396  5892.42  76.9846
 59.8816  5877.19  77.4199
 59.9236  6001.41  77.8818
 59.9656  5805.97  76.8489
 60.0076  5977.63  77.3473
 60.0496  6073.63  77.9908
 60.0916  6198.81  78.6862
 60.1336  5781.59  77.0754
 60.1756  5928.88  79.2243
 60.1996  6010.08  81.9958