File: docs/examples/opeando_xrd/IS17_D/Data/IS17_D/17_Da_f00088.xye
# /beamlines/bl04/projects/cycle2025-II/20250340211-lsimonelli/DATA/IS17_D/17_Da_f00088.xye : mythproc.py merge -s 0.006 -l 0.5 -f /beamlines/bl04/inhouse/ff/FlatField/ff_20Nov2024rod8mm60s_17keV.raw -b True -c true -o xye /beamlines/bl04/projects/cycle2025-II/20250340211-lsimonelli/DATA/IS17_D/17_Da_00088.dat
# IsMon = [6777996, 6772964, 6776970]  IsPos = [-1.4999, -2.4884, -3.4988]
# Wave = 0.4962  CalPath /beamlines/bl04/projects/cycle2025-II/20250340211-lsimonelli/DATA/Align/Si_Pos1_25keV_f00001.cal
# Date = 2025-09-24_18:03:48 Dt = 4.8000  Bin = 0.0060  <imon> = 6775977 +/- 2171 (Min/Max) 6772964 / 6777996
# icurr 251.5827  mocoIn 1.7161E-05  mocoOut 0.8049  i15 7.09371e+06  imon 6.77598e+06  i7 4.3333  iEMpd_timer 4.8000  iEMpd_1 3.4340E-08  iEMpd_2 7.8511E-08  iEMpd_3 1.7425E-08  iEMpd_4 4.6716E-08  iEMhp_timer 4.8000  iEMhp_1 4.9135E-06  iEMhp_2 -2.6270E-08  iEMhp_3 -2.3372E-08  iEMhp_4 -2.1392E-08
#      9776
 1.5856  40504.7  206.629
 1.6276  47603.6  220.162
 1.6696  54356.3  234.43
 1.7116  63137.9  253.152
 1.7536  71739  268.695
 1.7956  76743.4  278.603
 1.8376  73355.6  272.816
 1.8796  61184.7  247.319
 1.9216  49707.4  223.813
 1.9636  41655.7  204.046
 2.0056  37534  192.937
 2.0476  34323.6  186.524
 2.0896  33161.4  182.264
 2.1316  32536.7  179.671
 2.1736  30571  175.541
 2.2156  31027.4  175.427
 2.2576  29934.8  172.928
 2.2996  28989.2  170.8
 2.3416  29397.7  170.627
 2.3836  28444.6  167.941
 2.4256  27535.2  165.773
 2.4676  27285  164.784
 2.5096  27269.2  164.79
 2.5516  26387.4  165.89
 2.5936  26418.3  162.637
 2.6356  26059  162.207
 2.6776  26082.2  161.183
 2.7196  25554.8  160.053
 2.7616  25542.9  159.794
 2.8036  25340.2  159.329
 2.8456  25118.2  159.24
 2.8876  24651.1  157.64
 2.9296  24154.6  156.158
 2.9716  24230.6  155.899
 3.0136  23853.9  154.749
 3.0556  24033.5  155.726
 3.0976  23749.6  153.732
 3.1396  23726.6  154.384
 3.1816  23503.6  153.598
 3.2236  23357.4  153.111
 3.2656  23312  152.021
 3.3076  22949.2  152.256
 3.3496  23443.3  152.843
 3.3916  23779.2  153.75
 3.4336  24137  155.476
 3.4756  24414.1  156.279
 3.5176  25286.4  158.854
 3.5596  25338.2  161.424
 3.6016  25464.6  159.466
 3.6436  24631.3  157.94
 3.6856  24395.5  155.474
 3.7276  23301  153.037
 3.7696  23126.5  152.643
 3.8116  22848.5  151.613
 3.8536  22812.7  151.42
 3.8956  22909.1  151.575
 3.9376  22742.2  151.274
 3.9796  22810.6  151.01
 4.0216  22659.1  149.557
 4.0636  22500.3  150.487
 4.1056  22685.5  150.754
 4.1476  22943  151.905
 4.1896  23012.8  152.004
 4.2316  23307.6  152.795
 4.2736  23633.1  153.655
 4.3156  23825.5  154.504
 4.3576  24686.3  157.199
 4.3996  24879.6  158.078
 4.4416  25502  159.621
 4.4836  26086.1  161.595
 4.5256  26321.2  162.92
 4.5676  26271  163.027
 4.6096  26875.8  163.544
 4.6516  27126.8  164.025
 4.6936  27528  166.039
 4.7356  27606.6  166.11
 4.7776  27604.7  165.943
 4.8196  27337.8  165.773
 4.8616  26995.5  164.228
 4.9036  26501.7  162.453
 4.9456  26595.6  163.399
 4.9876  25895  161.131
 5.0296  26344.5  162.343
 5.0716  26106.6  162.38
 5.1136  26391.6  162.969
 5.1556  26582.2  163.032
 5.1976  26985.8  164.246
 5.2396  27184.7  164.547
 5.2816  27279.4  165.298
 5.3236  27178  164.701
 5.3656  26853.6  164.636
 5.4076  26592.2  163.986
 5.4496  26777.4  164.046
 5.4916  26840  163.988
 5.5336  26945.3  164.321
 5.5756  26898.4  164.188
 5.6176  26895.7  163.627
 5.6596  26915.3  164.65
 5.7016  27246.6  164.936
 5.7436  27414.6  165.718
 5.7856  27265.5  165.324
 5.8276  27804.9  166.681
 5.8696  27979.5  167.369
 5.9116  27731  167.23
 5.9536  27994  167.763
 5.9956  28483.5  168.59
 6.0376  28482.2  169.229
 6.0796  28595.1  169.394
 6.1216  28570  169.53
 6.1636  28766.7  169.165
 6.2056  28984.6  170.482
 6.2476  28921  170.161
 6.2896  29245.4  170.79
 6.3316  29043.1  170.366
 6.3736  29230.8  170.816
 6.4156  29188.9  170.578
 6.4576  29481.2  171.047
 6.4996  29564.8  171.779
 6.5416  29366.2  171.331
 6.5836  29590.5  172.223
 6.6256  29358.5  171.1
 6.6676  30173.6  173.028
 6.7096  29718.6  172.556
 6.7516  30349.1  174.042
 6.7936  30426  173.684
 6.8356  30763.2  174.729
 6.8776  30893.6  175.909
 6.9196  30903.5  176.333
 6.9616  31489.9  177.449
 7.0036  31713.6  177.716
 7.0456  31711.3  177.009
 7.0876  31666.2  178.569
 7.1296  31867.1  178.273
 7.1716  31663.7  177.229
 7.2136  31449.5  176.422
 7.2556  31646.7  177.134
 7.2976  31590.5  177.475
 7.3396  31635.9  177.825
 7.3816  31432.4  177.457
 7.4236  31720.4  177.56
 7.4656  32014.6  177.868
 7.5076  32231.5  178.602
 7.5496  32254.6  179.203
 7.5916  32224.3  179.15
 7.6336  32722.3  180.428
 7.6756  32564.7  179.844
 7.7176  32890.2  181.047
 7.7596  32959.6  182.486
 7.8016  33179.7  185.266
 7.8436  33727.9  183.484
 7.8856  34172.6  184.297
 7.9276  34471.3  185.491
 7.9696  34803.5  186.704
 8.0116  35983.8  188.368
 8.0536  35863  188.312
 8.0956  35655.9  188.948
 8.1376  36505.4  190.648
 8.1796  36279  190.607
 8.2216  37120.5  191.534
 8.2636  37582.9  192.97
 8.3056  37412.2  193.298
 8.3476  37928.9  193.958
 8.3896  37663.5  193.365
 8.4316  37949  194.259
 8.4736  37940.9  193.7
 8.5156  37677.2  193.308
 8.5576  37197.6  193.055
 8.5996  37518.7  192.745
 8.6416  37188  193.162
 8.6836  37474.3  193.718
 8.7256  37687.1  193.723
 8.7676  36891.5  194.532
 8.8096  36998.3  192.103
 8.8516  36785.3  191.167
 8.8936  36642.7  190.679
 8.9356  36088.7  189.584
 8.9776  36732.8  191.369
 9.0196  36158.5  189.534
 9.0616  36299.3  189.369
 9.1036  35829.2  189.326
 9.1456  36114  189.441
 9.1876  36028.4  189.164
 9.2296  36116.8  188.803
 9.2716  35590.5  187.483
 9.3136  35790.2  187.987
 9.3556  35875.8  188.194
 9.3976  34402  184.813
 9.4396  34928.9  186.122
 9.4816  34267.2  184.207
 9.5236  34570.3  184.938
 9.5656  34147.8  184.121
 9.6076  33950.6  184.13
 9.6496  33961.1  184.075
 9.6916  33869.2  183.801
 9.7336  33887.4  183.626
 9.7756  33923.3  185.002
 9.8176  33045  182.096
 9.8596  33162.8  180.866
 9.9016  32668.4  179.508
 9.9436  32368.2  178.593
 9.9856  32173.7  178.28
 10.0276  31547.6  177.64
 10.0696  31980.6  177.891
 10.1116  30938.4  175.233
 10.1536  30825.1  175.077
 10.1956  30710.4  174.354
 10.2376  30044  171.945
 10.2796  30496.1  173.372
 10.3216  30069.4  172.417
 10.3636  30112.3  172.578
 10.4056  29846.3  172.224
 10.4476  29799.2  171.7
 10.4896  30047.2  171.864
 10.5316  29443.3  170.835
 10.5736  29303.9  170.84
 10.6156  28932.3  169.512
 10.6576  28994.4  168.267
 10.6996  28462.7  167.388
 10.7416  28385.9  167.392
 10.7836  28681.3  168.966
 10.8256  27921.6  167.135
 10.8676  28265.3  167.7
 10.9096  27659.8  165.914
 10.9516  27401  164.074
 10.9936  27465  164.459
 11.0356  27347.3  164.752
 11.0776  27095.1  163.305
 11.1196  26651.9  162.705
 11.1616  26503.7  161.947
 11.2036  26596.7  162.08
 11.2456  26657.3  162.982
 11.2876  26654.7  162.687
 11.3296  26190.2  161.165
 11.3716  26609.6  162.137
 11.4136  26693  163.3
 11.4556  26829.4  163.381
 11.4976  27258.9  163.645
 11.5396  27281.6  163.89
 11.5816  26720.9  162.65
 11.6236  26199.6  161.285
 11.6656  26066.7  160.011
 11.7076  25418.3  158.855
 11.7496  25231.7  162.167
 11.7916  25336  157.859
 11.8336  25063.5  157.892
 11.8756  25092  157.52
 11.9176  24982.6  156.838
 11.9596  24638.7  155.932
 12.0016  24506.4  156.306
 12.0436  24682.9  156.279
 12.0856  24342.6  155.73
 12.1276  24483.8  156.098
 12.1696  24339.6  154.777
 12.2116  24631.6  155.702
 12.2536  24395.1  155.78
 12.2956  24238.8  154.62
 12.3376  24028.8  154.146
 12.3796  24251  155.31
 12.4216  24084.2  154.009
 12.4636  23978.9  154.581
 12.5056  23999  153.919
 12.5476  24281.3  154.351
 12.5896  24256.9  154.914
 12.6316  23814.1  153.638
 12.6736  23879.7  154.343
 12.7156  23679.5  153.549
 12.7576  24004.9  154.847
 12.7996  24041.1  153.615
 12.8416  23988.3  154.499
 12.8836  24421.3  155.717
 12.9256  24565.1  155.18
 12.9676  24733.8  156.148
 13.0096  24250.2  155.698
 13.0516  24463.5  155.426
 13.0936  24559.4  156.125
 13.1356  24883.2  156.136
 13.1776  24437.3  155.719
 13.2196  24680.1  156.146
 13.2616  24561.6  156.082
 13.3036  24595.1  156.159
 13.3456  24509.3  156.244
 13.3876  24537.4  155.616
 13.4296  24482.4  155.596
 13.4716  24797.9  156.201
 13.5136  24793.8  156.344
 13.5556  24634.2  156.466
 13.5976  24789.1  157.089
 13.6396  24772.3  156.403
 13.6816  24351.4  155.563
 13.7236  25113  157.608
 13.7656  24288.5  155.537
 13.8076  24477.9  154.936
 13.8496  24164.6  154.529
 13.8916  24387  156.245
 13.9336  24411.5  155.558
 13.9756  24222  154.3
 14.0176  24084.9  154.552
 14.0596  23999.9  154.236
 14.1016  23563.1  153.214
 14.1436  23524.6  152.218
 14.1856  23202.2  151.472
 14.2276  22933.8  151.068
 14.2696  23387.1  152.397
 14.3116  22959.3  150.902
 14.3536  22527.4  149.655
 14.3956  22566.5  149.523
 14.4376  22598.3  149.399
 14.4796  22672.8  149.639
 14.5216  22390.4  149.497
 14.5636  22255.8  148.613
 14.6056  22319.2  148.397
 14.6476  22154.9  147.087
 14.6896  21933  146.891
 14.7316  21596.7  146.78
 14.7736  21502.9  145.625
 14.8156  21177.1  144.541
 14.8576  20995.5  143.773
 14.8996  20844.6  144.466
 14.9416  20326  142.652
 14.9836  20685.7  143.864
 15.0256  20455.4  142.008
 15.0676  20400.4  142.132
 15.1096  20281  141.453
 15.1516  19927.7  140.782
 15.1936  19844.8  139.907
 15.2356  19446.1  138.771
 15.2776  19621  138.979
 15.3196  19060.6  137.979
 15.3616  19129.8  137.976
 15.4036  19046.2  137.542
 15.4456  19335.8  138.23
 15.4876  18785.1  135.926
 15.5296  18788.8  136.229
 15.5716  18845.1  136.027
 15.6136  18521.3  135.177
 15.6556  18396.2  133.967
 15.6976  18441.3  134.433
 15.7396  18246  134.097
 15.7816  18136.7  133.211
 15.8236  17920.6  133.107
 15.8656  17952.8  133.018
 15.9076  17657.9  131.754
 15.9496  17697.6  134.668
 15.9916  17674.1  135.014
 16.0336  17250.3  130.293
 16.0756  17557  131.758
 16.1176  17366.1  131.111
 16.1596  16962  130.751
 16.2016  17084.4  129.975
 16.2436  17047.9  130.217
 16.2856  17004.7  129.597
 16.3276  16681.6  128.775
 16.3696  17002.2  129.823
 16.4116  16447.9  128.149
 16.4536  16748.4  129.094
 16.4956  16648.7  128.447
 16.5376  16430.8  127.789
 16.5796  16460.4  127.274
 16.6216  16474.2  127.623
 16.6636  16535.4  128.025
 16.7056  16451.8  127.56
 16.7476  16618.9  127.731
 16.7896  16512.8  128.078
 16.8316  16355  127.421
 16.8736  16386.5  127.806
 16.9156  16392.1  128.17
 16.9576  16165.7  128.098
 16.9996  16242.7  128.879
 17.0416  16298.2  127.472
 17.0836  16238.6  126.991
 17.1256  15942.2  125.836
 17.1676  16031.1  126.175
 17.2096  15638.5  124.5
 17.2516  15816.5  124.989
 17.2936  15890.9  125.604
 17.3356  15476.6  123.961
 17.3776  15486.4  124.194
 17.4196  15490.5  123.903
 17.4616  15710.7  124.701
 17.5036  15183.8  122.965
 17.5456  15188.3  123.615
 17.5876  15214.8  122.768
 17.6296  15208.5  122.558
 17.6716  15284.3  123.436
 17.7136  14874.9  121.912
 17.7556  14938.5  122.47
 17.7976  14943.4  122.233
 17.8396  14860  121.388
 17.8816  14926.4  122.214
 17.9236  14733  121.222
 17.9656  14985.2  122.803
 18.0076  15062.9  122.682
 18.0496  15005.9  121.584
 18.0916  14934.7  121.829
 18.1336  15018.6  122.269
 18.1756  15286.2  122.884
 18.2176  14885.4  121.488
 18.2596  14969.6  121.574
 18.3016  15210.9  122.797
 18.3436  15090.4  122.322
 18.3856  14736.9  121.009
 18.4276  14919.7  121.428
 18.4696  14782.2  120.965
 18.5116  14912  121.788
 18.5536  14876.6  122.005
 18.5956  14639.4  120.575
 18.6376  14561.4  120.677
 18.6796  14553.5  119.949
 18.7216  14757.1  121.288
 18.7636  14281.8  119.295
 18.8056  14411.4  119.783
 18.8476  14418.7  120.441
 18.8896  14308.3  119.312
 18.9316  14414.4  119.741
 18.9736  14323.5  119.051
 19.0156  14276.8  119.276
 19.0576  14252  118.023
 19.0996  14513.7  119.823
 19.1416  14042.7  118.244
 19.1836  14108.1  118.133
 19.2256  13914.3  117.525
 19.2676  14139.8  118.571
 19.3096  14118.5  118.735
 19.3516  14036.3  118.341
 19.3936  13984.8  118.032
 19.4356  14106  118.399
 19.4776  14222.4  118.991
 19.5196  14238.2  118.898
 19.5616  14085.5  118.529
 19.6036  14060.9  117.918
 19.6456  14010.1  117.824
 19.6876  14262.5  118.531
 19.7296  14066.7  118.158
 19.7716  14140  118.64
 19.8136  14178.8  119.001
 19.8556  14309.6  119.029
 19.8976  14385  119.409
 19.9396  14413.1  119.101
 19.9816  14640.5  120.29
 20.0236  14739  120.907
 20.0656  14633.2  120.47
 20.1076  14262.9  119.386
 20.1496  13967.1  118.154
 20.1916  13957.5  117.627
 20.2336  13977.7  117.655
 20.2756  13735.1  117.054
 20.3176  13697.3  116.64
 20.3596  13667  116.49
 20.4016  13562.8  115.85
 20.4436  13570.1  116.439
 20.4856  13489.8  115.876
 20.5276  13428.5  116.08
 20.5696  13371.8  115.285
 20.6116  13475.3  116.011
 20.6536  13402.7  115.209
 20.6956  13221.3  114.553
 20.7376  13324.3  115.233
 20.7796  13140  114.109
 20.8216  13327.4  114.629
 20.8636  13232.6  114.584
 20.9056  13205.9  114.43
 20.9476  13129.4  113.935
 20.9896  13358  114.792
 21.0316  13415.5  114.939
 21.0736  13207.7  114.562
 21.1156  13174.6  114.577
 21.1576  13214.8  114.801
 21.1996  13239  114.887
 21.2416  12963  113.507
 21.2836  13150.4  114.297
 21.3256  13000.7  113.719
 21.3676  13185.3  114.076
 21.4096  13132.2  114.155
 21.4516  12930.4  113.158
 21.4936  12831.1  112.973
 21.5356  13038.4  113.823
 21.5776  12951.8  113.284
 21.6196  12814.3  112.711
 21.6616  12832.6  112.886
 21.7036  12900.8  112.956
 21.7456  13002.9  113.483
 21.7876  12798.4  112.338
 21.8296  12898  112.631
 21.8716  12782.1  112.356
 21.9136  13013  113.562
 21.9556  12699  111.862
 21.9976  12658.3  111.698
 22.0396  12751.8  112.363
 22.0816  12827.9  113.242
 22.1236  12899.5  113.004
 22.1656  12869.8  112.997
 22.2076  12842.7  112.369
 22.2496  12849.2  112.428
 22.2916  12758.7  111.907
 22.3336  12678.7  112.286
 22.3756  12927  113.094
 22.4176  12709  111.99
 22.4596  12614  112.157
 22.5016  12830.9  112.603
 22.5436  12843.2  112.541
 22.5856  12781.8  112.522
 22.6276  12601.8  111.873
 22.6696  12909.3  113.578
 22.7116  12672.9  112.051
 22.7536  12897.3  113.008
 22.7956  12725.7  111.589
 22.8376  12575.6  111.441
 22.8796  12722.1  111.892
 22.9216  12789.1  112.732
 22.9636  12501.9  110.619
 23.0056  12689.4  111.58
 23.0476  12765.7  112.485
 23.0896  12974.6  112.776
 23.1316  12986.1  113.268
 23.1736  12752.6  115.21
 23.2156  12864.5  113.038
 23.2576  12615.4  112.073
 23.2996  12783.9  112.603
 23.3416  12461.3  111.683
 23.3836  12626.3  111.658
 23.4256  12653.9  111.898
 23.4676  12690.1  111.755
 23.5096  12729.7  112.607
 23.5516  12458.3  110.683
 23.5936  12630.4  112.35
 23.6356  12797  112.761
 23.6776  12721.3  112.644
 23.7196  12505.1  111.252
 23.7616  12802.7  112.487
 23.8036  12583.3  111.557
 23.8456  12708.9  111.687
 23.8876  12410.5  110.709
 23.9296  12318.8  110.793
 23.9716  12444.7  110.551
 24.0136  12429.4  111.391
 24.0556  12152.1  109.871
 24.0976  12165.4  109.728
 24.1396  12048.8  111.844
 24.1816  12236.1  111.139
 24.2236  12130.4  110.273
 24.2656  12136.4  109.773
 24.3076  11981.1  109.307
 24.3496  12026.1  109.423
 24.3916  11959.5  109.159
 24.4336  11960.3  109.372
 24.4756  11909.8  109.001
 24.5176  11706.1  107.726
 24.5596  11713.3  107.886
 24.6016  11703.7  108.128
 24.6436  11692.6  107.567
 24.6856  11659.5  107.178
 24.7276  11595  107.204
 24.7696  11668.9  107.651
 24.8116  11475.6  106.946
 24.8536  11542  107.241
 24.8956  11458.1  106.589
 24.9376  11488.9  106.668
 24.9796  11325.9  106.261
 25.0216  11236.3  105.941
 25.0636  11344.6  106.116
 25.1056  11173.4  106.013
 25.1476  11248.1  108.016
 25.1896  11419.4  107.319
 25.2316  11392.8  106.451
 25.2736  11197  105.195
 25.3156  11306.9  105.778
 25.3576  11335.8  106.341
 25.3996  11215.1  105.752
 25.4416  11195  105.644
 25.4836  10937.8  104.94
 25.5256  11242.3  105.753
 25.5676  11241.2  105.484
 25.6096  10961.6  104.728
 25.6516  11092.2  104.856
 25.6936  11022.4  104.824
 25.7356  11108.8  105.376
 25.7776  11113.2  104.996
 25.8196  10807.2  103.779
 25.8616  11055.2  104.885
 25.9036  11222.7  105.141
 25.9456  10974.9  104.575
 25.9876  10966.9  104.592
 26.0296  11049.1  104.503
 26.0716  10955.3  104.471
 26.1136  10970.5  104.491
 26.1556  11106.2  104.511
 26.1976  10928  104.59
 26.2396  10941.7  103.815
 26.2816  10979.1  104.603
 26.3236  10994.5  104.848
 26.3656  10829  103.765
 26.4076  11031.8  104.95
 26.4496  11510.5  106.645
 26.4916  10950.4  104.057
 26.5336  10936.4  104.317
 26.5756  10978.1  104.386
 26.6176  10855.4  103.844
 26.6596  10715.1  103.476
 26.7016  10700.8  103.165
 26.7436  10668.1  103.134
 26.7856  10506.5  102.334
 26.8276  10583.8  102.67
 26.8696  10711.7  103.158
 26.9116  10636.8  102.742
 26.9536  10526.8  102.253
 26.9956  10663.5  102.947
 27.0376  10489.7  102.313
 27.0796  10658.3  102.881
 27.1216  10558.7  102.459
 27.1636  10362  101.67
 27.2056  10458.2  102.024
 27.2476  10525.2  102.35
 27.2896  10510.8  102.395
 27.3316  10422.1  101.672
 27.3736  10406.5  101.867
 27.4156  10325.1  101.298
 27.4576  10337.5  101.598
 27.4996  10220.4  100.612
 27.5416  10407.3  101.852
 27.5836  10387.5  101.573
 27.6256  10706.7  103.272
 27.6676  10568.7  102.648
 27.7096  10186.9  100.635
 27.7516  10262.2  101.159
 27.7936  10157.1  100.806
 27.8356  10306.5  101.166
 27.8776  10167.6  100.521
 27.9196  10178.5  100.427
 27.9616  10341.4  101.422
 28.0036  10200.2  100.695
 28.0456  10220  100.933
 28.0876  10037.1  100.116
 28.1296  10086.2  100.2
 28.1716  10113.3  100.338
 28.2136  10262.9  101.039
 28.2556  10116.6  100.437
 28.2976  10070.8  100.205
 28.3396  10198.1  100.586
 28.3816  10078.7  100.024
 28.4236  10066  100.12
 28.4656  10010.9  99.8771
 28.5076  9890.07  98.9074
 28.5496  10008.1  99.7606
 28.5916  9898.37  99.0221
 28.6336  9904.65  99.3892
 28.6756  9974.57  98.943
 28.7176  9936.33  99.2986
 28.7596  9889.04  98.9633
 28.8016  9981.96  99.4674
 28.8436  9765.52  98.6208
 28.8856  9931.17  99.3003
 28.9276  9954.93  99.6665
 28.9696  9795.06  98.5209
 29.0116  9771.56  98.5882
 29.0536  9707.52  98.4643
 29.0956  9773.13  98.5108
 29.1376  9765.67  98.4356
 29.1796  9723.56  98.2765
 29.2216  9731.14  98.1555
 29.2636  9705.41  98.0976
 29.3056  9771.06  98.2224
 29.3476  9565.51  97.6973
 29.3896  9823.78  99.1104
 29.4316  9840.9  98.541
 29.4736  9740.08  98.0939
 29.5156  9807.23  98.349
 29.5576  9629.6  98.205
 29.5996  9795.14  98.2924
 29.6416  9713.17  98.0013
 29.6836  9754.26  98.1337
 29.7256  9726.7  98.5657
 29.7676  9756.79  98.3698
 29.8096  9615.56  97.5967
 29.8516  9461.2  97.1437
 29.8936  9755.48  98.7423
 29.9356  9689.12  98.1593
 29.9776  9599.03  97.8558
 30.0196  9702.22  97.7663
 30.0616  9654.5  97.8982
 30.1036  9616.92  97.5354
 30.1456  9631.15  97.8346
 30.1876  9447.55  96.887
 30.2296  9522.58  97.2025
 30.2716  9644.02  97.4662
 30.3136  9794.03  99.093
 30.3556  9687.65  98.5529
 30.3976  9397.74  98.5897
 30.4396  9567.35  96.7895
 30.4816  9550.43  96.302
 30.5236  9389.51  95.4965
 30.5656  9559.69  97.0219
 30.6076  9487.14  96.0867
 30.6496  9576.51  96.9202
 30.6916  9414.04  96.1908
 30.7336  9393.56  96.2262
 30.7756  9290.91  95.8002
 30.8176  9456.81  96.5666
 30.8596  9467.87  96.3934
 30.9016  9397.23  96.3736
 30.9436  9430.58  96.2984
 30.9856  9478.96  96.6485
 31.0276  9312.98  95.4075
 31.0696  9346.64  96.1571
 31.1116  9357.96  96.1941
 31.1536  9434.5  96.4706
 31.1956  9253.94  95.6276
 31.2376  9274.18  95.7469
 31.2796  9199.63  94.8986
 31.3216  9334.72  95.5379
 31.3636  9305.48  96.0889
 31.4056  9412.7  97.9748
 31.4476  9320.1  95.3715
 31.4896  9265.97  95.5946
 31.5316  9260.34  94.9759
 31.5736  9287.75  94.9265
 31.6156  9313.94  95.0808
 31.6576  9454.52  95.8923
 31.6996  9456.74  95.5654
 31.7416  9226.9  95.4664
 31.7836  9145.99  94.0671
 31.8256  9198.78  94.5992
 31.8676  9339.03  95.3249
 31.9096  9142.06  94.6697
 31.9516  9022.4  94.2071
 31.9936  9013.12  93.9915
 32.0356  9166.65  94.85
 32.0776  9239.18  95.1066
 32.1196  9246.35  95.2317
 32.1616  9324  95.0869
 32.2036  9131.29  94.6008
 32.2456  9065.33  94.6481
 32.2876  9157.81  94.6241
 32.3296  9112.12  94.3526
 32.3716  8987.44  93.8143
 32.4136  9120.6  94.7104
 32.4556  9120.37  94.0943
 32.4976  9155.12  94.1734
 32.5396  9019.54  93.5483
 32.5816  9048.32  93.8142
 32.6236  9131.5  94.321
 32.6656  9086.25  94.6216
 32.7076  8910.33  93.3623
 32.7496  9045.32  93.7318
 32.7916  9009.27  93.5107
 32.8336  9117.68  94.1673
 32.8756  9050.64  93.5355
 32.9176  8870.18  93.0811
 32.9596  8945.21  93.5451
 33.0016  9044.46  93.856
 33.0436  9100.83  94.3242
 33.0856  8902.54  93.3613
 33.1276  8876.64  92.9549
 33.1696  9012.15  93.5082
 33.2116  9029.71  93.8323
 33.2536  8931.09  93.3089
 33.2956  9000.38  93.7608
 33.3376  8846.37  92.6893
 33.3796  9034.96  93.8844
 33.4216  8948.12  93.0213
 33.4636  8995.66  93.4202
 33.5056  8800.26  92.6498
 33.5476  8780.85  92.5288
 33.5896  8979.32  93.359
 33.6316  8792.85  92.6807
 33.6736  8741.56  92.6622
 33.7156  8800.17  93.0136
 33.7576  8823.69  92.7583
 33.7996  9016.39  93.5284
 33.8416  8648.59  91.792
 33.8836  8849.62  92.6352
 33.9256  8760.05  92.2172
 33.9676  8898.23  92.8379
 34.0096  8684.4  92.0288
 34.0516  8725.23  91.8853
 34.0936  8610.39  91.5464
 34.1356  8816.5  92.3756
 34.1776  8643.46  91.4779
 34.2196  8684.53  91.8702
 34.2616  8706.1  92.1226
 34.3036  8598.61  91.7928
 34.3456  8640.39  91.7738
 34.3876  8650.85  91.7888
 34.4296  8641.34  91.4263
 34.4716  8705.71  91.9248
 34.5136  8670.02  91.9398
 34.5556  8640.46  92.0412
 34.5976  8723.24  92.2766
 34.6396  8551.4  91.0746
 34.6816  8574.16  91.3052
 34.7236  8674.44  91.6279
 34.7656  8717.66  92.0506
 34.8076  8505.97  91.2444
 34.8496  8659.69  91.9253
 34.8916  8597.85  91.4725
 34.9336  8701.78  91.9851
 34.9756  8554.13  91.1265
 35.0176  8652.62  92.1794
 35.0596  8521.7  91.2968
 35.1016  8577.29  91.3614
 35.1436  8602.17  91.1851
 35.1856  8545.76  91.0137
 35.2276  8509.95  91.001
 35.2696  8474.77  90.9995
 35.3116  8521.52  91.3493
 35.3536  8479.71  90.8315
 35.3956  8400.83  90.1104
 35.4376  8504.28  91.2208
 35.4796  8427.99  90.87
 35.5216  8321.19  90.2505
 35.5636  8258.84  90.6566
 35.6056  8510.99  91.0481
 35.6476  8512.85  90.9469
 35.6896  8556.95  91.2842
 35.7316  8304.75  89.894
 35.7736  8506.96  91.1801
 35.8156  8356.26  90.3651
 35.8576  8447.59  91.1105
 35.8996  8547.39  91.5907
 35.9416  8630.14  91.4932
 35.9836  8392.09  90.6313
 36.0256  8489.04  91.1737
 36.0676  8460.24  90.7821
 36.1096  8355.59  90.3514
 36.1516  8449.69  90.7462
 36.1936  8356.3  90.0961
 36.2356  8341.74  90.6481
 36.2776  8267.46  89.7328
 36.3196  8362.37  89.9112
 36.3616  8319.45  89.8139
 36.4036  8411.87  90.371
 36.4456  8256.59  89.74
 36.4876  8268.53  89.7482
 36.5296  8301.74  89.9606
 36.5716  8190.39  90.1377
 36.6136  8510.55  90.6426
 36.6556  8554.11  91.0844
 36.6976  8252.76  89.9648
 36.7396  8259  89.7339
 36.7816  8303.58  90.3475
 36.8236  8312.1  90.3156
 36.8656  8358.35  90.6391
 36.9076  8236.38  89.8581
 36.9496  8213.73  89.7119
 36.9916  8210.32  89.3302
 37.0336  8326.99  90.2755
 37.0756  8413.12  90.5342
 37.1176  8224.85  89.7853
 37.1596  8268.94  90.0264
 37.2016  8347.09  90.6847
 37.2436  8258.65  89.5175
 37.2856  8210.61  89.5179
 37.3276  8275.77  89.2127
 37.3696  8174.66  89.558
 37.4116  8317.77  90.2334
 37.4536  8053.9  88.6645
 37.4956  8095.97  88.9383
 37.5376  8162.45  90.845
 37.5796  8076.66  90.3286
 37.6216  8013.9  88.2362
 37.6636  8113.5  88.6879
 37.7056  8030.98  88.4262
 37.7476  8155.35  88.6456
 37.7896  8121.5  88.9647
 37.8316  7924.47  88.0451
 37.8736  8142.2  88.7749
 37.9156  7993.95  87.9619
 37.9576  8101.53  88.4258
 37.9996  7837  86.6984
 38.0416  8196.38  89.4888
 38.0836  8084.64  88.7799
 38.1256  8014.38  88.332
 38.1676  7840.54  87.5263
 38.2096  7998.41  88.0229
 38.2516  8168.67  89.168
 38.2936  8001.82  88.0499
 38.3356  8116.09  88.5899
 38.3776  7890.13  87.6211
 38.4196  8062.91  88.4307
 38.4616  8085.25  88.788
 38.5036  8078.57  88.5958
 38.5456  7977.91  88.8909
 38.5876  7974.51  88.906
 38.6296  7851.59  87.1986
 38.6716  7907.24  87.301
 38.7136  7861.2  86.9833
 38.7556  7865.14  87.5107
 38.7976  7904.61  87.6698
 38.8396  7778.24  87.4159
 38.8816  7896.08  87.8424
 38.9236  7920.28  87.8017
 38.9656  7923.95  87.7353
 39.0076  7931.31  87.1844
 39.0496  7902  87.557
 39.0916  7929.52  87.3498
 39.1336  7924.79  87.7484
 39.1756  7899.9  87.6791
 39.2176  7867.27  88.033
 39.2596  7856.65  87.8883
 39.3016  7825.99  87.2926
 39.3436  7860  87.9037
 39.3856  8015.69  88.2159
 39.4276  7861.56  87.8492
 39.4696  7894.77  87.6626
 39.5116  7725.29  87.2255
 39.5536  7990.17  89.1405
 39.5956  7962.68  88.0873
 39.6376  7922.71  87.8662
 39.6796  7925.99  87.6303
 39.7216  8006.33  88.1649
 39.7636  8066.72  89.0713
 39.8056  7944.57  88.1719
 39.8476  7960.85  88.5217
 39.8896  7908.07  87.8555
 39.9316  7910.53  88.1278
 39.9736  7942.59  87.8797
 40.0156  7957.11  87.7693
 40.0576  7904.77  87.8529
 40.0996  7941.15  87.2305
 40.1416  7929.48  87.9582
 40.1836  8014.27  88.3157
 40.2256  8020.39  88.3985
 40.2676  7883.1  87.7389
 40.3096  7966.3  88.1284
 40.3516  8011.13  88.4811
 40.3936  8057.36  88.3011
 40.4356  7973.22  88.0387
 40.4776  7968.6  88.4153
 40.5196  8104.57  89.295
 40.5616  8041.5  88.5876
 40.6036  7861.25  87.8463
 40.6456  8077.93  88.6462
 40.6876  8114.87  88.8422
 40.7296  8017.67  88.4529
 40.7716  8013.95  88.5576
 40.8136  8021.77  88.5456
 40.8556  7953.02  88.289
 40.8976  7933.85  88.1106
 40.9396  7872.55  88.1131
 40.9816  8087.21  88.5895
 41.0236  8017.51  87.9809
 41.0656  8105.72  89.0106
 41.1076  8079.23  88.6404
 41.1496  7963.56  87.9054
 41.1916  7979.54  88.327
 41.2336  7863.19  87.6607
 41.2756  7927.02  87.6259
 41.3176  7954.53  88.3887
 41.3596  7961.05  88.1541
 41.4016  7941.34  88.3099
 41.4436  7966.64  88.2336
 41.4856  7922.04  88.1481
 41.5276  7990.94  88.5535
 41.5696  7988.57  88.1766
 41.6116  7873.18  87.9186
 41.6536  7971.87  88.3285
 41.6956  7917.57  88.0797
 41.7376  7887.84  87.9485
 41.7796  7818.48  87.4394
 41.8216  7953  88.4288
 41.8636  7903.79  88.0978
 41.9056  7981.5  88.3126
 41.9476  7968  88.4746
 41.9896  7921.28  87.8787
 42.0316  7937.97  88.0523
 42.0736  7998.49  88.499
 42.1156  7874.69  87.6523
 42.1576  7885.9  87.8162
 42.1996  7903.41  88.0552
 42.2416  8008.05  88.211
 42.2836  7890.15  87.6748
 42.3256  7911.34  87.9078
 42.3676  7852.75  87.3781
 42.4096  7966.29  87.981
 42.4516  7923.46  87.826
 42.4936  7802.14  87.2242
 42.5356  7791.73  87.3015
 42.5776  7825.77  87.427
 42.6196  7884.22  87.8043
 42.6616  7668.03  86.7645
 42.7036  7945.26  87.6995
 42.7456  7777.38  87.1187
 42.7876  7768.2  87.1634
 42.8296  7909.01  87.7844
 42.8716  7788.25  87.2765
 42.9136  7735.5  86.7694
 42.9556  7803.4  87.2849
 42.9976  7842.33  87.4658
 43.0396  7742.37  86.6385
 43.0816  7698.03  86.7598
 43.1236  7765.79  87.2051
 43.1656  7765.85  87.0316
 43.2076  7691.11  86.7105
 43.2496  7678.74  86.4651
 43.2916  7719.65  87.0601
 43.3336  7856.61  87.6643
 43.3756  7665.79  86.3447
 43.4176  7640.94  86.2914
 43.4596  7675.98  86.3421
 43.5016  7758.96  87.2176
 43.5436  7584.11  86.1275
 43.5856  7735.37  87.0056
 43.6276  7671.54  86.5418
 43.6696  7594.86  86.3683
 43.7116  7656.7  86.2194
 43.7536  7728.14  87.1128
 43.7956  7514.51  87.0847
 43.8376  7721.68  86.8192
 43.8796  7632.31  86.3903
 43.9216  7651.34  86.4113
 43.9636  7651.93  86.5248
 44.0056  7463.75  85.6877
 44.0476  7656.84  86.4142
 44.0896  7583.98  86.3471
 44.1316  7669.54  86.3549
 44.1736  7702.83  86.6678
 44.2156  7665.36  86.3112
 44.2576  7525.79  85.846
 44.2996  7652.23  86.5388
 44.3416  7591.81  85.9342
 44.3836  7440.89  85.4149
 44.4256  7417.88  84.9295
 44.4676  7602.02  86.1377
 44.5096  7695.15  86.8086
 44.5516  7388.68  85.0164
 44.5936  7321.3  84.5939
 44.6356  7593.24  85.8871
 44.6776  7543.8  85.9294
 44.7196  7492.95  85.9392
 44.7616  7554.44  87.6206
 44.8036  7510.95  85.7813
 44.8456  7451.04  85.6399
 44.8876  7513.32  85.8436
 44.9296  7588.36  85.7261
 44.9716  7395.1  85.0524
 45.0136  7397.63  84.9987
 45.0556  7449.57  85.2679
 45.0976  7498.33  85.7115
 45.1396  7402.93  84.9156
 45.1816  7353.85  84.5829
 45.2236  7464.35  85.1174
 45.2656  7326.56  84.8261
 45.3076  7377.33  84.9011
 45.3496  7225.27  84.3257
 45.3916  7376.77  85.4648
 45.4336  7351.54  85.1673
 45.4756  7317.77  84.8257
 45.5176  7378.81  84.7959
 45.5596  7555.11  85.9313
 45.6016  7392.87  85.4192
 45.6436  7376.07  84.5065
 45.6856  7277.06  84.588
 45.7276  7259.11  85.7918
 45.7696  7225.61  85.2636
 45.8116  7344.19  85.4179
 45.8536  7328.27  85.2151
 45.8956  7316.83  84.5019
 45.9376  7325.78  84.0237
 45.9796  7288.53  84.4857
 46.0216  7389.48  85.4141
 46.0636  7458.6  84.9511
 46.1056  7341.35  84.2705
 46.1476  7276.19  84.4837
 46.1896  7257.87  84.523
 46.2316  7170.79  83.8879
 46.2736  7031.35  83.4279
 46.3156  7309.14  84.6447
 46.3576  7282.9  84.6957
 46.3996  7380.65  85.4218
 46.4416  7269.82  84.3596
 46.4836  7241.91  84.5519
 46.5256  7378.97  85.2865
 46.5676  7053.51  83.4953
 46.6096  7225.81  84.4434
 46.6516  7216.15  83.4408
 46.6936  7280.1  84.2942
 46.7356  7371.07  84.9171
 46.7776  7182.43  84.6675
 46.8196  7220.01  84.4893
 46.8616  7030.21  83.3174
 46.9036  7084.82  83.3081
 46.9456  7111.92  83.0997
 46.9876  7169.08  83.5211
 47.0296  7223.16  84.5223
 47.0716  7102.57  83.6373
 47.1136  7072.85  83.1334
 47.1556  7206.97  83.7956
 47.1976  7200.28  83.8257
 47.2396  7116.6  83.7434
 47.2816  7140.89  83.5959
 47.3236  7066.78  83.5185
 47.3656  7131.7  83.8405
 47.4076  7103.06  83.467
 47.4496  7034.99  83.1585
 47.4916  7109.81  83.7834
 47.5336  7104.01  83.5791
 47.5756  7161.21  84.0237
 47.6176  7054.48  83.2984
 47.6596  7075.21  83.1427
 47.7016  7150.62  83.3946
 47.7436  7061.89  83.2042
 47.7856  7172.17  83.8821
 47.8276  7032.31  83.1091
 47.8696  7101.38  83.5937
 47.9116  7074.09  83.1601
 47.9536  6996.81  82.6455
 47.9956  7111.57  84.0267
 48.0376  6921.62  82.6731
 48.0796  7027.54  83.4285
 48.1216  7022.88  83.2254
 48.1636  7190.68  83.7783
 48.2056  6990.19  82.8698
 48.2476  7023.9  83.3722
 48.2896  7032  83.3352
 48.3316  7115.37  83.7661
 48.3736  6960.8  82.8815
 48.4156  6958.45  82.7217
 48.4576  6955.02  82.9877
 48.4996  7051.08  83.0223
 48.5416  6999.97  83.0357
 48.5836  6951.35  82.4325
 48.6256  7031.39  83.1059
 48.6676  7042.86  83.6722
 48.7096  6998.78  82.6944
 48.7516  6849.09  81.9599
 48.7936  6871.69  82.158
 48.8356  6998.47  82.9593
 48.8776  6963.2  83.3215
 48.9196  7014.64  82.991
 48.9616  6860.59  82.4528
 49.0036  6970.07  83.4498
 49.0456  6813.83  82.4864
 49.0876  6912.4  82.6353
 49.1296  6862.63  82.4951
 49.1716  6800.04  82.0016
 49.2136  6841.8  82.1733
 49.2556  6873.1  82.389
 49.2976  6920.3  82.7371
 49.3396  6782.69  81.9683
 49.3816  6983.6  82.6049
 49.4236  6937.47  82.7542
 49.4656  6789.3  81.8877
 49.5076  6885.66  82.2093
 49.5496  6840.75  82.0135
 49.5916  6888.79  82.212
 49.6336  6849.3  82.1817
 49.6756  6872.18  82.5373
 49.7176  6888.94  82.5871
 49.7596  6891.52  82.3669
 49.8016  6942.76  82.6023
 49.8436  6820.06  82.1588
 49.8856  6853.29  82.3673
 49.9276  6690.28  81.4814
 49.9696  6776.62  81.9834
 50.0116  6840.7  82.5065
 50.0536  6671.11  81.4216
 50.0956  6715.7  81.7629
 50.1376  6811.84  82.0446
 50.1796  6696.65  81.6152
 50.2216  6788.33  82.1726
 50.2636  6766.34  81.6577
 50.3056  6713.19  81.5082
 50.3476  6773.73  81.8969
 50.3896  6697.81  81.4029
 50.4316  6733.21  81.4587
 50.4736  6716.09  81.5713
 50.5156  6746.11  81.7418
 50.5576  6829.48  82.0046
 50.5996  6755.8  81.8423
 50.6416  6698.82  81.4294
 50.6836  6710.36  81.555
 50.7256  6750.55  81.7304
 50.7676  6713.5  81.8159
 50.8096  6674.49  81.1105
 50.8516  6666.19  81.4819
 50.8936  6667.27  81.2512
 50.9356  6710.03  81.6296
 50.9776  6739.2  81.9649
 51.0196  6538.93  80.8727
 51.0616  6607.21  80.6318
 51.1036  6623.87  81.079
 51.1456  6660.06  81.2188
 51.1876  6602.25  80.2147
 51.2296  6604.16  80.8545
 51.2716  6593.92  80.4907
 51.3136  6634.36  81.191
 51.3556  6676.13  81.074
 51.3976  6539.01  80.3903
 51.4396  6380.85  79.7135
 51.4816  6545.2  80.5868
 51.5236  6581.45  80.8873
 51.5656  6465.47  79.7886
 51.6076  6614.5  80.7867
 51.6496  6498.85  80.2599
 51.6916  6465.97  80.4107
 51.7336  6570.62  81.1434
 51.7756  6521.36  80.547
 51.8176  6494.6  80.4797
 51.8596  6515.25  80.6274
 51.9016  6605.33  80.7951
 51.9436  6535.44  81.785
 51.9856  6425.39  81.525
 52.0276  6513.92  80.6108
 52.0696  6484.41  80.4883
 52.1116  6429.41  80.2598
 52.1536  6431.98  80.164
 52.1956  6585.35  80.5877
 52.2376  6636.29  81.0708
 52.2796  6556.95  80.3992
 52.3216  6409.45  80.1662
 52.3636  6499.41  80.3093
 52.4056  6420.1  79.6781
 52.4476  6438.06  80.1514
 52.4896  6427.9  80.1382
 52.5316  6358.88  79.7496
 52.5736  6483.39  80.2509
 52.6156  6556.67  81.0831
 52.6576  6467.8  79.9833
 52.6996  6263.68  79.6618
 52.7416  6422.22  80.5192
 52.7836  6391.34  80.1898
 52.8256  6438.22  79.7335
 52.8676  6382.22  79.9597
 52.9096  6428.6  80.3252
 52.9516  6383.48  80.4137
 52.9936  6336.72  80.5153
 53.0356  6290.38  79.2411
 53.0776  6317.74  79.6705
 53.1196  6179.57  78.917
 53.1616  6364.11  80.1338
 53.2036  6322.46  79.8225
 53.2456  6405.4  80.4544
 53.2876  6406.78  80.1661
 53.3296  6332.62  80.0235
 53.3716  6261.2  79.3152
 53.4136  6160.27  78.8238
 53.4556  6184.14  79.0053
 53.4976  6263.14  79.3598
 53.5396  6241.31  79.6148
 53.5816  6320.1  79.748
 53.6236  6233.19  79.5334
 53.6656  6221.07  79.0908
 53.7076  6238.31  79.1634
 53.7496  6289.78  79.5998
 53.7916  6319.4  79.9136
 53.8336  6198.98  79.0477
 53.8756  6176.93  79.4537
 53.9176  6240.58  79.2195
 53.9596  6313.61  80.4425
 54.0016  6234.32  79.2766
 54.0436  6213.19  79.3472
 54.0856  6361.64  79.7185
 54.1276  6257.51  79.2572
 54.1696  6252.3  79.4017
 54.2116  6219.3  78.945
 54.2536  6258.59  79.019
 54.2956  6236.06  78.9242
 54.3376  6145.23  78.8175
 54.3796  6255.44  79.4265
 54.4216  6420.33  80.5083
 54.4636  6270.72  79.5215
 54.5056  6284.13  79.4306
 54.5476  6185.36  79.1358
 54.5896  6261.58  79.4496
 54.6316  6274.29  79.3934
 54.6736  6233.97  79.2123
 54.7156  6291.56  79.5976
 54.7576  6130.32  78.573
 54.7996  6235.84  79.375
 54.8416  6229.41  79.3792
 54.8836  6129.53  78.8526
 54.9256  6137.86  78.6655
 54.9676  6286.97  79.4634
 55.0096  6103.21  78.3706
 55.0516  6159.97  78.9615
 55.0936  6225.43  79.0168
 55.1356  6062.57  78.0213
 55.1776  6207.81  79.2068
 55.2196  6225.87  79.1104
 55.2616  6200.33  79.1466
 55.3036  6095.99  78.6515
 55.3456  6209.06  79.5158
 55.3876  6175.27  79.0521
 55.4296  6204.39  79.2108
 55.4716  6270.91  79.6697
 55.5136  6318.15  79.7309
 55.5556  6197.39  79.028
 55.5976  6135.6  78.696
 55.6396  6092.1  78.3592
 55.6816  6157.12  78.6614
 55.7236  6161.83  78.7338
 55.7656  6150.78  78.4205
 55.8076  6206.55  78.7621
 55.8496  6200.24  79.0354
 55.8916  6077.16  78.4553
 55.9336  6143  78.6873
 55.9756  6115.78  78.4066
 56.0176  6131.8  78.6638
 56.0596  6097.73  78.43
 56.1016  6151.11  78.7806
 56.1436  6071.24  78.5299
 56.1856  6168.57  78.8979
 56.2276  6127.28  78.6821
 56.2696  6124.21  78.6415
 56.3116  6152.61  79.2172
 56.3536  6188.01  79.1117
 56.3956  6170.98  78.9933
 56.4376  6091.09  78.5097
 56.4796  6148.01  78.6852
 56.5216  6178.99  79.2501
 56.5636  6238.56  79.224
 56.6056  6123.9  78.7178
 56.6476  6144.47  78.4786
 56.6896  6041.61  78.2607
 56.7316  6079.81  78.4187
 56.7736  6160.53  78.9406
 56.8156  6150.24  78.8689
 56.8576  6114.75  78.5855
 56.8996  6077.05  78.2733
 56.9416  6155.12  79.0894
 56.9836  6031.49  77.8027
 57.0256  6135.72  78.7903
 57.0676  6114.39  78.7755
 57.1096  6156.79  78.8379
 57.1516  6184.23  79.0815
 57.1936  6123.31  78.4377
 57.2356  6166.63  79.0343
 57.2776  6147.12  78.857
 57.3196  6113.83  79.0217
 57.3616  6172.43  78.8901
 57.4036  6076.6  78.3363
 57.4456  6040.9  78.0681
 57.4876  6119.08  78.4419
 57.5296  6036.3  78.235
 57.5716  6027.56  78.1696
 57.6136  6101.49  78.4717
 57.6556  6045.47  78.2453
 57.6976  6109.02  78.4797
 57.7396  6059.38  78.5332
 57.7816  6024.29  78.6584
 57.8236  6058.6  78.6783
 57.8656  6095.16  78.5756
 57.9076  6054.67  78.3394
 57.9496  6017.28  78.4481
 57.9916  5987.72  77.7735
 58.0336  6033.18  78.3414
 58.0756  6125.87  78.5813
 58.1176  6064.91  78.1775
 58.1596  6112.95  79.0548
 58.2016  6189.83  78.776
 58.2436  6163.78  79.0276
 58.2856  6114.19  78.6248
 58.3276  6046.35  78.5633
 58.3696  6096.4  78.6406
 58.4116  6133.16  78.7273
 58.4536  6075.03  78.2492
 58.4956  5954.25  77.6426
 58.5376  6122.09  78.3057
 58.5796  6086.47  78.4982
 58.6216  5998.54  77.7492
 58.6636  6045.75  78.2638
 58.7056  6143.65  78.7547
 58.7476  5990.81  78.211
 58.7896  6103.57  78.5865
 58.8316  6155.11  78.9155
 58.8736  6059.59  78.2964
 58.9156  6019.32  78.0941
 58.9576  6232.71  79.7832
 58.9996  6220.69  78.9435
 59.0416  6184.2  79.0793
 59.0836  6139.69  78.7167
 59.1256  6084.08  79.0641
 59.1676  6084.34  79.3732
 59.2096  6153.04  79.1149
 59.2516  6126.96  78.5251
 59.2936  6169.3  79.1275
 59.3356  6101.66  78.5696
 59.3776  6138.33  78.9758
 59.4196  6022.94  78.1657
 59.4616  6086.37  78.4359
 59.5036  6078.35  78.42
 59.5456  6233.42  79.1022
 59.5876  6363.49  80.1194
 59.6296  5889.23  77.1444
 59.6716  6108.69  78.6269
 59.7136  6175.73  79.0454
 59.7556  6050.84  78.3786
 59.7976  6129.54  78.6269
 59.8396  6120.34  78.4614
 59.8816  6036.96  78.4708
 59.9236  6194.61  79.1275
 59.9656  6111.73  78.8581
 60.0076  6166.73  78.5633
 60.0496  6165.12  79.0579
 60.0916  6197.14  78.6777
 60.1336  6109.77  79.2348
 60.1756  6000.96  79.7066
 60.1996  0.0000000E+00  0.0000000E+00