File: docs/examples/opeando_xrd/IS17_D/Data/IS17_D/17_Da_f00087.xye
# /beamlines/bl04/projects/cycle2025-II/20250340211-lsimonelli/DATA/IS17_D/17_Da_f00087.xye : mythproc.py merge -s 0.006 -l 0.5 -f /beamlines/bl04/inhouse/ff/FlatField/ff_20Nov2024rod8mm60s_17keV.raw -b True -c true -o xye /beamlines/bl04/projects/cycle2025-II/20250340211-lsimonelli/DATA/IS17_D/17_Da_00087.dat
# IsMon = [6772711, 6770045, 6771032]  IsPos = [-1.4999, -2.4884, -3.4988]
# Wave = 0.4962  CalPath /beamlines/bl04/projects/cycle2025-II/20250340211-lsimonelli/DATA/Align/Si_Pos1_25keV_f00001.cal
# Date = 2025-09-24_17:47:14 Dt = 4.8000  Bin = 0.0060  <imon> = 6771263 +/- 1101 (Min/Max) 6770045 / 6772711
# icurr 250.9104  mocoIn 1.7107E-05  mocoOut 0.8030  i15 7.08901e+06  imon 6.77126e+06  i7 7.6667  iEMpd_timer 4.8000  iEMpd_1 3.3588E-08  iEMpd_2 7.8674E-08  iEMpd_3 1.6599E-08  iEMpd_4 4.6594E-08  iEMhp_timer 4.8000  iEMhp_1 4.9004E-06  iEMhp_2 -2.5864E-08  iEMhp_3 -2.4300E-08  iEMhp_4 -2.1453E-08
#      9776
 1.5856  40474.9  206.562
 1.6276  47359.3  219.605
 1.6696  53766.8  233.165
 1.7116  62681.4  252.245
 1.7536  71845.4  268.905
 1.7956  77102.6  279.266
 1.8376  72937.2  272.048
 1.8796  60940.6  246.852
 1.9216  49017.4  222.263
 1.9636  41264.9  203.093
 2.0056  37531.1  192.938
 2.0476  34520.7  187.067
 2.0896  33381.7  182.876
 2.1316  32089.1  178.439
 2.1736  30858.2  176.371
 2.2156  31093.5  175.621
 2.2576  30027.5  173.202
 2.2996  28904.3  170.557
 2.3416  29177.5  169.991
 2.3836  28349.3  167.666
 2.4256  27477.4  165.606
 2.4676  27141.7  164.358
 2.5096  26951.3  163.834
 2.5516  26514  166.287
 2.5936  26770.6  163.71
 2.6356  26105.1  162.344
 2.6776  26007.7  160.943
 2.7196  25604.8  160.198
 2.7616  25615.5  160.01
 2.8036  25139  158.688
 2.8456  25030.7  158.953
 2.8876  24671.8  157.696
 2.9296  24186.7  156.255
 2.9716  24123.1  155.545
 3.0136  23762.7  154.445
 3.0556  23952.2  155.455
 3.0976  23620.9  153.32
 3.1396  23599.3  153.968
 3.1816  23200.5  152.589
 3.2236  23168.4  152.475
 3.2656  23249.5  151.806
 3.3076  22876.4  152.007
 3.3496  23406.6  152.711
 3.3916  23492.1  152.812
 3.4336  23919.1  154.766
 3.4756  24458.6  156.417
 3.5176  25358.8  159.076
 3.5596  25258.7  161.174
 3.6016  25539.4  159.699
 3.6436  24646  157.981
 3.6856  24096.1  154.52
 3.7276  23073.1  152.281
 3.7696  23118.2  152.621
 3.8116  22565.4  150.669
 3.8536  22755.3  151.229
 3.8956  22791  151.184
 3.9376  22608.6  150.827
 3.9796  22572.5  150.22
 4.0216  22684.8  149.638
 4.0636  22651.9  150.996
 4.1056  22758.5  150.993
 4.1476  22649.3  150.935
 4.1896  22911.4  151.673
 4.2316  23241.8  152.585
 4.2736  23616.1  153.599
 4.3156  24078.6  155.327
 4.3576  24583.8  156.877
 4.3996  24820.8  157.883
 4.4416  25497.9  159.608
 4.4836  25932.9  161.12
 4.5256  26461.5  163.356
 4.5676  26386.3  163.384
 4.6096  26862.9  163.505
 4.6516  27231.1  164.338
 4.6936  27322.9  165.427
 4.7356  27537.6  165.904
 4.7776  27543.3  165.757
 4.8196  27182.3  165.304
 4.8616  26862.4  163.821
 4.9036  26432.7  162.241
 4.9456  26449.1  162.945
 4.9876  25973.1  161.374
 5.0296  26277.9  162.138
 5.0716  26074.7  162.287
 5.1136  26318.4  162.743
 5.1556  26516.3  162.827
 5.1976  26913  164.025
 5.2396  27192.6  164.58
 5.2816  27031  164.543
 5.3236  27082.8  164.412
 5.3656  26800.7  164.475
 5.4076  26548.7  163.851
 5.4496  26683.7  163.758
 5.4916  26893.3  164.151
 5.5336  27030.4  164.581
 5.5756  26488.4  162.939
 5.6176  26996.9  163.935
 5.6596  27136.4  165.329
 5.7016  27399.4  165.397
 5.7436  27433.3  165.777
 5.7856  27365.4  165.619
 5.8276  27767.9  166.563
 5.8696  27737.3  166.64
 5.9116  27830.4  167.528
 5.9536  27896.2  167.47
 5.9956  28133.8  167.551
 6.0376  28287.4  168.648
 6.0796  28416  168.865
 6.1216  28659  169.794
 6.1636  28716.3  169.015
 6.2056  28657.7  169.516
 6.2476  28922.6  170.165
 6.2896  29192.2  170.635
 6.3316  29028.4  170.325
 6.3736  29122.3  170.499
 6.4156  29123.3  170.392
 6.4576  29368.5  170.721
 6.4996  29488.5  171.555
 6.5416  29594.4  171.995
 6.5836  29432.6  171.755
 6.6256  29529.9  171.6
 6.6676  30031.7  172.62
 6.7096  29817.4  172.848
 6.7516  30295.6  173.886
 6.7936  30440  173.728
 6.8356  30490.9  173.953
 6.8776  30791.1  175.617
 6.9196  30889.6  176.292
 6.9616  31369  177.102
 7.0036  31757.8  177.844
 7.0456  31979.4  177.754
 7.0876  31597.7  178.374
 7.1296  31660.1  177.692
 7.1716  31520.2  176.832
 7.2136  31324  176.07
 7.2556  31676.4  177.219
 7.2976  31978.5  178.562
 7.3396  31636.6  177.821
 7.3816  31545.7  177.776
 7.4236  31735.8  177.6
 7.4656  32000.7  177.832
 7.5076  32163.9  178.415
 7.5496  32152.5  178.923
 7.5916  31961.6  178.419
 7.6336  32591  180.065
 7.6756  32787  180.456
 7.7176  32865.6  180.979
 7.7596  32634.7  181.584
 7.8016  33250.5  185.447
 7.8436  33748.8  183.539
 7.8856  34239.5  184.48
 7.9276  34521.2  185.629
 7.9696  34788  186.657
 8.0116  35857.5  188.037
 8.0536  35776.7  188.082
 8.0956  35921.1  189.636
 8.1376  36369.4  190.287
 8.1796  36349.2  190.781
 8.2216  37323.2  192.052
 8.2636  37361.2  192.395
 8.3056  37346.2  193.131
 8.3476  38110.6  194.423
 8.3896  37444.8  192.799
 8.4316  37981.4  194.334
 8.4736  38138.9  194.198
 8.5156  37490.8  192.817
 8.5576  37073.8  192.72
 8.5996  37355.4  192.319
 8.6416  37308.6  193.464
 8.6836  37015  192.533
 8.7256  37799.2  194
 8.7676  37051  194.971
 8.8096  36740.5  191.451
 8.8516  36821.6  191.274
 8.8936  36270.4  189.711
 8.9356  36064.4  189.529
 8.9776  36384.8  190.47
 9.0196  36245.3  189.771
 9.0616  36555.4  190.049
 9.1036  35885.7  189.497
 9.1456  35995.3  189.143
 9.1876  35850.9  188.711
 9.2296  36221.3  189.087
 9.2716  35477.4  187.197
 9.3136  35445.7  187.091
 9.3556  35728  187.822
 9.3976  34241.2  184.395
 9.4396  34629.3  185.33
 9.4816  34198.5  184.033
 9.5236  34527.9  184.834
 9.5656  34079.5  183.952
 9.6076  33935.9  184.1
 9.6496  33706.7  183.397
 9.6916  33820.5  183.684
 9.7336  33744.8  183.25
 9.7756  34127.7  185.562
 9.8176  33165.9  182.421
 9.8596  32884.9  180.099
 9.9016  32574.5  179.241
 9.9436  32129.4  177.923
 9.9856  32087.8  178.023
 10.0276  31524.5  177.564
 10.0696  31828.6  177.46
 10.1116  30987.1  175.356
 10.1536  30648.5  174.564
 10.1956  30270.7  173.087
 10.2376  30229.6  172.474
 10.2796  30486.2  173.336
 10.3216  29882.6  171.878
 10.3636  30068.8  172.447
 10.4056  29775.9  172.005
 10.4476  29845.5  171.825
 10.4896  30219.5  172.346
 10.5316  29576.9  171.217
 10.5736  29155.5  170.399
 10.6156  28908.3  169.438
 10.6576  29365.1  169.329
 10.6996  28755.9  168.241
 10.7416  28212.6  166.874
 10.7836  28468.4  168.333
 10.8256  27892.6  167.047
 10.8676  28259.3  167.674
 10.9096  27631.5  165.836
 10.9516  27705.4  164.982
 10.9936  27445.8  164.404
 11.0356  27547.5  165.353
 11.0776  27303.2  163.926
 11.1196  26830.3  163.228
 11.1616  26523.4  162.004
 11.2036  26572.8  162.006
 11.2456  26426.8  162.269
 11.2876  26395.4  161.896
 11.3296  26299.1  161.503
 11.3716  26623.4  162.18
 11.4136  26687.6  163.288
 11.4556  26866.6  163.499
 11.4976  27319.2  163.828
 11.5396  27181.4  163.585
 11.5816  26778  162.824
 11.6236  26239.3  161.399
 11.6656  26128  160.203
 11.7076  25444.5  158.933
 11.7496  25149  161.935
 11.7916  25237.2  157.55
 11.8336  25100.4  158.008
 11.8756  24646.2  156.106
 11.9176  25025.8  156.965
 11.9596  24522.2  155.558
 12.0016  24478  156.215
 12.0436  24548.9  155.857
 12.0856  24267.1  155.491
 12.1276  24401.3  155.826
 12.1696  24368.5  154.869
 12.2116  24350.8  154.809
 12.2536  24196.9  155.149
 12.2956  24280.4  154.752
 12.3376  23905.3  153.744
 12.3796  24143.7  154.975
 12.4216  24169.3  154.278
 12.4636  23963  154.537
 12.5056  24233.2  154.672
 12.5476  24270.2  154.319
 12.5896  24131.4  154.513
 12.6316  23702.8  153.279
 12.6736  23756.3  153.945
 12.7156  23779.3  153.876
 12.7576  24003.9  154.848
 12.7996  24172.8  154.033
 12.8416  23911.2  154.249
 12.8836  24312.4  155.368
 12.9256  24460.5  154.846
 12.9676  24654.9  155.894
 13.0096  24231.4  155.633
 13.0516  24471.2  155.451
 13.0936  24509.7  155.954
 13.1356  24758.3  155.742
 13.1776  24270.5  155.188
 13.2196  24670.9  156.118
 13.2616  24577.4  156.137
 13.3036  24599.5  156.173
 13.3456  24565.9  156.424
 13.3876  24475  155.42
 13.4296  24635.8  156.081
 13.4716  24700.4  155.894
 13.5136  24521.2  155.483
 13.5556  24525.8  156.114
 13.5976  24678.1  156.731
 13.6396  24724.3  156.255
 13.6816  24309.5  155.426
 13.7236  25148.7  157.733
 13.7656  24392.2  155.869
 13.8076  24553.9  155.176
 13.8496  24261.3  154.841
 13.8916  24213.1  155.697
 13.9336  24176.9  154.807
 13.9756  24165.3  154.116
 14.0176  24065.6  154.486
 14.0596  24087.3  154.515
 14.1016  23747.8  153.812
 14.1436  23562.6  152.347
 14.1856  23171.7  151.376
 14.2276  22917  151.017
 14.2696  23320.5  152.181
 14.3116  23119.6  151.432
 14.3536  22655.2  150.079
 14.3956  22611.9  149.669
 14.4376  22609.6  149.437
 14.4796  22703.8  149.742
 14.5216  22233.7  148.975
 14.5636  22182.1  148.366
 14.6056  22331.8  148.442
 14.6476  22166.7  147.13
 14.6896  21906.1  146.8
 14.7316  21564  146.676
 14.7736  21516.1  145.669
 14.8156  21392.4  145.276
 14.8576  21187.6  144.429
 14.8996  20827.9  144.4
 14.9416  20457.3  143.12
 14.9836  20507.7  143.246
 15.0256  20190.8  141.08
 15.0676  20389.8  142.092
 15.1096  20339.3  141.652
 15.1516  19975.1  140.941
 15.1936  19845.9  139.908
 15.2356  19560.5  139.173
 15.2776  19507.9  138.575
 15.3196  19204.6  138.496
 15.3616  19137  138.004
 15.4036  19015.6  137.423
 15.4456  19323.8  138.185
 15.4876  18974.6  136.609
 15.5296  18736.1  136.032
 15.5716  18469.5  134.664
 15.6136  18611.2  135.504
 15.6556  18575.4  134.616
 15.6976  18348.7  134.084
 15.7396  18247.5  134.106
 15.7816  18241.6  133.591
 15.8236  17927.2  133.133
 15.8656  17848.7  132.628
 15.9076  17782.3  132.215
 15.9496  17598.4  134.294
 15.9916  17644  134.924
 16.0336  17308.2  130.518
 16.0756  17619  131.999
 16.1176  17349.1  131.057
 16.1596  17052.3  131.109
 16.2016  17188.1  130.374
 16.2436  16969.1  129.926
 16.2856  16829  128.932
 16.3276  16618  128.535
 16.3696  17002.3  129.829
 16.4116  16657.3  128.971
 16.4536  16842.7  129.463
 16.4956  16672.4  128.549
 16.5376  16501.1  128.066
 16.5796  16488.4  127.382
 16.6216  16618  128.191
 16.6636  16511.2  127.939
 16.7056  16472.2  127.647
 16.7476  16454.8  127.103
 16.7896  16398.3  127.643
 16.8316  16342.3  127.386
 16.8736  16470  128.14
 16.9156  16263.4  127.669
 16.9576  16267.6  128.495
 16.9996  16235.4  128.862
 17.0416  16320.3  127.54
 17.0836  16196.4  126.816
 17.1256  15840  125.426
 17.1676  15890.9  125.62
 17.2096  15786.8  125.084
 17.2516  15761.4  124.767
 17.2936  15840.2  125.401
 17.3356  15466.5  123.915
 17.3776  15594  124.619
 17.4196  15549.7  124.133
 17.4616  15310.7  123.098
 17.5036  15292.3  123.392
 17.5456  15060.9  123.089
 17.5876  15089.5  122.256
 17.6296  15284.7  122.863
 17.6716  14985.4  122.219
 17.7136  14942.4  122.186
 17.7556  14992.5  122.686
 17.7976  15007  122.487
 17.8396  14720.4  120.812
 17.8816  14855.9  121.916
 17.9236  14777.2  121.399
 17.9656  14926.7  122.557
 18.0076  14930.2  122.145
 18.0496  14881.4  121.078
 18.0916  14985.5  122.043
 18.1336  14965.8  122.064
 18.1756  15174  122.43
 18.2176  14946.4  121.738
 18.2596  14986.9  121.636
 18.3016  15058.6  122.191
 18.3436  15216.9  122.829
 18.3856  14811.9  121.318
 18.4276  14879.2  121.255
 18.4696  14903.9  121.461
 18.5116  14791.3  121.296
 18.5536  14887.9  122.057
 18.5956  14558.5  120.241
 18.6376  14438.5  120.156
 18.6796  14481.2  119.653
 18.7216  14604  120.653
 18.7636  14405.2  119.813
 18.8056  14226  119.01
 18.8476  14234.1  119.67
 18.8896  14401.6  119.702
 18.9316  14446.7  119.877
 18.9736  14392.2  119.342
 19.0156  14236.1  119.103
 19.0576  14183.2  117.738
 19.0996  14457.7  119.596
 19.1416  14164.3  118.763
 19.1836  14194.9  118.498
 19.2256  14043.9  118.077
 19.2676  14114.6  118.467
 19.3096  14184  119.006
 19.3516  14089.8  118.562
 19.3936  13997.5  118.081
 19.4356  14108.7  118.414
 19.4776  13998.5  118.053
 19.5196  14109  118.368
 19.5616  14051.4  118.385
 19.6036  14105.2  118.104
 19.6456  14235.5  118.768
 19.6876  14191.8  118.234
 19.7296  14106.6  118.328
 19.7716  13976.1  117.947
 19.8136  14149.9  118.881
 19.8556  14281.8  118.91
 19.8976  14348.3  119.255
 19.9396  14450.1  119.251
 19.9816  14612.9  120.173
 20.0236  14732.4  120.878
 20.0656  14688.4  120.696
 20.1076  14374.2  119.859
 20.1496  13989.4  118.253
 20.1916  13984.6  117.742
 20.2336  13832.6  117.042
 20.2756  13660.6  116.737
 20.3176  13441  115.545
 20.3596  13652  116.425
 20.4016  13637.4  116.165
 20.4436  13577.9  116.466
 20.4856  13405.2  115.516
 20.5276  13501.9  116.4
 20.5696  13364.4  115.252
 20.6116  13368  115.548
 20.6536  13367.2  115.064
 20.6956  13249.5  114.674
 20.7376  13199.4  114.69
 20.7796  13234.4  114.524
 20.8216  13374.1  114.831
 20.8636  13150.7  114.229
 20.9056  13310.1  114.88
 20.9476  13133.6  113.947
 20.9896  13482.8  115.326
 21.0316  13284.8  114.375
 21.0736  13200.1  114.529
 21.1156  13257.5  114.934
 21.1576  13291.1  115.132
 21.1996  13148.5  114.488
 21.2416  13124.4  114.213
 21.2836  13209.6  114.555
 21.3256  12942.2  113.462
 21.3676  13169.6  114.009
 21.4096  13007.3  113.612
 21.4516  12892.1  112.991
 21.4936  12846.5  113.046
 21.5356  13044.6  113.856
 21.5776  13062.6  113.77
 21.6196  12907.8  113.116
 21.6616  12899  113.174
 21.7036  12948  113.167
 21.7456  12888.1  112.981
 21.7876  12874.5  112.673
 21.8296  12797.3  112.191
 21.8716  12721.4  112.086
 21.9136  13061.3  113.776
 21.9556  12843.4  112.492
 21.9976  12594  111.412
 22.0396  12634  111.841
 22.0816  12716.4  112.749
 22.1236  12880.5  112.924
 22.1656  12869.4  113.002
 22.2076  13028.4  113.176
 22.2496  12793.4  112.177
 22.2916  12743.8  111.837
 22.3336  12598  111.924
 22.3756  12698.4  112.087
 22.4176  12722.8  112.05
 22.4596  12661.7  112.37
 22.5016  12761.9  112.291
 22.5436  12936  112.95
 22.5856  12639.7  111.896
 22.6276  12574  111.742
 22.6696  12678.3  112.551
 22.7116  12660.4  111.989
 22.7536  12779.5  112.489
 22.7956  12801.5  111.914
 22.8376  12701.6  111.999
 22.8796  12669.9  111.656
 22.9216  12826.1  112.889
 22.9636  12754.3  111.728
 23.0056  12748.7  111.835
 23.0476  12647.2  111.958
 23.0896  12985.2  112.817
 23.1316  12863.1  112.72
 23.1736  12622.5  114.621
 23.2156  12787.7  112.715
 23.2576  12670.7  112.318
 23.2996  12577.7  111.706
 23.3416  12614.8  112.376
 23.3836  12587.4  111.497
 23.4256  12723  112.204
 23.4676  12599  111.36
 23.5096  12622.5  112.139
 23.5516  12550.8  111.102
 23.5936  12628.7  112.348
 23.6356  12858.6  113.029
 23.6776  12678.1  112.451
 23.7196  12526.3  111.358
 23.7616  12726.8  112.162
 23.8036  12524.3  111.299
 23.8456  12726.2  111.771
 23.8876  12324.8  110.334
 23.9296  12277.9  110.613
 23.9716  12421  110.458
 24.0136  12358.9  111.073
 24.0556  12247.2  110.308
 24.0976  12061.6  109.281
 24.1396  12184.5  112.479
 24.1816  12210.3  111.02
 24.2236  12240.4  110.768
 24.2656  11988.3  109.096
 24.3076  11903.5  108.958
 24.3496  12079.8  109.658
 24.3916  11830.6  108.556
 24.4336  12003.9  109.567
 24.4756  11844.3  108.709
 24.5176  11846.3  108.364
 24.5596  11811.3  108.331
 24.6016  11639.6  107.826
 24.6436  11547.5  106.89
 24.6856  11629.3  107.033
 24.7276  11659.1  107.491
 24.7696  11686.4  107.726
 24.8116  11468.7  106.904
 24.8536  11547.9  107.262
 24.8956  11451.9  106.555
 24.9376  11539.7  106.901
 24.9796  11227.5  105.795
 25.0216  11103.5  105.316
 25.0636  11459.1  106.645
 25.1056  11253.8  106.389
 25.1476  11347.2  108.509
 25.1896  11344  106.96
 25.2316  11366.1  106.327
 25.2736  11215.6  105.281
 25.3156  11198  105.269
 25.3576  11228.8  105.832
 25.3996  11156.6  105.471
 25.4416  11154.2  105.452
 25.4836  11070.8  105.581
 25.5256  11088.1  105.026
 25.5676  11219.3  105.374
 25.6096  11068  105.236
 25.6516  11089.7  104.834
 25.6936  10995.8  104.701
 25.7356  11006.4  104.886
 25.7776  11106.6  104.969
 25.8196  10853.8  104
 25.8616  10992.2  104.582
 25.9036  11053.4  104.346
 25.9456  11025.4  104.815
 25.9876  10979.3  104.655
 26.0296  11130.6  104.888
 26.0716  10932.5  104.365
 26.1136  11044.8  104.845
 26.1556  11127.7  104.612
 26.1976  10647.5  103.244
 26.2396  10927.3  103.746
 26.2816  10976.3  104.595
 26.3236  11002.1  104.877
 26.3656  10932.2  104.26
 26.4076  10990.1  104.752
 26.4496  11410  106.168
 26.4916  11175.8  105.125
 26.5336  10918.2  104.228
 26.5756  11127.8  105.099
 26.6176  10857.2  103.855
 26.6596  10748.1  103.626
 26.7016  10831.1  103.792
 26.7436  10657.7  103.085
 26.7856  10634.1  102.957
 26.8276  10683.2  103.148
 26.8696  10614.2  102.691
 26.9116  10606.2  102.592
 26.9536  10622.3  102.713
 26.9956  10505.7  102.187
 27.0376  10452.7  102.137
 27.0796  10610.7  102.639
 27.1216  10401.6  101.696
 27.1636  10317.9  101.454
 27.2056  10440.4  101.937
 27.2476  10594.7  102.688
 27.2896  10510.7  102.395
 27.3316  10384.1  101.486
 27.3736  10380.8  101.739
 27.4156  10375  101.542
 27.4576  10348.2  101.65
 27.4996  10266.4  100.842
 27.5416  10384.3  101.738
 27.5836  10248.9  100.891
 27.6256  10790.2  103.662
 27.6676  10545.3  102.531
 27.7096  10323.1  101.313
 27.7516  10292.2  101.313
 27.7936  10208.3  101.06
 27.8356  10326.4  101.267
 27.8776  10216.8  100.762
 27.9196  10136.3  100.227
 27.9616  10322.3  101.331
 28.0036  10216.2  100.781
 28.0456  10256.5  101.116
 28.0876  10120.7  100.532
 28.1296  10087.4  100.207
 28.1716  10055.7  100.051
 28.2136  10148.3  100.478
 28.2556  10031.4  100.015
 28.2976  9998.97  99.8497
 28.3396  10072.9  99.9784
 28.3816  10147.3  100.365
 28.4236  10017.8  99.8745
 28.4656  9950.91  99.5777
 28.5076  9833.57  98.6249
 28.5496  9937.75  99.4077
 28.5916  10018.2  99.6149
 28.6336  9798.35  98.8556
 28.6756  9966.28  98.902
 28.7176  9986.42  99.5471
 28.7596  9797.36  98.5053
 28.8016  9968.43  99.3931
 28.8436  9723.77  98.4095
 28.8856  9913.73  99.2144
 28.9276  9839.72  99.0889
 28.9696  9804.61  98.5719
 29.0116  9883.83  99.1534
 29.0536  9642.9  98.134
 29.0956  9748.26  98.3845
 29.1376  9638.54  97.7982
 29.1796  9716.93  98.2376
 29.2216  9632.37  97.6554
 29.2636  9741.98  98.2858
 29.3056  9687.7  97.8009
 29.3476  9626.88  98.0136
 29.3896  9696.51  98.4554
 29.4316  9861.28  98.641
 29.4736  9797.14  98.3827
 29.5156  9852  98.5768
 29.5576  9725.75  98.6875
 29.5996  9729.35  97.9598
 29.6416  9668.05  97.7711
 29.6836  9782.66  98.2751
 29.7256  9737.52  98.6183
 29.7676  9709.59  98.1275
 29.8096  9760.12  98.3287
 29.8516  9488.84  97.2868
 29.8936  9741.48  98.6689
 29.9356  9751.66  98.4733
 29.9776  9524.87  97.4758
 30.0196  9689.29  97.6949
 30.0616  9717.59  98.2165
 30.1036  9575.29  97.3149
 30.1456  9559.27  97.4717
 30.1876  9615.38  97.737
 30.2296  9519.67  97.1894
 30.2716  9654.34  97.5165
 30.3136  9771.79  98.9713
 30.3556  9536  97.779
 30.3976  9494.74  99.0967
 30.4396  9620.2  97.0596
 30.4816  9640.77  96.7631
 30.5236  9579.84  96.4713
 30.5656  9510.74  96.7796
 30.6076  9454.28  95.9222
 30.6496  9582.1  96.9571
 30.6916  9330.57  95.7714
 30.7336  9415.49  96.3547
 30.7756  9433.34  96.5365
 30.8176  9383.3  96.1972
 30.8596  9318.59  95.6379
 30.9016  9462.97  96.7165
 30.9436  9450.41  96.4041
 30.9856  9469.08  96.6073
 31.0276  9355.01  95.6194
 31.0696  9219.19  95.5045
 31.1116  9281.33  95.8055
 31.1536  9349.75  96.0442
 31.1956  9354.53  96.154
 31.2376  9240  95.5725
 31.2796  9342.93  95.641
 31.3216  9378.68  95.7642
 31.3636  9416.57  96.659
 31.4056  9348.96  97.6494
 31.4476  9260.01  95.0562
 31.4896  9158.21  95.0321
 31.5316  9246.5  94.8952
 31.5736  9304.77  95.0107
 31.6156  9237.17  94.6849
 31.6576  9472.77  95.98
 31.6996  9223.47  94.3794
 31.7416  9240.24  95.5273
 31.7836  9287.07  94.7847
 31.8256  9210.45  94.6623
 31.8676  9296.42  95.1008
 31.9096  9107.48  94.4856
 31.9516  9076.11  94.4686
 31.9936  9137  94.626
 32.0356  9133.91  94.6764
 32.0776  9206.69  94.9352
 32.1196  9258.41  95.2939
 32.1616  9216.41  94.5333
 32.2036  9020.84  94.0264
 32.2456  9091.48  94.7788
 32.2876  9165.54  94.6602
 32.3296  8980.06  93.6587
 32.3716  9118.22  94.4873
 32.4136  9077.95  94.4921
 32.4556  9190.81  94.4533
 32.4976  9260.31  94.7146
 32.5396  9054.93  93.731
 32.5816  9022.1  93.6777
 32.6236  9077.91  94.04
 32.6656  9069.02  94.5301
 32.7076  8962  93.6339
 32.7496  8990.73  93.4567
 32.7916  9158.95  94.2791
 32.8336  9016.16  93.6406
 32.8756  9074  93.6511
 32.9176  8783.64  92.6298
 32.9596  8970.07  93.6788
 33.0016  8984.11  93.5479
 33.0436  9043.62  94.0319
 33.0856  8964.84  93.6878
 33.1276  8856.66  92.8575
 33.1696  8905.68  92.9503
 33.2116  9024.33  93.8
 33.2536  8918.53  93.2474
 33.2956  8876.33  93.1088
 33.3376  8809.07  92.4988
 33.3796  8964.53  93.5206
 33.4216  8967.21  93.1352
 33.4636  8944.88  93.165
 33.5056  8790.82  92.596
 33.5476  8777.83  92.5156
 33.5896  8959.66  93.2379
 33.6316  8814.62  92.7961
 33.6736  8647.79  92.1633
 33.7156  8810.25  93.0665
 33.7576  8855.23  92.9298
 33.7996  8915.05  93.0143
 33.8416  8758.87  92.38
 33.8836  8772.61  92.2224
 33.9256  8704.41  91.9222
 33.9676  8851.69  92.5921
 34.0096  8700.72  92.1155
 34.0516  8734.28  91.9334
 34.0936  8657.62  91.7968
 34.1356  8769.95  92.1238
 34.1776  8688.72  91.7161
 34.2196  8684.48  91.8689
 34.2616  8571.77  91.4082
 34.3036  8686.95  92.2641
 34.3456  8698.84  92.084
 34.3876  8661.06  91.843
 34.4296  8652.67  91.4945
 34.4716  8629.73  91.5175
 34.5136  8613.69  91.6403
 34.5556  8710.63  92.4103
 34.5976  8621.62  91.7426
 34.6396  8615.08  91.4176
 34.6816  8543.34  91.1418
 34.7236  8660.61  91.5559
 34.7656  8678.08  91.8365
 34.8076  8530.09  91.3713
 34.8496  8603.31  91.6256
 34.8916  8565.41  91.2975
 34.9336  8633.75  91.6266
 34.9756  8603.84  91.385
 35.0176  8647.19  92.1514
 35.0596  8535.07  91.3679
 35.1016  8603.87  91.5083
 35.1436  8661.85  91.5027
 35.1856  8458.51  90.5493
 35.2276  8450.1  90.6773
 35.2696  8524.85  91.2688
 35.3116  8506.77  91.2665
 35.3536  8481.94  90.8348
 35.3956  8387.65  90.0425
 35.4376  8356.02  90.4228
 35.4796  8469.67  91.1019
 35.5216  8406.97  90.72
 35.5636  8317.94  90.9807
 35.6056  8460.79  90.7757
 35.6476  8481.69  90.7869
 35.6896  8408.2  90.4732
 35.7316  8318.08  89.9587
 35.7736  8368.21  90.4338
 35.8156  8330.04  90.2225
 35.8576  8509.56  91.4423
 35.8996  8522.29  91.4671
 35.9416  8606.1  91.3666
 35.9836  8300.41  90.1296
 36.0256  8430.85  90.8608
 36.0676  8453.43  90.7444
 36.1096  8305.08  90.0776
 36.1516  8458.94  90.7968
 36.1936  8395.43  90.3034
 36.2356  8444.9  91.2083
 36.2776  8336.29  90.1086
 36.3196  8260.65  89.3693
 36.3616  8317.63  89.8065
 36.4036  8276.85  89.6367
 36.4456  8277.95  89.8531
 36.4876  8237.09  89.5735
 36.5296  8291.25  89.9059
 36.5716  8327.44  90.8894
 36.6136  8442.45  90.276
 36.6556  8485.82  90.7209
 36.6976  8332.44  90.3958
 36.7396  8331.03  90.1221
 36.7816  8292.19  90.2824
 36.8236  8220.2  89.8129
 36.8656  8290.19  90.2701
 36.9076  8102.89  89.1215
 36.9496  8261.17  89.975
 36.9916  8241.52  89.4969
 37.0336  8504.7  91.2359
 37.0756  8333.54  90.1031
 37.1176  8132.14  89.276
 37.1596  8239.46  89.8577
 37.2016  8225.08  90.0174
 37.2436  8282.97  89.6476
 37.2856  8119.51  89.0143
 37.3276  8409.16  89.9279
 37.3696  8194.59  89.6605
 37.4116  8257.75  89.9087
 37.4536  8090.41  88.8637
 37.4956  8107.87  88.9994
 37.5376  8090.06  90.4554
 37.5796  8171.84  90.8605
 37.6216  7895.65  87.6008
 37.6636  8056.55  88.3812
 37.7056  8109.38  88.8677
 37.7476  8141.2  88.5686
 37.7896  8165.18  89.2016
 37.8316  7814.45  87.4341
 37.8736  8116.48  88.6406
 37.9156  8052.17  88.288
 37.9576  8071.68  88.2876
 37.9996  7890.48  87.0084
 38.0416  8002.49  88.4318
 38.0836  8256.06  89.7268
 38.1256  8065.27  88.6307
 38.1676  7955.28  88.173
 38.2096  7903.76  87.5118
 38.2516  8135.3  88.989
 38.2936  7997.53  88.0278
 38.3356  8104.06  88.5353
 38.3776  8048.61  88.5049
 38.4196  8067.88  88.463
 38.4616  7982.68  88.2178
 38.5036  8072.64  88.5718
 38.5456  7871.76  88.2923
 38.5876  8052.96  89.339
 38.6296  7830.56  87.0784
 38.6716  7945.82  87.5074
 38.7136  7972.65  87.5985
 38.7556  7803.93  87.1689
 38.7976  7981.05  88.0886
 38.8396  7813.54  87.6088
 38.8816  7749.65  87.0353
 38.9236  7986.55  88.1645
 38.9656  7796.02  87.0185
 39.0076  7854.42  86.7568
 39.0496  7923.02  87.6625
 39.0916  7958.74  87.508
 39.1336  7846.89  87.3114
 39.1756  7838.54  87.3339
 39.2176  7855.27  87.9592
 39.2596  7848.23  87.8369
 39.3016  7934.98  87.8884
 39.3436  7747.43  87.2677
 39.3856  7924.48  87.7084
 39.4276  7797.54  87.4894
 39.4696  7893.55  87.6593
 39.5116  7680.45  86.9647
 39.5536  7986.77  89.1214
 39.5956  7998.65  88.2857
 39.6376  7998.88  88.2915
 39.6796  7875.55  87.3474
 39.7216  8009.47  88.1814
 39.7636  7948.55  88.4162
 39.8056  7959.85  88.2603
 39.8476  7903.88  88.2053
 39.8896  7903.09  87.8262
 39.9316  7890.73  88.0153
 39.9736  8002.39  88.2049
 40.0156  7970.25  87.846
 40.0576  7800.48  87.2708
 40.0996  8004.29  87.5778
 40.1416  7955.61  88.1037
 40.1836  7986.85  88.1613
 40.2256  7976  88.1532
 40.2676  7867.15  87.6532
 40.3096  7978.19  88.199
 40.3516  8085.32  88.8939
 40.3936  8090.55  88.4837
 40.4356  7903.35  87.6481
 40.4776  8079.2  89.032
 40.5196  7989.87  88.6582
 40.5616  8050.4  88.6364
 40.6036  7812.78  87.5704
 40.6456  7977.42  88.0972
 40.6876  8063.11  88.5521
 40.7296  8070.58  88.7408
 40.7716  8115.93  89.1177
 40.8136  7886.08  87.7911
 40.8556  8001.01  88.5564
 40.8976  7895.78  87.8986
 40.9396  7936.74  88.4724
 40.9816  8016.87  88.1963
 41.0236  7950.63  87.6135
 41.0656  8069.79  88.8176
 41.1076  8023.2  88.3316
 41.1496  7919.5  87.6673
 41.1916  7917.45  87.9814
 41.2336  7900.09  87.8651
 41.2756  7919.96  87.5875
 41.3176  7977.31  88.5159
 41.3596  7987.71  88.301
 41.4016  7922.09  88.2013
 41.4436  7951.86  88.1524
 41.4856  8010.36  88.642
 41.5276  7853.14  87.7808
 41.5696  7930.68  87.8485
 41.6116  7852.5  87.805
 41.6536  8011.18  88.5498
 41.6956  7819.64  87.5319
 41.7376  7874.51  87.8752
 41.7796  7868.72  87.7262
 41.8216  7896.94  88.1163
 41.8636  7988.39  88.5669
 41.9056  7905.57  87.8893
 41.9476  7896.88  88.075
 41.9896  7975.14  88.1712
 42.0316  7987.02  88.323
 42.0736  7817.88  87.4945
 42.1156  7905.66  87.8209
 42.1576  7885.85  87.8095
 42.1996  7850.02  87.7548
 42.2416  7931.55  87.7939
 42.2836  7880.44  87.6221
 42.3256  7826.43  87.4344
 42.3676  7929.53  87.8076
 42.4096  7929.52  87.775
 42.4516  7804.15  87.1654
 42.4936  7772.23  87.0517
 42.5356  7810.37  87.4041
 42.5776  7952.94  88.1341
 42.6196  7902.85  87.9151
 42.6616  7609.24  86.4343
 42.7036  7923.02  87.5777
 42.7456  7797.44  87.233
 42.7876  7754.79  87.0902
 42.8296  7774.54  87.041
 42.8716  7744.49  87.0294
 42.9136  7792.48  87.0893
 42.9556  7731.9  86.8815
 42.9976  7899.17  87.781
 43.0396  7842.11  87.1941
 43.0816  7705.62  86.8098
 43.1236  7718.95  86.9402
 43.1656  7715.88  86.7554
 43.2076  7711.58  86.8303
 43.2496  7759.98  86.9201
 43.2916  7819.14  87.6178
 43.3336  7694.59  86.7572
 43.3756  7667.92  86.3603
 43.4176  7605.39  86.0907
 43.4596  7669.05  86.3035
 43.5016  7661.9  86.6705
 43.5436  7702.07  86.7965
 43.5856  7680.06  86.6977
 43.6276  7691.7  86.6585
 43.6696  7670.74  86.8006
 43.7116  7716.15  86.5501
 43.7536  7696.8  86.9301
 43.7956  7523.56  87.1091
 43.8376  7581.39  86.0195
 43.8796  7602.94  86.2226
 43.9216  7600.73  86.1236
 43.9636  7818.29  87.4549
 44.0056  7638.9  86.6855
 44.0476  7583.35  85.9991
 44.0896  7552.69  86.1682
 44.1316  7593.13  85.9212
 44.1736  7647.57  86.3554
 44.2156  7573.01  85.7871
 44.2576  7594.91  86.2374
 44.2996  7661.14  86.5809
 44.3416  7530.47  85.5959
 44.3836  7425.74  85.3263
 44.4256  7455.41  85.1456
 44.4676  7515.67  85.6466
 44.5096  7589.55  86.2069
 44.5516  7403.16  85.1087
 44.5936  7457.96  85.3785
 44.6356  7555.8  85.6672
 44.6776  7480.55  85.5623
 44.7196  7459.8  85.7506
 44.7616  7476.33  87.1617
 44.8036  7390.92  85.0932
 44.8456  7531.56  86.0925
 44.8876  7457.21  85.5264
 44.9296  7523.86  85.3647
 44.9716  7413.72  85.1657
 45.0136  7532.51  85.7767
 45.0556  7423.77  85.1295
 45.0976  7300.98  84.5944
 45.1396  7345.69  84.597
 45.1816  7393.05  84.8192
 45.2236  7447.99  85.0245
 45.2656  7384.98  85.1695
 45.3076  7332.14  84.6387
 45.3496  7361.59  85.1225
 45.3916  7369.45  85.431
 45.4336  7330.6  85.0502
 45.4756  7395.47  85.2805
 45.5176  7367.99  84.7406
 45.5596  7468.25  85.4381
 45.6016  7255.92  84.6299
 45.6436  7294.31  84.0446
 45.6856  7286.13  84.6457
 45.7276  7277.23  85.896
 45.7696  7368.78  86.1089
 45.8116  7435.22  85.9372
 45.8536  7302.02  85.0536
 45.8956  7444.03  85.2292
 45.9376  7400.36  84.4466
 45.9796  7350.34  84.8393
 46.0216  7334.78  85.0954
 46.0636  7422.7  84.745
 46.1056  7319.93  84.1443
 46.1476  7335.4  84.8206
 46.1896  7383.36  85.2504
 46.2316  7370.89  85.0467
 46.2736  7235.43  84.6262
 46.3156  7376.11  85.0309
 46.3576  7297.54  84.7777
 46.3996  7326.83  85.1101
 46.4416  7310.61  84.5943
 46.4836  7255.03  84.6236
 46.5256  7250.21  84.5325
 46.5676  7190.56  84.2985
 46.6096  7258.98  84.6347
 46.6516  7309.25  83.9744
 46.6936  7344.48  84.6655
 46.7356  7371.62  84.9256
 46.7776  7235.71  84.9816
 46.8196  7135.2  83.9868
 46.8616  7029.62  83.3106
 46.9036  7110.46  83.4498
 46.9456  7157.73  83.3742
 46.9876  7168.73  83.5173
 47.0296  7135.2  84.0034
 47.0716  7025.71  83.1843
 47.1136  7125.65  83.4471
 47.1556  7111.54  83.2376
 47.1976  7158.85  83.5939
 47.2396  7099.85  83.6394
 47.2816  7034.57  82.9681
 47.3236  7069.67  83.5389
 47.3656  7088.2  83.5787
 47.4076  7082.51  83.3499
 47.4496  7056.4  83.2779
 47.4916  7058.32  83.4854
 47.5336  7150  83.843
 47.5756  7218.09  84.3528
 47.6176  7072.02  83.3986
 47.6596  7038.65  82.9265
 47.7016  7110.74  83.1547
 47.7436  7092.06  83.3882
 47.7856  7086.16  83.3764
 47.8276  7039.27  83.1549
 47.8696  7031.62  83.1899
 47.9116  7094.86  83.2804
 47.9536  7013.72  82.7425
 47.9956  7009.77  83.4232
 48.0376  6943.79  82.8079
 48.0796  7084.28  83.7628
 48.1216  7193.94  84.2335
 48.1636  7236.51  84.0504
 48.2056  7123.71  83.6616
 48.2476  7124.51  83.9702
 48.2896  6968.01  82.9574
 48.3316  7012.63  83.1669
 48.3736  6920.86  82.6397
 48.4156  6926.1  82.5254
 48.4576  6993.74  83.2157
 48.4996  7080.65  83.1962
 48.5416  7012.22  83.1097
 48.5836  6973.51  82.5573
 48.6256  7056.26  83.2528
 48.6676  7018.02  83.5417
 48.7096  6932  82.3064
 48.7516  6994.32  82.8202
 48.7936  6860.25  82.0856
 48.8356  7019.06  83.082
 48.8776  6852.07  82.6493
 48.9196  7051.07  83.2073
 48.9616  6911.1  82.7494
 49.0036  6938.34  83.2631
 49.0456  6885.16  82.9277
 49.0876  6905.73  82.5891
 49.1296  6771.48  81.9319
 49.1716  6735.06  81.6019
 49.2136  6958  82.8645
 49.2556  6872.68  82.3883
 49.2976  6909.79  82.6715
 49.3396  6738.94  81.7068
 49.3816  6892.76  82.0658
 49.4236  6876.41  82.386
 49.4656  6790.13  81.8936
 49.5076  6917.43  82.4039
 49.5496  6770.69  81.5911
 49.5916  6867.04  82.0805
 49.6336  6851.58  82.1919
 49.6756  6919.56  82.8118
 49.7176  6855.06  82.3847
 49.7596  6891.51  82.3697
 49.8016  6853.86  82.069
 49.8436  6835.49  82.2534
 49.8856  6798.8  82.0351
 49.9276  6753.66  81.8632
 49.9696  6822.75  82.2565
 50.0116  6730.63  81.8394
 50.0536  6791.01  82.1441
 50.0956  6796.06  82.2471
 50.1376  6743.05  81.6292
 50.1796  6660.36  81.3906
 50.2216  6717.87  81.7351
 50.2636  6712.41  81.3319
 50.3056  6719.21  81.5422
 50.3476  6771.89  81.8865
 50.3896  6736.62  81.6424
 50.4316  6776.18  81.7129
 50.4736  6689.43  81.4079
 50.5156  6657.95  81.2052
 50.5576  6714.04  81.3139
 50.5996  6683.89  81.4072
 50.6416  6707.52  81.4803
 50.6836  6717.15  81.5913
 50.7256  6837.01  82.2459
 50.7676  6747.86  82.0184
 50.8096  6722.23  81.4141
 50.8516  6647.76  81.3671
 50.8936  6656.95  81.206
 50.9356  6772.06  82.012
 50.9776  6675.87  81.5741
 51.0196  6522.23  80.7675
 51.0616  6603.25  80.6024
 51.1036  6648.36  81.226
 51.1456  6693.32  81.4164
 51.1876  6577.24  80.0537
 51.2296  6708.63  81.4872
 51.2716  6567.62  80.3338
 51.3136  6640.21  81.2233
 51.3556  6665.89  81.0158
 51.3976  6638.9  80.9965
 51.4396  6429.54  80.0117
 51.4816  6587.22  80.8361
 51.5236  6558.36  80.7502
 51.5656  6591.06  80.5591
 51.6076  6626.66  80.8587
 51.6496  6560.39  80.6369
 51.6916  6493.49  80.5783
 51.7336  6658.64  81.6868
 51.7756  6514.63  80.4978
 51.8176  6566.45  80.9283
 51.8596  6437.48  80.1442
 51.9016  6575.81  80.6072
 51.9436  6457.06  81.3028
 51.9856  6448.33  81.6728
 52.0276  6554.4  80.8585
 52.0696  6547.06  80.8794
 52.1116  6581.05  81.2135
 52.1536  6509.35  80.6511
 52.1956  6561.01  80.4496
 52.2376  6734.58  81.6606
 52.2796  6622.35  80.7982
 52.3216  6412.39  80.189
 52.3636  6482.01  80.2081
 52.4056  6456.98  79.9103
 52.4476  6405.48  79.9513
 52.4896  6372.13  79.7956
 52.5316  6450.06  80.3211
 52.5736  6481.25  80.2537
 52.6156  6508.03  80.7892
 52.6576  6595.06  80.7738
 52.6996  6251.02  79.5882
 52.7416  6430.68  80.5788
 52.7836  6472.26  80.7126
 52.8256  6427.05  79.6679
 52.8676  6318.33  79.5667
 52.9096  6510.81  80.8469
 52.9516  6438.41  80.7668
 52.9936  6433.75  81.1281
 53.0356  6274.68  79.1381
 53.0776  6262.89  79.3172
 53.1196  6296.6  79.6571
 53.1616  6303.86  79.7511
 53.2036  6264.49  79.4418
 53.2456  6164.37  78.9225
 53.2876  6352.04  79.8171
 53.3296  6397.98  80.4317
 53.3716  6324.19  79.7133
 53.4136  6293.51  79.6692
 53.4556  6212.71  79.1869
 53.4976  6186.11  78.8673
 53.5396  6266.24  79.7648
 53.5816  6258.4  79.3543
 53.6236  6218.36  79.4302
 53.6656  6329.03  79.7729
 53.7076  6265.77  79.3333
 53.7496  6274.02  79.4992
 53.7916  6313.46  79.8802
 53.8336  6183.71  78.9497
 53.8756  6227.79  79.7761
 53.9176  6294.66  79.5608
 53.9596  6345.29  80.6466
 54.0016  6239.26  79.305
 54.0436  6186.01  79.1743
 54.0856  6310.91  79.3981
 54.1276  6269.03  79.3334
 54.1696  6182.39  78.9507
 54.2116  6337.7  79.6923
 54.2536  6222.16  78.7831
 54.2956  6237.52  78.93
 54.3376  6200.25  79.1663
 54.3796  6161.97  78.8281
 54.4216  6311.9  79.8258
 54.4636  6318.18  79.8242
 54.5056  6273.58  79.3632
 54.5476  6259.15  79.603
 54.5896  6204.78  79.0955
 54.6316  6250.81  79.2424
 54.6736  6338.69  79.8743
 54.7156  6244.48  79.2932
 54.7576  6120.38  78.5089
 54.7996  6292.87  79.7373
 54.8416  6260.78  79.5814
 54.8836  6053.45  78.3658
 54.9256  6149.31  78.7365
 54.9676  6285.58  79.4582
 55.0096  6178.1  78.8502
 55.0516  6282.71  79.7502
 55.0936  6285.61  79.3993
 55.1356  6198.91  78.8882
 55.1776  6168.11  78.9504
 55.2196  6308.38  79.6316
 55.2616  6170.1  78.9632
 55.3036  6114.66  78.7658
 55.3456  6191.24  79.4082
 55.3876  6202.17  79.2234
 55.4296  6219.49  79.3112
 55.4716  6158.03  78.9524
 55.5136  6154.19  78.688
 55.5556  6177.24  78.9022
 55.5976  6158.84  78.8365
 55.6396  6175.19  78.8939
 55.6816  6113.73  78.3832
 55.7236  6250.09  79.295
 55.7656  6154.74  78.4468
 55.8076  6269.2  79.1599
 55.8496  6198.73  79.0273
 55.8916  6169.91  79.0432
 55.9336  6169.52  78.8524
 55.9756  6141.13  78.5688
 56.0176  6210.45  79.1658
 56.0596  6153.09  78.7825
 56.1016  6206.97  79.1378
 56.1436  6096.77  78.6935
 56.1856  6182.17  78.9817
 56.2276  6120.12  78.6374
 56.2696  6107.72  78.5273
 56.3116  6020.9  78.3696
 56.3536  6071.74  78.364
 56.3956  6232.26  79.3823
 56.4376  6116.97  78.6785
 56.4796  6165.03  78.7905
 56.5216  6146.44  79.0452
 56.5636  6186.38  78.8943
 56.6056  6132.79  78.7728
 56.6476  6128.36  78.3787
 56.6896  6145.24  78.9279
 56.7316  6134.21  78.7777
 56.7736  6153.55  78.8944
 56.8156  6154.78  78.9051
 56.8576  6097.91  78.4778
 56.8996  6130.54  78.6278
 56.9416  6086.94  78.6458
 56.9836  6063.06  78.0056
 57.0256  6118.61  78.6804
 57.0676  6140.78  78.9461
 57.1096  6098.67  78.4673
 57.1516  6127.88  78.7218
 57.1936  6099.35  78.2846
 57.2356  6167.24  79.0385
 57.2776  6047.76  78.2164
 57.3196  6133.73  79.1486
 57.3616  6103.84  78.4507
 57.4036  6167.99  78.9222
 57.4456  6033.91  78.0198
 57.4876  6079.35  78.1766
 57.5296  6056.52  78.3694
 57.5716  6081.71  78.5113
 57.6136  6159.46  78.8402
 57.6556  6120.01  78.7252
 57.6976  6133.86  78.6395
 57.7396  6015.56  78.2486
 57.7816  6049.22  78.822
 57.8236  5995.43  78.268
 57.8656  6132.44  78.8133
 57.9076  6124.51  78.7873
 57.9496  6089.32  78.9167
 57.9916  5992.77  77.804
 58.0336  6003.33  78.1473
 58.0756  6102.94  78.4273
 58.1176  6122.87  78.5488
 58.1596  5991.18  78.2599
 58.2016  6149.09  78.5127
 58.2436  6123.85  78.7665
 58.2856  6074.05  78.3675
 58.3276  6088.89  78.8377
 58.3696  6042.26  78.2805
 58.4116  6092.25  78.4726
 58.4536  6147.32  78.7117
 58.4956  5995.05  77.9074
 58.5376  6181.77  78.6848
 58.5796  6005.84  77.9749
 58.6216  6141.95  78.6648
 58.6636  6133.39  78.8304
 58.7056  6047.99  78.1357
 58.7476  5994.82  78.2356
 58.7896  6156.59  78.9208
 58.8316  6040.31  78.1722
 58.8736  6125.17  78.7291
 58.9156  5958.75  77.6958
 58.9576  6128.03  79.1125
 58.9996  6184.4  78.7053
 59.0416  6286.4  79.7234
 59.0836  6157.21  78.8327
 59.1256  5977.73  78.3663
 59.1676  6047.45  79.1356
 59.2096  6090.26  78.7174
 59.2516  6286.04  79.5452
 59.2936  6253.17  79.6708
 59.3356  6219.38  79.3311
 59.3776  6162.07  79.1355
 59.4196  6055.77  78.3863
 59.4616  6076.58  78.38
 59.5036  6095.66  78.5372
 59.5456  6158.84  78.6347
 59.5876  6218.93  79.2113
 59.6296  6041.68  78.1436
 59.6716  6049.52  78.2523
 59.7136  6208.48  79.2618
 59.7556  6056.86  78.4246
 59.7976  6064.23  78.2139
 59.8396  6139.34  78.5902
 59.8816  6185.04  79.4341
 59.9236  6164.07  78.9394
 59.9656  6065.08  78.5635
 60.0076  6239.77  79.0343
 60.0496  6070.61  78.4577
 60.0916  6246.3  78.9964
 60.1336  6090.44  79.1165
 60.1756  6011.49  79.7837
 60.1996  0.0000000E+00  0.0000000E+00