File: docs/examples/opeando_xrd/IS17_D/Data/IS17_D/17_Db_f00050.xye
# /beamlines/bl04/projects/cycle2025-II/20250340211-lsimonelli/DATA/IS17_D/17_Db_f00050.xye : mythproc.py merge -s 0.006 -l 0.5 -f /beamlines/bl04/inhouse/ff/FlatField/ff_20Nov2024rod8mm60s_17keV.raw -b True -c true -o xye /beamlines/bl04/projects/cycle2025-II/20250340211-lsimonelli/DATA/IS17_D/17_Db_00050.dat
# IsMon = [6795114, 6791747, 6795671]  IsPos = [-1.4999, -2.4885, -3.4986]
# Wave = 0.4962  CalPath /beamlines/bl04/projects/cycle2025-II/20250340211-lsimonelli/DATA/Align/Si_Pos1_25keV_f00001.cal
# Date = 2025-09-24_07:37:38 Dt = 4.8000  Bin = 0.0060  <imon> = 6794177 +/- 1733 (Min/Max) 6791747 / 6795671
# icurr 253.1621  mocoIn 1.7270E-05  mocoOut 0.8105  i15 7.1118e+06  imon 6.79418e+06  i7 4.6667  iEMpd_timer 4.8000  iEMpd_1 3.4714E-08  iEMpd_2 7.9394E-08  iEMpd_3 1.8114E-08  iEMpd_4 4.7909E-08  iEMhp_timer 4.8000  iEMhp_1 4.9456E-06  iEMhp_2 -2.4534E-08  iEMhp_3 -2.3307E-08  iEMhp_4 -2.1451E-08
#      9776
 1.5856  45341.7  218.636
 1.6276  51756.8  229.583
 1.6696  58115.9  242.421
 1.7116  65647.4  258.154
 1.7536  72916.6  270.913
 1.7956  77213.5  279.478
 1.8376  74078.7  274.179
 1.8796  63549  252.083
 1.9216  53124.5  231.396
 1.9636  46022.1  214.49
 2.0056  41656.2  203.272
 2.0476  39330.7  199.682
 2.0896  37936.2  194.96
 2.1316  36723.9  190.898
 2.1736  34787.5  187.271
 2.2156  35911  188.744
 2.2576  34510.6  185.69
 2.2996  32861.7  181.865
 2.3416  33614.5  182.469
 2.3836  32658  179.964
 2.4256  31924.3  178.511
 2.4676  31170.4  176.14
 2.5096  31144.9  176.126
 2.5516  29892.4  176.545
 2.5936  29800.6  172.727
 2.6356  29267.7  171.891
 2.6776  29178.3  170.5
 2.7196  28788.4  169.864
 2.7616  28653  169.243
 2.8036  28195.4  168.057
 2.8456  28136.5  168.537
 2.8876  27678.2  166.986
 2.9296  26998.7  165.081
 2.9716  26947.1  164.409
 3.0136  26877.1  164.261
 3.0556  26778  164.36
 3.0976  26751.3  163.133
 3.1396  26178.2  162.142
 3.1816  26104.9  161.855
 3.2236  25778.6  160.842
 3.2656  25682.1  159.555
 3.3076  25676.5  161.047
 3.3496  25915.3  160.931
 3.3916  26189.1  161.336
 3.4336  26600.4  163.208
 3.4756  26579.4  163.077
 3.5176  27436.6  165.458
 3.5596  27178.2  167.162
 3.6016  27392.3  165.39
 3.6436  26285.5  163.148
 3.6856  26100.1  160.829
 3.7276  24881.3  158.136
 3.7696  24863.6  158.262
 3.8116  24317.8  156.407
 3.8536  24718.6  157.616
 3.8956  24524.7  156.823
 3.9376  24222.5  156.15
 3.9796  24200.7  155.528
 4.0216  24263.6  154.759
 4.0636  24112.3  155.765
 4.1056  24234.9  155.816
 4.1476  24412.8  156.688
 4.1896  24558.2  157.008
 4.2316  24727.5  157.367
 4.2736  25263.6  158.868
 4.3156  25221  158.965
 4.3576  26216.5  161.974
 4.3996  26091.7  161.671
 4.4416  26874.3  163.855
 4.4836  27091.8  164.685
 4.5256  27779  167.371
 4.5676  27466.6  166.691
 4.6096  28096  167.217
 4.6516  28383.2  167.774
 4.6936  28478.9  168.887
 4.7356  28825  169.734
 4.7776  28484.5  168.562
 4.8196  28601.3  169.556
 4.8616  27935.8  167.195
 4.9036  27750.8  166.232
 4.9456  27576.4  166.375
 4.9876  26984  164.478
 5.0296  27202  164.971
 5.0716  26958.5  164.859
 5.1136  27094.2  165.135
 5.1556  27299.2  165.211
 5.1976  27881.3  166.944
 5.2396  28027.2  167.076
 5.2816  28002.1  167.476
 5.3236  28006.5  167.174
 5.3656  27348.8  166.15
 5.4076  27154.5  165.695
 5.4496  27106.4  165.045
 5.4916  27432.7  165.783
 5.5336  27360.5  165.578
 5.5756  27270.1  165.309
 5.6176  27435.2  165.249
 5.6596  27833.4  167.442
 5.7016  27647.1  166.137
 5.7436  27755.5  166.747
 5.7856  27662.6  166.535
 5.8276  27990.9  167.232
 5.8696  28146.8  167.87
 5.9116  27860.2  167.584
 5.9536  28468.4  169.169
 5.9956  28399.9  168.356
 6.0376  28811.2  170.2
 6.0796  28723.6  169.77
 6.1216  28691.1  169.876
 6.1636  29117.1  170.175
 6.2056  28829.4  170.02
 6.2476  29290.3  171.235
 6.2896  29356.8  171.104
 6.3316  29611.7  172.024
 6.3736  29425.4  171.376
 6.4156  29961.8  172.8
 6.4576  29891.5  172.23
 6.4996  29840.9  172.572
 6.5416  29984.9  173.117
 6.5836  30007.9  173.421
 6.6256  30089.2  173.208
 6.6676  30726  174.592
 6.7096  30655.3  175.26
 6.7516  30928.5  175.695
 6.7936  31461  176.334
 6.8356  31327.3  176.311
 6.8776  31324.1  177.12
 6.9196  31611.1  178.333
 6.9616  31948.4  178.681
 7.0036  32441.5  179.737
 7.0456  32502.6  179.194
 7.0876  32360.5  180.509
 7.1296  32327.9  179.542
 7.1716  32423  179.34
 7.2136  32062.9  178.128
 7.2556  32305.9  178.951
 7.2976  32554.2  180.132
 7.3396  32192.4  179.372
 7.3816  32216.5  179.647
 7.4236  32712.4  180.312
 7.4656  32811.8  180.035
 7.5076  32853.7  180.304
 7.5496  32643.9  180.268
 7.5916  32986.4  181.262
 7.6336  33438.6  182.381
 7.6756  33554.3  182.544
 7.7176  33849.7  183.673
 7.7596  33392.4  183.656
 7.8016  34514.8  188.991
 7.8436  33900.9  183.948
 7.8856  34087.9  184.065
 7.9276  34664.9  186.002
 7.9696  35077.4  187.425
 8.0116  35868.9  188.426
 8.0536  36137.1  189.021
 8.0956  36130.9  190.2
 8.1376  36261.2  190.003
 8.1796  36804.4  191.971
 8.2216  37280  191.926
 8.2636  37430.6  192.572
 8.3056  37361.8  193.157
 8.3476  37830.9  193.7
 8.3896  37652.1  193.759
 8.4316  38190.3  194.869
 8.4736  37933.7  193.677
 8.5156  37907.6  193.891
 8.5576  37451.2  193.699
 8.5996  37207.2  191.935
 8.6416  37400  193.707
 8.6836  36994.7  192.472
 8.7256  37730.3  193.837
 8.7676  37338.7  195.742
 8.8096  37861.5  194.36
 8.8516  37592.6  193.247
 8.8936  37276.7  192.373
 8.9356  37502.1  193.288
 8.9776  37234.3  192.68
 9.0196  37346.3  192.638
 9.0616  37299.7  192.013
 9.1036  36548.8  191.246
 9.1456  36699.7  190.957
 9.1876  36752.7  191.044
 9.2296  36479.4  189.768
 9.2716  36001.6  188.562
 9.3136  36396.7  189.584
 9.3556  36697.9  190.345
 9.3976  35341  187.317
 9.4396  35411.5  187.4
 9.4816  35353  187.11
 9.5236  35267.4  186.781
 9.5656  34934.2  186.249
 9.6076  34083.8  184.496
 9.6496  34412  185.269
 9.6916  33964.2  184.015
 9.7336  34309.3  184.73
 9.7756  33993.2  185.263
 9.8176  34015  184.742
 9.8596  33864.3  182.758
 9.9016  33390.9  181.465
 9.9436  33062  180.478
 9.9856  32574.9  179.419
 10.0276  32369.9  179.937
 10.0696  32990.1  180.666
 10.1116  31564.6  176.986
 10.1536  31639.9  177.354
 10.1956  31456  176.454
 10.2376  31134.9  175.043
 10.2796  30734.7  174.024
 10.3216  30385.7  173.334
 10.3636  30351.6  173.265
 10.4056  29601.2  171.515
 10.4476  29878.4  171.912
 10.4896  30054.5  171.866
 10.5316  29368.8  170.625
 10.5736  29012.2  169.998
 10.6156  29083.6  169.949
 10.6576  28940.2  168.107
 10.6996  28657.8  167.987
 10.7416  28270.5  167.066
 10.7836  27839.5  166.452
 10.8256  27653.2  166.318
 10.8676  27561.1  165.584
 10.9096  27421.6  165.188
 10.9516  27206.1  163.487
 10.9936  27369.8  164.181
 11.0356  26851.4  163.228
 11.0776  26688.5  162.073
 11.1196  26449.3  162.108
 11.1616  26159.7  160.896
 11.2036  26204.9  160.873
 11.2456  26028  161.045
 11.2876  26404.8  161.924
 11.3296  25649  159.5
 11.3716  26171  160.798
 11.4136  25985  161.113
 11.4556  26026.3  160.895
 11.4976  26519.8  161.411
 11.5396  26659.3  162.017
 11.5816  27523.1  165.064
 11.6236  27694.5  166.04
 11.6656  27366.3  163.946
 11.7076  26386.2  161.837
 11.7496  25874  164.308
 11.7916  25631.5  158.756
 11.8336  25011.1  157.753
 11.8756  24837.4  156.722
 11.9176  24964.5  157.037
 11.9596  25221.1  157.762
 12.0016  24882.5  157.489
 12.0436  25177.3  157.845
 12.0856  24496.9  156.207
 12.1276  24552.2  156.337
 12.1696  24513.7  155.323
 12.2116  24462.6  155.168
 12.2536  24380.6  155.721
 12.2956  24366.9  155.016
 12.3376  24607.9  155.992
 12.3796  24404.1  155.83
 12.4216  24461.7  155.203
 12.4636  24055.8  154.851
 12.5056  24385.2  155.162
 12.5476  24418.3  154.775
 12.5896  24051.2  154.262
 12.6316  24123.4  154.64
 12.6736  23980.7  154.526
 12.7156  24093.8  154.877
 12.7576  24174.3  155.4
 12.7996  24247  154.251
 12.8416  23978.8  154.454
 12.8836  24510.3  155.976
 12.9256  24675  155.527
 12.9676  24608.5  155.737
 13.0096  24819.4  157.521
 13.0516  24962.6  156.994
 13.0936  24866.2  157.104
 13.1356  25253.4  157.272
 13.1776  24949.4  157.353
 13.2196  25125.2  157.541
 13.2616  24837.5  156.959
 13.3036  25088.4  157.711
 13.3456  24808.5  156.966
 13.3876  25165.1  157.56
 13.4296  24843  156.724
 13.4716  24948.4  156.68
 13.5136  24900.5  156.657
 13.5556  24706.1  156.691
 13.5976  25053.9  157.952
 13.6396  24897.8  156.816
 13.6816  25083.9  157.877
 13.7236  25432.4  158.55
 13.7656  26949  163.669
 13.8076  27486.9  163.908
 13.8496  27041.1  163.259
 13.8916  25376.3  159.322
 13.9336  24414.2  155.547
 13.9756  24486.6  155.139
 14.0176  24118.8  154.657
 14.0596  24290.7  155.128
 14.1016  24146  155.099
 14.1436  24320  154.771
 14.1856  23515.1  152.486
 14.2276  23515.8  152.97
 14.2696  23478.7  152.707
 14.3116  22900.8  150.727
 14.3536  22908.5  150.911
 14.3956  22707.3  149.983
 14.4376  23073  150.961
 14.4796  22895.7  150.374
 14.5216  22588.4  150.16
 14.5636  22411.9  149.142
 14.6056  22663.4  149.523
 14.6476  22526.4  148.315
 14.6896  22157.6  147.641
 14.7316  21765.3  147.372
 14.7736  21680  146.223
 14.8156  21425.5  145.375
 14.8576  21507.4  145.515
 14.8996  20994.1  144.971
 14.9416  20625.9  143.704
 14.9836  20671.2  143.843
 15.0256  20018  140.476
 15.0676  20276.8  141.694
 15.1096  19928.2  140.206
 15.1516  19712.1  140.011
 15.1936  19645.5  139.197
 15.2356  19406.2  138.624
 15.2776  19453.2  138.379
 15.3196  18980.5  137.683
 15.3616  18962.2  137.366
 15.4036  18746.4  136.451
 15.4456  19004  136.8
 15.4876  18702.8  135.625
 15.5296  18385.1  134.758
 15.5716  18404.6  134.428
 15.6136  18412.4  134.793
 15.6556  18268.5  133.497
 15.6976  18339.4  133.834
 15.7396  17938.3  132.955
 15.7816  18016.1  132.76
 15.8236  17599.5  131.902
 15.8656  17710.9  132.121
 15.9076  17603.9  131.546
 15.9496  18232.9  136.71
 15.9916  18062.5  136.478
 16.0336  18003.9  133.073
 16.0756  17816.3  132.713
 16.1176  17543.1  131.774
 16.1596  17273.6  131.943
 16.2016  17186.9  130.36
 16.2436  17006.4  130.049
 16.2856  17100.8  129.912
 16.3276  16779.9  129.143
 16.3696  16937.2  129.575
 16.4116  16709.1  129.142
 16.4536  17003.1  130.082
 16.4956  17022.8  129.886
 16.5376  16840.1  129.375
 16.5796  16692.5  128.174
 16.6216  16838.9  128.995
 16.6636  16422.6  127.591
 16.7056  16968.6  129.548
 16.7476  16406.4  127.054
 16.7896  16672  128.687
 16.8316  16524.9  128.097
 16.8736  16780.2  129.339
 16.9156  16393.6  128.161
 16.9576  16487.6  129.347
 16.9996  16362.8  129.331
 17.0416  16636.6  128.787
 17.0836  16792.1  129.141
 17.1256  16467.5  127.894
 17.1676  16556.9  128.195
 17.2096  16422.8  127.574
 17.2516  16352.1  127.089
 17.2936  16189.8  126.803
 17.3356  16058.8  126.272
 17.3776  16100.2  126.632
 17.4196  15868  125.418
 17.4616  15844.7  125.23
 17.5036  15480.8  124.154
 17.5456  15474.3  124.747
 17.5876  15396.7  123.498
 17.6296  15418.7  123.409
 17.6716  15405  123.936
 17.7136  15214.5  123.29
 17.7556  14978.1  122.621
 17.7976  14954  122.14
 17.8396  15019.9  122.04
 17.8816  14874.5  122.01
 17.9236  14889  121.856
 17.9656  14631.2  121.468
 18.0076  14717.6  121.256
 18.0496  14654.5  120.136
 18.0916  14635  120.593
 18.1336  14548.4  120.343
 18.1756  14875.8  121.238
 18.2176  14304.1  119.093
 18.2596  14341.1  118.981
 18.3016  14620.8  120.401
 18.3436  14631.9  120.674
 18.3856  14443.5  119.799
 18.4276  14484.8  119.659
 18.4696  14294.2  118.951
 18.5116  14418.9  119.744
 18.5536  14280.3  119.521
 18.5956  14159.1  118.584
 18.6376  14129.7  118.866
 18.6796  14206.2  118.495
 18.7216  14269  119.326
 18.7636  14196.3  118.95
 18.8056  14092  118.434
 18.8476  14086.3  118.735
 18.8896  14089.7  118.392
 18.9316  14144.2  118.441
 18.9736  14071.5  117.999
 19.0156  13930.3  117.802
 19.0576  14314.1  118.264
 19.0996  14297.3  118.919
 19.1416  14077.1  118.395
 19.1836  13956.2  117.491
 19.2256  13788.6  117.006
 19.2676  14065.7  118.258
 19.3096  13996.8  118.22
 19.3516  13941.2  117.943
 19.3936  13930.9  117.861
 19.4356  14175.2  118.7
 19.4776  14043.2  118.238
 19.5196  13974.2  117.802
 19.5616  13828.8  117.444
 19.6036  14051.6  117.742
 19.6456  13910.5  117.408
 19.6876  13840.3  116.748
 19.7296  14100.1  118.302
 19.7716  13899.3  117.48
 19.8136  14104.2  118.686
 19.8556  14265.9  118.848
 19.8976  14209.8  118.674
 19.9396  14307.7  118.663
 19.9816  14243.7  118.653
 20.0236  14525.6  120.013
 20.0656  14769.5  121.021
 20.1076  15119.8  122.932
 20.1496  15106  122.872
 20.1916  15274.3  123.053
 20.2336  14873.1  121.338
 20.2756  14442.4  120.023
 20.3176  14218.3  118.826
 20.3596  13946  117.677
 20.4016  13991.5  117.659
 20.4436  13809.6  117.47
 20.4856  13825.4  117.313
 20.5276  13651.3  117.044
 20.5696  13819.6  117.197
 20.6116  13458.5  115.943
 20.6536  13347.1  115.021
 20.6956  13512.8  115.812
 20.7376  13264.4  114.96
 20.7796  13364.4  115.075
 20.8216  13655.6  116.035
 20.8636  13485.1  115.686
 20.9056  13446.4  115.463
 20.9476  13322.3  114.767
 20.9896  13499.9  115.397
 21.0316  13211.1  114.057
 21.0736  13274.4  114.848
 21.1156  13156  114.5
 21.1576  13301.7  115.17
 21.1996  13209.8  114.751
 21.2416  13287.9  114.913
 21.2836  13304.6  114.958
 21.3256  13107.8  114.185
 21.3676  13275.8  114.448
 21.4096  13048.9  113.783
 21.4516  13028.4  113.565
 21.4936  12747.7  112.604
 21.5356  13031.1  113.798
 21.5776  13192.1  114.328
 21.6196  13006.5  113.565
 21.6616  12715.8  112.364
 21.7036  13007.4  113.411
 21.7456  12969.4  113.33
 21.7876  12967.9  113.083
 21.8296  12858.2  112.45
 21.8716  12935.7  113.016
 21.9136  12906.8  113.098
 21.9556  12890  112.695
 21.9976  12837.1  112.494
 22.0396  12685.1  112.077
 22.0816  12712  112.726
 22.1236  12928.7  113.136
 22.1656  12688.7  112.277
 22.2076  12689.6  111.687
 22.2496  12534.9  111.04
 22.2916  12593.5  111.18
 22.3336  12564.4  111.752
 22.3756  12613.4  111.71
 22.4176  12421.5  110.709
 22.4596  12268.5  110.606
 22.5016  12462.1  110.985
 22.5436  12707.6  111.942
 22.5856  12884.6  112.97
 22.6276  12929.1  113.305
 22.6696  12558.6  112.025
 22.7116  12528.9  111.407
 22.7536  12460.3  111.07
 22.7956  12621.2  111.123
 22.8376  12456.9  110.91
 22.8796  12379.5  110.371
 22.9216  12510.6  111.494
 22.9636  12438.2  110.332
 23.0056  12576.5  111.074
 23.0476  12515.3  111.379
 23.0896  12789  111.962
 23.1316  12545.6  111.328
 23.1736  12644.8  114.715
 23.2156  13099.4  114.003
 23.2576  13067.4  114.07
 23.2996  12992.4  113.521
 23.3416  13009  114.121
 23.3836  12911.3  112.895
 23.4256  13052.9  113.658
 23.4676  12847.9  112.453
 23.5096  12968  113.65
 23.5516  12843.4  112.378
 23.5936  12773.6  113.001
 23.6356  12923.8  113.324
 23.6776  12665.3  112.722
 23.7196  12570.4  111.549
 23.7616  12746  112.243
 23.8036  12898.1  112.963
 23.8456  12685.2  111.581
 23.8876  12565  111.403
 23.9296  12619.1  112.141
 23.9716  12698.1  111.684
 24.0136  12851.8  113.278
 24.0556  12506.3  111.459
 24.0976  12393.1  110.76
 24.1396  12313.3  113.046
 24.1816  12456.3  112.455
 24.2236  12484.5  111.846
 24.2656  12265.6  110.346
 24.3076  12283.8  110.702
 24.3496  12082  109.669
 24.3916  12205.2  110.278
 24.4336  12095.9  109.978
 24.4756  12116  109.962
 24.5176  12101.6  109.524
 24.5596  12131.8  109.774
 24.6016  11951.3  109.259
 24.6436  12085.8  109.368
 24.6856  11887.9  108.218
 24.7276  11845.2  108.354
 24.7696  11852.4  108.492
 24.8116  11570.8  107.374
 24.8536  11725.9  108.093
 24.8956  11681.8  107.616
 24.9376  11751  107.846
 24.9796  11600.2  107.54
 25.0216  11364.6  106.551
 25.0636  11540.7  107.027
 25.1056  11409.8  106.86
 25.1476  11318.1  108.329
 25.1896  11455.7  107.483
 25.2316  11297.3  105.89
 25.2736  11422  106.235
 25.3156  11393.6  106.176
 25.3576  11216.6  105.784
 25.3996  11316.4  106.239
 25.4416  11220.4  105.761
 25.4836  11122.2  105.818
 25.5256  11186.3  105.486
 25.5676  11119.7  104.897
 25.6096  11036.8  105.083
 25.6516  11101  104.893
 25.6936  11138.3  105.378
 25.7356  11114.4  105.404
 25.7776  11117.3  105.01
 25.8196  11050.9  104.944
 25.8616  10945.3  104.371
 25.9036  11078.7  104.455
 25.9456  10930.3  104.362
 25.9876  10927.4  104.398
 26.0296  11293.6  105.738
 26.0716  11032.6  104.847
 26.1136  10911.9  104.202
 26.1556  11004.1  103.939
 26.1976  10877  104.355
 26.2396  11028.6  104.481
 26.2816  10932  104.383
 26.3236  10824.9  103.938
 26.3656  11027.2  104.707
 26.4076  10946.1  104.535
 26.4496  11157.4  105.12
 26.4916  11291.7  105.646
 26.5336  11659.1  107.692
 26.5756  11658.8  107.579
 26.6176  11174.4  105.342
 26.6596  11042.8  105.037
 26.7016  10854.3  103.938
 26.7436  11014  104.771
 26.7856  10745  103.489
 26.8276  10799.7  103.71
 26.8696  10896  104.042
 26.9116  10673.6  102.913
 26.9536  10663.2  102.911
 26.9956  10618  102.729
 27.0376  10772.9  103.699
 27.0796  10676.6  103.002
 27.1216  10653  102.891
 27.1636  10531.6  102.485
 27.2056  10387  101.663
 27.2476  10445  101.936
 27.2896  10530.5  102.409
 27.3316  10508.2  102.081
 27.3736  10360.5  101.636
 27.4156  10462.2  101.963
 27.4576  10331.7  101.547
 27.4996  10520.6  102.078
 27.5416  10493.6  102.258
 27.5836  10435.2  101.809
 27.6256  10337.8  101.518
 27.6676  10347.7  101.557
 27.7096  10344.6  101.417
 27.7516  10286.9  101.281
 27.7936  10573.3  102.827
 27.8356  10453.3  101.849
 27.8776  10624.3  102.741
 27.9196  10237.2  100.717
 27.9616  10328.3  101.363
 28.0036  10208.9  100.72
 28.0456  10189.5  100.787
 28.0876  10100  100.422
 28.1296  10175  100.636
 28.1716  10268.7  101.11
 28.2136  10129.9  100.395
 28.2556  10084.9  100.281
 28.2976  10114.9  100.427
 28.3396  10084.2  100.07
 28.3816  10153.3  100.383
 28.4236  10039.1  99.9728
 28.4656  10011.1  99.877
 28.5076  9993.84  99.4206
 28.5496  9974.44  99.5845
 28.5916  10073.5  99.8882
 28.6336  9990.14  99.8182
 28.6756  10114.6  99.6295
 28.7176  10017  99.7061
 28.7596  9926.16  99.1453
 28.8016  9822.51  98.7458
 28.8436  9701.47  98.2903
 28.8856  9920.07  99.2478
 28.9276  9817.36  98.9764
 28.9696  9857.04  98.8268
 29.0116  9819.53  98.8126
 29.0536  9713.45  98.4976
 29.0956  9790.34  98.5866
 29.1376  9797.35  98.5971
 29.1796  9872.61  99.0256
 29.2216  9737.83  98.1817
 29.2636  9927.8  99.1348
 29.3056  9843.25  98.5626
 29.3476  9714.82  98.4512
 29.3896  9815.73  99.0771
 29.4316  9703.54  97.8443
 29.4736  9571.5  97.2371
 29.5156  9611.5  97.3667
 29.5576  9459.68  97.3273
 29.5996  9582.06  97.2135
 29.6416  9483.56  96.8364
 29.6836  9514.52  96.9189
 29.7256  9556.27  97.6939
 29.7676  9298.79  96.0281
 29.8096  9503.25  97.0272
 29.8516  9357.55  96.604
 29.8936  9484.34  97.3566
 29.9356  9476.6  97.0729
 29.9776  9314.07  96.3862
 30.0196  9513.23  96.8032
 30.0616  9399.84  96.5955
 30.1036  9492.85  96.9007
 30.1456  9354.61  96.4426
 30.1876  9379.22  96.5294
 30.2296  9414.3  96.6521
 30.2716  9459.85  96.523
 30.3136  9392.9  96.7728
 30.3556  9697.27  98.59
 30.3976  9510.5  99.144
 30.4396  9754.76  97.7256
 30.4816  9701.52  97.0608
 30.5236  9652.38  96.8023
 30.5656  9626.15  97.3546
 30.6076  9679.11  97.0268
 30.6496  9640.69  97.2354
 30.6916  9354.48  95.8748
 30.7336  9378.73  96.1413
 30.7756  9370.31  96.409
 30.8176  9633.46  97.4396
 30.8596  9657.99  97.3325
 30.9016  9661.62  97.7002
 30.9436  9640.88  97.3458
 30.9856  9652.35  97.5218
 31.0276  9448.84  96.1139
 31.0696  9550.86  97.0631
 31.1116  9458.47  96.6843
 31.1536  9429.48  96.43
 31.1956  9460.41  96.6643
 31.2376  9236.58  95.5471
 31.2796  9550.86  96.6906
 31.3216  9472.03  96.2088
 31.3636  9544.18  97.3042
 31.4056  9308  97.395
 31.4476  9381.83  95.6869
 31.4896  9407.89  96.3144
 31.5316  9448.16  95.9727
 31.5736  9597.83  96.5147
 31.6156  9357.08  95.3038
 31.6576  9523.9  96.2097
 31.6996  9648.22  96.5182
 31.7416  9324.65  95.9731
 31.7836  9500.87  95.8542
 31.8256  9384.48  95.6196
 31.8676  9578.81  96.5114
 31.9096  9353.95  95.7576
 31.9516  9123.87  94.7353
 31.9936  9175.61  94.8227
 32.0356  9446.27  96.26
 32.0776  9230.92  95.0544
 32.1196  9401  96.0355
 32.1616  9467.75  95.8156
 32.2036  9346.8  95.7122
 32.2456  9391.69  96.3257
 32.2876  9218.73  94.775
 32.3296  9274.15  95.1731
 32.3716  9022.42  93.9992
 32.4136  9048.7  94.3342
 32.4556  9237.89  94.747
 32.4976  9111.82  93.9571
 32.5396  9114.66  94.0296
 32.5816  9159.99  94.2933
 32.6236  9046.63  93.8767
 32.6656  9110.2  94.751
 32.7076  9158.01  94.6494
 32.7496  9099.15  94.0145
 32.7916  9081.12  93.8814
 32.8336  9104.35  94.0986
 32.8756  9275.31  94.7774
 32.9176  9007.09  93.8026
 32.9596  8938.2  93.5064
 33.0016  9076.76  93.9923
 33.0436  9013.74  93.8605
 33.0856  9032.03  94.044
 33.1276  8863.13  92.8939
 33.1696  9052.42  93.7079
 33.2116  8997.64  93.6553
 33.2536  9149.9  94.4297
 33.2956  9067.48  94.1004
 33.3376  8961.2  93.2483
 33.3796  9101.45  94.2317
 33.4216  8944.79  93
 33.4636  9090.38  93.9187
 33.5056  8941.5  93.2317
 33.5476  8875.92  93.0161
 33.5896  9011.16  93.4976
 33.6316  9042.98  93.9964
 33.6736  8817.53  93.0664
 33.7156  8830.17  93.1669
 33.7576  9035.5  93.8818
 33.7996  8936.78  93.1303
 33.8416  8648.32  91.7961
 33.8836  8835.2  92.5597
 33.9256  8943.41  93.1756
 33.9676  8995.61  93.3479
 34.0096  8948.2  93.4152
 34.0516  8728.96  91.8971
 34.0936  8812.13  92.6126
 34.1356  8934.3  92.9866
 34.1776  8728.49  91.9144
 34.2196  8775.86  92.341
 34.2616  8637.79  91.8212
 34.3036  8832.53  93.0292
 34.3456  8771.79  92.4616
 34.3876  8795.35  92.5543
 34.4296  8722.01  91.8618
 34.4716  8818.58  92.5164
 34.5136  8811.25  92.6747
 34.5556  8610.25  91.8693
 34.5976  8637.82  91.8279
 34.6396  8688.42  91.8051
 34.6816  8749.47  92.2364
 34.7236  8747.64  92.0042
 34.7656  8832.33  92.651
 34.8076  8651.21  92.035
 34.8496  8565.38  91.4272
 34.8916  8758.34  92.3155
 34.9336  8682.1  91.8903
 34.9756  8717.53  91.9968
 35.0176  8668.26  92.2651
 35.0596  8801.54  92.7935
 35.1016  8692.95  91.974
 35.1436  8953.29  93.023
 35.1856  8660.32  91.5946
 35.2276  8717.45  92.0754
 35.2696  8619.36  91.7657
 35.3116  8582.09  91.6693
 35.3536  8578.34  91.3399
 35.3956  8575.46  91.0454
 35.4376  8718.4  92.3676
 35.4796  8604.4  91.8093
 35.5216  8618.92  91.7743
 35.5636  8366.85  91.2409
 35.6056  8575.05  91.3747
 35.6476  8541.8  91.0984
 35.6896  8671.75  91.9585
 35.7316  8580.31  91.3755
 35.7736  8543.84  91.3659
 35.8156  8631.43  91.8323
 35.8576  8595.41  91.8808
 35.8996  8619.77  91.9876
 35.9416  8576.06  91.2509
 35.9836  8521.75  91.3121
 36.0256  8706.51  92.3189
 36.0676  8679.82  91.6978
 36.1096  8529.86  91.2818
 36.1516  8650.03  91.7944
 36.1936  8653.36  91.6524
 36.2356  8458.75  91.271
 36.2776  8372.57  90.2915
 36.3196  8502.52  90.6626
 36.3616  8508.3  90.8103
 36.4036  8528.86  90.9961
 36.4456  8524.35  91.1884
 36.4876  8387.64  90.3895
 36.5296  8425.44  90.6297
 36.5716  8366.14  91.0956
 36.6136  8286.77  89.4472
 36.6556  8249.88  89.4437
 36.6976  8192.84  89.6321
 36.7396  8267.64  89.8635
 36.7816  8089.29  89.1711
 36.8236  8218.52  89.8031
 36.8656  8061.98  89.0115
 36.9076  8056.25  88.9887
 36.9496  8030.43  88.859
 36.9916  7947.92  87.8845
 37.0336  8202.05  89.5854
 37.0756  8188.01  89.3114
 37.1176  8070.23  89.0208
 37.1596  8057.61  88.866
 37.2016  8014.4  88.81
 37.2436  8162.8  88.9883
 37.2856  8080.26  88.7916
 37.3276  8183.47  88.7132
 37.3696  8090.97  89.0927
 37.4116  8219.21  89.695
 37.4536  8055.74  88.6705
 37.4956  8040.97  88.6286
 37.5376  8434.16  92.3881
 37.5796  8222.02  91.1473
 37.6216  8072.6  88.5734
 37.6636  8214.93  89.2417
 37.7056  8271.72  89.7425
 37.7476  8325.14  89.5653
 37.7896  8171.09  89.2452
 37.8316  8209.82  89.6145
 37.8736  8132.34  88.7116
 37.9156  8075.73  88.4017
 37.9576  8147.4  88.8452
 37.9996  8138.32  88.3656
 38.0416  8089.63  88.9115
 38.0836  8244.39  89.6611
 38.1256  8188.35  89.3228
 38.1676  7825.14  87.4338
 38.2096  8201.8  89.1292
 38.2516  8192.9  89.2106
 38.2936  8226.61  89.2794
 38.3356  8159.81  88.8496
 38.3776  8147.18  89.0195
 38.4196  8081.77  88.5287
 38.4616  8198.9  89.416
 38.5036  8129.97  88.8847
 38.5456  8039.55  89.2224
 38.5876  8139.63  89.8098
 38.6296  8059.66  88.3396
 38.6716  8102.82  88.3745
 38.7136  8076.29  88.1666
 38.7556  8045.88  88.5137
 38.7976  8077.42  88.6061
 38.8396  8036.82  88.8545
 38.8816  7982.24  88.3434
 38.9236  8041.02  88.4682
 38.9656  8059.83  88.4833
 39.0076  8063.34  87.8889
 39.0496  8196.58  89.1728
 39.0916  8134.64  88.4858
 39.1336  8072.18  88.551
 39.1756  8015.85  88.3137
 39.2176  7985.35  88.6777
 39.2596  8141.86  89.4689
 39.3016  8134.55  89.007
 39.3436  7999.85  88.6672
 39.3856  8060.15  88.4527
 39.4276  8231.51  89.903
 39.4696  7948.54  87.9647
 39.5116  8035.69  88.9613
 39.5536  8040.04  89.4094
 39.5956  8078.75  88.727
 39.6376  7954.03  87.8612
 39.6796  7974.09  87.8931
 39.7216  7987.81  88.0662
 39.7636  8020.24  88.7948
 39.8056  7990.12  88.423
 39.8476  7818.9  87.7299
 39.8896  8012.97  88.4362
 39.9316  7887.12  87.9917
 39.9736  8012.89  88.2659
 40.0156  7954.56  87.7692
 40.0576  7933.49  88.0057
 40.0996  8004.34  87.5809
 40.1416  8028.76  88.5122
 40.1836  8092.81  88.7494
 40.2256  7980.65  88.1741
 40.2676  7961.96  88.1726
 40.3096  8068.07  88.6832
 40.3516  8029.77  88.6624
 40.3936  8036.14  88.1736
 40.4356  8035.6  88.3824
 40.4776  8002.02  88.6049
 40.5196  8048.63  88.9853
 40.5616  8236.33  89.6457
 40.6036  8022.01  88.7348
 40.6456  8002.85  88.2345
 40.6876  8091.25  88.7121
 40.7296  7994.92  88.3256
 40.7716  8105.09  89.0367
 40.8136  8101.15  88.9731
 40.8556  8191.71  89.5952
 40.8976  8100.92  89.0265
 40.9396  8096.88  89.35
 40.9816  8182.05  89.0967
 41.0236  8050.23  88.1653
 41.0656  8121.99  89.1009
 41.1076  8078.4  88.6321
 41.1496  8172.83  89.0486
 41.1916  8014.68  88.5079
 41.2336  8050.53  88.7014
 41.2756  8058.44  88.3479
 41.3176  8071.43  89.0274
 41.3596  8104.92  88.9491
 41.4016  8020.59  88.7479
 41.4436  8120.58  89.08
 41.4856  8010.72  88.648
 41.5276  8006.04  88.6309
 41.5696  8047.34  88.4738
 41.6116  8123.11  89.3014
 41.6536  8062.69  88.8198
 41.6956  8062.15  88.8818
 41.7376  8050.51  88.8474
 41.7796  7905.69  87.9726
 41.8216  8097.81  89.2242
 41.8636  7976.75  88.4984
 41.9056  8045.52  88.6694
 41.9476  8116.4  89.2945
 41.9896  8084.1  88.7759
 42.0316  8123.23  89.0788
 42.0736  8049.35  88.7725
 42.1156  8022.88  88.4655
 42.1576  7977.37  88.3221
 42.1996  8135.21  89.3265
 42.2416  7998.93  88.1589
 42.2836  8015.39  88.369
 42.3256  7968.97  88.2162
 42.3676  8103.41  88.7537
 42.4096  8105.13  88.7372
 42.4516  8081.46  88.6872
 42.4936  7930.38  87.9303
 42.5356  7866.79  87.7211
 42.5776  8063.16  88.74
 42.6196  7936.48  88.0123
 42.6616  7822.46  87.6351
 42.7036  7962.22  87.7897
 42.7456  8037.39  88.5529
 42.7876  7942.56  88.1303
 42.8296  7983.07  88.2531
 42.8716  7850.45  87.625
 42.9136  7882.36  87.5865
 42.9556  7987.27  88.3023
 42.9976  7975.57  88.2054
 43.0396  7872.91  87.3636
 43.0816  7815.76  87.4304
 43.1236  7859.2  87.7181
 43.1656  7968.17  88.1577
 43.2076  7854.87  87.6337
 43.2496  7868.31  87.5285
 43.2916  7853.77  87.8114
 43.3336  7956.27  88.209
 43.3756  7913.19  87.7252
 43.4176  7865.67  87.5471
 43.4596  7736.9  86.6788
 43.5016  7838.72  87.6594
 43.5436  7816.65  87.4352
 43.5856  7763.96  87.1707
 43.6276  7771.47  87.1039
 43.6696  7776.34  87.276
 43.7116  7854  87.3205
 43.7536  7905.46  88.1055
 43.7956  7868.97  89.1249
 43.8376  7674.99  86.5533
 43.8796  7740.57  86.997
 43.9216  7764.85  87.052
 43.9636  7760.43  87.1266
 44.0056  7661.5  86.8105
 44.0476  7709.25  86.7057
 44.0896  7678.32  86.8774
 44.1316  7691.27  86.6223
 44.1736  7614.16  86.1591
 44.2156  7584.24  85.8449
 44.2576  7512.11  85.7643
 44.2996  7683.77  86.7137
 44.3416  7618.89  86.1002
 44.3836  7534.64  85.9483
 44.4256  7561.5  85.7444
 44.4676  7596.44  86.1018
 44.5096  7688.56  86.7697
 44.5516  7628.29  86.3949
 44.5936  7469.86  85.4399
 44.6356  7663.17  86.2775
 44.6776  7760  87.1473
 44.7196  7590.79  86.4586
 44.7616  7738.15  88.6699
 44.8036  7608.09  86.3357
 44.8456  7867.69  88.0044
 44.8876  7767.52  87.2828
 44.9296  7920.15  87.5757
 44.9716  7813.35  87.4235
 45.0136  7723.5  86.8492
 45.0556  7870.57  87.651
 45.0976  7624.08  86.4305
 45.1396  7567.23  85.8585
 45.1816  7714.33  86.4484
 45.2236  7839.81  87.2312
 45.2656  7664.89  86.7542
 45.3076  7615.54  86.2622
 45.3496  7541.42  86.144
 45.3916  7600.2  86.7543
 45.4336  7730.52  87.3304
 45.4756  7687.57  86.9472
 45.5176  7764.51  86.9871
 45.5596  7825.55  87.4547
 45.6016  7646.88  86.8751
 45.6436  7659.23  86.1062
 45.6856  7648.78  86.7148
 45.7276  7525.16  87.8354
 45.7696  7510.76  86.9384
 45.8116  7759.4  87.7839
 45.8536  7573.52  86.6191
 45.8956  7636.75  86.3289
 45.9376  7664.4  85.945
 45.9796  7732.59  87.033
 46.0216  7782.63  87.6452
 46.0636  7739.57  86.5215
 46.1056  7731.05  86.4768
 46.1476  7590.47  86.2841
 46.1896  7561.93  86.2765
 46.2316  7530.13  85.9541
 46.2736  7485.1  86.0788
 46.3156  7588.63  86.2456
 46.3576  7547.89  86.2204
 46.3996  7570.64  86.513
 46.4416  7677.64  86.6929
 46.4836  7640.73  86.844
 46.5256  7634.72  86.7504
 46.5676  7579.66  86.5493
 46.6096  7542.91  86.2705
 46.6516  7660.23  85.9691
 46.6936  7695.4  86.6718
 46.7356  7628.2  86.3904
 46.7776  7484.48  86.4263
 46.8196  7520.46  86.2231
 46.8616  7465.37  85.8578
 46.9036  7385.12  85.0495
 46.9456  7537.76  85.5586
 46.9876  7578.56  85.8697
 47.0296  7530.96  86.301
 47.0716  7478.32  85.8218
 47.1136  7545.89  85.8787
 47.1556  7461.94  85.2671
 47.1976  7699.17  86.684
 47.2396  7476.35  85.8362
 47.2816  7464.91  85.4705
 47.3236  7466.11  85.8494
 47.3656  7544.42  86.228
 47.4076  7479.88  85.6513
 47.4496  7455.18  85.6113
 47.4916  7481.01  85.9448
 47.5336  7540.94  86.1087
 47.5756  7586.25  86.4482
 47.6176  7495.21  85.869
 47.6596  7513.41  85.677
 47.7016  7630.39  86.1435
 47.7436  7585.42  86.2484
 47.7856  7632.43  86.5254
 47.8276  7564.56  86.1932
 47.8696  7573.53  86.3309
 47.9116  7577.66  86.0675
 47.9536  7513.82  85.643
 47.9956  7399.07  85.7093
 48.0376  7362.96  85.272
 48.0796  7491.68  86.1376
 48.1216  7499.36  86.0083
 48.1636  7603.52  86.1577
 48.2056  7521.31  85.9605
 48.2476  7609.71  86.7818
 48.2896  7543.75  86.3166
 48.3316  7505.06  86.0279
 48.3736  7496.03  86.007
 48.4156  7553.3  86.1825
 48.4576  7491.59  86.1299
 48.4996  7546.02  85.8894
 48.5416  7585.36  86.44
 48.5836  7477.2  85.4881
 48.6256  7523.55  85.9671
 48.6676  7496.04  86.3397
 48.7096  7558.78  85.949
 48.7516  7477.08  85.6341
 48.7936  7429.01  85.4243
 48.8356  7478.55  85.7572
 48.8776  7420.61  85.9191
 48.9196  7595.69  86.361
 48.9616  7447.45  85.9092
 49.0036  7485.67  86.4838
 49.0456  7418.41  86.0706
 49.0876  7465.07  85.9838
 49.1296  7261.91  84.8545
 49.1716  7281.39  84.84
 49.2136  7458.79  85.7857
 49.2556  7480.57  85.9476
 49.2976  7431.61  85.7318
 49.3396  7270.08  84.8504
 49.3816  7518.68  85.7106
 49.4236  7449.92  85.7501
 49.4656  7388.12  85.4166
 49.5076  7551.79  86.0952
 49.5496  7308.55  84.644
 49.5916  7444.53  85.461
 49.6336  7437.38  85.6371
 49.6756  7434.25  85.8494
 49.7176  7457.44  85.9208
 49.7596  7456.11  85.8606
 49.8016  7502.82  85.86
 49.8436  7336.61  85.2121
 49.8856  7352.47  85.3147
 49.9276  7356.03  85.4398
 49.9696  7399.33  85.6611
 50.0116  7343.16  85.4743
 50.0536  7434.75  85.9426
 50.0956  7391.1  85.769
 50.1376  7398.39  85.5047
 50.1796  7321.99  85.3388
 50.2216  7361.87  85.5587
 50.2636  7402.19  85.3991
 50.3056  7352.31  85.3025
 50.3476  7296.14  84.9898
 50.3896  7375.77  85.4254
 50.4316  7390.61  85.3412
 50.4736  7251.86  84.7599
 50.5156  7286.2  84.9502
 50.5576  7458.08  85.7001
 50.5996  7290.48  85.0166
 50.6416  7237.81  84.6398
 50.6836  7378.9  85.5113
 50.7256  7417.19  85.657
 50.7676  7526.57  86.5805
 50.8096  7457.96  85.7395
 50.8516  7286.37  85.1825
 50.8936  7203.84  84.4794
 50.9356  7420.82  85.8421
 50.9776  7295.52  85.2824
 51.0196  7202.27  84.8685
 51.0616  7127.7  83.7442
 51.1036  7236.83  84.7464
 51.1456  7364.06  85.4014
 51.1876  7295.67  84.3067
 51.2296  7241.53  84.6573
 51.2716  7133.48  83.7213
 51.3136  7188.24  84.5169
 51.3556  7086.57  83.5248
 51.3976  7028.85  83.3394
 51.4396  7057.47  83.8294
 51.4816  7190.66  84.4683
 51.5236  7168.77  84.4287
 51.5656  7139.42  83.8412
 51.6076  7061.84  83.4733
 51.6496  6983.14  83.1931
 51.6916  7123.61  84.3942
 51.7336  7099.57  84.3428
 51.7756  7140.29  84.2722
 51.8176  7087  84.0582
 51.8596  7047.35  83.8533
 51.9016  7256.53  84.6816
 51.9436  7112.93  85.3501
 51.9856  7238.13  86.5286
 52.0276  7144.48  84.4195
 52.0696  7264.33  85.1859
 52.1116  7109.81  84.4077
 52.1536  7262.15  85.1854
 52.1956  7198.01  84.2532
 52.2376  7356.93  85.3573
 52.2796  7153.31  83.9817
 52.3216  7008.24  83.8289
 52.3636  7091.56  83.8707
 52.4056  7084.92  83.7065
 52.4476  7179.05  84.6291
 52.4896  7111.43  84.2789
 52.5316  7191.1  84.8071
 52.5736  7003.57  83.4089
 52.6156  7247.97  85.2576
 52.6576  7025.19  83.3671
 52.6996  7026.46  84.3819
 52.7416  6990.47  84.016
 52.7836  7071.08  84.3845
 52.8256  7249.5  84.6255
 52.8676  6968.03  83.5477
 52.9096  7078.19  84.2789
 52.9516  6956.88  83.9604
 52.9936  7036.1  84.8295
 53.0356  7178.44  84.6419
 53.0776  7166.8  84.88
 53.1196  7138.5  84.8103
 53.1616  7236.23  85.4448
 53.2036  6995.53  83.9717
 53.2456  7000.64  84.1131
 53.2876  7008.46  83.8362
 53.3296  7059.09  84.4824
 53.3716  7121.93  84.5952
 53.4136  7073.5  84.4683
 53.4556  7112.31  84.7263
 53.4976  7016.3  83.99
 53.5396  6980.07  84.181
 53.5816  6971.25  83.7528
 53.6236  6926.05  83.8299
 53.6656  7009.87  83.944
 53.7076  7118.57  84.5482
 53.7496  7062.87  84.3435
 53.7916  7162.53  85.0767
 53.8336  7076.75  84.4593
 53.8756  6958.15  84.3018
 53.9176  6973.24  83.727
 53.9596  6752.88  83.1678
 54.0016  6875.93  83.2355
 54.0436  6760.01  82.7531
 54.0856  6894.33  82.9852
 54.1276  6771.99  82.4391
 54.1696  6748.84  82.4659
 54.2116  7010.71  83.7809
 54.2536  6719.09  81.8258
 54.2956  6803.31  82.3976
 54.3376  6740.32  82.5174
 54.3796  6735.81  82.3952
 54.4216  6840.12  83.0866
 54.4636  6727.96  82.3542
 54.5056  6805  82.6376
 54.5476  6757.23  82.6927
 54.5896  6687.36  82.1061
 54.6316  6755.57  82.3538
 54.6736  6760.77  82.4263
 54.7156  6699.34  82.1215
 54.7576  6679.16  81.9698
 54.7996  6655.75  81.9918
 54.8416  6753.91  82.65
 54.8836  6701.15  82.4109
 54.9256  6652.19  81.8742
 54.9676  6604.67  81.442
 55.0096  6737.78  82.3085
 55.0516  6588.46  81.5572
 55.0936  6687.16  81.8844
 55.1356  6582.67  81.2899
 55.1776  6737.43  82.4781
 55.2196  6628.05  81.5882
 55.2616  6704.5  82.2771
 55.3036  6604.95  81.8454
 55.3456  6560.61  81.7152
 55.3876  6602.63  81.6796
 55.4296  6572.67  81.5168
 55.4716  6736.18  82.548
 55.5136  6667.15  81.8887
 55.5556  6746.59  82.4285
 55.5976  6628.89  81.7845
 55.6396  6742.85  82.4193
 55.6816  6594.57  81.3774
 55.7236  6585.94  81.4837
 55.7656  6619.4  81.3239
 55.8076  6547.39  80.8685
 55.8496  6493.22  80.8633
 55.8916  6526.34  81.2306
 55.9336  6732.55  82.3549
 55.9756  6577.89  81.2917
 56.0176  6447.56  80.6216
 56.0596  6507.24  81.0012
 56.1016  6447.49  80.6848
 56.1436  6489.59  81.172
 56.1856  6401.66  80.3579
 56.2276  6617.1  81.7581
 56.2696  6582.31  81.518
 56.3116  6556.15  81.7375
 56.3536  6427.92  80.5825
 56.3956  6470.29  80.8428
 56.4376  6477.45  80.9449
 56.4796  6401.98  80.273
 56.5216  6424.36  80.7802
 56.5636  6430.73  80.397
 56.6056  6550.17  81.3869
 56.6476  6422.02  80.1988
 56.6896  6643.34  82.0298
 56.7316  6426.66  80.5996
 56.7736  6450.67  80.7452
 56.8156  6418.74  80.5637
 56.8576  6288.6  79.6879
 56.8996  6421.81  80.4191
 56.9416  6280.44  79.7208
 56.9836  6525.24  80.8958
 57.0256  6276.02  79.6531
 57.0676  6474.7  81.0376
 57.1096  6468.38  80.778
 57.1516  6273.1  79.5786
 57.1936  6364.49  79.9381
 57.2356  6350.26  80.187
 57.2776  6436.22  80.6864
 57.3196  6444.18  81.0798
 57.3616  6398.83  80.2949
 57.4036  6338.17  79.9729
 57.4456  6501.04  80.9712
 57.4876  6428.69  80.3679
 57.5296  6341.95  80.0624
 57.5716  6290.78  79.8448
 57.6136  6171.63  78.9196
 57.6556  6407.56  80.5347
 57.6976  6384.15  80.2151
 57.7396  6298.82  80.0505
 57.7816  6209.59  79.855
 57.8236  6304.2  80.2336
 57.8656  6351  80.1982
 57.9076  6358.12  80.2554
 57.9496  6264.64  80.0343
 57.9916  6298.67  79.7028
 58.0336  6195.24  79.3684
 58.0756  6378.27  80.1464
 58.1176  6340.41  79.9139
 58.1596  6216.02  79.7159
 58.2016  6003.46  77.5971
 58.2436  6114.78  78.6993
 58.2856  6025.6  78.0523
 58.3276  6012.68  78.338
 58.3696  6110.05  78.7274
 58.4116  5992  77.8256
 58.4536  6160.7  78.8002
 58.4956  6039.66  78.2006
 58.5376  6190.88  78.7403
 58.5796  6021.52  78.0726
 58.6216  6060.79  78.1526
 58.6636  6001.94  77.9781
 58.7056  6075.68  78.314
 58.7476  6049.44  78.5898
 58.7896  5976.53  77.7614
 58.8316  6111  78.6268
 58.8736  6056.85  78.2886
 58.9156  5983.44  77.8582
 58.9576  6050.68  78.5005
 58.9996  6197.73  78.8058
 59.0416  6088.4  78.4651
 59.0836  6100.34  78.4585
 59.1256  6025.89  78.3755
 59.1676  5913.85  78.2556
 59.2096  6190.91  79.3551
 59.2516  6132.47  78.5575
 59.2936  5868.43  77.1711
 59.3356  6041.93  78.1813
 59.3776  5862.42  77.1776
 59.4196  5960.88  77.7585
 59.4616  6051.31  78.2068
 59.5036  6019.59  78.0371
 59.5456  6215.04  78.9826
 59.5876  6003.3  77.816
 59.6296  6091.58  78.4557
 59.6716  6156.64  78.932
 59.7136  6109.08  78.6148
 59.7556  6034.64  78.2707
 59.7976  6035.93  78.0213
 59.8396  6153.68  78.672
 59.8816  5918.92  77.697
 59.9236  5940.97  77.4878
 59.9656  5988  78.0526
 60.0076  6027.45  77.6682
 60.0496  6030.22  78.1895
 60.0916  5878.44  76.6252
 60.1336  5950.75  78.1941
 60.1756  6031.68  79.9074
 60.1996  0.0000000E+00  0.0000000E+00