File: docs/examples/opeando_xrd/IS17_D/Data/IS17_D/17_Db_f00075.xye
# /beamlines/bl04/projects/cycle2025-II/20250340211-lsimonelli/DATA/IS17_D/17_Db_f00075.xye : mythproc.py merge -s 0.006 -l 0.5 -f /beamlines/bl04/inhouse/ff/FlatField/ff_20Nov2024rod8mm60s_17keV.raw -b True -c true -o xye /beamlines/bl04/projects/cycle2025-II/20250340211-lsimonelli/DATA/IS17_D/17_Db_00075.dat
# IsMon = [6751406, 6747982, 6746028]  IsPos = [-1.4999, -2.4884, -3.4989]
# Wave = 0.4962  CalPath /beamlines/bl04/projects/cycle2025-II/20250340211-lsimonelli/DATA/Align/Si_Pos1_25keV_f00001.cal
# Date = 2025-09-24_14:34:05 Dt = 4.8000  Bin = 0.0060  <imon> = 6748472 +/- 2223 (Min/Max) 6746028 / 6751406
# icurr 249.3333  mocoIn 1.7014E-05  mocoOut 0.7981  i15 7.07064e+06  imon 6.74847e+06  i7 6.0000  iEMpd_timer 4.8000  iEMpd_1 3.3565E-08  iEMpd_2 7.8381E-08  iEMpd_3 1.5495E-08  iEMpd_4 4.7414E-08  iEMhp_timer 4.8000  iEMhp_1 4.8712E-06  iEMhp_2 -2.5248E-08  iEMhp_3 -2.4199E-08  iEMhp_4 -2.0861E-08
#      9776
 1.5856  42191.3  210.873
 1.6276  49208.5  223.827
 1.6696  54370.6  234.444
 1.7116  61344.4  249.513
 1.7536  69318.4  264.105
 1.7956  73397.9  272.444
 1.8376  70745.6  267.9
 1.8796  60716.8  246.36
 1.9216  49554.9  223.454
 1.9636  42840.3  206.913
 2.0056  38837.7  196.246
 2.0476  35889.3  190.718
 2.0896  35173.8  187.7
 2.1316  33774.1  183.043
 2.1736  31954.8  179.457
 2.2156  32669.3  179.997
 2.2576  31521.6  177.441
 2.2996  30267.2  174.512
 2.3416  30860.4  174.806
 2.3836  29868.8  172.082
 2.4256  29420.8  171.343
 2.4676  29297.5  170.741
 2.5096  29567.3  171.582
 2.5516  36934.9  196.189
 2.5936  184402  429.065
 2.6356  31167.5  177.358
 2.6776  27558.6  165.677
 2.7196  26680.1  163.497
 2.7616  26535.2  162.847
 2.8036  25721  160.481
 2.8456  25891  161.651
 2.8876  24943.9  158.542
 2.9296  24574.8  157.472
 2.9716  24674.3  157.3
 3.0136  24154.5  155.697
 3.0556  24199.5  156.232
 3.0976  24221.3  155.217
 3.1396  23929.2  154.994
 3.1816  23697.1  154.187
 3.2236  23636.7  153.976
 3.2656  23460.7  152.473
 3.3076  23306.2  153.41
 3.3496  23490.5  152.964
 3.3916  23785.2  153.737
 3.4336  23992.8  154.986
 3.4756  24631.9  156.966
 3.5176  25265.2  158.75
 3.5596  25200.9  160.958
 3.6016  25209  158.659
 3.6436  24189.5  156.503
 3.6856  24055.9  154.402
 3.7276  23109.9  152.392
 3.7696  22790.9  151.534
 3.8116  22723.8  151.199
 3.8536  22540  150.513
 3.8956  22729.9  150.969
 3.9376  23369.5  153.348
 3.9796  22639.7  150.434
 4.0216  22455.2  148.871
 4.0636  22419  150.193
 4.1056  22379.1  149.722
 4.1476  22733.1  151.193
 4.1896  22849  151.452
 4.2316  22896.7  151.442
 4.2736  23356.5  152.753
 4.3156  23400.1  153.13
 4.3576  24244.1  155.766
 4.3996  24530.3  156.958
 4.4416  25094.4  158.336
 4.4836  26753.4  163.652
 4.5256  26442  163.285
 4.5676  25944.2  162.006
 4.6096  26585.1  162.649
 4.6516  27111.9  163.966
 4.6936  26863.9  164.041
 4.7356  28206.3  167.904
 4.7776  27077.7  164.349
 4.8196  26775.1  164.049
 4.8616  26155.5  161.653
 4.9036  26308.7  161.853
 4.9456  26225.7  162.241
 4.9876  25686.5  160.473
 5.0296  25328.7  159.193
 5.0716  25198.1  159.521
 5.1136  25340.3  159.697
 5.1556  25961.9  161.117
 5.1976  37267.4  192.963
 5.2396  26728.8  163.165
 5.2816  26312.7  162.337
 5.3236  26165.8  161.596
 5.3656  25800.7  161.38
 5.4076  25335.4  160.053
 5.4496  25581.6  160.347
 5.4916  25619.8  160.211
 5.5336  25729.2  160.642
 5.5756  25591.3  160.137
 5.6176  25916.5  160.613
 5.6596  26005.5  161.844
 5.7016  25970.5  161.019
 5.7436  26162.4  161.524
 5.7856  25998.1  161.446
 5.8276  26351  162.266
 5.8696  26375.9  162.5
 5.9116  26278.9  162.792
 5.9536  26800.1  164.136
 5.9956  26845.2  163.683
 6.0376  27230.2  165.463
 6.0796  27243.2  165.339
 6.1216  27130.9  165.2
 6.1636  27475.9  165.313
 6.2056  27504.5  166.071
 6.2476  27590.7  166.198
 6.2896  27716.3  166.261
 6.3316  27778.2  166.603
 6.3736  27828.1  166.66
 6.4156  27870.5  166.665
 6.4576  28240.2  167.406
 6.4996  28076.7  167.397
 6.5416  28204.2  167.897
 6.5836  29064.1  170.523
 6.6256  28263.6  167.87
 6.6676  28807.8  169.051
 6.7096  28951.2  170.309
 6.7516  29065.1  170.315
 6.7936  30453.4  173.732
 6.8356  31022.9  175.454
 6.8776  30300  174.208
 6.9196  29694  172.839
 6.9616  30074.5  173.398
 7.0036  30557.1  174.442
 7.0456  30678.4  174.097
 7.0876  30442.2  175.081
 7.1296  30467  174.293
 7.1716  30499.4  173.939
 7.2136  30203.6  172.881
 7.2556  30499.8  173.868
 7.2976  30546.2  174.499
 7.3396  30272.6  173.938
 7.3816  30635  175.179
 7.4236  30772.2  174.883
 7.4656  30987.1  174.961
 7.5076  31156  175.583
 7.5496  30958.4  175.566
 7.5916  31357.8  176.731
 7.6336  32384.2  179.557
 7.6756  31651.6  177.296
 7.7176  32144.7  178.982
 7.7596  32017.7  179.848
 7.8016  39494.6  202.157
 7.8436  32416.3  180.037
 7.8856  32379.2  179.4
 7.9276  33332  182.42
 7.9696  33292.1  182.608
 8.0116  34234.5  183.743
 8.0536  34901.8  185.769
 8.0956  37817.1  194.584
 8.1376  35282.9  187.436
 8.1796  35132.4  187.556
 8.2216  36311.3  189.164
 8.2636  37983.7  194.004
 8.3056  36435.8  190.775
 8.3476  39386  197.652
 8.3896  37429.4  192.765
 8.4316  36505.2  190.535
 8.4736  36341.2  189.583
 8.5156  35998.9  188.96
 8.5576  36132.4  190.259
 8.5996  36093.7  189.057
 8.6416  35913.4  189.82
 8.6836  35628.1  188.91
 8.7256  36499.1  190.644
 8.7676  40127.8  202.938
 8.8096  41330.7  203.076
 8.8516  36877.3  191.402
 8.8936  39478.9  197.989
 8.9356  36571.6  190.875
 8.9776  36375.2  190.458
 9.0196  36126.7  189.464
 9.0616  36135.9  189.072
 9.1036  40062.3  200.236
 9.1456  36085.4  189.386
 9.1876  35492.2  187.753
 9.2296  34992.6  185.887
 9.2716  34594.6  184.843
 9.3136  34858.8  185.554
 9.3556  35097.6  186.158
 9.3976  34062  183.893
 9.4396  33900  183.372
 9.4816  33912.8  183.252
 9.5236  33617.9  182.362
 9.5656  32935.2  180.857
 9.6076  32542.9  180.305
 9.6496  32828.9  180.97
 9.6916  32501.1  180.022
 9.7336  33307.3  182.023
 9.7756  32418.9  180.829
 9.8176  32555.1  180.709
 9.8596  32214.5  178.217
 9.9016  32097.5  177.883
 9.9436  32015.8  177.569
 9.9856  32319.1  178.687
 10.0276  31341.5  177.023
 10.0696  31446.1  176.371
 10.1116  30838.5  174.911
 10.1536  30447.6  173.958
 10.1956  30105.8  172.6
 10.2376  30076.3  172.02
 10.2796  29775.2  171.274
 10.3216  29210  169.924
 10.3636  29522.2  170.852
 10.4056  33942.4  183.641
 10.4476  34251.4  184.041
 10.4896  39318.7  196.552
 10.5316  34488.7  184.867
 10.5736  29605.9  171.703
 10.6156  29207.9  170.296
 10.6576  35918.4  187.256
 10.6996  29130.6  169.34
 10.7416  28103.8  166.543
 10.7836  29362.5  170.933
 10.8256  27018.6  164.413
 10.8676  26866.8  163.476
 10.9096  27238.5  164.638
 10.9516  26645.8  161.79
 10.9936  27826.7  165.549
 11.0356  27261  164.473
 11.0776  29213.9  169.558
 11.1196  28796.6  169.143
 11.1616  26342.6  161.451
 11.2036  28143.7  166.723
 11.2456  30281.2  173.697
 11.2876  26239.2  161.399
 11.3296  25929.5  160.372
 11.3716  26570.7  162.03
 11.4136  25967.1  161.063
 11.4556  26361.5  161.953
 11.4976  27733.1  165.062
 11.5396  27484.5  164.488
 11.5816  25546.1  159.019
 11.6236  24896  157.213
 11.6656  25188.1  157.283
 11.7076  24612.5  156.304
 11.7496  25007.3  160.737
 11.7916  25636.4  158.763
 11.8336  24125.5  154.913
 11.8756  24808.7  156.632
 11.9176  24256.4  154.55
 11.9596  24152.4  154.382
 12.0016  23824.7  154.099
 12.0436  23865.7  153.678
 12.0856  23639.8  153.454
 12.1276  23610.8  153.208
 12.1696  23531  152.185
 12.2116  24106.9  154.04
 12.2536  27125.5  164.259
 12.2956  24268.5  154.583
 12.3376  24145  154.506
 12.3796  23717.1  153.623
 12.4216  23720.1  152.832
 12.4636  25713.6  160.098
 12.5056  23184.5  151.372
 12.5476  23491.4  151.813
 12.5896  23215.1  151.559
 12.6316  23273.8  151.878
 12.6736  23076.9  151.732
 12.7156  23792.3  153.891
 12.7576  23211.9  152.271
 12.7996  23610  152.207
 12.8416  23960.5  154.399
 12.8836  24878.1  157.161
 12.9256  24156.7  153.893
 12.9676  23864.1  153.36
 13.0096  23767.5  154.142
 13.0516  23906.3  153.638
 13.0936  23874.6  153.932
 13.1356  23964.1  153.21
 13.1776  24187.4  154.931
 13.2196  23702.2  153.01
 13.2616  23366.8  152.243
 13.3036  23685  153.236
 13.3456  23613.9  153.53
 13.3876  24249.5  154.673
 13.4296  23811.9  153.439
 13.4716  24193  154.287
 13.5136  23944.6  153.623
 13.5556  23926.7  153.915
 13.5976  23896.3  154.259
 13.6396  24298.5  154.919
 13.6816  24231.9  155.171
 13.7236  24621.9  155.998
 13.7656  26314.1  161.737
 13.8076  27979.8  165.4
 13.8496  26522  161.667
 13.8916  24507.9  156.571
 13.9336  23564.7  152.819
 13.9756  23524.5  152.064
 14.0176  23174.7  151.499
 14.0596  24686  156.387
 14.1016  23210.1  152.065
 14.1436  23122.2  150.905
 14.1856  22858.9  150.347
 14.2276  22991  151.214
 14.2696  23337.8  152.248
 14.3116  22141.9  148.212
 14.3536  21826.2  147.301
 14.3956  21852.8  147.13
 14.4376  22032  147.517
 14.4796  21857.8  146.931
 14.5216  21633.5  146.945
 14.5636  22298.9  148.764
 14.6056  21574.7  145.892
 14.6476  21284.4  144.164
 14.6896  21132  144.187
 14.7316  20603.5  143.386
 14.7736  20431.6  141.947
 14.8156  20303.8  141.52
 14.8576  20409.8  141.754
 14.8996  20429.7  143.006
 14.9416  19793.9  140.785
 14.9836  19883.6  141.086
 15.0256  19202.2  137.594
 15.0676  19150.3  137.619
 15.1096  18936.2  136.686
 15.1516  18655.3  136.206
 15.1936  18680.9  135.746
 15.2356  18547.2  135.532
 15.2776  18592.2  135.709
 15.3196  18482.1  135.873
 15.3616  18162.7  134.46
 15.4036  18031.1  133.833
 15.4456  18593  135.554
 15.4876  18034.9  133.191
 15.5296  17918.9  133.038
 15.5716  17633.6  131.592
 15.6136  17659.8  132.006
 15.6556  20649.7  142.334
 15.6976  18073.8  133.086
 15.7396  17833.9  132.592
 15.7816  17698.9  131.598
 15.8236  17124.2  130.069
 15.8656  17137.2  129.973
 15.9076  17361.6  130.645
 15.9496  18659.5  138.289
 15.9916  17182  133.113
 16.0336  17363.2  130.701
 16.0756  17370.7  131.058
 16.1176  16909.2  129.385
 16.1596  16600.2  129.349
 16.2016  16622  128.219
 16.2436  16720.5  128.952
 16.2856  16739.1  128.551
 16.3276  16042.2  126.291
 16.3696  16226.1  126.832
 16.4116  16115.9  126.839
 16.4536  16215.9  127.041
 16.4956  17583.4  132.011
 16.5376  16632.7  128.59
 16.5796  16270.5  126.554
 16.6216  16061.4  126.006
 16.6636  16135.7  126.487
 16.7056  15898.4  125.407
 16.7476  16095.1  125.708
 16.7896  15983.2  126.011
 16.8316  15996.6  126.044
 16.8736  16508.8  128.294
 16.9156  16343.9  127.992
 16.9576  15780.1  126.538
 16.9996  15873.2  127.386
 17.0416  15850.7  125.693
 17.0836  15931  125.767
 17.1256  15652.9  124.671
 17.1676  16392.5  127.542
 17.2096  16154.6  126.498
 17.2516  15872.6  125.184
 17.2936  15397.6  123.646
 17.3356  15185.3  122.773
 17.3776  15145.7  122.805
 17.4196  15060.3  122.167
 17.4616  15270.2  122.922
 17.5036  16178.7  126.901
 17.5456  14812.2  122.034
 17.5876  14940.7  121.63
 17.6296  14880.4  121.217
 17.6716  15162.8  122.94
 17.7136  16370.1  127.871
 17.7556  14891.4  122.253
 17.7976  15314.1  123.703
 17.8396  14926.4  121.63
 17.8816  14587.3  120.811
 17.9236  14384.4  119.756
 17.9656  14780.1  121.936
 18.0076  15707.6  125.275
 18.0496  16436.9  127.244
 18.0916  21167.1  144.934
 18.1336  19061.7  137.758
 18.1756  16069.1  126.008
 18.2176  16287.7  127.09
 18.2596  14672.7  120.349
 18.3016  15514.2  124.021
 18.3436  16030.9  126.072
 18.3856  15165.4  122.952
 18.4276  14605  120.154
 18.4696  14963  121.703
 18.5116  14870  121.603
 18.5536  14417.7  120.111
 18.5956  14583.9  120.349
 18.6376  14679.4  121.153
 18.6796  14398.3  119.295
 18.7216  14461.2  120.044
 18.7636  14217.4  119.035
 18.8056  13813.2  117.262
 18.8476  13623.5  117.078
 18.8896  13656  116.554
 18.9316  14004.1  118.022
 18.9736  13813.4  116.914
 19.0156  14420.6  119.876
 19.0576  14615  119.493
 19.0996  14038.2  117.846
 19.1416  14081  118.407
 19.1836  13586.3  115.92
 19.2256  13397.2  115.427
 19.2676  13786.1  117.076
 19.3096  13516.1  116.176
 19.3516  13658.8  116.736
 19.3936  13894.2  117.634
 19.4356  13759.3  116.942
 19.4776  13596.6  116.342
 19.5196  13565  116.065
 19.5616  13721.6  116.985
 19.6036  13587.9  115.928
 19.6456  13887.1  117.304
 19.6876  14367  118.94
 19.7296  13816.2  117.091
 19.7716  13598.2  116.347
 19.8136  14080.6  118.579
 19.8556  14283.1  118.916
 19.8976  14706.3  120.717
 19.9396  14318.4  118.713
 19.9816  14252.6  118.69
 20.0236  14773.2  121.032
 20.0656  13643.9  116.314
 20.1076  13487.8  116.103
 20.1496  13514.8  116.217
 20.1916  13642.9  116.291
 20.2336  13549.7  115.825
 20.2756  13187.8  114.696
 20.3176  13104.3  114.079
 20.3596  13096.2  114.036
 20.4016  13093.8  113.822
 20.4436  12999  113.867
 20.4856  13091.4  114.154
 20.5276  12967.4  114.074
 20.5696  13162.6  114.372
 20.6116  13170.1  114.69
 20.6536  12935.3  113.161
 20.6956  12731.5  112.416
 20.7376  12880.7  113.282
 20.7796  12737.4  112.348
 20.8216  13097.8  113.642
 20.8636  13476.1  115.643
 20.9056  14662.2  120.559
 20.9476  13382.8  115.024
 20.9896  14682.1  120.339
 21.0316  12996.8  113.131
 21.0736  13338.4  115.13
 21.1156  13825.7  117.381
 21.1576  13148.9  114.496
 21.1996  12841.1  113.142
 21.2416  12801.7  112.786
 21.2836  13119.3  114.159
 21.3256  12895.2  113.305
 21.3676  12929.7  112.945
 21.4096  13208.9  114.483
 21.4516  12783.9  112.507
 21.4936  12514.8  111.568
 21.5356  12666.9  112.197
 21.5776  12782.7  112.543
 21.6196  12955.6  113.338
 21.6616  12942.9  113.366
 21.7036  12693.9  112.042
 21.7456  12478.2  111.163
 21.7876  12294.8  110.108
 21.8296  12263.3  109.818
 21.8716  12382.3  110.565
 21.9136  12645.8  111.944
 21.9556  12857  112.549
 21.9976  12534.3  111.157
 22.0396  12467.2  111.111
 22.0816  12527.7  111.915
 22.1236  13026.8  113.566
 22.1656  12594.6  112.16
 22.2076  12314.1  110.026
 22.2496  12178  109.448
 22.2916  12223.7  109.544
 22.3336  12306.4  110.621
 22.3756  12250.5  110.099
 22.4176  12223.6  109.828
 22.4596  12034.6  109.561
 22.5016  12244.4  110.017
 22.5436  12453.4  110.944
 22.5856  12522  111.381
 22.6276  12297.9  110.506
 22.6696  12087.8  109.911
 22.7116  12145.7  109.69
 22.7536  12137.2  109.632
 22.7956  12191.2  109.214
 22.8376  12008.5  108.908
 22.8796  12167.3  109.429
 22.9216  12112.8  109.723
 22.9636  12046.5  108.589
 23.0056  12132.6  109.106
 23.0476  12264.8  110.266
 23.0896  12420.6  110.346
 23.1316  12533.2  111.281
 23.1736  12203.9  112.689
 23.2156  12214.4  110.177
 23.2576  12666.3  112.307
 23.2996  12144.8  109.767
 23.3416  12558.9  112.133
 23.3836  12397.4  110.655
 23.4256  12546.2  111.428
 23.4676  12642.3  111.554
 23.5096  12455.9  111.389
 23.5516  12270  109.858
 23.5936  12444.3  111.542
 23.6356  12545.3  111.659
 23.6776  12140.5  110.059
 23.7196  12163.1  109.733
 23.7616  12373.7  110.608
 23.8036  12416.8  110.836
 23.8456  12200.6  109.289
 23.8876  12327.8  110.35
 23.9296  12076.1  109.709
 23.9716  12125  109.143
 24.0136  12320  110.916
 24.0556  12070.3  109.5
 24.0976  11931.4  108.693
 24.1396  11812.7  110.732
 24.1816  12098.9  110.482
 24.2236  12078.8  110.007
 24.2656  12079.3  109.487
 24.3076  12126.4  109.975
 24.3496  12203.2  110.208
 24.3916  12318  110.765
 24.4336  12053.2  109.761
 24.4756  12216.1  110.397
 24.5176  11571.9  107.07
 24.5596  11748.9  108.012
 24.6016  11472.7  107.036
 24.6436  11928.6  108.637
 24.6856  11903.2  108.27
 24.7276  11773.5  108.007
 24.7696  11716  107.846
 24.8116  11656.3  107.762
 24.8536  11580.7  107.408
 24.8956  11584.7  107.15
 24.9376  11603.2  107.171
 24.9796  11556.6  107.322
 25.0216  11564.3  107.466
 25.0636  11562.7  107.111
 25.1056  11383.4  106.973
 25.1476  11188.6  107.696
 25.1896  11274  106.624
 25.2316  11226.9  105.683
 25.2736  11220  105.293
 25.3156  11020.5  104.424
 25.3576  11008.9  104.799
 25.3996  10957.8  104.544
 25.4416  11009.3  104.764
 25.4836  10876.1  104.635
 25.5256  11094.8  105.051
 25.5676  11144.8  105.02
 25.6096  10877.5  104.324
 25.6516  10941.3  104.136
 25.6936  10886.3  104.181
 25.7356  10848.3  104.138
 25.7776  11055.8  104.724
 25.8196  10833.9  103.906
 25.8616  10915.4  104.236
 25.9036  11144.9  104.766
 25.9456  10869.2  104.059
 25.9876  10687.2  103.243
 26.0296  10855.7  103.58
 26.0716  10920.3  104.305
 26.1136  11128.1  105.229
 26.1556  11206.2  104.983
 26.1976  10780  103.887
 26.2396  10789.2  103.092
 26.2816  10688.4  103.211
 26.3236  10986.7  104.8
 26.3656  10900.5  104.096
 26.4076  10685.9  103.278
 26.4496  10843.1  103.617
 26.4916  11010.5  104.31
 26.5336  11224.8  105.762
 26.5756  11570.2  107.172
 26.6176  11115.1  105.067
 26.6596  10653.1  103.157
 26.7016  10485.4  102.115
 26.7436  10563.3  102.61
 26.7856  10358.2  101.606
 26.8276  10446.6  102.005
 26.8696  10485  102.059
 26.9116  10439  101.782
 26.9536  10339.1  101.334
 26.9956  10381.4  101.583
 27.0376  10330.5  101.543
 27.0796  10458.5  101.907
 27.1216  10580.3  102.534
 27.1636  10277.9  101.238
 27.2056  10423.6  101.838
 27.2476  10393.8  101.689
 27.2896  10107.4  100.399
 27.3316  10284.7  100.976
 27.3736  9982.18  99.7649
 27.4156  10293.5  101.139
 27.4576  10358.5  101.671
 27.4996  10408.9  101.535
 27.5416  10147.2  100.56
 27.5836  10164.7  100.477
 27.6256  10217.1  100.917
 27.6676  10102.3  100.344
 27.7096  10211.3  100.765
 27.7516  10819.5  103.778
 27.7936  11114.6  105.417
 27.8356  10808  103.561
 27.8776  10684.2  103.029
 27.9196  10460.2  101.805
 27.9616  10414.6  101.794
 28.0036  10393.1  101.638
 28.0456  9999.25  99.8434
 28.0876  10067.2  100.267
 28.1296  10042.7  99.9651
 28.1716  10186.8  100.696
 28.2136  10001.5  99.7563
 28.2556  10078.6  100.243
 28.2976  10052.2  100.116
 28.3396  10121.3  100.219
 28.3816  10045.9  99.8508
 28.4236  10081.8  100.19
 28.4656  9851.94  99.0755
 28.5076  9723.93  98.0718
 28.5496  9695.43  98.1743
 28.5916  9920.23  99.1309
 28.6336  9685.49  98.2791
 28.6756  9972.67  98.923
 28.7176  9844.1  98.8405
 28.7596  9703.04  98.0261
 28.8016  9587.96  97.4805
 28.8436  9664.52  98.1069
 28.8856  9789.51  98.5834
 28.9276  9804.98  98.9145
 28.9696  9631.19  97.6928
 29.0116  9647.04  97.96
 29.0536  9551.63  97.6756
 29.0956  9732.78  98.2977
 29.1376  9673.1  97.9752
 29.1796  9538.24  97.3296
 29.2216  9496.71  96.9659
 29.2636  9558.38  97.3418
 29.3056  9428.33  96.4732
 29.3476  9580.78  97.7685
 29.3896  9607.99  98.0313
 29.4316  9448.31  96.5585
 29.4736  9263.43  95.6743
 29.5156  9381.9  96.2054
 29.5576  9281.84  96.4103
 29.5996  9345.59  96.0156
 29.6416  9295.56  95.8734
 29.6836  9367.5  96.1729
 29.7256  9165.71  95.6841
 29.7676  9437.19  96.7574
 29.8096  9201.61  95.4836
 29.8516  9099.09  95.278
 29.8936  9208.68  95.9384
 29.9356  9264.39  95.9776
 29.9776  9242.16  96.0226
 30.0196  9402.27  96.2368
 30.0616  9323.16  96.2079
 30.1036  9315.36  95.9932
 30.1456  9179.92  95.5266
 30.1876  9077.31  94.9659
 30.2296  9034.81  94.6975
 30.2716  9131.75  94.8445
 30.3136  9206.46  96.0776
 30.3556  9362.86  96.8864
 30.3976  9295.02  98.0307
 30.4396  9675.39  97.3237
 30.4816  9511.86  96.1142
 30.5236  9478.76  95.943
 30.5656  9358.66  95.9819
 30.6076  9387.7  95.5585
 30.6496  9353.52  95.7821
 30.6916  9244.3  95.3225
 30.7336  9373.86  96.1298
 30.7756  9290.98  95.7707
 30.8176  9317.84  95.841
 30.8596  9346.47  95.745
 30.9016  9294.42  95.8349
 30.9436  9302.98  95.6245
 30.9856  9504.27  96.7651
 31.0276  9286.5  95.2912
 31.0696  9306.41  95.9464
 31.1116  9331.07  96.0587
 31.1536  9460.07  96.5698
 31.1956  9470.44  96.7324
 31.2376  8989.4  94.2677
 31.2796  8968.35  93.7004
 31.3216  9245.13  95.0654
 31.3636  9176.5  95.3986
 31.4056  9167.42  96.6712
 31.4476  9191.75  94.6983
 31.4896  9284.36  95.6605
 31.5316  9292.65  95.1261
 31.5736  10131.2  99.145
 31.6156  10010.1  98.5591
 31.6576  9434.23  95.763
 31.6996  9457.37  95.5396
 31.7416  9304.3  95.8564
 31.7836  9500.6  95.8405
 31.8256  9340.42  95.2971
 31.8676  9439.44  95.8002
 31.9096  9088.08  94.3628
 31.9516  9108.15  94.6428
 31.9936  9122.13  94.5362
 32.0356  9254.93  95.2564
 32.0776  9322.68  95.5174
 32.1196  9194.39  94.9605
 32.1616  9204.64  94.4597
 32.2036  9132.52  94.5968
 32.2456  9152.72  95.0796
 32.2876  9219.12  94.9285
 32.3296  9118.56  94.3705
 32.3716  8921.26  93.4691
 32.4136  8959.44  93.8786
 32.4556  9134.88  94.1632
 32.4976  9021.24  93.4928
 32.5396  8864.14  92.733
 32.5816  8820.52  92.6244
 32.6236  8900.18  93.1094
 32.6656  8989.1  94.1163
 32.7076  8829.34  92.9234
 32.7496  8818.43  92.5468
 32.7916  8877.64  92.8251
 32.8336  8842.69  92.7307
 32.8756  8917.39  92.8403
 32.9176  8769.88  92.5586
 32.9596  8923.34  93.4249
 33.0016  8941.72  93.3061
 33.0436  9002.93  93.5256
 33.0856  8826.74  92.9691
 33.1276  8753.37  92.3127
 33.1696  8660.4  91.6509
 33.2116  8819.04  92.7291
 33.2536  8884.43  93.0501
 33.2956  8821.58  92.8091
 33.3376  8708.57  91.96
 33.3796  8745.75  92.373
 33.4216  8751.34  92.0005
 33.4636  8712.14  91.943
 33.5056  8641.43  91.8111
 33.5476  8856.82  92.9117
 33.5896  8697.22  91.8783
 33.6316  8651.18  91.9352
 33.6736  8615.89  91.9987
 33.7156  8516.48  91.2301
 33.7576  8631.24  91.758
 33.7996  8754.75  92.1779
 33.8416  8615.95  91.6242
 33.8836  8536.62  91.1112
 33.9256  8750.05  92.1626
 33.9676  8733.62  91.9774
 34.0096  8580.51  91.476
 34.0516  8635.73  91.4065
 34.0936  8425.87  90.4746
 34.1356  8622.59  91.3564
 34.1776  8517.21  90.7964
 34.2196  8444.83  90.5858
 34.2616  8456.25  90.7867
 34.3036  8570.78  91.6372
 34.3456  8532.75  91.1902
 34.3876  8478.74  90.872
 34.4296  8464.48  90.4896
 34.4716  8633.04  91.5028
 34.5136  8530.2  91.1839
 34.5556  8384.41  90.6642
 34.5976  8596.49  91.6082
 34.6396  8573.76  91.1977
 34.6816  8646.29  91.6772
 34.7236  8520.05  90.796
 34.7656  8532.35  91.0715
 34.8076  8518.02  91.3229
 34.8496  8417.99  90.6396
 34.8916  8467.96  90.7749
 34.9336  8596.54  91.4428
 34.9756  8508.2  90.8872
 35.0176  8462.01  91.165
 35.0596  8543.3  91.4191
 35.1016  8395.29  90.3882
 35.1436  8615.77  91.2523
 35.1856  8532.25  90.932
 35.2276  8392.46  90.3577
 35.2696  8451.54  90.8717
 35.3116  8412.41  90.7515
 35.3536  8386.28  90.3194
 35.3956  8351.06  89.8496
 35.4376  8407.31  90.7051
 35.4796  8406.66  90.7506
 35.5216  8430.31  90.8447
 35.5636  8166.08  90.1358
 35.6056  8300.18  89.908
 35.6476  8492.85  90.8368
 35.6896  8475.28  90.8323
 35.7316  8303.15  89.8848
 35.7736  8297.7  90.0282
 35.8156  8350.48  90.3239
 35.8576  8294.34  90.2735
 35.8996  8347.75  90.5343
 35.9416  8369.67  90.1577
 35.9836  8376.77  90.5409
 36.0256  8481.39  91.1113
 36.0676  8465.45  90.7839
 36.1096  8301.01  90.0409
 36.1516  8468.42  90.8319
 36.1936  8431.95  90.4792
 36.2356  8345.23  90.6619
 36.2776  8197.84  89.3532
 36.3196  8244.9  89.272
 36.3616  8302.65  89.6598
 36.4036  8172.93  89.0807
 36.4456  8253.6  89.7135
 36.4876  8197.4  89.3572
 36.5296  8301.78  89.9545
 36.5716  8240.26  90.1766
 36.6136  8421.17  90.1764
 36.6556  8241.06  89.4086
 36.6976  8104.75  89.1557
 36.7396  8121.68  88.9781
 36.7816  8072.96  89.0864
 36.8236  7979.55  88.4931
 36.8656  7968.76  88.5001
 36.9076  7913.83  88.0771
 36.9496  7981.14  88.4445
 36.9916  7924.23  87.7578
 37.0336  8144.55  89.2882
 37.0756  8095.41  88.8093
 37.1176  7794.7  87.4089
 37.1596  7981.36  88.4525
 37.2016  7944.49  88.4738
 37.2436  8040.36  88.3282
 37.2856  7977.32  88.2302
 37.3276  7827.14  86.9288
 37.3696  7901.52  88.0438
 37.4116  7936.98  88.1545
 37.4536  7881.64  87.7117
 37.4956  7722.47  87.0676
 37.5376  7991.11  89.9233
 37.5796  8033.53  90.0939
 37.6216  7812.52  87.1423
 37.6636  8058.78  88.3901
 37.7056  7985.01  88.1768
 37.7476  8122.91  88.4728
 37.7896  7963.24  88.116
 37.8316  8019.41  88.5649
 37.8736  8006.9  88.0436
 37.9156  7972.91  87.8442
 37.9576  7993.22  87.865
 37.9996  7854.93  86.8166
 38.0416  7999.97  88.4206
 38.0836  8069.82  88.7107
 38.1256  8038.48  88.5095
 38.1676  8057.75  88.7382
 38.2096  8123.19  88.7128
 38.2516  8061.87  88.6007
 38.2936  7992.31  87.9962
 38.3356  7961.82  87.7777
 38.3776  7960.02  88.002
 38.4196  8023.61  88.209
 38.4616  8089.33  88.823
 38.5036  8126.41  88.87
 38.5456  7862.74  88.2441
 38.5876  7917.45  88.5746
 38.6296  7937.71  87.6409
 38.6716  8030.49  87.9636
 38.7136  7848.28  86.9066
 38.7556  7905.16  87.7192
 38.7976  7881.19  87.5113
 38.8396  7817.99  87.616
 38.8816  7696.01  86.728
 38.9236  7900.34  87.6796
 38.9656  7878.47  87.4644
 39.0076  7956.7  87.2859
 39.0496  8018.57  88.1862
 39.0916  7955.55  87.4926
 39.1336  7859.9  87.3719
 39.1756  7887.67  87.5786
 39.2176  7802.84  87.6474
 39.2596  7970.49  88.505
 39.3016  7857.18  87.4647
 39.3436  7787.52  87.4832
 39.3856  7853.87  87.2994
 39.4276  7953.41  88.3511
 39.4696  7925.67  87.8278
 39.5116  7938  88.4081
 39.5536  7962.37  88.9644
 39.5956  7985.56  88.2076
 39.6376  7813.11  87.2586
 39.6796  7831.93  87.0927
 39.7216  7858.98  87.3574
 39.7636  7823.32  87.7038
 39.8056  7847.96  87.64
 39.8476  7814.88  87.7082
 39.8896  7940.35  88.0318
 39.9316  7778.64  87.3824
 39.9736  7924.79  87.7773
 40.0156  7774.19  86.7696
 40.0576  7857.16  87.5764
 40.0996  7891  86.9581
 40.1416  7870.07  87.6335
 40.1836  7904.99  87.7116
 40.2256  7980.32  88.1675
 40.2676  7910.99  87.8869
 40.3096  7857.2  87.5148
 40.3516  7940.08  88.0875
 40.3936  8065.54  88.3363
 40.4356  7787.66  87.0032
 40.4776  7852.34  87.7675
 40.5196  7932.17  88.3421
 40.5616  8071.05  88.737
 40.6036  7857.13  87.8222
 40.6456  7873.35  87.5226
 40.6876  7939.71  87.88
 40.7296  7819.72  87.3474
 40.7716  7830.99  87.5296
 40.8136  7737.48  86.9473
 40.8556  7875.74  87.8399
 40.8976  7862.53  87.7068
 40.9396  7884.84  88.1645
 40.9816  7891.76  87.5055
 41.0236  7785.24  86.7089
 41.0656  7962.62  88.2206
 41.1076  7786.25  87.0153
 41.1496  7951.5  87.838
 41.1916  7821.22  87.4374
 41.2336  7871.46  87.709
 41.2756  7970.54  87.8676
 41.3176  7883.74  87.989
 41.3596  7990.98  88.3201
 41.4016  7765.4  87.3309
 41.4436  7961.94  88.2042
 41.4856  7876.17  87.9
 41.5276  7899.36  88.0381
 41.5696  7849.93  87.3988
 41.6116  7865.43  87.8581
 41.6536  7836.27  87.5622
 41.6956  7936.18  88.1826
 41.7376  7810.75  87.516
 41.7796  7752.68  87.077
 41.8216  7845.29  87.8237
 41.8636  7819.08  87.6232
 41.9056  7761.07  87.0834
 41.9476  7918.54  88.1986
 41.9896  7960.46  88.092
 42.0316  7904.21  87.8721
 42.0736  8006.74  88.5283
 42.1156  7818.79  87.3324
 42.1576  7850.68  87.6195
 42.1996  7965.96  88.3876
 42.2416  7912.73  87.5991
 42.2836  7816.1  87.2643
 42.3256  7810.95  87.3356
 42.3676  7926.46  87.7794
 42.4096  7847.06  87.3085
 42.4516  7845.87  87.4468
 42.4936  7756.26  86.9634
 42.5356  7773.03  87.1965
 42.5776  7903.15  87.8554
 42.6196  7907.36  87.9393
 42.6616  7760.22  87.285
 42.7036  7792.45  86.8446
 42.7456  7895.55  87.7681
 42.7876  7873.52  87.7372
 42.8296  7844.89  87.4257
 42.8716  7767.67  87.1532
 42.9136  7751.06  86.8531
 42.9556  7737.66  86.9093
 42.9976  7732.45  86.8453
 43.0396  7619.15  85.9431
 43.0816  7692.16  86.7329
 43.1236  7747.94  87.1009
 43.1656  7724.69  86.7891
 43.2076  7740.67  86.9941
 43.2496  7698.52  86.5785
 43.2916  7757.46  87.271
 43.3336  7752.25  87.0748
 43.3756  7757.7  86.8558
 43.4176  7582.45  85.959
 43.4596  7612.87  85.9851
 43.5016  7705.05  86.8963
 43.5436  7666.64  86.5916
 43.5856  7621  86.3648
 43.6276  7581.8  86.0336
 43.6696  7625.47  86.4892
 43.7116  7729.21  86.6206
 43.7536  7637.17  86.5914
 43.7956  7487.29  86.9443
 43.8376  7513.04  85.6372
 43.8796  7456.44  85.3924
 43.9216  7503.36  85.572
 43.9636  7579.4  86.1187
 44.0056  7459.89  85.6643
 44.0476  7396.74  85.056
 44.0896  7446.86  85.5667
 44.1316  7479.66  85.2826
 44.1736  7516.49  85.6188
 44.2156  7443.91  85.0545
 44.2576  7485.71  85.6194
 44.2996  7484.67  85.5851
 44.3416  7575.87  85.866
 44.3836  7537.71  85.976
 44.4256  7426.19  84.9866
 44.4676  7318.57  84.5196
 44.5096  7487.24  85.6307
 44.5516  7462.73  85.4573
 44.5936  7375.81  84.9112
 44.6356  7480.03  85.2479
 44.6776  7456.97  85.4244
 44.7196  7387.46  85.3401
 44.7616  7493.21  87.2604
 44.8036  7435.68  85.3642
 44.8456  7582.17  86.3984
 44.8876  7644.46  86.6928
 44.9296  7675.98  86.2249
 44.9716  7580.46  86.1044
 45.0136  7548.42  85.8659
 45.0556  7699.96  86.6885
 45.0976  7620.18  86.4095
 45.1396  7442.02  85.1505
 45.1816  7389.23  84.7939
 45.2236  7529.01  85.49
 45.2656  7453.21  85.5653
 45.3076  7437.35  85.2323
 45.3496  7378.11  85.2239
 45.3916  7402.36  85.6227
 45.4336  7591.42  86.5497
 45.4756  7357.73  85.0692
 45.5176  7530.09  85.6654
 45.5596  7524.97  85.7552
 45.6016  7488.43  85.9764
 45.6436  7479.02  85.0934
 45.6856  7387.37  85.2204
 45.7276  7393.67  86.573
 45.7696  7385.73  86.2148
 45.8116  7516.02  86.3879
 45.8536  7343.08  85.2725
 45.8956  7431  85.1444
 45.9376  7507.59  85.048
 45.9796  7439.91  85.3459
 46.0216  7448.29  85.739
 46.0636  7393.05  84.5555
 46.1056  7488.06  85.0968
 46.1476  7505.7  85.7884
 46.1896  7521.04  86.0267
 46.2316  7398.94  85.1945
 46.2736  7305.88  85.0302
 46.3156  7315.44  84.6706
 46.3576  7441.32  85.5899
 46.3996  7416.3  85.6037
 46.4416  7434.87  85.297
 46.4836  7361.73  85.223
 46.5256  7495.61  85.9463
 46.5676  7451.48  85.806
 46.6096  7466.05  85.8127
 46.6516  7527.96  85.2108
 46.6936  7505.32  85.5831
 46.7356  7636.64  86.4247
 46.7776  7342.15  85.6725
 46.8196  7416.25  85.6152
 46.8616  7334.37  85.1059
 46.9036  7354.5  84.8743
 46.9456  7336.05  84.4077
 46.9876  7358.49  84.6153
 47.0296  7430.56  85.6339
 47.0716  7268.24  84.6071
 47.1136  7326.83  84.6145
 47.1556  7359.84  84.6822
 47.1976  7446.29  85.2521
 47.2396  7298.93  84.8104
 47.2816  7303.6  84.5395
 47.3236  7292.85  84.843
 47.3656  7317.72  84.9239
 47.4076  7275.99  84.4849
 47.4496  7236.49  84.3446
 47.4916  7316.97  85.0064
 47.5336  7308.18  84.7677
 47.5756  7398.79  85.414
 47.6176  7286.38  84.6594
 47.6596  7194.46  83.8377
 47.7016  7406.29  84.8792
 47.7436  7409.02  85.2412
 47.7856  7383.09  85.0995
 47.8276  7338.44  84.8905
 47.8696  7309.54  84.8201
 47.9116  7331.3  84.6592
 47.9536  7279.8  84.3078
 47.9956  7240.81  84.7866
 48.0376  7241.68  84.5648
 48.0796  7281.45  84.9213
 48.1216  7226.22  84.4257
 48.1636  7442.42  85.2358
 48.2056  7241.65  84.3508
 48.2476  7308.27  85.0169
 48.2896  7303.43  84.9247
 48.3316  7396.27  85.4135
 48.3736  7315.3  84.9548
 48.4156  7314.82  84.9216
 48.4576  7316.11  85.1157
 48.4996  7358.71  84.8124
 48.5416  7353.48  85.1059
 48.5836  7390.41  84.9883
 48.6256  7318.86  84.777
 48.6676  7320.38  85.3168
 48.7096  7355.63  84.7873
 48.7516  7346.58  84.8797
 48.7936  7223.31  84.3314
 48.8356  7347.53  85.0026
 48.8776  7319.02  85.4189
 48.9196  7419.34  85.3484
 48.9616  7219.88  84.5888
 49.0036  7263.02  85.1836
 49.0456  7245.56  85.0698
 49.0876  7408.91  85.5442
 49.1296  7264.61  84.8718
 49.1716  7240.22  84.833
 49.2136  7380.44  85.3399
 49.2556  7449.14  85.768
 49.2976  7297.67  84.9516
 49.3396  7251.67  84.7464
 49.3816  7287.02  84.5347
 49.4236  7265.22  84.685
 49.4656  7139.54  83.9715
 49.5076  7257.59  84.4052
 49.5496  7145.83  83.8158
 49.5916  7253.6  84.3568
 49.6336  7207.84  84.304
 49.6756  7344.29  85.3208
 49.7176  7265.54  84.8143
 49.7596  7213.21  84.2689
 49.8016  7291.66  84.6355
 49.8436  7229.64  84.5908
 49.8856  7280.61  84.8891
 49.9276  7145.13  84.2011
 49.9696  7310.47  85.1458
 50.0116  7192.29  84.5992
 50.0536  7232.59  84.7738
 50.0956  7163.71  84.4361
 50.1376  7194.91  84.3115
 50.1796  7185.11  84.5388
 50.2216  7175.82  84.4756
 50.2636  7233.04  84.4204
 50.3056  7153.63  84.1326
 50.3476  7184.42  84.3422
 50.3896  7208.49  84.4486
 50.4316  7183.29  84.1293
 50.4736  7162.29  84.229
 50.5156  7084.87  83.7658
 50.5576  7219.93  84.3122
 50.5996  7113.37  83.9774
 50.6416  7055.56  83.5548
 50.6836  7177.84  84.3422
 50.7256  7166.16  84.187
 50.7676  7233.76  84.9094
 50.8096  7131.84  83.8496
 50.8516  7095.96  84.0644
 50.8936  7025.99  83.4262
 50.9356  7205.79  84.5936
 50.9776  7084.86  84.0481
 51.0196  6930.91  83.2548
 51.0616  7016.33  83.0851
 51.1036  7044.59  83.6174
 51.1456  7126.99  84.0143
 51.1876  7002.63  82.6122
 51.2296  7072.72  83.6723
 51.2716  6906.32  82.3879
 51.3136  6937.15  83.0318
 51.3556  6869.69  82.2497
 51.3976  6927.9  82.7485
 51.4396  6766.98  82.0933
 51.4816  6887.31  82.6704
 51.5236  7018.43  83.5411
 51.5656  6932.76  82.6154
 51.6076  7011.86  83.1747
 51.6496  6962.91  83.081
 51.6916  6833.19  82.659
 51.7336  6856.75  82.8996
 51.7756  6954.18  83.1779
 51.8176  6861.51  82.7312
 51.8596  6827.12  82.5383
 51.9016  7088.47  83.7
 51.9436  6951.12  84.3875
 51.9856  6988.64  85.0198
 52.0276  6989.03  83.4875
 52.0696  7170.43  84.6378
 52.1116  6938.02  83.3933
 52.1536  7060.6  83.9897
 52.1956  6961.27  82.8701
 52.2376  7206.9  84.4863
 52.2796  7019.91  83.2041
 52.3216  6887.13  83.0964
 52.3636  7011  83.3804
 52.4056  7019.55  83.3209
 52.4476  6902.36  82.9895
 52.4896  6814.34  82.5132
 52.5316  7029.08  83.841
 52.5736  6834.71  82.4039
 52.6156  6977.38  83.652
 52.6576  6944.6  82.888
 52.6996  6772.3  82.8443
 52.7416  6910.68  83.6051
 52.7836  6855.5  83.0873
 52.8256  6981.85  83.0528
 52.8676  6780.89  82.424
 52.9096  6892.11  83.1635
 52.9516  6862.84  83.3949
 52.9936  6870.01  83.8085
 53.0356  6992.82  83.5342
 53.0776  6934.91  83.4591
 53.1196  6908.88  83.4267
 53.1616  6863.39  83.1987
 53.2036  6970.64  83.8121
 53.2456  6804.09  82.909
 53.2876  6928.3  83.3542
 53.3296  6851.47  83.22
 53.3716  7073.44  84.2906
 53.4136  6887.97  83.3395
 53.4556  6813.08  82.9125
 53.4976  6898.1  83.2577
 53.5396  6820.74  83.206
 53.5816  6949.93  83.6097
 53.6236  6812.8  83.141
 53.6656  6897.17  83.2485
 53.7076  6833.53  82.8313
 53.7496  6922.08  83.4802
 53.7916  6834.15  83.0973
 53.8336  6854.88  83.0963
 53.8756  6736.94  82.9573
 53.9176  6781.81  82.5593
 53.9596  6572.3  82.0518
 54.0016  6643.24  81.8114
 54.0436  6539.11  81.3979
 54.0856  6683.23  81.6978
 54.1276  6641.61  81.6391
 54.1696  6577.71  81.4175
 54.2116  6735.52  82.1106
 54.2536  6635.07  81.3319
 54.2956  6606.91  81.1999
 54.3376  6492.47  80.9817
 54.3796  6575.8  81.3992
 54.4216  6485.19  80.7291
 54.4636  6530.25  81.1511
 54.5056  6588.01  81.298
 54.5476  6524.06  81.2367
 54.5896  6589.82  81.4996
 54.6316  6628.8  81.5576
 54.6736  6562.23  81.2475
 54.7156  6584.31  81.4203
 54.7576  6485.36  80.7959
 54.7996  6552.82  81.3497
 54.8416  6493.5  81.0367
 54.8836  6492.34  81.1166
 54.9256  6395.07  80.2776
 54.9676  6362.18  79.9396
 55.0096  6612.06  81.5123
 55.0516  6341.88  80.0797
 55.0936  6515.5  80.8321
 55.1356  6398.93  80.1285
 55.1776  6493.69  80.9542
 55.2196  6465.36  80.5708
 55.2616  6565.17  81.4139
 55.3036  6449.94  80.878
 55.3456  6303.55  80.1111
 55.3876  6463.78  80.8318
 55.4296  6340.12  80.0644
 55.4716  6432.7  80.6711
 55.5136  6444.23  80.5025
 55.5556  6556.39  81.238
 55.5976  6404.18  80.3804
 55.6396  6438.61  80.5395
 55.6816  6377.12  80.0321
 55.7236  6367.82  80.0368
 55.7656  6536.6  80.8
 55.8076  6313.3  79.4231
 55.8496  6370.62  80.088
 55.8916  6252.42  79.5399
 55.9336  6481.46  80.8042
 55.9756  6355.14  79.883
 56.0176  6319.08  79.8299
 56.0596  6343.25  79.9785
 56.1016  6174.59  78.9196
 56.1436  6256.74  79.6935
 56.1856  6251.06  79.3985
 56.2276  6445.8  80.6732
 56.2696  6346.29  80.0385
 56.3116  6411.25  80.8263
 56.3536  6283.88  79.6798
 56.3956  6262.14  79.5339
 56.4376  6287.34  79.7354
 56.4796  6178.75  78.8679
 56.5216  6308.35  80.0609
 56.5636  6216.17  79.0471
 56.6056  6375.39  80.277
 56.6476  6271.28  79.2418
 56.6896  6416.62  80.6016
 56.7316  6240.32  79.4126
 56.7736  6202.74  79.148
 56.8156  6194.17  79.1464
 56.8576  6099.31  78.4831
 56.8996  6174.12  78.8584
 56.9416  6196.81  79.3398
 56.9836  6317.96  79.6169
 57.0256  6310.72  79.8902
 57.0676  6341.87  80.2056
 57.1096  6251.91  79.4171
 57.1516  6252.4  79.4732
 57.1936  6237.84  79.1303
 57.2356  6080.19  78.4594
 57.2776  6228.93  79.3635
 57.3196  6233.53  79.7354
 57.3616  6268.77  79.4607
 57.4036  6342.36  79.9842
 57.4456  6290.31  79.6338
 57.4876  6281.72  79.4548
 57.5296  6197.04  79.2387
 57.5716  6169.22  79.0712
 57.6136  6109.08  78.5257
 57.6556  6204.69  79.2548
 57.6976  6229.29  79.2401
 57.7396  6101.49  78.771
 57.7816  6078.72  79.0022
 57.8236  6056.44  78.6958
 57.8656  6138.02  78.8392
 57.9076  6162.44  78.9984
 57.9496  6175.5  79.4342
 57.9916  6153.31  78.8251
 58.0336  6184.04  79.3077
 58.0756  6126.74  78.5725
 58.1176  6144.74  78.6827
 58.1596  6038.81  78.5853
 58.2016  5983.67  77.4623
 58.2436  5851.34  76.9937
 58.2856  5944.66  77.5376
 58.3276  5888.47  77.5272
 58.3696  5965.65  77.7926
 58.4116  5939.93  77.4926
 58.4536  5973.84  77.5971
 58.4956  5871.1  77.1076
 58.5376  5927.41  77.0488
 58.5796  5736.86  76.2185
 58.6216  5868.38  76.9053
 58.6636  5889.12  77.2511
 58.7056  5917.37  77.2901
 58.7476  5888.84  77.5436
 58.7896  5860.01  77.0055
 58.8316  5898.45  77.247
 58.8736  5901.64  77.2791
 58.9156  5874.24  77.1402
 58.9576  5868.41  77.427
 58.9996  5928.42  77.073
 59.0416  5967.7  77.6941
 59.0836  5860.32  76.9122
 59.1256  5828.46  77.3889
 59.1676  5772.33  77.3171
 59.2096  5814.98  76.9304
 59.2516  5939.26  77.3326
 59.2936  5798.92  76.735
 59.3356  5890.23  77.216
 59.3776  5922.92  77.5974
 59.4196  5852.47  77.071
 59.4616  5922.24  77.3908
 59.5036  5871.85  77.0959
 59.5456  5974.53  77.4619
 59.5876  5993.9  77.7778
 59.6296  5630.92  75.4528
 59.6716  5859.77  77.0279
 59.7136  5811.11  76.6959
 59.7556  5992.84  78.0218
 59.7976  5856.97  76.8783
 59.8396  5844.03  76.6894
 59.8816  5859.11  77.3259
 59.9236  5857.34  76.9629
 59.9656  5895.17  77.4665
 60.0076  6115.9  78.2588
 60.0496  5910.26  76.9564
 60.0916  5925.92  76.9564
 60.1336  5843.25  77.5071
 60.1756  5740.42  77.9769
 60.1996  5748.82  80.2163