File: docs/examples/opeando_xrd/IS17_D/Data/IS17_D/17_Db_f00040.xye
# /beamlines/bl04/projects/cycle2025-II/20250340211-lsimonelli/DATA/IS17_D/17_Db_f00040.xye : mythproc.py merge -s 0.006 -l 0.5 -f /beamlines/bl04/inhouse/ff/FlatField/ff_20Nov2024rod8mm60s_17keV.raw -b True -c true -o xye /beamlines/bl04/projects/cycle2025-II/20250340211-lsimonelli/DATA/IS17_D/17_Db_00040.dat
# IsMon = [6756230, 6756567, 6757432]  IsPos = [-1.4999, -2.4885, -3.4988]
# Wave = 0.4962  CalPath /beamlines/bl04/projects/cycle2025-II/20250340211-lsimonelli/DATA/Align/Si_Pos1_25keV_f00001.cal
# Date = 2025-09-24_04:50:02 Dt = 4.8000  Bin = 0.0060  <imon> = 6756743 +/- 506 (Min/Max) 6756230 / 6757432
# icurr 250.2604  mocoIn 1.7079E-05  mocoOut 0.8013  i15 7.07558e+06  imon 6.75674e+06  i7 3.6667  iEMpd_timer 4.8000  iEMpd_1 3.5186E-08  iEMpd_2 7.9112E-08  iEMpd_3 1.6504E-08  iEMpd_4 4.7486E-08  iEMhp_timer 4.8000  iEMhp_1 4.8893E-06  iEMhp_2 -2.5814E-08  iEMhp_3 -2.3488E-08  iEMhp_4 -2.1507E-08
#      9776
 1.5856  44304.3  216.144
 1.6276  51091.4  228.127
 1.6696  56981.3  240.068
 1.7116  64200.7  255.321
 1.7536  72661.9  270.468
 1.7956  76414.7  278.058
 1.8376  73298.3  272.761
 1.8796  62657.3  250.337
 1.9216  52305.5  229.63
 1.9636  44944.1  211.987
 2.0056  41034  201.77
 2.0476  38157.5  196.702
 2.0896  36960.2  192.457
 2.1316  36302.5  189.82
 2.1736  34491.4  186.492
 2.2156  34884.5  186.046
 2.2576  33537.7  183.073
 2.2996  32233.9  180.139
 2.3416  32732.1  180.078
 2.3836  31736.3  177.425
 2.4256  30875.3  175.572
 2.4676  30704.9  174.839
 2.5096  30386.6  173.987
 2.5516  29116.2  174.207
 2.5936  29183  170.926
 2.6356  28701.8  170.224
 2.6776  28441.9  168.326
 2.7196  28074.4  167.737
 2.7616  27941.5  167.122
 2.8036  27369.8  165.565
 2.8456  27591.7  166.894
 2.8876  27004.5  164.944
 2.9296  26592.5  163.837
 2.9716  26345.6  162.552
 3.0136  26017.6  161.61
 3.0556  25762.3  161.2
 3.0976  25929.5  160.616
 3.1396  25403.6  159.729
 3.1816  25227.3  159.096
 3.2236  25130  158.79
 3.2656  24734.9  156.577
 3.3076  24530.3  157.402
 3.3496  25063.5  158.259
 3.3916  25266.9  158.477
 3.4336  25836  160.843
 3.4756  26084  161.553
 3.5176  26789.5  163.48
 3.5596  26389.5  164.723
 3.6016  26544.7  162.807
 3.6436  25508.2  160.715
 3.6856  25123.2  157.79
 3.7276  24213.9  155.993
 3.7696  23911.4  155.204
 3.8116  23647.3  154.235
 3.8536  23814.1  154.705
 3.8956  23805.4  154.501
 3.9376  23348.2  153.278
 3.9796  23287.9  152.569
 4.0216  23419.4  152.034
 4.0636  23365.1  153.327
 4.1056  23261.6  152.645
 4.1476  23623.4  154.131
 4.1896  23644.4  154.054
 4.2316  23906  154.735
 4.2736  24272.3  155.72
 4.3156  24323.8  156.109
 4.3576  25293.4  159.099
 4.3996  25379.4  159.647
 4.4416  25927.5  160.943
 4.4836  26198.6  161.945
 4.5256  26838.2  164.516
 4.5676  26696.4  164.338
 4.6096  27390.3  165.104
 4.6516  27609.9  165.468
 4.6936  27510.9  165.994
 4.7356  28070.8  167.498
 4.7776  27801.9  166.521
 4.8196  27661.3  166.758
 4.8616  26726.9  163.536
 4.9036  26935.2  163.771
 4.9456  26694.9  163.692
 4.9876  26135.7  161.869
 5.0296  26219.2  161.97
 5.0716  25994.9  161.881
 5.1136  26152.7  162.239
 5.1556  26560.6  162.957
 5.1976  27081.4  164.54
 5.2396  26945.6  163.823
 5.2816  27169.5  164.968
 5.3236  26840.7  163.667
 5.3656  26480.9  163.493
 5.4076  26382.4  163.327
 5.4496  26314.4  162.618
 5.4916  26398  162.623
 5.5336  26258.6  162.21
 5.5756  26390.5  162.632
 5.6176  26379.6  162.044
 5.6596  26570.2  163.603
 5.7016  26646.2  163.101
 5.7436  26877.8  164.087
 5.7856  26698.1  163.604
 5.8276  26970.2  164.152
 5.8696  27116.2  164.766
 5.9116  27062  165.197
 5.9536  27510.9  166.302
 5.9956  27800  166.569
 6.0376  27266.8  165.575
 6.0796  27720.1  166.775
 6.1216  27732.1  167.008
 6.1636  28059.6  167.054
 6.2056  27702.5  166.658
 6.2476  28066.5  167.624
 6.2896  28444.2  168.428
 6.3316  28580.1  168.999
 6.3736  28425.4  168.433
 6.4156  28535.1  168.645
 6.4576  28678.5  168.698
 6.4996  28640.1  169.052
 6.5416  28787.5  169.618
 6.5836  28738.6  169.713
 6.6256  28763.5  169.35
 6.6676  29435.1  170.884
 6.7096  29425.8  171.709
 6.7516  29914.6  172.788
 6.7936  30031  172.534
 6.8356  29926.8  172.326
 6.8776  30157.2  173.786
 6.9196  30129.3  174.103
 6.9616  30708.4  175.183
 7.0036  31191.4  176.244
 7.0456  31127.2  175.365
 7.0876  30932.9  176.486
 7.1296  31330.9  176.757
 7.1716  30942.4  175.198
 7.2136  30695.3  174.278
 7.2556  30921.5  175.072
 7.2976  30872  175.418
 7.3396  30756.8  175.311
 7.3816  30919.8  175.987
 7.4236  31185.1  176.044
 7.4656  31242.6  175.685
 7.5076  31330.3  176.073
 7.5496  31244.7  176.36
 7.5916  31357.5  176.726
 7.6336  31840.9  177.97
 7.6756  31943.6  178.11
 7.7176  32268  179.331
 7.7596  32046.2  179.919
 7.8016  32774.2  184.167
 7.8436  32145.5  179.11
 7.8856  32493.4  179.696
 7.9276  33303.1  182.311
 7.9696  33178.3  182.27
 8.0116  33960.4  182.983
 8.0536  33973.7  183.264
 8.0956  34261.5  185.198
 8.1376  34801.7  186.13
 8.1796  34831  186.736
 8.2216  35461.4  187.185
 8.2636  35762.1  188.221
 8.3056  35596.4  188.536
 8.3476  36268  189.646
 8.3896  35884.7  188.724
 8.4316  35942.1  189.033
 8.4736  36361.5  189.607
 8.5156  35477.9  187.564
 8.5576  35630.7  188.924
 8.5996  35413.6  187.243
 8.6416  35415.2  188.481
 8.6836  34972.5  187.133
 8.7256  35533.8  188.09
 8.7676  35482.6  190.817
 8.8096  35703.2  188.755
 8.8516  35697.4  188.304
 8.8936  34970.5  186.344
 8.9356  35497.2  188.067
 8.9776  35456.1  188.036
 9.0196  35667.5  188.273
 9.0616  35281.2  186.761
 9.1036  34668.2  186.276
 9.1456  34510.4  185.196
 9.1876  34626.8  185.45
 9.2296  34179.1  183.697
 9.2716  34115.4  183.564
 9.3136  34301.6  184.062
 9.3556  34378.3  184.247
 9.3976  33248.2  181.687
 9.4396  33186.1  181.431
 9.4816  33348.3  181.742
 9.5236  32808.4  180.15
 9.5656  32472.2  179.58
 9.6076  32132  179.151
 9.6496  32359  179.67
 9.6916  31860.9  178.231
 9.7336  32227.5  179.053
 9.7756  32026.7  179.822
 9.8176  31968.4  179.084
 9.8596  32009.2  177.664
 9.9016  31480.3  176.171
 9.9436  31155.9  175.198
 9.9856  30895  174.726
 10.0276  30239.6  173.908
 10.0696  30814.4  174.598
 10.1116  29836.6  172.063
 10.1536  29834.8  172.211
 10.1956  29261.4  170.184
 10.2376  29249.6  169.662
 10.2796  28895.5  168.744
 10.3216  28742.8  168.575
 10.3636  28585.7  168.138
 10.4056  27976.3  166.73
 10.4476  28180.6  166.963
 10.4896  28268.5  166.68
 10.5316  27505.1  165.11
 10.5736  27450.5  165.356
 10.6156  27231.4  164.453
 10.6576  27360  163.446
 10.6996  26958.1  162.924
 10.7416  26641.4  162.171
 10.7836  26162.1  161.35
 10.8256  25859.5  160.832
 10.8676  25893.5  160.487
 10.9096  25715.3  159.963
 10.9516  25406  157.978
 10.9936  25499.9  158.48
 11.0356  25375.5  158.686
 11.0776  25187.1  157.441
 11.1196  24763.5  156.858
 11.1616  24503.2  155.708
 11.2036  24694.5  156.168
 11.2456  24611  156.593
 11.2876  24773.5  156.84
 11.3296  24097.7  154.606
 11.3716  24549.3  155.742
 11.4136  24350.1  155.961
 11.4556  24333.8  155.578
 11.4976  24720.1  155.838
 11.5396  24854  156.429
 11.5816  25341.1  158.383
 11.6236  26030.3  160.968
 11.6656  26255.3  160.591
 11.7076  25040.6  157.658
 11.7496  24423.5  159.647
 11.7916  24236.3  154.375
 11.8336  23761.8  153.758
 11.8756  23705.2  153.105
 11.9176  23828.5  153.184
 11.9596  23837.9  153.378
 12.0016  23331.6  152.499
 12.0436  23756.3  153.33
 12.0856  23303  152.341
 12.1276  23114.6  151.692
 12.1696  23166.2  150.996
 12.2116  23141.5  150.91
 12.2536  22991.8  151.217
 12.2956  22797.9  149.943
 12.3376  23070.8  151.043
 12.3796  23001.2  151.282
 12.4216  23055  150.676
 12.4636  22828.6  150.851
 12.5056  23005.3  150.71
 12.5476  23004.9  150.231
 12.5896  22809.1  150.222
 12.6316  22941  150.796
 12.6736  22753.3  150.664
 12.7156  22883.2  150.936
 12.7576  22820.9  150.982
 12.7996  22981.4  150.179
 12.8416  22742.5  150.426
 12.8836  22795.2  150.438
 12.9256  23168.9  150.71
 12.9676  23080.9  150.81
 13.0096  23509.1  153.31
 13.0516  23418.9  152.063
 13.0936  23704.1  153.389
 13.1356  23771  152.574
 13.1776  23522.2  152.786
 13.2196  23718.9  153.07
 13.2616  23447.5  152.5
 13.3036  23726.2  153.37
 13.3456  23486.3  152.73
 13.3876  24028.6  153.958
 13.4296  23529.5  152.531
 13.4716  23573.4  152.303
 13.5136  23762.9  153.037
 13.5556  23531.9  152.912
 13.5976  23684.8  153.578
 13.6396  23529.3  152.442
 13.6816  23634.7  153.237
 13.7236  24148.3  154.473
 13.7656  25529.7  159.291
 13.8076  26575.7  161.174
 13.8496  25819.2  159.523
 13.8916  23927  154.703
 13.9336  23257.6  151.809
 13.9756  23209.4  151.04
 14.0176  22925  150.777
 14.0596  23012.9  150.985
 14.1016  23088.4  151.664
 14.1436  22913.8  150.236
 14.1856  22417.7  148.886
 14.2276  22358.1  149.157
 14.2696  22302.7  148.83
 14.3116  21845.7  147.211
 14.3536  21638.6  146.669
 14.3956  21524.7  146.015
 14.4376  21772.8  146.64
 14.4796  21585.2  146.006
 14.5216  21409.1  146.187
 14.5636  21168.3  144.942
 14.6056  21500.8  145.638
 14.6476  21185.3  143.829
 14.6896  20969.2  143.624
 14.7316  20568.9  143.269
 14.7736  20510.4  142.221
 14.8156  20313.3  141.549
 14.8576  20329.5  141.472
 14.8996  19782.3  140.728
 14.9416  19595.8  140.071
 14.9836  19608.8  140.102
 15.0256  19146.2  137.375
 15.0676  18918.8  136.86
 15.1096  18751.6  136.002
 15.1516  18637.6  136.127
 15.1936  18359.6  134.555
 15.2356  18273.4  134.51
 15.2776  18277.7  134.125
 15.3196  17880.1  133.625
 15.3616  17744  132.877
 15.4036  17723.4  132.669
 15.4456  18080.8  133.657
 15.4876  17744  132.095
 15.5296  17496.5  131.448
 15.5716  17541.5  131.231
 15.6136  17436.6  131.156
 15.6556  17165.1  129.394
 15.6976  17239.3  129.751
 15.7396  17121.8  129.892
 15.7816  16903.9  128.591
 15.8236  16595.6  128.084
 15.8656  16776.7  128.581
 15.9076  16733.2  128.241
 15.9496  17228.9  132.896
 15.9916  16932.4  132.133
 16.0336  17211.1  130.129
 16.0756  16774.2  128.787
 16.1176  16751.6  128.773
 16.1596  16358.2  128.406
 16.2016  16316.9  127.029
 16.2436  16399.8  127.719
 16.2856  16240.9  126.621
 16.3276  16170.2  126.786
 16.3696  16228.7  126.85
 16.4116  16012.9  126.436
 16.4536  16116  126.651
 16.4956  16132.5  126.456
 16.5376  15849.5  125.526
 16.5796  15670.2  124.188
 16.6216  15807.4  124.983
 16.6636  15600.7  124.361
 16.7056  15944.9  125.593
 16.7476  15856.6  124.779
 16.7896  15913.6  125.736
 16.8316  15787.6  125.22
 16.8736  15839.2  125.669
 16.9156  15655.5  125.269
 16.9576  15615.8  125.878
 16.9996  15506.9  125.913
 17.0416  15871.4  125.78
 17.0836  15870  125.537
 17.1256  15650.3  124.678
 17.1676  15820.5  125.305
 17.2096  15648.2  124.521
 17.2516  15405.7  123.341
 17.2936  15320.5  123.351
 17.3356  15384.4  123.593
 17.3776  15231.4  123.162
 17.4196  15149.7  122.536
 17.4616  15011.9  121.888
 17.5036  14701  120.978
 17.5456  14835.7  122.154
 17.5876  14772.2  120.938
 17.6296  14742  120.664
 17.6716  14696.9  121.051
 17.7136  14356.1  119.757
 17.7556  14305.5  119.841
 17.7976  14051.4  118.385
 17.8396  14179.1  118.57
 17.8816  13968.3  118.228
 17.9236  13972.3  118.037
 17.9656  13978.2  118.726
 18.0076  13967.5  118.131
 18.0496  13988.5  117.37
 18.0916  13752  116.909
 18.1336  13804.8  117.216
 18.1756  13924.1  117.297
 18.2176  13627.7  116.242
 18.2596  13508.5  115.474
 18.3016  13740.2  116.716
 18.3436  13728.7  116.9
 18.3856  13770  116.972
 18.4276  13661.2  116.207
 18.4696  13560.9  115.859
 18.5116  13726.6  116.838
 18.5536  13577.3  116.539
 18.5956  13436.7  115.517
 18.6376  13403.2  115.766
 18.6796  13454  115.309
 18.7216  13455.5  115.869
 18.7636  13573.8  116.315
 18.8056  13276.4  114.961
 18.8476  13104.8  114.815
 18.8896  13549.4  116.098
 18.9316  13411.8  115.335
 18.9736  13431  115.268
 19.0156  13217.6  114.766
 19.0576  13440.9  114.603
 19.0996  13445.4  115.314
 19.1416  13242.2  114.832
 19.1836  13163.3  114.101
 19.2256  13188.3  114.428
 19.2676  13225.6  114.67
 19.3096  13219.1  114.883
 19.3516  13181.8  114.681
 19.3936  13012.9  113.838
 19.4356  13418  115.487
 19.4776  13235.5  114.785
 19.5196  13226.7  114.609
 19.5616  13145.3  114.501
 19.6036  13047.3  113.586
 19.6456  13128  114.051
 19.6876  13261.9  114.272
 19.7296  13357.9  115.141
 19.7716  13057.8  113.867
 19.8136  13413.6  115.746
 19.8556  13327.6  114.87
 19.8976  13210.8  114.418
 19.9396  13437.6  115
 19.9816  13319.7  114.737
 20.0236  13495.4  115.67
 20.0656  13684  116.483
 20.1076  13986.6  118.237
 20.1496  14242.3  119.302
 20.1916  14611.7  120.354
 20.2336  14350  119.184
 20.2756  14064.2  118.436
 20.3176  13662.8  116.489
 20.3596  13523.6  115.876
 20.4016  13300.3  114.714
 20.4436  13224.3  114.955
 20.4856  13151.9  114.425
 20.5276  13026.7  114.333
 20.5696  13084.7  114.036
 20.6116  12838.9  113.242
 20.6536  12835.5  112.798
 20.6956  12703.8  112.289
 20.7376  12685.6  112.416
 20.7796  12670.2  112.042
 20.8216  12860.6  112.608
 20.8636  12890.4  113.107
 20.9056  12599.1  111.754
 20.9476  12621.3  111.71
 20.9896  12809.5  112.399
 21.0316  12529.3  111.072
 21.0736  12505.9  111.477
 21.1156  12412.8  111.214
 21.1576  12476  111.531
 21.1996  12408.1  111.223
 21.2416  12560.4  111.728
 21.2836  12437.4  111.154
 21.3256  12443.4  111.252
 21.3676  12528.2  111.166
 21.4096  12321.7  110.563
 21.4516  12333.4  110.492
 21.4936  12181.6  110.076
 21.5356  12283.1  110.483
 21.5776  12401.4  110.849
 21.6196  12173.1  109.864
 21.6616  12220.4  110.155
 21.7036  12253.9  110.084
 21.7456  12344.8  110.565
 21.7876  12269.1  109.994
 21.8296  12168.2  109.393
 21.8716  12190.7  109.71
 21.9136  12400.8  110.854
 21.9556  12210.5  109.687
 21.9976  12037.5  108.928
 22.0396  12078.8  109.363
 22.0816  12040.4  109.697
 22.1236  12072.2  109.324
 22.1656  11998.4  109.177
 22.2076  11957.3  108.398
 22.2496  11916.4  108.252
 22.2916  11871  107.931
 22.3336  11940.9  108.938
 22.3756  11862.8  108.329
 22.4176  11808.8  107.937
 22.4596  11618.8  107.635
 22.5016  11789.7  107.945
 22.5436  11892.2  108.29
 22.5856  12082.8  109.393
 22.6276  12402.4  110.959
 22.6696  11939.6  109.225
 22.7116  11837.6  108.279
 22.7536  11915.3  108.612
 22.7956  11795.2  107.411
 22.8376  11688.2  107.43
 22.8796  11728.7  107.425
 22.9216  11923.8  108.841
 22.9636  12003.2  108.375
 23.0056  11792.3  107.549
 23.0476  11872.7  108.475
 23.0896  12221.5  109.444
 23.1316  12020.7  108.967
 23.1736  11978  111.648
 23.2156  12145.7  109.851
 23.2576  12477.8  111.476
 23.2996  12232.2  110.153
 23.3416  12329.1  111.113
 23.3836  12376  110.554
 23.4256  12523.8  111.338
 23.4676  12320  110.128
 23.5096  12268.3  110.545
 23.5516  12226.8  109.661
 23.5936  12237.5  110.613
 23.6356  12383  110.935
 23.6776  12100.1  109.871
 23.7196  12041.1  109.179
 23.7616  12064.1  109.202
 23.8036  12505.9  111.244
 23.8456  12064.5  108.819
 23.8876  12080.1  109.244
 23.9296  11798.5  108.44
 23.9716  11857.6  107.93
 24.0136  12028.9  109.601
 24.0556  11946.6  108.942
 24.0976  11880.7  108.462
 24.1396  11663.6  110.033
 24.1816  11819.1  109.529
 24.2236  11891.2  109.168
 24.2656  11695.5  107.743
 24.3076  11653.7  107.823
 24.3496  11541.7  107.18
 24.3916  11755.9  108.228
 24.4336  11718.1  108.251
 24.4756  11721.8  108.155
 24.5176  11459.9  106.573
 24.5596  11397.2  106.397
 24.6016  11432.9  106.854
 24.6436  11573  107.024
 24.6856  11264.5  105.338
 24.7276  11145.9  105.098
 24.7696  11288.7  105.866
 24.8116  11148  105.388
 24.8536  11066.2  105.006
 24.8956  11159.1  105.186
 24.9376  11125.6  104.948
 24.9796  11007  104.742
 25.0216  10957.1  104.623
 25.0636  11146.3  105.18
 25.1056  10834.7  104.123
 25.1476  10758.7  105.6
 25.1896  10933.5  104.997
 25.2316  10740.3  103.36
 25.2736  10852.4  103.552
 25.3156  10673.1  102.76
 25.3576  10665  103.149
 25.3996  10745.4  103.524
 25.4416  10772.5  103.63
 25.4836  10461.7  102.629
 25.5256  10604.3  102.701
 25.5676  10729.4  103.039
 25.6096  10505.5  102.52
 25.6516  10668  102.828
 25.6936  10771.3  103.634
 25.7356  10657.4  103.217
 25.7776  10619  102.626
 25.8196  10531.2  102.446
 25.8616  10464.3  102.053
 25.9036  10522  101.798
 25.9456  10438.8  101.984
 25.9876  10481.1  102.247
 26.0296  10660.1  102.727
 26.0716  10497.3  102.271
 26.1136  10395.5  101.705
 26.1556  10374.2  100.997
 26.1976  10430.4  102.189
 26.2396  10391.6  101.414
 26.2816  10455.6  102.076
 26.3236  10401.8  101.962
 26.3656  10545.2  102.392
 26.4076  10416.1  101.975
 26.4496  10629.9  102.606
 26.4916  10733.8  102.998
 26.5336  11118.6  105.178
 26.5756  11147.8  105.192
 26.6176  10525.9  102.236
 26.6596  10502.9  102.431
 26.7016  10386.5  101.621
 26.7436  10429.7  101.966
 26.7856  10242  101.035
 26.8276  10307  101.322
 26.8696  10265.3  100.982
 26.9116  10105.1  100.136
 26.9536  10245.3  100.875
 26.9956  10074.4  100.064
 27.0376  10111.8  100.467
 27.0796  10088.8  100.159
 27.1216  10091  100.151
 27.1636  9981.56  99.7777
 27.2056  10018.6  99.8456
 27.2476  10100.1  100.235
 27.2896  9893.63  99.3187
 27.3316  9920.86  99.1897
 27.3736  9841.33  99.0506
 27.4156  9909.73  99.2371
 27.4576  9867.66  99.2493
 27.4996  10004  99.5421
 27.5416  9939.06  99.518
 27.5836  9881.52  99.0659
 27.6256  9910.15  99.3972
 27.6676  9769.39  98.6709
 27.7096  9918.65  99.3072
 27.7516  9761.56  98.6596
 27.7936  10054.8  100.272
 27.8356  10046  99.8514
 27.8776  10032.5  99.8412
 27.9196  9751.6  98.3024
 27.9616  9706.8  98.2688
 28.0036  9649.12  97.926
 28.0456  9679.63  98.2295
 28.0876  9621.94  98.0156
 28.1296  9672.24  98.1093
 28.1716  9708.63  98.3195
 28.2136  9668.74  98.0787
 28.2556  9601.08  97.8434
 28.2976  9523.9  97.4454
 28.3396  9481.35  97.0332
 28.3816  9572.88  97.463
 28.4236  9476.81  97.1278
 28.4656  9463.67  97.1024
 28.5076  9627.01  97.5738
 28.5496  9565.46  97.5134
 28.5916  9520.51  97.1086
 28.6336  9550.86  97.5964
 28.6756  9603.85  97.0833
 28.7176  9462.72  96.9072
 28.7596  9384.11  96.3963
 28.8016  9457.54  96.8169
 28.8436  9371.62  96.5978
 28.8856  9477.57  97.008
 28.9276  9487.09  97.2949
 28.9696  9342.98  96.2032
 29.0116  9341.42  96.3876
 29.0536  9295.61  96.3603
 29.0956  9411.12  96.6685
 29.1376  9218.51  95.6399
 29.1796  9382  96.5323
 29.2216  9301.77  95.9625
 29.2636  9373.86  96.3275
 29.3056  9300.26  95.8109
 29.3476  9336.97  96.5138
 29.3896  9292.21  96.4023
 29.4316  9198.2  95.258
 29.4736  8966.98  94.1149
 29.5156  9148.57  94.9885
 29.5576  9099.88  95.453
 29.5996  9071.5  94.5846
 29.6416  8984  94.2392
 29.6836  9124.5  94.9066
 29.7256  8965.09  94.6191
 29.7676  9124.53  95.1265
 29.8096  8965.88  94.24
 29.8516  8926.76  94.3554
 29.8936  8917.18  94.3959
 29.9356  8992.37  94.5552
 29.9776  8846.84  93.9341
 30.0196  8891.96  93.584
 30.0616  8917.3  94.0788
 30.1036  8988.39  94.285
 30.1456  8897.84  94.032
 30.1876  8818.51  93.5928
 30.2296  8832.08  93.613
 30.2716  8933.63  93.7979
 30.3136  8926.39  94.5919
 30.3556  9123.28  95.6348
 30.3976  9046.54  96.6856
 30.4396  9313.81  95.499
 30.4816  9174.69  94.3931
 30.5236  9150.45  94.2556
 30.5656  9039.95  94.3377
 30.6076  9073  93.952
 30.6496  9111.55  94.5437
 30.6916  8941.92  93.7501
 30.7336  8911.87  93.723
 30.7756  9097.9  94.7645
 30.8176  9179.62  95.1294
 30.8596  9145.82  94.7102
 30.9016  9140.41  95.0504
 30.9436  9226.16  95.2352
 30.9856  9236.61  95.3979
 31.0276  9137.38  94.5231
 31.0696  9035.63  94.5383
 31.1116  9017.61  94.4207
 31.1536  9031.71  94.3804
 31.1956  8918.54  93.8579
 31.2376  8762.76  93.0694
 31.2796  9089.34  94.333
 31.3216  8958.74  93.5805
 31.3636  9011.12  94.5356
 31.4056  8916.8  95.3267
 31.4476  9005.43  93.7405
 31.4896  9010.92  94.2567
 31.5316  8977.59  93.5471
 31.5736  9168.41  94.3282
 31.6156  9060.21  93.7729
 31.6576  9046.91  93.771
 31.6996  9156.18  94.0171
 31.7416  8963.61  94.0891
 31.7836  8951.18  93.0584
 31.8256  8955.2  93.4102
 31.8676  8965.61  93.3774
 31.9096  8907.67  93.4343
 31.9516  8854.1  93.3192
 31.9936  8777.31  92.736
 32.0356  8837.27  93.079
 32.0776  8841.7  93.0322
 32.1196  8989.33  93.9062
 32.1616  8962.45  93.2129
 32.2036  8996.17  93.8968
 32.2456  8794.25  93.2169
 32.2876  8782.43  92.4931
 32.3296  8772.14  92.5714
 32.3716  8624.16  91.8966
 32.4136  8625.66  92.0967
 32.4556  8793.77  92.445
 32.4976  8721.03  91.9113
 32.5396  8589.81  91.2803
 32.5816  8723.06  92.1133
 32.6236  8740.61  92.2565
 32.6656  8782.51  93.0256
 32.7076  8590.64  91.6708
 32.7496  8628.04  91.5511
 32.7916  8482.06  90.7323
 32.8336  8596.03  91.4264
 32.8756  8769.83  92.0799
 32.9176  8367.76  90.4033
 32.9596  8508.55  91.2376
 33.0016  8561.38  91.2917
 33.0436  8645.28  91.9026
 33.0856  8625.92  91.9035
 33.1276  8370.6  90.2634
 33.1696  8551.53  91.0727
 33.2116  8638.51  91.7707
 33.2536  8668.19  91.9085
 33.2956  8503.5  91.1235
 33.3376  8478.39  90.7359
 33.3796  8713.09  92.1994
 33.4216  8539.19  90.873
 33.4636  8626.84  91.4866
 33.5056  8444.38  90.7566
 33.5476  8494.62  91.0042
 33.5896  8686.71  91.8026
 33.6316  8551.06  91.4054
 33.6736  8410.49  90.8967
 33.7156  8443.01  91.0979
 33.7576  8544.82  91.2966
 33.7996  8522.89  90.9456
 33.8416  8334.1  90.1141
 33.8836  8327.92  89.8603
 33.9256  8462.11  90.6351
 33.9676  8524.64  90.8674
 34.0096  8381.29  90.4132
 34.0516  8291.88  89.5701
 34.0936  8207.05  89.3753
 34.1356  8439.64  90.3778
 34.1776  8245  89.3257
 34.2196  8276.68  89.6842
 34.2616  8269.03  89.7754
 34.3036  8361.35  90.5038
 34.3456  8192.16  89.3453
 34.3876  8449.18  90.7139
 34.4296  8364.97  89.9561
 34.4716  8317.67  89.8464
 34.5136  8259.49  89.725
 34.5556  8168.84  89.4812
 34.5976  8276.64  89.8861
 34.6396  8372  90.1191
 34.6816  8351.4  90.11
 34.7236  8275.74  89.4864
 34.7656  8244.93  89.5202
 34.8076  8164.71  89.4067
 34.8496  8161.39  89.2423
 34.8916  8260.7  89.6437
 34.9336  8230.19  89.4688
 34.9756  8282.19  89.6723
 35.0176  8268.84  90.1164
 35.0596  8319.03  90.211
 35.1016  8301.58  89.8731
 35.1436  8509.68  90.6905
 35.1856  8342.37  89.9066
 35.2276  8267.87  89.6819
 35.2696  8168.51  89.338
 35.3116  8118.96  89.1591
 35.3536  8141.82  89.0005
 35.3956  8307.41  89.6121
 35.4376  8195.53  89.5664
 35.4796  8212.06  89.6843
 35.5216  8175.11  89.4547
 35.5636  7994.6  89.1823
 35.6056  8084.64  88.7235
 35.6476  8186.71  89.1905
 35.6896  8217.01  89.5196
 35.7316  8123.67  88.9073
 35.7736  8072.68  88.8114
 35.8156  8145.87  89.2126
 35.8576  8117.64  89.3033
 35.8996  8209.26  89.7743
 35.9416  8210.81  89.2972
 35.9836  8090.29  88.9771
 36.0256  8362.74  90.4664
 36.0676  8275.23  89.515
 36.1096  8185.88  89.4186
 36.1516  8293.33  89.898
 36.1936  8153.44  88.9701
 36.2356  8171.84  89.7205
 36.2776  8005.81  88.2875
 36.3196  8076.38  88.3602
 36.3616  8085.87  88.5369
 36.4036  8016.27  88.2224
 36.4456  8080.69  88.7794
 36.4876  7922.12  87.8431
 36.5296  8024.89  88.4545
 36.5716  8014.02  89.1496
 36.6136  7855.7  87.0827
 36.6556  7848.1  87.2358
 36.6976  7825.25  87.5949
 36.7396  7967.06  88.1202
 36.7816  7751.42  87.2842
 36.8236  7839.25  87.7014
 36.8656  7788.4  87.4835
 36.9076  7698  86.9833
 36.9496  7738.41  87.0749
 36.9916  7775.62  86.9196
 37.0336  7810.14  87.4215
 37.0756  7813.02  87.2375
 37.1176  7690.65  86.8116
 37.1596  7664.1  86.6676
 37.2016  7664.47  86.8409
 37.2436  7749.67  86.695
 37.2856  7751.19  86.9623
 37.3276  7759.51  86.3766
 37.3696  7587.75  86.2702
 37.4116  7712.89  86.8877
 37.4536  7671.92  86.5284
 37.4956  7670.04  86.5601
 37.5376  7851.54  89.1435
 37.5796  7802.34  88.7839
 37.6216  7767.47  86.8915
 37.6636  7919.03  87.6262
 37.7056  7713.12  86.654
 37.7476  7958.68  87.5779
 37.7896  7679.76  86.5285
 37.8316  7662.57  86.5813
 37.8736  7882.28  87.3455
 37.9156  7819.82  86.9777
 37.9576  7909.41  87.4059
 37.9996  7687.65  85.8916
 38.0416  7683.03  86.651
 38.0836  7882.07  87.6691
 38.1256  7724.76  86.766
 38.1676  7632.47  86.362
 38.2096  7849.14  87.2075
 38.2516  7697.03  86.5548
 38.2936  7768.17  86.7648
 38.3356  7768.06  86.6951
 38.3776  7577.01  85.8447
 38.4196  7751.44  86.7029
 38.4616  7677.98  86.5358
 38.5036  7798.16  87.059
 38.5456  7627.46  86.9031
 38.5876  7641.72  87.0183
 38.6296  7703.92  86.3531
 38.6716  7757.14  86.4623
 38.7136  7681.28  85.9869
 38.7556  7640.92  86.2482
 38.7976  7769.45  86.8984
 38.8396  7645.54  86.6632
 38.8816  7590.44  86.1438
 38.9236  7650.78  86.2901
 38.9656  7636.54  86.1059
 39.0076  7827.5  86.6031
 39.0496  7835.98  87.197
 39.0916  7841.79  86.8769
 39.1336  7627.46  86.0743
 39.1756  7634.12  86.1849
 39.2176  7589.62  86.4539
 39.2596  7528.53  86.03
 39.3016  7627.89  86.1873
 39.3436  7573.52  86.2745
 39.3856  7818.2  87.113
 39.4276  7830.18  87.6845
 39.4696  7724.14  86.7142
 39.5116  7669.12  86.9024
 39.5536  7690.58  87.4399
 39.5956  7673.45  86.4612
 39.6376  7634.06  86.2469
 39.6796  7658.28  86.1296
 39.7216  7657.79  86.2241
 39.7636  7702.57  87.0378
 39.8056  7663.44  86.5951
 39.8476  7589.05  86.4285
 39.8896  7698.24  86.6817
 39.9316  7450.49  85.5175
 39.9736  7689.12  86.4552
 40.0156  7581.96  85.689
 40.0576  7591.23  86.0854
 40.0996  7771.15  86.2939
 40.1416  7567.82  85.9303
 40.1836  7671.83  86.4081
 40.2256  7671.14  86.4467
 40.2676  7695.02  86.6803
 40.3096  7590  86.0194
 40.3516  7669.04  86.5748
 40.3936  7633.8  85.9406
 40.4356  7541.27  85.6198
 40.4776  7825.82  87.6174
 40.5196  7639.39  86.6902
 40.5616  7754.51  86.9926
 40.6036  7698.76  86.9308
 40.6456  7553.34  85.7275
 40.6876  7781.67  87.0018
 40.7296  7656.81  86.43
 40.7716  7744.55  87.0347
 40.8136  7573.04  86.018
 40.8556  7749.22  87.1474
 40.8976  7784.5  87.2596
 40.9396  7625.91  86.721
 40.9816  7792.24  86.9473
 41.0236  7732.58  86.4093
 41.0656  7754.6  87.0589
 41.1076  7656.59  86.2848
 41.1496  7844.52  87.2436
 41.1916  7573.26  86.0309
 41.2336  7714.31  86.8268
 41.2756  7678.55  86.2409
 41.3176  7705.84  86.9909
 41.3596  7732.61  86.8827
 41.4016  7548.5  86.0934
 41.4436  7667.15  86.5589
 41.4856  7677.63  86.7841
 41.5276  7623.87  86.4906
 41.5696  7705.08  86.5752
 41.6116  7766.54  87.3256
 41.6536  7684.97  86.7141
 41.6956  7728.52  87.0281
 41.7376  7662.53  86.6762
 41.7796  7569.3  86.0712
 41.8216  7606.39  86.4674
 41.8636  7669.83  86.7776
 41.9056  7590.69  86.1212
 41.9476  7687.61  86.9012
 41.9896  7813  87.2722
 42.0316  7700.77  86.7345
 42.0736  7713.87  86.9068
 42.1156  7636  86.2965
 42.1576  7592.1  86.1644
 42.1996  7752.93  87.1908
 42.2416  7613.98  86.0075
 42.2836  7635.67  86.2403
 42.3256  7605.61  86.1771
 42.3676  7746.92  86.7703
 42.4096  7679.81  86.3794
 42.4516  7701.54  86.5766
 42.4936  7578.7  85.9618
 42.5356  7494.36  85.6177
 42.5776  7629.29  86.3247
 42.6196  7513.2  85.7157
 42.6616  7462.43  85.5919
 42.7036  7640.34  85.9908
 42.7456  7676.67  86.5525
 42.7876  7632.69  86.3952
 42.8296  7629.28  86.2119
 42.8716  7398.72  85.065
 42.9136  7557.89  85.7671
 42.9556  7520.49  85.6888
 42.9976  7597.57  86.0824
 43.0396  7569  85.6589
 43.0816  7464.91  85.4457
 43.1236  7503.27  85.7059
 43.1656  7671.19  86.4895
 43.2076  7571.4  86.0379
 43.2496  7531.44  85.6343
 43.2916  7488.88  85.7382
 43.3336  7611.95  86.2803
 43.3756  7584.43  85.8841
 43.4176  7367.53  84.7221
 43.4596  7435.85  84.9779
 43.5016  7552.66  86.0395
 43.5436  7531.46  85.8166
 43.5856  7501.17  85.6808
 43.6276  7434.87  85.1939
 43.6696  7453.54  85.4441
 43.7116  7551.88  85.6251
 43.7536  7511.34  85.8815
 43.7956  7467.1  86.8238
 43.8376  7369.98  84.8075
 43.8796  7333.67  84.6742
 43.9216  7362.59  84.7638
 43.9636  7420.78  85.1921
 44.0056  7279.98  84.617
 44.0476  7270.33  84.1986
 44.0896  7247.92  84.4054
 44.1316  7292.9  84.3431
 44.1736  7311.49  84.433
 44.2156  7389.86  84.7359
 44.2576  7373.67  84.964
 44.2996  7254.8  84.2494
 44.3416  7316.65  84.3717
 44.3836  7170.22  83.8423
 44.4256  7191.63  83.6204
 44.4676  7187.52  83.7463
 44.5096  7283.22  84.4469
 44.5516  7221.67  84.0439
 44.5936  7140.59  83.5308
 44.6356  7144.65  83.3031
 44.6776  7325.54  84.6651
 44.7196  7368.66  85.2191
 44.7616  7290.97  86.0744
 44.8036  7263.32  84.3622
 44.8456  7339.02  85.0035
 44.8876  7354.77  84.9401
 44.9296  7523.57  85.3584
 44.9716  7500.32  85.6613
 45.0136  7435.81  85.2179
 45.0556  7515.39  85.6567
 45.0976  7380  85.0298
 45.1396  7305.57  84.3729
 45.1816  7302.71  84.2891
 45.2236  7471.6  85.1669
 45.2656  7295.16  84.6474
 45.3076  7276.26  84.3126
 45.3496  7188.6  84.1158
 45.3916  7311.79  85.0986
 45.4336  7351.55  85.1733
 45.4756  7217.67  84.2422
 45.5176  7337.37  84.5683
 45.5596  7430.53  85.2235
 45.6016  7348.08  85.1668
 45.6436  7318.92  84.1814
 45.6856  7264.6  84.5026
 45.7276  7205.71  85.4823
 45.7696  7285.07  85.6223
 45.8116  7255.49  84.8857
 45.8536  7213.41  84.5296
 45.8956  7251.56  84.1187
 45.9376  7372.92  84.29
 45.9796  7328.49  84.7304
 46.0216  7254.69  84.6045
 46.0636  7441.64  84.8335
 46.1056  7438.16  84.8233
 46.1476  7380.44  85.0817
 46.1896  7180.54  84.0695
 46.2316  7247.43  84.324
 46.2736  7131.94  84.0203
 46.3156  7351.3  84.8885
 46.3576  7256.7  84.5352
 46.3996  7230.36  84.5447
 46.4416  7179.47  83.8257
 46.4836  7222.23  84.4331
 46.5256  7208.5  84.2886
 46.5676  7236.36  84.5701
 46.6096  7254.76  84.6095
 46.6516  7249.23  83.6302
 46.6936  7252.38  84.1375
 46.7356  7314.87  84.5928
 46.7776  7188.95  84.7052
 46.8196  7197  84.3524
 46.8616  7066.03  83.53
 46.9036  7126.14  83.5398
 46.9456  7222.4  83.7466
 46.9876  7252.86  84.0036
 47.0296  7089.73  83.7399
 47.0716  7155.99  83.952
 47.1136  7219.3  83.9879
 47.1556  7242.32  84.0019
 47.1976  7301.9  84.431
 47.2396  7131.29  83.8296
 47.2816  7089.67  83.2906
 47.3236  7115.24  83.8073
 47.3656  7227.75  84.3936
 47.4076  7041.99  83.1121
 47.4496  7235.12  84.3397
 47.4916  7151.54  84.035
 47.5336  7181.31  84.0264
 47.5756  7146.72  83.9424
 47.6176  7174.34  83.9914
 47.6596  7112.94  83.3603
 47.7016  7342.72  84.515
 47.7436  7173.62  83.865
 47.7856  7261.58  84.4021
 47.8276  7149.64  83.8064
 47.8696  7152.8  83.9062
 47.9116  7168.28  83.7112
 47.9536  7198.86  83.8306
 47.9956  7140.59  84.196
 48.0376  7021.89  83.273
 48.0796  7215.34  84.5403
 48.1216  7161.57  84.0431
 48.1636  7222.81  83.9634
 48.2056  7191.75  84.0568
 48.2476  7190.55  84.3575
 48.2896  7206.77  84.3599
 48.3316  7250.28  84.554
 48.3736  7228.72  84.4545
 48.4156  7067.25  83.3647
 48.4576  7119.29  83.9544
 48.4996  7218.06  83.9937
 48.5416  7268.1  84.6111
 48.5836  7096.01  83.2824
 48.6256  7184.23  84.0092
 48.6676  7101.13  84.03
 48.7096  7186.72  83.8064
 48.7516  7143.25  83.6994
 48.7936  6997.45  82.9034
 48.8356  7116.56  83.6549
 48.8776  7180.18  84.5123
 48.9196  7280  84.5575
 48.9616  7071.84  83.7224
 49.0036  7161.42  84.5877
 49.0456  7098.05  84.1936
 49.0876  7073.89  83.6908
 49.1296  7077.81  83.7712
 49.1716  6989.23  83.1263
 49.2136  7229.42  84.4615
 49.2556  7123.78  83.8708
 49.2976  7158.1  84.1477
 49.3396  7058.57  83.6164
 49.3816  7211.79  83.9393
 49.4236  7114.3  83.8048
 49.4656  7027.8  83.3042
 49.5076  7190.22  84.0136
 49.5496  6999.05  82.9521
 49.5916  7156.86  83.7957
 49.6336  7067.45  83.4686
 49.6756  7090.77  83.8461
 49.7176  7082.7  83.7414
 49.7596  7067.18  83.4188
 49.8016  7104.6  83.5463
 49.8436  7015.5  83.3203
 49.8856  7096.8  83.8106
 49.9276  7005.45  83.3624
 49.9696  7152.68  84.219
 50.0116  7071.88  83.8858
 50.0536  6914.11  82.8878
 50.0956  7027.75  83.6302
 50.1376  7033.32  83.3718
 50.1796  6886.47  82.7611
 50.2216  6989.18  83.3594
 50.2636  6913.1  82.528
 50.3056  7042.63  83.4817
 50.3476  7038.24  83.4743
 50.3896  6974.33  83.0641
 50.4316  7003.79  83.0738
 50.4736  7034.92  83.4823
 50.5156  7036.33  83.4769
 50.5576  7194.16  84.1642
 50.5996  6994.19  83.2706
 50.6416  7058.6  83.5771
 50.6836  7002.96  83.3123
 50.7256  7071.72  83.651
 50.7676  7008.72  83.5478
 50.8096  7016.53  83.1558
 50.8516  7036.38  83.7105
 50.8936  6884.24  82.5864
 50.9356  7119.99  84.0889
 50.9776  7065.86  83.9301
 51.0196  6795.44  82.4336
 51.0616  6786.75  81.7088
 51.1036  6834.97  82.3553
 51.1456  6872.43  82.4909
 51.1876  6879.98  81.8779
 51.2296  6856.53  82.3771
 51.2716  6788.62  81.6721
 51.3136  6866.67  82.6013
 51.3556  6913.96  82.5001
 51.3976  6797.37  81.9505
 51.4396  6753.18  81.9986
 51.4816  6812.6  82.2129
 51.5236  6899.92  82.8206
 51.5656  6710.01  81.2772
 51.6076  6811.1  81.9659
 51.6496  6746.95  81.7728
 51.6916  6795  82.4196
 51.7336  6709.23  81.9911
 51.7756  6851.98  82.5478
 51.8176  6776.7  82.2085
 51.8596  6700.66  81.7583
 51.9016  6933.39  82.7696
 51.9436  6841.73  83.7181
 51.9856  6816.48  83.9651
 52.0276  6843.01  82.6221
 52.0696  6941.64  83.2878
 52.1116  6802.87  82.5693
 52.1536  6981.8  83.5296
 52.1956  6806.66  81.9435
 52.2376  6970.26  83.0946
 52.2796  6943.97  82.7538
 52.3216  6768.82  82.3878
 52.3636  6870.51  82.5531
 52.4056  6818.48  82.1234
 52.4476  6695.08  81.7267
 52.4896  6804.53  82.4519
 52.5316  6911.71  83.1416
 52.5736  6709.3  81.6421
 52.6156  6893.37  83.1528
 52.6576  6795.68  81.9881
 52.6996  6594.41  81.7494
 52.7416  6643.3  81.9055
 52.7836  6730.64  82.3354
 52.8256  6747.23  81.648
 52.8676  6560.02  81.0747
 52.9096  6836.13  82.8367
 52.9516  6758.69  82.7529
 52.9936  6723.25  82.912
 53.0356  6857.45  82.7326
 53.0776  6844.17  82.9497
 53.1196  6837.79  83.0106
 53.1616  6635.9  81.8239
 53.2036  6731.87  82.3722
 53.2456  6699.67  82.2827
 53.2876  6777.64  82.4378
 53.3296  6657.9  82.0344
 53.3716  6890.64  83.2042
 53.4136  6793  82.7741
 53.4556  6695.68  82.2069
 53.4976  6663.89  81.8508
 53.5396  6702.92  82.4864
 53.5816  6679.25  81.9748
 53.6236  6749.83  82.7641
 53.6656  6645.27  81.721
 53.7076  6728.23  82.1981
 53.7496  6651.94  81.857
 53.7916  6670.18  82.1012
 53.8336  6826.67  82.9557
 53.8756  6572.93  81.9428
 53.9176  6653.15  81.7685
 53.9596  6484.88  81.4943
 54.0016  6472.52  80.7492
 54.0436  6447.39  80.8167
 54.0856  6607.83  81.24
 54.1276  6475.66  80.621
 54.1696  6510.01  81.006
 54.2116  6575.58  81.1374
 54.2536  6567.2  80.909
 54.2956  6458.79  80.2849
 54.3376  6446.11  80.685
 54.3796  6357.3  80.0317
 54.4216  6453.32  80.6915
 54.4636  6329.25  79.885
 54.5056  6476.73  80.608
 54.5476  6427.1  80.6409
 54.5896  6371.23  80.1232
 54.6316  6433.17  80.3651
 54.6736  6474.69  80.6667
 54.7156  6350.43  79.9522
 54.7576  6297.13  79.602
 54.7996  6449.22  80.687
 54.8416  6465.76  80.868
 54.8836  6447.48  80.8347
 54.9256  6325.81  79.8436
 54.9676  6331.34  79.7374
 55.0096  6354.58  79.9004
 55.0516  6235.57  79.3383
 55.0936  6357.83  79.8428
 55.1356  6304.81  79.5436
 55.1776  6382.52  80.2734
 55.2196  6318.21  79.6451
 55.2616  6462.04  80.78
 55.3036  6271.32  79.7494
 55.3456  6176.44  79.281
 55.3876  6399.55  80.4204
 55.4296  6205.13  79.195
 55.4716  6275.93  79.6752
 55.5136  6304.93  79.6329
 55.5556  6423.43  80.4104
 55.5976  6276.78  79.5847
 55.6396  6405.37  80.317
 55.6816  6248.04  79.2197
 55.7236  6216.24  79.0657
 55.7656  6276.1  79.167
 55.8076  6212.14  78.7794
 55.8496  6246.31  79.2983
 55.8916  6194.83  79.119
 55.9336  6338.16  79.9107
 55.9756  6240.89  79.191
 56.0176  6239.47  79.3026
 56.0596  6194.4  79.0284
 56.1016  6147.88  78.7787
 56.1436  6157.33  79.0512
 56.1856  6127.37  78.6205
 56.2276  6262.16  79.5041
 56.2696  6148.34  78.7716
 56.3116  6269.82  79.9118
 56.3536  6218.29  79.2783
 56.3956  6242.39  79.3918
 56.4376  6195.04  79.1375
 56.4796  6006.89  77.7404
 56.5216  6123.07  78.8815
 56.5636  6131.15  78.4986
 56.6056  6210.45  79.2327
 56.6476  6120.29  78.2917
 56.6896  6343.87  80.137
 56.7316  6087.19  78.4397
 56.7736  6208.26  79.2066
 56.8156  6142.98  78.819
 56.8576  5951.25  77.5081
 56.8996  6106.66  78.4138
 56.9416  6163.1  79.0991
 56.9836  6197.52  78.8506
 57.0256  6106.89  78.5794
 57.0676  6108.5  78.6789
 57.1096  6071.31  78.2667
 57.1516  5985.35  77.7186
 57.1936  6141.58  78.532
 57.2356  5980.69  77.8035
 57.2776  6110.56  78.6125
 57.3196  6071.68  78.7125
 57.3616  6153.92  78.7303
 57.4036  6171.97  78.91
 57.4456  6082.94  78.321
 57.4876  6090.41  78.2446
 57.5296  6016.31  77.9752
 57.5716  6003.76  77.9888
 57.6136  5960.66  77.5602
 57.6556  6093.77  78.5413
 57.6976  6028.09  77.9537
 57.7396  5926.34  77.6201
 57.7816  6040.62  78.7494
 57.8236  6009.44  78.3235
 57.8656  6109.85  78.6516
 57.9076  5932.8  77.5213
 57.9496  5951.79  78.0053
 57.9916  6053.68  78.1682
 58.0336  6035.13  78.3353
 58.0756  6069.15  78.1963
 58.1176  6075.89  78.2256
 58.1596  5983.81  78.2188
 58.2016  5838.47  76.5045
 58.2436  5814.6  76.7499
 58.2856  5756.34  76.2865
 58.3276  5670.85  76.0721
 58.3696  5779.67  76.5612
 58.4116  5737.63  76.151
 58.4536  5776.94  76.3002
 58.4956  5780.79  76.5013
 58.5376  5821.23  76.3491
 58.5796  5704.89  75.9926
 58.6216  5786.01  76.3535
 58.6636  5815.28  76.7525
 58.7056  5671.63  75.6603
 58.7476  5689.84  76.2139
 58.7896  5673.66  75.7578
 58.8316  5817.6  76.7047
 58.8736  5757.72  76.3252
 58.9156  5708.58  76.0415
 58.9576  5804.51  76.9923
 58.9996  5740.64  75.838
 59.0416  5846.84  76.8923
 59.0836  5744.31  76.1313
 59.1256  5632.3  76.066
 59.1676  5685.36  76.7284
 59.2096  5657.98  75.8672
 59.2516  5793.45  76.3597
 59.2936  5674.08  75.8869
 59.3356  5690.85  75.8803
 59.3776  5764.72  76.5363
 59.4196  5696.96  76.0217
 59.4616  5692.01  75.854
 59.5036  5622.1  75.421
 59.5456  5891.09  76.9012
 59.5876  5741.37  76.104
 59.6296  5554.11  74.919
 59.6716  5719.74  76.0843
 59.7136  5764.93  76.3728
 59.7556  5851.21  77.0765
 59.7976  5644.11  75.4509
 59.8396  5754.85  76.0843
 59.8816  5701.5  76.2609
 59.9236  5650.87  75.5767
 59.9656  5681.07  76.0305
 60.0076  5758.47  75.9199
 60.0496  5664.38  75.7836
 60.0916  5603.89  74.8188
 60.1336  5764.65  76.9662
 60.1756  5673.54  77.5034
 60.1996  0.0000000E+00  0.0000000E+00