File: docs/examples/opeando_xrd/IS17_D/Data/IS17_D/17_Db_f00086.xye
# /beamlines/bl04/projects/cycle2025-II/20250340211-lsimonelli/DATA/IS17_D/17_Db_f00086.xye : mythproc.py merge -s 0.006 -l 0.5 -f /beamlines/bl04/inhouse/ff/FlatField/ff_20Nov2024rod8mm60s_17keV.raw -b True -c true -o xye /beamlines/bl04/projects/cycle2025-II/20250340211-lsimonelli/DATA/IS17_D/17_Db_00086.dat
# IsMon = [6788887, 6788738, 6786038]  IsPos = [-1.4999, -2.4884, -3.4988]
# Wave = 0.4962  CalPath /beamlines/bl04/projects/cycle2025-II/20250340211-lsimonelli/DATA/Align/Si_Pos1_25keV_f00001.cal
# Date = 2025-09-24_17:38:57 Dt = 4.8000  Bin = 0.0060  <imon> = 6787888 +/- 1309 (Min/Max) 6786038 / 6788887
# icurr 252.8685  mocoIn 1.7245E-05  mocoOut 0.8095  i15 7.10719e+06  imon 6.78789e+06  i7 5.3333  iEMpd_timer 4.8000  iEMpd_1 3.3388E-08  iEMpd_2 7.7499E-08  iEMpd_3 1.5522E-08  iEMpd_4 4.5862E-08  iEMhp_timer 4.8000  iEMhp_1 4.9377E-06  iEMhp_2 -2.6013E-08  iEMhp_3 -2.3210E-08  iEMhp_4 -2.0588E-08
#      9776
 1.5856  44742.9  217.187
 1.6276  50833.6  227.525
 1.6696  57073.4  240.235
 1.7116  64124.3  255.141
 1.7536  72048.8  269.295
 1.7956  76350.5  277.91
 1.8376  72996.3  272.168
 1.8796  62581.2  250.153
 1.9216  52078.6  229.106
 1.9636  44196.5  210.193
 2.0056  40513.9  200.465
 2.0476  38242.6  196.9
 2.0896  36833.3  192.104
 2.1316  35611.3  187.983
 2.1736  33722.1  184.38
 2.2156  34435.3  184.824
 2.2576  33329.5  182.483
 2.2996  31886  179.144
 2.3416  32273.2  178.79
 2.3836  31131.4  175.707
 2.4256  30317.6  173.96
 2.4676  29934.7  172.613
 2.5096  29887  172.532
 2.5516  28494.8  172.338
 2.5936  29403.2  171.554
 2.6356  28040.5  168.23
 2.6776  27975.6  166.931
 2.7196  27557.2  166.165
 2.7616  27451.9  165.637
 2.8036  26989.8  164.401
 2.8456  26918.1  164.828
 2.8876  26172  162.387
 2.9296  25973  161.892
 2.9716  25719.2  160.595
 3.0136  25565.4  160.182
 3.0556  25443  160.195
 3.0976  25439.9  159.093
 3.1396  25026.5  158.515
 3.1816  24858.7  157.926
 3.2236  24793  157.707
 3.2656  24641.6  156.26
 3.3076  24251.7  156.486
 3.3496  24511.4  156.241
 3.3916  25112.6  157.973
 3.4336  25470.3  159.684
 3.4756  25744.8  160.482
 3.5176  26437.9  162.397
 3.5596  26172.4  164.048
 3.6016  26424  162.438
 3.6436  25488.4  160.641
 3.6856  25235.9  158.143
 3.7276  24139.6  155.751
 3.7696  23919  155.239
 3.8116  23561.9  153.958
 3.8536  23820.2  154.732
 3.8956  23639.2  153.958
 3.9376  23643.5  154.242
 3.9796  23506.8  153.282
 4.0216  23619.9  152.685
 4.0636  23507.8  153.783
 4.1056  23570.7  153.652
 4.1476  23845.7  154.852
 4.1896  23995  155.203
 4.2316  24261.7  155.881
 4.2736  24425.8  156.209
 4.3156  24755.8  157.502
 4.3576  25564  159.952
 4.3996  25648.1  160.483
 4.4416  26125.2  161.553
 4.4836  26761.2  163.672
 4.5256  27129.9  165.397
 4.5676  26998  165.26
 4.6096  27710.6  166.063
 4.6516  27952.9  166.486
 4.6936  27970.6  167.382
 4.7356  28356.5  168.349
 4.7776  28060.4  167.298
 4.8196  28127.7  168.149
 4.8616  27413.1  165.489
 4.9036  27260.8  164.747
 4.9456  27259.3  165.409
 4.9876  26564.6  163.198
 5.0296  26942.9  164.185
 5.0716  26555.6  163.771
 5.1136  26811.7  164.27
 5.1556  27024.1  164.376
 5.1976  27726.1  166.481
 5.2396  27603.6  165.812
 5.2816  27701.6  166.571
 5.3236  27712.8  166.301
 5.3656  27160.6  165.575
 5.4076  26957  165.103
 5.4496  27047.1  164.868
 5.4916  27264.8  165.272
 5.5336  27106.9  164.807
 5.5756  27125  164.868
 5.6176  27189.6  164.507
 5.6596  27501.3  166.439
 5.7016  27619.2  166.054
 5.7436  27690.2  166.551
 5.7856  27541.9  166.171
 5.8276  27906.8  166.98
 5.8696  28012  167.466
 5.9116  27976.9  167.969
 5.9536  28561.1  169.444
 5.9956  28583.4  168.895
 6.0376  28665.3  169.762
 6.0796  28936  170.398
 6.1216  28736.1  170.014
 6.1636  29180.2  170.362
 6.2056  28797  169.924
 6.2476  29141.2  170.801
 6.2896  29340.9  171.063
 6.3316  29386  171.363
 6.3736  29308.1  171.037
 6.4156  29661.9  171.935
 6.4576  29411.1  170.838
 6.4996  29394.2  171.272
 6.5416  29380.8  171.355
 6.5836  29403.1  171.667
 6.6256  29698.3  172.079
 6.6676  30286.2  173.339
 6.7096  30123.9  173.73
 6.7516  30338.9  174.012
 6.7936  30597.1  174.152
 6.8356  30614.7  174.297
 6.8776  30758.4  175.512
 6.9196  31164.5  177.065
 6.9616  31325.7  176.963
 7.0036  31843.4  178.077
 7.0456  31919.9  177.58
 7.0876  31728.3  178.743
 7.1296  31600.6  177.51
 7.1716  31824.8  177.685
 7.2136  31364.7  176.173
 7.2556  31624.7  177.054
 7.2976  31761.2  177.935
 7.3396  31503.3  177.421
 7.3816  31375.2  177.278
 7.4236  31744.4  177.622
 7.4656  32228.1  178.434
 7.5076  32339.5  178.884
 7.5496  32001.1  178.497
 7.5916  32192.5  179.065
 7.6336  32491.3  179.777
 7.6756  32506  179.666
 7.7176  33159.3  181.783
 7.7596  33072.5  182.774
 7.8016  33596  186.453
 7.8436  33128.9  181.839
 7.8856  33602.5  182.747
 7.9276  33948.9  184.089
 7.9696  34166.7  184.982
 8.0116  34961.8  185.671
 8.0536  35266.3  186.722
 8.0956  35221.1  187.77
 8.1376  35680  188.474
 8.1796  35903.3  189.586
 8.2216  36466.5  189.829
 8.2636  36463.7  190.069
 8.3056  36740  191.563
 8.3476  37234.4  192.162
 8.3896  36754.8  191.007
 8.4316  36919.9  191.6
 8.4736  37141.3  191.646
 8.5156  36862.5  191.2
 8.5576  36640.4  191.581
 8.5996  36344.2  189.696
 8.6416  36378.4  191.029
 8.6836  36283.1  190.627
 8.7256  36776  191.357
 8.7676  36559.8  193.7
 8.8096  37054.6  192.3
 8.8516  36658.4  190.828
 8.8936  36641.2  190.751
 8.9356  36697.3  191.219
 8.9776  36647.8  191.179
 9.0196  36682.5  190.933
 9.0616  36527.5  190.037
 9.1036  35964.1  189.733
 9.1456  35695.5  188.363
 9.1876  36045.3  189.212
 9.2296  35767.7  187.938
 9.2716  35426.2  187.065
 9.3136  35564.5  187.431
 9.3556  35704.7  187.776
 9.3976  34645.5  185.469
 9.4396  34664.2  185.441
 9.4816  34628.3  185.186
 9.5236  34176.5  183.875
 9.5656  33976.9  183.706
 9.6076  33360.4  182.559
 9.6496  33900.4  183.912
 9.6916  33425.7  182.578
 9.7336  33591.6  182.799
 9.7756  33307.8  183.295
 9.8176  33100.2  182.212
 9.8596  33220.6  180.976
 9.9016  32735  179.644
 9.9436  32352.6  178.504
 9.9856  32151.2  178.225
 10.0276  31691.3  178.014
 10.0696  32179.1  178.411
 10.1116  30944.2  175.219
 10.1536  31279.5  176.315
 10.1956  30517.9  173.778
 10.2376  30602.4  173.522
 10.2796  30433.7  173.151
 10.3216  30231.8  172.874
 10.3636  30004.8  172.245
 10.4056  29713.7  171.812
 10.4476  29974.7  172.163
 10.4896  30211.7  172.299
 10.5316  29316.3  170.447
 10.5736  29327.6  170.895
 10.6156  29461.9  171.033
 10.6576  29175.4  168.765
 10.6996  28927.5  168.755
 10.7416  28347.5  167.265
 10.7836  28311.3  167.845
 10.8256  27737.1  166.573
 10.8676  27724.8  166.063
 10.9096  27543.8  165.568
 10.9516  27373.4  163.981
 10.9936  27422.3  164.343
 11.0356  27142.9  164.113
 11.0776  26975.7  162.932
 11.1196  26549.9  162.415
 11.1616  26251.6  161.164
 11.2036  26335  161.266
 11.2456  26217.7  161.619
 11.2876  26640.8  162.64
 11.3296  25966.2  160.489
 11.3716  26532.9  161.913
 11.4136  26613  163.048
 11.4556  26411.1  162.097
 11.4976  26980  162.808
 11.5396  26835.8  162.541
 11.5816  26502.5  161.974
 11.6236  25972.9  160.572
 11.6656  26029.5  159.896
 11.7076  25321.4  158.544
 11.7496  25072.7  161.758
 11.7916  25183.3  157.363
 11.8336  24857.5  157.239
 11.8756  24618.3  156.027
 11.9176  24665.9  155.844
 11.9596  24624.9  155.887
 12.0016  24425.4  156.031
 12.0436  24633.7  156.136
 12.0856  24020  154.688
 12.1276  24103.4  154.898
 12.1696  24191.3  154.299
 12.2116  23992.8  153.666
 12.2536  24081.5  154.761
 12.2956  23755.9  153.062
 12.3376  24125.1  154.446
 12.3796  24033.9  154.645
 12.4216  24159  154.237
 12.4636  23739.7  153.831
 12.5056  23800.3  153.287
 12.5476  24063  153.649
 12.5896  23712.3  153.17
 12.6316  23969  154.138
 12.6736  23510.4  153.15
 12.7156  23867.6  154.151
 12.7576  23749.9  154.02
 12.7996  23749.5  152.66
 12.8416  23621.4  153.305
 12.8836  23899.2  154.038
 12.9256  24355  154.513
 12.9676  24276.3  154.675
 13.0096  24350.2  156.028
 13.0516  24419.3  155.279
 13.0936  24507.3  155.964
 13.1356  24631.6  155.327
 13.1776  24044.3  154.473
 13.2196  24225.5  154.692
 13.2616  24032  154.393
 13.3036  24405  155.548
 13.3456  24123.1  154.992
 13.3876  24587.1  155.739
 13.4296  24317.5  155.055
 13.4716  24244.5  154.451
 13.5136  24288.5  154.721
 13.5556  24249.5  155.228
 13.5976  24337.3  155.678
 13.6396  24372  155.152
 13.6816  24493.2  156.006
 13.7236  24808.3  156.592
 13.7656  26301.1  161.662
 13.8076  26866.1  162.04
 13.8496  26388.9  161.27
 13.8916  24705.9  157.188
 13.9336  23842.1  153.707
 13.9756  24087  153.862
 14.0176  23627.4  153.076
 14.0596  23864.3  153.763
 14.1016  23574  153.251
 14.1436  23682.1  152.73
 14.1856  23010.6  150.841
 14.2276  23079.8  151.548
 14.2696  23048.8  151.3
 14.3116  22603  149.739
 14.3536  22529.6  149.666
 14.3956  22181.3  148.222
 14.4376  22652.2  149.572
 14.4796  22474.9  148.989
 14.5216  22068.6  148.427
 14.5636  21957.5  147.622
 14.6056  22136  147.774
 14.6476  21998.7  146.562
 14.6896  21661  145.976
 14.7316  21278.6  145.718
 14.7736  21168.2  144.481
 14.8156  21157  144.462
 14.8576  20993.7  143.76
 14.8996  20412.3  142.949
 14.9416  20189.9  142.185
 14.9836  20235.3  142.325
 15.0256  19564.7  138.877
 15.0676  19649.7  139.483
 15.1096  19603.6  139.064
 15.1516  19243.8  138.327
 15.1936  19164.2  137.48
 15.2356  18944.9  136.966
 15.2776  18933.7  136.518
 15.3196  18521.5  136.004
 15.3616  18435.3  135.455
 15.4036  18351.6  134.994
 15.4456  18854.5  136.488
 15.4876  18429  134.629
 15.5296  18120  133.768
 15.5716  17888.3  132.528
 15.6136  17890.5  132.853
 15.6556  18007.5  132.541
 15.6976  17709.6  131.721
 15.7396  17713.6  132.129
 15.7816  17612.4  131.269
 15.8236  17301.6  130.79
 15.8656  17265  130.447
 15.9076  17170.7  129.917
 15.9496  17961.9  135.684
 15.9916  17632.1  134.838
 16.0336  17714.4  132.015
 16.0756  17422.5  131.251
 16.1176  17370.3  131.139
 16.1596  17008.6  130.939
 16.2016  17005.1  129.693
 16.2436  16960.3  129.879
 16.2856  16937.4  129.315
 16.3276  16691  128.826
 16.3696  16699.9  128.663
 16.4116  16759.7  129.339
 16.4536  16763.9  129.176
 16.4956  16826.1  129.143
 16.5376  16573.3  128.365
 16.5796  16410.1  127.097
 16.6216  16655.3  128.317
 16.6636  16245.4  126.917
 16.7056  16625.9  128.246
 16.7476  16621.1  127.76
 16.7896  16375.1  127.555
 16.8316  16428  127.736
 16.8736  16634.9  128.79
 16.9156  16350.5  128.01
 16.9576  16222.1  128.297
 16.9996  16125  128.394
 17.0416  16373.6  127.741
 17.0836  16238.2  126.972
 17.1256  15970.8  125.932
 17.1676  16002.9  126.024
 17.2096  15800.1  125.124
 17.2516  16159.1  126.317
 17.2936  15863.5  125.507
 17.3356  15868.6  125.509
 17.3776  15526.4  124.342
 17.4196  15572.2  124.221
 17.4616  15513.4  123.894
 17.5036  15260.7  123.242
 17.5456  15167.2  123.495
 17.5876  15293  123.055
 17.6296  15336.3  123.062
 17.6716  15290.2  123.455
 17.7136  15183.7  123.149
 17.7556  14967.6  122.567
 17.7976  15055.5  122.665
 17.8396  14801.9  121.133
 17.8816  14916.7  122.165
 17.9236  15054.8  122.522
 17.9656  14908.2  122.462
 18.0076  14875.1  121.907
 18.0496  14831.3  120.86
 18.0916  15026.7  122.207
 18.1336  14869  121.655
 18.1756  15051.4  121.953
 18.2176  14788.1  121.091
 18.2596  14889.4  121.229
 18.3016  14949.3  121.742
 18.3436  14936.6  121.686
 18.3856  14931.4  121.804
 18.4276  14854.1  121.176
 18.4696  14814.2  121.093
 18.5116  14730.8  121.027
 18.5536  14598.9  120.86
 18.5956  14412.2  119.636
 18.6376  14404.5  120.004
 18.6796  14498  119.701
 18.7216  14490  120.168
 18.7636  14343.3  119.561
 18.8056  14321.8  119.4
 18.8476  14063.5  118.946
 18.8896  14135.9  118.587
 18.9316  14167.4  118.702
 18.9736  14085.6  118.052
 19.0156  14005.6  118.132
 19.0576  14257.7  118.035
 19.0996  14227.4  118.626
 19.1416  14169.3  118.781
 19.1836  14080.3  118.012
 19.2256  13817.9  117.13
 19.2676  14173.5  118.705
 19.3096  13939  117.975
 19.3516  13994.7  118.168
 19.3936  13966.9  117.937
 19.4356  14198.6  118.796
 19.4776  13990.6  118.015
 19.5196  14124.3  118.427
 19.5616  13922.9  117.839
 19.6036  13829.7  116.945
 19.6456  14023.5  117.871
 19.6876  13833  116.711
 19.7296  14134.5  118.435
 19.7716  13839.7  117.37
 19.8136  14321.2  119.592
 19.8556  14290.9  118.939
 19.8976  14357.8  119.278
 19.9396  14356.2  118.859
 19.9816  14399  119.293
 20.0236  14759.7  120.972
 20.0656  14419.1  119.572
 20.1076  14402.4  119.976
 20.1496  14021.1  118.371
 20.1916  13988.4  117.757
 20.2336  13787.8  116.832
 20.2756  13446.4  115.812
 20.3176  13548.1  115.995
 20.3596  13442.8  115.533
 20.4016  13479.7  115.492
 20.4436  13300.7  115.276
 20.4856  13417.6  115.57
 20.5276  13177.3  114.995
 20.5696  13517.4  115.906
 20.6116  13247  115.028
 20.6536  13285.7  114.713
 20.6956  13186.4  114.403
 20.7376  13042.4  113.99
 20.7796  13202.7  114.383
 20.8216  13412.3  114.996
 20.8636  13248.3  114.661
 20.9056  13149.5  114.172
 20.9476  13087.7  113.75
 20.9896  13399.3  114.965
 21.0316  13122.1  113.662
 21.0736  12966.3  113.508
 21.1156  12956.9  113.632
 21.1576  13147.2  114.496
 21.1996  13020.7  113.932
 21.2416  13118.4  114.17
 21.2836  12943.7  113.395
 21.3256  13076.8  114.047
 21.3676  12972.4  113.128
 21.4096  12893.4  113.101
 21.4516  12769.9  112.424
 21.4936  12621.3  112.046
 21.5356  12942.2  113.404
 21.5776  12924.3  113.165
 21.6196  12658.7  112.034
 21.6616  12666.9  112.145
 21.7036  12811  112.56
 21.7456  12910.3  113.073
 21.7876  12757.8  112.159
 21.8296  12738.5  111.918
 21.8716  12713.6  112.028
 21.9136  12929.6  113.195
 21.9556  12691.7  111.818
 21.9976  12581.8  111.369
 22.0396  12494.6  111.231
 22.0816  12551.4  112.012
 22.1236  12752.6  112.364
 22.1656  12682.3  112.202
 22.2076  12308  109.997
 22.2496  12276.9  109.882
 22.2916  12286  109.815
 22.3336  12330.5  110.722
 22.3756  12446  110.967
 22.4176  12095.6  109.248
 22.4596  12161.3  110.129
 22.5016  12313.8  110.323
 22.5436  12354.8  110.386
 22.5856  12426.2  110.945
 22.6276  12474.3  111.286
 22.6696  12396.7  111.3
 22.7116  12337.3  110.542
 22.7536  12363.2  110.64
 22.7956  12429.1  110.269
 22.8376  12075.7  109.208
 22.8796  12292.6  109.983
 22.9216  12462.9  111.291
 22.9636  12295.6  109.696
 23.0056  12272.5  109.728
 23.0476  12394.7  110.839
 23.0896  12709  111.612
 23.1316  12373.7  110.561
 23.1736  12416  113.66
 23.2156  12650  112.119
 23.2576  12808  112.94
 23.2996  12456.8  111.173
 23.3416  12629.4  112.457
 23.3836  12685.4  111.934
 23.4256  12787.4  112.498
 23.4676  12679.6  111.723
 23.5096  12477.7  111.495
 23.5516  12549.1  111.104
 23.5936  12653.7  112.481
 23.6356  12720.3  112.439
 23.6776  12409.5  111.274
 23.7196  12337.1  110.519
 23.7616  12638.1  111.778
 23.8036  12713.7  112.161
 23.8456  12361.1  110.162
 23.8876  12416.6  110.756
 23.9296  12190.7  110.234
 23.9716  12415.9  110.449
 24.0136  12480.7  111.643
 24.0556  12292  110.507
 24.0976  12281.6  110.282
 24.1396  11980.4  111.512
 24.1816  12162.5  110.775
 24.2236  12113.8  110.176
 24.2656  12029.3  109.266
 24.3076  11990.2  109.358
 24.3496  12098.2  109.723
 24.3916  11987.6  109.278
 24.4336  12045.1  109.734
 24.4756  11989  109.369
 24.5176  11898.1  108.569
 24.5596  11902.8  108.722
 24.6016  11725.9  108.214
 24.6436  11811.3  108.11
 24.6856  11915.1  108.324
 24.7276  11604  107.231
 24.7696  11712.2  107.836
 24.8116  11427.3  106.684
 24.8536  11550  107.267
 24.8956  11463.3  106.589
 24.9376  11486.7  106.634
 24.9796  11404.1  106.608
 25.0216  11369.3  106.562
 25.0636  11343.5  106.097
 25.1056  11222  106.219
 25.1476  11131.8  107.428
 25.1896  11258.1  106.544
 25.2316  11120.7  105.18
 25.2736  11157.3  104.991
 25.3156  11185.5  105.199
 25.3576  11186  105.638
 25.3996  11111.1  105.273
 25.4416  11023.5  104.828
 25.4836  10928.3  104.884
 25.5256  11061.3  104.891
 25.5676  11047.3  104.555
 25.6096  10806.7  103.984
 25.6516  11062.6  104.709
 25.6936  11113.9  105.265
 25.7356  10915.9  104.459
 25.7776  10982.5  104.372
 25.8196  10767.8  103.591
 25.8616  10867.2  104.003
 25.9036  10922.3  103.717
 25.9456  10917  104.289
 25.9876  10783.8  103.711
 26.0296  10921.4  103.892
 26.0716  10916.2  104.29
 26.1136  10820.2  103.765
 26.1556  10908.1  103.576
 26.1976  10806.9  104.011
 26.2396  10764.7  102.973
 26.2816  11019.1  104.796
 26.3236  10782.6  103.808
 26.3656  11035.5  104.745
 26.4076  10764  103.651
 26.4496  11128.4  104.983
 26.4916  11036.1  104.442
 26.5336  11521.3  107.066
 26.5756  11727.5  107.899
 26.6176  11004.1  104.539
 26.6596  10855.1  104.131
 26.7016  10713.1  103.208
 26.7436  10830  103.9
 26.7856  10590.8  102.743
 26.8276  10552.1  102.518
 26.8696  10666.9  102.939
 26.9116  10634.4  102.714
 26.9536  10529.8  102.263
 26.9956  10437.9  101.853
 27.0376  10540.7  102.576
 27.0796  10520.3  102.205
 27.1216  10546  102.379
 27.1636  10292.7  101.317
 27.2056  10377.8  101.621
 27.2476  10414.7  101.784
 27.2896  10257.1  101.137
 27.3316  10440.9  101.75
 27.3736  10281.7  101.248
 27.4156  10402.7  101.669
 27.4576  10235.7  101.07
 27.4996  10313.2  101.06
 27.5416  10348.7  101.54
 27.5836  10197.6  100.642
 27.6256  10226.1  100.958
 27.6676  10063.9  100.145
 27.7096  10223.5  100.821
 27.7516  10222.6  100.965
 27.7936  10431.7  102.137
 27.8356  10416.5  101.656
 27.8776  10412.7  101.716
 27.9196  10197  100.52
 27.9616  10294.2  101.199
 28.0036  10212.5  100.748
 28.0456  10038.2  100.029
 28.0876  9957.18  99.7131
 28.1296  10093.2  100.224
 28.1716  10179.7  100.666
 28.2136  10131.3  100.391
 28.2556  10097.4  100.332
 28.2976  9920.93  99.4545
 28.3396  9944.36  99.3366
 28.3816  9973.9  99.4879
 28.4236  9848.21  99.0247
 28.4656  9917.73  99.3989
 28.5076  10011.9  99.5157
 28.5496  9931.17  99.3604
 28.5916  9924.55  99.1485
 28.6336  9885.7  99.292
 28.6756  9889.62  98.5132
 28.7176  9864.53  98.9404
 28.7596  9798.15  98.5039
 28.8016  9770.32  98.3995
 28.8436  9650.61  98.0299
 28.8856  9751.14  98.3893
 28.9276  9749.44  98.6283
 28.9696  9789.11  98.4842
 29.0116  9508.06  97.2538
 29.0536  9604.17  97.9457
 29.0956  9797.36  98.6181
 29.1376  9670.88  97.9537
 29.1796  9679.73  98.0487
 29.2216  9563.31  97.2961
 29.2636  9746.05  98.2986
 29.3056  9673.08  97.7119
 29.3476  9747.85  98.6164
 29.3896  9710.41  98.5483
 29.4316  9512.44  96.8764
 29.4736  9486.65  96.8141
 29.5156  9433.12  96.4484
 29.5576  9455.38  97.2991
 29.5996  9486.72  96.7304
 29.6416  9321.99  96.0006
 29.6836  9286.79  95.7515
 29.7256  9299.46  96.3724
 29.7676  9354.61  96.3276
 29.8096  9352.89  96.2581
 29.8516  9227.91  95.9415
 29.8936  9382.85  96.8335
 29.9356  9377.04  96.5619
 29.9776  9236.86  95.9834
 30.0196  9273.91  95.566
 30.0616  9210.97  95.6201
 30.1036  9334.28  96.0836
 30.1456  9219.89  95.7275
 30.1876  9348.78  96.3656
 30.2296  9153.74  95.3131
 30.2716  9354.67  95.9897
 30.3136  9392.3  97.0349
 30.3556  9523.36  97.7112
 30.3976  9394.83  98.5259
 30.4396  9743.86  97.6714
 30.4816  9553.95  96.3238
 30.5236  9628.7  96.7036
 30.5656  9423.32  96.3298
 30.6076  9470.23  95.9678
 30.6496  9502.34  96.5445
 30.6916  9380.99  96.027
 30.7336  9512.71  96.8384
 30.7756  9448.08  96.5789
 30.8176  9366.7  96.1127
 30.8596  9511.3  96.592
 30.9016  9410.91  96.4277
 30.9436  9373.84  95.982
 30.9856  9577.57  97.1474
 31.0276  9294.28  95.337
 31.0696  9288.45  95.8618
 31.1116  9297.77  95.8806
 31.1536  9321.92  95.8821
 31.1956  9253.88  95.6302
 31.2376  9082.18  94.7543
 31.2796  9305.66  95.4501
 31.3216  9345.17  95.5672
 31.3636  9349.74  96.3
 31.4056  9304.29  97.3715
 31.4476  9312.64  95.3193
 31.4896  9369.51  96.1156
 31.5316  9166.34  94.474
 31.5736  9357.42  95.2859
 31.6156  9399.52  95.4941
 31.6576  9448.68  95.8243
 31.6996  9360.56  95.0438
 31.7416  9167.42  95.1505
 31.7836  9385.16  95.2753
 31.8256  9388.09  95.5482
 31.8676  9518.31  96.2064
 31.9096  9185.3  94.8729
 31.9516  9089.86  94.5492
 31.9936  9104.67  94.448
 32.0356  9277.72  95.395
 32.0776  9292.01  95.3611
 32.1196  9329.22  95.6557
 32.1616  9367.55  95.2864
 32.2036  9195.42  94.9288
 32.2456  9235.8  95.5198
 32.2876  9337.87  95.533
 32.3296  9137.4  94.4706
 32.3716  9017.73  93.9655
 32.4136  8943.94  93.7914
 32.4556  9119.98  94.0849
 32.4976  9043.95  93.6081
 32.5396  8932.11  93.085
 32.5816  8967.46  93.3927
 32.6236  9027.64  93.7716
 32.6656  9015.29  94.2581
 32.7076  8869.91  93.1442
 32.7496  8939.56  93.1868
 32.7916  9043.05  93.6861
 32.8336  8903.46  93.052
 32.8756  9044.56  93.5083
 32.9176  8818.97  92.8106
 32.9596  8848.01  93.0372
 33.0016  8874.25  92.9529
 33.0436  8879.63  93.141
 33.0856  8771.69  92.6768
 33.1276  8704.07  92.0518
 33.1696  8894.37  92.8916
 33.2116  8892.11  93.101
 33.2536  9062.42  93.9762
 33.2956  8820.23  92.8067
 33.3376  8767.79  92.2703
 33.3796  8867.98  93.0108
 33.4216  8812.29  92.3227
 33.4636  8853.35  92.6831
 33.5056  8690.66  92.0706
 33.5476  8791.08  92.5781
 33.5896  8798.59  92.4121
 33.6316  8844.8  92.9625
 33.6736  8723.85  92.5757
 33.7156  8656.19  92.249
 33.7576  8779.36  92.5354
 33.7996  8743.16  92.1149
 33.8416  8636.75  91.7357
 33.8836  8654.05  91.601
 33.9256  8778.8  92.3146
 33.9676  8755.49  92.0934
 34.0096  8702.39  92.1233
 34.0516  8721.69  91.8555
 34.0936  8508.56  91.0041
 34.1356  8736.5  91.9559
 34.1776  8666.95  91.5796
 34.2196  8492.94  90.8426
 34.2616  8602.21  91.5557
 34.3036  8663.57  92.1396
 34.3456  8597.43  91.5352
 34.3876  8683.09  91.959
 34.4296  8560.52  91.003
 34.4716  8673.97  91.7486
 34.5136  8641.55  91.7744
 34.5556  8495.68  91.2585
 34.5976  8631.17  91.7911
 34.6396  8468.51  90.6378
 34.6816  8578.82  91.332
 34.7236  8591.62  91.173
 34.7656  8606.25  91.4589
 34.8076  8376.12  90.5589
 34.8496  8455.89  90.842
 34.8916  8491.77  90.8956
 34.9336  8548.4  91.182
 34.9756  8499.41  90.8418
 35.0176  8570.53  91.7446
 35.0596  8647.08  91.9762
 35.1016  8525.94  91.0842
 35.1436  8609.59  91.2188
 35.1856  8537.5  90.949
 35.2276  8452.18  90.682
 35.2696  8532.4  91.3028
 35.3116  8422.83  90.8161
 35.3536  8388.86  90.3384
 35.3956  8466.37  90.4633
 35.4376  8519.04  91.3079
 35.4796  8531.74  91.4152
 35.5216  8364.96  90.4914
 35.5636  8143.12  90.0091
 35.6056  8314.83  89.9762
 35.6476  8501.91  90.887
 35.6896  8374.94  90.2971
 35.7316  8275.86  89.7364
 35.7736  8382.1  90.4989
 35.8156  8533.27  91.3042
 35.8576  8490.04  91.3306
 35.8996  8421.97  90.932
 35.9416  8418.53  90.426
 35.9836  8313.66  90.1808
 36.0256  8426.73  90.8118
 36.0676  8594  91.467
 36.1096  8401.87  90.5858
 36.1516  8544.99  91.2527
 36.1936  8440.1  90.5043
 36.2356  8389.07  90.9084
 36.2776  8340.98  90.1242
 36.3196  8277.45  89.4511
 36.3616  8327.62  89.848
 36.4036  8319.95  89.8769
 36.4456  8420.76  90.626
 36.4876  8192.43  89.3291
 36.5296  8305.51  89.9807
 36.5716  8221.22  90.2976
 36.6136  8164.6  88.7767
 36.6556  8240.37  89.4001
 36.6976  8066.35  88.938
 36.7396  8107.14  88.8924
 36.7816  8047.68  88.9358
 36.8236  8094.28  89.1207
 36.8656  8074  89.0794
 36.9076  8081.29  88.9977
 36.9496  7947.26  88.2514
 36.9916  7968.39  87.9973
 37.0336  8205.77  89.6197
 37.0756  8092.55  88.7851
 37.1176  7970.07  88.3791
 37.1596  8036.97  88.7582
 37.2016  8033.68  88.9626
 37.2436  7985.44  88.0207
 37.2856  7949.46  88.0699
 37.3276  8030.43  87.8788
 37.3696  7899.79  88.0258
 37.4116  7911.01  88.0054
 37.4536  7905.43  87.8403
 37.4956  7862.94  87.6534
 37.5376  8079.63  90.4232
 37.5796  8081.97  90.3613
 37.6216  7981.2  88.0775
 37.6636  8222.12  89.2767
 37.7056  8094.83  88.7826
 37.7476  8171.75  88.7429
 37.7896  7969.1  88.1511
 37.8316  8088.46  88.953
 37.8736  8031.15  88.181
 37.9156  8186.11  89.0094
 37.9576  7929.98  87.5227
 37.9996  7898.61  87.063
 38.0416  7931.16  88.0428
 38.0836  8203.01  89.4415
 38.1256  8102.19  88.8648
 38.1676  7975.74  88.2879
 38.2096  8019.51  88.134
 38.2516  7942.26  87.9383
 38.2936  8098.23  88.5867
 38.3356  7998.21  87.9785
 38.3776  8007.49  88.2719
 38.4196  7925.9  87.6871
 38.4616  8016.77  88.4275
 38.5036  8110.61  88.789
 38.5456  7896.88  88.4316
 38.5876  7905.39  88.5001
 38.6296  8001.01  87.9857
 38.6716  7961.51  87.584
 38.7136  7911.85  87.2524
 38.7556  7913.85  87.7738
 38.7976  8081.54  88.6224
 38.8396  7920.37  88.1971
 38.8816  7887.66  87.8087
 38.9236  7932.75  87.8595
 38.9656  8027.18  88.2823
 39.0076  8059.32  87.8599
 39.0496  8082.56  88.5493
 39.0916  8062.61  88.0831
 39.1336  7937.89  87.8022
 39.1756  7857.28  87.4113
 39.2176  7962.78  88.5389
 39.2596  7832.85  87.7423
 39.3016  7913.73  87.7766
 39.3436  7771.11  87.3931
 39.3856  7944.95  87.808
 39.4276  8073.65  89.0292
 39.4696  7919.42  87.7898
 39.5116  8033.74  88.9439
 39.5536  7891.88  88.5783
 39.5956  7877.7  87.6056
 39.6376  7829.01  87.3439
 39.6796  7833.36  87.1053
 39.7216  7879.87  87.4647
 39.7636  7980.97  88.5741
 39.8056  7984.39  88.3949
 39.8476  7790.15  87.5674
 39.8896  7807.29  87.2933
 39.9316  7795.37  87.4759
 39.9736  7955.09  87.9383
 40.0156  7882.16  87.37
 40.0576  7804.67  87.2833
 40.0996  7869.26  86.8291
 40.1416  7888.34  87.7319
 40.1836  7868.11  87.5141
 40.2256  7791.4  87.1154
 40.2676  7929.42  87.9928
 40.3096  7987.32  88.2489
 40.3516  8031.36  88.5936
 40.3936  8082.41  88.4228
 40.4356  7845.21  87.3292
 40.4776  7946.87  88.2938
 40.5196  7864  87.957
 40.5616  7958.98  88.1253
 40.6036  7866  87.8633
 40.6456  7896.79  87.6389
 40.6876  7919.84  87.7668
 40.7296  7863.25  87.5904
 40.7716  7884.21  87.8168
 40.8136  7852.14  87.5902
 40.8556  8006.32  88.5746
 40.8976  7906.88  87.9479
 40.9396  7849.62  87.9754
 40.9816  7942.22  87.7885
 41.0236  7964.82  87.6975
 41.0656  7964.09  88.2301
 41.1076  7950.54  87.9281
 41.1496  7984.78  88.0213
 41.1916  7912.25  87.9291
 41.2336  7886.43  87.7903
 41.2756  7910.7  87.5354
 41.3176  7873.14  87.927
 41.3596  7991.96  88.327
 41.4016  7910.41  88.1395
 41.4436  8000.87  88.4254
 41.4856  7922.44  88.1586
 41.5276  7838.78  87.7042
 41.5696  7968.87  88.0558
 41.6116  7967.36  88.433
 41.6536  7940.96  88.1436
 41.6956  8020.08  88.6496
 41.7376  7815.37  87.5313
 41.7796  7826.46  87.4787
 41.8216  7935.58  88.3283
 41.8636  7846.72  87.7755
 41.9056  7836.53  87.5086
 41.9476  7922.13  88.2193
 41.9896  8023.28  88.4358
 42.0316  7935.83  88.0475
 42.0736  7959.24  88.2741
 42.1156  7950.08  88.0644
 42.1576  7984.06  88.3573
 42.1996  7868.76  87.8388
 42.2416  7922.08  87.7294
 42.2836  7913.29  87.798
 42.3256  7838.21  87.4897
 42.3676  7998.41  88.1779
 42.4096  7885.96  87.5281
 42.4516  7866.03  87.4997
 42.4936  7716.24  86.7311
 42.5356  7778.79  87.2264
 42.5776  7957.03  88.1536
 42.6196  7827.21  87.4871
 42.6616  7713.74  87.0191
 42.7036  7912.82  87.5114
 42.7456  7872.01  87.6397
 42.7876  7791.35  87.2748
 42.8296  7922.92  87.8561
 42.8716  7723.15  86.9044
 42.9136  7722.36  86.693
 42.9556  7844.63  87.5014
 42.9976  7790.71  87.1739
 43.0396  7960.03  87.8383
 43.0816  7863.37  87.6964
 43.1236  7837.96  87.6011
 43.1656  7773.81  87.0701
 43.2076  7756.21  87.0783
 43.2496  7742.29  86.822
 43.2916  7777.61  87.3833
 43.3336  7775.53  87.2005
 43.3756  7718.45  86.6386
 43.4176  7730.74  86.7857
 43.4596  7621.08  86.0249
 43.5016  7727.39  87.0245
 43.5436  7696.76  86.7595
 43.5856  7651.64  86.5435
 43.6276  7637.15  86.3466
 43.6696  7675.37  86.812
 43.7116  7694.72  86.4318
 43.7536  7728.29  87.108
 43.7956  7623.28  87.7163
 43.8376  7561.2  85.9009
 43.8796  7498.24  85.6245
 43.9216  7601.73  86.1306
 43.9636  7512.21  85.7351
 44.0056  7550.6  86.1815
 44.0476  7604.5  86.1196
 44.0896  7447.32  85.5632
 44.1316  7653.76  86.2561
 44.1736  7630.45  86.254
 44.2156  7571.57  85.7707
 44.2576  7432.9  85.3074
 44.2996  7495.89  85.6406
 44.3416  7497.31  85.4163
 44.3836  7437.18  85.3976
 44.4256  7397.6  84.818
 44.4676  7324.16  84.547
 44.5096  7464.8  85.498
 44.5516  7577.12  86.1007
 44.5936  7346.03  84.7323
 44.6356  7502.08  85.3668
 44.6776  7494.14  85.6339
 44.7196  7535.54  86.1822
 44.7616  7604.48  87.9034
 44.8036  7564.84  86.1025
 44.8456  7566.04  86.3113
 44.8876  7626.15  86.4956
 44.9296  7679.42  86.2433
 44.9716  7593.15  86.1879
 45.0136  7592.81  86.1177
 45.0556  7702.23  86.7147
 45.0976  7550.82  86.0129
 45.1396  7550.79  85.7577
 45.1816  7572.69  85.8435
 45.2236  7666.81  86.2765
 45.2656  7514.28  85.9104
 45.3076  7532.98  85.8024
 45.3496  7504.7  85.9551
 45.3916  7574  86.6133
 45.4336  7643.15  86.8486
 45.4756  7511.46  85.9544
 45.5176  7664.22  86.433
 45.5596  7692.47  86.7123
 45.6016  7474.73  85.8976
 45.6436  7507.72  85.2614
 45.6856  7553.99  86.1878
 45.7276  7487.44  87.1216
 45.7696  7557.78  87.2121
 45.8116  7520.1  86.4108
 45.8536  7352.95  85.3462
 45.8956  7529.51  85.71
 45.9376  7509.55  85.0581
 45.9796  7580.82  86.1502
 46.0216  7539.12  86.2458
 46.0636  7688.88  86.2361
 46.1056  7654.67  86.0349
 46.1476  7679.24  86.7793
 46.1896  7574.3  86.3356
 46.2316  7457.44  85.5311
 46.2736  7355.36  85.3184
 46.3156  7380.94  85.0527
 46.3576  7520.17  86.0574
 46.3996  7590.2  86.5964
 46.4416  7556.02  85.9876
 46.4836  7302.3  84.882
 46.5256  7521.94  86.0954
 46.5676  7364.51  85.3027
 46.6096  7469.88  85.8383
 46.6516  7503.96  85.061
 46.6936  7526.13  85.7024
 46.7356  7648.92  86.4945
 46.7776  7454.72  86.2587
 46.8196  7429.12  85.6917
 46.8616  7323.06  85.0383
 46.9036  7310.06  84.6106
 46.9456  7353.53  84.5038
 46.9876  7443.07  85.0992
 47.0296  7366.89  85.3559
 47.0716  7333.47  84.9867
 47.1136  7402.29  85.0451
 47.1556  7450.12  85.2007
 47.1976  7470.12  85.388
 47.2396  7371.41  85.2299
 47.2816  7280.74  84.4041
 47.3236  7369.07  85.287
 47.3656  7416.17  85.4909
 47.4076  7395.96  85.1769
 47.4496  7289.67  84.6554
 47.4916  7348.57  85.1892
 47.5336  7496.68  85.8534
 47.5756  7529.26  86.1588
 47.6176  7296  84.7137
 47.6596  7309.49  84.5003
 47.7016  7501.14  85.4127
 47.7436  7394.67  85.1457
 47.7856  7464.93  85.578
 47.8276  7444.42  85.5076
 47.8696  7377.57  85.2057
 47.9116  7506.26  85.6625
 47.9536  7310.65  84.4715
 47.9956  7271.76  84.9681
 48.0376  7228.49  84.4824
 48.0796  7320.36  85.15
 48.1216  7319  84.9631
 48.1636  7393.56  84.9579
 48.2056  7450.7  85.5591
 48.2476  7483.32  86.048
 48.2896  7330.18  85.0882
 48.3316  7418.55  85.5374
 48.3736  7338.53  85.0986
 48.4156  7295.99  84.7034
 48.4576  7451.06  85.8935
 48.4996  7463.02  85.4082
 48.5416  7565.01  86.3204
 48.5836  7366.97  84.8587
 48.6256  7439.72  85.4852
 48.6676  7422.5  85.911
 48.7096  7433  85.236
 48.7516  7322.63  84.7452
 48.7936  7228.63  84.2616
 48.8356  7314.3  84.8073
 48.8776  7344.52  85.5581
 48.9196  7495.42  85.7795
 48.9616  7293.27  85.0101
 49.0036  7327.15  85.5651
 49.0456  7261.79  85.1613
 49.0876  7365.37  85.2936
 49.1296  7251.74  84.7923
 49.1716  7135.84  83.9951
 49.2136  7321.52  84.9932
 49.2556  7256.27  84.6527
 49.2976  7306.94  85.017
 49.3396  7269.44  84.8557
 49.3816  7375.15  84.8948
 49.4236  7239.67  84.5378
 49.4656  7258.51  84.6706
 49.5076  7381.64  85.1224
 49.5496  7301.98  84.7284
 49.5916  7433.26  85.4025
 49.6336  7234.48  84.4552
 49.6756  7321.6  85.1947
 49.7176  7307.97  85.0615
 49.7596  7272.31  84.6155
 49.8016  7369.99  85.1054
 49.8436  7210.96  84.4845
 49.8856  7251.43  84.7209
 49.9276  7153.15  84.244
 49.9696  7250.79  84.8018
 50.0116  7288.65  85.1562
 50.0536  7301.98  85.1642
 50.0956  7206.93  84.6964
 50.1376  7229.72  84.5165
 50.1796  7223.36  84.7599
 50.2216  7188.38  84.5522
 50.2636  7180.8  84.1181
 50.3056  7200.49  84.4126
 50.3476  7177.23  84.2938
 50.3896  7166.31  84.2011
 50.4316  7245.85  84.4982
 50.4736  7218.84  84.5621
 50.5156  7240.86  84.6815
 50.5576  7169.94  84.0192
 50.5996  7237.07  84.7045
 50.6416  7208.06  84.457
 50.6836  7291.09  85.0037
 50.7256  7263.63  84.7549
 50.7676  7269.78  85.1222
 50.8096  7202.25  84.2627
 50.8516  7146.28  84.3574
 50.8936  7179.83  84.3361
 50.9356  7249.13  84.8482
 50.9776  7210.19  84.7852
 51.0196  6991.82  83.6171
 51.0616  7051.68  83.2888
 51.1036  6967.89  83.1566
 51.1456  7143.23  84.0988
 51.1876  7090.97  83.1288
 51.2296  7060.55  83.5951
 51.2716  7002.81  82.9528
 51.3136  7063.02  83.7749
 51.3556  7000.8  83.0276
 51.3976  7041.82  83.4193
 51.4396  6898.55  82.8816
 51.4816  6898.56  82.7344
 51.5236  7049.37  83.717
 51.5656  7033.79  83.2181
 51.6076  7044.4  83.3632
 51.6496  6989.19  83.2321
 51.6916  6924.26  83.2019
 51.7336  6939.7  83.3939
 51.7756  7046.23  83.7143
 51.8176  6964.21  83.3393
 51.8596  7005.07  83.6002
 51.9016  7164.45  84.1428
 51.9436  7125.7  85.434
 51.9856  6982.85  84.9805
 52.0276  6981.31  83.4626
 52.0696  7155.87  84.5572
 52.1116  6900.72  83.1692
 52.1536  7137.99  84.4583
 52.1956  7133.53  83.8906
 52.2376  7282.71  84.9296
 52.2796  7072.9  83.5219
 52.3216  6859.18  82.9411
 52.3636  7068.92  83.7421
 52.4056  6986.33  83.1266
 52.4476  6927.72  83.1442
 52.4896  6869.52  82.8142
 52.5316  7043.81  83.9386
 52.5736  6834.6  82.4078
 52.6156  7104.28  84.415
 52.6576  6920.02  82.7452
 52.6996  6797  83.0014
 52.7416  6811.74  82.9446
 52.7836  7029.55  84.1472
 52.8256  6898.47  82.5615
 52.8676  6922.55  83.291
 52.9096  7036.86  84.0496
 52.9516  6816.81  83.1069
 52.9936  6886.18  83.9017
 53.0356  7025.14  83.7203
 53.0776  6921.63  83.3809
 53.1196  6932.98  83.572
 53.1616  6832.7  83.0181
 53.2036  6913.03  83.4672
 53.2456  6824.35  83.0319
 53.2876  7114.26  84.4532
 53.3296  6920.62  83.6297
 53.3716  7086.59  84.3741
 53.4136  6961.61  83.784
 53.4556  6855.96  83.1718
 53.4976  6901.44  83.2931
 53.5396  6712.04  82.5292
 53.5816  6850.82  83.016
 53.6236  6818.49  83.1689
 53.6656  6866.73  83.0504
 53.7076  6992.39  83.7733
 53.7496  6906.61  83.3895
 53.7916  6797.95  82.8776
 53.8336  6858.62  83.1347
 53.8756  6838.25  83.556
 53.9176  6794.92  82.6247
 53.9596  6628.63  82.4102
 54.0016  6618.45  81.6471
 54.0436  6616.46  81.8735
 54.0856  6708.51  81.8567
 54.1276  6693.18  81.9581
 54.1696  6710.59  82.2274
 54.2116  6819.32  82.6355
 54.2536  6557.37  80.8425
 54.2956  6668.78  81.5796
 54.3376  6556.25  81.3867
 54.3796  6540.36  81.1784
 54.4216  6698.14  82.2212
 54.4636  6579.77  81.4307
 54.5056  6702.95  82.0106
 54.5476  6519.28  81.2252
 54.5896  6665.28  81.9608
 54.6316  6637.33  81.6217
 54.6736  6568.59  81.2907
 54.7156  6620.8  81.6427
 54.7576  6549.82  81.1798
 54.7996  6643.26  81.9007
 54.8416  6632.57  81.8966
 54.8836  6585.91  81.7017
 54.9256  6529.18  81.1233
 54.9676  6455.11  80.512
 55.0096  6553.82  81.1541
 55.0516  6424.31  80.5983
 55.0936  6526.28  80.8877
 55.1356  6447.64  80.4315
 55.1776  6652.34  81.9449
 55.2196  6458.29  80.5403
 55.2616  6724.05  82.4135
 55.3036  6431.71  80.7645
 55.3456  6354.54  80.4272
 55.3876  6439.75  80.6684
 55.4296  6402.48  80.4505
 55.4716  6427.89  80.6221
 55.5136  6372.23  80.0427
 55.5556  6660.32  81.8792
 55.5976  6430.9  80.5464
 55.6396  6546.28  81.204
 55.6816  6515.28  80.8826
 55.7236  6392.38  80.1654
 55.7656  6410.71  80.0146
 55.8076  6411.83  80.0305
 55.8496  6402.18  80.2905
 55.8916  6349.06  80.1577
 55.9336  6550.87  81.2341
 55.9756  6396.05  80.1422
 56.0176  6339.22  79.949
 56.0596  6356.98  80.0481
 56.1016  6365.19  80.1313
 56.1436  6343.87  80.2391
 56.1856  6250.95  79.3966
 56.2276  6528.99  81.1988
 56.2696  6358.76  80.1056
 56.3116  6467.88  81.1809
 56.3536  6326.75  79.9454
 56.3956  6381.44  80.258
 56.4376  6382.43  80.3308
 56.4796  6239.62  79.2497
 56.5216  6263.33  79.7692
 56.5636  6259.95  79.3345
 56.6056  6458.17  80.7935
 56.6476  6273.73  79.245
 56.6896  6569  81.5766
 56.7316  6277.79  79.6613
 56.7736  6340.2  80.0688
 56.8156  6314.76  79.9123
 56.8576  6106.56  78.5248
 56.8996  6348.32  79.9685
 56.9416  6266.86  79.7574
 56.9836  6353.89  79.8234
 57.0256  6216.12  79.2658
 57.0676  6360.95  80.3047
 57.1096  6285.11  79.6132
 57.1516  6269.68  79.5842
 57.1936  6172.47  78.7092
 57.2356  6184.44  79.1236
 57.2776  6216.88  79.3067
 57.3196  6331.94  80.3748
 57.3616  6146.45  78.6866
 57.4036  6302.53  79.7267
 57.4456  6394.54  80.2998
 57.4876  6157.13  78.6606
 57.5296  6169.49  79.0455
 57.5716  6147.52  78.9331
 57.6136  6179.97  78.9768
 57.6556  6227.78  79.3952
 57.6976  6318.14  79.798
 57.7396  6005.08  78.1476
 57.7816  6112.81  79.2104
 57.8236  6288.29  80.124
 57.8656  6197.54  79.2171
 57.9076  6233.44  79.4682
 57.9496  6215.34  79.6961
 57.9916  6198.66  79.1063
 58.0336  6166.1  79.1918
 58.0756  6202.9  79.056
 58.1176  6101.07  78.3995
 58.1596  6107  79.0256
 58.2016  5978.98  77.4272
 58.2436  5979.25  77.8323
 58.2856  5914.29  77.3344
 58.3276  5854.41  77.3033
 58.3696  5898.29  77.3451
 58.4116  5892.13  77.1741
 58.4536  5973.57  77.588
 58.4956  5860.36  77.0316
 58.5376  6051.13  77.8351
 58.5796  5964.17  77.7032
 58.6216  6029.77  77.9507
 58.6636  5889.6  77.2516
 58.7056  5866.53  76.9529
 58.7476  5901.92  77.6263
 58.7896  5902.09  77.2731
 58.8316  6030.72  78.1052
 58.8736  6033.46  78.138
 58.9156  5884.15  77.2
 58.9576  5872.39  77.4482
 58.9996  5939.7  77.1431
 59.0416  6005.18  77.9316
 59.0836  6011.64  77.8902
 59.1256  5793.54  77.1504
 59.1676  5952.44  78.5089
 59.2096  6058.29  78.5198
 59.2516  5893.01  77.0275
 59.2936  5982.68  77.9379
 59.3356  5827.43  76.7998
 59.3776  5874.16  77.2739
 59.4196  5854  77.0784
 59.4616  5804.95  76.6172
 59.5036  5871.29  77.0886
 59.5456  5913.22  77.06
 59.5876  6009.23  77.8736
 59.6296  5824.4  76.7347
 59.6716  5982.78  77.8287
 59.7136  5881.76  77.1573
 59.7556  5913.49  77.5001
 59.7976  5821.74  76.6433
 59.8396  5716.24  75.8428
 59.8816  5886.79  77.4998
 59.9236  5950.82  77.5711
 59.9656  5882.33  77.3801
 60.0076  5931.49  77.0664
 60.0496  5906.85  77.404
 60.0916  5977.46  77.2868
 60.1336  5771.67  77.0275
 60.1756  5908.06  79.1038
 60.1996  0.0000000E+00  0.0000000E+00