File: docs/examples/opeando_xrd/IS17_D/Data/IS17_D/17_Db_f00052.xye
# /beamlines/bl04/projects/cycle2025-II/20250340211-lsimonelli/DATA/IS17_D/17_Db_f00052.xye : mythproc.py merge -s 0.006 -l 0.5 -f /beamlines/bl04/inhouse/ff/FlatField/ff_20Nov2024rod8mm60s_17keV.raw -b True -c true -o xye /beamlines/bl04/projects/cycle2025-II/20250340211-lsimonelli/DATA/IS17_D/17_Db_00052.dat
# IsMon = [6760501, 6757310, 6758702]  IsPos = [-1.4999, -2.4885, -3.4988]
# Wave = 0.4962  CalPath /beamlines/bl04/projects/cycle2025-II/20250340211-lsimonelli/DATA/Align/Si_Pos1_25keV_f00001.cal
# Date = 2025-09-24_08:10:41 Dt = 4.8000  Bin = 0.0060  <imon> = 6758838 +/- 1306 (Min/Max) 6757310 / 6760501
# icurr 250.0381  mocoIn 1.7061E-05  mocoOut 0.8000  i15 7.07937e+06  imon 6.75884e+06  i7 4.3333  iEMpd_timer 4.8000  iEMpd_1 3.6439E-08  iEMpd_2 7.8928E-08  iEMpd_3 1.7916E-08  iEMpd_4 4.7792E-08  iEMhp_timer 4.8000  iEMhp_1 4.8854E-06  iEMhp_2 -2.6064E-08  iEMhp_3 -2.4494E-08  iEMhp_4 -2.3073E-08
#      9776
 1.5856  44881.7  217.513
 1.6276  51681.5  229.404
 1.6696  56944.1  239.951
 1.7116  64071.7  255.024
 1.7536  72141  269.454
 1.7956  76292  277.79
 1.8376  72485.7  271.201
 1.8796  62596.5  250.179
 1.9216  52251  229.473
 1.9636  45021.6  212.135
 2.0056  41096.4  201.891
 2.0476  38322.7  197.096
 2.0896  37038.1  192.628
 2.1316  35925.1  188.8
 2.1736  34718.3  187.074
 2.2156  35071.7  186.515
 2.2576  33553.8  183.089
 2.2996  32410.2  180.602
 2.3416  32818.4  180.286
 2.3836  32556.6  179.675
 2.4256  31160.8  176.354
 2.4676  30515.2  174.27
 2.5096  30703  174.863
 2.5516  29126.5  174.222
 2.5936  29275.3  171.186
 2.6356  28602.7  169.91
 2.6776  28598.7  168.786
 2.7196  28164.4  168
 2.7616  27926.6  167.077
 2.8036  27727.8  166.637
 2.8456  27520.8  166.675
 2.8876  27136  165.337
 2.9296  26428.4  163.318
 2.9716  26561.2  163.216
 3.0136  25949.3  161.395
 3.0556  26043.3  162.079
 3.0976  25949.1  160.665
 3.1396  25871.3  161.177
 3.1816  25569  160.18
 3.2236  25343.9  159.46
 3.2656  25181.6  157.987
 3.3076  25021.1  158.954
 3.3496  25453  159.491
 3.3916  25352.2  158.73
 3.4336  25810.9  160.764
 3.4756  26353.8  162.374
 3.5176  26926.9  163.913
 3.5596  26746.8  165.836
 3.6016  26612.1  163.014
 3.6436  25837.8  161.747
 3.6856  25676.5  159.517
 3.7276  24441.9  156.729
 3.7696  24257.1  156.326
 3.8116  24144  155.849
 3.8536  24099.1  155.627
 3.8956  24023.5  155.203
 3.9376  23843.1  154.89
 3.9796  23888.6  154.527
 4.0216  23828.7  153.365
 4.0636  23917.2  155.119
 4.1056  23739.1  154.206
 4.1476  24063.9  155.555
 4.1896  24144.7  155.685
 4.2316  24312.4  156.043
 4.2736  24904.8  157.735
 4.3156  24660.3  157.189
 4.3576  25809.2  160.7
 4.3996  25806.6  160.985
 4.4416  26197.7  161.778
 4.4836  26799.2  163.793
 4.5256  27318.2  165.973
 4.5676  27104.1  165.589
 4.6096  27788.2  166.294
 4.6516  28232.5  167.319
 4.6936  27844.6  167.002
 4.7356  28403.1  168.489
 4.7776  28099.8  167.419
 4.8196  28047  167.903
 4.8616  27300.2  165.281
 4.9036  27373.2  165.088
 4.9456  27055.6  164.796
 4.9876  26594.6  163.279
 5.0296  26794.3  163.729
 5.0716  26499.1  163.451
 5.1136  26704.1  163.938
 5.1556  27013.4  164.346
 5.1976  27532.4  165.894
 5.2396  27384.6  165.151
 5.2816  27662.7  166.455
 5.3236  27402.3  165.368
 5.3656  27138.3  165.509
 5.4076  26789.4  164.586
 5.4496  26772.8  164.032
 5.4916  26971.5  164.386
 5.5336  26815.9  163.928
 5.5756  26891.7  164.153
 5.6176  27128  164.325
 5.6596  27264.3  165.714
 5.7016  27299.2  165.092
 5.7436  27557.7  166.152
 5.7856  27391.6  165.715
 5.8276  27421.3  165.524
 5.8696  27697.1  166.523
 5.9116  27507.5  166.554
 5.9536  28023.4  167.837
 5.9956  28294.8  168.043
 6.0376  28364.6  168.876
 6.0796  28488.7  169.076
 6.1216  28358.4  168.891
 6.1636  28471.3  168.283
 6.2056  28405.2  168.763
 6.2476  28663.5  169.397
 6.2896  29134.7  170.46
 6.3316  29275.5  171.031
 6.3736  29194.3  170.698
 6.4156  29368.2  171.08
 6.4576  29320.9  170.573
 6.4996  29382.5  171.238
 6.5416  29555.1  171.869
 6.5836  29491.1  171.925
 6.6256  29615.6  171.84
 6.6676  30361.7  173.55
 6.7096  30376.9  174.457
 6.7516  30321.4  173.959
 6.7936  30732.5  174.532
 6.8356  30716.4  174.588
 6.8776  30727.9  175.429
 6.9196  31089.1  176.855
 6.9616  31472.5  177.348
 7.0036  31918.4  178.277
 7.0456  32058.4  177.968
 7.0876  31775.2  178.871
 7.1296  31878.2  178.298
 7.1716  31954.6  178.035
 7.2136  31726.1  177.179
 7.2556  31847.6  177.673
 7.2976  31769.5  177.961
 7.3396  31804.5  178.286
 7.3816  31749.9  178.345
 7.4236  32001.8  178.343
 7.4656  32069.8  177.99
 7.5076  32493.8  179.313
 7.5496  32228  179.12
 7.5916  32211.4  179.121
 7.6336  32781  180.583
 7.6756  33156.4  181.461
 7.7176  33372  182.37
 7.7596  33100.7  182.866
 7.8016  33826.5  187.094
 7.8436  33371.4  182.51
 7.8856  33229  181.739
 7.9276  34207.4  184.781
 7.9696  34460.2  185.77
 8.0116  35162.5  186.208
 8.0536  35608.7  187.638
 8.0956  35284.5  187.96
 8.1376  36128.9  189.661
 8.1796  36228.1  190.461
 8.2216  36765  190.607
 8.2636  37016.5  191.509
 8.3056  36739.3  191.551
 8.3476  37514.7  192.89
 8.3896  37189  192.127
 8.4316  37443.2  192.958
 8.4736  37527.4  192.639
 8.5156  37347.4  192.458
 8.5576  36800.1  192.009
 8.5996  36757.5  190.778
 8.6416  36850.3  192.276
 8.6836  36653.5  191.591
 8.7256  36974  191.883
 8.7676  36801.3  194.336
 8.8096  37471.7  193.363
 8.8516  37110.3  191.995
 8.8936  36656.2  190.773
 8.9356  37061.4  192.148
 8.9776  36880.8  191.766
 9.0196  36925.3  191.548
 9.0616  36697.2  190.462
 9.1036  36105.1  190.084
 9.1456  35967.4  189.062
 9.1876  36457.9  190.292
 9.2296  36031.1  188.609
 9.2716  35748.9  187.9
 9.3136  35975.4  188.49
 9.3556  36097.5  188.784
 9.3976  34628  185.41
 9.4396  35233.1  186.93
 9.4816  35004.1  186.177
 9.5236  34822.8  185.613
 9.5656  34421.3  184.883
 9.6076  33684.4  183.425
 9.6496  33872  183.805
 9.6916  33623  183.086
 9.7336  33802.2  183.35
 9.7756  33537.2  184.017
 9.8176  33492.7  183.298
 9.8596  33377.4  181.427
 9.9016  32914.7  180.158
 9.9436  32708.5  179.497
 9.9856  32278.8  178.591
 10.0276  32098.2  179.171
 10.0696  32371.7  178.96
 10.1116  31377.5  176.456
 10.1536  31122.2  175.89
 10.1956  30820.1  174.652
 10.2376  30540.2  173.35
 10.2796  30440.3  173.189
 10.3216  30042.3  172.347
 10.3636  30021.3  172.308
 10.4056  29333.5  170.727
 10.4476  29400.3  170.534
 10.4896  29815.3  171.171
 10.5316  28908.2  169.272
 10.5736  28809.8  169.398
 10.6156  28801  169.116
 10.6576  28742.7  167.522
 10.6996  28150  166.482
 10.7416  28026.3  166.326
 10.7836  27521.6  165.498
 10.8256  27315.2  165.29
 10.8676  27154  164.358
 10.9096  27097.3  164.213
 10.9516  26662.7  161.842
 10.9936  26920.1  162.83
 11.0356  26481.4  162.111
 11.0776  26338.9  161.007
 11.1196  25944.8  160.552
 11.1616  25756.5  159.649
 11.2036  25960.1  160.118
 11.2456  25886.1  160.6
 11.2876  26146.5  161.129
 11.3296  25655.3  159.522
 11.3716  25962.7  160.16
 11.4136  25927.3  160.942
 11.4556  25871.2  160.425
 11.4976  26498.7  161.347
 11.5396  26696.4  162.126
 11.5816  27392.8  164.674
 11.6236  27134.9  164.358
 11.6656  26712.8  161.984
 11.7076  25704.8  159.736
 11.7496  25424.9  162.886
 11.7916  25229.4  157.51
 11.8336  24691.6  156.744
 11.8756  24781  156.544
 11.9176  24812.9  156.319
 11.9596  24851.1  156.588
 12.0016  24449.5  156.091
 12.0436  24753.4  156.51
 12.0856  24147.5  155.099
 12.1276  24236  155.326
 12.1696  24364  154.851
 12.2116  24153.2  154.182
 12.2536  23947  154.323
 12.2956  23788.7  153.173
 12.3376  23993.7  154.033
 12.3796  24086.5  154.816
 12.4216  23931.1  153.512
 12.4636  23753.3  153.874
 12.5056  24027.1  154.02
 12.5476  24133.4  153.867
 12.5896  23692.1  153.103
 12.6316  23820.9  153.662
 12.6736  23654.7  153.619
 12.7156  23923.3  154.326
 12.7576  23637.9  153.652
 12.7996  23959.9  153.342
 12.8416  23589.5  153.203
 12.8836  23889.2  154.006
 12.9256  24438.6  154.783
 12.9676  24280.5  154.695
 13.0096  24605.4  156.84
 13.0516  24585  155.802
 13.0936  24595.9  156.244
 13.1356  24961.1  156.36
 13.1776  24386.2  155.567
 13.2196  24639.1  156.011
 13.2616  24444.6  155.712
 13.3036  24691  156.457
 13.3456  24242.8  155.175
 13.3876  24910.1  156.774
 13.4296  24595.5  155.944
 13.4716  24408.4  154.977
 13.5136  24410.7  155.116
 13.5556  24487.1  155.992
 13.5976  24558.8  156.385
 13.6396  24379.2  155.175
 13.6816  24587.3  156.311
 13.7236  25031.7  157.305
 13.7656  26654.1  162.763
 13.8076  27231.2  163.178
 13.8496  26941.7  162.979
 13.8916  24973.7  158.059
 13.9336  24050.8  154.389
 13.9756  24185.1  154.183
 14.0176  23883.4  153.903
 14.0596  23936.2  153.985
 14.1016  23826.7  154.065
 14.1436  23743.9  152.926
 14.1856  23237.3  151.577
 14.2276  23261.6  152.141
 14.2696  23196.5  151.789
 14.3116  22735.1  150.18
 14.3536  22475.3  149.479
 14.3956  22521.2  149.359
 14.4376  22842.4  150.207
 14.4796  22501.7  149.081
 14.5216  22260.8  149.065
 14.5636  21909.4  147.455
 14.6056  22363.4  148.534
 14.6476  22300.9  147.569
 14.6896  21765.1  146.319
 14.7316  21354.9  145.976
 14.7736  21356.5  145.128
 14.8156  21232.5  144.716
 14.8576  21044.9  143.944
 14.8996  20734  144.06
 14.9416  20333.1  142.689
 14.9836  20379.1  142.829
 15.0256  19531.6  138.762
 15.0676  19918.1  140.441
 15.1096  19816.7  139.822
 15.1516  19381.9  138.83
 15.1936  19147.7  137.423
 15.2356  19058.6  137.381
 15.2776  18875.4  136.313
 15.3196  18541  136.082
 15.3616  18510.3  135.727
 15.4036  18478.2  135.477
 15.4456  18938  136.799
 15.4876  18364.5  134.396
 15.5296  18209.3  134.113
 15.5716  18160.6  133.538
 15.6136  17947.7  133.072
 15.6556  18223.8  133.334
 15.6976  17908.3  132.255
 15.7396  17624.4  131.793
 15.7816  17566.7  131.1
 15.8236  17283.5  130.721
 15.8656  17596  131.694
 15.9076  17173.3  129.924
 15.9496  17963.4  135.69
 15.9916  17668.1  134.981
 16.0336  17768.7  132.213
 16.0756  17604.6  131.927
 16.1176  17482.1  131.549
 16.1596  17078.8  131.201
 16.2016  17118.1  130.107
 16.2436  17148.8  130.61
 16.2856  16972.3  129.425
 16.3276  16550.3  128.258
 16.3696  16654.3  128.493
 16.4116  16638  128.868
 16.4536  16705  128.939
 16.4956  16682.6  128.584
 16.5376  16680.7  128.77
 16.5796  16478.6  127.351
 16.6216  16567.5  127.95
 16.6636  16303  127.128
 16.7056  16506.7  127.777
 16.7476  16358  126.731
 16.7896  16108.3  126.501
 16.8316  16268.1  127.107
 16.8736  16538.1  128.406
 16.9156  16510.5  128.632
 16.9576  16288.5  128.566
 16.9996  16201.3  128.683
 17.0416  16357.2  127.693
 17.0836  16355  127.442
 17.1256  16343.6  127.405
 17.1676  16318.1  127.257
 17.2096  16058.5  126.147
 17.2516  16138.4  126.24
 17.2936  15875.7  125.563
 17.3356  15841.2  125.406
 17.3776  15727.2  125.14
 17.4196  15699.3  124.739
 17.4616  15624.4  124.343
 17.5036  15197.1  122.997
 17.5456  15139.1  123.398
 17.5876  15343.4  123.272
 17.6296  15242.9  122.689
 17.6716  15149.7  122.895
 17.7136  15218.7  123.294
 17.7556  14904.2  122.308
 17.7976  14754.3  121.309
 17.8396  14666.6  120.586
 17.8816  14736.1  121.436
 17.9236  14615  120.718
 17.9656  14730.2  121.878
 18.0076  14630.9  120.891
 18.0496  14523.5  119.603
 18.0916  14467  119.907
 18.1336  14375.4  119.622
 18.1756  14535.6  119.847
 18.2176  14422.2  119.583
 18.2596  14167.6  118.261
 18.3016  14406.1  119.51
 18.3436  14370.4  119.599
 18.3856  14300.9  119.206
 18.4276  14270  118.765
 18.4696  14224.7  118.659
 18.5116  14275.4  119.143
 18.5536  14288.1  119.561
 18.5956  14115.5  118.403
 18.6376  14007.4  118.346
 18.6796  14032.2  117.766
 18.7216  14058.8  118.437
 18.7636  14082.4  118.463
 18.8056  13890.4  117.578
 18.8476  13898.1  118.244
 18.8896  13793.9  117.14
 18.9316  13979.5  117.747
 18.9736  14071.1  117.994
 19.0156  13736.4  116.999
 19.0576  14115.4  117.441
 19.0996  14141.5  118.265
 19.1416  13910.2  117.687
 19.1836  13684.1  116.333
 19.2256  13729.4  116.754
 19.2676  13712.9  116.767
 19.3096  13846.4  117.584
 19.3516  13746.6  117.117
 19.3936  13659.9  116.641
 19.4356  13938.8  117.703
 19.4776  13721.1  116.874
 19.5196  13856.3  117.303
 19.5616  13720.2  116.981
 19.6036  13704.7  116.415
 19.6456  13805.7  116.956
 19.6876  13687.3  116.1
 19.7296  13896.6  117.439
 19.7716  13701.7  116.643
 19.8136  14165.7  118.941
 19.8556  14074.8  118.047
 19.8976  13978.1  117.697
 19.9396  14082.4  117.717
 19.9816  14223.5  118.569
 20.0236  14650.6  120.524
 20.0656  14660.2  120.565
 20.1076  14854.4  121.843
 20.1496  14739.1  121.375
 20.1916  14696.9  120.7
 20.2336  14307.8  119.025
 20.2756  14089.5  118.545
 20.3176  13752.7  116.864
 20.3596  13702.9  116.644
 20.4016  13712.5  116.481
 20.4436  13542.8  116.334
 20.4856  13668.3  116.643
 20.5276  13509.2  116.432
 20.5696  13632  116.399
 20.6116  13128.3  114.508
 20.6536  13337.2  114.984
 20.6956  13306.6  114.922
 20.7376  13051.1  114.031
 20.7796  13221.7  114.463
 20.8216  13314.1  114.576
 20.8636  13288.1  114.834
 20.9056  13096.1  113.945
 20.9476  13190.3  114.195
 20.9896  13309.8  114.58
 21.0316  13116.9  113.64
 21.0736  13020.6  113.744
 21.1156  12984.4  113.751
 21.1576  13031.6  113.995
 21.1996  12940.4  113.575
 21.2416  13004  113.677
 21.2836  12948.6  113.412
 21.3256  12996.9  113.7
 21.3676  13057  113.494
 21.4096  12752.1  112.487
 21.4516  12700.9  112.126
 21.4936  12542.9  111.7
 21.5356  12841.2  112.963
 21.5776  12908.5  113.092
 21.6196  12706.7  112.249
 21.6616  12732.2  112.439
 21.7036  12851.4  112.726
 21.7456  12807.9  112.623
 21.7876  12704.7  111.93
 21.8296  12605.3  111.334
 21.8716  12762.3  112.262
 21.9136  12981.6  113.417
 21.9556  12673.8  111.742
 21.9976  12738.5  112.061
 22.0396  12564.5  111.543
 22.0816  12533.8  111.937
 22.1236  12739.9  112.304
 22.1656  12544.4  111.641
 22.2076  12508.7  110.891
 22.2496  12374.8  110.327
 22.2916  12364.7  110.164
 22.3336  12403.2  111.036
 22.3756  12402.7  110.776
 22.4176  12439.3  110.792
 22.4596  12097.2  109.838
 22.5016  12403.8  110.727
 22.5436  12383.6  110.511
 22.5856  12702.9  112.175
 22.6276  12753.6  112.534
 22.6696  12344.1  111.067
 22.7116  12377.8  110.733
 22.7536  12410.8  110.856
 22.7956  12213.5  109.316
 22.8376  12199.5  109.762
 22.8796  12239.1  109.746
 22.9216  12491.1  111.41
 22.9636  12278.9  109.626
 23.0056  12370.5  110.168
 23.0476  12220.2  110.061
 23.0896  12480.7  110.607
 23.1316  12456.1  110.932
 23.1736  12534.5  114.218
 23.2156  12752.9  112.562
 23.2576  12881.4  113.256
 23.2996  12754.2  112.479
 23.3416  12973.2  113.966
 23.3836  12812.9  112.489
 23.4256  12938.4  113.152
 23.4676  12634.5  111.517
 23.5096  12668.4  112.329
 23.5516  12642.7  111.51
 23.5936  12434  111.485
 23.6356  12686.3  112.277
 23.6776  12448.2  111.437
 23.7196  12403.4  110.802
 23.7616  12527.8  111.285
 23.8036  12850.7  112.757
 23.8456  12525.4  110.877
 23.8876  12361.5  110.503
 23.9296  12349.6  110.942
 23.9716  12247.3  109.685
 24.0136  12461.8  111.549
 24.0556  12162.4  109.918
 24.0976  12087.9  109.4
 24.1396  12079.6  111.979
 24.1816  12294  111.719
 24.2236  12247.3  110.777
 24.2656  12075.2  109.48
 24.3076  12076.5  109.755
 24.3496  12071.2  109.61
 24.3916  12159.6  110.062
 24.4336  11897  109.063
 24.4756  12044.2  109.625
 24.5176  12000.4  109.055
 24.5596  11835  108.434
 24.6016  11825.3  108.675
 24.6436  11769.4  107.922
 24.6856  11780.8  107.709
 24.7276  11649.7  107.45
 24.7696  11753.9  108.021
 24.8116  11623.5  107.609
 24.8536  11609.2  107.549
 24.8956  11606.5  107.267
 24.9376  11464.1  106.545
 24.9796  11452.7  106.844
 25.0216  11428.8  106.845
 25.0636  11360.2  106.178
 25.1056  11307.1  106.371
 25.1476  11256.6  108.047
 25.1896  11210.7  106.325
 25.2316  11270.6  105.878
 25.2736  11247.5  105.422
 25.3156  11172.8  105.131
 25.3576  11178  105.602
 25.3996  11239.3  105.876
 25.4416  11162  105.486
 25.4836  10990.9  105.195
 25.5256  11073.6  104.947
 25.5676  11046  104.554
 25.6096  10899.8  104.431
 25.6516  10987.2  104.357
 25.6936  11025.7  104.843
 25.7356  10953.7  104.642
 25.7776  10965.5  104.292
 25.8196  10932  104.383
 25.8616  10881.1  104.066
 25.9036  10990.2  104.039
 25.9456  10756.7  103.523
 25.9876  10842.9  104.001
 26.0296  10962.7  104.174
 26.0716  10868.8  104.061
 26.1136  10862  103.964
 26.1556  10985.6  103.939
 26.1976  10693.4  103.47
 26.2396  10788.6  103.337
 26.2816  10887.8  104.163
 26.3236  10864.8  104.216
 26.3656  11071.5  104.92
 26.4076  10796.7  103.817
 26.4496  11003.6  104.396
 26.4916  11163.9  105.049
 26.5336  11461  106.784
 26.5756  11530.3  106.987
 26.6176  11006.5  104.555
 26.6596  10879.4  104.252
 26.7016  10791.4  103.594
 26.7436  10719.3  103.369
 26.7856  10542.5  102.505
 26.8276  10709.9  103.279
 26.8696  10635.7  102.792
 26.9116  10615.9  102.63
 26.9536  10474.1  101.997
 26.9956  10381.9  101.581
 27.0376  10647.5  103.09
 27.0796  10479  102.077
 27.1216  10633.5  102.802
 27.1636  10289  101.306
 27.2056  10291.5  101.201
 27.2476  10354.4  101.493
 27.2896  10203.2  100.871
 27.3316  10387.2  101.494
 27.3736  10255.1  101.117
 27.4156  10425.5  101.784
 27.4576  10186.4  100.832
 27.4996  10480.5  101.881
 27.5416  10353.9  101.575
 27.5836  10282.6  101.064
 27.6256  10332.9  101.492
 27.6676  10211.2  100.874
 27.7096  10274.5  101.075
 27.7516  10125.5  100.491
 27.7936  10401  101.983
 27.8356  10288.1  101.051
 27.8776  10423.7  101.764
 27.9196  10088.1  99.9833
 27.9616  10110.7  100.294
 28.0036  10077  100.075
 28.0456  9950.35  99.5981
 28.0876  10000.1  99.9314
 28.1296  9975.83  99.6453
 28.1716  10031.6  99.9278
 28.2136  10163.5  100.56
 28.2556  10024.5  99.9781
 28.2976  9923.33  99.471
 28.3396  9865.42  98.9862
 28.3816  9978.5  99.5184
 28.4236  9846.85  99.007
 28.4656  9918.02  99.4037
 28.5076  9922.15  99.0666
 28.5496  9933.52  99.3693
 28.5916  9988.5  99.4647
 28.6336  9933.91  99.5343
 28.6756  9939.6  98.7683
 28.7176  9877.65  99.0113
 28.7596  9836.66  98.6861
 28.8016  9798.29  98.5441
 28.8436  9643.94  97.9937
 28.8856  9743.4  98.3592
 28.9276  9729.04  98.5319
 28.9696  9543.72  97.2454
 29.0116  9658.69  98.0145
 29.0536  9567.92  97.7594
 29.0956  9726.76  98.2683
 29.1376  9752.57  98.3722
 29.1796  9780.99  98.5618
 29.2216  9614.53  97.5613
 29.2636  9829.35  98.6344
 29.3056  9641.7  97.5532
 29.3476  9707.87  98.4168
 29.3896  9616.13  98.0676
 29.4316  9698.43  97.822
 29.4736  9421.68  96.4793
 29.5156  9441.48  96.5054
 29.5576  9433.36  97.1945
 29.5996  9357.42  96.0704
 29.6416  9440.63  96.6146
 29.6836  9395.36  96.3127
 29.7256  9327.34  96.5199
 29.7676  9401.98  96.5689
 29.8096  9340.63  96.1977
 29.8516  9323.65  96.4348
 29.8936  9400.21  96.9246
 29.9356  9390.96  96.6355
 29.9776  9301  96.3217
 30.0196  9365.75  96.0527
 30.0616  9371.65  96.4534
 30.1036  9397.85  96.4145
 30.1456  9153.05  95.3778
 30.1876  9229.65  95.7585
 30.2296  9234.34  95.7259
 30.2716  9343.45  95.9333
 30.3136  9354.82  96.8437
 30.3556  9491.69  97.5365
 30.3976  9308.31  98.095
 30.4396  9643.02  97.1601
 30.4816  9554.75  96.3289
 30.5236  9546.06  96.2738
 30.5656  9423.25  96.3134
 30.6076  9547.25  96.351
 30.6496  9549.95  96.7837
 30.6916  9297.9  95.5837
 30.7336  9429.44  96.3973
 30.7756  9430.98  96.509
 30.8176  9496.11  96.7457
 30.8596  9429.71  96.1708
 30.9016  9375.15  96.2399
 30.9436  9552.08  96.8843
 30.9856  9696.3  97.7286
 31.0276  9349.42  95.6111
 31.0696  9370.4  96.2833
 31.1116  9435.71  96.5777
 31.1536  9244.06  95.4805
 31.1956  9195.27  95.3112
 31.2376  9217.62  95.4476
 31.2796  9258.52  95.1927
 31.3216  9427.3  95.9804
 31.3636  9298.23  96.0292
 31.4056  9256.87  97.1227
 31.4476  9366.67  95.6034
 31.4896  9337.64  95.9568
 31.5316  9293.61  95.1729
 31.5736  9349.27  95.2504
 31.6156  9386.82  95.4405
 31.6576  9417.03  95.6748
 31.6996  9470  95.602
 31.7416  9269.97  95.6876
 31.7836  9333.99  95.0223
 31.8256  9159.43  94.4578
 31.8676  9415.8  95.6797
 31.9096  9177.24  94.8396
 31.9516  9076.83  94.487
 31.9936  9038.78  94.1135
 32.0356  9268.39  95.3425
 32.0776  9313.03  95.4793
 32.1196  9225.67  95.13
 32.1616  9263.96  94.7738
 32.2036  9240.91  95.1641
 32.2456  9108.34  94.8617
 32.2876  8988.06  93.5762
 32.3296  9065.23  94.0893
 32.3716  8925.5  93.4921
 32.4136  8943.26  93.7868
 32.4556  9021.85  93.6326
 32.4976  9098.02  93.8898
 32.5396  8944.2  93.15
 32.5816  9003.74  93.5804
 32.6236  9046.98  93.8665
 32.6656  9148.3  94.9439
 32.7076  8899.39  93.3043
 32.7496  8932.77  93.1543
 32.7916  9034.55  93.6392
 32.8336  8895.89  93.0141
 32.8756  9005.54  93.2984
 32.9176  8835.33  92.9
 32.9596  8963.59  93.6289
 33.0016  8859.03  92.8767
 33.0436  8889.7  93.2038
 33.0856  8875.12  93.2234
 33.1276  8644.29  91.7374
 33.1696  8974.75  93.3053
 33.2116  8904.96  93.1812
 33.2536  9001.19  93.6606
 33.2956  8937.05  93.413
 33.3376  8779.53  92.3288
 33.3796  8900.16  93.1859
 33.4216  8913.98  92.8367
 33.4636  8940.59  93.1366
 33.5056  8766.39  92.475
 33.5476  8873.22  93.007
 33.5896  8945.52  93.1597
 33.6316  8904.47  93.2676
 33.6736  8718.14  92.5382
 33.7156  8757.39  92.781
 33.7576  8818.51  92.7446
 33.7996  8813.35  92.4859
 33.8416  8669.98  91.9126
 33.8836  8731.56  92.0114
 33.9256  8855.39  92.7146
 33.9676  8766.9  92.1521
 34.0096  8727.42  92.2532
 34.0516  8647.39  91.4706
 34.0936  8556.44  91.2598
 34.1356  8768.47  92.1194
 34.1776  8574.09  91.0958
 34.2196  8517.04  90.9748
 34.2616  8502.34  91.0312
 34.3036  8643.6  92.0275
 34.3456  8590.24  91.5041
 34.3876  8723.01  92.1738
 34.4296  8659.38  91.5278
 34.4716  8723.31  92.0178
 34.5136  8691.12  92.0411
 34.5556  8537.47  91.4895
 34.5976  8649.23  91.8813
 34.6396  8445.28  90.5146
 34.6816  8637.29  91.6393
 34.7236  8535.33  90.8822
 34.7656  8650.69  91.6945
 34.8076  8593.69  91.7271
 34.8496  8454.12  90.8344
 34.8916  8549.43  91.2074
 34.9336  8609.33  91.5088
 34.9756  8658.88  91.6903
 35.0176  8693.44  92.3999
 35.0596  8657.13  92.0273
 35.1016  8602.36  91.4924
 35.1436  8784.52  92.1439
 35.1856  8613.78  91.3656
 35.2276  8573.6  91.328
 35.2696  8591.31  91.6124
 35.3116  8545.23  91.476
 35.3536  8378.34  90.281
 35.3956  8476.28  90.5141
 35.4376  8639.29  91.9537
 35.4796  8435.97  90.9079
 35.5216  8493.7  91.1754
 35.5636  8290.62  90.8153
 35.6056  8372.74  90.3005
 35.6476  8450.6  90.6171
 35.6896  8517.78  91.139
 35.7316  8285.51  89.7884
 35.7736  8334.87  90.2381
 35.8156  8389.5  90.5404
 35.8576  8484.11  91.3069
 35.8996  8392.01  90.764
 35.9416  8329.96  89.9505
 35.9836  8409.24  90.7152
 36.0256  8478.02  91.089
 36.0676  8639.65  91.4679
 36.1096  8410.1  90.6384
 36.1516  8506.11  91.0376
 36.1936  8361.93  90.1075
 36.2356  8400.88  90.9692
 36.2776  8343.44  90.1411
 36.3196  8352.68  89.8523
 36.3616  8347.02  89.9541
 36.4036  8387.08  90.2409
 36.4456  8398.36  90.5052
 36.4876  8224.21  89.5034
 36.5296  8373.96  90.355
 36.5716  8183.26  90.0864
 36.6136  8138.57  88.6464
 36.6556  8159.3  88.9584
 36.6976  8064.97  88.9266
 36.7396  8057.86  88.6295
 36.7816  8157.66  89.5459
 36.8236  8065.81  88.9701
 36.8656  7951.69  88.3976
 36.9076  7912.44  88.1937
 36.9496  8092.99  89.0542
 36.9916  8124.46  88.8543
 37.0336  8171.85  89.4306
 37.0756  8040.6  88.5061
 37.1176  7955.21  88.3002
 37.1596  8006.65  88.5909
 37.2016  7911.33  88.2362
 37.2436  8031.12  88.2712
 37.2856  8012.55  88.4205
 37.3276  8135.23  88.4515
 37.3696  7923.93  88.1679
 37.4116  8045.37  88.7473
 37.4536  7782.34  87.1558
 37.4956  7918.73  87.9464
 37.5376  8075.09  90.3829
 37.5796  8146.75  90.7271
 37.6216  8085.88  88.648
 37.6636  8161.64  88.9522
 37.7056  8250.46  89.6253
 37.7476  8276.82  89.3024
 37.7896  7946.27  88.0094
 37.8316  8096.98  88.9921
 37.8736  8141.53  88.7661
 37.9156  8151.94  88.8179
 37.9576  8054.85  88.201
 37.9996  8010.35  87.6695
 38.0416  8101.59  88.9749
 38.0836  8221.62  89.5333
 38.1256  8072.68  88.6955
 38.1676  7948.3  88.1268
 38.2096  8061.19  88.3606
 38.2516  8017.61  88.3474
 38.2936  8152.33  88.8782
 38.3356  8048.14  88.2459
 38.3776  8024.14  88.3651
 38.4196  8026.92  88.2229
 38.4616  7957.09  88.0909
 38.5036  8126.54  88.8646
 38.5456  7920.93  88.5655
 38.5876  7911.54  88.5354
 38.6296  7901.88  87.4636
 38.6716  7969.98  87.639
 38.7136  7889.96  87.1451
 38.7556  7979.79  88.1413
 38.7976  8131.78  88.9058
 38.8396  7987.17  88.5607
 38.8816  7878.67  87.7639
 38.9236  7876.67  87.545
 38.9656  8016.85  88.2278
 39.0076  7918.87  87.0962
 39.0496  8065.04  88.4552
 39.0916  8172.58  88.6873
 39.1336  7986.21  88.0761
 39.1756  7998.46  88.2074
 39.2176  7910.66  88.2551
 39.2596  7988.38  88.6185
 39.3016  7998.85  88.2569
 39.3436  7915.81  88.2009
 39.3856  7924.26  87.6986
 39.4276  8120.3  89.2858
 39.4696  8033.88  88.4268
 39.5116  7999.82  88.7491
 39.5536  8019.41  89.2897
 39.5956  7954.36  88.0385
 39.6376  7950.37  88.0175
 39.6796  7885.99  87.4087
 39.7216  7903.65  87.6022
 39.7636  7944.29  88.3837
 39.8056  7931.88  88.1053
 39.8476  7912.16  88.2403
 39.8896  8008.09  88.4066
 39.9316  7863.78  87.8554
 39.9736  7940.89  87.8623
 40.0156  7862  87.2567
 40.0576  7922.49  87.9458
 40.0996  7896.62  86.9785
 40.1416  7991.66  88.3078
 40.1836  7964.18  88.0413
 40.2256  8010.11  88.3328
 40.2676  7896.38  87.8075
 40.3096  8041.97  88.5495
 40.3516  7939.37  88.0872
 40.3936  8010.28  88.0356
 40.4356  7894.99  87.6088
 40.4776  7976.26  88.4576
 40.5196  8046.14  88.9666
 40.5616  8131.58  89.0725
 40.6036  7894.47  88.0286
 40.6456  7945.06  87.9216
 40.6876  7984.42  88.123
 40.7296  7902.76  87.8095
 40.7716  7983.68  88.3696
 40.8136  7884.98  87.7823
 40.8556  8065.07  88.9041
 40.8976  7928.21  88.0737
 40.9396  8013.92  88.8941
 40.9816  8059.51  88.429
 41.0236  7956.47  87.6519
 41.0656  8118.97  89.0838
 41.1076  7980.32  88.0913
 41.1496  7985.75  88.0268
 41.1916  7960.53  88.2084
 41.2336  7977.14  88.2902
 41.2756  8012.84  88.0959
 41.3176  8006.5  88.6696
 41.3596  7953.47  88.1158
 41.4016  7846.56  87.7799
 41.4436  7955.17  88.1717
 41.4856  7941.2  88.2575
 41.5276  7828.68  87.6407
 41.5696  8032.36  88.3891
 41.6116  7887.97  87.9932
 41.6536  7870.8  87.7546
 41.6956  7973.35  88.3875
 41.7376  7788.68  87.3915
 41.7796  7786.27  87.3048
 41.8216  8006.05  88.7128
 41.8636  7846.06  87.7708
 41.9056  7842.72  87.5457
 41.9476  7869.94  87.922
 41.9896  8038.44  88.5172
 42.0316  7952.83  88.1433
 42.0736  7952.94  88.242
 42.1156  7866.04  87.5984
 42.1576  7925.22  88.038
 42.1996  7961.59  88.3556
 42.2416  7951.18  87.8912
 42.2836  8000.03  88.2849
 42.3256  7815.51  87.3563
 42.3676  7993.84  88.1515
 42.4096  7906.47  87.6407
 42.4516  7932.84  87.8599
 42.4936  7896.57  87.7436
 42.5356  7811.27  87.4089
 42.5776  7872.1  87.6883
 42.6196  7996.29  88.4303
 42.6616  7807.72  87.5494
 42.7036  7922.44  87.5677
 42.7456  7960.91  88.1337
 42.7876  7721.13  86.891
 42.8296  7876.55  87.6058
 42.8716  7728.46  86.9373
 42.9136  7812.86  87.1994
 42.9556  7826.16  87.4091
 42.9976  7807.28  87.2724
 43.0396  7825.82  87.1011
 43.0816  7767.42  87.1593
 43.1236  7710.54  86.877
 43.1656  7864.08  87.5777
 43.2076  7749.9  87.0386
 43.2496  7807.8  87.1902
 43.2916  7776.92  87.377
 43.3336  7788  87.2774
 43.3756  7826.12  87.2381
 43.4176  7784.35  87.0914
 43.4596  7679.66  86.3606
 43.5016  7663.86  86.6657
 43.5436  7734.33  86.9771
 43.5856  7746.51  87.0748
 43.6276  7732.9  86.885
 43.6696  7748.61  87.1235
 43.7116  7765.4  86.827
 43.7536  7890.49  88.0202
 43.7956  7569.12  87.4035
 43.8376  7682.61  86.5969
 43.8796  7559.17  85.975
 43.9216  7620.34  86.2399
 43.9636  7635.91  86.4339
 44.0056  7667.37  86.8467
 44.0476  7525.66  85.6716
 44.0896  7437.64  85.5067
 44.1316  7487.8  85.465
 44.1736  7635.55  86.283
 44.2156  7632.83  86.1269
 44.2576  7565.2  86.0687
 44.2996  7663.44  86.5982
 44.3416  7592.3  85.9437
 44.3836  7542.13  85.9983
 44.4256  7395.33  84.8013
 44.4676  7391.35  84.9339
 44.5096  7566.26  86.0783
 44.5516  7505.49  85.6957
 44.5936  7373.77  84.8957
 44.6356  7451.46  85.0808
 44.6776  7515.91  85.7649
 44.7196  7464.09  85.7762
 44.7616  7579.36  87.7575
 44.8036  7572.67  86.1374
 44.8456  7763.01  87.4193
 44.8876  7606.41  86.3732
 44.9296  7838.08  87.122
 44.9716  7635.85  86.4126
 45.0136  7655.9  86.4713
 45.0556  7746.33  86.9568
 45.0976  7600.61  86.2859
 45.1396  7537.45  85.7006
 45.1816  7581.24  85.8852
 45.2236  7667.65  86.2731
 45.2656  7502.23  85.8408
 45.3076  7645.39  86.4181
 45.3496  7495.34  85.8865
 45.3916  7630.38  86.9261
 45.4336  7632.88  86.7684
 45.4756  7502.51  85.8911
 45.5176  7624.92  86.2049
 45.5596  7723.99  86.8708
 45.6016  7500.91  86.0444
 45.6436  7543.47  85.4541
 45.6856  7593.38  86.4064
 45.7276  7478.85  87.0816
 45.7696  7520.93  86.9959
 45.8116  7508.02  86.3559
 45.8536  7454.83  85.9351
 45.8956  7488.45  85.4802
 45.9376  7554.01  85.318
 45.9796  7682.61  86.7461
 46.0216  7603.51  86.6238
 46.0636  7561.67  85.5241
 46.1056  7491.99  85.1273
 46.1476  7675.25  86.7583
 46.1896  7586.32  86.4059
 46.2316  7532.7  85.968
 46.2736  7475.69  86.0165
 46.3156  7567.58  86.1261
 46.3576  7461.82  85.7184
 46.3996  7543.42  86.3537
 46.4416  7553.08  85.9737
 46.4836  7452.52  85.7588
 46.5256  7607.98  86.5955
 46.5676  7543.72  86.3446
 46.6096  7543.06  86.2578
 46.6516  7611.71  85.6895
 46.6936  7438.33  85.2078
 46.7356  7634.68  86.4272
 46.7776  7555.74  86.8352
 46.8196  7470.82  85.9298
 46.8616  7339.05  85.1266
 46.9036  7279.44  84.4381
 46.9456  7291.2  84.1496
 46.9876  7478.94  85.297
 47.0296  7337.58  85.1889
 47.0716  7377.22  85.2396
 47.1136  7389.66  84.9821
 47.1556  7451.95  85.2095
 47.1976  7466.68  85.3593
 47.2396  7395.07  85.3698
 47.2816  7349.97  84.8064
 47.3236  7425.33  85.6117
 47.3656  7473.84  85.8287
 47.4076  7351.01  84.9153
 47.4496  7307.44  84.7574
 47.4916  7384.67  85.3949
 47.5336  7521.98  85.9998
 47.5756  7527.79  86.158
 47.6176  7396.79  85.2961
 47.6596  7325.16  84.5969
 47.7016  7523.74  85.55
 47.7436  7432.15  85.3714
 47.7856  7501.85  85.7814
 47.8276  7300.33  84.6853
 47.8696  7401.15  85.3467
 47.9116  7473.89  85.472
 47.9536  7401.89  85.008
 47.9956  7330.46  85.3108
 48.0376  7435.21  85.6895
 48.0796  7480.09  86.0687
 48.1216  7309.3  84.9091
 48.1636  7527.14  85.7171
 48.2056  7478.25  85.7184
 48.2476  7485.29  86.0624
 48.2896  7490.67  86.0115
 48.3316  7429.24  85.5919
 48.3736  7447.71  85.7238
 48.4156  7378.75  85.1845
 48.4576  7317.11  85.1212
 48.4996  7495.44  85.5998
 48.5416  7447.74  85.6511
 48.5836  7443.03  85.2974
 48.6256  7485.72  85.7451
 48.6676  7357.81  85.5329
 48.7096  7476.17  85.4803
 48.7516  7377.07  85.0576
 48.7936  7237.55  84.3168
 48.8356  7331.18  84.9087
 48.8776  7365.19  85.6057
 48.9196  7434.4  85.445
 48.9616  7344.55  85.3177
 49.0036  7481.24  86.4596
 49.0456  7262.43  85.1635
 49.0876  7302.71  85.0354
 49.1296  7288.44  85.0045
 49.1716  7266.84  84.7579
 49.2136  7347.94  85.1578
 49.2556  7394.68  85.4625
 49.2976  7394.17  85.5204
 49.3396  7303.16  85.0473
 49.3816  7420.87  85.146
 49.4236  7376.3  85.3375
 49.4656  7220.36  84.4459
 49.5076  7365.22  85.0289
 49.5496  7336.36  84.9335
 49.5916  7453.96  85.5179
 49.6336  7285.07  84.7465
 49.6756  7409.46  85.7039
 49.7176  7336.75  85.2311
 49.7596  7345.54  85.0391
 49.8016  7264.14  84.4881
 49.8436  7293.13  84.9598
 49.8856  7336.05  85.2097
 49.9276  7247.75  84.803
 49.9696  7310.7  85.1521
 50.0116  7347.61  85.5001
 50.0536  7326.47  85.317
 50.0956  7234.16  84.8544
 50.1376  7273.43  84.7679
 50.1796  7284.12  85.1147
 50.2216  7298.77  85.1869
 50.2636  7200.9  84.2371
 50.3056  7183.57  84.3043
 50.3476  7285.6  84.923
 50.3896  7207.93  84.4487
 50.4316  7277.48  84.6836
 50.4736  7225.13  84.599
 50.5156  7207.38  84.4847
 50.5576  7255.4  84.5178
 50.5996  7162.01  84.2636
 50.6416  7208.44  84.4662
 50.6836  7326.22  85.2152
 50.7256  7362.48  85.3528
 50.7676  7338.83  85.4811
 50.8096  7257.75  84.5702
 50.8516  7153.89  84.4037
 50.8936  7162.52  84.2437
 50.9356  7212.11  84.6291
 50.9776  7218.84  84.8317
 51.0196  7041.34  83.9104
 51.0616  7174.7  84.0193
 51.1036  7229.04  84.7027
 51.1456  7178.78  84.3192
 51.1876  7152.19  83.4791
 51.2296  7117.99  83.9374
 51.2716  6994.21  82.9043
 51.3136  6967.05  83.2085
 51.3556  7015.83  83.1111
 51.3976  7128.43  83.9291
 51.4396  6841.16  82.5383
 51.4816  6994.27  83.3079
 51.5236  7098.15  84.0082
 51.5656  7020.02  83.1312
 51.6076  7070.06  83.521
 51.6496  6969.09  83.1131
 51.6916  7060.4  84.0247
 51.7336  6989.97  83.6949
 51.7756  6959.62  83.2041
 51.8176  6944  83.2235
 51.8596  6998.05  83.5618
 51.9016  7192.04  84.3038
 51.9436  7131.21  85.4644
 51.9856  7058.03  85.4399
 52.0276  7190.51  84.6911
 52.0696  7198.1  84.8041
 52.1116  7008.21  83.8054
 52.1536  7193.79  84.7792
 52.1956  7111.51  83.7563
 52.2376  7114.01  83.9354
 52.2796  7106.92  83.7147
 52.3216  7026.64  83.9368
 52.3636  7016.01  83.43
 52.4056  6947.35  82.8888
 52.4476  6949.64  83.2668
 52.4896  6892.67  82.9708
 52.5316  7062.57  84.0443
 52.5736  6871.29  82.6068
 52.6156  7072.58  84.217
 52.6576  6940.95  82.8697
 52.6996  6840.38  83.2594
 52.7416  6958.31  83.8259
 52.7836  7027.22  84.1233
 52.8256  6962.43  82.9353
 52.8676  6819.92  82.6587
 52.9096  6968.52  83.6346
 52.9516  6990.56  84.1707
 52.9936  6965.11  84.3938
 53.0356  7095.84  84.1492
 53.0776  7030.26  84.0588
 53.1196  7019.55  84.0947
 53.1616  6970.78  83.8441
 53.2036  6960.55  83.7592
 53.2456  6867.33  83.3017
 53.2876  7007.99  83.8382
 53.3296  6955  83.8413
 53.3716  7191.79  85.0018
 53.4136  7091  84.5676
 53.4556  6815.46  82.9363
 53.4976  6872.72  83.1203
 53.5396  6881.1  83.5701
 53.5816  6981.84  83.8115
 53.6236  6935.65  83.8936
 53.6656  7038.14  84.1014
 53.7076  7056.55  84.1725
 53.7496  6882.67  83.2593
 53.7916  6986.78  84.0319
 53.8336  7047.31  84.2749
 53.8756  6807.73  83.3943
 53.9176  6962.48  83.6663
 53.9596  6710.38  82.8978
 54.0016  6656.26  81.9034
 54.0436  6578.05  81.6354
 54.0856  6740.34  82.0462
 54.1276  6715.5  82.1038
 54.1696  6734.79  82.3837
 54.2116  6854.71  82.8422
 54.2536  6675.48  81.5621
 54.2956  6698.86  81.7799
 54.3376  6650.26  81.9627
 54.3796  6649.4  81.8563
 54.4216  6773.84  82.6909
 54.4636  6661.05  81.9519
 54.5056  6651.63  81.6866
 54.5476  6661.52  82.086
 54.5896  6627.3  81.7258
 54.6316  6589.82  81.3411
 54.6736  6614.69  81.5387
 54.7156  6653.28  81.8369
 54.7576  6532.9  81.0645
 54.7996  6576.22  81.4935
 54.8416  6613.02  81.7901
 54.8836  6585  81.7001
 54.9256  6639.78  81.8037
 54.9676  6501.76  80.7938
 55.0096  6559.35  81.1973
 55.0516  6527.32  81.1873
 55.0936  6564.08  81.1285
 55.1356  6485.77  80.6717
 55.1776  6686.31  82.154
 55.2196  6497.33  80.7682
 55.2616  6640.38  81.8756
 55.3036  6524.97  81.3544
 55.3456  6475.43  81.1859
 55.3876  6564.93  81.4743
 55.4296  6382.45  80.3243
 55.4716  6467.28  80.8962
 55.5136  6477.46  80.7083
 55.5556  6698.72  82.1295
 55.5976  6610.23  81.6682
 55.6396  6575.82  81.3963
 55.6816  6480.35  80.6827
 55.7236  6436.07  80.4447
 55.7656  6553.56  80.9047
 55.8076  6447.22  80.2442
 55.8496  6461.91  80.6646
 55.8916  6487.86  80.9944
 55.9336  6592.77  81.4889
 55.9756  6505.85  80.8474
 56.0176  6384.73  80.2294
 56.0596  6448.64  80.6348
 56.1016  6309.6  79.8069
 56.1436  6353.87  80.3122
 56.1856  6343.21  79.9886
 56.2276  6551.11  81.3334
 56.2696  6584.72  81.5296
 56.3116  6516.51  81.488
 56.3536  6296.95  79.7748
 56.3956  6423.52  80.5404
 56.4376  6480.77  80.9559
 56.4796  6289.1  79.5612
 56.5216  6349.03  80.3022
 56.5636  6321.69  79.7268
 56.6056  6509.52  81.1372
 56.6476  6332.34  79.6258
 56.6896  6450.31  80.8323
 56.7316  6335.38  80.0362
 56.7736  6407.65  80.4904
 56.8156  6336.75  80.0497
 56.8576  6237.3  79.3578
 56.8996  6237.49  79.2591
 56.9416  6355.32  80.3333
 56.9836  6380.4  80.0151
 57.0256  6329.58  80.0111
 57.0676  6360.91  80.3094
 57.1096  6331.57  79.9053
 57.1516  6210.2  79.1759
 57.1936  6356.14  79.8749
 57.2356  6207.91  79.2716
 57.2776  6405.43  80.4798
 57.3196  6349.58  80.4922
 57.3616  6266.97  79.4744
 57.4036  6299.13  79.7111
 57.4456  6251.84  79.398
 57.4876  6327.28  79.7341
 57.5296  6258.36  79.5384
 57.5716  6243.77  79.5464
 57.6136  6127.54  78.6466
 57.6556  6284.71  79.7658
 57.6976  6292.22  79.6478
 57.7396  6163.19  79.1738
 57.7816  6237.62  80.0207
 57.8236  6125.74  79.0879
 57.8656  6165.28  79.009
 57.9076  6215.52  79.3554
 57.9496  6221.88  79.7397
 57.9916  6301.31  79.762
 58.0336  6174.68  79.251
 58.0756  6308.49  79.7224
 58.1176  6286.19  79.5729
 58.1596  6150.39  79.3079
 58.2016  6146.22  78.4998
 58.2436  6094.25  78.5775
 58.2856  5943.2  77.5213
 58.3276  5988.27  78.1825
 58.3696  6043.07  78.2925
 58.4116  5972.57  77.7007
 58.4536  5984.45  77.6662
 58.4956  6005.51  77.9793
 58.5376  6049.3  77.8354
 58.5796  5924.82  77.449
 58.6216  6055.56  78.1209
 58.6636  5944.54  77.6028
 58.7056  6063.63  78.2386
 58.7476  5947.52  77.9259
 58.7896  5927.47  77.4432
 58.8316  5990.68  77.8517
 58.8736  5945.28  77.5668
 58.9156  5952.17  77.6527
 58.9576  5952.66  77.9741
 58.9996  5949.17  77.2101
 59.0416  6057.31  78.2671
 59.0836  5964.35  77.5853
 59.1256  5827.91  77.382
 59.1676  5938.15  78.4186
 59.2096  5904.4  77.5064
 59.2516  6002.8  77.7319
 59.2936  5824.52  76.8911
 59.3356  5958.38  77.6482
 59.3776  5802.81  76.7935
 59.4196  5957.48  77.7406
 59.4616  5939  77.487
 59.5036  5916.75  77.3767
 59.5456  5904.76  76.9951
 59.5876  5835.24  76.7283
 59.6296  5781.37  76.4411
 59.6716  5844.93  76.9171
 59.7136  5884.23  77.1637
 59.7556  5908.06  77.4548
 59.7976  5885.7  77.0535
 59.8396  5924.54  77.2026
 59.8816  5864.41  77.3473
 59.9236  5980.97  77.7576
 59.9656  5910.77  77.558
 60.0076  6007.92  77.5515
 60.0496  5807.05  76.7368
 60.0916  5991.96  77.3708
 60.1336  5721.56  76.6827
 60.1756  5896.18  79.0142
 60.1996  0.0000000E+00  0.0000000E+00