File: docs/examples/opeando_xrd/IS17_D/Data/IS17_D/17_Da_f00135.xye
# /beamlines/bl04/projects/cycle2025-II/20250340211-lsimonelli/DATA/IS17_D/17_Da_f00135.xye : mythproc.py merge -s 0.006 -l 0.5 -f /beamlines/bl04/inhouse/ff/FlatField/ff_20Nov2024rod8mm60s_17keV.raw -b True -c true -o xye /beamlines/bl04/projects/cycle2025-II/20250340211-lsimonelli/DATA/IS17_D/17_Da_00135.dat
# IsMon = [6755686, 6755313, 6756583]  IsPos = [-1.4999, -2.4884, -3.4988]
# Wave = 0.4962  CalPath /beamlines/bl04/projects/cycle2025-II/20250340211-lsimonelli/DATA/Align/Si_Pos1_25keV_f00001.cal
# Date = 2025-09-25_07:10:50 Dt = 4.8000  Bin = 0.0060  <imon> = 6755861 +/- 533 (Min/Max) 6755313 / 6756583
# icurr 250.0500  mocoIn 1.7064E-05  mocoOut 0.8007  i15 7.0711e+06  imon 6.75586e+06  i7 8.0000  iEMpd_timer 4.8000  iEMpd_1 3.3597E-08  iEMpd_2 7.8590E-08  iEMpd_3 1.8345E-08  iEMpd_4 4.8730E-08  iEMhp_timer 4.8000  iEMhp_1 4.8846E-06  iEMhp_2 -2.5448E-08  iEMhp_3 -2.3449E-08  iEMhp_4 -2.1633E-08
#      9776
 1.5856  40500.7  206.652
 1.6276  47802.6  220.657
 1.6696  54060.5  233.829
 1.7116  62382.2  251.673
 1.7536  71663.9  268.598
 1.7956  76118.5  277.511
 1.8376  72139.9  270.59
 1.8796  61036.5  247.053
 1.9216  49355.5  223.055
 1.9636  41265.9  203.122
 2.0056  37398  192.619
 2.0476  34321.9  186.55
 2.0896  33138.2  182.23
 2.1316  32171.4  178.689
 2.1736  30645.4  175.783
 2.2156  31041.5  175.495
 2.2576  29771  172.479
 2.2996  28926.1  170.641
 2.3416  28926.1  169.279
 2.3836  28468  168.037
 2.4256  27361.8  165.277
 2.4676  27281.8  164.801
 2.5096  27055.1  164.169
 2.5516  28555.7  172.571
 2.5936  57799.8  240.558
 2.6356  27240  165.841
 2.6776  25960  160.794
 2.7196  25343  159.385
 2.7616  25351  159.192
 2.8036  24894.2  157.92
 2.8456  24936  158.66
 2.8876  24361.4  156.7
 2.9296  23997.5  155.647
 2.9716  24023.9  155.23
 3.0136  23574.3  153.838
 3.0556  23712.3  154.677
 3.0976  23508.4  152.959
 3.1396  23429.2  153.416
 3.1816  23150.7  152.436
 3.2236  23059.2  152.136
 3.2656  23089.4  151.278
 3.3076  22722.7  151.501
 3.3496  23055.5  151.564
 3.3916  23552.2  153.01
 3.4336  24015  155.082
 3.4756  24236.9  155.723
 3.5176  25192.5  158.564
 3.5596  25076  160.602
 3.6016  25159.4  158.508
 3.6436  24460.7  157.385
 3.6856  23991.8  154.174
 3.7276  23073.5  152.282
 3.7696  22918.7  151.956
 3.8116  22485.5  150.404
 3.8536  22614.5  150.763
 3.8956  22557.1  150.406
 3.9376  22662.3  151.006
 3.9796  22477.2  149.902
 4.0216  22398  148.687
 4.0636  22515.9  150.537
 4.1056  22460.4  149.997
 4.1476  22466  150.322
 4.1896  22758.5  151.163
 4.2316  22986.1  151.741
 4.2736  23556.3  153.4
 4.3156  23525.4  153.53
 4.3576  24321.9  156.025
 4.3996  24625.7  157.263
 4.4416  25058.8  158.228
 4.4836  25851.6  160.865
 4.5256  26109.7  162.271
 4.5676  25987.2  162.143
 4.6096  26589.6  162.673
 4.6516  27014.8  163.683
 4.6936  27159.7  164.931
 4.7356  27583.9  166.043
 4.7776  27325.8  165.097
 4.8196  26966.2  164.642
 4.8616  26440.3  162.527
 4.9036  26360.3  162.024
 4.9456  26068.7  161.77
 4.9876  25593.7  160.193
 5.0296  25842.4  160.79
 5.0716  25706.6  161.136
 5.1136  25756.4  161.004
 5.1556  26293.7  162.14
 5.1976  28444.2  168.626
 5.2396  26745.2  163.218
 5.2816  26607.8  163.256
 5.3236  26716.1  163.295
 5.3656  26362  163.115
 5.4076  26108.2  162.487
 5.4496  26227.2  162.345
 5.4916  26167.9  161.923
 5.5336  26489.3  162.921
 5.5756  26138.4  161.865
 5.6176  26438.2  162.231
 5.6596  26606.5  163.713
 5.7016  26923.1  163.951
 5.7436  26827  163.928
 5.7856  27082.5  164.77
 5.8276  27282.4  165.1
 5.8696  27502.1  165.931
 5.9116  27307.1  165.944
 5.9536  27530.2  166.373
 5.9956  27934.3  166.963
 6.0376  27737.3  167.002
 6.0796  28001.3  167.627
 6.1216  28212.4  168.46
 6.1636  28415.1  168.128
 6.2056  28363  168.637
 6.2476  28416.5  168.668
 6.2896  28636.4  169.006
 6.3316  28619.5  169.128
 6.3736  28805.6  169.571
 6.4156  28864.3  169.637
 6.4576  29047.9  169.786
 6.4996  29173.9  170.632
 6.5416  28968.1  170.166
 6.5836  29343.9  171.498
 6.6256  29288.2  170.893
 6.6676  29776.6  171.885
 6.7096  29771.3  172.717
 6.7516  30070.7  173.244
 6.7936  30562.5  174.077
 6.8356  31019.5  175.456
 6.8776  30930.2  176.006
 6.9196  30564.3  175.355
 6.9616  31232.6  176.712
 7.0036  31475  177.047
 7.0456  31607.8  176.716
 7.0876  31527.7  178.179
 7.1296  31551.8  177.388
 7.1716  31539.8  176.887
 7.2136  31194.3  175.703
 7.2556  31556.7  176.883
 7.2976  31603.8  177.511
 7.3396  31689.2  177.963
 7.3816  31486.5  177.608
 7.4236  31918.7  178.114
 7.4656  32062.7  178.003
 7.5076  32131.9  178.326
 7.5496  32146.5  178.904
 7.5916  32246.7  179.207
 7.6336  32676.9  180.297
 7.6756  32899.9  180.763
 7.7176  32915.4  181.119
 7.7596  33209.2  183.18
 7.8016  34908.8  190.027
 7.8436  33982.3  184.161
 7.8856  34189.3  184.336
 7.9276  34903.6  186.641
 7.9696  34915.1  186.984
 8.0116  35842.9  187.986
 8.0536  36159.9  189.074
 8.0956  36955.4  192.333
 8.1376  36762.9  191.305
 8.1796  37014.7  192.506
 8.2216  38145.9  194.141
 8.2636  37997.8  194.018
 8.3056  37645.9  193.891
 8.3476  38969.4  196.588
 8.3896  38437  195.322
 8.4316  38295.2  195.128
 8.4736  38337.9  194.695
 8.5156  37917.7  193.908
 8.5576  37680.6  194.287
 8.5996  37805.9  193.462
 8.6416  37665.5  194.377
 8.6836  37658  194.179
 8.7256  38136.8  194.858
 8.7676  38563.6  198.907
 8.8096  38142  195.071
 8.8516  37249.3  192.387
 8.8936  37782.4  193.64
 8.9356  36630.6  191.025
 8.9776  37208.2  192.623
 9.0196  36493.8  190.437
 9.0616  37097.1  191.46
 9.1036  37650.1  194.1
 9.1456  36470.2  190.388
 9.1876  36378.8  190.102
 9.2296  36722.2  190.393
 9.2716  35794.7  188.037
 9.3136  35921.1  188.349
 9.3556  36340.5  189.433
 9.3976  34611.2  185.396
 9.4396  35403  187.395
 9.4816  34531.3  184.939
 9.5236  34668  185.213
 9.5656  34527.4  185.17
 9.6076  34244.8  184.934
 9.6496  34155.3  184.617
 9.6916  34497.1  185.51
 9.7336  34166.7  184.397
 9.7756  34520.9  186.626
 9.8176  33497  183.335
 9.8596  33487.4  181.749
 9.9016  32956.6  180.296
 9.9436  32834  179.873
 9.9856  32757.1  179.883
 10.0276  32238.8  179.569
 10.0696  32511.9  179.364
 10.1116  31609.2  177.116
 10.1536  31327.7  176.496
 10.1956  30933.6  174.981
 10.2376  30548.3  173.386
 10.2796  30686.1  173.909
 10.3216  30404  173.375
 10.3636  30337.5  173.219
 10.4056  31747.8  177.605
 10.4476  31451.6  176.394
 10.4896  33377.7  181.137
 10.5316  31374.6  176.346
 10.5736  29477  171.347
 10.6156  29136.2  170.118
 10.6576  32167.5  177.234
 10.6996  29262.7  169.709
 10.7416  28645.1  168.155
 10.7836  29298.8  170.767
 10.8256  28364.4  168.454
 10.8676  28516.3  168.435
 10.9096  28102.8  167.247
 10.9516  27850.1  165.412
 10.9936  28116.7  166.401
 11.0356  27928.7  166.494
 11.0776  28179.2  166.533
 11.1196  27773.4  166.087
 11.1616  27327.9  164.441
 11.2036  27525.8  164.883
 11.2456  28311.4  167.953
 11.2876  27013  163.782
 11.3296  26912.3  163.375
 11.3716  27456  164.708
 11.4136  27530.1  165.845
 11.4556  27720.3  166.072
 11.4976  28213.2  166.482
 11.5396  27667.8  165.039
 11.5816  26736.5  162.698
 11.6236  26408.6  161.919
 11.6656  26224.2  160.501
 11.7076  25711.8  159.77
 11.7496  25810.8  164.018
 11.7916  25765.6  159.194
 11.8336  25305.6  158.653
 11.8756  25309  158.193
 11.9176  25378.2  158.07
 11.9596  24876.1  156.684
 12.0016  25079.3  158.123
 12.0436  24664.3  156.229
 12.0856  24390.1  155.884
 12.1276  24800  157.099
 12.1696  24548.7  155.44
 12.2116  25010.7  156.891
 12.2536  25418.8  159.016
 12.2956  24641.2  155.894
 12.3376  24364.6  155.229
 12.3796  24547.5  156.267
 12.4216  24461  155.21
 12.4636  24725.1  156.965
 12.5056  24431.7  155.302
 12.5476  24474.9  154.967
 12.5896  24394.2  155.352
 12.6316  24084.2  154.517
 12.6736  23896.9  154.402
 12.7156  24091.7  154.887
 12.7576  24321.2  155.866
 12.7996  24474  154.992
 12.8416  24413.7  155.862
 12.8836  24927  157.319
 12.9256  24896.9  156.219
 12.9676  24979  156.912
 13.0096  24489.5  156.467
 13.0516  24677.2  156.104
 13.0936  24629  156.355
 13.1356  25121.4  156.88
 13.1776  24653.3  156.4
 13.2196  24731.5  156.309
 13.2616  24763.5  156.722
 13.3036  24660.6  156.369
 13.3456  24707.7  156.873
 13.3876  24812.8  156.49
 13.4296  24659.6  156.158
 13.4716  24775.7  156.131
 13.5136  24879.7  156.619
 13.5556  24755.7  156.841
 13.5976  24817  157.177
 13.6396  25116.5  157.49
 13.6816  24650.3  156.516
 13.7236  25319.2  158.266
 13.7656  24457.8  156.084
 13.8076  25242.7  157.335
 13.8496  24548.1  155.757
 13.8916  24563.6  156.818
 13.9336  24393.4  155.498
 13.9756  24336.7  154.672
 14.0176  24171.8  154.821
 14.0596  24428.9  155.611
 14.1016  23839.5  154.114
 14.1436  23459.2  152.012
 14.1856  23571  152.676
 14.2276  23258.9  152.14
 14.2696  23669.9  153.323
 14.3116  23331  152.125
 14.3536  22756.9  150.418
 14.3956  22648.8  149.786
 14.4376  22914.1  150.435
 14.4796  22729.2  149.821
 14.5216  22498.6  149.867
 14.5636  22327  148.848
 14.6056  22432.5  148.778
 14.6476  22299.8  147.57
 14.6896  21952.1  146.957
 14.7316  21679.3  147.069
 14.7736  21517.7  145.671
 14.8156  21278.8  144.886
 14.8576  21229.3  144.575
 14.8996  20847  144.472
 14.9416  20594.8  143.595
 14.9836  20852.1  144.451
 15.0256  20491.7  142.119
 15.0676  20459.1  142.325
 15.1096  20366.9  141.74
 15.1516  19987.9  140.975
 15.1936  19746.1  139.547
 15.2356  19808.5  140.048
 15.2776  19542.8  138.692
 15.3196  19397.1  139.178
 15.3616  19210  138.26
 15.4036  18993.9  137.338
 15.4456  19453.8  138.641
 15.4876  19022.3  136.774
 15.5296  18779.7  136.185
 15.5716  18551.3  134.954
 15.6136  18465.6  134.971
 15.6556  19141.4  136.64
 15.6976  18573.1  134.899
 15.7396  18508.2  135.048
 15.7816  18476.7  134.438
 15.8236  17986.8  133.346
 15.8656  18042.6  133.342
 15.9076  18065.6  133.256
 15.9496  17747.4  134.869
 15.9916  17639.7  134.911
 16.0336  17479.2  131.168
 16.0756  17690.8  132.267
 16.1176  17358.2  131.088
 16.1596  16824.4  130.229
 16.2016  17252.9  130.622
 16.2436  17053.7  130.252
 16.2856  17110.9  130.01
 16.3276  16578.7  128.389
 16.3696  16996.3  129.807
 16.4116  16681.1  129.066
 16.4536  16976.5  129.985
 16.4956  16931.3  129.548
 16.5376  16612.6  128.499
 16.5796  16697.3  128.187
 16.6216  16493.8  127.711
 16.6636  16533.6  128.021
 16.7056  16502.2  127.767
 16.7476  16830.6  128.553
 16.7896  16447.1  127.837
 16.8316  16610.6  128.431
 16.8736  16694.6  129.012
 16.9156  16603.8  129.003
 16.9576  16296.3  128.612
 16.9996  16387.7  129.465
 17.0416  16498.4  128.243
 17.0836  16173.9  126.733
 17.1256  16068.7  126.332
 17.1676  16170.8  126.722
 17.2096  15885.2  125.478
 17.2516  15797.8  124.906
 17.2936  15667.7  124.719
 17.3356  15411.5  123.707
 17.3776  15660.3  124.89
 17.4196  15423.5  123.637
 17.4616  15519.5  123.939
 17.5036  15668  124.899
 17.5456  15094.2  123.23
 17.5876  15199.8  122.706
 17.6296  15262.4  122.777
 17.6716  15213  123.154
 17.7136  15398.8  124.047
 17.7556  15151.4  123.337
 17.7976  15218.2  123.352
 17.8396  15070.1  122.241
 17.8816  14971.1  122.39
 17.9236  14781.3  121.421
 17.9656  15066  123.126
 18.0076  15281.5  123.574
 18.0496  15512.4  123.619
 18.0916  16953.3  129.783
 18.1336  16107.4  126.63
 18.1756  15540  123.896
 18.2176  15397.4  123.558
 18.2596  15006.9  121.718
 18.3016  15303.4  123.177
 18.3436  15316.1  123.23
 18.3856  14976.6  121.99
 18.4276  14917.2  121.422
 18.4696  14969.5  121.734
 18.5116  14891.4  121.707
 18.5536  14821  121.778
 18.5956  14646.3  120.608
 18.6376  14824.5  121.753
 18.6796  14551.5  119.939
 18.7216  14837.8  121.61
 18.7636  14479.2  120.121
 18.8056  14361  119.573
 18.8476  14264.9  119.798
 18.8896  14303.4  119.295
 18.9316  14565.9  120.369
 18.9736  14463.1  119.637
 19.0156  14411.1  119.832
 19.0576  14492.1  119.016
 19.0996  14564.1  120.034
 19.1416  14269.9  119.204
 19.1836  14243.9  118.7
 19.2256  14142.1  118.492
 19.2676  14319.9  119.323
 19.3096  14364.7  119.763
 19.3516  14207.4  119.062
 19.3936  14219.7  119.014
 19.4356  14131.3  118.512
 19.4776  14323.1  119.411
 19.5196  14036.5  118.059
 19.5616  14146.4  118.782
 19.6036  14220.9  118.586
 19.6456  14268.3  118.908
 19.6876  14474.1  119.403
 19.7296  14280.2  119.058
 19.7716  14171  118.763
 19.8136  14466.8  120.21
 19.8556  14902.1  121.469
 19.8976  14959.3  121.771
 19.9396  14883.3  121.027
 19.9816  14879.9  121.258
 20.0236  14753.9  120.967
 20.0656  14369.2  119.376
 20.1076  13974.6  118.183
 20.1496  14106.2  118.746
 20.1916  13809.2  117.002
 20.2336  13848.6  117.111
 20.2756  13687.9  116.854
 20.3176  13561.1  116.06
 20.3596  13744.9  116.819
 20.4016  13821.6  116.949
 20.4436  13667.6  116.848
 20.4856  13546.6  116.129
 20.5276  13444.9  116.139
 20.5696  13427  115.529
 20.6116  13459.4  115.951
 20.6536  13392.5  115.163
 20.6956  13390.6  115.282
 20.7376  13405.6  115.579
 20.7796  13278.8  114.718
 20.8216  13503.5  115.389
 20.8636  13381  115.231
 20.9056  13807.3  117.006
 20.9476  13338.7  114.843
 20.9896  13705.4  116.275
 21.0316  13440.4  115.039
 21.0736  13356.3  115.203
 21.1156  13401.7  115.564
 21.1576  13285.1  115.1
 21.1996  13227.4  114.837
 21.2416  13104.1  114.126
 21.2836  13134.8  114.225
 21.3256  12958  113.54
 21.3676  13160.7  113.971
 21.4096  13321.8  114.978
 21.4516  13127.7  114.017
 21.4936  12834.4  112.985
 21.5356  13084.8  114.029
 21.5776  13206.1  114.387
 21.6196  13142.7  114.147
 21.6616  13120.2  114.142
 21.7036  13057.9  113.647
 21.7456  13003.8  113.487
 21.7876  12887.1  112.722
 21.8296  12748.3  111.974
 21.8716  12834.1  112.583
 21.9136  13099.1  113.942
 21.9556  12996.4  113.165
 21.9976  12819  112.406
 22.0396  12843.7  112.752
 22.0816  12956.3  113.811
 22.1236  13109.7  113.928
 22.1656  12901.9  113.135
 22.2076  12915.3  112.673
 22.2496  12841  112.379
 22.2916  12830.8  112.21
 22.3336  12904.7  113.271
 22.3756  12978.2  113.31
 22.4176  12781.4  112.303
 22.4596  12638.8  112.263
 22.5016  12897.7  112.886
 22.5436  12997.3  113.208
 22.5856  12954.8  113.272
 22.6276  12806.5  112.764
 22.6696  12902.1  113.54
 22.7116  12794.6  112.574
 22.7536  12691.3  112.094
 22.7956  12791.2  111.86
 22.8376  12756.5  112.234
 22.8796  12626.7  111.462
 22.9216  12788.2  112.721
 22.9636  12808.6  111.956
 23.0056  12813.4  112.111
 23.0476  12994.3  113.479
 23.0896  13196.1  113.726
 23.1316  12887.9  112.83
 23.1736  12649.3  114.737
 23.2156  12806.5  112.796
 23.2576  12687.3  112.393
 23.2996  12694.6  112.222
 23.3416  12537.5  112.036
 23.3836  12733.2  112.138
 23.4256  12780.9  112.472
 23.4676  12682.3  111.731
 23.5096  12593.9  112.015
 23.5516  12636.2  111.483
 23.5936  12595.2  112.201
 23.6356  13056.8  113.911
 23.6776  12717.5  112.635
 23.7196  12350.2  110.568
 23.7616  12667.1  111.895
 23.8036  12604.7  111.658
 23.8456  12632.5  111.356
 23.8876  12405.4  110.703
 23.9296  12369.6  111.032
 23.9716  12511.9  110.861
 24.0136  12610.6  112.197
 24.0556  12253.1  110.338
 24.0976  12255.1  110.15
 24.1396  12330.8  113.174
 24.1816  12337.5  111.6
 24.2236  12122.8  110.238
 24.2656  12121.6  109.705
 24.3076  12064.7  109.705
 24.3496  12244.3  110.403
 24.3916  12127.9  109.924
 24.4336  12054.5  109.801
 24.4756  12131.5  110.018
 24.5176  11942.4  108.806
 24.5596  11871.5  108.611
 24.6016  11647.6  107.867
 24.6436  11768.5  107.91
 24.6856  11877.4  108.173
 24.7276  11897  108.581
 24.7696  11665  107.627
 24.8116  11777.6  108.335
 24.8536  11598.4  107.494
 24.8956  11548.1  107.002
 24.9376  11682.1  107.56
 24.9796  11645.2  107.747
 25.0216  11428.6  106.85
 25.0636  11567.9  107.153
 25.1056  11317.5  106.694
 25.1476  11457.8  109.018
 25.1896  11437.9  107.397
 25.2316  11509.5  106.996
 25.2736  11428.8  106.276
 25.3156  11231.5  105.428
 25.3576  11417.4  106.723
 25.3996  11252.3  105.928
 25.4416  11447.1  106.827
 25.4836  11108  105.755
 25.5256  11221.7  105.657
 25.5676  11225.8  105.401
 25.6096  11055.4  105.174
 25.6516  11147.1  105.109
 25.6936  11162  105.494
 25.7356  11127.9  105.465
 25.7776  11261.3  105.699
 25.8196  11134.6  105.333
 25.8616  11258  105.845
 25.9036  11237.7  105.213
 25.9456  11119.2  105.256
 25.9876  11071  105.09
 26.0296  11181.4  105.124
 26.0716  10964.7  104.519
 26.1136  11365.6  106.357
 26.1556  11331.8  105.563
 26.1976  11066.2  105.257
 26.2396  11107.7  104.601
 26.2816  11155.2  105.443
 26.3236  11063.1  105.164
 26.3656  10941.3  104.306
 26.4076  10912.4  104.386
 26.4496  11453.9  106.446
 26.4916  11053.9  104.552
 26.5336  10925.1  104.26
 26.5756  11492  106.736
 26.6176  10886.2  103.99
 26.6596  10947.5  104.594
 26.7016  10811.1  103.694
 26.7436  10825.7  103.897
 26.7856  10632.2  102.947
 26.8276  10739.2  103.413
 26.8696  10837.6  103.765
 26.9116  10674.3  102.919
 26.9536  10753.2  103.346
 26.9956  10684.1  103.05
 27.0376  10460.9  102.175
 27.0796  10673.8  102.941
 27.1216  10614.3  102.733
 27.1636  10585.1  102.759
 27.2056  10604.7  102.736
 27.2476  10538.9  102.419
 27.2896  10585.9  102.756
 27.3316  10488.8  101.997
 27.3736  10482.7  102.237
 27.4156  10451.8  101.92
 27.4576  10467.6  102.237
 27.4996  10475.2  101.861
 27.5416  10499.7  102.303
 27.5836  10494.8  102.094
 27.6256  10810.4  103.792
 27.6676  10695.3  103.255
 27.7096  10305.7  101.221
 27.7516  10559.9  102.619
 27.7936  10690.6  103.423
 27.8356  10529.2  102.252
 27.8776  10398.5  101.663
 27.9196  10311.9  101.084
 27.9616  10451.2  101.956
 28.0036  10324  101.311
 28.0456  10381.6  101.727
 28.0876  10117.6  100.515
 28.1296  10339.1  101.45
 28.1716  10162.3  100.588
 28.2136  10298.4  101.221
 28.2556  10122.3  100.471
 28.2976  10090.3  100.299
 28.3396  10207.3  100.641
 28.3816  10210.8  100.678
 28.4236  10239.1  100.972
 28.4656  9941.2  99.5299
 28.5076  10044.3  99.6765
 28.5496  10108.2  100.258
 28.5916  10117.3  100.11
 28.6336  9922.76  99.4799
 28.6756  10120.2  99.6636
 28.7176  10004.5  99.6422
 28.7596  9836.05  98.6948
 28.8016  9974.73  99.4258
 28.8436  9867.48  99.1319
 28.8856  9912.45  99.2071
 28.9276  9978.24  99.7861
 28.9696  9877.28  98.9332
 29.0116  10012.1  99.8001
 29.0536  9799.27  98.9244
 29.0956  9848.65  98.8946
 29.1376  9847.12  98.8512
 29.1796  9848.11  98.9023
 29.2216  9764.25  98.3208
 29.2636  9758.89  98.3696
 29.3056  9813.01  98.4314
 29.3476  9791.72  98.8512
 29.3896  9851.96  99.2381
 29.4316  9906.76  98.8622
 29.4736  9828.17  98.5314
 29.5156  9915.52  98.8897
 29.5576  9804.66  99.0813
 29.5996  9792.11  98.2713
 29.6416  9713.01  97.9929
 29.6836  9763.49  98.1704
 29.7256  9797.95  98.9154
 29.7676  9897.38  99.0735
 29.8096  9730.06  98.1758
 29.8516  9606.62  97.8808
 29.8936  9621.37  98.0535
 29.9356  9890.4  99.1658
 29.9776  9684.19  98.2807
 30.0196  9785.95  98.1702
 30.0616  9780.91  98.5304
 30.1036  9742.94  98.1634
 30.1456  9616.45  97.7566
 30.1876  9677.96  98.049
 30.2296  9622.11  97.712
 30.2716  9680.33  97.6417
 30.3136  9757.08  98.8964
 30.3556  9755.07  98.8979
 30.3976  9554.38  99.3953
 30.4396  9709.14  97.508
 30.4816  9696.49  97.0462
 30.5236  9572.17  96.4344
 30.5656  9649.36  97.4841
 30.6076  9607.66  96.702
 30.6496  9737.9  97.7441
 30.6916  9440.95  96.3335
 30.7336  9595.38  97.2724
 30.7756  9512.42  96.9437
 30.8176  9521.37  96.9048
 30.8596  9547.03  96.7987
 30.9016  9402.71  96.409
 30.9436  9572.95  97.027
 30.9856  9448.93  96.5095
 31.0276  9484.02  96.2954
 31.0696  9410.22  96.4927
 31.1116  9275.76  95.7795
 31.1536  9587.38  97.2572
 31.1956  9358.56  96.1769
 31.2376  9328.75  96.0313
 31.2796  9374.02  95.8006
 31.3216  9381.67  95.7863
 31.3636  9402.22  96.5853
 31.4056  9363.09  97.6888
 31.4476  9376.92  95.658
 31.4896  9421.5  96.3918
 31.5316  9483.8  96.1048
 31.5736  9624.53  96.6366
 31.6156  9582.55  96.4426
 31.6576  9475.18  95.9994
 31.6996  9504.6  95.8075
 31.7416  9342.85  96.062
 31.7836  9344.63  95.0817
 31.8256  9219.25  94.7117
 31.8676  9484.15  96.0597
 31.9096  9211.44  95.0238
 31.9516  9076.97  94.4896
 31.9936  9232.06  95.1193
 32.0356  9314.06  95.5979
 32.0776  9328.4  95.564
 32.1196  9377.14  95.8905
 32.1616  9331.55  95.126
 32.2036  9121.94  94.5591
 32.2456  9070.32  94.6723
 32.2876  9208.57  94.8857
 32.3296  9153.9  94.5679
 32.3716  9198.55  94.9039
 32.4136  9137.35  94.8024
 32.4556  9315.41  95.0908
 32.4976  9190.44  94.3534
 32.5396  9237.74  94.673
 32.5816  9015.78  93.6484
 32.6236  9212.45  94.7406
 32.6656  9227.3  95.3573
 32.7076  9105.98  94.3761
 32.7496  9098.98  94.0161
 32.7916  9129.04  94.128
 32.8336  8984.72  93.4764
 32.8756  9235.98  94.4937
 32.9176  8903.97  93.2493
 32.9596  9097.84  94.3432
 33.0016  9116.26  94.2347
 33.0436  9134.95  94.5008
 33.0856  8993.34  93.8363
 33.1276  9033.57  93.7772
 33.1696  9087.38  93.9037
 33.2116  9136.93  94.3874
 33.2536  9096.52  94.1748
 33.2956  9094.63  94.2505
 33.3376  8992.11  93.4538
 33.3796  9126.83  94.3613
 33.4216  9078.9  93.7076
 33.4636  9067.89  93.8037
 33.5056  8858.41  92.9406
 33.5476  8931.09  93.32
 33.5896  9071.89  93.8203
 33.6316  8850.77  92.986
 33.6736  8780.8  92.8662
 33.7156  8785.39  92.9376
 33.7576  8901.84  93.1771
 33.7996  9049.83  93.7004
 33.8416  8787.23  92.527
 33.8836  8826.63  92.5021
 33.9256  8989.08  93.4184
 33.9676  8877.87  92.7306
 34.0096  8655.66  91.8796
 34.0516  8726.52  91.8939
 34.0936  8840.38  92.7581
 34.1356  8812.3  92.3509
 34.1776  8758.56  92.0826
 34.2196  8634.4  91.6034
 34.2616  8737.94  92.2888
 34.3036  8791.21  92.8204
 34.3456  8708.87  92.1393
 34.3876  8627.42  91.672
 34.4296  8689.9  91.6877
 34.4716  8909.11  92.9956
 34.5136  8704.7  92.1167
 34.5556  8775.53  92.7541
 34.5976  8828.81  92.8311
 34.6396  8699.03  91.8553
 34.6816  8692.68  91.9372
 34.7236  8788.9  92.2302
 34.7656  8691.22  91.911
 34.8076  8648.95  92.0069
 34.8496  8667.2  91.9656
 34.8916  8644.6  91.7186
 34.9336  8781.6  92.4098
 34.9756  8763.42  92.2266
 35.0176  8845  93.1948
 35.0596  8538.89  91.3945
 35.1016  8703.98  92.0406
 35.1436  8829.39  92.3827
 35.1856  8567.69  91.1299
 35.2276  8669.12  91.8473
 35.2696  8550.9  91.4055
 35.3116  8671.67  92.1487
 35.3536  8530.66  91.1032
 35.3956  8465.02  90.4587
 35.4376  8509.78  91.2485
 35.4796  8548.47  91.5192
 35.5216  8470.17  91.0571
 35.5636  8410.33  91.4826
 35.6056  8581.65  91.4181
 35.6476  8496.76  90.8639
 35.6896  8581.97  91.4078
 35.7316  8495.73  90.9111
 35.7736  8457.7  90.9162
 35.8156  8450.46  90.8693
 35.8576  8386.18  90.779
 35.8996  8538.64  91.5642
 35.9416  8433.53  90.51
 35.9836  8477.81  91.0921
 36.0256  8602.38  91.7809
 36.0676  8492.31  90.9502
 36.1096  8484.17  91.0419
 36.1516  8556.95  91.321
 36.1936  8515.61  90.9401
 36.2356  8481.87  91.415
 36.2776  8436.37  90.6467
 36.3196  8423  90.2393
 36.3616  8472.72  90.6407
 36.4036  8375.35  90.1773
 36.4456  8457.03  90.8261
 36.4876  8427.51  90.608
 36.5296  8528.1  91.1839
 36.5716  8481.86  91.7288
 36.6136  8565.36  90.9329
 36.6556  8481.65  90.6932
 36.6976  8229.06  89.8287
 36.7396  8382.24  90.3925
 36.7816  8374.94  90.7274
 36.8236  8414.61  90.8659
 36.8656  8450.33  91.1346
 36.9076  8280.65  90.0875
 36.9496  8305.6  90.2087
 36.9916  8378.89  90.2353
 37.0336  8476.68  91.0781
 37.0756  8397.3  90.4418
 37.1176  8189.84  89.5867
 37.1596  8386.02  90.6561
 37.2016  8306.4  90.4557
 37.2436  8420.63  90.384
 37.2856  8367.68  90.3557
 37.3276  8266.83  89.1593
 37.3696  8217.59  89.7806
 37.4116  8328.88  90.2856
 37.4536  8173.05  89.3109
 37.4956  8184.29  89.4178
 37.5376  8283.32  91.5213
 37.5796  8112.97  90.5213
 37.6216  8140.42  88.9344
 37.6636  8145.96  88.8774
 37.7056  8202.19  89.3769
 37.7476  8253.02  89.1855
 37.7896  8134.96  89.049
 37.8316  7941.16  88.1508
 37.8736  8270.91  89.4789
 37.9156  8129.22  88.7099
 37.9576  8232.18  89.1547
 37.9996  8032.38  87.7913
 38.0416  8000.2  88.4233
 38.0836  8118.72  88.968
 38.1256  8194.92  89.3535
 38.1676  8078.77  88.8538
 38.2096  8091.63  88.5489
 38.2516  8230.25  89.5087
 38.2936  8201.13  89.1498
 38.3356  8272.86  89.4506
 38.3776  8163.28  89.1359
 38.4196  8164.26  88.9927
 38.4616  8134.61  89.0691
 38.5036  8138.25  88.9321
 38.5456  8014.31  89.0951
 38.5876  8155.55  89.901
 38.6296  8000.73  88.0233
 38.6716  7990.46  87.7571
 38.7136  7934.25  87.3923
 38.7556  7948.73  87.9756
 38.7976  7928.05  87.7997
 38.8396  7892.21  88.053
 38.8816  7925.71  88.0103
 38.9236  7807.03  87.1711
 38.9656  7971.75  87.999
 39.0076  7903.49  87.0304
 39.0496  7981.27  87.9994
 39.0916  8055.61  88.0443
 39.1336  8017.74  88.2593
 39.1756  8096.57  88.7626
 39.2176  7992.79  88.7254
 39.2596  8048.02  88.9504
 39.3016  8004.28  88.2638
 39.3436  7859.46  87.901
 39.3856  8007.42  88.1682
 39.4276  7941.03  88.2972
 39.4696  8088.74  88.7376
 39.5116  7889.67  88.151
 39.5536  8076.89  89.622
 39.5956  8078.16  88.7181
 39.6376  8098.53  88.8383
 39.6796  8059.46  88.3543
 39.7216  8111.42  88.742
 39.7636  7968.01  88.5287
 39.8056  8017.14  88.5804
 39.8476  7920.55  88.2992
 39.8896  8060.2  88.6977
 39.9316  7982.95  88.5298
 39.9736  8133.7  88.9238
 40.0156  8034.21  88.1977
 40.0576  7961.11  88.1597
 40.0996  8069.58  87.9364
 40.1416  8101.21  88.9106
 40.1836  8086.36  88.714
 40.2256  8015.39  88.3731
 40.2676  8005.72  88.4195
 40.3096  8060.83  88.6541
 40.3516  8135.9  89.1717
 40.3936  8098.83  88.5277
 40.4356  8052.52  88.4646
 40.4776  8125.88  89.2872
 40.5196  8133.5  89.4545
 40.5616  8124.88  89.0496
 40.6036  7928.4  88.2192
 40.6456  8180.82  89.2201
 40.6876  8117.1  88.8555
 40.7296  8113.97  88.979
 40.7716  8140.53  89.2564
 40.8136  8001.96  88.4343
 40.8556  8062.3  88.8959
 40.8976  8027.19  88.626
 40.9396  7943.41  88.5116
 40.9816  8046.11  88.3626
 41.0236  8100.12  88.4396
 41.0656  8041.35  88.6499
 41.1076  8107.7  88.7913
 41.1496  8073.31  88.5128
 41.1916  8045.04  88.6861
 41.2336  7977.36  88.2952
 41.2756  8110.7  88.633
 41.3176  8054.67  88.9445
 41.3596  8051.48  88.6522
 41.4016  8075.96  89.0552
 41.4436  8087.03  88.8974
 41.4856  8058.73  88.9054
 41.5276  7956.54  88.3617
 41.5696  7992.93  88.1958
 41.6116  7935.43  88.2712
 41.6536  8033.79  88.6729
 41.6956  8016.02  88.6251
 41.7376  8024.77  88.7061
 41.7796  7911.06  87.961
 41.8216  8061.39  89.0289
 41.8636  8057.57  88.9448
 41.9056  8017.17  88.5081
 41.9476  8056.74  88.9668
 41.9896  8005.39  88.3439
 42.0316  8057.77  88.7169
 42.0736  8010.69  88.5701
 42.1156  7917.76  87.892
 42.1576  8034.04  88.6366
 42.1996  7980.44  88.4812
 42.2416  8020.87  88.2852
 42.2836  7951.98  88.0189
 42.3256  7813.44  87.3593
 42.3676  8040.11  88.4239
 42.4096  7979.69  88.0515
 42.4516  7937.7  87.9086
 42.4936  7974.53  88.1823
 42.5356  7950.55  88.1847
 42.5776  8009.21  88.4497
 42.6196  8046.36  88.7061
 42.6616  7767.28  87.3257
 42.7036  7990.35  87.9472
 42.7456  7993.51  88.3213
 42.7876  7916.4  87.9969
 42.8296  7969.23  88.1219
 42.8716  7818.62  87.4462
 42.9136  7835.4  87.3285
 42.9556  7893.74  87.7774
 42.9976  7917.19  87.8836
 43.0396  7922.82  87.6421
 43.0816  7818.67  87.4336
 43.1236  7957.59  88.2752
 43.1656  7880.78  87.6743
 43.2076  7809.1  87.3769
 43.2496  7841.75  87.3753
 43.2916  7807.42  87.5532
 43.3336  7808.97  87.3963
 43.3756  7819.4  87.2113
 43.4176  7749.51  86.9021
 43.4596  7674.75  86.3375
 43.5016  7847.42  87.7134
 43.5436  7808.82  87.3913
 43.5856  7699.61  86.8079
 43.6276  7748.98  86.9818
 43.6696  7644.31  86.648
 43.7116  7833.25  87.2067
 43.7536  7775.28  87.3793
 43.7956  7632.77  87.7553
 43.8376  7677.64  86.555
 43.8796  7636.48  86.4045
 43.9216  7766.28  87.0563
 43.9636  7717.58  86.8912
 44.0056  7620.57  86.5739
 44.0476  7679.41  86.537
 44.0896  7662.37  86.7855
 44.1316  7550.45  85.6751
 44.1736  7598.38  86.0736
 44.2156  7701.94  86.5008
 44.2576  7684.04  86.7368
 44.2996  7699.82  86.7893
 44.3416  7683.21  86.4622
 44.3836  7585.47  86.2382
 44.4256  7602.11  85.9621
 44.4676  7412.4  85.0451
 44.5096  7622.38  86.3896
 44.5516  7565.76  86.0248
 44.5936  7535.14  85.811
 44.6356  7631.53  86.0967
 44.6776  7553.44  85.9734
 44.7196  7541.42  86.2116
 44.7616  7527.54  87.4612
 44.8036  7482.24  85.6207
 44.8456  7518.47  86.031
 44.8876  7452.05  85.5019
 44.9296  7596.46  85.7796
 44.9716  7516.04  85.7535
 45.0136  7600.31  86.1676
 45.0556  7562.66  85.9263
 45.0976  7511.7  85.8007
 45.1396  7415.76  85.0184
 45.1816  7472.17  85.2673
 45.2236  7550.85  85.6167
 45.2656  7407.63  85.3004
 45.3076  7457.69  85.3745
 45.3496  7386.87  85.2639
 45.3916  7420.88  85.7284
 45.4336  7461.17  85.8048
 45.4756  7448.25  85.5921
 45.5176  7436.95  85.1401
 45.5596  7487.02  85.5489
 45.6016  7467.71  85.8584
 45.6436  7430.8  84.8227
 45.6856  7326.15  84.8791
 45.7276  7268.59  85.8549
 45.7696  7310.39  85.7663
 45.8116  7395.1  85.7042
 45.8536  7276.46  84.912
 45.8956  7516.36  85.6478
 45.9376  7467.3  84.8307
 45.9796  7377.45  84.9972
 46.0216  7384.17  85.3831
 46.0636  7470.66  85.0234
 46.1056  7415.92  84.6959
 46.1476  7399.77  85.1968
 46.1896  7369.56  85.1712
 46.2316  7297.49  84.6262
 46.2736  7300.59  85.0073
 46.3156  7383.91  85.0774
 46.3576  7391.99  85.3256
 46.3996  7275.84  84.8134
 46.4416  7366.61  84.9209
 46.4836  7290.78  84.8299
 46.5256  7365.34  85.2043
 46.5676  7247.95  84.632
 46.6096  7318.42  84.9867
 46.6516  7308.13  83.9717
 46.6936  7429.11  85.1544
 46.7356  7403.2  85.1071
 46.7776  7167.37  84.5786
 46.8196  7315.71  85.0427
 46.8616  7188.09  84.244
 46.9036  7175.38  83.8379
 46.9456  7250.78  83.9154
 46.9876  7339.56  84.5041
 47.0296  7239.16  84.6102
 47.0716  7096.14  83.5982
 47.1136  7109.42  83.3538
 47.1556  7184.31  83.6665
 47.1976  7260.14  84.177
 47.2396  7131.91  83.835
 47.2816  7097.86  83.3389
 47.3236  7246.86  84.5789
 47.3656  7233.5  84.432
 47.4076  7074.79  83.306
 47.4496  7097.25  83.5278
 47.4916  7163.18  84.1039
 47.5336  7215.26  84.2272
 47.5756  7186.86  84.177
 47.6176  7097.29  83.5491
 47.6596  7114.45  83.369
 47.7016  7152.55  83.4087
 47.7436  7193.07  83.9782
 47.7856  7166.65  83.8467
 47.8276  7158.72  83.8421
 47.8696  7160.19  83.9403
 47.9116  7216.49  83.9909
 47.9536  7136.52  83.4647
 47.9956  7003.28  83.384
 48.0376  6945.43  82.8152
 48.0796  7095.48  83.8294
 48.1216  7146.3  83.9485
 48.1636  7252.86  84.1504
 48.2056  7142.45  83.7714
 48.2476  7179.41  84.2947
 48.2896  7026.27  83.2929
 48.3316  7074.96  83.5323
 48.3736  7058.86  83.4605
 48.4156  6950.07  82.6692
 48.4576  7059.95  83.612
 48.4996  7073.74  83.155
 48.5416  7052.89  83.3529
 48.5836  7057.25  83.0597
 48.6256  7116.64  83.5981
 48.6676  7027.62  83.5918
 48.7096  6986.6  82.634
 48.7516  7007.78  82.9035
 48.7936  6962.8  82.699
 48.8356  7058.76  83.3151
 48.8776  7008.54  83.5875
 48.9196  7152.56  83.8042
 48.9616  6937.03  82.9183
 49.0036  7001.92  83.6445
 49.0456  6900.09  83.0122
 49.0876  7059.82  83.51
 49.1296  6890.96  82.6586
 49.1716  6849.59  82.2943
 49.2136  6989.99  83.056
 49.2556  6986.46  83.0632
 49.2976  6966.06  83.0133
 49.3396  6881.99  82.5626
 49.3816  7093.46  83.2567
 49.4236  6991.57  83.0749
 49.4656  6869.15  82.3611
 49.5076  7012.58  82.9688
 49.5496  6939.86  82.6031
 49.5916  6967.49  82.6682
 49.6336  6859.14  82.2408
 49.6756  6913.49  82.7915
 49.7176  6907.38  82.6979
 49.7596  6910.83  82.4873
 49.8016  6959.17  82.692
 49.8436  6900.19  82.6398
 49.8856  6932.64  82.836
 49.9276  6757.6  81.8848
 49.9696  6874.26  82.5692
 50.0116  6909.49  82.9189
 50.0536  6891.57  82.7549
 50.0956  6722.42  81.8008
 50.1376  6905.73  82.6105
 50.1796  6807.94  82.2909
 50.2216  6849.03  82.5329
 50.2636  6833.78  82.0628
 50.3056  6813.99  82.1172
 50.3476  6826.02  82.2119
 50.3896  6812.09  82.0986
 50.4316  6945.44  82.7326
 50.4736  6819.07  82.1927
 50.5156  6760.92  81.8364
 50.5576  6856.78  82.1732
 50.5996  6810.46  82.1743
 50.6416  6719.84  81.5565
 50.6836  6724.83  81.6439
 50.7256  6757.24  81.7561
 50.7676  6781.1  82.2229
 50.8096  6793.78  81.846
 50.8516  6728.97  81.8644
 50.8936  6640.48  81.1121
 50.9356  6863.21  82.5642
 50.9776  6771.16  82.1603
 51.0196  6669.42  81.669
 51.0616  6642.29  80.8301
 51.1036  6795.08  82.1143
 51.1456  6719.89  81.572
 51.1876  6775.94  81.2576
 51.2296  6768.31  81.8463
 51.2716  6647.47  80.816
 51.3136  6706.36  81.6323
 51.3556  6689.88  81.1559
 51.3976  6635.37  80.9759
 51.4396  6556.3  80.7919
 51.4816  6635.51  81.1324
 51.5236  6653.69  81.33
 51.5656  6609.57  80.6673
 51.6076  6713.6  81.3823
 51.6496  6715.46  81.5827
 51.6916  6628.09  81.4053
 51.7336  6556.43  81.0511
 51.7756  6635.46  81.2386
 51.8176  6559.71  80.8763
 51.8596  6675.36  81.607
 51.9016  6713.01  81.4452
 51.9436  6580.64  82.0718
 51.9856  6577.48  82.4852
 52.0276  6580.24  81.0263
 52.0696  6543.58  80.8629
 52.1116  6698.4  81.9305
 52.1536  6543.65  80.8687
 52.1956  6635.81  80.8985
 52.2376  6624.2  81.006
 52.2796  6488.32  79.9832
 52.3216  6308.52  79.5387
 52.3636  6569.1  80.746
 52.4056  6494.42  80.1466
 52.4476  6564.94  80.9447
 52.4896  6437.46  80.2055
 52.5316  6481.01  80.5189
 52.5736  6610.82  81.0489
 52.6156  6566.52  81.1536
 52.6576  6551.71  80.4969
 52.6996  6327.48  80.0736
 52.7416  6546.31  81.3041
 52.7836  6500.97  80.9067
 52.8256  6564.26  80.5118
 52.8676  6303.23  79.4687
 52.9096  6553.86  81.1095
 52.9516  6506.94  81.1982
 52.9936  6428.07  81.0891
 53.0356  6444.65  80.2058
 53.0776  6361.64  79.9441
 53.1196  6303.64  79.705
 53.1616  6374.87  80.2008
 53.2036  6312.6  79.7664
 53.2456  6373.36  80.2469
 53.2876  6319.87  79.6197
 53.3296  6216.35  79.2848
 53.3716  6474.43  80.6604
 53.4136  6407.85  80.3938
 53.4556  6278.18  79.6043
 53.4976  6309.85  79.6549
 53.5396  6460.9  80.9968
 53.5816  6364.56  80.0255
 53.6236  6277.88  79.8161
 53.6656  6474.82  80.6888
 53.7076  6423.66  80.3301
 53.7496  6416.78  80.4027
 53.7916  6503.73  81.0703
 53.8336  6252.21  79.3906
 53.8756  6288.54  80.1688
 53.9176  6324.87  79.75
 53.9596  6336.36  80.5737
 54.0016  6298.49  79.6773
 54.0436  6355.79  80.2532
 54.0856  6456.6  80.3131
 54.1276  6305.48  79.5606
 54.1696  6413.4  80.4154
 54.2116  6457.96  80.4504
 54.2536  6289.16  79.2122
 54.2956  6403.62  79.9742
 54.3376  6275.04  79.6458
 54.3796  6325.19  79.8658
 54.4216  6396.03  80.3536
 54.4636  6352.27  80.0399
 54.5056  6367.13  79.9562
 54.5476  6259.87  79.6113
 54.5896  6370.29  80.1461
 54.6316  6335.45  79.7791
 54.6736  6347  79.9271
 54.7156  6367.66  80.079
 54.7576  6193.05  78.9675
 54.7996  6315.91  79.8846
 54.8416  6291.22  79.7815
 54.8836  6239.34  79.5578
 54.9256  6403.7  80.3504
 54.9676  6341.48  79.8143
 55.0096  6242.82  79.2592
 55.0516  6302.59  79.8711
 55.0936  6280.66  79.3568
 55.1356  6228.71  79.0813
 55.1776  6322.38  79.9382
 55.2196  6317.87  79.6933
 55.2616  6282.45  79.6823
 55.3036  6269.44  79.7591
 55.3456  6261.66  79.8571
 55.3876  6321.58  79.983
 55.4296  6280.09  79.6939
 55.4716  6239.68  79.4749
 55.5136  6336.55  79.8458
 55.5556  6243.39  79.3264
 55.5976  6231.47  79.3098
 55.6396  6208.83  79.1115
 55.6816  6332.73  79.7717
 55.7236  6189.58  78.9001
 55.7656  6329.02  79.5478
 55.8076  6339.91  79.6001
 55.8496  6292.67  79.6244
 55.8916  6199.75  79.2361
 55.9336  6228.66  79.2371
 55.9756  6175.29  78.7876
 56.0176  6290.08  79.6711
 56.0596  6270.31  79.5278
 56.1016  6186.56  79.0083
 56.1436  6194.44  79.3149
 56.1856  6249.06  79.4051
 56.2276  6158.83  78.8812
 56.2696  6191.03  79.0716
 56.3116  6110.52  78.9494
 56.3536  6260.19  79.5706
 56.3956  6271.9  79.6363
 56.4376  6236.91  79.4458
 56.4796  6290.17  79.5857
 56.5216  6260  79.7709
 56.5636  6253.06  79.3161
 56.6056  6215.2  79.3057
 56.6476  6286.41  79.3845
 56.6896  6271.88  79.7429
 56.7316  6245.84  79.494
 56.7736  6145.8  78.8466
 56.8156  6258.22  79.5604
 56.8576  6200.86  79.1392
 56.8996  6214.98  79.168
 56.9416  6241.23  79.6356
 56.9836  6171.05  78.6975
 57.0256  6147.62  78.8677
 57.0676  6203.88  79.3492
 57.1096  6245.4  79.4059
 57.1516  6273.94  79.6488
 57.1936  6161.36  78.6779
 57.2356  6212.75  79.3289
 57.2776  6187.61  79.1279
 57.3196  6213.47  79.662
 57.3616  6170.61  78.8787
 57.4036  6222.01  79.2673
 57.4456  6161.39  78.8443
 57.4876  6178.92  78.8138
 57.5296  6117.63  78.7603
 57.5716  6139.84  78.9001
 57.6136  6182.33  78.9858
 57.6556  6204.19  79.2653
 57.6976  6302.84  79.7216
 57.7396  6123.6  78.9492
 57.7816  6146.28  79.4538
 57.8236  6128.1  79.1308
 57.8656  6179.31  79.1159
 57.9076  6149.52  78.9524
 57.9496  6188.75  79.5586
 57.9916  6176.03  78.9848
 58.0336  6158.26  79.1495
 58.0756  6121.35  78.5468
 58.1176  6295.5  79.6454
 58.1596  6059.61  78.7139
 58.2016  6142.05  78.4655
 58.2436  6168.22  79.0519
 58.2856  6224.18  79.3254
 58.3276  6185.72  79.4563
 58.3696  6133.66  78.8718
 58.4116  6231.53  79.3591
 58.4536  6281.25  79.5619
 58.4956  6323.37  80.0123
 58.5376  6246.5  79.0907
 58.5796  6162.95  78.9853
 58.6216  6188.1  78.9625
 58.6636  6204.35  79.2818
 58.7056  6298.45  79.7315
 58.7476  6216.82  79.6611
 58.7896  6146.39  78.8488
 58.8316  6120.4  78.6835
 58.8736  6174.55  79.0366
 58.9156  6182.58  79.1381
 58.9576  6228.3  79.7511
 58.9996  6326.75  79.6025
 59.0416  6345.61  80.0928
 59.0836  6239.46  79.352
 59.1256  6135.19  79.3887
 59.1676  6154.4  79.8275
 59.2096  6183.75  79.3136
 59.2516  6338.79  79.8726
 59.2936  6216.83  79.4333
 59.3356  6254.08  79.5465
 59.3776  6054.94  78.439
 59.4196  6041.28  78.2839
 59.4616  6128.15  78.7063
 59.5036  6160.22  78.9461
 59.5456  6388.04  80.0789
 59.5876  6249.76  79.4018
 59.6296  6221.87  79.2947
 59.6716  6196.85  79.1938
 59.7136  6110.76  78.63
 59.7556  6265.75  79.7599
 59.7976  6208.09  79.1307
 59.8396  6279.61  79.4774
 59.8816  6163.34  79.2869
 59.9236  6276.95  79.6533
 59.9656  6153.76  79.129
 60.0076  6253.87  79.118
 60.0496  6174.62  79.1243
 60.0916  6224.41  78.8522
 60.1336  6078.88  79.0358
 60.1756  6409.15  82.3744
 60.1996  0.0000000E+00  0.0000000E+00