File: docs/examples/opeando_xrd/IS17_D/Data/IS17_D/17_Db_f00101.xye
# /beamlines/bl04/projects/cycle2025-II/20250340211-lsimonelli/DATA/IS17_D/17_Db_f00101.xye : mythproc.py merge -s 0.006 -l 0.5 -f /beamlines/bl04/inhouse/ff/FlatField/ff_20Nov2024rod8mm60s_17keV.raw -b True -c true -o xye /beamlines/bl04/projects/cycle2025-II/20250340211-lsimonelli/DATA/IS17_D/17_Db_00101.dat
# IsMon = [6751507, 6750737, 6754599]  IsPos = [-1.5000, -2.4884, -3.4988]
# Wave = 0.4962  CalPath /beamlines/bl04/projects/cycle2025-II/20250340211-lsimonelli/DATA/Align/Si_Pos1_25keV_f00001.cal
# Date = 2025-09-24_21:50:35 Dt = 4.8000  Bin = 0.0060  <imon> = 6752281 +/- 1669 (Min/Max) 6750737 / 6754599
# icurr 250.0390  mocoIn 1.7054E-05  mocoOut 0.8001  i15 7.07945e+06  imon 6.75228e+06  i7 7.0000  iEMpd_timer 4.8000  iEMpd_1 3.3775E-08  iEMpd_2 7.7746E-08  iEMpd_3 1.8429E-08  iEMpd_4 4.8487E-08  iEMhp_timer 4.8000  iEMhp_1 4.8830E-06  iEMhp_2 -2.5612E-08  iEMhp_3 -2.4149E-08  iEMhp_4 -2.1721E-08
#      9776
 1.5856  44699.6  217.11
 1.6276  51461.6  228.956
 1.6696  56822.3  239.738
 1.7116  64219.9  255.364
 1.7536  71725.9  268.726
 1.7956  76011.9  277.33
 1.8376  72815.4  271.866
 1.8796  62930.5  250.883
 1.9216  51755.9  228.425
 1.9636  45210.7  213.156
 2.0056  41039.6  201.788
 2.0476  38178.7  196.761
 2.0896  37178.2  193.027
 2.1316  36055  189.175
 2.1736  33732  184.431
 2.2156  34893.9  186.075
 2.2576  33451.7  182.843
 2.2996  32331.5  180.415
 2.3416  32795.6  180.254
 2.3836  31849.4  177.745
 2.4256  31275.2  176.709
 2.4676  30739.2  174.94
 2.5096  30399.8  174.029
 2.5516  29014.1  173.91
 2.5936  29226.2  171.054
 2.6356  28769.6  170.435
 2.6776  28526.9  168.594
 2.7196  28253.3  168.272
 2.7616  28240.5  168.024
 2.8036  27558.3  166.148
 2.8456  27706.9  167.253
 2.8876  26962.7  164.848
 2.9296  26761.1  164.366
 2.9716  26391.6  162.71
 3.0136  26240.6  162.303
 3.0556  26081.8  162.21
 3.0976  26162.5  161.345
 3.1396  25692  160.622
 3.1816  25532.1  160.065
 3.2236  25289.8  159.29
 3.2656  24947.3  157.256
 3.3076  24926.8  158.686
 3.3496  24985.8  157.776
 3.3916  25632.5  159.627
 3.4336  25729.9  160.521
 3.4756  26079.7  161.547
 3.5176  26724.6  163.302
 3.5596  26369.9  165.246
 3.6016  26560.7  162.858
 3.6436  25604.3  161.014
 3.6856  25519.9  159.028
 3.7276  24314.7  156.319
 3.7696  24221.3  155.985
 3.8116  23873  154.972
 3.8536  23919  155.049
 3.8956  23760.6  154.354
 3.9376  23692.1  154.404
 3.9796  23575.7  153.504
 4.0216  23701.2  152.951
 4.0636  23557.1  153.953
 4.1056  23446.9  153.25
 4.1476  23952.3  155.208
 4.1896  24010.6  155.248
 4.2316  24073.2  155.276
 4.2736  24436.5  156.246
 4.3156  24608.6  157.024
 4.3576  25339.7  159.237
 4.3996  25536  160.143
 4.4416  26131.5  161.575
 4.4836  26552.3  163.037
 4.5256  27201.7  165.627
 4.5676  26978.9  165.207
 4.6096  27327.4  165.286
 4.6516  27869.1  166.244
 4.6936  27964  167.352
 4.7356  28169.3  167.792
 4.7776  27918.9  166.871
 4.8196  28064.1  167.955
 4.8616  27226.8  164.933
 4.9036  27222.3  164.642
 4.9456  27064.6  164.82
 4.9876  26269.7  162.287
 5.0296  26577.4  163.07
 5.0716  26319  163.027
 5.1136  26588.6  163.585
 5.1556  26743  163.517
 5.1976  27430.3  165.591
 5.2396  27633.4  165.888
 5.2816  27377.1  165.604
 5.3236  27120.7  164.523
 5.3656  27039.7  165.208
 5.4076  26676.3  164.231
 5.4496  26609.7  163.525
 5.4916  26808.6  163.886
 5.5336  26716  163.612
 5.5756  26898.1  164.184
 5.6176  26963.9  163.825
 5.6596  27185.4  165.321
 5.7016  27148.7  164.636
 5.7436  27333.2  165.474
 5.7856  27112.3  164.868
 5.8276  27300.8  165.153
 5.8696  27675  166.346
 5.9116  27582.4  166.777
 5.9536  28007.6  167.801
 5.9956  28060.3  167.342
 6.0376  28121.4  168.145
 6.0796  28325.9  168.588
 6.1216  28230.2  168.505
 6.1636  28322.8  167.831
 6.2056  28347  168.585
 6.2476  28707  169.338
 6.2896  28921.1  169.832
 6.3316  28836.4  169.76
 6.3736  28842.6  169.662
 6.4156  28823.2  169.56
 6.4576  29075.7  169.856
 6.4996  29213.5  170.739
 6.5416  29314.7  171.171
 6.5836  29085  170.733
 6.6256  29444.3  171.34
 6.6676  29762.2  171.834
 6.7096  29835.2  172.904
 6.7516  30089.4  173.296
 6.7936  30273.3  173.219
 6.8356  30569.3  174.163
 6.8776  30502.5  174.779
 6.9196  30830  176.113
 6.9616  31042.5  176.167
 7.0036  31308.1  176.568
 7.0456  31438.2  176.233
 7.0876  31649.6  178.431
 7.1296  31519.7  177.285
 7.1716  31336.7  176.31
 7.2136  31033.6  175.24
 7.2556  31369.3  176.337
 7.2976  31426.5  176.993
 7.3396  31118.1  176.346
 7.3816  31140.8  176.619
 7.4236  31709.2  177.52
 7.4656  31709.5  176.972
 7.5076  31867.2  177.58
 7.5496  31555.1  177.234
 7.5916  31770.1  177.89
 7.6336  32374  179.448
 7.6756  32240.3  178.926
 7.7176  32797.9  180.799
 7.7596  32590.5  181.449
 7.8016  33179.2  185.297
 7.8436  32630.9  180.453
 7.8856  32964.3  180.986
 7.9276  33404.5  182.579
 7.9696  33648.5  183.559
 8.0116  34722.3  185.023
 8.0536  34697  185.205
 8.0956  34597.6  186.107
 8.1376  34843.8  186.241
 8.1796  35529.4  188.601
 8.2216  36143  188.971
 8.2636  36055.5  188.99
 8.3056  36042.2  189.706
 8.3476  36757.4  190.921
 8.3896  36556.6  190.476
 8.4316  36627.8  190.826
 8.4736  36461.8  189.873
 8.5156  36276.4  189.661
 8.5576  36035.1  189.994
 8.5996  35954  188.665
 8.6416  36097.9  190.294
 8.6836  35620  188.849
 8.7256  35943  189.177
 8.7676  35905.8  191.947
 8.8096  36604.5  191.113
 8.8516  36418.1  190.254
 8.8936  35693.4  188.252
 8.9356  36439.4  190.542
 8.9776  36269.2  190.166
 9.0196  36275.1  189.859
 9.0616  35814.2  188.157
 9.1036  35465.5  188.394
 9.1456  35169.5  186.936
 9.1876  35309.9  187.252
 9.2296  35085.3  186.104
 9.2716  35087.9  186.152
 9.3136  34656.5  185.006
 9.3556  35162.3  186.321
 9.3976  34068.3  183.912
 9.4396  34034.2  183.728
 9.4816  34239.5  184.145
 9.5236  33698  182.567
 9.5656  33436.9  182.222
 9.6076  32739.1  180.822
 9.6496  32977.1  181.354
 9.6916  32649.5  180.41
 9.7336  32834.9  180.72
 9.7756  32867.7  181.938
 9.8176  32457.1  180.468
 9.8596  32565  179.207
 9.9016  31823  177.144
 9.9436  31634.3  176.373
 9.9856  31627.4  176.796
 10.0276  31032.7  176.18
 10.0696  31673.2  177.038
 10.1116  30573.8  174.187
 10.1536  30649  174.077
 10.1956  30220.4  172.957
 10.2376  30093.2  172.096
 10.2796  29716.8  171.134
 10.3216  29300  170.063
 10.3636  29321.3  170.306
 10.4056  28599.4  168.587
 10.4476  29045.9  169.508
 10.4896  29036.1  168.93
 10.5316  28539.2  167.863
 10.5736  28124.8  167.381
 10.6156  27884.6  166.428
 10.6576  28003.3  165.358
 10.6996  27820.7  165.521
 10.7416  27077  163.494
 10.7836  26889.3  163.583
 10.8256  26503.8  162.826
 10.8676  26688.3  162.944
 10.9096  26699.1  162.998
 10.9516  26175  160.348
 10.9936  26227.5  160.715
 11.0356  26075.6  160.861
 11.0776  26195.9  160.568
 11.1196  25375.7  158.782
 11.1616  25210.2  157.945
 11.2036  25268.7  157.978
 11.2456  25175  158.383
 11.2876  25734.7  159.849
 11.3296  24945.2  157.299
 11.3716  25065.1  157.407
 11.4136  25249.2  158.817
 11.4556  25154.7  158.172
 11.4976  25758.5  159.073
 11.5396  25806.7  159.403
 11.5816  26659.1  162.438
 11.6236  26555.6  162.373
 11.6656  26241.7  160.545
 11.7076  25354.8  158.642
 11.7496  25020.6  161.588
 11.7916  24758.1  156.026
 11.8336  24289.5  155.415
 11.8756  24354.1  155.19
 11.9176  24311.4  154.732
 11.9596  24351.7  155.028
 12.0016  23885.5  154.298
 12.0436  24012.5  154.159
 12.0856  23588.9  153.288
 12.1276  23594.9  153.258
 12.1696  23657.4  152.584
 12.2116  23599.9  152.4
 12.2536  23739.2  153.634
 12.2956  23446  152.059
 12.3376  23708.1  153.112
 12.3796  23451.7  152.761
 12.4216  23442.6  151.932
 12.4636  23104.4  151.755
 12.5056  23392.9  151.97
 12.5476  23525.2  151.919
 12.5896  23215.5  151.556
 12.6316  23425.5  152.386
 12.6736  23253.4  152.309
 12.7156  23283.9  152.244
 12.7576  23090.4  151.859
 12.7996  23259.7  151.072
 12.8416  22990.9  151.239
 12.8836  23347.9  152.244
 12.9256  23732.7  152.539
 12.9676  23616.6  152.555
 13.0096  23962.2  154.782
 13.0516  23800.2  153.296
 13.0936  23917.7  153.802
 13.1356  24246.6  154.102
 13.1776  23965.4  154.216
 13.2196  24240.2  154.736
 13.2616  23935.7  154.08
 13.3036  24190.3  155.032
 13.3456  23775.5  153.876
 13.3876  24214  154.567
 13.4296  23819.3  153.463
 13.4716  24064.2  153.878
 13.5136  24033.1  153.916
 13.5556  23989.6  154.401
 13.5976  24035.3  154.71
 13.6396  24164.4  154.484
 13.6816  24162  154.825
 13.7236  24546.6  155.757
 13.7656  26002.4  160.754
 13.8076  26632.8  161.325
 13.8496  25391.5  158.406
 13.8916  24370  156.124
 13.9336  23652.6  153.064
 13.9756  23641.4  152.439
 14.0176  23253.5  151.856
 14.0596  23391.8  152.236
 14.1016  23243.7  152.173
 14.1436  23440.3  151.945
 14.1856  22854.8  150.331
 14.2276  22787.2  150.581
 14.2696  22777.2  150.408
 14.3116  22025.9  147.816
 14.3536  22091.7  148.202
 14.3956  21932.5  147.398
 14.4376  22279.7  148.336
 14.4796  22030.6  147.51
 14.5216  21769.5  147.411
 14.5636  21716.4  146.809
 14.6056  21965  147.199
 14.6476  21716.8  145.615
 14.6896  21350.9  144.934
 14.7316  20951.6  144.588
 14.7736  20857.2  143.421
 14.8156  20889.3  143.544
 14.8576  20669.4  142.653
 14.8996  20060.1  141.703
 14.9416  19917  141.217
 14.9836  19951.1  141.315
 15.0256  19341.6  138.074
 15.0676  19362.1  138.449
 15.1096  19190.9  137.581
 15.1516  18858.6  136.936
 15.1936  18851.2  136.345
 15.2356  18518.7  135.408
 15.2776  18579.7  135.229
 15.3196  18178.2  134.731
 15.3616  18114.8  134.253
 15.4036  17959.5  133.549
 15.4456  18209.5  134.13
 15.4876  18017.6  133.109
 15.5296  18016.9  133.393
 15.5716  17627.7  131.55
 15.6136  17722.3  132.233
 15.6556  17567.7  130.902
 15.6976  17387.2  130.523
 15.7396  17297.1  130.553
 15.7816  17312.3  130.137
 15.8236  17063.4  129.866
 15.8656  17180.9  130.121
 15.9076  16750.9  128.31
 15.9496  17580.1  134.241
 15.9916  17416.8  134.001
 16.0336  17484.6  131.148
 16.0756  17168.3  130.266
 16.1176  17041  129.701
 16.1596  16600.7  129.346
 16.2016  16813.2  128.934
 16.2436  16660.1  128.726
 16.2856  16675.3  128.306
 16.3276  16471.8  127.95
 16.3696  16516.7  127.955
 16.4116  16541.7  128.501
 16.4536  16525.9  128.243
 16.4956  16564.9  128.135
 16.5376  16217.2  126.969
 16.5796  16177.9  126.185
 16.6216  16263.6  126.782
 16.6636  16053.5  126.146
 16.7056  16125.9  126.29
 16.7476  16152.3  125.929
 16.7896  15994.6  126.046
 16.8316  16179.9  126.759
 16.8736  16164.5  126.95
 16.9156  15937.7  126.377
 16.9576  15805.6  126.646
 16.9996  15898  127.468
 17.0416  16211.9  127.132
 17.0836  16154.1  126.662
 17.1256  16033.9  126.194
 17.1676  15920.4  125.728
 17.2096  15733.7  124.87
 17.2516  15836.2  125.365
 17.2936  15796.2  125.26
 17.3356  15547.3  124.254
 17.3776  15671.1  124.937
 17.4196  15316.3  123.217
 17.4616  15219.2  122.736
 17.5036  15092.6  122.581
 17.5456  15010.7  122.874
 17.5876  14983.4  121.816
 17.6296  15239.8  122.671
 17.6716  14803.8  121.494
 17.7136  14750.3  121.401
 17.7556  14743.9  121.673
 17.7976  14722.9  121.316
 17.8396  14539.4  120.071
 17.8816  14405  120.071
 17.9236  14471.8  120.141
 17.9656  14338.6  120.099
 18.0076  14439.9  120.106
 18.0496  14267.4  118.531
 18.0916  14304.1  119.23
 18.1336  14217.2  118.966
 18.1756  14417.8  119.356
 18.2176  14106.6  118.273
 18.2596  14105.6  118.008
 18.3016  14206.4  118.684
 18.3436  14153.6  118.468
 18.3856  14213.1  118.842
 18.4276  13969.3  117.51
 18.4696  13873.9  117.182
 18.5116  14070.2  118.283
 18.5536  14019.6  118.432
 18.5956  13810.6  117.112
 18.6376  13830.9  117.603
 18.6796  13973.5  117.529
 18.7216  13848.7  117.483
 18.7636  13895.3  117.683
 18.8056  13677.5  116.686
 18.8476  13514.6  116.595
 18.8896  13788.1  117.12
 18.9316  13840.8  117.32
 18.9736  13640.6  116.173
 19.0156  13626.9  116.533
 19.0576  13856.7  116.356
 19.0996  13858.3  117.082
 19.1416  13699  116.794
 19.1836  13771.2  116.708
 19.2256  13496.3  115.759
 19.2676  13828.8  117.257
 19.3096  13534  116.245
 19.3516  13718  116.805
 19.3936  13541.8  116.136
 19.4356  13706.2  116.721
 19.4776  13480.4  115.845
 19.5196  13525.6  115.895
 19.5616  13551.3  116.257
 19.6036  13453.5  115.342
 19.6456  13562.6  115.921
 19.6876  13588.8  115.674
 19.7296  13751.1  116.827
 19.7716  13440  115.667
 19.8136  13761.3  117.236
 19.8556  13848  117.091
 19.8976  13688.4  116.468
 19.9396  13803.4  116.556
 19.9816  13777.9  116.686
 20.0236  14027  117.932
 20.0656  14250.6  118.873
 20.1076  14564.9  120.659
 20.1496  14634.3  120.937
 20.1916  14513.2  119.898
 20.2336  14325.5  119.088
 20.2756  13929.2  117.865
 20.3176  13630  116.345
 20.3596  13501.7  115.783
 20.4016  13492.9  115.535
 20.4436  13238.6  115.002
 20.4856  13372.1  115.38
 20.5276  13146.5  114.859
 20.5696  13215.6  114.709
 20.6116  13068.7  114.251
 20.6536  13070.3  113.771
 20.6956  13056.3  113.841
 20.7376  12938.2  113.527
 20.7796  12964.5  113.334
 20.8216  12990.3  113.17
 20.8636  13032.4  113.73
 20.9056  12871.4  112.963
 20.9476  12983.7  113.302
 20.9896  12874.3  112.692
 21.0316  12827.5  112.384
 21.0736  12806.8  112.809
 21.1156  12743  112.682
 21.1576  12842.4  113.158
 21.1996  12831.3  113.099
 21.2416  12877.4  113.124
 21.2836  12670.3  112.193
 21.3256  12755.9  112.633
 21.3676  12654.4  111.73
 21.4096  12578.2  111.768
 21.4516  12549.4  111.466
 21.4936  12281.6  110.529
 21.5356  12665.1  112.186
 21.5776  12597  111.721
 21.6196  12610.3  111.81
 21.6616  12281.4  110.432
 21.7036  12530.5  111.308
 21.7456  12604.4  111.721
 21.7876  12455.8  110.824
 21.8296  12426.7  110.545
 21.8716  12502.2  111.105
 21.9136  12701.4  112.182
 21.9556  12496.2  110.958
 21.9976  12453.8  110.8
 22.0396  12405.2  110.833
 22.0816  12374.2  111.21
 22.1236  12488.4  111.195
 22.1656  12318  110.57
 22.2076  12080.9  108.973
 22.2496  12099.2  109.086
 22.2916  12127.6  109.098
 22.3336  12156.1  109.938
 22.3756  12106.6  109.435
 22.4176  12121.1  109.355
 22.4596  12004.5  109.403
 22.5016  12065.7  109.199
 22.5436  12256.2  109.928
 22.5856  12318.5  110.457
 22.6276  12440.4  111.141
 22.6696  12293.3  110.829
 22.7116  12067.1  109.328
 22.7536  12220.4  109.991
 22.7956  12206.1  109.274
 22.8376  12034.8  109.006
 22.8796  11901.8  108.211
 22.9216  12193.1  110.062
 22.9636  12136.1  108.977
 23.0056  12017  108.564
 23.0476  12223  110.063
 23.0896  12338.8  109.966
 23.1316  12224.1  109.885
 23.1736  12328.6  113.27
 23.2156  12519.6  111.525
 23.2576  12755.1  112.703
 23.2996  12419.3  110.986
 23.3416  12549.3  112.093
 23.3836  12390.4  110.62
 23.4256  12766.3  112.403
 23.4676  12520.2  111.009
 23.5096  12468.1  111.441
 23.5516  12346.6  110.192
 23.5936  12484.6  111.717
 23.6356  12616.2  111.969
 23.6776  12306.1  110.791
 23.7196  12449.6  111.228
 23.7616  12414.6  110.771
 23.8036  12621.8  111.756
 23.8456  12272.4  109.747
 23.8876  12198.5  109.776
 23.9296  12090.2  109.765
 23.9716  12222.1  109.57
 24.0136  12280.9  110.737
 24.0556  12121.1  109.73
 24.0976  12047.6  109.218
 24.1396  11925.3  111.251
 24.1816  12069.5  110.355
 24.2236  12038.3  109.841
 24.2656  11953.3  108.928
 24.3076  11922.1  109.064
 24.3496  11749.1  108.145
 24.3916  11966.3  109.192
 24.4336  11803.3  108.644
 24.4756  11825.8  108.635
 24.5176  11717.1  107.769
 24.5596  11760.9  108.296
 24.6016  11662.5  107.937
 24.6436  11746.9  107.831
 24.6856  11657.8  107.166
 24.7276  11458.4  106.569
 24.7696  11466.7  106.717
 24.8116  11335.4  106.27
 24.8536  11315.2  106.186
 24.8956  11347.8  106.076
 24.9376  11316.6  106.105
 24.9796  11269  105.984
 25.0216  11136.6  105.478
 25.0636  11244.1  105.649
 25.1056  10996.7  105.169
 25.1476  11057  107.055
 25.1896  11011.1  105.375
 25.2316  11027.6  104.723
 25.2736  10957  104.042
 25.3156  10976.2  104.209
 25.3576  10967.1  104.596
 25.3996  10918.2  104.35
 25.4416  10872.6  104.109
 25.4836  10835.7  104.445
 25.5256  10805.1  103.672
 25.5676  10923.3  103.97
 25.6096  10725.2  103.584
 25.6516  10816.7  103.544
 25.6936  10751.6  103.539
 25.7356  10742  103.622
 25.7776  10713.6  103.163
 25.8196  10454.6  102.073
 25.8616  10696.3  103.175
 25.9036  10877.9  103.503
 25.9456  10644.8  102.982
 25.9876  10797.5  103.635
 26.0296  10734.3  103.003
 26.0716  10667.8  103.102
 26.1136  10628  102.833
 26.1556  10694.5  102.552
 26.1976  10553  102.786
 26.2396  10694.4  102.632
 26.2816  10635.1  102.951
 26.3236  10623.2  103.051
 26.3656  10730.7  103.291
 26.4076  10558.3  102.663
 26.4496  10812.5  103.486
 26.4916  10922  103.91
 26.5336  11309.6  106.074
 26.5756  11550.2  107.077
 26.6176  10793.9  103.535
 26.6596  10752.7  103.638
 26.7016  10625.8  102.792
 26.7436  10703.7  103.303
 26.7856  10338.2  101.506
 26.8276  10405.6  101.803
 26.8696  10509  102.174
 26.9116  10358.3  101.366
 26.9536  10258.6  100.94
 26.9956  10212.2  100.746
 27.0376  10312  101.459
 27.0796  10365.5  101.446
 27.1216  10389.8  101.626
 27.1636  10096.4  100.347
 27.2056  10160  100.545
 27.2476  10272.9  101.091
 27.2896  10035.3  100.038
 27.3316  10194.6  100.534
 27.3736  10038.1  100.038
 27.4156  10173.2  100.55
 27.4576  10126.5  100.539
 27.4996  10164.2  100.332
 27.5416  10126.6  100.46
 27.5836  10137.3  100.344
 27.6256  10022.5  99.9513
 27.6676  9945.16  99.554
 27.7096  10140.3  100.413
 27.7516  9903.54  99.3749
 27.7936  10233  101.16
 27.8356  10126.4  100.243
 27.8776  10221.3  100.78
 27.9196  10005.9  99.5778
 27.9616  9997.48  99.7314
 28.0036  9929.43  99.3446
 28.0456  9766.55  98.6673
 28.0876  9720.08  98.5177
 28.1296  9756.16  98.5389
 28.1716  9861.45  99.0866
 28.2136  9864.13  99.0651
 28.2556  9818.38  98.9507
 28.2976  9752.39  98.6099
 28.3396  9840.06  98.8103
 28.3816  9821.43  98.7223
 28.4236  9756.11  98.5466
 28.4656  9679.21  98.2028
 28.5076  9766.54  98.288
 28.5496  9752.46  98.4701
 28.5916  9600.89  97.5103
 28.6336  9760.86  98.6692
 28.6756  9676.37  97.4458
 28.7176  9564.5  97.4255
 28.7596  9560.99  97.3012
 28.8016  9554.2  97.3055
 28.8436  9518.65  97.3604
 28.8856  9654.09  97.9056
 28.9276  9507.73  97.3991
 28.9696  9494.86  96.9999
 29.0116  9469.14  97.0448
 29.0536  9359.49  96.6876
 29.0956  9515.94  97.1929
 29.1376  9439.04  96.7766
 29.1796  9537.93  97.3306
 29.2216  9543.35  97.201
 29.2636  9590.73  97.5114
 29.3056  9484.45  96.7592
 29.3476  9374.19  96.7147
 29.3896  9415.77  97.0369
 29.4316  9390.85  96.2513
 29.4736  9245.43  95.5598
 29.5156  9410.81  96.3306
 29.5576  9268.71  96.3363
 29.5996  9219.95  95.3481
 29.6416  9199.56  95.3665
 29.6836  9086.22  94.704
 29.7256  9244  96.0775
 29.7676  9155.6  95.2829
 29.8096  9053.79  94.7006
 29.8516  8988.97  94.6812
 29.8936  9138.9  95.5599
 29.9356  9225.29  95.7704
 29.9776  9084.4  95.1782
 30.0196  9137.8  94.8745
 30.0616  9213.81  95.6293
 30.1036  9135.87  95.0567
 30.1456  9026.36  94.7029
 30.1876  9110.06  95.1292
 30.2296  9037.3  94.6875
 30.2716  9038.96  94.3495
 30.3136  9223.47  96.1514
 30.3556  9370.69  96.9213
 30.3976  9382.69  98.4506
 30.4396  9546.59  96.6874
 30.4816  9402.5  95.5574
 30.5236  9354.04  95.3121
 30.5656  9333.73  95.8582
 30.6076  9166.08  94.7643
 30.6496  9378.75  95.9136
 30.6916  9232.69  95.2459
 30.7336  9310.48  95.7857
 30.7756  9204.54  95.3407
 30.8176  9298.52  95.7417
 30.8596  9264.35  95.3252
 30.9016  9315.62  95.4771
 30.9436  9371.98  95.9697
 30.9856  9454.05  96.5246
 31.0276  9201.1  94.8492
 31.0696  9188.89  95.3366
 31.1116  9141  95.0664
 31.1536  9064.55  94.5388
 31.1956  9036.4  94.4905
 31.2376  8929.71  93.9514
 31.2796  9173.38  94.7602
 31.3216  9142.83  94.5345
 31.3636  9117.05  95.0982
 31.4056  9167.77  96.6591
 31.4476  9232.47  94.9201
 31.4896  9229.71  95.4065
 31.5316  9087.08  94.0802
 31.5736  9253.05  94.7677
 31.6156  9143.69  94.2099
 31.6576  9215.64  94.6548
 31.6996  9314.61  94.8404
 31.7416  9205.49  95.2226
 31.7836  9135.72  94.0019
 31.8256  9200.24  94.6011
 31.8676  9315  95.1694
 31.9096  9010.47  93.8302
 31.9516  8963.72  93.9038
 31.9936  8856.72  93.1652
 32.0356  9037.13  94.1541
 32.0776  9032.87  94.0226
 32.1196  9152.23  94.6703
 32.1616  9150.17  94.1963
 32.2036  9071.34  94.2954
 32.2456  8938.9  93.9788
 32.2876  9046.26  94.0478
 32.3296  8940.71  93.4592
 32.3716  8652.58  92.05
 32.4136  8827.64  93.1646
 32.4556  8976.43  93.3469
 32.4976  8847.74  92.6242
 32.5396  8876.7  92.7939
 32.5816  8922.92  93.16
 32.6236  8897.75  93.0972
 32.6656  8923.6  93.7747
 32.7076  8769.29  92.6182
 32.7496  8748.75  92.1841
 32.7916  8906.83  92.9774
 32.8336  8786.75  92.437
 32.8756  8876.69  92.6296
 32.9176  8575.95  91.5263
 32.9596  8757.63  92.558
 33.0016  8785.88  92.4848
 33.0436  8812.14  92.8022
 33.0856  8602.61  91.7782
 33.1276  8636.15  91.6969
 33.1696  8633.85  91.5218
 33.2116  8726.97  92.2396
 33.2536  8833.61  92.7814
 33.2956  8641.5  91.863
 33.3376  8548.44  91.1889
 33.3796  8593.16  91.5576
 33.4216  8695.59  91.6932
 33.4636  8698.1  91.8697
 33.5056  8600.49  91.5933
 33.5476  8651.48  91.834
 33.5896  8697.23  91.8832
 33.6316  8722.66  92.3204
 33.6736  8658.55  92.2276
 33.7156  8515.94  91.496
 33.7576  8632.76  91.7623
 33.7996  8659.82  91.6635
 33.8416  8431.97  90.6422
 33.8836  8517.57  90.8782
 33.9256  8633.88  91.5539
 33.9676  8693.8  91.7676
 34.0096  8618.36  91.684
 34.0516  8494.6  90.6629
 34.0936  8352.87  90.166
 34.1356  8562.66  91.0346
 34.1776  8408.61  90.2097
 34.2196  8407.89  90.3873
 34.2616  8356.1  90.2514
 34.3036  8478.91  91.1472
 34.3456  8465.7  90.8225
 34.3876  8550.6  91.3494
 34.4296  8441.64  90.3738
 34.4716  8529.08  90.9869
 34.5136  8398.4  90.475
 34.5556  8351.84  90.4824
 34.5976  8543.57  91.3575
 34.6396  8373.87  90.1243
 34.6816  8436.47  90.5626
 34.7236  8373.51  90.0069
 34.7656  8500.89  90.8999
 34.8076  8380.94  90.5844
 34.8496  8298.2  89.99
 34.8916  8290.45  89.7921
 34.9336  8430.8  90.5508
 34.9756  8547.24  91.1222
 35.0176  8385.04  90.75
 35.0596  8476.72  91.0635
 35.1016  8355.84  90.1728
 35.1436  8647.37  91.4198
 35.1856  8469.71  90.5942
 35.2276  8405.8  90.4232
 35.2696  8388.77  90.5265
 35.3116  8276.6  90.0241
 35.3536  8416.01  90.5167
 35.3956  8315.2  89.6561
 35.4376  8344.15  90.37
 35.4796  8390.79  90.6593
 35.5216  8389.6  90.6209
 35.5636  8099.61  89.7665
 35.6056  8260.57  89.6823
 35.6476  8293.86  89.7651
 35.6896  8341.39  90.1168
 35.7316  8140  89.0012
 35.7736  8290.05  89.9907
 35.8156  8277.49  89.9304
 35.8576  8237.47  89.9543
 35.8996  8390.06  90.7628
 35.9416  8212.32  89.295
 35.9836  8147.4  89.3956
 36.0256  8362.36  90.4622
 36.0676  8380.18  90.3225
 36.1096  8263.17  89.846
 36.1516  8364.42  90.2721
 36.1936  8250.32  89.4915
 36.2356  8226.06  90.0227
 36.2776  8312.7  89.9543
 36.3196  8283.37  89.4801
 36.3616  8205.77  89.1828
 36.4036  8241.33  89.4442
 36.4456  8318.84  90.076
 36.4876  8023.52  88.4081
 36.5296  8189.69  89.3502
 36.5716  8107.11  89.6709
 36.6136  8078.02  88.3085
 36.6556  7969.3  87.904
 36.6976  7866.18  87.8171
 36.7396  7942.67  87.9851
 36.7816  7956.58  88.4303
 36.8236  7958.57  88.3659
 36.8656  7905.47  88.1397
 36.9076  7971.55  88.3921
 36.9496  7854.56  87.721
 36.9916  7877.95  87.4865
 37.0336  8077.82  88.9054
 37.0756  8002.7  88.2893
 37.1176  7711.44  86.9286
 37.1596  7735.96  87.0745
 37.2016  7873.98  88.0608
 37.2436  7888.27  87.4717
 37.2856  7775.92  87.0968
 37.3276  7825.59  86.7455
 37.3696  7828.55  87.6326
 37.4116  7906.6  87.9679
 37.4536  7767.47  87.0519
 37.4956  7716.21  86.8104
 37.5376  8058.16  90.3111
 37.5796  7889.05  89.2799
 37.6216  7844.34  87.3157
 37.6636  7915.96  87.6053
 37.7056  8019.69  88.3726
 37.7476  8058.36  88.1266
 37.7896  7823.82  87.3304
 37.8316  7891.12  87.8546
 37.8736  7868.58  87.2608
 37.9156  8050.09  88.2507
 37.9576  7943.71  87.5912
 37.9996  7832.68  86.6864
 38.0416  7874.25  87.7219
 38.0836  8039.21  88.5336
 38.1256  7859.77  87.5171
 38.1676  7817.5  87.3945
 38.2096  7909.61  87.5349
 38.2516  7883.76  87.605
 38.2936  7972.77  87.8877
 38.3356  7797.99  86.8559
 38.3776  7799.71  87.1106
 38.4196  7796.2  86.9542
 38.4616  7813.49  87.294
 38.5036  7906.4  87.6528
 38.5456  7727.64  87.4714
 38.5876  7824.81  88.0536
 38.6296  7933.68  87.6366
 38.6716  7759.54  86.4772
 38.7136  7808.8  86.6956
 38.7556  7757.37  86.9165
 38.7976  7860.44  87.409
 38.8396  7757.12  87.2866
 38.8816  7750.46  87.0543
 38.9236  7890.12  87.6347
 38.9656  7886.42  87.5249
 39.0076  7860.87  86.7844
 39.0496  7939.8  87.774
 39.0916  7842.01  86.8826
 39.1336  7792.07  87.0022
 39.1756  7728.1  86.7064
 39.2176  7765.73  87.4573
 39.2596  7728.61  87.1673
 39.3016  7780.09  87.0493
 39.3436  7733.89  87.1955
 39.3856  8002.33  88.1284
 39.4276  8030.91  88.806
 39.4696  7931.11  87.8667
 39.5116  7862.08  88.0006
 39.5536  7924.2  88.7538
 39.5956  7757.94  86.9442
 39.6376  7695.11  86.5855
 39.6796  7716.47  86.46
 39.7216  7747.68  86.73
 39.7636  7881.97  88.0339
 39.8056  7752.06  87.0925
 39.8476  7759.83  87.3954
 39.8896  7763.63  87.0533
 39.9316  7720.7  87.0451
 39.9736  7828.84  87.2398
 40.0156  7808.57  86.9617
 40.0576  7713.07  86.7712
 40.0996  7799.5  86.4524
 40.1416  7747.74  86.9504
 40.1836  7793.97  87.0895
 40.2256  7829.97  87.3363
 40.2676  7802.45  87.3523
 40.3096  7845.26  87.4553
 40.3516  7894.26  87.8276
 40.3936  7841.62  87.1004
 40.4356  7767.8  86.8956
 40.4776  7948.25  88.1342
 40.5196  7840.07  87.827
 40.5616  7918.97  87.9052
 40.6036  7826.46  87.6508
 40.6456  7827.68  87.2655
 40.6876  7852.87  87.399
 40.7296  7815.43  87.3223
 40.7716  7863.64  87.7037
 40.8136  7748.08  87.0117
 40.8556  7918.39  88.0988
 40.8976  7896.81  87.9013
 40.9396  7876.52  88.1115
 40.9816  7892.73  87.5046
 41.0236  7816.19  86.8735
 41.0656  7941.5  88.1014
 41.1076  7809.08  87.1397
 41.1496  7851.01  87.2783
 41.1916  7751.28  87.041
 41.2336  7828.15  87.4661
 41.2756  7777.7  86.7975
 41.3176  7899.04  88.0771
 41.3596  7861.43  87.6041
 41.4016  7757.32  87.2756
 41.4436  7827.14  87.4572
 41.4856  7753.6  87.2073
 41.5276  7669.51  86.7455
 41.5696  7799.18  87.12
 41.6116  7852.23  87.8024
 41.6536  7768.48  87.1766
 41.6956  7955.7  88.2085
 41.7376  7701.21  86.8906
 41.7796  7731.42  86.9434
 41.8216  7766.86  87.3637
 41.8636  7755.02  87.2586
 41.9056  7812.43  87.3735
 41.9476  7777.99  87.4022
 41.9896  7931.16  87.9341
 42.0316  7848.23  87.5611
 42.0736  7825.37  87.5642
 42.1156  7726.42  86.8147
 42.1576  7737.48  86.9799
 42.1996  7771.93  87.2996
 42.2416  7762.54  86.8452
 42.2836  7737.21  86.8162
 42.3256  7696.98  86.7019
 42.3676  7774.87  86.939
 42.4096  7815.02  87.1397
 42.4516  7847.5  87.3903
 42.4936  7652.89  86.3754
 42.5356  7583.33  86.1226
 42.5776  7673.31  86.5662
 42.6196  7819.69  87.4481
 42.6616  7521.18  85.9274
 42.7036  7813.81  86.9665
 42.7456  7882.65  87.7049
 42.7876  7666.7  86.5837
 42.8296  7733.12  86.8007
 42.8716  7597.12  86.1985
 42.9136  7510.79  85.4586
 42.9556  7755.04  87.0108
 42.9976  7767.04  87.0417
 43.0396  7643.04  86.0744
 43.0816  7578.84  86.0941
 43.1236  7635.77  86.468
 43.1656  7686  86.568
 43.2076  7647.6  86.4665
 43.2496  7494.06  85.4214
 43.2916  7630.06  86.5493
 43.3336  7664.63  86.5774
 43.3756  7684.53  86.4464
 43.4176  7539.45  85.7106
 43.4596  7551.61  85.6356
 43.5016  7565.78  86.1137
 43.5436  7648.12  86.4881
 43.5856  7538.68  85.8932
 43.6276  7644.99  86.3943
 43.6696  7543.13  86.0585
 43.7116  7719.96  86.5676
 43.7536  7672.89  86.8031
 43.7956  7545.61  87.2786
 43.8376  7454.25  85.2907
 43.8796  7446.14  85.3214
 43.9216  7501.24  85.5575
 43.9636  7466.74  85.4622
 44.0056  7482.23  85.784
 44.0476  7411.4  85.0095
 44.0896  7397.86  85.2735
 44.1316  7474.57  85.2418
 44.1736  7466.21  85.3208
 44.2156  7359.68  84.5658
 44.2576  7400.87  85.1152
 44.2996  7391.3  85.039
 44.3416  7369.3  84.6686
 44.3836  7269.54  84.4216
 44.4256  7328.94  84.4059
 44.4676  7319.95  84.5143
 44.5096  7353.52  84.8514
 44.5516  7223.65  84.0638
 44.5936  7313.75  84.5403
 44.6356  7453.88  85.087
 44.6776  7381.13  84.9894
 44.7196  7292.05  84.7672
 44.7616  7433.18  86.9074
 44.8036  7487.69  85.8548
 44.8456  7609.02  86.5485
 44.8876  7496.42  85.7505
 44.9296  7628.71  85.9434
 44.9716  7557.73  85.9791
 45.0136  7542.4  85.8271
 45.0556  7571.82  86.085
 45.0976  7580.16  86.1855
 45.1396  7434.17  85.0976
 45.1816  7335.86  84.4778
 45.2236  7491.49  85.2761
 45.2656  7518.68  85.9295
 45.3076  7479.32  85.484
 45.3496  7375.58  85.1987
 45.3916  7505.8  86.2167
 45.4336  7618.7  86.7094
 45.4756  7469.06  85.6965
 45.5176  7455.5  85.2423
 45.5596  7525.52  85.758
 45.6016  7323.18  85.0187
 45.6436  7465.98  85.0096
 45.6856  7421.02  85.4087
 45.7276  7237.99  85.6487
 45.7696  7364.17  86.0761
 45.8116  7374.04  85.5852
 45.8536  7225.27  84.6165
 45.8956  7395.54  84.9527
 45.9376  7436.57  84.6595
 45.9796  7437  85.3454
 46.0216  7342.4  85.1323
 46.0636  7593.3  85.7036
 46.1056  7351.53  84.3288
 46.1476  7467.76  85.5921
 46.1896  7411.89  85.4098
 46.2316  7363.15  85.0094
 46.2736  7419.62  85.5422
 46.3156  7381.7  85.07
 46.3576  7449.51  85.662
 46.3996  7438.09  85.7568
 46.4416  7412.23  85.1565
 46.4836  7375.03  85.3276
 46.5256  7453.7  85.7125
 46.5676  7373.65  85.3737
 46.6096  7398.59  85.4421
 46.6516  7410.59  84.5534
 46.6936  7443.44  85.2449
 46.7356  7434.38  85.275
 46.7776  7235.25  84.9724
 46.8196  7365.27  85.474
 46.8616  7309.85  84.9527
 46.9036  7198.51  83.9694
 46.9456  7262.56  83.9787
 46.9876  7301.61  84.2869
 47.0296  7326.19  85.1189
 47.0716  7318.06  84.8977
 47.1136  7309.01  84.5158
 47.1556  7261.98  84.1129
 47.1976  7434.13  85.265
 47.2396  7189.05  84.1712
 47.2816  7200.07  83.9358
 47.3236  7246.83  84.573
 47.3656  7314.79  84.9022
 47.4076  7351.27  84.836
 47.4496  7227.95  84.297
 47.4916  7225.34  84.4699
 47.5336  7281.74  84.616
 47.5756  7379.94  85.299
 47.6176  7244.35  84.4186
 47.6596  7223.95  84.0021
 47.7016  7373.87  84.6818
 47.7436  7318.34  84.7131
 47.7856  7331.16  84.8117
 47.8276  7190.65  84.0346
 47.8696  7279.15  84.6415
 47.9116  7264.85  84.2736
 47.9536  7293.42  84.3771
 47.9956  7181.54  84.4394
 48.0376  7189.94  84.2611
 48.0796  7313.8  85.1124
 48.1216  7264.78  84.6487
 48.1636  7403.43  85.0143
 48.2056  7247.39  84.3817
 48.2476  7355.66  85.3195
 48.2896  7323.94  85.0458
 48.3316  7284.23  84.7497
 48.3736  7168.34  84.1035
 48.4156  7215.85  84.2343
 48.4576  7266.49  84.8196
 48.4996  7330.87  84.6533
 48.5416  7303.82  84.8196
 48.5836  7271.04  84.3063
 48.6256  7265.6  84.4769
 48.6676  7328.21  85.3475
 48.7096  7265.63  84.2646
 48.7516  7226.4  84.181
 48.7936  7116.2  83.6041
 48.8356  7310.69  84.7895
 48.8776  7218.43  84.8302
 48.9196  7424.54  85.389
 48.9616  7280.66  84.9406
 49.0036  7264.14  85.1981
 49.0456  7183.3  84.7036
 49.0876  7252.41  84.6362
 49.1296  7151.79  84.2061
 49.1716  7075.03  83.6343
 49.2136  7258.96  84.6326
 49.2556  7224.61  84.4624
 49.2976  7298.97  84.9732
 49.3396  7161.2  84.2187
 49.3816  7356.01  84.7824
 49.4236  7346.2  85.1573
 49.4656  7054.62  83.4661
 49.5076  7229.4  84.2424
 49.5496  7173.9  83.9834
 49.5916  7245.85  84.312
 49.6336  7243.6  84.5072
 49.6756  7265.31  84.8712
 49.7176  7247.29  84.7071
 49.7596  7130.41  83.7812
 49.8016  7334.63  84.8806
 49.8436  7134.77  84.037
 49.8856  7106.33  83.8717
 49.9276  7181.34  84.4103
 49.9696  7063.77  83.7039
 50.0116  7233.17  84.8191
 50.0536  7273.48  85.0117
 50.0956  7184.51  84.5617
 50.1376  7154.18  84.0695
 50.1796  7097.82  84.0197
 50.2216  7084.97  83.9331
 50.2636  7225.46  84.3763
 50.3056  7061.75  83.5918
 50.3476  7148.88  84.1299
 50.3896  7117.58  83.916
 50.4316  7175.08  84.0801
 50.4736  7117.59  83.9697
 50.5156  7137.94  84.0687
 50.5576  7115.57  83.69
 50.5996  7145.24  84.1646
 50.6416  7048.43  83.5152
 50.6836  7123.26  84.0296
 50.7256  7204.33  84.4229
 50.7676  7196.29  84.7048
 50.8096  7060.83  83.4327
 50.8516  7112.87  84.1582
 50.8936  7059.27  83.6255
 50.9356  7157.4  84.3025
 50.9776  7041.7  83.7816
 51.0196  6860.85  82.828
 51.0616  6991.69  82.9333
 51.1036  7077.54  83.8022
 51.1456  7025.74  83.4106
 51.1876  7095.64  83.1479
 51.2296  6986.08  83.1431
 51.2716  6886.98  82.2559
 51.3136  6880.29  82.6808
 51.3556  6884.59  82.3216
 51.3976  6881.52  82.4596
 51.4396  6812.01  82.3547
 51.4816  6895.8  82.7057
 51.5236  6824.95  82.3747
 51.5656  6867.33  82.2232
 51.6076  6919.73  82.6212
 51.6496  6855.48  82.4235
 51.6916  6892.93  83.0159
 51.7336  6780.62  82.4223
 51.7756  6930.73  83.025
 51.8176  6840.84  82.5959
 51.8596  6647.21  81.4324
 51.9016  7109.88  83.8161
 51.9436  6955.41  84.403
 51.9856  6951.3  84.7886
 52.0276  6967.61  83.364
 52.0696  6982.77  83.5226
 52.1116  6846.9  82.8309
 52.1536  6990.51  83.532
 52.1956  7000.26  83.0934
 52.2376  6926.39  82.8219
 52.2796  6937.33  82.709
 52.3216  6810.48  82.6285
 52.3636  6972  83.1769
 52.4056  6907.39  82.6488
 52.4476  6831.62  82.5536
 52.4896  6868.42  82.8353
 52.5316  6995.08  83.6321
 52.5736  6861.54  82.5429
 52.6156  7084.59  84.2997
 52.6576  6803.89  82.0305
 52.6996  6757.42  82.7489
 52.7416  6801.93  82.8746
 52.7836  6903.67  83.3833
 52.8256  6912  82.6292
 52.8676  6800.07  82.5325
 52.9096  6959.31  83.5728
 52.9516  6857.91  83.3609
 52.9936  6807.77  83.4374
 53.0356  6951.08  83.2999
 53.0776  6854.64  82.9889
 53.1196  6862.33  83.1438
 53.1616  6932.65  83.6398
 53.2036  6872.41  83.2342
 53.2456  6832.61  83.0983
 53.2876  6779.03  82.4652
 53.3296  6937.94  83.743
 53.3716  6917.64  83.3802
 53.4136  6885.49  83.3399
 53.4556  6796.53  82.8193
 53.4976  6842.07  82.9388
 53.5396  6678.46  82.3422
 53.5816  6893.28  83.2822
 53.6236  6718.61  82.5778
 53.6656  6892.35  83.2423
 53.7076  6904.36  83.2582
 53.7496  6865.84  83.1513
 53.7916  6785.85  82.8136
 53.8336  6860.15  83.1488
 53.8756  6678.93  82.6057
 53.9176  6772.55  82.5178
 53.9596  6553.29  81.9215
 54.0016  6593.86  81.4902
 54.0436  6483.21  81.0388
 54.0856  6566.98  80.9858
 54.1276  6589.28  81.3119
 54.1696  6588.9  81.4934
 54.2116  6765.79  82.3143
 54.2536  6564.68  80.8804
 54.2956  6564.74  80.9418
 54.3376  6537.44  81.2555
 54.3796  6443.79  80.5826
 54.4216  6503.96  81.0164
 54.4636  6503.41  80.9668
 54.5056  6529.8  80.9332
 54.5476  6473.13  80.9309
 54.5896  6399.04  80.3026
 54.6316  6511.28  80.8386
 54.6736  6536.27  81.0915
 54.7156  6453.49  80.6047
 54.7576  6459.99  80.6204
 54.7996  6604.46  81.6815
 54.8416  6423.88  80.5816
 54.8836  6595.89  81.7535
 54.9256  6366.83  80.1064
 54.9676  6385.49  80.0727
 55.0096  6431.38  80.3929
 55.0516  6355.68  80.146
 55.0936  6438.8  80.3539
 55.1356  6307.47  79.5629
 55.1776  6617.98  81.7284
 55.2196  6453.62  80.5129
 55.2616  6595.3  81.6116
 55.3036  6360.4  80.3125
 55.3456  6356.47  80.4329
 55.3876  6463.94  80.8315
 55.4296  6257.01  79.5285
 55.4716  6399.82  80.4666
 55.5136  6405.25  80.2595
 55.5556  6574.9  81.353
 55.5976  6319.43  79.8512
 55.6396  6394.72  80.1715
 55.6816  6273.74  79.3613
 55.7236  6267.96  79.3837
 55.7656  6457.58  80.302
 55.8076  6303.82  79.3555
 55.8496  6474.58  80.837
 55.8916  6261.65  79.6077
 55.9336  6503.17  80.9415
 55.9756  6302  79.5484
 56.0176  6291.41  79.6401
 56.0596  6301.76  79.6928
 56.1016  6246.59  79.3745
 56.1436  6181.43  79.21
 56.1856  6122.3  78.5833
 56.2276  6449.75  80.7119
 56.2696  6241.22  79.363
 56.3116  6401.47  80.7561
 56.3536  6253.15  79.4913
 56.3956  6279.12  79.6411
 56.4376  6318.48  79.9336
 56.4796  6179.78  78.8585
 56.5216  6148.48  79.0345
 56.5636  6153.71  78.6309
 56.6056  6325.39  79.9541
 56.6476  6251.51  79.1288
 56.6896  6369.27  80.3166
 56.7316  6187.52  79.0761
 56.7736  6229  79.3496
 56.8156  6191.71  79.1329
 56.8576  5978.81  77.6922
 56.8996  6186.57  78.9122
 56.9416  6164.65  79.1103
 56.9836  6285.77  79.4143
 57.0256  6159.74  78.915
 57.0676  6325.69  80.0849
 57.1096  6239.84  79.3544
 57.1516  6116.32  78.5863
 57.1936  6181.06  78.767
 57.2356  6061.22  78.3221
 57.2776  6175.25  79.024
 57.3196  6117.18  78.9962
 57.3616  6185.46  78.9388
 57.4036  6235.35  79.3232
 57.4456  6309.07  79.7744
 57.4876  6161.78  78.69
 57.5296  6162.74  79.0175
 57.5716  6116.1  78.7072
 57.6136  6054.61  78.1684
 57.6556  6119.56  78.7116
 57.6976  6104.98  78.448
 57.7396  6085.61  78.6738
 57.7816  6032.17  78.6905
 57.8236  6008.96  78.3338
 57.8656  6094.83  78.5494
 57.9076  6177.5  79.0965
 57.9496  6099.23  78.9682
 57.9916  6138.78  78.7338
 58.0336  6085.57  78.6679
 58.0756  6120.37  78.5057
 58.1176  6167.08  78.8099
 58.1596  5934.54  77.8942
 58.2016  5915.32  77.002
 58.2436  5942.13  77.5837
 58.2856  5751.73  76.2533
 58.3276  5820.89  77.0734
 58.3696  5752.72  76.384
 58.4116  5851.74  76.9046
 58.4536  5906.81  77.1559
 58.4956  5705.5  76.0022
 58.5376  6014.68  77.6024
 58.5796  5826.77  76.7952
 58.6216  5908.15  77.1574
 58.6636  5841.96  76.9265
 58.7056  5940.65  77.4334
 58.7476  5837.22  77.1932
 58.7896  5783.92  76.4938
 58.8316  5810.88  76.6686
 58.8736  5860.68  77.0021
 58.9156  5796.76  76.6284
 58.9576  5868.15  77.4096
 58.9996  5933.14  77.1005
 59.0416  5942.35  77.5136
 59.0836  5860.23  76.8942
 59.1256  5660.89  76.2567
 59.1676  5857.26  77.8712
 59.2096  5677.25  75.9871
 59.2516  5852.64  76.7395
 59.2936  5859.83  77.1098
 59.3356  5827.79  76.7786
 59.3776  5700.37  76.0988
 59.4196  5695.94  76.0066
 59.4616  5901.25  77.2263
 59.5036  5743.75  76.2234
 59.5456  5975.3  77.4395
 59.5876  5967.88  77.5814
 59.6296  5795.09  76.5178
 59.6716  5758.85  76.3348
 59.7136  5896.91  77.2328
 59.7556  5833.06  76.9476
 59.7976  5691.3  75.7566
 59.8396  5729.61  75.9081
 59.8816  5825  77.0723
 59.9236  5797.84  76.544
 59.9656  5727.93  76.3339
 60.0076  5849.95  76.5113
 60.0496  5738.78  76.272
 60.0916  5853.7  76.459
 60.1336  5754.5  76.8891
 60.1756  5682.56  77.5556
 60.1996  0.0000000E+00  0.0000000E+00