File: docs/examples/opeando_xrd/IS17_D/Data/IS17_D/17_Da_f00152.xye
# /beamlines/bl04/projects/cycle2025-II/20250340211-lsimonelli/DATA/IS17_D/17_Da_f00152.xye : mythproc.py merge -s 0.006 -l 0.5 -f /beamlines/bl04/inhouse/ff/FlatField/ff_20Nov2024rod8mm60s_17keV.raw -b True -c true -o xye /beamlines/bl04/projects/cycle2025-II/20250340211-lsimonelli/DATA/IS17_D/17_Da_00152.dat
# IsMon = [6784141, 6788892, 6791543]  IsPos = [-1.4999, -2.4883, -3.4988]
# Wave = 0.4962  CalPath /beamlines/bl04/projects/cycle2025-II/20250340211-lsimonelli/DATA/Align/Si_Pos1_25keV_f00001.cal
# Date = 2025-09-25_11:57:11 Dt = 4.8000  Bin = 0.0060  <imon> = 6788192 +/- 3062 (Min/Max) 6784141 / 6791543
# icurr 252.8924  mocoIn 1.7247E-05  mocoOut 0.8099  i15 7.10578e+06  imon 6.78819e+06  i7 3.6667  iEMpd_timer 4.8000  iEMpd_1 3.4681E-08  iEMpd_2 7.9564E-08  iEMpd_3 1.7189E-08  iEMpd_4 4.7751E-08  iEMhp_timer 4.8000  iEMhp_1 4.9429E-06  iEMhp_2 -2.5033E-08  iEMhp_3 -2.4028E-08  iEMhp_4 -2.1372E-08
#      9776
 1.5856  41016.4  208.023
 1.6276  48182.6  221.596
 1.6696  55004.5  235.929
 1.7116  63955.2  254.899
 1.7536  72543.8  270.319
 1.7956  77706.5  280.471
 1.8376  73635.2  273.458
 1.8796  62250.4  249.579
 1.9216  50313.8  225.274
 1.9636  42214  205.501
 2.0056  37452.6  192.814
 2.0476  34974  188.368
 2.0896  33921  184.422
 2.1316  33137.5  181.404
 2.1736  31614.6  178.592
 2.2156  31890.2  177.929
 2.2576  30568.3  174.825
 2.2996  29525.1  172.448
 2.3416  29929.5  172.236
 2.3836  29853.2  172.126
 2.4256  28961  170.087
 2.4676  28104.5  167.315
 2.5096  28065  167.252
 2.5516  27043.4  167.95
 2.5936  27211.2  165.074
 2.6356  26768.6  164.415
 2.6776  26659.9  162.968
 2.7196  26592.1  162.899
 2.7616  26202.8  161.857
 2.8036  25779.1  160.717
 2.8456  25716.3  161.132
 2.8876  25253  159.548
 2.9296  24845.5  158.389
 2.9716  24874.5  157.972
 3.0136  24422  156.595
 3.0556  24443.5  157.059
 3.0976  24306.8  155.564
 3.1396  24209.2  155.968
 3.1816  24101.4  155.263
 3.2236  23765.6  154.46
 3.2656  24064.4  154.447
 3.3076  23637.5  154.536
 3.3496  24134.8  155.074
 3.3916  24207.3  155.141
 3.4336  24670.3  157.199
 3.4756  25200.6  158.813
 3.5176  26166.9  161.614
 3.5596  25833.7  163.025
 3.6016  26046.6  161.278
 3.6436  25354.4  160.228
 3.6856  24817.9  156.816
 3.7276  23824.3  154.737
 3.7696  23589  154.157
 3.8116  23401.3  153.434
 3.8536  23385.4  153.32
 3.8956  23427.7  153.276
 3.9376  23190.7  152.755
 3.9796  23222.7  152.368
 4.0216  23229.2  151.415
 4.0636  23353.7  153.31
 4.1056  23164.8  152.326
 4.1476  23483.7  153.704
 4.1896  23570.1  153.831
 4.2316  23732.1  154.191
 4.2736  24225.7  155.569
 4.3156  24413.8  156.395
 4.3576  25280.3  159.082
 4.3996  25274.2  159.316
 4.4416  25897.4  160.853
 4.4836  26625.8  163.254
 4.5256  26753  164.268
 4.5676  26683.9  164.303
 4.6096  27298.9  164.842
 4.6516  27885.1  166.302
 4.6936  28005  167.467
 4.7356  28081.4  167.533
 4.7776  28026.9  167.193
 4.8196  27711.2  166.918
 4.8616  27279.7  165.082
 4.9036  26962.8  163.875
 4.9456  27106.5  164.956
 4.9876  26447.4  162.841
 5.0296  26584.7  163.074
 5.0716  26480  163.531
 5.1136  26627.8  163.698
 5.1556  27003.6  164.305
 5.1976  27419.9  165.579
 5.2396  27603  165.816
 5.2816  27421.7  165.745
 5.3236  27572.4  165.89
 5.3656  26948.1  164.925
 5.4076  26917  164.986
 5.4496  27216.8  165.371
 5.4916  27258.4  165.262
 5.5336  27215.7  165.129
 5.5756  27160  165.01
 5.6176  27386.5  165.112
 5.6596  27496.6  166.449
 5.7016  27778.5  166.536
 5.7436  27873.9  167.1
 5.7856  27670.9  166.547
 5.8276  28191  167.819
 5.8696  28455.8  168.782
 5.9116  28468.7  169.129
 5.9536  28424.4  169.065
 5.9956  28779.2  169.467
 6.0376  28994  170.742
 6.0796  29168.4  171.085
 6.1216  29049.3  170.978
 6.1636  29065.6  170.044
 6.2056  29174.4  171.023
 6.2476  29403.2  171.57
 6.2896  29555.8  171.695
 6.3316  29487.1  171.683
 6.3736  29604.2  171.904
 6.4156  29592  171.775
 6.4576  29976  172.477
 6.4996  30074.4  173.235
 6.5416  29869.2  172.79
 6.5836  30044.7  173.524
 6.6256  30084.2  173.202
 6.6676  30677.8  174.467
 6.7096  30326.8  174.333
 6.7516  30745.9  175.174
 6.7936  30944.1  175.164
 6.8356  30935  175.215
 6.8776  31605.5  177.908
 6.9196  31455.4  177.899
 6.9616  31982.7  178.818
 7.0036  32192  179.054
 7.0456  32551.3  179.335
 7.0876  32203.2  180.077
 7.1296  32420.5  179.813
 7.1716  32362.9  179.186
 7.2136  31936.8  177.783
 7.2556  32405.9  179.247
 7.2976  32456.4  179.888
 7.3396  32170.8  179.308
 7.3816  32277.3  179.825
 7.4236  32444.8  179.576
 7.4656  32639.5  179.593
 7.5076  33141.9  181.107
 7.5496  32795.7  180.692
 7.5916  32800.7  180.745
 7.6336  33316.6  182.054
 7.6756  33482.5  182.359
 7.7176  33652.2  183.138
 7.7596  33594.7  184.232
 7.8016  33964.4  187.447
 7.8436  34553.8  185.677
 7.8856  34719.6  185.729
 7.9276  35450.7  188.068
 7.9696  35723  189.112
 8.0116  36224.2  188.958
 8.0536  36651.5  190.329
 8.0956  36434.4  190.95
 8.1376  37003.5  191.898
 8.1796  37240.4  193.07
 8.2216  38178.9  194.2
 8.2636  38564.4  195.464
 8.3056  38044  194.883
 8.3476  38802.3  196.139
 8.3896  38638.7  195.807
 8.4316  38717.1  196.172
 8.4736  39079.3  196.545
 8.5156  38559.7  195.511
 8.5576  37828.9  195.264
 8.5996  38486.5  195.172
 8.6416  38043.4  195.325
 8.6836  37768.2  194.436
 8.7256  38493.8  195.744
 8.7676  37809  196.936
 8.8096  37552.7  193.554
 8.8516  37487.7  193.008
 8.8936  37031.1  191.694
 8.9356  36933.1  191.828
 8.9776  37409.9  193.148
 9.0196  37204.9  192.299
 9.0616  37369.4  192.181
 9.1036  36464.2  191.033
 9.1456  36897.4  191.491
 9.1876  36478.7  190.369
 9.2296  37033.6  191.197
 9.2716  36360.4  189.528
 9.3136  36348.1  189.471
 9.3556  36573.3  190.049
 9.3976  35469.6  187.706
 9.4396  35709.8  188.215
 9.4816  35122.2  186.535
 9.5236  35211.8  186.669
 9.5656  34956.9  186.317
 9.6076  34870.5  186.607
 9.6496  34424.3  185.35
 9.6916  34809.3  186.342
 9.7336  34323.9  184.829
 9.7756  34674.9  187.031
 9.8176  33771.9  184.105
 9.8596  33712.6  182.375
 9.9016  33436.9  181.622
 9.9436  33055.5  180.496
 9.9856  32623.6  179.535
 10.0276  32351.9  179.866
 10.0696  32516.3  179.393
 10.1116  31872  177.864
 10.1536  31845.9  177.967
 10.1956  31474.9  176.52
 10.2376  30781.5  174.075
 10.2796  30967.7  174.723
 10.3216  30691.2  174.212
 10.3636  30451.4  173.559
 10.4056  30025.1  172.731
 10.4476  30000.6  172.294
 10.4896  30289.7  172.704
 10.5316  29696.3  171.587
 10.5736  29623.2  171.787
 10.6156  29161.8  170.217
 10.6576  29328.6  169.249
 10.6996  29096.1  169.266
 10.7416  28772.6  168.553
 10.7836  28820.4  169.362
 10.8256  28359.7  168.441
 10.8676  28570.7  168.594
 10.9096  28268.7  167.744
 10.9516  27934.1  165.66
 10.9936  27879.1  165.696
 11.0356  27842.7  166.237
 11.0776  27991.3  165.98
 11.1196  27505.3  165.288
 11.1616  27280.9  164.294
 11.2036  27170.2  163.817
 11.2456  27118  164.371
 11.2876  26901.5  163.459
 11.3296  26868.6  163.233
 11.3716  27217.2  163.985
 11.4136  27330.7  165.245
 11.4556  27517.3  165.455
 11.4976  27738.1  165.072
 11.5396  28026.2  166.1
 11.5816  27803  165.913
 11.6236  27075.6  163.95
 11.6656  26848.2  162.416
 11.7076  26281.8  161.529
 11.7496  25926.3  164.397
 11.7916  25877.9  159.54
 11.8336  25611.2  159.6
 11.8756  25551.9  158.955
 11.9176  25687  159.024
 11.9596  25146.1  157.539
 12.0016  25304.1  158.543
 12.0436  24986.7  157.255
 12.0856  24790.8  157.16
 12.1276  24890.7  157.388
 12.1696  24770.7  156.138
 12.2116  25135.4  157.274
 12.2536  24665.6  156.642
 12.2956  24810.3  156.418
 12.3376  24612.5  156.022
 12.3796  24610.6  156.471
 12.4216  24647.8  155.801
 12.4636  24502.1  156.265
 12.5056  24508.4  155.543
 12.5476  24821  156.061
 12.5896  24561  155.871
 12.6316  24399.9  155.532
 12.6736  24494.1  156.495
 12.7156  24233.7  155.351
 12.7576  24454.1  156.292
 12.7996  24568.8  155.293
 12.8416  24279.9  155.433
 12.8836  24674.8  156.42
 12.9256  25017.8  156.603
 12.9676  24934.1  156.765
 13.0096  24915.2  157.831
 13.0516  25078.5  157.36
 13.0936  24962.6  157.412
 13.1356  25597.3  158.36
 13.1776  24954.4  157.35
 13.2196  25236  157.895
 13.2616  25135.5  157.885
 13.3036  25127.7  157.84
 13.3456  25100  158.1
 13.3876  25241.4  157.845
 13.4296  25055.4  157.406
 13.4716  25128.1  157.243
 13.5136  25020.1  157.057
 13.5556  25103.7  157.933
 13.5976  24943.2  157.587
 13.6396  25206.2  157.755
 13.6816  25019.1  157.681
 13.7236  25628  159.228
 13.7656  24716.5  156.917
 13.8076  25036.6  156.693
 13.8496  24576.2  155.858
 13.8916  24749.1  157.403
 13.9336  24911.9  157.132
 13.9756  24627.1  155.585
 14.0176  24603.2  156.189
 14.0596  24407  155.541
 14.1016  24232.2  155.378
 14.1436  24116.7  154.14
 14.1856  24031.8  154.158
 14.2276  23486.7  152.896
 14.2696  23759.9  153.611
 14.3116  23525.4  152.75
 14.3536  23130  151.643
 14.3956  23193.3  151.574
 14.4376  23289.2  151.665
 14.4796  23048.4  150.87
 14.5216  22798.3  150.85
 14.5636  22556.2  149.611
 14.6056  22900.4  150.326
 14.6476  22678.2  148.814
 14.6896  22360.8  148.316
 14.7316  21932.8  147.925
 14.7736  21941.5  147.094
 14.8156  21840.8  146.792
 14.8576  21560.1  145.697
 14.8996  21135.2  145.46
 14.9416  21099  145.336
 14.9836  21130.7  145.403
 15.0256  20942.2  143.653
 15.0676  20978.9  144.232
 15.1096  20717.7  142.935
 15.1516  20324.9  142.143
 15.1936  20136.3  140.899
 15.2356  20102.2  140.943
 15.2776  19937.6  140.063
 15.3196  19531.5  139.641
 15.3616  19657.2  139.837
 15.4036  19412.5  138.818
 15.4456  19872.1  140.104
 15.4876  19410.8  138.143
 15.5296  19244.8  137.844
 15.5716  18878.5  136.116
 15.6136  18961.6  136.753
 15.6556  18936  135.887
 15.6976  18784.5  135.646
 15.7396  18619.9  135.435
 15.7816  18535.6  134.626
 15.8236  18198.1  134.106
 15.8656  18370.8  134.535
 15.9076  17929.3  132.73
 15.9496  17943.4  135.611
 15.9916  18031.7  136.393
 16.0336  17717.3  132.075
 16.0756  17767.9  132.563
 16.1176  17558.8  131.858
 16.1596  17497.9  132.82
 16.2016  17461.8  131.408
 16.2436  17240.2  130.967
 16.2856  17193.6  130.325
 16.3276  16876  129.542
 16.3696  17305.4  130.991
 16.4116  16911.1  129.959
 16.4536  17076.9  130.376
 16.4956  16905.3  129.46
 16.5376  16821.6  129.321
 16.5796  16861.1  128.827
 16.6216  16867.8  129.16
 16.6636  16858  129.272
 16.7056  16834.7  129.056
 16.7476  16957.2  129.044
 16.7896  16873.3  129.485
 16.8316  16723.3  128.876
 16.8736  16742.7  129.222
 16.9156  16653.6  129.202
 16.9576  16578.7  129.726
 16.9996  16712.4  130.737
 17.0416  16851.8  129.608
 17.0836  16836.1  129.3
 17.1256  16254.3  127.074
 17.1676  16493  127.996
 17.2096  16153  126.542
 17.2516  16144.3  126.29
 17.2936  16104.7  126.455
 17.3356  15867.5  125.54
 17.3776  15885  125.791
 17.4196  15904.1  125.554
 17.4616  15697.5  124.66
 17.5036  15777.1  125.336
 17.5456  15536.1  125.033
 17.5876  15454.4  123.74
 17.6296  15574.2  124.039
 17.6716  15312.7  123.565
 17.7136  15180.3  123.18
 17.7556  15253.6  123.756
 17.7976  15284.1  123.629
 17.8396  14948.4  121.761
 17.8816  15275.2  123.628
 17.9236  15255  123.363
 17.9656  15282.3  124.003
 18.0076  15246.4  123.429
 18.0496  15373.6  123.064
 18.0916  15131.9  122.634
 18.1336  15247.7  123.204
 18.1756  15341.5  123.091
 18.2176  14911.5  121.598
 18.2596  15064.7  121.951
 18.3016  15014.9  122.007
 18.3436  15208.2  122.786
 18.3856  14858.2  121.515
 18.4276  15042.3  121.932
 18.4696  14878.2  121.356
 18.5116  15034.5  122.286
 18.5536  14984  122.442
 18.5956  14749.2  121.027
 18.6376  14720.9  121.323
 18.6796  14781.6  120.887
 18.7216  14730.5  121.171
 18.7636  14527.6  120.331
 18.8056  14652.3  120.777
 18.8476  14444.9  120.549
 18.8896  14576.4  120.424
 18.9316  14744.3  121.095
 18.9736  14653.6  120.419
 19.0156  14615.6  120.673
 19.0576  14608.1  119.502
 19.0996  14583.7  120.249
 19.1416  14479.2  120.088
 19.1836  14626.4  120.285
 19.2256  14329.8  119.264
 19.2676  14469.9  119.95
 19.3096  14423.6  119.997
 19.3516  14427.9  119.978
 19.3936  14517.2  120.248
 19.4356  14425.3  119.739
 19.4776  14502.4  120.155
 19.5196  14458.9  119.816
 19.5616  14286.1  119.356
 19.6036  14377.8  119.231
 19.6456  14390.8  119.413
 19.6876  14511.2  119.547
 19.7296  14281.1  119.064
 19.7716  14280.1  119.216
 19.8136  14422.7  120.033
 19.8556  14771.1  120.936
 19.8976  14492.9  119.857
 19.9396  14788.7  120.642
 19.9816  14835  121.14
 20.0236  14978.8  121.883
 20.0656  15157.7  122.599
 20.1076  14840.5  121.798
 20.1496  14608.4  120.84
 20.1916  14375.4  119.39
 20.2336  14358.7  119.244
 20.2756  14190.4  118.977
 20.3176  13925.1  117.608
 20.3596  14021.3  117.98
 20.4016  14028.9  117.823
 20.4436  13864.2  117.684
 20.4856  13636.9  116.523
 20.5276  13629  116.934
 20.5696  13824.3  117.233
 20.6116  13780.9  117.323
 20.6536  13675.5  116.369
 20.6956  13610.1  116.216
 20.7376  13543.7  116.165
 20.7796  13495.5  115.644
 20.8216  13755.2  116.461
 20.8636  13450  115.536
 20.9056  13518.5  115.776
 20.9476  13326.1  114.793
 20.9896  13617  115.901
 21.0316  13579.2  115.626
 21.0736  13492  115.78
 21.1156  13452.6  115.774
 21.1576  13460.9  115.866
 21.1996  13290.6  115.11
 21.2416  13237.6  114.718
 21.2836  13389.7  115.333
 21.3256  13196.2  114.584
 21.3676  13402.1  115.011
 21.4096  13202.6  114.459
 21.4516  13291  114.723
 21.4936  13024.1  113.815
 21.5356  13157.6  114.344
 21.5776  13371.7  115.103
 21.6196  13148.1  114.172
 21.6616  13054  113.849
 21.7036  13154.5  114.068
 21.7456  13416.7  115.276
 21.7876  13081.8  113.574
 21.8296  12987.5  113.02
 21.8716  13019.5  113.395
 21.9136  13376  115.138
 21.9556  13062.6  113.453
 21.9976  13073.9  113.51
 22.0396  12987.6  113.397
 22.0816  12990  113.951
 22.1236  13132.6  114.021
 22.1656  13103.7  114.018
 22.2076  13190.2  113.851
 22.2496  13024.7  113.165
 22.2916  12997.8  112.922
 22.3336  13002.4  113.685
 22.3756  12951  113.174
 22.4176  12975.4  113.136
 22.4596  12858.2  113.213
 22.5016  13039.1  113.488
 22.5436  13137.2  113.798
 22.5856  13200.8  114.329
 22.6276  12809.3  112.795
 22.6696  12992.5  113.919
 22.7116  12957.9  113.275
 22.7536  13093.4  113.834
 22.7956  13076.5  113.083
 22.8376  12882  112.767
 22.8796  12839.8  112.381
 22.9216  13037.7  113.799
 22.9636  12929.5  112.47
 23.0056  13010.7  112.96
 23.0476  12908.9  113.093
 23.0896  13348.8  114.365
 23.1316  12991.4  113.267
 23.1736  12891.6  115.615
 23.2156  13147.5  114.283
 23.2576  12864.3  113.196
 23.2996  12960.9  113.389
 23.3416  12772.3  113.103
 23.3836  12918.1  112.959
 23.4256  12917.7  113.084
 23.4676  12858.8  112.514
 23.5096  12853.5  113.168
 23.5516  12829.8  112.341
 23.5936  12880  113.475
 23.6356  12915.8  113.294
 23.6776  12882.4  113.359
 23.7196  12607.7  111.724
 23.7616  12836.7  112.636
 23.8036  13063  113.69
 23.8456  12860.8  112.352
 23.8876  12485.3  111.072
 23.9296  12447.4  111.385
 23.9716  12530.9  110.948
 24.0136  12730  112.742
 24.0556  12525.9  111.563
 24.0976  12560.2  111.516
 24.1396  12328.3  113.162
 24.1816  12471.4  112.211
 24.2236  12326.8  111.171
 24.2656  12248.9  110.29
 24.3076  12194.1  110.297
 24.3496  12244  110.406
 24.3916  12282.2  110.636
 24.4336  12158.3  110.284
 24.4756  12076.9  109.774
 24.5176  11964.3  108.916
 24.5596  11826.9  108.418
 24.6016  11890  108.994
 24.6436  12026.6  109.1
 24.6856  11906.8  108.315
 24.7276  11903.2  108.617
 24.7696  11767.3  108.113
 24.8116  11796.3  108.424
 24.8536  11679.3  107.883
 24.8956  11548.5  107.016
 24.9376  11649.2  107.421
 24.9796  11602.8  107.561
 25.0216  11453.5  106.984
 25.0636  11722  107.873
 25.1056  11402.2  107.102
 25.1476  11621.9  109.793
 25.1896  11536.7  107.86
 25.2316  11472.3  106.82
 25.2736  11471.6  106.471
 25.3156  11481.4  106.596
 25.3576  11378.4  106.543
 25.3996  11446.2  106.837
 25.4416  11458.4  106.879
 25.4836  11351.5  106.907
 25.5256  11399.5  106.492
 25.5676  11346.6  105.97
 25.6096  11220  105.958
 25.6516  11308.5  105.865
 25.6936  11254.2  105.934
 25.7356  11315.5  106.353
 25.7776  11352.2  106.127
 25.8196  11163.4  105.478
 25.8616  11285.4  105.965
 25.9036  11303.8  105.522
 25.9456  11195.6  105.611
 25.9876  11103.9  105.248
 26.0296  11301.8  105.687
 26.0716  11133.1  105.325
 26.1136  11238.3  105.759
 26.1556  11228.4  105.08
 26.1976  11193.3  105.857
 26.2396  11227.3  105.153
 26.2816  11110.8  105.233
 26.3236  11110.3  105.388
 26.3656  11247.7  105.766
 26.4076  11212.2  105.776
 26.4496  11733.1  107.717
 26.4916  11301.2  105.714
 26.5336  11101.8  105.102
 26.5756  11680.8  107.62
 26.6176  11046.4  104.717
 26.6596  11076.7  105.204
 26.7016  11023.9  104.709
 26.7436  10959.5  104.546
 26.7856  10745.1  103.493
 26.8276  10864.9  104.019
 26.8696  10856.2  103.854
 26.9116  10811.7  103.58
 26.9536  10725.9  103.217
 26.9956  10858.6  103.881
 27.0376  10698.5  103.328
 27.0796  10789.1  103.498
 27.1216  10678.2  103.049
 27.1636  10605.1  102.853
 27.2056  10726.7  103.326
 27.2476  10666.8  103.038
 27.2896  10732.7  103.489
 27.3316  10597.7  102.52
 27.3736  10662.5  103.101
 27.4156  10558.7  102.448
 27.4576  10749.6  103.604
 27.4996  10498  101.982
 27.5416  10494.7  102.279
 27.5836  10502.9  102.129
 27.6256  10775.1  103.619
 27.6676  10783.9  103.672
 27.7096  10454.3  101.943
 27.7516  10462.9  102.141
 27.7936  10469.5  102.355
 27.8356  10524.5  102.231
 27.8776  10322.4  101.294
 27.9196  10265.7  100.861
 27.9616  10393.6  101.681
 28.0036  10494.5  102.146
 28.0456  10338.7  101.514
 28.0876  10338  101.607
 28.1296  10338.8  101.383
 28.1716  10175.3  100.66
 28.2136  10331.3  101.383
 28.2556  10176.2  100.741
 28.2976  10177.7  100.736
 28.3396  10194.8  100.568
 28.3816  10375.1  101.485
 28.4236  10170.9  100.63
 28.4656  10086.6  100.253
 28.5076  10073  99.822
 28.5496  10162.8  100.528
 28.5916  10122.1  100.135
 28.6336  10005.3  99.9045
 28.6756  10178.3  99.9459
 28.7176  10163.7  100.32
 28.7596  10143.6  100.231
 28.8016  10201.1  100.549
 28.8436  9949.36  99.5405
 28.8856  10091.5  100.148
 28.9276  9899.45  99.3896
 28.9696  9922.81  99.1636
 29.0116  9933.67  99.4005
 29.0536  9949.58  99.6856
 29.0956  9992.84  99.616
 29.1376  9949.61  99.3581
 29.1796  9935.3  99.3398
 29.2216  9949.46  99.2448
 29.2636  9926.69  99.2185
 29.3056  9889.97  98.8177
 29.3476  9995.37  99.873
 29.3896  9986.09  99.9124
 29.4316  10092.8  99.7715
 29.4736  9901.9  98.8851
 29.5156  10112.9  99.8424
 29.5576  9847.35  99.2855
 29.5996  9950.48  99.0487
 29.6416  9966.32  99.2504
 29.6836  10078.4  99.7235
 29.7256  9880.22  99.082
 29.7676  9985.7  99.4967
 29.8096  9842.85  98.7291
 29.8516  9773.54  98.7034
 29.8936  9829.27  99.0932
 29.9356  9983.76  99.6185
 29.9776  9750.02  98.6011
 30.0196  9650.66  97.7473
 30.0616  9815.88  98.6921
 30.1036  9854.72  98.7107
 30.1456  9838.59  98.8605
 30.1876  9714.96  98.2246
 30.2296  9681.02  97.9914
 30.2716  9886.32  98.6595
 30.3136  9886.44  99.5346
 30.3556  9800.18  99.1261
 30.3976  9700.18  100.152
 30.4396  9631.43  97.1362
 30.4816  9895.1  98.04
 30.5236  9669.95  96.9401
 30.5656  9681.93  97.6533
 30.6076  9666.33  96.9994
 30.6496  9788.03  97.9985
 30.6916  9618.94  97.2342
 30.7336  9671.08  97.6594
 30.7756  9475.99  96.7598
 30.8176  9708.47  97.8558
 30.8596  9675.13  97.4474
 30.9016  9538.33  97.1071
 30.9436  9708.59  97.7199
 30.9856  9762.47  98.1091
 31.0276  9613.74  96.9428
 31.0696  9428.17  96.5909
 31.1116  9448.11  96.6693
 31.1536  9499.23  96.8043
 31.1956  9474.87  96.7754
 31.2376  9491.08  96.8615
 31.2796  9378.02  95.825
 31.3216  9366.95  95.7129
 31.3636  9563.23  97.4131
 31.4056  9411.08  97.9593
 31.4476  9454.81  96.0608
 31.4896  9437.63  96.4807
 31.5316  9471.58  96.0461
 31.5736  9486.05  95.9531
 31.6156  9345.61  95.2513
 31.6576  9596  96.6204
 31.6996  9675.58  96.6803
 31.7416  9461.03  96.6775
 31.7836  9311.15  94.9213
 31.8256  9278.56  95.0311
 31.8676  9579.77  96.5536
 31.9096  9325.09  95.6198
 31.9516  9106.16  94.6449
 31.9936  9298.59  95.4653
 32.0356  9245.67  95.2635
 32.0776  9425.62  96.0682
 32.1196  9356.25  95.807
 32.1616  9317.86  95.0652
 32.2036  9204.67  95.0034
 32.2456  9235.54  95.5399
 32.2876  9416.43  95.9603
 32.3296  9212.23  94.8785
 32.3716  9205.94  94.9374
 32.4136  9300.43  95.6344
 32.4556  9388.94  95.4638
 32.4976  9370.97  95.271
 32.5396  9234.56  94.6578
 32.5816  9138.3  94.2903
 32.6236  9260.21  94.9797
 32.6656  9329.57  95.8823
 32.7076  9202.69  94.8806
 32.7496  9146.24  94.2567
 32.7916  9184.83  94.4089
 32.8336  9212.92  94.6516
 32.8756  9286.54  94.7507
 32.9176  9093.4  94.2456
 32.9596  9062.99  94.1638
 33.0016  9217.12  94.7515
 33.0436  9262.33  95.1551
 33.0856  9119.06  94.4929
 33.1276  8931.72  93.2474
 33.1696  9237.41  94.6622
 33.2116  9251.61  94.9736
 33.2536  9125.91  94.3328
 33.2956  9155.54  94.5659
 33.3376  9065.51  93.8382
 33.3796  9151.4  94.4879
 33.4216  9163.21  94.1334
 33.4636  9124.71  94.0911
 33.5056  8972.3  93.5457
 33.5476  8976.66  93.5649
 33.5896  9149.29  94.2215
 33.6316  9036.33  93.9697
 33.6736  8960.24  93.7977
 33.7156  8932.24  93.7075
 33.7576  9072.74  94.0623
 33.7996  9122.45  94.0769
 33.8416  8827.2  92.7323
 33.8836  8944.62  93.1216
 33.9256  8921.82  93.0751
 33.9676  9041.12  93.5771
 34.0096  8767.33  92.4768
 34.0516  8852.35  92.5536
 34.0936  8849.73  92.7983
 34.1356  9046.34  93.5649
 34.1776  8924.14  92.9435
 34.2196  8968.17  93.3543
 34.2616  8786.19  92.5412
 34.3036  8738.33  92.5455
 34.3456  8821.63  92.7253
 34.3876  8790.08  92.537
 34.4296  8742.33  91.9543
 34.4716  8883.31  92.8557
 34.5136  8864.19  92.9636
 34.5556  8757.97  92.6493
 34.5976  8927.83  93.356
 34.6396  8776.75  92.391
 34.6816  8756.56  92.2844
 34.7236  8734.75  91.9462
 34.7656  8759.86  92.2728
 34.8076  8657.4  92.0469
 34.8496  8799  92.7337
 34.8916  8749.69  92.2671
 34.9336  8888.8  92.9601
 34.9756  8762.86  92.2256
 35.0176  8888.49  93.426
 35.0596  8663.84  92.0699
 35.1016  8773.52  92.4081
 35.1436  8867.34  92.5793
 35.1856  8555.43  91.0649
 35.2276  8746.95  92.2501
 35.2696  8722.07  92.3119
 35.3116  8678.34  92.1758
 35.3536  8595.42  91.4473
 35.3956  8625.86  91.3167
 35.4376  8608.66  91.777
 35.4796  8591.69  91.7514
 35.5216  8582.59  91.6649
 35.5636  8384.65  91.3436
 35.6056  8613.13  91.584
 35.6476  8705.68  91.9706
 35.6896  8729.61  92.1916
 35.7316  8630.66  91.6382
 35.7736  8576.5  91.5488
 35.8156  8463.7  90.948
 35.8576  8653.26  92.2114
 35.8996  8663.71  92.2356
 35.9416  8608.98  91.4463
 35.9836  8505.44  91.2409
 36.0256  8635.07  91.9489
 36.0676  8669.6  91.8924
 36.1096  8475.32  90.9945
 36.1516  8532.27  91.1903
 36.1936  8587.39  91.3285
 36.2356  8543.41  91.7457
 36.2776  8534.4  91.1665
 36.3196  8599.57  91.1799
 36.3616  8580.09  91.2072
 36.4036  8563.46  91.1718
 36.4456  8533.89  91.234
 36.4876  8392.84  90.413
 36.5296  8429.92  90.6525
 36.5716  8556.18  92.1263
 36.6136  8565.59  90.9261
 36.6556  8589.13  91.252
 36.6976  8470.84  91.1255
 36.7396  8485  91.1031
 36.7816  8532.9  91.5667
 36.8236  8491.65  91.2683
 36.8656  8409.93  90.903
 36.9076  8328.09  90.3341
 36.9496  8405.89  90.7388
 36.9916  8462.41  90.6704
 37.0336  8621.42  91.8394
 37.0756  8510.13  91.0337
 37.1176  8401.72  90.7248
 37.1596  8410.49  90.7671
 37.2016  8319.89  90.5165
 37.2436  8410.37  90.3165
 37.2856  8356.76  90.2883
 37.3276  8465.23  90.2108
 37.3696  8350.78  90.4973
 37.4116  8392.93  90.6183
 37.4536  8321.96  89.9583
 37.4956  8336.56  90.2288
 37.5376  8364.62  91.9666
 37.5796  8387.87  92.0566
 37.6216  8144.9  88.9725
 37.6636  8266.65  89.5397
 37.7056  8138.16  89.0167
 37.7476  8235.58  89.1006
 37.7896  8133.43  89.0281
 37.8316  8156.16  89.3454
 37.8736  8399.14  90.1686
 37.9156  8086.78  88.481
 37.9576  8187.53  88.9289
 37.9996  8279.45  89.131
 38.0416  8113.71  89.0443
 38.0836  8334.23  90.1589
 38.1256  8213.53  89.4461
 38.1676  8099.92  88.9744
 38.2096  8190.44  89.0942
 38.2516  8392.2  90.3831
 38.2936  8186.94  89.0821
 38.3356  8335.85  89.782
 38.3776  8153.81  89.0805
 38.4196  8223.01  89.309
 38.4616  8125.95  89.0269
 38.5036  8295.23  89.7891
 38.5456  8097.94  89.5552
 38.5876  8122.96  89.8983
 38.6296  8011.51  88.0896
 38.6716  8047.56  88.0802
 38.7136  8023.51  87.8909
 38.7556  7963.65  88.0643
 38.7976  8138.37  88.9658
 38.8396  8112.1  89.0784
 38.8816  8053.06  88.7228
 38.9236  7984.14  88.1629
 38.9656  7968.62  87.9904
 39.0076  8141.98  88.3423
 39.0496  8069.11  88.4957
 39.0916  8063.86  88.1037
 39.1336  8003.93  88.1932
 39.1756  8165.52  89.1473
 39.2176  8039.25  88.9814
 39.2596  7917.53  88.2358
 39.3016  7991.65  88.1476
 39.3436  7949.87  88.4131
 39.3856  8114.91  88.768
 39.4276  8042.94  88.8691
 39.4696  8075.96  88.6784
 39.5116  7929.67  88.3894
 39.5536  8199.3  90.2989
 39.5956  8111.53  88.9012
 39.6376  8151.51  89.1221
 39.6796  8047.14  88.2918
 39.7216  8185.85  89.1435
 39.7636  8089.72  89.1991
 39.8056  8138.86  89.2499
 39.8476  8025.45  88.8748
 39.8896  8056.87  88.688
 39.9316  8011.6  88.6863
 39.9736  8107.14  88.8555
 40.0156  8054.66  88.3084
 40.0576  8091.85  88.8803
 40.0996  8143.77  88.3374
 40.1416  8116.91  89.0007
 40.1836  8053.49  88.5232
 40.2256  8126.54  88.9843
 40.2676  8059.17  88.7206
 40.3096  8181.39  89.3037
 40.3516  8125.12  89.1125
 40.3936  8144.5  88.776
 40.4356  8214.57  89.3554
 40.4776  8215.77  89.7721
 40.5196  8237.8  89.9477
 40.5616  8287.57  89.942
 40.6036  8047.67  88.8765
 40.6456  8142.06  88.9988
 40.6876  8250.65  89.5815
 40.7296  8240.75  89.5459
 40.7716  8203.56  89.5895
 40.8136  8092.08  88.9287
 40.8556  8029.58  88.7238
 40.8976  8182.66  89.4805
 40.9396  8027.39  88.9841
 40.9816  8097.7  88.6437
 41.0236  8168.01  88.8042
 41.0656  8152.83  89.2721
 41.1076  8215.39  89.375
 41.1496  8112.15  88.7244
 41.1916  8084.07  88.8972
 41.2336  8053.65  88.7235
 41.2756  8212.42  89.19
 41.3176  8133.03  89.3817
 41.3596  8175.15  89.3312
 41.4016  8139.89  89.4029
 41.4436  8125.29  89.1121
 41.4856  8148.18  89.3989
 41.5276  8088.29  89.0903
 41.5696  8107.63  88.8258
 41.6116  8071.3  89.0271
 41.6536  8113.14  89.1107
 41.6956  8076.33  88.9689
 41.7376  8157.12  89.4331
 41.7796  8016.6  88.5435
 41.8216  8101.66  89.2483
 41.8636  8050.37  88.9031
 41.9056  8099.76  88.9657
 41.9476  8060.22  88.8732
 41.9896  8014.12  88.4043
 42.0316  8081.52  88.8449
 42.0736  7998.53  88.5056
 42.1156  8092.48  88.856
 42.1576  8055.69  88.7286
 42.1996  8208.88  89.7395
 42.2416  8037.02  88.3677
 42.2836  7956.41  88.0412
 42.3256  7871.69  87.6871
 42.3676  8061.27  88.5443
 42.4096  8022.96  88.2931
 42.4516  7989.98  88.2019
 42.4936  7948.15  88.0332
 42.5356  7976.23  88.3183
 42.5776  8100.54  88.9508
 42.6196  8082.78  88.9038
 42.6616  7888.88  88.0064
 42.7036  7942.53  87.6839
 42.7456  7968.75  88.1936
 42.7876  7920.91  88.0237
 42.8296  7962  88.0828
 42.8716  7878.3  87.7793
 42.9136  7946.03  87.9444
 42.9556  8065.95  88.7386
 42.9976  8006.13  88.3676
 43.0396  7952.09  87.8033
 43.0816  7942.27  88.1282
 43.1236  7918.3  88.0569
 43.1656  7886.55  87.7093
 43.2076  7874.57  87.7444
 43.2496  7804.01  87.16
 43.2916  7857.37  87.8326
 43.3336  7862.45  87.6982
 43.3756  7863.67  87.4611
 43.4176  7784.03  87.0954
 43.4596  7782.44  86.9419
 43.5016  7830.1  87.6145
 43.5436  7822.74  87.4697
 43.5856  7820.9  87.4852
 43.6276  7774.37  87.1204
 43.6696  7829.07  87.6866
 43.7116  7961.07  87.9163
 43.7536  7929.77  88.2378
 43.7956  7720.46  88.2537
 43.8376  7809.34  87.2877
 43.8796  7848.31  87.5797
 43.9216  7853.61  87.5287
 43.9636  7835.11  87.5323
 44.0056  7923.75  88.2663
 44.0476  7683.55  86.5455
 44.0896  7640.32  86.6485
 44.1316  7759.03  86.8357
 44.1736  7672.92  86.4725
 44.2156  7751.69  86.773
 44.2576  7837.06  87.5836
 44.2996  7711.56  86.8522
 44.3416  7741.91  86.7786
 44.3836  7564.46  86.1058
 44.4256  7645.98  86.2068
 44.4676  7679.55  86.5564
 44.5096  7718.27  86.9206
 44.5516  7669.9  86.6066
 44.5936  7583.61  86.0748
 44.6356  7756.55  86.7842
 44.6776  7696.07  86.6863
 44.7196  7578.28  86.4072
 44.7616  7703.55  88.4743
 44.8036  7629.88  86.4569
 44.8456  7538.41  86.1468
 44.8876  7561.09  86.1293
 44.9296  7700.49  86.3678
 44.9716  7596.83  86.223
 45.0136  7635.05  86.3684
 45.0556  7599.78  86.1416
 45.0976  7409.87  85.2128
 45.1396  7402.24  84.9296
 45.1816  7563.25  85.7778
 45.2236  7700.73  86.4653
 45.2656  7441.83  85.4917
 45.3076  7479.12  85.4984
 45.3496  7467.41  85.7274
 45.3916  7430.51  85.7887
 45.4336  7457.47  85.7992
 45.4756  7422.09  85.4429
 45.5176  7500.31  85.5125
 45.5596  7763.54  87.1159
 45.6016  7423.17  85.6061
 45.6436  7398.95  84.6503
 45.6856  7375.72  85.1705
 45.7276  7396.77  86.6128
 45.7696  7480.01  86.7527
 45.8116  7527.15  86.4742
 45.8536  7452.85  85.9426
 45.8956  7444.55  85.2441
 45.9376  7528.91  85.1884
 45.9796  7540.82  85.9394
 46.0216  7495.15  86.0323
 46.0636  7490.29  85.1425
 46.1056  7599.65  85.7453
 46.1476  7523.22  85.9132
 46.1896  7476.72  85.7968
 46.2316  7520.8  85.9163
 46.2736  7322.36  85.1442
 46.3156  7392.78  85.1385
 46.3576  7493.87  85.9238
 46.3996  7427.49  85.7026
 46.4416  7449.79  85.402
 46.4836  7344.61  85.1559
 46.5256  7343.73  85.0825
 46.5676  7438.17  85.7486
 46.6096  7363.68  85.2554
 46.6516  7534.69  85.2701
 46.6936  7519.48  85.6773
 46.7356  7327.49  84.6829
 46.7776  7264.45  85.1478
 46.8196  7335.37  85.1655
 46.8616  7113.27  83.801
 46.9036  7285.88  84.4751
 46.9456  7311.59  84.2627
 46.9876  7256.75  84.035
 47.0296  7298.62  84.9578
 47.0716  7215.06  84.2981
 47.1136  7249.3  84.176
 47.1556  7291.68  84.2809
 47.1976  7359.72  84.77
 47.2396  7213.15  84.3031
 47.2816  7270.87  84.3445
 47.3236  7234.81  84.5135
 47.3656  7303.67  84.8386
 47.4076  7290.64  84.5582
 47.4496  7215.52  84.2239
 47.4916  7174.82  84.1754
 47.5336  7305.74  84.7512
 47.5756  7311.65  84.9085
 47.6176  7122.55  83.6942
 47.6596  7180.46  83.7511
 47.7016  7296.42  84.2365
 47.7436  7282.68  84.4995
 47.7856  7313.71  84.7199
 47.8276  7131.57  83.694
 47.8696  7178.36  84.0553
 47.9116  7205.99  83.932
 47.9536  7216.6  83.928
 47.9956  7042.56  83.6183
 48.0376  6996.17  83.1179
 48.0796  7207.62  84.4935
 48.1216  7279.05  84.7257
 48.1636  7312.02  84.4999
 48.2056  7295.84  84.6665
 48.2476  7255.78  84.7474
 48.2896  7255.99  84.6536
 48.3316  7122.54  83.811
 48.3736  7095.78  83.6793
 48.4156  7115.52  83.6455
 48.4576  7066.53  83.651
 48.4996  7206.18  83.9266
 48.5416  7237.56  84.4413
 48.5836  7202.98  83.9127
 48.6256  7128.29  83.6844
 48.6676  7075.38  83.8818
 48.7096  7107  83.3309
 48.7516  7166.4  83.8343
 48.7936  7036.66  83.1314
 48.8356  7060.7  83.3283
 48.8776  7052.73  83.8475
 48.9196  7166.63  83.9019
 48.9616  7123.59  84.0175
 49.0036  7035.81  83.8557
 49.0456  7010.63  83.6798
 49.0876  7025.82  83.2949
 49.1296  6994.05  83.2854
 49.1716  6946.7  82.8605
 49.2136  7008.94  83.1767
 49.2556  7006.7  83.2965
 49.2976  7060.45  83.5741
 49.3396  6844.56  82.3351
 49.3816  7027.4  82.8765
 49.4236  7007.96  83.1719
 49.4656  6925  82.6544
 49.5076  7073.61  83.3243
 49.5496  6898.11  82.3528
 49.5916  7024.74  83.0226
 49.6336  7026.24  83.2398
 49.6756  6948.35  83.0049
 49.7176  6972.4  83.0823
 49.7596  6973.7  82.8638
 49.8016  7075.83  83.3915
 49.8436  6877.5  82.4986
 49.8856  6976.59  83.1006
 49.9276  6856.58  82.4803
 49.9696  6937.83  82.956
 50.0116  6986.57  83.3702
 50.0536  6901.66  82.814
 50.0956  6848.67  82.5665
 50.1376  6939.82  82.8139
 50.1796  6907.06  82.886
 50.2216  6865.14  82.6346
 50.2636  6833.22  82.0567
 50.3056  6869.97  82.4512
 50.3476  6870.34  82.4736
 50.3896  6882.15  82.5201
 50.4316  6839.59  82.1001
 50.4736  6814.86  82.169
 50.5156  6905.64  82.7038
 50.5576  6908.8  82.4776
 50.5996  6829.08  82.3987
 50.6416  6880.8  82.5201
 50.6836  6848.65  82.3995
 50.7256  6920.38  82.7538
 50.7676  6881.12  82.8378
 50.8096  6831.09  82.0642
 50.8516  6675.07  81.5325
 50.8936  6792.38  82.0234
 50.9356  6855.32  82.5116
 50.9776  6884.55  82.8336
 51.0196  6707.37  81.8891
 51.0616  6706.54  81.2153
 51.1036  6840.66  82.3742
 51.1456  6853.8  82.3705
 51.1876  6770.8  81.2118
 51.2296  6696.95  81.5145
 51.2716  6738.43  81.3489
 51.3136  6684.54  81.4849
 51.3556  6724.13  81.35
 51.3976  6758.07  81.7097
 51.4396  6556.65  80.7764
 51.4816  6649.9  81.206
 51.5236  6759.48  81.9786
 51.5656  6680.25  81.0847
 51.6076  6823.32  82.0349
 51.6496  6736.11  81.6936
 51.6916  6785.2  82.353
 51.7336  6746.72  82.2069
 51.7756  6628  81.1843
 51.8176  6614.09  81.2037
 51.8596  6619.44  81.2408
 51.9016  6781.39  81.8472
 51.9436  6664.11  82.5976
 51.9856  6632.7  82.8436
 52.0276  6751.73  82.0804
 52.0696  6669.53  81.6466
 52.1116  6675.26  81.7814
 52.1536  6659.52  81.5853
 52.1956  6687.26  81.2032
 52.2376  6754.78  81.7999
 52.2796  6598.16  80.6583
 52.3216  6717.34  82.0738
 52.3636  6578.19  80.8063
 52.4056  6517.38  80.2803
 52.4476  6512.28  80.6186
 52.4896  6523.78  80.7431
 52.5316  6577.06  81.1253
 52.5736  6601.1  80.9811
 52.6156  6444.45  80.409
 52.6576  6666.78  81.2087
 52.6996  6407.88  80.579
 52.7416  6699.96  82.2463
 52.7836  6535.27  81.1239
 52.8256  6630.58  80.9289
 52.8676  6429.32  80.2595
 52.9096  6579.43  81.2774
 52.9516  6575.47  81.6161
 52.9936  6502.26  81.5586
 53.0356  6531.51  80.7524
 53.0776  6459.63  80.5688
 53.1196  6401.23  80.3279
 53.1616  6471.62  80.8159
 53.2036  6368.02  80.1228
 53.2456  6399.04  80.4139
 53.2876  6324  79.6531
 53.3296  6388.62  80.3836
 53.3716  6460.36  80.5837
 53.4136  6502.45  80.9901
 53.4556  6328.91  79.9336
 53.4976  6339.06  79.8473
 53.5396  6325.08  80.1437
 53.5816  6403.08  80.2759
 53.6236  6307.42  79.9381
 53.6656  6405.66  80.2631
 53.7076  6411.15  80.2594
 53.7496  6410.69  80.3783
 53.7916  6538.87  81.2934
 53.8336  6375.4  80.1796
 53.8756  6338.22  80.4926
 53.9176  6413.6  80.3113
 53.9596  6466.17  81.3954
 54.0016  6362.47  80.0821
 54.0436  6351.19  80.2203
 54.0856  6443.78  80.2297
 54.1276  6357.29  79.8918
 54.1696  6363.43  80.1021
 54.2116  6438.76  80.3341
 54.2536  6425.06  80.0519
 54.2956  6401.07  79.8978
 54.3376  6422.19  80.5749
 54.3796  6377.76  80.1927
 54.4216  6465.16  80.7912
 54.4636  6373.08  80.2224
 54.5056  6445.83  80.4476
 54.5476  6265.67  79.6451
 54.5896  6480.73  80.8323
 54.6316  6307.29  79.6025
 54.6736  6411.42  80.3303
 54.7156  6405.66  80.3117
 54.7576  6241.82  79.2817
 54.7996  6239.38  79.4005
 54.8416  6423.77  80.517
 54.8836  6275.15  79.7926
 54.9256  6364.5  80.1014
 54.9676  6409.5  80.2418
 55.0096  6426.97  80.4218
 55.0516  6369.31  80.2916
 55.0936  6336.29  79.7077
 55.1356  6299.88  79.5298
 55.1776  6265.61  79.5842
 55.2196  6332.89  79.8449
 55.2616  6244.06  79.444
 55.3036  6260.43  79.702
 55.3456  6261.08  79.8494
 55.3876  6299.17  79.842
 55.4296  6364.85  80.2604
 55.4716  6281.79  79.7426
 55.5136  6332.81  79.8168
 55.5556  6256.66  79.4122
 55.5976  6278.16  79.5996
 55.6396  6252.36  79.3941
 55.6816  6331.2  79.7576
 55.7236  6376.98  80.0899
 55.7656  6382.22  79.8825
 55.8076  6365.98  79.759
 55.8496  6399.61  80.2979
 55.8916  6297.98  79.8632
 55.9336  6196.11  79.0363
 55.9756  6250.38  79.2647
 56.0176  6374.62  80.2046
 56.0596  6295.84  79.6948
 56.1016  6307.76  79.7697
 56.1436  6243.84  79.6365
 56.1856  6272.67  79.5572
 56.2276  6257.55  79.5224
 56.2696  6277.38  79.6458
 56.3116  6282.05  80.0561
 56.3536  6241.38  79.452
 56.3956  6352.55  80.1467
 56.4376  6202.37  79.2247
 56.4796  6336.82  79.878
 56.5216  6309.95  80.0815
 56.5636  6353.58  79.9455
 56.6056  6229.56  79.3967
 56.6476  6323.88  79.6221
 56.6896  6266.3  79.7122
 56.7316  6276.27  79.6823
 56.7736  6316.17  79.9263
 56.8156  6314.46  79.9102
 56.8576  6179.88  78.9923
 56.8996  6173.6  78.9038
 56.9416  6188.83  79.3006
 56.9836  6201  78.8922
 57.0256  6240.55  79.4649
 57.0676  6206.51  79.3712
 57.1096  6264.26  79.5258
 57.1516  6265.34  79.5902
 57.1936  6212.19  79.0033
 57.2356  6268.57  79.6796
 57.2776  6300.93  79.8425
 57.3196  6260.83  79.7537
 57.3616  6320.19  79.8289
 57.4036  6276.82  79.6161
 57.4456  6169.67  78.9036
 57.4876  6337.54  79.8119
 57.5296  6154.45  78.9999
 57.5716  6130.54  78.8369
 57.6136  6269.94  79.5445
 57.6556  6243.64  79.5208
 57.6976  6230.12  79.1651
 57.7396  6179.88  79.3063
 57.7816  6114.07  79.2397
 57.8236  6165.85  79.3738
 57.8656  6186.45  79.1585
 57.9076  6236.4  79.5072
 57.9496  6172.51  79.452
 57.9916  6161.8  78.8988
 58.0336  6255.94  79.7707
 58.0756  6096.11  78.3885
 58.1176  6241.57  79.3111
 58.1596  6132.38  79.1865
 58.2016  6324.31  79.611
 58.2436  6261.82  79.6346
 58.2856  6178.8  79.0252
 58.3276  6230.44  79.733
 58.3696  6195.83  79.2599
 58.4116  6244.14  79.4235
 58.4536  6275.12  79.5104
 58.4956  6196.01  79.1873
 58.5376  6295.31  79.5174
 58.5796  6284.25  79.7427
 58.6216  6227.65  79.1989
 58.6636  6307.05  79.9206
 58.7056  6170.72  78.9099
 58.7476  6212.56  79.6282
 58.7896  6157.91  78.9185
 58.8316  6243.18  79.5673
 58.8736  6207.93  79.2381
 58.9156  6242.49  79.5086
 58.9576  6275.17  80.0373
 58.9996  6384.42  79.9615
 59.0416  6367.71  80.2164
 59.0836  6296.36  79.703
 59.1256  6188.89  79.7211
 59.1676  6216.01  80.2107
 59.2096  6274.69  79.8793
 59.2516  6432.67  80.4463
 59.2936  6101.18  78.6758
 59.3356  6130.16  78.7393
 59.3776  6267.99  79.7917
 59.4196  6148.12  78.9609
 59.4616  6364.05  80.1913
 59.5036  6184.4  79.0874
 59.5456  6525.94  80.923
 59.5876  6271.12  79.522
 59.6296  6255.07  79.4906
 59.6716  6192.48  79.1506
 59.7136  6220.02  79.3145
 59.7556  6129.45  78.8724
 59.7976  6028.33  77.9615
 59.8396  6481.85  80.7314
 59.8816  6278.72  80.0115
 59.9236  6323.96  79.9355
 59.9656  6209.76  79.4749
 60.0076  6221.5  78.8977
 60.0496  6218.88  79.3923
 60.0916  6355.06  79.6601
 60.1336  6201.99  79.8167
 60.1756  6165.96  80.7809
 60.1996  0.0000000E+00  0.0000000E+00