File: docs/examples/opeando_xrd/IS17_D/Data/IS17_D/17_Da_f00090.xye
# /beamlines/bl04/projects/cycle2025-II/20250340211-lsimonelli/DATA/IS17_D/17_Da_f00090.xye : mythproc.py merge -s 0.006 -l 0.5 -f /beamlines/bl04/inhouse/ff/FlatField/ff_20Nov2024rod8mm60s_17keV.raw -b True -c true -o xye /beamlines/bl04/projects/cycle2025-II/20250340211-lsimonelli/DATA/IS17_D/17_Da_00090.dat
# IsMon = [6770841, 6792112, 6797971]  IsPos = [-1.4999, -2.4884, -3.4988]
# Wave = 0.4962  CalPath /beamlines/bl04/projects/cycle2025-II/20250340211-lsimonelli/DATA/Align/Si_Pos1_25keV_f00001.cal
# Date = 2025-09-24_18:37:05 Dt = 4.8000  Bin = 0.0060  <imon> = 6786975 +/- 11656 (Min/Max) 6770841 / 6797971
# icurr 252.0160  mocoIn 1.7058E-05  mocoOut 0.8057  i15 7.10485e+06  imon 6.78697e+06  i7 6.0000  iEMpd_timer 4.8000  iEMpd_1 3.4510E-08  iEMpd_2 7.7362E-08  iEMpd_3 1.5878E-08  iEMpd_4 4.7251E-08  iEMhp_timer 4.8000  iEMhp_1 4.9309E-06  iEMhp_2 -2.4770E-08  iEMhp_3 -2.4063E-08  iEMhp_4 -2.1106E-08
#      9776
 1.5856  40315.8  206.423
 1.6276  47747  220.788
 1.6696  54395  234.827
 1.7116  62771.1  252.754
 1.7536  71563  268.725
 1.7956  77016.5  279.473
 1.8376  73534.6  273.515
 1.8796  60986.3  247.259
 1.9216  49373.4  223.358
 1.9636  41512  203.966
 2.0056  37619.5  193.416
 2.0476  34230.7  186.521
 2.0896  33635.4  183.808
 2.1316  32254.3  179.129
 2.1736  30314  175.036
 2.2156  31478.3  176.934
 2.2576  29927.1  173.138
 2.2996  28735.4  170.278
 2.3416  29213.2  170.316
 2.3836  28811  169.245
 2.4256  27686.3  166.45
 2.4676  27045  164.278
 2.5096  27198.4  164.797
 2.5516  26657.8  166.804
 2.5936  26621  163.32
 2.6356  26037  162.198
 2.6776  26226.6  161.673
 2.7196  25608.7  160.279
 2.7616  25605.6  160.046
 2.8036  25234.1  159.053
 2.8456  25157.1  159.422
 2.8876  24756.6  157.985
 2.9296  24195.5  156.348
 2.9716  24337.4  156.302
 3.0136  23801.7  154.635
 3.0556  24101.1  156.003
 3.0976  23687.7  153.641
 3.1396  23607.2  154.061
 3.1816  23509.7  153.669
 3.2236  23317.9  153.041
 3.2656  23407.8  152.333
 3.3076  23387  153.758
 3.3496  23606  153.38
 3.3916  23840.7  154.007
 3.4336  24219.1  155.799
 3.4756  24700.4  157.307
 3.5176  25365.4  159.162
 3.5596  25542.2  162.126
 3.6016  25660.9  160.08
 3.6436  24751.4  158.3
 3.6856  24375.3  155.409
 3.7276  23448.2  153.496
 3.7696  23350.6  153.352
 3.8116  22765.7  151.34
 3.8536  22999.9  152.054
 3.8956  22816.3  151.267
 3.9376  22832.5  151.57
 3.9796  22678.3  150.572
 4.0216  22947.6  150.486
 4.0636  22833.8  151.603
 4.1056  22873.2  151.354
 4.1476  22997.1  152.139
 4.1896  23150.3  152.461
 4.2316  23384.4  153.067
 4.2736  23786  154.152
 4.3156  24162  155.558
 4.3576  24907.9  157.905
 4.3996  25013.6  158.482
 4.4416  25578.9  159.861
 4.4836  26007  161.327
 4.5256  26394  163.2
 4.5676  26558.1  163.916
 4.6096  26917.2  163.721
 4.6516  27580.9  165.39
 4.6936  27548.4  166.074
 4.7356  27644  166.224
 4.7776  27901.3  166.787
 4.8196  27521.9  166.389
 4.8616  27164.8  164.723
 4.9036  26625.1  162.882
 4.9456  26780.2  163.962
 4.9876  26033.7  161.563
 5.0296  26557.5  162.985
 5.0716  26392.4  163.238
 5.1136  26520.9  163.369
 5.1556  26777.2  163.582
 5.1976  27030  164.435
 5.2396  27230.6  164.691
 5.2816  27191.7  165.083
 5.3236  27368.7  165.277
 5.3656  26829  164.562
 5.4076  26784.4  164.578
 5.4496  26772.4  163.983
 5.4916  27087.1  164.741
 5.5336  26951.9  164.296
 5.5756  26840.4  164.073
 5.6176  27016.9  163.998
 5.6596  27064.9  165.164
 5.7016  27561.2  165.884
 5.7436  27508.3  165.995
 5.7856  27369.6  165.638
 5.8276  27805.8  166.639
 5.8696  27946.3  167.266
 5.9116  27871.1  167.651
 5.9536  28011.3  167.87
 5.9956  28494.2  168.614
 6.0376  28415.5  169.03
 6.0796  28648.2  169.55
 6.1216  28761.9  170.052
 6.1636  28878.4  169.494
 6.2056  28779  169.829
 6.2476  28941  170.219
 6.2896  29212.9  170.694
 6.3316  29190.2  170.852
 6.3736  29086.3  170.394
 6.4156  29231.1  170.762
 6.4576  29472.9  171.024
 6.4996  29549.8  171.687
 6.5416  29438.3  171.539
 6.5836  29741.9  172.612
 6.6256  29582.5  171.752
 6.6676  30319.9  173.446
 6.7096  30092.8  173.697
 6.7516  30439.3  174.299
 6.7936  30599.5  174.198
 6.8356  30596.5  174.252
 6.8776  31082.2  176.398
 6.9196  30879.5  176.264
 6.9616  31575.5  177.659
 7.0036  31986.8  178.479
 7.0456  31774.8  177.182
 7.0876  31688.4  178.631
 7.1296  31749.1  177.941
 7.1716  31693.3  177.331
 7.2136  31525.2  176.633
 7.2556  31831  177.65
 7.2976  31899.1  178.34
 7.3396  31761.2  178.149
 7.3816  31600  177.929
 7.4236  31960.3  178.225
 7.4656  32142.3  178.222
 7.5076  32299.3  178.789
 7.5496  32185.9  178.979
 7.5916  32293.9  179.341
 7.6336  32652.6  180.232
 7.6756  32806.6  180.511
 7.7176  33108.4  181.668
 7.7596  32985.1  182.56
 7.8016  33183.3  185.308
 7.8436  33584.9  182.974
 7.8856  34222.5  184.314
 7.9276  34692.7  185.956
 7.9696  34950.4  186.973
 8.0116  36126.4  188.612
 8.0536  36128.2  188.88
 8.0956  35907.2  189.493
 8.1376  36569.2  190.683
 8.1796  36791  191.822
 8.2216  37153.8  191.491
 8.2636  37615.9  192.926
 8.3056  37299  192.872
 8.3476  37998.6  194.012
 8.3896  37668.9  193.248
 8.4316  37986.6  194.226
 8.4736  38114.2  194.017
 8.5156  37567.9  192.895
 8.5576  37310.6  193.224
 8.5996  37357.3  192.2
 8.6416  37387.5  193.556
 8.6836  37103.2  192.624
 8.7256  37614  193.416
 8.7676  36722.3  194.045
 8.8096  36789.7  191.619
 8.8516  36819.1  191.311
 8.8936  36306.7  189.858
 8.9356  36172.9  189.91
 8.9776  36590.7  191.049
 9.0196  36207.8  189.784
 9.0616  36414.4  189.74
 9.1036  35831.1  189.392
 9.1456  36050  189.263
 9.1876  35857.5  188.771
 9.2296  36105.6  188.76
 9.2716  35463.4  187.195
 9.3136  35602  187.544
 9.3556  35351.5  186.879
 9.3976  34045.6  183.971
 9.4396  34570.9  185.213
 9.4816  34111.8  183.906
 9.5236  34387.7  184.495
 9.5656  33996.8  183.77
 9.6076  33850.8  183.844
 9.6496  33737.1  183.519
 9.6916  33990.4  184.121
 9.7336  33715.6  183.213
 9.7756  33935.5  185
 9.8176  33189.9  182.556
 9.8596  32882.8  180.169
 9.9016  32456.8  178.991
 9.9436  32222.9  178.257
 9.9856  31905.2  177.597
 10.0276  31495.5  177.553
 10.0696  32027.5  178.087
 10.1116  30825.2  174.974
 10.1536  30692.6  174.763
 10.1956  30764  174.569
 10.2376  30158.4  172.389
 10.2796  30145.5  172.435
 10.3216  30022.8  172.348
 10.3636  30047.3  172.449
 10.4056  29849.7  172.236
 10.4476  29850.7  171.911
 10.4896  29799.9  171.217
 10.5316  29195.7  170.178
 10.5736  29182.1  170.555
 10.6156  28858.9  169.41
 10.6576  29024.8  168.413
 10.6996  28655.7  167.994
 10.7416  28057.4  166.475
 10.7836  28620.6  168.759
 10.8256  28138.8  167.783
 10.8676  28153.6  167.335
 10.9096  27666.4  165.957
 10.9516  27594.2  164.652
 10.9936  27475  164.508
 11.0356  27220.2  164.365
 11.0776  27266.9  163.811
 11.1196  26622.3  162.609
 11.1616  26588.3  162.18
 11.2036  26591.9  162.063
 11.2456  26492.6  162.452
 11.2876  26487.5  162.223
 11.3296  26104.8  160.907
 11.3716  26513.1  161.862
 11.4136  26707.1  163.343
 11.4556  26749.7  163.108
 11.4976  26937.7  162.673
 11.5396  27282.9  163.867
 11.5816  26884.3  163.145
 11.6236  26409.3  161.902
 11.6656  26037  159.973
 11.7076  25616.2  159.468
 11.7496  25321.6  162.475
 11.7916  25174.3  157.356
 11.8336  25004.8  157.675
 11.8756  24887.7  156.874
 11.9176  25108.8  157.203
 11.9596  24418.9  155.273
 12.0016  24742.2  157.055
 12.0436  24475.2  155.675
 12.0856  24375.2  155.836
 12.1276  24554.4  156.324
 12.1696  24422.9  155.035
 12.2116  24739.4  155.999
 12.2536  24235.5  155.267
 12.2956  24188.9  154.42
 12.3376  24142.2  154.559
 12.3796  24281.6  155.404
 12.4216  24055.8  153.915
 12.4636  23890.4  154.286
 12.5056  24152.9  154.41
 12.5476  24393.1  154.71
 12.5896  24090.4  154.341
 12.6316  23758  153.51
 12.6736  24032.2  154.827
 12.7156  23726  153.753
 12.7576  24078.4  155.089
 12.7996  24148.6  153.956
 12.8416  23845.1  154.032
 12.8836  24341.8  155.424
 12.9256  24590  155.258
 12.9676  24626.2  155.764
 13.0096  24191.1  155.553
 13.0516  24495.5  155.524
 13.0936  24557.8  156.169
 13.1356  24826.6  155.955
 13.1776  24521.7  155.988
 13.2196  24699.5  156.204
 13.2616  24696.5  156.473
 13.3036  24558.1  156.04
 13.3456  24634.4  156.601
 13.3876  24491.1  155.519
 13.4296  24361.3  155.213
 13.4716  24572.2  155.488
 13.5136  24739.9  156.18
 13.5556  24747.6  156.797
 13.5976  24726.5  156.891
 13.6396  24864.5  156.657
 13.6816  24432  155.814
 13.7236  25168.7  157.799
 13.7656  24253.3  155.473
 13.8076  24577.6  155.249
 13.8496  24168.4  154.592
 13.8916  24242.1  155.779
 13.9336  24346.3  155.304
 13.9756  24100  153.908
 14.0176  23997.4  154.222
 14.0596  23955  154.094
 14.1016  23835.6  154.095
 14.1436  23488.1  152.151
 14.1856  23263.8  151.676
 14.2276  22969.5  151.233
 14.2696  23645.6  153.242
 14.3116  23002.4  151.01
 14.3536  22782.2  150.498
 14.3956  22687.3  149.897
 14.4376  22794.1  150.039
 14.4796  22703  149.738
 14.5216  22274.8  149.107
 14.5636  22011.3  147.79
 14.6056  22309.3  148.377
 14.6476  22344.4  147.715
 14.6896  21937  146.901
 14.7316  21404.2  146.129
 14.7736  21504  145.607
 14.8156  21245.9  144.773
 14.8576  21204.2  144.482
 14.8996  20825.3  144.393
 14.9416  20580.5  143.544
 14.9836  20687.8  143.838
 15.0256  20383.9  141.662
 15.0676  20398.6  142.03
 15.1096  20278.8  141.351
 15.1516  20031.4  141.051
 15.1936  20058.2  140.563
 15.2356  19554.1  139.064
 15.2776  19824.1  139.603
 15.3196  19265.2  138.625
 15.3616  19242.2  138.287
 15.4036  19087.4  137.593
 15.4456  19322.9  138.09
 15.4876  18996.6  136.6
 15.5296  18849.4  136.361
 15.5716  18732.4  135.531
 15.6136  18590.5  135.353
 15.6556  18504.8  134.272
 15.6976  18334.6  133.956
 15.7396  18386.2  134.517
 15.7816  18178.9  133.274
 15.8236  18046.2  133.482
 15.8656  18115.7  133.536
 15.9076  17803.5  132.206
 15.9496  17589.4  134.296
 15.9916  17673.3  135.019
 16.0336  17244.6  130.357
 16.0756  17333.8  130.957
 16.1176  17286.8  130.853
 16.1596  16925.7  130.648
 16.2016  17193.7  130.373
 16.2436  16963.4  129.935
 16.2856  16737.8  128.614
 16.3276  16665.4  128.75
 16.3696  16843.1  129.256
 16.4116  16813.9  129.604
 16.4536  16733.2  129.075
 16.4956  16570.7  128.228
 16.5376  16492.2  128.069
 16.5796  16522.1  127.543
 16.6216  16441  127.537
 16.6636  16730.1  128.765
 16.7056  16626.1  128.267
 16.7476  16408.3  126.958
 16.7896  16551  128.264
 16.8316  16472.7  127.928
 16.8736  16358.6  127.783
 16.9156  16378  128.148
 16.9576  16295.7  128.628
 16.9996  16399  129.509
 17.0416  16369.3  127.751
 17.0836  16369.9  127.549
 17.1256  15960.9  125.947
 17.1676  16045.6  126.284
 17.2096  15920.4  125.663
 17.2516  15894.5  125.337
 17.2936  15650.1  124.711
 17.3356  15530.5  124.258
 17.3776  15588  124.649
 17.4196  15470.7  123.84
 17.4616  15560.7  124.149
 17.5036  15297.4  123.427
 17.5456  15095.6  123.282
 17.5876  15171.8  122.64
 17.6296  15167.7  122.442
 17.6716  15100.7  122.743
 17.7136  14938.8  122.257
 17.7556  15015.2  122.829
 17.7976  15156.7  123.148
 17.8396  14924.5  121.696
 17.8816  14951.6  122.322
 17.9236  14729.1  121.251
 17.9656  15092.4  123.219
 18.0076  14894.5  122.007
 18.0496  14928.4  121.268
 18.0916  15079.3  122.431
 18.1336  14877.7  121.697
 18.1756  15186.3  122.478
 18.2176  14968.9  121.831
 18.2596  14987.8  121.629
 18.3016  15128.7  122.468
 18.3436  15088.1  122.297
 18.3856  14785.8  121.249
 18.4276  14834.5  121.079
 18.4696  14713.5  120.69
 18.5116  14842.2  121.501
 18.5536  14875.7  121.981
 18.5956  14660.1  120.66
 18.6376  14555.8  120.634
 18.6796  14458.4  119.559
 18.7216  14614.6  120.68
 18.7636  14298.2  119.399
 18.8056  14431.9  119.863
 18.8476  14148.1  119.282
 18.8896  14385.2  119.632
 18.9316  14456.7  119.894
 18.9736  14352.9  119.178
 19.0156  14218.7  119.019
 19.0576  14319.9  118.341
 19.0996  14445.7  119.548
 19.1416  14072.6  118.414
 19.1836  14180.7  118.437
 19.2256  14073.2  118.2
 19.2676  14152.3  118.617
 19.3096  14172.8  118.929
 19.3516  14089  118.562
 19.3936  14030.4  118.204
 19.4356  14112.9  118.459
 19.4776  14086  118.422
 19.5196  14132.4  118.467
 19.5616  13983.5  118.094
 19.6036  14146.2  118.247
 19.6456  14170.6  118.497
 19.6876  14060.8  117.657
 19.7296  14040.7  118.083
 19.7716  14005.4  118.057
 19.8136  14282.5  119.474
 19.8556  14467.9  119.686
 19.8976  14281.8  118.979
 19.9396  14352.8  118.846
 19.9816  14631.9  120.208
 20.0236  14531  120.049
 20.0656  14738.4  120.871
 20.1076  14362.1  119.844
 20.1496  14120.7  118.807
 20.1916  13988.4  117.792
 20.2336  13938.7  117.48
 20.2756  13756.3  117.144
 20.3176  13677.5  116.555
 20.3596  13659.4  116.429
 20.4016  13668.9  116.301
 20.4436  13605.2  116.549
 20.4856  13440.7  115.703
 20.5276  13454.1  116.189
 20.5696  13441.5  115.624
 20.6116  13306.2  115.286
 20.6536  13359.7  115.022
 20.6956  13251.5  114.677
 20.7376  13294.9  115.073
 20.7796  13230.2  114.501
 20.8216  13330.6  114.647
 20.8636  13325.2  115.019
 20.9056  13283.5  114.763
 20.9476  13089.5  113.799
 20.9896  13372.3  114.85
 21.0316  13467.3  115.13
 21.0736  13256  114.764
 21.1156  13235.5  114.808
 21.1576  13261.7  115.005
 21.1996  13183.9  114.643
 21.2416  12999.1  113.701
 21.2836  13149.9  114.29
 21.3256  13124.3  114.299
 21.3676  13203.6  114.156
 21.4096  13097.7  114.006
 21.4516  13000.1  113.463
 21.4936  12884.5  113.192
 21.5356  12904.2  113.238
 21.5776  13011.3  113.541
 21.6196  12958.7  113.343
 21.6616  12868.3  113.036
 21.7036  12803.4  112.543
 21.7456  12946.1  113.23
 21.7876  12744.5  112.103
 21.8296  12764.3  112.045
 21.8716  12866.9  112.746
 21.9136  13040.9  113.687
 21.9556  12833.1  112.45
 21.9976  12786.7  112.256
 22.0396  12648.4  111.906
 22.0816  12910.3  113.582
 22.1236  12797.2  112.552
 22.1656  12965.6  113.398
 22.2076  12839  112.276
 22.2496  12847.9  112.35
 22.2916  12760.9  111.841
 22.3336  12873  113.07
 22.3756  12822.9  112.563
 22.4176  12697  111.865
 22.4596  12634.6  112.171
 22.5016  12813.9  112.447
 22.5436  12817.1  112.351
 22.5856  12612.4  111.703
 22.6276  12697  112.221
 22.6696  12864.1  113.291
 22.7116  12720.8  112.189
 22.7536  12851.8  112.733
 22.7956  12675.5  111.297
 22.8376  12601.6  111.476
 22.8796  12714.9  111.782
 22.9216  12847.3  112.911
 22.9636  12669.5  111.284
 23.0056  12718.9  111.634
 23.0476  12798.5  112.556
 23.0896  13181.7  113.597
 23.1316  12955.2  113.058
 23.1736  12660.3  114.777
 23.2156  12845.3  112.948
 23.2576  12662.4  112.345
 23.2996  12569.3  111.654
 23.3416  12475.5  111.813
 23.3836  12626.7  111.693
 23.4256  12672.1  112.046
 23.4676  12651.2  111.618
 23.5096  12511.1  111.672
 23.5516  12639.5  111.524
 23.5936  12745.3  112.898
 23.6356  12841.2  112.989
 23.6776  12859.6  113.243
 23.7196  12462  111.099
 23.7616  12687.8  111.975
 23.8036  12675.1  112.036
 23.8456  12647.1  111.404
 23.8876  12343.4  110.483
 23.9296  12315.8  110.816
 23.9716  12416.5  110.459
 24.0136  12410.4  111.324
 24.0556  12347.6  110.785
 24.0976  12261.9  110.197
 24.1396  12274.1  112.875
 24.1816  12228.8  111.141
 24.2236  12092.3  110.141
 24.2656  12044.4  109.393
 24.3076  11988.1  109.391
 24.3496  12135.3  109.923
 24.3916  11933.8  109.075
 24.4336  11861.4  108.96
 24.4756  11938.3  109.176
 24.5176  11958.7  108.913
 24.5596  11725.8  107.981
 24.6016  11804.7  108.633
 24.6436  11624.8  107.318
 24.6856  11752.9  107.646
 24.7276  11616.6  107.307
 24.7696  11501.7  106.916
 24.8116  11575.7  107.41
 24.8536  11642.5  107.735
 24.8956  11454.5  106.602
 24.9376  11425.8  106.416
 24.9796  11290.9  106.137
 25.0216  11225.3  105.959
 25.0636  11335.3  106.108
 25.1056  11152.3  105.951
 25.1476  11351.3  108.502
 25.1896  11348.4  106.967
 25.2316  11452  106.708
 25.2736  11315  105.731
 25.3156  11318.8  105.845
 25.3576  11183.5  105.622
 25.3996  11183.2  105.605
 25.4416  11179.2  105.561
 25.4836  11041.5  105.433
 25.5256  11217.8  105.639
 25.5676  11188.4  105.218
 25.6096  11106.8  105.421
 25.6516  11166.2  105.185
 25.6936  11054.3  105.013
 25.7356  11083.4  105.254
 25.7776  11123.7  105.055
 25.8196  11036.7  104.868
 25.8616  11035.7  104.765
 25.9036  11120.3  104.661
 25.9456  11052.9  104.931
 25.9876  11061.2  105.043
 26.0296  11096.1  104.711
 26.0716  10872.3  104.108
 26.1136  11056.1  104.901
 26.1556  11174  104.806
 26.1976  10929.8  104.608
 26.2396  10996.2  104.046
 26.2816  10981.5  104.619
 26.3236  10974.3  104.733
 26.3656  10792.2  103.624
 26.4076  10939.8  104.509
 26.4496  11550  106.888
 26.4916  11113.7  104.833
 26.5336  10937.6  104.322
 26.5756  11063.6  104.79
 26.6176  10838.3  103.737
 26.6596  10723.5  103.512
 26.7016  10774.2  103.507
 26.7436  10620.5  102.929
 26.7856  10696.1  103.251
 26.8276  10686.7  103.162
 26.8696  10673.2  102.965
 26.9116  10661.3  102.851
 26.9536  10629.1  102.744
 26.9956  10608.3  102.66
 27.0376  10454  102.173
 27.0796  10633.5  102.74
 27.1216  10499.7  102.206
 27.1636  10393.9  101.828
 27.2056  10425  101.862
 27.2476  10628.7  102.854
 27.2896  10502.8  102.329
 27.3316  10446.2  101.785
 27.3736  10400.2  101.806
 27.4156  10291.1  101.165
 27.4576  10397  101.887
 27.4996  10273.3  100.906
 27.5416  10372.5  101.681
 27.5836  10317.3  101.225
 27.6256  10612.5  102.817
 27.6676  10558.4  102.568
 27.7096  10207.8  100.741
 27.7516  10365.9  101.644
 27.7936  10318.7  101.635
 27.8356  10394.7  101.597
 27.8776  10215.7  100.791
 27.9196  10152  100.297
 27.9616  10243.6  100.939
 28.0036  10185.9  100.632
 28.0456  10274  101.176
 28.0876  10120  100.529
 28.1296  10276  101.136
 28.1716  10120.6  100.408
 28.2136  10186.5  100.66
 28.2556  10021.1  99.9966
 28.2976  10117.2  100.431
 28.3396  10066.9  99.9264
 28.3816  10079.4  100.027
 28.4236  10094.2  100.232
 28.4656  9959.97  99.6184
 28.5076  9983.41  99.3676
 28.5496  10007.4  99.756
 28.5916  9976.63  99.4124
 28.6336  9982.97  99.8087
 28.6756  9860.18  98.3762
 28.7176  9960.63  99.4265
 28.7596  9795  98.4915
 28.8016  9938.41  99.2354
 28.8436  9894.45  99.2706
 28.8856  9770.52  98.4941
 28.9276  9991.74  99.8491
 28.9696  9845.77  98.7748
 29.0116  9875.9  99.0887
 29.0536  9636.01  98.1026
 29.0956  9755.94  98.436
 29.1376  9695.03  98.0837
 29.1796  9720.01  98.268
 29.2216  9591.28  97.4392
 29.2636  9797.29  98.5764
 29.3056  9840.74  98.5718
 29.3476  9771.66  98.7502
 29.3896  9894.21  99.4434
 29.4316  9985.43  99.1939
 29.4736  9786.85  98.2611
 29.5156  9790.93  98.1954
 29.5576  9702.4  98.509
 29.5996  9688.39  97.691
 29.6416  9663.5  97.6845
 29.6836  9827.87  98.4356
 29.7256  9780.17  98.7692
 29.7676  9752.8  98.2838
 29.8096  9700.66  97.9677
 29.8516  9587.08  97.7216
 29.8936  9694.05  98.3653
 29.9356  9799.76  98.6522
 29.9776  9721.84  98.4148
 30.0196  9678.32  97.5743
 30.0616  9602.89  97.5723
 30.1036  9667.45  97.7304
 30.1456  9548.45  97.3467
 30.1876  9534.71  97.2649
 30.2296  9506.94  97.0585
 30.2716  9702.66  97.6967
 30.3136  9600.12  98.0396
 30.3556  9520.56  97.7005
 30.3976  9489.66  99.0602
 30.4396  9698.4  97.5101
 30.4816  9665.42  96.9084
 30.5236  9552.07  96.3913
 30.5656  9394.72  96.2071
 30.6076  9555.11  96.455
 30.6496  9481.85  96.4668
 30.6916  9451.91  96.3786
 30.7336  9495.83  96.7865
 30.7756  9563.88  97.2263
 30.8176  9325.06  95.9197
 30.8596  9515.25  96.6633
 30.9016  9402.16  96.4268
 30.9436  9466.05  96.5071
 30.9856  9430.3  96.4626
 31.0276  9294.14  95.3343
 31.0696  9262.07  95.7476
 31.1116  9296.83  95.904
 31.1536  9479.65  96.6957
 31.1956  9296.34  95.8757
 31.2376  9226.94  95.4954
 31.2796  9354.03  95.7112
 31.3216  9372.92  95.7614
 31.3636  9434  96.7626
 31.4056  9423.68  98.0253
 31.4476  9313.91  95.3698
 31.4896  9280.87  95.7058
 31.5316  9322.58  95.2963
 31.5736  9363.66  95.3509
 31.6156  9293.21  95.0043
 31.6576  9429.47  95.8031
 31.6996  9293.49  94.7763
 31.7416  9108.71  94.8902
 31.7836  9257.01  94.6709
 31.8256  9184.48  94.5929
 31.8676  9321.59  95.2694
 31.9096  9155.41  94.7721
 31.9516  9025.9  94.2573
 31.9936  9126.92  94.5857
 32.0356  9187.38  94.9917
 32.0776  9279.49  95.3474
 32.1196  9196.17  95.0079
 32.1616  9186.77  94.4202
 32.2036  9090.91  94.4566
 32.2456  9135.86  95.0504
 32.2876  9095  94.3313
 32.3296  9007.51  93.8439
 32.3716  9043.43  94.0864
 32.4136  9079.04  94.4712
 32.4556  9111.68  94.0325
 32.4976  9223  94.5074
 32.5396  9099.26  93.9549
 32.5816  8871.58  92.9197
 32.6236  9085.11  94.078
 32.6656  9188.72  95.156
 32.7076  9024.61  93.9545
 32.7496  8988.53  93.4232
 32.7916  9188.14  94.4311
 32.8336  9056.14  93.8323
 32.8756  9142.5  94.0164
 32.9176  8920.28  93.343
 32.9596  8926.86  93.4587
 33.0016  8966.85  93.4569
 33.0436  9191.84  94.7795
 33.0856  8874.09  93.2119
 33.1276  8901.47  93.0802
 33.1696  8969.46  93.2937
 33.2116  9030.83  93.8249
 33.2536  8996.3  93.6823
 33.2956  9056.04  94.0501
 33.3376  8816.91  92.544
 33.3796  8954.29  93.463
 33.4216  8973.99  93.1497
 33.4636  8924.44  93.0554
 33.5056  8924.82  93.2902
 33.5476  8815.82  92.7451
 33.5896  9067.84  93.7983
 33.6316  8910.67  93.3331
 33.6736  8806.88  93.0044
 33.7156  8758.45  92.7893
 33.7576  8908.84  93.2113
 33.7996  8905.16  92.935
 33.8416  8568.69  91.3596
 33.8836  8845.31  92.5802
 33.9256  8784.76  92.3753
 33.9676  8907.79  92.8853
 34.0096  8682.96  92.0535
 34.0516  8750.13  92.0183
 34.0936  8726.71  92.1544
 34.1356  8791.57  92.2389
 34.1776  8670.8  91.5898
 34.2196  8684.89  91.8709
 34.2616  8659.97  91.8627
 34.3036  8584.36  91.7419
 34.3456  8809.34  92.6671
 34.3876  8641.16  91.7661
 34.4296  8675.76  91.6159
 34.4716  8749.18  92.1466
 34.5136  8665.95  91.9202
 34.5556  8677.72  92.2127
 34.5976  8656.03  91.9197
 34.6396  8564.18  91.1386
 34.6816  8516.67  91.0308
 34.7236  8715.18  91.8413
 34.7656  8664.15  91.7698
 34.8076  8595.87  91.7209
 34.8496  8570.92  91.4334
 34.8916  8593.42  91.4499
 34.9336  8708.31  92.0018
 34.9756  8632.53  91.5389
 35.0176  8535.28  91.5422
 35.0596  8542.41  91.438
 35.1016  8537.23  91.1524
 35.1436  8668.01  91.5296
 35.1856  8471.58  90.6151
 35.2276  8472.79  90.7771
 35.2696  8509.7  91.1821
 35.3116  8570.59  91.5844
 35.3536  8555.49  91.2362
 35.3956  8347.89  89.8326
 35.4376  8369.63  90.527
 35.4796  8561.37  91.5896
 35.5216  8402.45  90.704
 35.5636  8213.77  90.4058
 35.6056  8554.2  91.2535
 35.6476  8610.19  91.4685
 35.6896  8506.34  90.9941
 35.7316  8480.46  90.8179
 35.7736  8342.61  90.294
 35.8156  8385.36  90.551
 35.8576  8483.3  91.2923
 35.8996  8572.65  91.7443
 35.9416  8661  91.683
 35.9836  8404.11  90.6952
 36.0256  8393.17  90.6497
 36.0676  8435.93  90.6389
 36.1096  8312.24  90.1107
 36.1516  8495.2  90.9909
 36.1936  8492.41  90.8219
 36.2356  8392.19  90.9276
 36.2776  8376.66  90.3064
 36.3196  8272.67  89.4285
 36.3616  8437.19  90.4478
 36.4036  8351.16  90.0382
 36.4456  8393.36  90.4989
 36.4876  8414.37  90.5346
 36.5296  8305.13  89.9789
 36.5716  8372.13  91.133
 36.6136  8493.91  90.4952
 36.6556  8505.22  90.7555
 36.6976  8285.94  90.0843
 36.7396  8249.56  89.6233
 36.7816  8272.25  90.1168
 36.8236  8309.35  90.2425
 36.8656  8204.66  89.7333
 36.9076  8234.09  89.7873
 36.9496  8316.72  90.2097
 36.9916  8375.61  90.1641
 37.0336  8498.95  91.138
 37.0756  8398.13  90.3932
 37.1176  8141.5  89.2692
 37.1596  8271.5  89.9743
 37.2016  8383.29  90.82
 37.2436  8358.42  89.9958
 37.2856  8229.55  89.5647
 37.3276  8381.07  89.7192
 37.3696  8098.81  89.0844
 37.4116  8259.66  89.8524
 37.4536  8366.74  90.3099
 37.4956  8128.99  89.0533
 37.5376  8163.12  90.8565
 37.5796  8161.63  90.8028
 37.6216  7985.21  88.1082
 37.6636  8116.36  88.7609
 37.7056  8088.11  88.769
 37.7476  8075.07  88.2628
 37.7896  8065.63  88.6531
 37.8316  7876.29  87.8322
 37.8736  8234.14  89.2702
 37.9156  8051.49  88.3019
 37.9576  8023.3  88.0372
 37.9996  8065.98  87.9819
 38.0416  8019.82  88.546
 38.0836  8226.26  89.5761
 38.1256  7973.98  88.1462
 38.1676  8004.92  88.4682
 38.2096  8143.94  88.8767
 38.2516  8234.75  89.5153
 38.2936  8016.43  88.1849
 38.3356  8171.3  88.8982
 38.3776  7983.28  88.1651
 38.4196  8101.81  88.6368
 38.4616  8065.52  88.6935
 38.5036  8091.62  88.697
 38.5456  7972.36  88.8583
 38.5876  8070.59  89.4304
 38.6296  7862.6  87.2861
 38.6716  7878.23  87.1691
 38.7136  7742.74  86.3601
 38.7556  7863.64  87.5335
 38.7976  7872.04  87.5233
 38.8396  7969  88.5119
 38.8816  7747.45  87.031
 38.9236  7838.99  87.3824
 38.9656  7972.33  88.0345
 39.0076  7851.98  86.7791
 39.0496  7980.28  88.0377
 39.0916  7986.05  87.7013
 39.1336  7870.39  87.4763
 39.1756  7871.31  87.5526
 39.2176  8000.43  88.7766
 39.2596  7927.78  88.3169
 39.3016  7832.03  87.3566
 39.3436  7777.42  87.4743
 39.3856  7956.01  87.9205
 39.4276  7873.61  87.9749
 39.4696  7884.31  87.6385
 39.5116  7847.71  87.9668
 39.5536  7943.18  88.8761
 39.5956  8020.68  88.3951
 39.6376  7907.78  87.7686
 39.6796  7972.55  87.8776
 39.7216  7956.06  87.8656
 39.7636  7945.3  88.404
 39.8056  7889.88  87.8751
 39.8476  7968.57  88.567
 39.8896  7914.74  87.9141
 39.9316  7914.82  88.1535
 39.9736  8079.19  88.6124
 40.0156  7839.93  87.1256
 40.0576  7838.17  87.4706
 40.0996  7930.67  87.1725
 40.1416  7948.49  88.0703
 40.1836  7995.12  88.2137
 40.2256  8036.34  88.4846
 40.2676  7842.06  87.5173
 40.3096  8029.55  88.4801
 40.3516  7972.93  88.2756
 40.3936  8012.51  88.0527
 40.4356  7959.3  87.9374
 40.4776  8026.16  88.732
 40.5196  7950.78  88.4475
 40.5616  7974.68  88.2445
 40.6036  7952.2  88.352
 40.6456  7991.02  88.1595
 40.6876  8141.09  88.9827
 40.7296  8010.88  88.3847
 40.7716  8019.95  88.5886
 40.8136  7811.77  87.3654
 40.8556  7939.07  88.2405
 40.8976  7932.43  88.0953
 40.9396  7946.55  88.5557
 40.9816  8018.83  88.211
 41.0236  8094.56  88.3877
 41.0656  7946.87  88.1378
 41.1076  8012.13  88.2489
 41.1496  8009.34  88.1574
 41.1916  7901.99  87.8843
 41.2336  7924.59  88.0273
 41.2756  8000.62  88.0268
 41.3176  7911.07  88.1742
 41.3596  8043.87  88.6158
 41.4016  7950.96  88.3405
 41.4436  7985.17  88.335
 41.4856  8059  88.8925
 41.5276  8052.5  88.8882
 41.5696  7902.58  87.6843
 41.6116  7895.6  88.0753
 41.6536  7920.26  88.0461
 41.6956  7931.97  88.1865
 41.7376  7917.81  88.1104
 41.7796  7877.58  87.7605
 41.8216  7972.44  88.5366
 41.8636  7968.48  88.432
 41.9056  7855.79  87.6144
 41.9476  8002.66  88.6529
 41.9896  8020.23  88.4422
 42.0316  7929.31  88.0075
 42.0736  7954.23  88.2805
 42.1156  7871.2  87.6315
 42.1576  7855.98  87.6281
 42.1996  7966.49  88.4067
 42.2416  7955.08  87.8934
 42.2836  7824.36  87.3026
 42.3256  7870.71  87.6805
 42.3676  7839.68  87.3391
 42.4096  7888.6  87.5432
 42.4516  7821  87.2837
 42.4936  7935.13  87.9645
 42.5356  7839.77  87.5489
 42.5776  7878.47  87.7177
 42.6196  7983.79  88.3521
 42.6616  7765.43  87.3148
 42.7036  7836.08  87.0955
 42.7456  7829  87.4363
 42.7876  7853.52  87.6485
 42.8296  7799.28  87.1877
 42.8716  7719.62  86.8923
 42.9136  7792.6  87.0911
 42.9556  7869.07  87.6494
 42.9976  7907.91  87.8195
 43.0396  7740.84  86.6296
 43.0816  7734.11  86.9625
 43.1236  7755.27  87.1465
 43.1656  7803.88  87.2495
 43.2076  7769.59  87.1616
 43.2496  7629.28  86.1827
 43.2916  7714.13  87.0297
 43.3336  7825.72  87.4894
 43.3756  7748.66  86.8288
 43.4176  7768.33  87.0051
 43.4596  7687.44  86.4083
 43.5016  7776.25  87.3151
 43.5436  7860.94  87.6865
 43.5856  7623.42  86.3588
 43.6276  7633.8  86.333
 43.6696  7684.25  86.8587
 43.7116  7709.36  86.5147
 43.7536  7766.71  87.3344
 43.7956  7515.41  87.0808
 43.8376  7679.97  86.5214
 43.8796  7628.34  86.3056
 43.9216  7628.16  86.2245
 43.9636  7803.25  87.3134
 44.0056  7672.57  86.82
 44.0476  7601.89  86.0412
 44.0896  7585.75  86.3003
 44.1316  7719.81  86.578
 44.1736  7802.19  87.1661
 44.2156  7717.61  86.548
 44.2576  7527.62  85.7934
 44.2996  7569.12  86.0115
 44.3416  7583.24  85.8334
 44.3836  7588.86  86.2045
 44.4256  7486.02  85.2602
 44.4676  7483.33  85.4071
 44.5096  7666.6  86.5918
 44.5516  7581.98  86.0728
 44.5936  7434.36  85.1848
 44.6356  7633.09  86.0542
 44.6776  7532.65  85.8093
 44.7196  7492.54  85.8765
 44.7616  7492.57  87.2482
 44.8036  7369.15  84.9566
 44.8456  7515.65  86.0356
 44.8876  7430.07  85.3949
 44.9296  7504.09  85.2698
 44.9716  7466.15  85.5163
 45.0136  7512.78  85.6872
 45.0556  7527.75  85.7711
 45.0976  7441.41  85.4195
 45.1396  7451.14  85.2256
 45.1816  7342.83  84.5199
 45.2236  7425.04  84.9179
 45.2656  7326.11  84.8215
 45.3076  7476.02  85.4972
 45.3496  7448.75  85.6158
 45.3916  7313.42  85.126
 45.4336  7367.6  85.3167
 45.4756  7371.85  85.1714
 45.5176  7447.62  85.2464
 45.5596  7469.51  85.4653
 45.6016  7340.81  85.1445
 45.6436  7332.54  84.2748
 45.6856  7347.33  85.0218
 45.7276  7191.14  85.3831
 45.7696  7357.19  86.044
 45.8116  7281.53  85.0535
 45.8536  7343.63  85.3336
 45.8956  7377.3  84.8834
 45.9376  7311.39  83.9724
 45.9796  7301.97  84.5967
 46.0216  7410.71  85.5701
 46.0636  7420.88  84.7743
 46.1056  7308.41  84.1127
 46.1476  7360.64  85.0038
 46.1896  7285.89  84.7194
 46.2316  7249.98  84.3772
 46.2736  7205.03  84.4836
 46.3156  7229.56  84.217
 46.3576  7280.76  84.7108
 46.3996  7257.54  84.7419
 46.4416  7351.62  84.8659
 46.4836  7240.13  84.5602
 46.5256  7195.61  84.2495
 46.5676  7179.4  84.2688
 46.6096  7215.6  84.4218
 46.6516  7380.27  84.4175
 46.6936  7226.72  84.0174
 46.7356  7379.47  85.0308
 46.7776  7152.34  84.4897
 46.8196  7264.76  84.7607
 46.8616  7107.72  83.7597
 46.9036  7151.53  83.689
 46.9456  7190.46  83.5451
 46.9876  7256.21  84.0259
 47.0296  7184.35  84.2822
 47.0716  7076.57  83.4853
 47.1136  7140.09  83.5678
 47.1556  7128.44  83.3393
 47.1976  7252.9  84.167
 47.2396  7168.54  84.0403
 47.2816  7078.59  83.217
 47.3236  7120.65  83.8407
 47.3656  7157.96  83.9813
 47.4076  7145.54  83.7039
 47.4496  7026.41  83.1158
 47.4916  6984.69  83.0647
 47.5336  7141.9  83.7997
 47.5756  7180.64  84.1432
 47.6176  7073.89  83.4155
 47.6596  7004.73  82.714
 47.7016  7233.82  83.8808
 47.7436  7180.12  83.8993
 47.7856  7164.96  83.8702
 47.8276  6991.14  82.8639
 47.8696  7095.32  83.5724
 47.9116  7133.06  83.5072
 47.9536  7064.66  83.031
 47.9956  7016.6  83.464
 48.0376  6948.51  82.8274
 48.0796  6998.6  83.2596
 48.1216  7085.19  83.5826
 48.1636  7143.61  83.5388
 48.2056  7152.11  83.8289
 48.2476  7132.63  84.0437
 48.2896  7044.58  83.4061
 48.3316  7055.07  83.4
 48.3736  6978.04  82.9832
 48.4156  6966.92  82.7507
 48.4576  6966.08  83.0546
 48.4996  7085.45  83.2105
 48.5416  7118.26  83.7623
 48.5836  7033.5  82.9206
 48.6256  7019.66  83.063
 48.6676  6857.54  82.5805
 48.7096  7027.08  82.8513
 48.7516  7050.09  83.1518
 48.7936  6894  82.2713
 48.8356  7036.98  83.1881
 48.8776  6912.74  83.0046
 48.9196  7042.92  83.1878
 48.9616  6929.93  82.8702
 49.0036  6866.24  82.8551
 49.0456  6768.18  82.2255
 49.0876  6965.61  82.9412
 49.1296  6704.1  81.5411
 49.1716  6829.9  82.1484
 49.2136  6830.32  82.1007
 49.2556  6930.37  82.7271
 49.2976  6924.63  82.7911
 49.3396  6908.65  82.7249
 49.3816  6975.71  82.588
 49.4236  6887.74  82.4546
 49.4656  6812.55  82.0058
 49.5076  6942.95  82.5549
 49.5496  6887.69  82.2842
 49.5916  6909.56  82.333
 49.6336  6873.28  82.3223
 49.6756  6907.71  82.7838
 49.7176  6881.13  82.5418
 49.7596  6806.49  81.8731
 49.8016  6937.94  82.5736
 49.8436  6824.43  82.1674
 49.8856  6774.49  81.8901
 49.9276  6808.82  82.1899
 49.9696  6815.17  82.2174
 50.0116  6816.36  82.3545
 50.0536  6853.17  82.5233
 50.0956  6753.61  81.9906
 50.1376  6817.78  82.0793
 50.1796  6814.66  82.3307
 50.2216  6786.83  82.161
 50.2636  6733.86  81.4599
 50.3056  6707.92  81.4687
 50.3476  6733.88  81.6563
 50.3896  6715.8  81.5079
 50.4316  6787.92  81.7881
 50.4736  6651.6  81.1779
 50.5156  6728.97  81.6242
 50.5576  6773.57  81.6739
 50.5996  6681.84  81.3925
 50.6416  6682.13  81.325
 50.6836  6761.64  81.884
 50.7256  6710.97  81.4879
 50.7676  6774.2  82.216
 50.8096  6750.63  81.5818
 50.8516  6678.55  81.5535
 50.8936  6600.63  80.8472
 50.9356  6715.13  81.6662
 50.9776  6762.35  82.0823
 51.0196  6684.24  81.7101
 51.0616  6658.3  80.8895
 51.1036  6744.64  81.7624
 51.1456  6705.33  81.44
 51.1876  6760.16  81.1124
 51.2296  6747.6  81.6658
 51.2716  6571.3  80.3014
 51.3136  6582.04  80.8226
 51.3556  6578.83  80.4279
 51.3976  6534.04  80.308
 51.4396  6462.12  80.1637
 51.4816  6459.9  80.0068
 51.5236  6606.03  80.9946
 51.5656  6507.09  79.9905
 51.6076  6555.57  80.3768
 51.6496  6572.13  80.6544
 51.6916  6557.21  80.9238
 51.7336  6584.6  81.1707
 51.7756  6553.27  80.6909
 51.8176  6545.01  80.7434
 51.8596  6656.99  81.4467
 51.9016  6654.16  81.0355
 51.9436  6425.71  81.1073
 51.9856  6399.96  81.3995
 52.0276  6548.15  80.8418
 52.0696  6485.4  80.5473
 52.1116  6551.6  81.0203
 52.1536  6465.21  80.4242
 52.1956  6594.47  80.6354
 52.2376  6718.01  81.5852
 52.2796  6582.78  80.5848
 52.3216  6302.33  79.499
 52.3636  6481.53  80.2243
 52.4056  6364.47  79.3472
 52.4476  6455.84  80.2837
 52.4896  6315.59  79.4565
 52.5316  6431.12  80.2457
 52.5736  6487.32  80.2807
 52.6156  6428.66  80.3321
 52.6576  6528.16  80.359
 52.6996  6268.28  79.7061
 52.7416  6480.95  80.877
 52.7836  6436.54  80.5029
 52.8256  6491.77  80.0906
 52.8676  6332.67  79.6616
 52.9096  6338.93  79.7899
 52.9516  6445.08  80.8084
 52.9936  6385.82  80.8355
 53.0356  6325.35  79.485
 53.0776  6290.21  79.5268
 53.1196  6253.16  79.4114
 53.1616  6449.65  80.6988
 53.2036  6204.86  79.1112
 53.2456  6273.78  79.6452
 53.2876  6237.39  79.1275
 53.3296  6279.14  79.7139
 53.3716  6327.1  79.7783
 53.4136  6198.4  79.0986
 53.4556  6258.63  79.5123
 53.4976  6198.01  78.9747
 53.5396  6373.35  80.4557
 53.5816  6277  79.4996
 53.6236  6138.43  78.9523
 53.6656  6170.81  78.7971
 53.7076  6294.84  79.55
 53.7496  6318.98  79.8405
 53.7916  6444.24  80.7322
 53.8336  6231.22  79.3087
 53.8756  6046.39  78.6388
 53.9176  6210.97  79.0342
 53.9596  6339.19  80.5725
 54.0016  6227.92  79.2233
 54.0436  6276.31  79.7311
 54.0856  6334.06  79.5443
 54.1276  6250.7  79.223
 54.1696  6194.55  79.0326
 54.2116  6236.42  79.0804
 54.2536  6273.45  79.1096
 54.2956  6239.86  78.9341
 54.3376  6289.37  79.7355
 54.3796  6273.85  79.5319
 54.4216  6292.42  79.7014
 54.4636  6264.91  79.4854
 54.5056  6265.24  79.3171
 54.5476  6212.09  79.3065
 54.5896  6293.79  79.6605
 54.6316  6250.44  79.2424
 54.6736  6375.85  80.1071
 54.7156  6289.28  79.5867
 54.7576  6197.72  78.9927
 54.7996  6329.9  79.9692
 54.8416  6178.1  79.0616
 54.8836  6106.92  78.7353
 54.9256  6226.5  79.2286
 54.9676  6236.34  79.1379
 55.0096  6185.27  78.8925
 55.0516  6274.19  79.6719
 55.0936  6178.12  78.716
 55.1356  6191.07  78.8331
 55.1776  6170.98  78.9983
 55.2196  6173.24  78.7758
 55.2616  6277.98  79.6737
 55.3036  6132.72  78.8836
 55.3456  6164.38  79.2175
 55.3876  6171.64  79.0276
 55.4296  6194.76  79.1354
 55.4716  6162.43  78.9807
 55.5136  6207.42  79.0207
 55.5556  6195.54  79.0413
 55.5976  6146.73  78.763
 55.6396  6114.35  78.529
 55.6816  6161.74  78.6871
 55.7236  6108.93  78.3699
 55.7656  6194.01  78.6956
 55.8076  6307.07  79.3759
 55.8496  6157.32  78.7623
 55.8916  6166.12  79.015
 55.9336  6178.25  78.94
 55.9756  6129.8  78.4972
 56.0176  6081.57  78.341
 56.0596  6170.47  78.8944
 56.1016  6238.38  79.3258
 56.1436  6106.11  78.7529
 56.1856  6158.73  78.8156
 56.2276  6102.93  78.5532
 56.2696  6218.87  79.2391
 56.3116  6128.68  79.0916
 56.3536  6130.61  78.7421
 56.3956  6062.3  78.2946
 56.4376  6100.91  78.573
 56.4796  6142.31  78.6198
 56.5216  6149.55  79.0693
 56.5636  6257.33  79.3217
 56.6056  6115.41  78.6854
 56.6476  6091.93  78.1448
 56.6896  6129.66  78.8542
 56.7316  6188.02  79.1195
 56.7736  6105.09  78.5756
 56.8156  6115.28  78.6494
 56.8576  6149.93  78.7889
 56.8996  6159.82  78.8099
 56.9416  6087.79  78.6437
 56.9836  6009.43  77.6824
 57.0256  6097.82  78.5478
 57.0676  6109.12  78.766
 57.1096  6132.03  78.673
 57.1516  6143.42  78.8064
 57.1936  6128.79  78.4702
 57.2356  6154.87  78.9401
 57.2776  6182.12  79.0862
 57.3196  6142.92  79.2062
 57.3616  6154.57  78.7762
 57.4036  6127.75  78.6641
 57.4456  6053.53  78.1704
 57.4876  6137.62  78.557
 57.5296  6020.1  78.139
 57.5716  6040.71  78.2532
 57.6136  6120.48  78.5763
 57.6556  6225.63  79.3998
 57.6976  6110.95  78.4788
 57.7396  6064.46  78.5663
 57.7816  6005.04  78.5366
 57.8236  5981.83  78.1746
 57.8656  6095.82  78.5769
 57.9076  6090.81  78.5764
 57.9496  6076.06  78.8294
 57.9916  6042.12  78.1343
 58.0336  6102.16  78.7855
 58.0756  6082.62  78.3097
 58.1176  6072.18  78.2276
 58.1596  6049.38  78.6373
 58.2016  6138.68  78.3923
 58.2436  6101.42  78.5762
 58.2856  6127.46  78.655
 58.3276  6110.65  78.9272
 58.3696  6116.74  78.7233
 58.4116  6018.64  77.9445
 58.4536  6098.41  78.3539
 58.4956  5960.34  77.6365
 58.5376  6167.85  78.5451
 58.5796  6001.35  77.8926
 58.6216  6242.34  79.2591
 58.6636  6222.65  79.3427
 58.7056  5988.63  77.702
 58.7476  5999.07  78.2132
 58.7896  6153.01  78.8521
 58.8316  6079.42  78.3782
 58.8736  6159.09  78.8894
 58.9156  6062.17  78.3201
 58.9576  6212.45  79.5944
 58.9996  6260.55  79.1493
 59.0416  6410.99  80.4518
 59.0836  6170.1  78.8646
 59.1256  6069.13  78.9134
 59.1676  6089.93  79.3579
 59.2096  6114.55  78.809
 59.2516  6148.69  78.6064
 59.2936  6196.62  79.2441
 59.3356  6155.83  78.8596
 59.3776  6236.38  79.5455
 59.4196  6203.75  79.2724
 59.4616  6118.89  78.5873
 59.5036  6084.87  78.3999
 59.5456  6169.55  78.6381
 59.5876  6283.86  79.558
 59.6296  6086.03  78.3651
 59.6716  6082.93  78.4032
 59.7136  6221.9  79.2819
 59.7556  6178.6  79.1435
 59.7976  6116.56  78.4858
 59.8396  6209.58  78.9732
 59.8816  6148.43  79.1336
 59.9236  6149.94  78.7837
 59.9656  6117.97  78.8391
 60.0076  6082.85  77.9698
 60.0496  6085.06  78.4894
 60.0916  6060.1  77.7457
 60.1336  6120.21  79.2441
 60.1756  6143.94  80.5912
 60.1996  0.0000000E+00  0.0000000E+00