File: docs/examples/opeando_xrd/IS17_D/Data/IS17_D/17_Da_f00067.xye
# /beamlines/bl04/projects/cycle2025-II/20250340211-lsimonelli/DATA/IS17_D/17_Da_f00067.xye : mythproc.py merge -s 0.006 -l 0.5 -f /beamlines/bl04/inhouse/ff/FlatField/ff_20Nov2024rod8mm60s_17keV.raw -b True -c true -o xye /beamlines/bl04/projects/cycle2025-II/20250340211-lsimonelli/DATA/IS17_D/17_Da_00067.dat
# IsMon = [6753680, 6752260, 6754536]  IsPos = [-1.4999, -2.4884, -3.4988]
# Wave = 0.4962  CalPath /beamlines/bl04/projects/cycle2025-II/20250340211-lsimonelli/DATA/Align/Si_Pos1_25keV_f00001.cal
# Date = 2025-09-24_12:13:20 Dt = 4.8000  Bin = 0.0060  <imon> = 6753492 +/- 939 (Min/Max) 6752260 / 6754536
# icurr 249.3348  mocoIn 1.7010E-05  mocoOut 0.7979  i15 7.07462e+06  imon 6.75349e+06  i7 3.3333  iEMpd_timer 4.8000  iEMpd_1 3.3575E-08  iEMpd_2 7.8993E-08  iEMpd_3 1.5963E-08  iEMpd_4 4.6980E-08  iEMhp_timer 4.8000  iEMhp_1 4.8723E-06  iEMhp_2 -2.5610E-08  iEMhp_3 -2.4906E-08  iEMhp_4 -2.0555E-08
#      9776
 1.5856  39616.6  204.379
 1.6276  46701.4  218.095
 1.6696  53039.2  231.603
 1.7116  61929.7  250.752
 1.7536  71298.5  267.905
 1.7956  75242.7  275.903
 1.8376  71426.6  269.241
 1.8796  60195.1  245.355
 1.9216  48180.3  220.378
 1.9636  40987.5  202.428
 2.0056  36775.1  191.003
 2.0476  33827.9  185.197
 2.0896  32975.8  181.778
 2.1316  31662.9  177.266
 2.1736  30379.9  175.015
 2.2156  30506.6  173.972
 2.2576  29561.2  171.87
 2.2996  28397.1  169.069
 2.3416  28858.6  169.074
 2.3836  28062.2  166.831
 2.4256  27311.2  165.12
 2.4676  26713.8  163.072
 2.5096  26947.3  163.837
 2.5516  30724  179.001
 2.5936  87685  296.285
 2.6356  27952.4  167.998
 2.6776  25926  160.698
 2.7196  25311  159.284
 2.7616  25173.2  158.634
 2.8036  24625.7  157.066
 2.8456  24574.2  157.502
 2.8876  24103.6  155.873
 2.9296  23745.7  154.831
 2.9716  23464.1  153.415
 3.0136  23327.5  153.033
 3.0556  23161.5  152.873
 3.0976  23292.9  152.25
 3.1396  23040.8  152.138
 3.1816  22732.3  151.052
 3.2236  22739.6  151.067
 3.2656  22786  150.286
 3.3076  22497.8  150.751
 3.3496  22910.7  151.089
 3.3916  23326.8  152.281
 3.4336  23596.7  153.727
 3.4756  23932.6  154.739
 3.5176  24884  157.59
 3.5596  24703.5  159.401
 3.6016  24945.6  157.833
 3.6436  24083.2  156.167
 3.6856  23740.5  153.374
 3.7276  22848.5  151.538
 3.7696  22580  150.823
 3.8116  22313.7  149.827
 3.8536  22418.9  150.112
 3.8956  22428.3  149.975
 3.9376  22820.7  151.535
 3.9796  22098.3  148.633
 4.0216  22239.2  148.161
 4.0636  22202.5  149.483
 4.1056  22154.7  148.975
 4.1476  22341.8  149.909
 4.1896  22489.3  150.266
 4.2316  22658.8  150.659
 4.2736  23150.2  152.072
 4.3156  23447.5  153.272
 4.3576  24004.4  155.014
 4.3996  24444.2  156.685
 4.4416  25030.4  158.138
 4.4836  25992.4  161.304
 4.5256  25986.7  161.887
 4.5676  25833.5  161.664
 4.6096  26299.3  161.784
 4.6516  27017.4  163.689
 4.6936  26949.9  164.287
 4.7356  27537.8  165.904
 4.7776  27095.3  164.399
 4.8196  26782.6  164.086
 4.8616  26294.9  162.083
 4.9036  26028.7  161.001
 4.9456  26074.3  161.787
 4.9876  25388.7  159.548
 5.0296  25736.9  160.46
 5.0716  25410.7  160.202
 5.1136  25612.7  160.553
 5.1556  25885.4  160.877
 5.1976  31139.2  176.435
 5.2396  26659.5  162.958
 5.2816  26380.3  162.552
 5.3236  26524.1  162.708
 5.3656  26165  162.511
 5.4076  25673.2  161.125
 5.4496  25965.5  161.534
 5.4916  26074.7  161.634
 5.5336  26034.1  161.516
 5.5756  25697.5  160.489
 5.6176  26053.9  161.045
 5.6596  26250.4  162.613
 5.7016  26598.2  162.961
 5.7436  26541.8  163.056
 5.7856  26394.8  162.665
 5.8276  26911.4  163.976
 5.8696  26897.3  164.1
 5.9116  26878.7  164.638
 5.9536  27155.3  165.234
 5.9956  27437.3  165.467
 6.0376  27584.8  166.541
 6.0796  27675.8  166.65
 6.1216  27685.3  166.88
 6.1636  28030.8  166.986
 6.2056  28083  167.806
 6.2476  28126.9  167.809
 6.2896  28668.3  169.1
 6.3316  28257.2  168.05
 6.3736  28291  168.048
 6.4156  28480.4  168.503
 6.4576  28937.9  169.463
 6.4996  28922.1  169.898
 6.5416  29150.3  170.7
 6.5836  29272.8  171.292
 6.6256  29103.4  170.357
 6.6676  29659.5  171.547
 6.7096  29503.6  171.94
 6.7516  29906.3  172.768
 6.7936  30523  173.968
 6.8356  31021.9  175.461
 6.8776  30816.1  175.683
 6.9196  30332.1  174.694
 6.9616  30889.9  175.743
 7.0036  31266.6  176.462
 7.0456  31374.5  176.067
 7.0876  31276  177.468
 7.1296  31203.9  176.406
 7.1716  31189.1  175.905
 7.2136  30972.8  175.079
 7.2556  31250.4  176.02
 7.2976  31276.2  176.589
 7.3396  31141  176.421
 7.3816  31247.6  176.934
 7.4236  31538.8  177.05
 7.4656  31744.3  177.115
 7.5076  32013.3  177.997
 7.5496  31696.8  177.646
 7.5916  31900.6  178.249
 7.6336  32430.7  179.62
 7.6756  32442.6  179.507
 7.7176  32747.7  180.657
 7.7596  32787.4  182.007
 7.8016  35978.6  192.927
 7.8436  33806.6  183.688
 7.8856  33637.4  182.841
 7.9276  34323.9  185.086
 7.9696  34668.6  186.33
 8.0116  35612  187.382
 8.0536  35921  188.449
 8.0956  37123  192.772
 8.1376  36263.7  190.004
 8.1796  36565.3  191.338
 8.2216  37397  192.232
 8.2636  38273.7  194.724
 8.3056  37423.2  193.315
 8.3476  39242.3  197.278
 8.3896  38030.9  194.292
 8.4316  37937  194.214
 8.4736  37970.9  193.769
 8.5156  37552.7  192.974
 8.5576  37546.7  193.944
 8.5996  37161.2  191.812
 8.6416  37286.9  193.406
 8.6836  37176  192.939
 8.7256  37638.1  193.581
 8.7676  38990.9  199.991
 8.8096  38451.8  195.854
 8.8516  37299.3  192.511
 8.8936  37938.7  194.043
 8.9356  36498.4  190.671
 8.9776  36711.4  191.33
 9.0196  36445.3  190.296
 9.0616  36748.8  190.554
 9.1036  37532.1  193.786
 9.1456  36404.2  190.211
 9.1876  36148.3  189.491
 9.2296  36001.5  188.504
 9.2716  35334.9  186.82
 9.3136  35360  186.869
 9.3556  35551.2  187.361
 9.3976  34117.2  184.062
 9.4396  34821.1  185.848
 9.4816  34418.5  184.632
 9.5236  34212.2  183.989
 9.5656  33802.9  183.204
 9.6076  33762  183.624
 9.6496  33587.3  183.071
 9.6916  33714.5  183.39
 9.7336  33788.6  183.369
 9.7756  33887.1  184.903
 9.8176  32907.5  181.718
 9.8596  32843.4  179.997
 9.9016  32395.6  178.757
 9.9436  32287.5  178.369
 9.9856  32251.7  178.489
 10.0276  31591.9  177.765
 10.0696  31720.3  177.169
 10.1116  31205  175.987
 10.1536  31060.5  175.744
 10.1956  30620.8  174.094
 10.2376  29979.3  171.763
 10.2796  29963.3  171.849
 10.3216  29809.9  171.677
 10.3636  29601.8  171.11
 10.4056  31514.1  176.96
 10.4476  31408.1  176.274
 10.4896  33722.3  182.068
 10.5316  31938  177.929
 10.5736  29587.2  171.669
 10.6156  29039  169.831
 10.6576  32214.3  177.365
 10.6996  28818.3  168.425
 10.7416  28008  166.275
 10.7836  29018.3  169.949
 10.8256  27712.3  166.507
 10.8676  28014.2  166.949
 10.9096  27657.1  165.912
 10.9516  27379.6  164.009
 10.9936  27792.6  165.44
 11.0356  27765.8  166.008
 11.0776  28429  167.272
 11.1196  27845  166.311
 11.1616  26720.7  162.606
 11.2036  27402.1  164.516
 11.2456  28416.2  168.269
 11.2876  26485.3  162.168
 11.3296  26653.9  162.585
 11.3716  26847.8  162.866
 11.4136  26723.4  163.397
 11.4556  27194  164.487
 11.4976  27909.3  165.587
 11.5396  27575.6  164.76
 11.5816  26364.6  161.566
 11.6236  26032.7  160.766
 11.6656  25610.5  158.611
 11.7076  25333.7  158.588
 11.7496  25352.3  162.571
 11.7916  25543.4  158.505
 11.8336  24791.5  157.032
 11.8756  24922.9  156.985
 11.9176  24850  156.418
 11.9596  24465.8  155.388
 12.0016  24394.1  155.947
 12.0436  24422.1  155.449
 12.0856  23948  154.463
 12.1276  24224.9  155.262
 12.1696  24086.9  153.972
 12.2116  24608.8  155.626
 12.2536  25698.8  159.891
 12.2956  24627.2  155.849
 12.3376  24150.6  154.538
 12.3796  24369.6  155.709
 12.4216  24337.7  154.812
 12.4636  24779.1  157.129
 12.5056  24135  154.36
 12.5476  24132.3  153.879
 12.5896  24269.4  154.951
 12.6316  23817.2  153.656
 12.6736  23898.7  154.404
 12.7156  23813.9  153.989
 12.7576  24030.8  154.934
 12.7996  24178.2  154.053
 12.8416  24274.3  155.41
 12.8836  24832.1  157.019
 12.9256  24719.3  155.672
 12.9676  24504.7  155.417
 13.0096  24239.2  155.668
 13.0516  24407  155.246
 13.0936  24352.8  155.467
 13.1356  24831.9  155.975
 13.1776  24627.6  156.311
 13.2196  24350.3  155.094
 13.2616  24290.7  155.219
 13.3036  24259.5  155.088
 13.3456  24321.9  155.637
 13.3876  24463.3  155.384
 13.4296  24537.8  155.773
 13.4716  24669.6  155.802
 13.5136  24630  155.83
 13.5556  24478.2  155.964
 13.5976  24505  156.184
 13.6396  24832.9  156.603
 13.6816  24406.4  155.74
 13.7236  25078.1  157.513
 13.7656  24384.8  155.85
 13.8076  24974.4  156.497
 13.8496  24167.2  154.542
 13.8916  24196.6  155.639
 13.9336  24036.8  154.355
 13.9756  23895.7  153.253
 14.0176  24002.4  154.279
 14.0596  24505.9  155.856
 14.1016  23582  153.279
 14.1436  23263.7  151.381
 14.1856  23322.5  151.868
 14.2276  23002  151.298
 14.2696  23407.4  152.47
 14.3116  22966.3  150.926
 14.3536  22523.5  149.64
 14.3956  22482.4  149.241
 14.4376  22775  149.984
 14.4796  22474.5  148.98
 14.5216  22107  148.552
 14.5636  22582.6  149.71
 14.6056  22113.6  147.716
 14.6476  22094.3  146.888
 14.6896  21646.7  145.928
 14.7316  21121.2  145.161
 14.7736  21156.7  144.441
 14.8156  21218.5  144.686
 14.8576  21083.6  144.072
 14.8996  20783.6  144.25
 14.9416  20274.6  142.479
 14.9836  20365.5  142.747
 15.0256  20088.4  140.717
 15.0676  20183.8  141.366
 15.1096  20016.7  140.518
 15.1516  19616.4  139.667
 15.1936  19686.6  139.339
 15.2356  19485.4  138.903
 15.2776  19371.6  138.073
 15.3196  19297.4  138.824
 15.3616  18840.2  136.923
 15.4036  18813  136.686
 15.4456  19337.9  138.23
 15.4876  18796.7  135.961
 15.5296  18583.5  135.468
 15.5716  18494.8  134.751
 15.6136  18323.6  134.454
 15.6556  19618.9  138.338
 15.6976  18714.2  135.41
 15.7396  18397.3  134.644
 15.7816  18291.5  133.77
 15.8236  17873.3  132.926
 15.8656  17628.3  131.805
 15.9076  17722  131.984
 15.9496  17796  135.055
 15.9916  17542.1  134.525
 16.0336  17343.5  130.655
 16.0756  17278.5  130.719
 16.1176  17134  130.239
 16.1596  16919.4  130.597
 16.2016  17048.3  129.839
 16.2436  16777.2  129.19
 16.2856  16872.4  129.095
 16.3276  16452.4  127.892
 16.3696  16664.3  128.536
 16.4116  16452.9  128.177
 16.4536  16784.3  129.244
 16.4956  16995.9  129.794
 16.5376  16492.3  128.041
 16.5796  16544.9  127.605
 16.6216  16289.7  126.919
 16.6636  16482.2  127.824
 16.7056  16364.4  127.228
 16.7476  16550.6  127.48
 16.7896  16458.9  127.878
 16.8316  16093.1  126.414
 16.8736  16397.9  127.862
 16.9156  16379.6  128.126
 16.9576  16112.7  127.887
 16.9996  16366.9  129.376
 17.0416  16293.1  127.446
 17.0836  15874.2  125.552
 17.1256  16041.6  126.221
 17.1676  16176.5  126.748
 17.2096  15927.4  125.646
 17.2516  15789.3  124.882
 17.2936  15560  124.302
 17.3356  15174.6  122.748
 17.3776  15265.2  123.302
 17.4196  15439  123.702
 17.4616  15698.1  124.652
 17.5036  15544.6  124.411
 17.5456  14994.4  122.824
 17.5876  14838.6  121.24
 17.6296  15118.2  122.198
 17.6716  15109.2  122.728
 17.7136  15406.4  124.076
 17.7556  15005.8  122.747
 17.7976  15071  122.755
 17.8396  14965.2  121.819
 17.8816  14793  121.663
 17.9236  14565  120.53
 17.9656  14983.9  122.791
 18.0076  15322.9  123.741
 18.0496  15646.8  124.152
 18.0916  17926  133.471
 18.1336  16766.5  129.197
 18.1756  15714.6  124.596
 18.2176  15599.2  124.37
 18.2596  14885.7  121.229
 18.3016  15305  123.173
 18.3436  15393.2  123.538
 18.3856  14915.5  121.739
 18.4276  14645.1  120.306
 18.4696  14791.9  121.003
 18.5116  14858.5  121.572
 18.5536  14734.8  121.426
 18.5956  14634.9  120.562
 18.6376  14701.4  121.244
 18.6796  14479.7  119.646
 18.7216  14699.5  121.046
 18.7636  14201.7  118.958
 18.8056  14154.8  118.712
 18.8476  14075.8  119.004
 18.8896  14187.4  118.808
 18.9316  14338.9  119.427
 18.9736  14098.4  118.116
 19.0156  14285.8  119.314
 19.0576  14375.7  118.539
 19.0996  14205.9  118.551
 19.1416  14044  118.261
 19.1836  13941.3  117.433
 19.2256  13811.9  117.096
 19.2676  14078  118.305
 19.3096  13926.7  117.917
 19.3516  13943.9  117.948
 19.3936  14030.6  118.221
 19.4356  14008.2  117.993
 19.4776  13911.5  117.685
 19.5196  13781.1  116.983
 19.5616  13978  118.073
 19.6036  14037.4  117.818
 19.6456  14133.3  118.337
 19.6876  14334.4  118.823
 19.7296  13982.3  117.806
 19.7716  14072.4  118.352
 19.8136  14219.8  119.181
 19.8556  14562  120.074
 19.8976  14776.1  121.023
 19.9396  14823.9  120.785
 19.9816  14813.6  120.987
 20.0236  14804.3  121.174
 20.0656  14228.6  118.791
 20.1076  13783.6  117.373
 20.1496  13836.1  117.604
 20.1916  13761.4  116.803
 20.2336  13750.2  116.691
 20.2756  13636.8  116.634
 20.3176  13536.2  115.954
 20.3596  13569.7  116.075
 20.4016  13568.6  115.875
 20.4436  13522.1  116.226
 20.4856  13292.6  115.037
 20.5276  13362  115.792
 20.5696  13262.9  114.822
 20.6116  13308.4  115.295
 20.6536  13253.7  114.564
 20.6956  13384.1  115.256
 20.7376  13241.2  114.868
 20.7796  13075  113.833
 20.8216  13357.6  114.761
 20.8636  13377.8  115.216
 20.9056  13881.1  117.318
 20.9476  13163.4  114.085
 20.9896  13883.1  117.027
 21.0316  13354.4  114.672
 21.0736  13217.9  114.604
 21.1156  13576.9  116.316
 21.1576  13283.4  115.097
 21.1996  13143.7  114.473
 21.2416  12875.7  113.129
 21.2836  13256.9  114.759
 21.3256  13031.2  113.859
 21.3676  13110.2  113.75
 21.4096  13205.3  114.473
 21.4516  13002.1  113.472
 21.4936  12795.2  112.814
 21.5356  12972.7  113.536
 21.5776  13022.3  113.581
 21.6196  12933.1  113.236
 21.6616  13118.2  114.133
 21.7036  12931.8  113.096
 21.7456  12822.6  112.693
 21.7876  12684.9  111.836
 21.8296  12561.1  111.149
 21.8716  12686.8  111.934
 21.9136  12855.2  112.877
 21.9556  12810.7  112.35
 21.9976  12699.2  111.872
 22.0396  12681.8  112.053
 22.0816  12703.4  112.69
 22.1236  13007.1  113.477
 22.1656  12844.2  112.878
 22.2076  12774  112.059
 22.2496  12818.3  112.283
 22.2916  12796.1  112.051
 22.3336  12770.8  112.686
 22.3756  12856.8  112.78
 22.4176  12708.8  111.984
 22.4596  12497.8  111.632
 22.5016  12844.7  112.653
 22.5436  12709.5  111.949
 22.5856  12762.1  112.431
 22.6276  12611.3  111.905
 22.6696  12540.9  111.937
 22.7116  12507.5  111.308
 22.7536  12547.6  111.458
 22.7956  12758.9  111.717
 22.8376  12554.8  111.343
 22.8796  12638.8  111.514
 22.9216  12671.5  112.203
 22.9636  12673.5  111.368
 23.0056  12845.2  112.255
 23.0476  12656.6  111.998
 23.0896  13117.3  113.386
 23.1316  12812.3  112.5
 23.1736  12576.4  114.4
 23.2156  12813.9  112.823
 23.2576  12620.5  112.099
 23.2996  12522.4  111.456
 23.3416  12581.9  112.236
 23.3836  12648.6  111.768
 23.4256  12586.6  111.608
 23.4676  12415.6  110.546
 23.5096  12662.8  112.319
 23.5516  12457.3  110.692
 23.5936  12500  111.776
 23.6356  12721.8  112.434
 23.6776  12540.5  111.847
 23.7196  12337  110.513
 23.7616  12764  112.324
 23.8036  12558.7  111.448
 23.8456  12470.7  110.64
 23.8876  12189.3  109.733
 23.9296  12203.9  110.285
 23.9716  12371.8  110.241
 24.0136  12512.5  111.761
 24.0556  12220.2  110.185
 24.0976  12192.1  109.858
 24.1396  12001.8  111.636
 24.1816  12238.1  111.15
 24.2236  12182  110.507
 24.2656  12102.5  109.62
 24.3076  12102.8  109.869
 24.3496  12165.5  110.048
 24.3916  12003.5  109.363
 24.4336  12030.7  109.694
 24.4756  11964.3  109.267
 24.5176  11702.5  107.709
 24.5596  11726.3  107.94
 24.6016  11669.7  107.971
 24.6436  11842.2  108.25
 24.6856  11547.6  106.66
 24.7276  11814.7  108.212
 24.7696  11706  107.822
 24.8116  11576.4  107.402
 24.8536  11539.7  107.211
 24.8956  11507.9  106.82
 24.9376  11481.9  106.638
 24.9796  11238.6  105.852
 25.0216  11343.4  106.453
 25.0636  11424.9  106.488
 25.1056  11243.7  106.346
 25.1476  11350.3  108.511
 25.1896  11381.7  107.138
 25.2316  11492.1  106.913
 25.2736  11346.9  105.895
 25.3156  11199.9  105.278
 25.3576  11252.1  105.95
 25.3996  11160.9  105.491
 25.4416  11135  105.362
 25.4836  11035.8  105.41
 25.5256  11108.2  105.121
 25.5676  11175.6  105.172
 25.6096  11053.4  105.166
 25.6516  11099.3  104.885
 25.6936  10978.9  104.626
 25.7356  11079.1  105.234
 25.7776  11103.9  104.957
 25.8196  10925.6  104.341
 25.8616  11151.9  105.339
 25.9036  11192.6  105
 25.9456  11047.4  104.919
 25.9876  10962.7  104.572
 26.0296  11074.3  104.623
 26.0716  11024.5  104.805
 26.1136  11103.1  105.121
 26.1556  11156.5  104.744
 26.1976  10883.3  104.383
 26.2396  11096.9  104.543
 26.2816  10966.1  104.541
 26.3236  11104.2  105.366
 26.3656  10889.6  104.056
 26.4076  10949.8  104.561
 26.4496  11356.6  105.966
 26.4916  11050.6  104.536
 26.5336  10896.5  104.126
 26.5756  11074.4  104.836
 26.6176  10967.3  104.376
 26.6596  10782.2  103.797
 26.7016  10669.8  103.019
 26.7436  10530.6  102.47
 26.7856  10504  102.325
 26.8276  10685.8  103.16
 26.8696  10565.7  102.458
 26.9116  10556.1  102.352
 26.9536  10468.8  101.965
 26.9956  10644.2  102.854
 27.0376  10363.9  101.696
 27.0796  10680.5  102.984
 27.1216  10505.4  102.204
 27.1636  10533.6  102.509
 27.2056  10380.5  101.644
 27.2476  10399.6  101.739
 27.2896  10473.5  102.211
 27.3316  10304.3  101.099
 27.3736  10377  101.72
 27.4156  10306  101.206
 27.4576  10384.3  101.828
 27.4996  10327.3  101.143
 27.5416  10428.3  101.955
 27.5836  10384.7  101.556
 27.6256  10606.9  102.795
 27.6676  10538.8  102.5
 27.7096  10281.1  101.103
 27.7516  10692.8  103.257
 27.7936  10422.9  102.114
 27.8356  10436.4  101.806
 27.8776  10458.7  101.955
 27.9196  10212.9  100.597
 27.9616  10432.2  101.875
 28.0036  10234.4  100.87
 28.0456  10220.1  100.933
 28.0876  10137.6  100.616
 28.1296  10133.8  100.438
 28.1716  10238  100.951
 28.2136  10097.7  100.234
 28.2556  10057.9  100.151
 28.2976  10068.5  100.193
 28.3396  10099.4  100.107
 28.3816  10132.5  100.291
 28.4236  10238.3  100.971
 28.4656  10057.8  100.108
 28.5076  10057.8  99.7451
 28.5496  9984.4  99.6432
 28.5916  10036  99.7052
 28.6336  9807.87  98.9022
 28.6756  10014.7  99.144
 28.7176  9870  98.9688
 28.7596  9822.31  98.6302
 28.8016  9813.69  98.6245
 28.8436  9777.52  98.6811
 28.8856  9851.62  98.9033
 28.9276  9937.42  99.5784
 28.9696  9787.89  98.4866
 29.0116  9808.9  98.7739
 29.0536  9661.47  98.2331
 29.0956  9719.8  98.2393
 29.1376  9683.19  98.0248
 29.1796  9721.02  98.2642
 29.2216  9712.48  98.0606
 29.2636  9803.72  98.5979
 29.3056  9718.92  97.9597
 29.3476  9703.12  98.4017
 29.3896  9735.82  98.6654
 29.4316  9836.16  98.5101
 29.4736  9668.75  97.7294
 29.5156  9824.89  98.4391
 29.5576  9670.8  98.4066
 29.5996  9703.65  97.8277
 29.6416  9598.19  97.4143
 29.6836  9763.51  98.1743
 29.7256  9577.44  97.7998
 29.7676  9728.31  98.2244
 29.8096  9590.56  97.4712
 29.8516  9642.56  98.0667
 29.8936  9648.54  98.1927
 29.9356  9610.42  97.7531
 29.9776  9538.59  97.5399
 30.0196  9604.31  97.2649
 30.0616  9597.79  97.6029
 30.1036  9645.52  97.6746
 30.1456  9562.64  97.4793
 30.1876  9358.6  96.4201
 30.2296  9466.44  96.9163
 30.2716  9687.59  97.6794
 30.3136  9458.6  97.3699
 30.3556  9579.88  98.0053
 30.3976  9490.62  99.0665
 30.4396  9610.67  97.017
 30.4816  9635.24  96.7224
 30.5236  9627.29  96.7164
 30.5656  9410.95  96.27
 30.6076  9488.45  96.0978
 30.6496  9584.06  96.9666
 30.6916  9485.85  96.5588
 30.7336  9527.11  96.9233
 30.7756  9461.08  96.6799
 30.8176  9546.54  97.0281
 30.8596  9403.93  96.0716
 30.9016  9491.44  96.8618
 30.9436  9230.28  95.2747
 30.9856  9366.51  96.0829
 31.0276  9348.01  95.6005
 31.0696  9323.27  96.0437
 31.1116  9313.08  95.9673
 31.1536  9476.59  96.6917
 31.1956  9236.14  95.5435
 31.2376  9157.59  95.1484
 31.2796  9356.83  95.7118
 31.3216  9350.11  95.6207
 31.3636  9221.88  95.6557
 31.4056  9300.43  97.3785
 31.4476  9271.67  95.1203
 31.4896  9370.22  96.1265
 31.5316  9354.43  95.4487
 31.5736  9659.28  96.7937
 31.6156  9570.85  96.3752
 31.6576  9451.2  95.8771
 31.6996  9328.73  94.9281
 31.7416  9277.58  95.7189
 31.7836  9321.74  94.9672
 31.8256  9292.72  95.09
 31.8676  9287.68  95.0547
 31.9096  9050.04  94.1887
 31.9516  8916.79  93.6496
 31.9936  9205.64  94.9851
 32.0356  9184.3  94.9407
 32.0776  9166.7  94.7331
 32.1196  9252.58  95.2617
 32.1616  9213.17  94.5218
 32.2036  9067.45  94.2733
 32.2456  8921.21  93.8928
 32.2876  9154.9  94.6088
 32.3296  8956.92  93.544
 32.3716  9025.99  94.0136
 32.4136  9006.3  94.1162
 32.4556  9202.37  94.5115
 32.4976  9118.5  93.9809
 32.5396  9088.77  93.9084
 32.5816  8993.37  93.5281
 32.6236  9080.62  94.0568
 32.6656  9153.54  94.9686
 32.7076  8984.5  93.7487
 32.7496  9135.01  94.1881
 32.7916  8990.41  93.4067
 32.8336  9016.34  93.642
 32.8756  9137.83  93.9856
 32.9176  8816.4  92.7872
 32.9596  8973.11  93.6908
 33.0016  8975.29  93.5024
 33.0436  9092.31  94.2797
 33.0856  8964.16  93.6839
 33.1276  8914.85  93.1606
 33.1696  8938.19  93.128
 33.2116  8948.86  93.4104
 33.2536  8944.88  93.3857
 33.2956  8930.35  93.3958
 33.3376  8914.89  93.053
 33.3796  8906.49  93.2179
 33.4216  8919.9  92.8859
 33.4636  9015.19  93.5312
 33.5056  8775.56  92.5126
 33.5476  8748.79  92.3644
 33.5896  8996.83  93.4451
 33.6316  8836.3  92.912
 33.6736  8723.47  92.5589
 33.7156  8695.01  92.4543
 33.7576  8903.32  93.1851
 33.7996  9054.11  93.732
 33.8416  8642.05  91.7526
 33.8836  8796.06  92.3503
 33.9256  8831.92  92.5945
 33.9676  8923.17  92.9716
 34.0096  8558.56  91.3609
 34.0516  8682.49  91.6565
 34.0936  8727.06  92.1534
 34.1356  8772.01  92.138
 34.1776  8648.43  91.4996
 34.2196  8520.52  90.9989
 34.2616  8583.98  91.4673
 34.3036  8580.25  91.6983
 34.3456  8546.16  91.2732
 34.3876  8551.42  91.2631
 34.4296  8806.15  92.3026
 34.4716  8657.42  91.6671
 34.5136  8729.13  92.2472
 34.5556  8589.41  91.7626
 34.5976  8740.39  92.3646
 34.6396  8617.3  91.4274
 34.6816  8546.25  91.1605
 34.7236  8737.07  91.9583
 34.7656  8719.3  92.0591
 34.8076  8552.29  91.4957
 34.8496  8695.8  92.1167
 34.8916  8592.99  91.4456
 34.9336  8836.41  92.6925
 34.9756  8783.93  92.3349
 35.0176  8573.84  91.7598
 35.0596  8533.71  91.3639
 35.1016  8474.21  90.8158
 35.1436  8636.45  91.367
 35.1856  8468.34  90.5979
 35.2276  8523  91.0674
 35.2696  8513.25  91.2078
 35.3116  8521.71  91.3475
 35.3536  8497.59  90.9284
 35.3956  8483.73  90.5599
 35.4376  8522.03  91.3239
 35.4796  8472.26  91.116
 35.5216  8494.4  91.187
 35.5636  8315.44  90.9665
 35.6056  8611.19  91.5809
 35.6476  8529.6  91.0329
 35.6896  8545.36  91.2107
 35.7316  8480.92  90.8298
 35.7736  8478.85  91.028
 35.8156  8323.67  90.1862
 35.8576  8340.6  90.5228
 35.8996  8602.73  91.8953
 35.9416  8843.08  92.6084
 35.9836  8406.67  90.7076
 36.0256  8476.47  91.1007
 36.0676  8395.83  90.4331
 36.1096  8388.2  90.5237
 36.1516  8490.42  90.9643
 36.1936  8439.48  90.542
 36.2356  8331.7  90.5987
 36.2776  8358.96  90.2257
 36.3196  8391.58  90.0724
 36.3616  8429.4  90.4097
 36.4036  8386.97  90.2383
 36.4456  8413.63  90.5882
 36.4876  8292.34  89.8744
 36.5296  8335.54  90.1502
 36.5716  8263.47  90.5399
 36.6136  8569.25  90.954
 36.6556  8570.29  91.1662
 36.6976  8321.4  90.3299
 36.7396  8367.83  90.3163
 36.7816  8313.96  90.3984
 36.8236  8315.48  90.3235
 36.8656  8331.59  90.4825
 36.9076  8292.25  90.1535
 36.9496  8255.24  89.9375
 36.9916  8255.95  89.5695
 37.0336  8507.9  91.2455
 37.0756  8259.91  89.7001
 37.1176  8057.91  88.863
 37.1596  8288.3  90.1278
 37.2016  8237.83  90.0831
 37.2436  8133.52  88.8195
 37.2856  8283.21  89.8961
 37.3276  8271.62  89.1853
 37.3696  8166.56  89.5047
 37.4116  8391.13  90.6278
 37.4536  8168.56  89.2877
 37.4956  8186.72  89.4211
 37.5376  8194.83  91.0097
 37.5796  8085.03  90.3669
 37.6216  8022.84  88.3001
 37.6636  8002.41  88.0847
 37.7056  8136.26  89.0103
 37.7476  8100.32  88.3429
 37.7896  8206.67  89.4327
 37.8316  7904.68  87.9442
 37.8736  8172.43  88.9375
 37.9156  8064.81  88.3569
 37.9576  8097.78  88.4172
 37.9996  7865.35  86.8706
 38.0416  7970.96  88.2614
 38.0836  8182.85  89.3298
 38.1256  8136.47  89.0332
 38.1676  7930.1  88.032
 38.2096  8057.06  88.3553
 38.2516  8194.56  89.31
 38.2936  8140.67  88.8129
 38.3356  8036.26  88.1708
 38.3776  7943.92  87.9278
 38.4196  8107.18  88.6808
 38.4616  8090.56  88.8076
 38.5036  8212.27  89.3313
 38.5456  7982.26  88.9134
 38.5876  8075.57  89.4628
 38.6296  8027.31  88.1656
 38.6716  7902.24  87.2724
 38.7136  7969.39  87.5856
 38.7556  7826.37  87.2989
 38.7976  7984.13  88.1118
 38.8396  7939.8  88.3185
 38.8816  7737.87  86.9656
 38.9236  7888.16  87.6191
 38.9656  7877.22  87.4768
 39.0076  7928.8  87.1697
 39.0496  7997.16  88.0864
 39.0916  7976.74  87.5962
 39.1336  7821.03  87.1657
 39.1756  7781.24  87.0172
 39.2176  7909.94  88.2678
 39.2596  7851.82  87.8599
 39.3016  7832.24  87.3159
 39.3436  7849.48  87.8464
 39.3856  8003.15  88.1484
 39.4276  7945.33  88.3204
 39.4696  7857.82  87.4645
 39.5116  7786.17  87.5667
 39.5536  7983.5  89.1037
 39.5956  7976.26  88.1595
 39.6376  7976.54  88.1668
 39.6796  7832.42  87.1117
 39.7216  8020.73  88.2445
 39.7636  7890.07  88.0916
 39.8056  7984.03  88.39
 39.8476  7878.99  88.0676
 39.8896  7856.07  87.5677
 39.9316  7915.59  88.1524
 39.9736  7995.68  88.1647
 40.0156  7936.23  87.6626
 40.0576  7968.31  88.2029
 40.0996  8159.06  88.4215
 40.1416  7988.66  88.2848
 40.1836  7966.4  88.0525
 40.2256  7981.27  88.182
 40.2676  7938.58  88.0526
 40.3096  7963.84  88.1159
 40.3516  8030.02  88.5907
 40.3936  8086.61  88.4613
 40.4356  7981.7  88.0776
 40.4776  8054.07  88.8861
 40.5196  8034.96  88.9132
 40.5616  8116.85  89.0033
 40.6036  7889.55  87.9978
 40.6456  8047.84  88.4764
 40.6876  8069.6  88.5942
 40.7296  7906.21  87.8305
 40.7716  7986.36  88.4017
 40.8136  7932.38  88.05
 40.8556  8010.68  88.6121
 40.8976  7956.47  88.2356
 40.9396  7925.41  88.4091
 40.9816  8046.07  88.3598
 41.0236  7988.68  87.8271
 41.0656  8015.04  88.5154
 41.1076  8087.1  88.6806
 41.1496  7987.65  88.0431
 41.1916  7996.82  88.4162
 41.2336  7979.12  88.3089
 41.2756  8063.79  88.3755
 41.3176  7879.56  87.974
 41.3596  8084.09  88.8369
 41.4016  7948.71  88.3494
 41.4436  8040.08  88.6411
 41.4856  8003.92  88.6099
 41.5276  7961.24  88.3892
 41.5696  8058.59  88.5536
 41.6116  7922.9  88.2003
 41.6536  7914.77  88.0123
 41.6956  7999.85  88.5344
 41.7376  8009.63  88.6198
 41.7796  7932.28  88.0679
 41.8216  8000.33  88.6904
 41.8636  7937.7  88.2841
 41.9056  7827.86  87.457
 41.9476  7988.62  88.5897
 41.9896  7922.27  87.8753
 42.0316  7976.5  88.2665
 42.0736  7905.51  87.9861
 42.1156  7830.07  87.4042
 42.1576  7904.38  87.9164
 42.1996  7879.99  87.9258
 42.2416  8053.74  88.464
 42.2836  7738.91  86.8327
 42.3256  7890.19  87.7904
 42.3676  7862.69  87.4385
 42.4096  7873.83  87.4612
 42.4516  7797.52  87.1271
 42.4936  7778.84  87.0941
 42.5356  7911.81  87.9671
 42.5776  7945.67  88.094
 42.6196  7898.48  87.889
 42.6616  7696.29  86.9225
 42.7036  7950.78  87.7304
 42.7456  7797.94  87.2327
 42.7876  7851.81  87.6321
 42.8296  7862.67  87.527
 42.8716  7827.3  87.4967
 42.9136  7810.51  87.1918
 42.9556  7867.51  87.6408
 42.9976  7832.65  87.4125
 43.0396  7764.09  86.7601
 43.0816  7749.84  87.0516
 43.1236  7758.73  87.1635
 43.1656  7801.74  87.238
 43.2076  7741.15  86.9971
 43.2496  7758.01  86.9078
 43.2916  7749.9  87.2309
 43.3336  7753.08  87.0775
 43.3756  7700.87  86.5431
 43.4176  7521.35  85.6139
 43.4596  7682.22  86.3785
 43.5016  7716.94  86.9817
 43.5436  7672.59  86.6279
 43.5856  7744.15  87.0562
 43.6276  7693.49  86.6713
 43.6696  7605.57  86.4288
 43.7116  7780.62  86.9137
 43.7536  7738.53  87.1701
 43.7956  7598.04  87.5567
 43.8376  7601.66  86.1318
 43.8796  7599.03  86.1957
 43.9216  7735.46  86.883
 43.9636  7637.49  86.4399
 44.0056  7756.7  87.3461
 44.0476  7611.88  86.155
 44.0896  7587.65  86.3636
 44.1316  7577.43  85.8295
 44.1736  7442.96  85.1822
 44.2156  7611.94  85.9935
 44.2576  7662.42  86.6086
 44.2996  7584.45  86.1423
 44.3416  7577.79  85.8568
 44.3836  7466.38  85.5542
 44.4256  7514.62  85.4747
 44.4676  7453.53  85.286
 44.5096  7421.49  85.2473
 44.5516  7589  86.1668
 44.5936  7414.76  85.1268
 44.6356  7544.17  85.602
 44.6776  7493.99  85.6385
 44.7196  7503.34  85.9919
 44.7616  7503.91  87.3145
 44.8036  7354.28  84.8735
 44.8456  7463.73  85.7171
 44.8876  7499.19  85.768
 44.9296  7489.82  85.1708
 44.9716  7440.7  85.319
 45.0136  7484.92  85.5086
 45.0556  7534.83  85.7648
 45.0976  7368.03  84.9734
 45.1396  7393.09  84.8831
 45.1816  7410.46  84.9134
 45.2236  7362.77  84.5381
 45.2656  7436.41  85.4655
 45.3076  7471.62  85.444
 45.3496  7280.61  84.6518
 45.3916  7341.24  85.265
 45.4336  7401.29  85.4576
 45.4756  7360.4  85.0651
 45.5176  7479.03  85.3801
 45.5596  7483.51  85.5282
 45.6016  7267.57  84.6976
 45.6436  7235.12  83.7008
 45.6856  7296.68  84.6982
 45.7276  7343.94  86.2874
 45.7696  7348.56  85.9907
 45.8116  7440.45  85.9737
 45.8536  7229.81  84.6405
 45.8956  7361.75  84.7623
 45.9376  7384.3  84.3511
 45.9796  7340.37  84.7807
 46.0216  7321.12  85.0144
 46.0636  7434.23  84.8154
 46.1056  7324.31  84.1728
 46.1476  7329.87  84.7945
 46.1896  7343.22  85.0157
 46.2316  7259.79  84.4103
 46.2736  7103.61  83.8546
 46.3156  7233.59  84.208
 46.3576  7282.5  84.6939
 46.3996  7212.78  84.4462
 46.4416  7298.46  84.5239
 46.4836  7204.05  84.3297
 46.5256  7332.77  85.0181
 46.5676  7314.22  85.0249
 46.6096  7287.22  84.8013
 46.6516  7351.88  84.2233
 46.6936  7276.17  84.2739
 46.7356  7323.93  84.6436
 46.7776  7125.18  84.3309
 46.8196  7240.3  84.6071
 46.8616  7099.09  83.722
 46.9036  7054.4  83.1235
 46.9456  7179.6  83.4968
 46.9876  7134.56  83.3201
 47.0296  7163.25  84.1683
 47.0716  7124.9  83.7683
 47.1136  7204.67  83.9117
 47.1556  7152.28  83.4787
 47.1976  7248.83  84.1177
 47.2396  7129.83  83.8183
 47.2816  7121.01  83.4776
 47.3236  7177.56  84.1767
 47.3656  7093.24  83.6084
 47.4076  7061.27  83.2234
 47.4496  7083.19  83.4515
 47.4916  7096.48  83.7063
 47.5336  7118.94  83.6647
 47.5756  7299.03  84.8344
 47.6176  7072.26  83.3944
 47.6596  7044.01  82.9564
 47.7016  7145.53  83.3693
 47.7436  7155.97  83.7672
 47.7856  7115.38  83.5534
 47.8276  7079.3  83.3827
 47.8696  7056.04  83.3283
 47.9116  7068.22  83.1204
 47.9536  7119.27  83.3665
 47.9956  7007.18  83.408
 48.0376  6932.01  82.7373
 48.0796  7032.99  83.4638
 48.1216  7121.33  83.7977
 48.1636  7184.14  83.7495
 48.2056  7060.87  83.2913
 48.2476  7175.55  84.2732
 48.2896  6991.74  83.0993
 48.3316  6961.83  82.8535
 48.3736  6933.71  82.7158
 48.4156  6987.81  82.8928
 48.4576  6926.91  82.8202
 48.4996  7061.4  83.0843
 48.5416  7093.6  83.5907
 48.5836  6960.49  82.4884
 48.6256  7105.04  83.5494
 48.6676  7001.06  83.4431
 48.7096  7083.89  83.1992
 48.7516  6951.98  82.572
 48.7936  6955.32  82.6553
 48.8356  7017.11  83.0691
 48.8776  6885.76  82.8547
 48.9196  7031.51  83.0956
 48.9616  6959.31  83.0456
 49.0036  6989.6  83.5696
 49.0456  6845.16  82.6827
 49.0876  7053.26  83.4737
 49.1296  6873.24  82.5516
 49.1716  6756.52  81.7249
 49.2136  6891.45  82.4744
 49.2556  6994.67  83.1149
 49.2976  6925.75  82.7697
 49.3396  6852.72  82.3866
 49.3816  6978.84  82.579
 49.4236  6868.76  82.3416
 49.4656  6883.57  82.4548
 49.5076  6888.9  82.2307
 49.5496  6883.81  82.2686
 49.5916  6916.29  82.3801
 49.6336  6846.79  82.1589
 49.6756  6881.75  82.6091
 49.7176  6845.95  82.3271
 49.7596  6776.89  81.6869
 49.8016  6951.93  82.6613
 49.8436  6869.8  82.4603
 49.8856  6874.35  82.492
 49.9276  6780.72  82.0287
 49.9696  6862.53  82.4989
 50.0116  6804.95  82.2754
 50.0536  6817.92  82.3118
 50.0956  6765.55  82.0639
 50.1376  6774.84  81.8217
 50.1796  6680.87  81.5171
 50.2216  6769.28  82.0549
 50.2636  6755.24  81.5894
 50.3056  6711.85  81.4994
 50.3476  6733.81  81.6507
 50.3896  6681.74  81.3061
 50.4316  6788.83  81.7946
 50.4736  6692.27  81.4269
 50.5156  6771.15  81.8921
 50.5576  6875.71  82.2904
 50.5996  6772.16  81.9419
 50.6416  6703.77  81.4599
 50.6836  6710.86  81.5553
 50.7256  6801.71  82.0308
 50.7676  6735.62  81.9485
 50.8096  6682.09  81.1631
 50.8516  6650.41  81.3857
 50.8936  6658.35  81.2193
 50.9356  6796.85  82.161
 50.9776  6715.33  81.8156
 51.0196  6560.72  81.0009
 51.0616  6558.47  80.3268
 51.1036  6627.19  81.0901
 51.1456  6707.39  81.4965
 51.1876  6705.7  80.8365
 51.2296  6685.81  81.3443
 51.2716  6608.55  80.5783
 51.3136  6603.7  81.0007
 51.3556  6612.31  80.6846
 51.3976  6411.86  79.6013
 51.4396  6437.27  80.0595
 51.4816  6590.21  80.8577
 51.5236  6612.8  81.0818
 51.5656  6531.5  80.1888
 51.6076  6578.5  80.5591
 51.6496  6559.09  80.6263
 51.6916  6619.61  81.3532
 51.7336  6595.78  81.2956
 51.7756  6565.26  80.8099
 51.8176  6483.87  80.4122
 51.8596  6522.26  80.664
 51.9016  6616.5  80.8583
 51.9436  6499.94  81.5748
 51.9856  6489.67  81.9403
 52.0276  6572.39  80.9752
 52.0696  6574.76  81.0539
 52.1116  6516.17  80.8093
 52.1536  6453.49  80.3051
 52.1956  6619.96  80.8029
 52.2376  6550.71  80.542
 52.2796  6533.43  80.2641
 52.3216  6472.55  80.568
 52.3636  6494.37  80.2833
 52.4056  6469.18  79.9895
 52.4476  6468.2  80.3429
 52.4896  6297.34  79.321
 52.5316  6448.91  80.3152
 52.5736  6431.48  79.9417
 52.6156  6435.51  80.3375
 52.6576  6545.49  80.4742
 52.6996  6255.43  79.6109
 52.7416  6499.51  81.0038
 52.7836  6512.62  80.9723
 52.8256  6491.46  80.0707
 52.8676  6405.53  80.1106
 52.9096  6490.21  80.7204
 52.9516  6449.84  80.8346
 52.9936  6354.02  80.6189
 53.0356  6410.68  79.9953
 53.0776  6356.49  79.9149
 53.1196  6173.59  78.8766
 53.1616  6331.88  79.9311
 53.2036  6357.95  80.0489
 53.2456  6217.7  79.2652
 53.2876  6364.53  79.9016
 53.3296  6366.16  80.2348
 53.3716  6310.02  79.6278
 53.4136  6202.05  79.0849
 53.4556  6217.13  79.2177
 53.4976  6290.31  79.5327
 53.5396  6323.57  80.1342
 53.5816  6266.8  79.4091
 53.6236  6203.13  79.3422
 53.6656  6314.13  79.6801
 53.7076  6280.85  79.4329
 53.7496  6309.46  79.7291
 53.7916  6391  80.3713
 53.8336  6165.05  78.8336
 53.8756  6222.28  79.7462
 53.9176  6306.45  79.6297
 53.9596  6366.52  80.7724
 54.0016  6236.21  79.2841
 54.0436  6353.89  80.2384
 54.0856  6373.05  79.7945
 54.1276  6283.75  79.4305
 54.1696  6305.49  79.7344
 54.2116  6241.94  79.0903
 54.2536  6282.67  79.1676
 54.2956  6307.38  79.3713
 54.3376  6251.17  79.4961
 54.3796  6268.78  79.5083
 54.4216  6367.45  80.1745
 54.4636  6264.6  79.4818
 54.5056  6320.58  79.6607
 54.5476  6213.55  79.316
 54.5896  6175.77  78.9099
 54.6316  6270.56  79.3691
 54.6736  6285.98  79.5439
 54.7156  6268.68  79.4447
 54.7576  6254.53  79.3644
 54.7996  6265.11  79.5607
 54.8416  6259.11  79.5718
 54.8836  6139.56  78.9204
 54.9256  6156.19  78.7843
 54.9676  6232.23  79.1219
 55.0096  6282.1  79.5078
 55.0516  6186.22  79.1335
 55.0936  6210.92  78.9198
 55.1356  6185.89  78.8047
 55.1776  6156.05  78.8799
 55.2196  6199.64  78.9434
 55.2616  6124.84  78.6736
 55.3036  6205.81  79.3535
 55.3456  6240.16  79.7206
 55.3876  6261.82  79.5984
 55.4296  6201.16  79.1927
 55.4716  6182.46  79.1103
 55.5136  6182.16  78.8671
 55.5556  6167.33  78.8401
 55.5976  6159  78.8434
 55.6396  6121.61  78.5494
 55.6816  6179.73  78.8051
 55.7236  6233.44  79.1855
 55.7656  6280.11  79.2417
 55.8076  6268.52  79.1526
 55.8496  6197.74  79.0201
 55.8916  6175.16  79.0772
 55.9336  6063.87  78.1795
 55.9756  6189.31  78.8786
 56.0176  6030.8  78.0119
 56.0596  6197.57  79.0625
 56.1016  6210.03  79.1542
 56.1436  6223.07  79.502
 56.1856  6195.85  79.0707
 56.2276  6164.94  78.9293
 56.2696  6199.8  79.1257
 56.3116  6176.93  79.3734
 56.3536  6119.03  78.6668
 56.3956  6119.96  78.6659
 56.4376  6090.15  78.5027
 56.4796  6191.93  78.9621
 56.5216  6135.82  78.9638
 56.5636  6235.06  79.2024
 56.6056  6154.6  78.9163
 56.6476  6207.32  78.8864
 56.6896  6062.76  78.3958
 56.7316  6176.39  79.0419
 56.7736  6157.09  78.9197
 56.8156  6190.61  79.1226
 56.8576  6112.59  78.5724
 56.8996  6118.59  78.549
 56.9416  6098.15  78.721
 56.9836  5981.25  77.4808
 57.0256  6012.52  77.9972
 57.0676  6163.25  79.0875
 57.1096  6145.63  78.7712
 57.1516  6242.9  79.4493
 57.1936  6141.54  78.5543
 57.2356  6104.95  78.639
 57.2776  6148.46  78.8669
 57.3196  6107.84  78.9806
 57.3616  5998.49  77.7712
 57.4036  6103.81  78.5116
 57.4456  6089.39  78.3834
 57.4876  6200.49  78.9512
 57.5296  6079.85  78.518
 57.5716  6028.08  78.1772
 57.6136  6129.35  78.6433
 57.6556  6148.29  78.9017
 57.6976  6134.16  78.6418
 57.7396  6047.24  78.4551
 57.7816  6021.94  78.6432
 57.8236  6042.99  78.5775
 57.8656  6089.57  78.5365
 57.9076  6098.43  78.6203
 57.9496  6090.78  78.9243
 57.9916  6067.17  78.2836
 58.0336  6116.75  78.8826
 58.0756  6068.4  78.2048
 58.1176  6161.28  78.7984
 58.1596  6052.31  78.6732
 58.2016  6187.95  78.7611
 58.2436  6136.02  78.8457
 58.2856  6110.43  78.5981
 58.3276  6104.92  78.9382
 58.3696  6103.94  78.6856
 58.4116  6187.49  79.0823
 58.4536  6115.02  78.5046
 58.4956  6101.64  78.5935
 58.5376  6160.98  78.5462
 58.5796  6019.73  78.0633
 58.6216  6131.88  78.5988
 58.6636  6208.27  79.3063
 58.7056  6102.71  78.4866
 58.7476  6004.03  78.2922
 58.7896  6113.21  78.6422
 58.8316  6107.56  78.603
 58.8736  6145.17  78.8484
 58.9156  6071.22  78.4216
 58.9576  6143.66  79.2087
 58.9996  6209.02  78.8667
 59.0416  6211.24  79.2403
 59.0836  6115.79  78.5562
 59.1256  6070.12  78.966
 59.1676  6010.04  78.8796
 59.2096  6175.59  79.2594
 59.2516  6226.25  79.1585
 59.2936  6176.14  79.1711
 59.3356  6185.6  79.1079
 59.3776  6325.21  80.1687
 59.4196  6133.4  78.8798
 59.4616  6119.94  78.6517
 59.5036  6101.72  78.5646
 59.5456  6262.25  79.2847
 59.5876  6308.93  79.7749
 59.6296  6171.12  78.9688
 59.6716  6033.56  78.1416
 59.7136  6160.86  78.9498
 59.7556  5987.77  77.9687
 59.7976  6142.38  78.7089
 59.8396  6173.96  78.8041
 59.8816  6129.79  79.0667
 59.9236  6162.91  78.9245
 59.9656  6158.38  79.1569
 60.0076  6130.72  78.3333
 60.0496  6209.83  79.3481
 60.0916  6264.14  79.1016
 60.1336  6213.82  79.9064
 60.1756  5974.47  79.5301
 60.1996  0.0000000E+00  0.0000000E+00