File: docs/examples/opeando_xrd/IS17_D/Data/IS17_D/17_Db_f00133.xye
# /beamlines/bl04/projects/cycle2025-II/20250340211-lsimonelli/DATA/IS17_D/17_Db_f00133.xye : mythproc.py merge -s 0.006 -l 0.5 -f /beamlines/bl04/inhouse/ff/FlatField/ff_20Nov2024rod8mm60s_17keV.raw -b True -c true -o xye /beamlines/bl04/projects/cycle2025-II/20250340211-lsimonelli/DATA/IS17_D/17_Db_00133.dat
# IsMon = [6767229, 6766155, 6765211]  IsPos = [-1.5000, -2.4884, -3.4988]
# Wave = 0.4962  CalPath /beamlines/bl04/projects/cycle2025-II/20250340211-lsimonelli/DATA/Align/Si_Pos1_25keV_f00001.cal
# Date = 2025-09-25_06:45:59 Dt = 4.8000  Bin = 0.0060  <imon> = 6766198 +/- 824 (Min/Max) 6765211 / 6767229
# icurr 251.1553  mocoIn 1.7128E-05  mocoOut 0.8037  i15 7.08851e+06  imon 6.7662e+06  i7 5.0000  iEMpd_timer 4.8000  iEMpd_1 3.5496E-08  iEMpd_2 8.0270E-08  iEMpd_3 1.7288E-08  iEMpd_4 4.9190E-08  iEMhp_timer 4.8000  iEMhp_1 4.9057E-06  iEMhp_2 -2.6549E-08  iEMhp_3 -2.4068E-08  iEMhp_4 -2.0798E-08
#      9776
 1.5856  44554  216.727
 1.6276  51324.2  228.62
 1.6696  56639.1  239.319
 1.7116  63753.7  254.402
 1.7536  71466.4  268.203
 1.7956  75730.1  276.778
 1.8376  72579.2  271.388
 1.8796  62460.5  249.913
 1.9216  51600.2  228.051
 1.9636  44824.5  212.215
 2.0056  40569.1  200.601
 2.0476  37523.6  195.04
 2.0896  36572.6  191.423
 2.1316  35110.4  186.656
 2.1736  33748.8  184.452
 2.2156  34033  183.741
 2.2576  32808.7  181.048
 2.2996  31440.9  177.889
 2.3416  32043.3  178.153
 2.3836  31663.5  177.202
 2.4256  30483.7  174.435
 2.4676  29735.7  172.038
 2.5096  29706.2  172.009
 2.5516  30424.8  178.056
 2.5936  56325.3  237.424
 2.6356  28978.4  171.02
 2.6776  27924.8  166.782
 2.7196  27364.2  165.587
 2.7616  27228.4  164.966
 2.8036  26683.7  163.471
 2.8456  26726.4  164.247
 2.8876  26101.9  162.181
 2.9296  25708.9  161.078
 2.9716  25398  159.596
 3.0136  25347.7  159.503
 3.0556  25281.1  159.679
 3.0976  25460.7  159.14
 3.1396  24999.2  158.439
 3.1816  24678.4  157.355
 3.2236  24597.4  157.084
 3.2656  24377.6  155.437
 3.3076  24347.5  156.805
 3.3496  24382  155.845
 3.3916  24705.6  156.69
 3.4336  25184.3  158.792
 3.4756  25548.8  159.874
 3.5176  26103.5  161.37
 3.5596  25631.8  162.907
 3.6016  26302.6  162.062
 3.6436  25278.9  159.98
 3.6856  24932.4  157.188
 3.7276  23892.3  154.938
 3.7696  23931.3  155.06
 3.8116  23607  154.105
 3.8536  23669.8  154.24
 3.8956  23445.7  153.332
 3.9376  23631.1  154.204
 3.9796  23167  152.174
 4.0216  23288.6  151.606
 4.0636  23391  153.42
 4.1056  23296.5  152.758
 4.1476  23753.4  154.544
 4.1896  23712.5  154.286
 4.2316  23917  154.774
 4.2736  24361.4  156.005
 4.3156  24417.2  156.418
 4.3576  25333.8  159.219
 4.3996  25431  159.813
 4.4416  26006  161.188
 4.4836  26583.7  163.129
 4.5256  27030.4  165.102
 4.5676  26724.5  164.424
 4.6096  27105.9  164.615
 4.6516  27733.7  165.838
 4.6936  27838.8  166.988
 4.7356  28267.1  168.084
 4.7776  27802.9  166.528
 4.8196  27790.6  167.134
 4.8616  27031.3  164.333
 4.9036  27017.7  164.022
 4.9456  26744  163.847
 4.9876  26302.5  162.389
 5.0296  26397.3  162.515
 5.0716  26063.4  162.241
 5.1136  26581.9  163.565
 5.1556  26691.9  163.362
 5.1976  29267.4  171.039
 5.2396  27216  164.632
 5.2816  27427.7  165.748
 5.3236  27231.8  164.853
 5.3656  26497.2  163.542
 5.4076  26660.7  164.189
 5.4496  26596.5  163.49
 5.4916  26795.4  163.843
 5.5336  26685.4  163.52
 5.5756  26666.3  163.464
 5.6176  26851.6  163.482
 5.6596  27169.3  165.277
 5.7016  27180.6  164.733
 5.7436  27290.4  165.343
 5.7856  27182.9  165.083
 5.8276  27549.1  165.906
 5.8696  27725.7  166.49
 5.9116  27632.8  166.933
 5.9536  28000.5  167.777
 5.9956  28242.9  167.889
 6.0376  28183.6  168.337
 6.0796  28382.9  168.756
 6.1216  28234.3  168.524
 6.1636  28560.1  168.545
 6.2056  28400.3  168.752
 6.2476  28946.2  170.037
 6.2896  28890.9  169.744
 6.3316  28942.1  170.067
 6.3736  28850.1  169.697
 6.4156  28810.1  169.515
 6.4576  29215  170.272
 6.4996  29059.2  170.295
 6.5416  29215.9  170.873
 6.5836  29127.2  170.861
 6.6256  29420.8  171.273
 6.6676  29727.7  171.731
 6.7096  29909  173.107
 6.7516  30129.3  173.414
 6.7936  30689.8  174.414
 6.8356  30700.1  174.539
 6.8776  30869  175.827
 6.9196  30662.6  175.634
 6.9616  31199.3  176.61
 7.0036  31832.4  178.039
 7.0456  31708.8  176.994
 7.0876  31775.7  178.78
 7.1296  31517.9  177.277
 7.1716  31749.5  177.47
 7.2136  31214.9  175.752
 7.2556  31588.3  176.956
 7.2976  31603.2  177.492
 7.3396  31327.3  176.932
 7.3816  31664.3  178.103
 7.4236  32035.3  178.43
 7.4656  32162  178.234
 7.5076  32490.6  179.299
 7.5496  32185.4  179.001
 7.5916  32051.4  178.673
 7.6336  32836.5  180.735
 7.6756  32639.8  180.041
 7.7176  33276.3  182.109
 7.7596  33170.6  183.058
 7.8016  35152.1  190.725
 7.8436  33318.7  182.358
 7.8856  33667.2  182.919
 7.9276  34159.6  184.651
 7.9696  34744.4  186.535
 8.0116  35164.2  186.209
 8.0536  35432.6  187.167
 8.0956  36007.4  189.865
 8.1376  35951.9  189.191
 8.1796  36090.9  190.089
 8.2216  37001.1  191.211
 8.2636  37373.3  192.426
 8.3056  36935.5  192.067
 8.3476  37841.9  193.724
 8.3896  37600.7  193.189
 8.4316  37590.7  193.332
 8.4736  37783.4  193.297
 8.5156  37225.2  192.138
 8.5576  36914.3  192.291
 8.5996  37022.8  191.461
 8.6416  36997.2  192.651
 8.6836  36334.5  190.757
 8.7256  37586.1  193.449
 8.7676  38083.8  197.699
 8.8096  38287.1  195.462
 8.8516  37848  193.956
 8.8936  37612.5  193.256
 8.9356  37332.5  192.861
 8.9776  37096.6  192.326
 9.0196  36989.4  191.724
 9.0616  37053  191.393
 9.1036  37207.8  192.975
 9.1456  36394.4  190.179
 9.1876  36456.5  190.284
 9.2296  36212.9  189.095
 9.2716  36085.5  188.79
 9.3136  35993.9  188.553
 9.3556  36216.7  189.11
 9.3976  35432.1  187.559
 9.4396  35338.2  187.225
 9.4816  34963.2  186.079
 9.5236  35053.4  186.216
 9.5656  34413.7  184.873
 9.6076  33966.3  184.203
 9.6496  34363.7  185.15
 9.6916  33949.2  183.99
 9.7336  34140.6  184.285
 9.7756  34110.5  185.345
 9.8176  33618.7  183.638
 9.8596  33613.8  182.044
 9.9016  32994.6  180.368
 9.9436  32704.2  179.314
 9.9856  32531.8  179.282
 10.0276  32169.6  179.363
 10.0696  32809.9  180.17
 10.1116  31703.5  177.369
 10.1536  31872.4  177.484
 10.1956  31244.6  175.837
 10.2376  31041.8  174.774
 10.2796  30541.6  173.456
 10.3216  30549  173.629
 10.3636  30620.8  174.013
 10.4056  30965.3  175.403
 10.4476  31423.7  176.291
 10.4896  32916.3  179.861
 10.5316  31594.3  176.591
 10.5736  29811.5  172.307
 10.6156  29604.8  171.464
 10.6576  31705.3  175.914
 10.6996  29342.4  169.966
 10.7416  28629.4  168.104
 10.7836  28861.3  169.473
 10.8256  27976.8  167.286
 10.8676  27926.1  166.676
 10.9096  27935.6  166.728
 10.9516  27598.6  164.655
 10.9936  27935.3  165.876
 11.0356  27612.4  165.532
 11.0776  27918.4  165.765
 11.1196  27560.7  165.478
 11.1616  26633.5  162.339
 11.2036  27475  164.73
 11.2456  27771.4  166.351
 11.2876  27196.6  164.329
 11.3296  26619.3  162.495
 11.3716  27198.3  163.979
 11.4136  27431.6  165.54
 11.4556  27482.7  165.343
 11.4976  28011.4  165.89
 11.5396  27441.9  164.368
 11.5816  26840.7  162.983
 11.6236  25931.4  160.451
 11.6656  26420.9  161.096
 11.7076  25674.1  159.638
 11.7496  25630  163.542
 11.7916  25739.4  159.082
 11.8336  24870.7  157.274
 11.8756  25128.8  157.637
 11.9176  24799.4  156.273
 11.9596  25016.6  157.127
 12.0016  24805  157.239
 12.0436  24665.1  156.242
 12.0856  24281.2  155.522
 12.1276  24479.9  156.105
 12.1696  24502.7  155.293
 12.2116  24336.8  154.769
 12.2536  25323.8  158.667
 12.2956  24267.8  154.698
 12.3376  24498.3  155.642
 12.3796  24350.1  155.66
 12.4216  24223.9  154.444
 12.4636  24220.1  155.378
 12.5056  24011  153.967
 12.5476  24247.9  154.233
 12.5896  23898.4  153.767
 12.6316  24297.2  155.194
 12.6736  23988.1  154.701
 12.7156  24121.1  154.96
 12.7576  24040.3  154.954
 12.7996  24254.1  154.279
 12.8416  24129.9  154.942
 12.8836  24297.1  155.315
 12.9256  24839.8  156.052
 12.9676  24502.1  155.389
 13.0096  24738.4  157.265
 13.0516  24403.5  155.222
 13.0936  24519.8  155.722
 13.1356  24878.3  156.107
 13.1776  24456  155.786
 13.2196  24470.6  155.472
 13.2616  24264.1  155.139
 13.3036  24719.5  156.716
 13.3456  24226.4  155.329
 13.3876  24762.5  156.306
 13.4296  24553.3  155.815
 13.4716  24660.3  155.772
 13.5136  24778.7  156.285
 13.5556  24588  156.308
 13.5976  24827.8  157.239
 13.6396  24684.4  156.143
 13.6816  24904.5  157.18
 13.7236  25045.7  157.342
 13.7656  26733.2  163.015
 13.8076  27237.3  163.177
 13.8496  26106.1  160.64
 13.8916  25049.4  158.294
 13.9336  24206.1  154.869
 13.9756  24020.7  153.661
 14.0176  23782.8  153.579
 14.0596  24268.6  155.057
 14.1016  23805.8  154.005
 14.1436  23890.7  153.394
 14.1856  23373  152.029
 14.2276  23291.3  152.242
 14.2696  23271.4  152.031
 14.3116  22822  150.468
 14.3536  22533.5  149.667
 14.3956  22481.4  149.227
 14.4376  22526  149.162
 14.4796  22447.8  148.897
 14.5216  22202.5  148.875
 14.5636  22184.5  148.373
 14.6056  22289.8  148.286
 14.6476  22019.5  146.627
 14.6896  21686.8  146.062
 14.7316  21429.4  146.229
 14.7736  21175.4  144.503
 14.8156  20969.8  143.814
 14.8576  21080.4  144.058
 14.8996  20895.4  144.626
 14.9416  20331.9  142.68
 14.9836  20277.7  142.475
 15.0256  19766.6  139.59
 15.0676  19810.4  140.056
 15.1096  19604.3  139.067
 15.1516  19358.5  138.743
 15.1936  19366.8  138.204
 15.2356  18997.3  137.157
 15.2776  18944.4  136.558
 15.3196  18618.2  136.36
 15.3616  18631.4  136.171
 15.4036  18538.2  135.691
 15.4456  18848.8  136.471
 15.4876  18435.4  134.653
 15.5296  18346.4  134.609
 15.5716  18027.7  133.044
 15.6136  18073.1  133.536
 15.6556  18436.9  134.111
 15.6976  18202.9  133.551
 15.7396  17821.8  132.533
 15.7816  17730.1  131.708
 15.8236  17521.7  131.615
 15.8656  17479.2  131.254
 15.9076  17334.4  130.536
 15.9496  18175.9  136.491
 15.9916  17556.8  134.555
 16.0336  17884.5  132.646
 16.0756  17535.3  131.675
 16.1176  17236  130.468
 16.1596  17061.9  131.142
 16.2016  17048.6  129.849
 16.2436  16989.3  130.006
 16.2856  17174.1  130.215
 16.3276  16641.6  128.62
 16.3696  16876  129.352
 16.4116  16667.1  128.984
 16.4536  16892.5  129.667
 16.4956  17232.8  130.691
 16.5376  16817.7  129.3
 16.5796  16671.8  128.104
 16.6216  16750.7  128.668
 16.6636  16407.2  127.544
 16.7056  16468.1  127.631
 16.7476  16783.4  128.377
 16.7896  16745  128.982
 16.8316  16571  128.289
 16.8736  16947.1  129.991
 16.9156  16603.6  129.002
 16.9576  16387.3  128.949
 16.9996  16258  128.916
 17.0416  16550.5  128.436
 17.0836  16403.2  127.623
 17.1256  16182.1  126.768
 17.1676  16324  127.262
 17.2096  16136.2  126.433
 17.2516  16238.8  126.931
 17.2936  16047.3  126.236
 17.3356  15794.8  125.219
 17.3776  15732.6  125.17
 17.4196  15611.6  124.386
 17.4616  15602.2  124.252
 17.5036  15528.7  124.324
 17.5456  15334.1  124.177
 17.5876  15296.7  123.077
 17.6296  15715.6  124.559
 17.6716  15324.8  123.601
 17.7136  15538.5  124.588
 17.7556  15140.9  123.279
 17.7976  15274.4  123.554
 17.8396  15141.8  122.522
 17.8816  14957.6  122.338
 17.9236  15076.8  122.608
 17.9656  14981.9  122.756
 18.0076  15178.9  123.149
 18.0496  15255  122.582
 18.0916  16584.3  128.387
 18.1336  15915.6  125.877
 18.1756  15470.6  123.638
 18.2176  15314  123.224
 18.2596  14807.5  120.904
 18.3016  15036.5  122.101
 18.3436  15251.2  122.962
 18.3856  14935.6  121.822
 18.4276  14803.6  120.965
 18.4696  14672.7  120.523
 18.5116  14755.2  121.136
 18.5536  14649  121.06
 18.5956  14500.7  120.005
 18.6376  14566.2  120.682
 18.6796  14537.7  119.88
 18.7216  14708.1  121.07
 18.7636  14500.9  120.214
 18.8056  14207.5  118.919
 18.8476  14099.5  119.1
 18.8896  14108  118.466
 18.9316  14398.4  119.665
 18.9736  14222.6  118.631
 19.0156  14274.5  119.266
 19.0576  14610.8  119.48
 19.0996  14495.4  119.744
 19.1416  14286  119.271
 19.1836  14134.3  118.236
 19.2256  14055.2  118.123
 19.2676  14161.8  118.657
 19.3096  14021.9  118.323
 19.3516  14147.6  118.612
 19.3936  14060.5  118.335
 19.4356  14195.5  118.783
 19.4776  14141.2  118.648
 19.5196  14184.5  118.689
 19.5616  13974.4  118.063
 19.6036  13959.9  117.495
 19.6456  14199.4  118.609
 19.6876  14304.8  118.678
 19.7296  14258.9  118.959
 19.7716  14138.2  118.634
 19.8136  14499.8  120.334
 19.8556  14682.1  120.561
 19.8976  14788.5  121.067
 19.9396  14687.6  120.231
 19.9816  14693.5  120.511
 20.0236  14622.7  120.418
 20.0656  14173.8  118.55
 20.1076  14168.6  118.999
 20.1496  13855.1  117.677
 20.1916  13984.3  117.7
 20.2336  13712.3  116.508
 20.2756  13549.2  116.248
 20.3176  13473.7  115.669
 20.3596  13453.9  115.583
 20.4016  13612  116.051
 20.4436  13369.9  115.575
 20.4856  13524.4  116.03
 20.5276  13410.4  116.008
 20.5696  13362.7  115.35
 20.6116  13217.3  114.895
 20.6536  13355.9  115.014
 20.6956  13185.5  114.403
 20.7376  13146.2  114.446
 20.7796  13124.2  114.033
 20.8216  13272.6  114.398
 20.8636  13411.3  115.363
 20.9056  13544.7  115.883
 20.9476  13229.5  114.362
 20.9896  13606.1  115.832
 21.0316  13240.9  114.184
 21.0736  13264.6  114.808
 21.1156  13182.2  114.608
 21.1576  13298.3  115.148
 21.1996  13053.6  114.074
 21.2416  13119.1  114.178
 21.2836  13056.1  113.883
 21.3256  13025.3  113.822
 21.3676  13179.9  114.022
 21.4096  13059.3  113.889
 21.4516  12873.5  112.889
 21.4936  12740.5  112.577
 21.5356  12879  113.128
 21.5776  13001.2  113.5
 21.6196  12812.4  112.712
 21.6616  12879.8  113.086
 21.7036  12980.3  113.3
 21.7456  12816.8  112.664
 21.7876  12723.3  112.011
 21.8296  12790.2  112.149
 21.8716  12804.1  112.432
 21.9136  12860.3  112.89
 21.9556  12830.7  112.432
 21.9976  12632.3  111.591
 22.0396  12729.5  112.273
 22.0816  12637.2  112.393
 22.1236  12917.8  113.09
 22.1656  12750.4  112.5
 22.2076  12597.6  111.281
 22.2496  12512.5  110.935
 22.2916  12394.1  110.298
 22.3336  12375.5  110.926
 22.3756  12674.2  111.98
 22.4176  12431.3  110.749
 22.4596  12236.4  110.469
 22.5016  12249  110.033
 22.5436  12543.1  111.222
 22.5856  12665.9  112.011
 22.6276  12826.6  112.849
 22.6696  12552.7  111.999
 22.7116  12521.9  111.369
 22.7536  12471.8  111.125
 22.7956  12403.3  110.151
 22.8376  12355.9  110.466
 22.8796  12230.4  109.705
 22.9216  12355.5  110.807
 22.9636  12242  109.459
 23.0056  12447  110.502
 23.0476  12622.7  111.856
 23.0896  12948.8  112.66
 23.1316  12563  111.405
 23.1736  12612.9  114.568
 23.2156  12738  112.5
 23.2576  12823.2  113.004
 23.2996  12453.3  111.149
 23.3416  12718.2  112.85
 23.3836  12507.7  111.142
 23.4256  12791.2  112.515
 23.4676  12654.6  111.605
 23.5096  12545.3  111.789
 23.5516  12499.8  110.879
 23.5936  12845.6  113.328
 23.6356  12865.1  113.075
 23.6776  12556.8  111.927
 23.7196  12621.1  111.994
 23.7616  12575.3  111.503
 23.8036  12855.5  112.781
 23.8456  12456.2  110.577
 23.8876  12523  111.223
 23.9296  12218.9  110.355
 23.9716  12337.1  110.093
 24.0136  12551.3  111.955
 24.0556  12350.5  110.772
 24.0976  12047.4  109.221
 24.1396  12004.9  111.649
 24.1816  12338.4  111.583
 24.2236  12303.9  111.043
 24.2656  12169.8  109.91
 24.3076  12199.4  110.311
 24.3496  12211.3  110.243
 24.3916  12224.9  110.353
 24.4336  12172.9  110.322
 24.4756  12156.9  110.135
 24.5176  12036.9  109.214
 24.5596  12044.9  109.575
 24.6016  11725.4  108.209
 24.6436  12078  109.326
 24.6856  11765.5  107.648
 24.7276  11748.4  107.893
 24.7696  11890.2  108.658
 24.8116  11769.1  108.272
 24.8536  11602  107.511
 24.8956  11637.9  107.403
 24.9376  11580.5  107.322
 24.9796  11400.4  106.598
 25.0216  11566.8  107.485
 25.0636  11576.3  107.182
 25.1056  11371.8  106.938
 25.1476  11384.9  108.64
 25.1896  11282.8  106.659
 25.2316  11309.8  106.061
 25.2736  11236.2  105.366
 25.3156  11334.6  105.902
 25.3576  11175.2  105.583
 25.3996  11218.6  105.781
 25.4416  11298.8  106.133
 25.4836  11068.5  105.555
 25.5256  11216.3  105.622
 25.5676  11116.2  104.87
 25.6096  11058.2  105.184
 25.6516  11118  104.97
 25.6936  11183.6  105.595
 25.7356  11082.3  105.249
 25.7776  11118.4  105.101
 25.8196  11022.7  104.809
 25.8616  11009.2  104.678
 25.9036  11165.5  104.866
 25.9456  10972.8  104.555
 25.9876  11097  105.061
 26.0296  11156.1  105.005
 26.0716  11012.7  104.75
 26.1136  11158.9  105.37
 26.1556  11029.7  104.15
 26.1976  10926.6  104.592
 26.2396  10953.3  103.865
 26.2816  10969.2  104.556
 26.3236  10987.5  104.799
 26.3656  11092.6  105.02
 26.4076  10987.4  104.727
 26.4496  11021.9  104.48
 26.4916  11159.8  105.019
 26.5336  11453.9  106.75
 26.5756  11725.4  107.887
 26.6176  11074.9  104.872
 26.6596  10924.7  104.459
 26.7016  10840.9  103.818
 26.7436  10813.6  103.827
 26.7856  10627.1  102.919
 26.8276  10617  102.833
 26.8696  10719.7  103.19
 26.9116  10674.9  102.915
 26.9536  10571.1  102.468
 26.9956  10484.6  102.085
 27.0376  10653.9  103.121
 27.0796  10637.4  102.772
 27.1216  10642.3  102.856
 27.1636  10467.6  102.176
 27.2056  10392.4  101.696
 27.2476  10526.4  102.329
 27.2896  10515.3  102.408
 27.3316  10358.9  101.343
 27.3736  10323.1  101.45
 27.4156  10459.1  101.942
 27.4576  10404  101.907
 27.4996  10403.2  101.501
 27.5416  10259.1  101.098
 27.5836  10259.9  100.946
 27.6256  10280.5  101.236
 27.6676  10313.8  101.391
 27.7096  10410.3  101.74
 27.7516  10459.6  102.134
 27.7936  10714.7  103.5
 27.8356  10576.3  102.45
 27.8776  10644.3  102.845
 27.9196  10351.9  101.28
 27.9616  10415.6  101.795
 28.0036  10322.6  101.295
 28.0456  10219.4  100.931
 28.0876  10077.3  100.307
 28.1296  10212  100.807
 28.1716  10259.3  101.062
 28.2136  10032.6  99.9122
 28.2556  10177.5  100.741
 28.2976  10055.3  100.131
 28.3396  10028.8  99.7572
 28.3816  10111  100.169
 28.4236  10019.5  99.8696
 28.4656  9959.66  99.6136
 28.5076  9930.66  99.0977
 28.5496  9964  99.532
 28.5916  9999.57  99.5221
 28.6336  9963.27  99.6754
 28.6756  9934.11  98.7351
 28.7176  9983.51  99.5385
 28.7596  9825.53  98.6436
 28.8016  9989.77  99.5005
 28.8436  9734.69  98.4611
 28.8856  9934.79  99.3172
 28.9276  9885.85  99.3196
 28.9696  9889.91  98.9943
 29.0116  9637.27  97.9003
 29.0536  9648.49  98.1723
 29.0956  9804.45  98.6504
 29.1376  9800.31  98.6082
 29.1796  9729.6  98.3011
 29.2216  9739.33  98.192
 29.2636  9806.93  98.6064
 29.3056  9815.63  98.432
 29.3476  9754.01  98.6517
 29.3896  9713.75  98.5634
 29.4316  9679.66  97.726
 29.4736  9386.01  96.2964
 29.5156  9657.17  97.5943
 29.5576  9640.6  98.2494
 29.5996  9600.84  97.31
 29.6416  9391.95  96.3586
 29.6836  9483.35  96.7596
 29.7256  9400.42  96.8931
 29.7676  9589.48  97.5254
 29.8096  9418.92  96.5964
 29.8516  9323.85  96.4391
 29.8936  9472.16  97.2946
 29.9356  9506.16  97.2247
 29.9776  9355.73  96.5976
 30.0196  9475.59  96.6085
 30.0616  9393.87  96.5649
 30.1036  9461.46  96.7331
 30.1456  9362  96.4587
 30.1876  9350.25  96.3752
 30.2296  9333.02  96.2377
 30.2716  9486.48  96.6629
 30.3136  9429.18  97.2262
 30.3556  9516.8  97.6732
 30.3976  9616.25  99.6766
 30.4396  9886.77  98.376
 30.4816  9721.24  97.1676
 30.5236  9609.34  96.6031
 30.5656  9526.53  96.8497
 30.6076  9625.56  97.114
 30.6496  9703.04  97.5554
 30.6916  9363.82  95.93
 30.7336  9479.01  96.6651
 30.7756  9550.26  97.1049
 30.8176  9554.21  97.0533
 30.8596  9634.97  97.209
 30.9016  9618  96.9963
 30.9436  9600.45  97.1342
 30.9856  9543.43  96.9691
 31.0276  9493.5  96.3505
 31.0696  9415.32  96.5119
 31.1116  9449.88  96.6558
 31.1536  9403.52  96.2949
 31.1956  9394.72  96.3441
 31.2376  9237.54  95.5624
 31.2796  9421.15  96.0391
 31.3216  9491.53  96.3061
 31.3636  9407.62  96.5913
 31.4056  9425.52  98.0024
 31.4476  9451.01  96.0306
 31.4896  9432.39  96.4232
 31.5316  9455.6  95.9575
 31.5736  9816.36  97.5965
 31.6156  9519.96  96.1142
 31.6576  9671.7  96.9473
 31.6996  9588.88  96.214
 31.7416  9529.64  96.8706
 31.7836  9462.76  95.6577
 31.8256  9411.59  95.6805
 31.8676  9460.89  95.9175
 31.9096  9281.69  95.235
 31.9516  9204.67  95.1481
 31.9936  9201.02  94.9472
 32.0356  9383.4  95.939
 32.0776  9467.18  96.2652
 32.1196  9525.55  96.5694
 32.1616  9454.68  95.7432
 32.2036  9436.21  96.1629
 32.2456  9292.48  95.8133
 32.2876  9428.74  95.9982
 32.3296  9229.8  94.9444
 32.3716  9100.3  94.4012
 32.4136  9146.26  94.8434
 32.4556  9258.99  94.8045
 32.4976  9215.93  94.5282
 32.5396  9086.83  93.8879
 32.5816  9061.47  93.8823
 32.6236  9089.62  94.0975
 32.6656  9090.89  94.6479
 32.7076  8992.74  93.7926
 32.7496  9021.46  93.6107
 32.7916  9105.8  94.0083
 32.8336  9041.19  93.7684
 32.8756  9146.12  94.0253
 32.9176  8984.82  93.6777
 32.9596  8921.44  93.4247
 33.0016  9072.39  93.988
 33.0436  9066.2  94.1227
 33.0856  8987.12  93.8093
 33.1276  8821.08  92.663
 33.1696  9012.99  93.5068
 33.2116  9062.03  93.9944
 33.2536  9113.79  94.2475
 33.2956  8881.29  93.1307
 33.3376  8828.67  92.6776
 33.3796  9007.27  93.7442
 33.4216  8960.33  93.0865
 33.4636  8950.04  93.1855
 33.5056  8803.04  92.6635
 33.5476  8910.87  93.2013
 33.5896  8969.52  93.3052
 33.6316  8939.21  93.4469
 33.6736  8695.36  92.4198
 33.7156  8755.35  92.7748
 33.7576  8824.19  92.775
 33.7996  8878.43  92.8256
 33.8416  8607.98  91.5828
 33.8836  8778.13  92.262
 33.9256  8805.65  92.456
 33.9676  8889.44  92.7945
 34.0096  8757.99  92.4189
 34.0516  8675.68  91.6202
 34.0936  8616.13  91.5786
 34.1356  8793.45  92.2543
 34.1776  8599.11  91.2292
 34.2196  8598.3  91.3894
 34.2616  8626.91  91.6996
 34.3036  8686.27  92.2496
 34.3456  8664.88  91.8929
 34.3876  8692.8  92.1034
 34.4296  8739.07  91.9504
 34.4716  8727.99  92.0392
 34.5136  8685.81  92.0076
 34.5556  8568.13  91.6415
 34.5976  8866.75  93.0648
 34.6396  8606.96  91.3716
 34.6816  8763.71  92.3068
 34.7236  8764.11  92.0746
 34.7656  8737.48  92.1594
 34.8076  8555.39  91.5253
 34.8496  8595.67  91.5902
 34.8916  8574.09  91.3385
 34.9336  8660.42  91.7771
 34.9756  8782.61  92.3629
 35.0176  8636.88  92.1001
 35.0596  8720.96  92.3654
 35.1016  8614.5  91.5592
 35.1436  8833.8  92.3977
 35.1856  8538.96  90.9608
 35.2276  8574.73  91.3264
 35.2696  8507.28  91.1492
 35.3116  8504.08  91.2533
 35.3536  8621.28  91.5938
 35.3956  8460.72  90.44
 35.4376  8570.98  91.5875
 35.4796  8621.99  91.9107
 35.5216  8543.82  91.4461
 35.5636  8327.07  91.0211
 35.6056  8441.38  90.6674
 35.6476  8518.98  90.979
 35.6896  8580.48  91.4019
 35.7316  8399.81  90.4077
 35.7736  8507.72  91.1661
 35.8156  8479.05  91.0104
 35.8576  8443.48  91.0736
 35.8996  8504.04  91.3745
 35.9416  8419.35  90.4286
 35.9836  8377.42  90.6513
 36.0256  8652.33  92.0235
 36.0676  8574.58  91.3639
 36.1096  8527.85  91.2679
 36.1516  8598.67  91.5384
 36.1936  8508.65  90.888
 36.2356  8497.57  91.48
 36.2776  8516.01  91.0538
 36.3196  8480.6  90.5377
 36.3616  8504.58  90.7923
 36.4036  8352.27  90.0546
 36.4456  8484.2  90.9648
 36.4876  8261.08  89.6976
 36.5296  8374.7  90.3627
 36.5716  8451.54  91.5543
 36.6136  8339.69  89.7328
 36.6556  8336.95  89.9158
 36.6976  8247.77  89.9346
 36.7396  8209.98  89.4527
 36.7816  8198.32  89.7697
 36.8236  8157.62  89.4691
 36.8656  8089.5  89.1636
 36.9076  8073.69  88.957
 36.9496  8051.49  88.8246
 36.9916  8067.68  88.5405
 37.0336  8175.7  89.4477
 37.0756  8219.29  89.4819
 37.1176  7986.96  88.4736
 37.1596  8143.64  89.3457
 37.2016  8070.99  89.1609
 37.2436  8311.74  89.7834
 37.2856  8054.93  88.6497
 37.3276  8210.83  88.86
 37.3696  8008.73  88.6345
 37.4116  8056.25  88.8078
 37.4536  7998.98  88.3588
 37.4956  7910.85  87.9177
 37.5376  8237.19  91.3011
 37.5796  8188.45  90.9596
 37.6216  7948.37  87.8998
 37.6636  8220.3  89.2705
 37.7056  8261.71  89.698
 37.7476  8285.42  89.3511
 37.7896  7968.07  88.1314
 37.8316  7997.44  88.434
 37.8736  8219.08  89.1964
 37.9156  8153.62  88.8289
 37.9576  8099.42  88.4503
 37.9996  8021.59  87.7375
 38.0416  7940.39  88.0914
 38.0836  8258.89  89.742
 38.1256  8117.71  88.9475
 38.1676  7991.15  88.3673
 38.2096  8294.21  89.6366
 38.2516  8163.5  89.1569
 38.2936  8299.05  89.6757
 38.3356  8148.17  88.7938
 38.3776  7905.91  87.7154
 38.4196  8113.27  88.7107
 38.4616  7984.59  88.2497
 38.5036  8116.29  88.8169
 38.5456  7996.57  88.986
 38.5876  8001.29  89.0283
 38.6296  8063.1  88.342
 38.6716  8042.38  88.0342
 38.7136  8068.72  88.1157
 38.7556  8035.74  88.4496
 38.7976  8145.54  88.9665
 38.8396  8108.34  89.2266
 38.8816  7932.12  88.056
 38.9236  8083.96  88.6931
 38.9656  8061.02  88.4783
 39.0076  8108.83  88.1341
 39.0496  8019.88  88.2066
 39.0916  8062.21  88.0838
 39.1336  8077.76  88.5736
 39.1756  7928.61  87.8235
 39.2176  7965.26  88.5574
 39.2596  8019.26  88.7853
 39.3016  8069.41  88.6374
 39.3436  7991.87  88.6276
 39.3856  8091.38  88.5966
 39.4276  8282.34  90.1744
 39.4696  8013.34  88.3176
 39.5116  8052.59  89.0521
 39.5536  8078.99  89.6244
 39.5956  8076.84  88.708
 39.6376  7990.44  88.2424
 39.6796  7918.84  87.5801
 39.7216  7919.33  87.6862
 39.7636  8008.42  88.7455
 39.8056  8085.33  88.9482
 39.8476  8038.16  88.9523
 39.8896  8016.51  88.4536
 39.9316  7980.56  88.5096
 39.9736  8022.37  88.3112
 40.0156  7941.98  87.701
 40.0576  7900.21  87.8207
 40.0996  8019.63  87.6584
 40.1416  7952.68  88.0934
 40.1836  8065.16  88.6002
 40.2256  8008.52  88.3168
 40.2676  7826.97  87.4956
 40.3096  7969.08  88.1411
 40.3516  8103.39  88.9917
 40.3936  8093.65  88.4935
 40.4356  8050.77  88.4649
 40.4776  8101.52  88.9765
 40.5196  8034  88.9019
 40.5616  8120.44  89.0177
 40.6036  7869.25  87.891
 40.6456  8050.87  88.501
 40.6876  8075.91  88.6301
 40.7296  7950.98  88.0726
 40.7716  7981.83  88.3692
 40.8136  7887.66  87.7912
 40.8556  8073.64  88.9497
 40.8976  8046.96  88.7247
 40.9396  8101.9  89.3779
 40.9816  8086.47  88.5828
 41.0236  7987.04  87.8231
 41.0656  8022.93  88.5521
 41.1076  8019.31  88.307
 41.1496  8002.92  88.1242
 41.1916  7946.99  88.1274
 41.2336  8035.25  88.6159
 41.2756  7987.07  87.9544
 41.3176  7986.89  88.5656
 41.3596  8015.52  88.4604
 41.4016  7940.65  88.3087
 41.4436  8020.43  88.5307
 41.4856  7974.33  88.4441
 41.5276  7926.87  88.1924
 41.5696  7975.55  88.0926
 41.6116  8121.97  89.2951
 41.6536  8003.41  88.4931
 41.6956  8106.94  89.0465
 41.7376  7892.99  87.9704
 41.7796  7838.6  87.5597
 41.8216  8064.49  89.036
 41.8636  7961.19  88.4103
 41.9056  7956.37  88.1716
 41.9476  8015.45  88.736
 41.9896  8074.59  88.7156
 42.0316  8122.13  89.0766
 42.0736  8133.76  89.265
 42.1156  7914.63  87.867
 42.1576  7932.97  88.0782
 42.1996  8081.53  89.0269
 42.2416  7992.49  88.1275
 42.2836  7962.61  88.0745
 42.3256  7951.91  88.1236
 42.3676  8048.02  88.4495
 42.4096  8037.23  88.3674
 42.4516  8082.35  88.6932
 42.4936  7880.3  87.6417
 42.5356  7794.59  87.3132
 42.5776  7974.58  88.249
 42.6196  7885.48  87.814
 42.6616  7799.03  87.5033
 42.7036  8008.19  88.0456
 42.7456  8086.8  88.8303
 42.7876  7887.98  87.8226
 42.8296  7955.9  88.0462
 42.8716  7832.18  87.5215
 42.9136  7739.6  86.7545
 42.9556  7911.12  87.8839
 42.9976  7918.63  87.881
 43.0396  7895.99  87.4897
 43.0816  7795.87  87.3184
 43.1236  7880.82  87.8401
 43.1656  7882.2  87.6729
 43.2076  7860.95  87.6669
 43.2496  7817.14  87.2415
 43.2916  7877.91  87.9438
 43.3336  7929.84  88.0545
 43.3756  7946.68  87.9122
 43.4176  7759.68  86.952
 43.4596  7808.31  87.0805
 43.5016  7856.99  87.7577
 43.5436  7842.31  87.5743
 43.5856  7719.02  86.9237
 43.6276  7731.8  86.8755
 43.6696  7713.66  87.0295
 43.7116  7887.7  87.4983
 43.7536  7883.11  87.9771
 43.7956  7676.78  88.0328
 43.8376  7648.4  86.3998
 43.8796  7529.82  85.8057
 43.9216  7725.99  86.8295
 43.9636  7622.5  86.3586
 44.0056  7672.06  86.8697
 44.0476  7606.7  86.133
 44.0896  7565.4  86.2383
 44.1316  7813.4  87.1575
 44.1736  7658.17  86.4112
 44.2156  7655.04  86.2501
 44.2576  7608.04  86.3074
 44.2996  7693.64  86.7652
 44.3416  7652.43  86.2929
 44.3836  7472.91  85.6004
 44.4256  7568.37  85.7873
 44.4676  7621.91  86.2473
 44.5096  7506.66  85.7369
 44.5516  7550.12  85.9525
 44.5936  7512.39  85.6877
 44.6356  7564.02  85.7181
 44.6776  7548.04  85.9453
 44.7196  7556.94  86.3063
 44.7616  7652.59  88.1821
 44.8036  7721.79  87.1924
 44.8456  7759.57  87.4052
 44.8876  7671.55  86.7468
 44.9296  7767.18  86.7326
 44.9716  7771.9  87.1906
 45.0136  7767.91  87.0978
 45.0556  7608.82  86.2948
 45.0976  7740.04  87.0834
 45.1396  7648.05  86.3119
 45.1816  7548.32  85.7025
 45.2236  7651.97  86.1902
 45.2656  7604.55  86.43
 45.3076  7592.41  86.1253
 45.3496  7564.75  86.2874
 45.3916  7678.82  87.2046
 45.4336  7700.7  87.1726
 45.4756  7551.66  86.1847
 45.5176  7739.36  86.8528
 45.5596  7712.93  86.826
 45.6016  7584.62  86.5289
 45.6436  7605.74  85.82
 45.6856  7471.64  85.712
 45.7276  7482.15  87.1077
 45.7696  7526.62  87.0303
 45.8116  7637.6  87.0865
 45.8536  7533.83  86.3899
 45.8956  7544.75  85.802
 45.9376  7590.97  85.5188
 45.9796  7582.09  86.1638
 46.0216  7664.15  86.9745
 46.0636  7636.93  85.9383
 46.1056  7663.96  86.0909
 46.1476  7614.93  86.4189
 46.1896  7651.85  86.772
 46.2316  7587.72  86.281
 46.2736  7586.08  86.4829
 46.3156  7473.73  85.5883
 46.3576  7577.14  86.3755
 46.3996  7547.06  86.3678
 46.4416  7616.63  86.3165
 46.4836  7581.16  86.4956
 46.5256  7485.26  85.8843
 46.5676  7424.07  85.6532
 46.6096  7647.51  86.8643
 46.6516  7500.91  85.0599
 46.6936  7675.36  86.5498
 46.7356  7695.53  86.7681
 46.7776  7538.84  86.7431
 46.8196  7458.31  86.0108
 46.8616  7399.54  85.4797
 46.9036  7446.45  85.3994
 46.9456  7418.1  84.8787
 46.9876  7448.36  85.133
 47.0296  7527.9  86.287
 47.0716  7419.08  85.4811
 47.1136  7464.81  85.4176
 47.1556  7469.36  85.3034
 47.1976  7558.01  85.9712
 47.2396  7429.66  85.5564
 47.2816  7441.51  85.3329
 47.3236  7467.75  85.8528
 47.3656  7478.45  85.8481
 47.4076  7582.25  86.1613
 47.4496  7424.45  85.4222
 47.4916  7447.06  85.7566
 47.5336  7519.69  85.9826
 47.5756  7563.32  86.354
 47.6176  7450.23  85.6065
 47.6596  7392.69  84.9828
 47.7016  7542.41  85.6527
 47.7436  7522.78  85.8877
 47.7856  7533.96  85.9771
 47.8276  7369.31  85.0743
 47.8696  7364.14  85.1268
 47.9116  7608.16  86.2434
 47.9536  7521.3  85.691
 47.9956  7389.16  85.6515
 48.0376  7317.06  85.0022
 48.0796  7520.73  86.2989
 48.1216  7398.98  85.4246
 48.1636  7535.13  85.7688
 48.2056  7541.49  86.0787
 48.2476  7582.5  86.6261
 48.2896  7609.91  86.6903
 48.3316  7496.42  85.9771
 48.3736  7429.44  85.6169
 48.4156  7373.63  85.1528
 48.4576  7527.18  86.3346
 48.4996  7500.82  85.6257
 48.5416  7578.26  86.3959
 48.5836  7447.38  85.3086
 48.6256  7550.54  86.114
 48.6676  7511.21  86.4235
 48.7096  7424.45  85.1824
 48.7516  7443.04  85.4324
 48.7936  7367.4  85.0672
 48.8356  7392.85  85.2655
 48.8776  7415.99  85.984
 48.9196  7536.53  86.0302
 48.9616  7388.41  85.5583
 49.0036  7419.8  86.1061
 49.0456  7276.85  85.2569
 49.0876  7395.04  85.4711
 49.1296  7335.04  85.2955
 49.1716  7233.42  84.5691
 49.2136  7386.04  85.3798
 49.2556  7530.82  86.2356
 49.2976  7428.99  85.719
 49.3396  7317.69  85.1389
 49.3816  7506.67  85.6473
 49.4236  7424.91  85.6165
 49.4656  7260.87  84.6782
 49.5076  7394.02  85.1961
 49.5496  7294.35  84.6842
 49.5916  7442.86  85.4504
 49.6336  7411.62  85.4854
 49.6756  7414.73  85.7265
 49.7176  7378.21  85.4675
 49.7596  7330.2  84.9488
 49.8016  7535.78  86.0581
 49.8436  7333.33  85.1892
 49.8856  7392.28  85.5339
 49.9276  7262.62  84.8881
 49.9696  7301.54  85.0974
 50.0116  7418.42  85.9019
 50.0536  7399.91  85.7435
 50.0956  7291.89  85.1899
 50.1376  7291.32  84.872
 50.1796  7344.24  85.4636
 50.2216  7277.8  85.0763
 50.2636  7314.51  84.8997
 50.3056  7311.4  85.0562
 50.3476  7297.21  84.9938
 50.3896  7315.95  85.0789
 50.4316  7358.8  85.1562
 50.4736  7221.18  84.5802
 50.5156  7300.18  85.0359
 50.5576  7380.81  85.256
 50.5996  7290.15  85.0166
 50.6416  7247.64  84.6881
 50.6836  7303.61  85.0758
 50.7256  7318.96  85.0774
 50.7676  7389.07  85.8212
 50.8096  7235.6  84.4552
 50.8516  7202.72  84.69
 50.8936  7181.26  84.3406
 50.9356  7207.8  84.6111
 50.9776  7234.14  84.9263
 51.0196  7066.63  84.0685
 51.0616  7142.2  83.8242
 51.1036  7256.48  84.8616
 51.1456  7247.85  84.7196
 51.1876  7189.88  83.6946
 51.2296  7158.66  84.172
 51.2716  7022.9  83.076
 51.3136  7143.2  84.2529
 51.3556  7086.66  83.5299
 51.3976  7025.47  83.3248
 51.4396  6892.86  82.846
 51.4816  7050.41  83.6395
 51.5236  7159.96  84.3717
 51.5656  7130.91  83.7781
 51.6076  7164.55  84.0691
 51.6496  7052.88  83.6094
 51.6916  7053.6  83.9756
 51.7336  7048.73  84.0444
 51.7756  6962.3  83.217
 51.8176  7006.78  83.5961
 51.8596  7116.05  84.2614
 51.9016  7210.51  84.4129
 51.9436  7081.93  85.1736
 51.9856  7116.85  85.8013
 52.0276  7111.12  84.2273
 52.0696  7174.54  84.6653
 52.1116  7089.51  84.2976
 52.1536  7191.98  84.7313
 52.1956  7141.28  83.9336
 52.2376  7193.92  84.4182
 52.2796  7174.82  84.1187
 52.3216  7006.94  83.8233
 52.3636  7070.02  83.7479
 52.4056  7143.46  84.0576
 52.4476  6977.25  83.4403
 52.4896  6986.2  83.5478
 52.5316  7198.24  84.8349
 52.5736  6963.05  83.1733
 52.6156  7112.89  84.4577
 52.6576  6987.14  83.1401
 52.6996  6859.85  83.3823
 52.7416  6915.23  83.5632
 52.7836  7088.93  84.4991
 52.8256  7033.67  83.3635
 52.8676  6892.39  83.1078
 52.9096  7022.32  83.9573
 52.9516  7015.99  84.3176
 52.9936  7085.9  85.1129
 53.0356  7113.17  84.2575
 53.0776  7172.91  84.8811
 53.1196  7064.86  84.3655
 53.1616  7019.85  84.1486
 53.2036  6957.21  83.7364
 53.2456  6985.48  84.0143
 53.2876  7059.3  84.1359
 53.3296  6994.15  84.087
 53.3716  7112.11  84.5254
 53.4136  6960.14  83.7801
 53.4556  7016.94  84.1468
 53.4976  6964.13  83.6634
 53.5396  6970.64  84.1173
 53.5816  6930.41  83.5042
 53.6236  6935.17  83.88
 53.6656  7035.25  84.0815
 53.7076  6919.17  83.335
 53.7496  7149.77  84.8521
 53.7916  6999  84.1001
 53.8336  6950.27  83.6916
 53.8756  6810.58  83.3977
 53.9176  6962.57  83.644
 53.9596  6684.74  82.744
 54.0016  6672.1  81.9728
 54.0436  6668.14  82.1854
 54.0856  6825.39  82.5613
 54.1276  6708.31  82.0486
 54.1696  6723.89  82.3029
 54.2116  6805.99  82.5585
 54.2536  6708.37  81.7701
 54.2956  6723.37  81.9145
 54.3376  6623.22  81.7813
 54.3796  6707.57  82.22
 54.4216  6720.16  82.3451
 54.4636  6752.81  82.5121
 54.5056  6776.52  82.4486
 54.5476  6644.62  81.9952
 54.5896  6598.88  81.5468
 54.6316  6644.31  81.6776
 54.6736  6630.16  81.6737
 54.7156  6684.31  82.0201
 54.7576  6595.24  81.4473
 54.7996  6769.43  82.7041
 54.8416  6595.9  81.6627
 54.8836  6667.51  82.2043
 54.9256  6662.32  81.9108
 54.9676  6541.71  81.0436
 55.0096  6618.62  81.5355
 55.0516  6555.66  81.4165
 55.0936  6694.05  81.9295
 55.1356  6430.31  80.3271
 55.1776  6808.68  82.891
 55.2196  6588.66  81.361
 55.2616  6690.59  82.2009
 55.3036  6525  81.3334
 55.3456  6442.86  80.9758
 55.3876  6637.99  81.9075
 55.4296  6460.42  80.8182
 55.4716  6560.66  81.4627
 55.5136  6497.99  80.8346
 55.5556  6700.7  82.1241
 55.5976  6543.63  81.2381
 55.6396  6497.68  80.8298
 55.6816  6464.84  80.5718
 55.7236  6466.21  80.6424
 55.7656  6605.72  81.2234
 55.8076  6441.96  80.2158
 55.8496  6624.86  81.781
 55.8916  6473.45  80.9308
 55.9336  6569.91  81.3619
 55.9756  6464.11  80.5886
 56.0176  6455.84  80.6813
 56.0596  6409.66  80.3887
 56.1016  6378.69  80.2067
 56.1436  6415.89  80.7026
 56.1856  6345.7  80.0038
 56.2276  6644.49  81.9154
 56.2696  6458.67  80.7365
 56.3116  6540.33  81.6193
 56.3536  6444.22  80.7003
 56.3956  6447.6  80.6865
 56.4376  6382.17  80.3315
 56.4796  6329.35  79.8192
 56.5216  6453.92  80.9722
 56.5636  6337.64  79.8089
 56.6056  6501.27  81.073
 56.6476  6451.12  80.3506
 56.6896  6554.03  81.4744
 56.7316  6480.44  80.9381
 56.7736  6319.63  79.9174
 56.8156  6419.64  80.582
 56.8576  6259.99  79.506
 56.8996  6383.09  80.1885
 56.9416  6334.75  80.2001
 56.9836  6452.04  80.4558
 57.0256  6328.24  79.979
 57.0676  6441.48  80.8106
 57.1096  6373.6  80.1916
 57.1516  6296.7  79.7577
 57.1936  6314.78  79.6188
 57.2356  6282.59  79.7466
 57.2776  6361.55  80.2067
 57.3196  6239.42  79.7673
 57.3616  6288.88  79.5828
 57.4036  6443.15  80.6247
 57.4456  6452.16  80.6672
 57.4876  6290.96  79.5163
 57.5296  6351.47  80.2093
 57.5716  6301.54  79.9085
 57.6136  6279.91  79.6135
 57.6556  6235.43  79.445
 57.6976  6273.16  79.5305
 57.7396  6234.38  79.6051
 57.7816  6145.83  79.4343
 57.8236  6235.7  79.7928
 57.8656  6220.85  79.3691
 57.9076  6310.56  79.9426
 57.9496  6244.83  79.9034
 57.9916  6232.89  79.3256
 58.0336  6181.73  79.2865
 58.0756  6252.64  79.3456
 58.1176  6213.16  79.1168
 58.1596  6212.69  79.6996
 58.2016  6045.52  77.8543
 58.2436  6047.79  78.2643
 58.2856  5983.31  77.7777
 58.3276  5987.9  78.1753
 58.3696  6033.2  78.2264
 58.4116  6103.35  78.5458
 58.4536  6042.29  78.03
 58.4956  6016.55  78.0498
 58.5376  6116.32  78.2618
 58.5796  5975.57  77.7792
 58.6216  6014.18  77.8518
 58.6636  6052.43  78.3085
 58.7056  6062.43  78.2295
 58.7476  6082.33  78.7939
 58.7896  5930.24  77.4581
 58.8316  6035.71  78.1383
 58.8736  6097.75  78.5534
 58.9156  6077.82  78.4661
 58.9576  5961.26  78.0303
 58.9996  6060.04  77.9222
 59.0416  6048.36  78.2127
 59.0836  5993.18  77.7565
 59.1256  5984.86  78.4147
 59.1676  5889.02  78.0904
 59.2096  6029.01  78.3249
 59.2516  6215.2  79.1001
 59.2936  6095.23  78.6626
 59.3356  5921.57  77.4128
 59.3776  5962.98  77.8509
 59.4196  5872.97  77.1983
 59.4616  5760.69  76.3197
 59.5036  5933.8  77.493
 59.5456  6004.12  77.6451
 59.5876  5986.66  77.7223
 59.6296  5963.19  77.6386
 59.6716  6036.37  78.1715
 59.7136  5937.36  77.5161
 59.7556  5942.29  77.6837
 59.7976  6104.56  78.478
 59.8396  6091.31  78.2866
 59.8816  5984.69  78.1404
 59.9236  5913.46  77.3223
 59.9656  5938.65  77.7403
 60.0076  5881.79  76.738
 60.0496  6059.11  78.39
 60.0916  6056.79  77.7931
 60.1336  5927.62  78.0562
 60.1756  5932.82  79.2643
 60.1996  0.0000000E+00  0.0000000E+00