File: docs/examples/opeando_xrd/IS17_D/Data/IS17_D/17_Db_f00057.xye
# /beamlines/bl04/projects/cycle2025-II/20250340211-lsimonelli/DATA/IS17_D/17_Db_f00057.xye : mythproc.py merge -s 0.006 -l 0.5 -f /beamlines/bl04/inhouse/ff/FlatField/ff_20Nov2024rod8mm60s_17keV.raw -b True -c true -o xye /beamlines/bl04/projects/cycle2025-II/20250340211-lsimonelli/DATA/IS17_D/17_Db_00057.dat
# IsMon = [6747274, 6748672, 6751167]  IsPos = [-1.4999, -2.4884, -3.4988]
# Wave = 0.4962  CalPath /beamlines/bl04/projects/cycle2025-II/20250340211-lsimonelli/DATA/Align/Si_Pos1_25keV_f00001.cal
# Date = 2025-09-24_09:33:23 Dt = 4.8000  Bin = 0.0060  <imon> = 6749038 +/- 1610 (Min/Max) 6747274 / 6751167
# icurr 249.3262  mocoIn 1.7014E-05  mocoOut 0.7982  i15 7.07211e+06  imon 6.74904e+06  i7 6.0000  iEMpd_timer 4.8000  iEMpd_1 3.5151E-08  iEMpd_2 7.8832E-08  iEMpd_3 1.6381E-08  iEMpd_4 4.7892E-08  iEMhp_timer 4.8000  iEMhp_1 4.8726E-06  iEMhp_2 -2.4937E-08  iEMhp_3 -2.4784E-08  iEMhp_4 -2.2571E-08
#      9776
 1.5856  44482.3  216.598
 1.6276  50758.1  227.403
 1.6696  56715.9  239.531
 1.7116  63457.9  253.863
 1.7536  71694.7  268.687
 1.7956  76113.6  277.535
 1.8376  73263.6  272.721
 1.8796  62156.1  249.356
 1.9216  51624.6  228.152
 1.9636  44171.1  210.176
 2.0056  41015.4  201.743
 2.0476  37865.6  195.967
 2.0896  36196.5  190.476
 2.1316  35327.5  187.271
 2.1736  33843.1  184.748
 2.2156  34156  184.111
 2.2576  33172.7  182.093
 2.2996  31506.6  178.111
 2.3416  32160.9  178.515
 2.3836  31376.1  176.432
 2.4256  30322  174.008
 2.4676  29967  172.741
 2.5096  29604  171.748
 2.5516  28710.3  173.01
 2.5936  28530.6  169.008
 2.6356  28085.8  168.396
 2.6776  27994.6  167.012
 2.7196  27437.5  165.833
 2.7616  27313.2  165.245
 2.8036  27004  164.469
 2.8456  26865.4  164.693
 2.8876  26260  162.682
 2.9296  25747.6  161.215
 2.9716  25875.1  161.104
 3.0136  25599.8  160.317
 3.0556  25476.3  160.319
 3.0976  25607.4  159.628
 3.1396  25092.8  158.748
 3.1816  24937.3  158.199
 3.2236  24573.3  157.025
 3.2656  24620.5  156.217
 3.3076  24518.4  157.375
 3.3496  24513.5  156.271
 3.3916  24720.7  156.76
 3.4336  25419.9  159.552
 3.4756  25682.8  160.316
 3.5176  26377.5  162.249
 3.5596  26247.4  164.292
 3.6016  26375.5  162.284
 3.6436  25382.3  160.311
 3.6856  25160.8  157.906
 3.7276  24163.7  155.828
 3.7696  23842.5  154.977
 3.8116  23487.2  153.718
 3.8536  23733.1  154.449
 3.8956  23735.1  154.275
 3.9376  23387.9  153.408
 3.9796  23546.8  153.41
 4.0216  23454.2  152.138
 4.0636  23404.7  153.461
 4.1056  23640.2  153.884
 4.1476  23857.2  154.899
 4.1896  23811.2  154.615
 4.2316  23931.2  154.818
 4.2736  24396.4  156.118
 4.3156  24508.3  156.7
 4.3576  25532.6  159.849
 4.3996  25514.4  160.067
 4.4416  25956.8  161.038
 4.4836  26503.3  162.884
 4.5256  27098.7  165.318
 4.5676  26909.3  164.994
 4.6096  27447.8  165.281
 4.6516  27703.7  165.746
 4.6936  27895.2  167.147
 4.7356  27857.3  166.862
 4.7776  27904.5  166.826
 4.8196  27952.7  167.633
 4.8616  27435.7  165.56
 4.9036  26998.5  163.971
 4.9456  26833.6  164.123
 4.9876  26315.3  162.428
 5.0296  26638  163.256
 5.0716  26374.3  163.192
 5.1136  26392.8  162.983
 5.1556  26840.1  163.81
 5.1976  27329.2  165.294
 5.2396  27349.5  165.051
 5.2816  27289.4  165.339
 5.3236  27524.5  165.739
 5.3656  26789  164.442
 5.4076  26619.4  164.053
 5.4496  26665.9  163.694
 5.4916  26871.7  164.083
 5.5336  26775.2  163.793
 5.5756  26501.3  162.976
 5.6176  26889.5  163.607
 5.6596  27012  164.961
 5.7016  27174.1  164.71
 5.7436  27495.2  165.959
 5.7856  27123.3  164.903
 5.8276  27344  165.281
 5.8696  27758.1  166.706
 5.9116  27591  166.804
 5.9536  28077.7  168.015
 5.9956  28123.5  167.53
 6.0376  28126.1  168.164
 6.0796  28652.7  169.56
 6.1216  28315.7  168.754
 6.1636  28557.6  168.533
 6.2056  28186.1  168.105
 6.2476  28586.6  169.17
 6.2896  28913.8  169.811
 6.3316  28954.7  170.11
 6.3736  28937.8  169.952
 6.4156  29249  170.75
 6.4576  29075.1  169.861
 6.4996  29228.8  170.783
 6.5416  29347.1  171.265
 6.5836  29174.4  170.991
 6.6256  29578  171.733
 6.6676  30117.2  172.854
 6.7096  29976.1  173.314
 6.7516  30297.8  173.884
 6.7936  30477.2  173.81
 6.8356  30455  173.838
 6.8776  30719.8  175.391
 6.9196  30791.2  176.004
 6.9616  31400.3  177.18
 7.0036  31596  177.38
 7.0456  31674.2  176.9
 7.0876  31880.4  179.17
 7.1296  31709.7  177.82
 7.1716  31620.1  177.103
 7.2136  31288.3  175.953
 7.2556  31601.5  176.991
 7.2976  31904.2  178.329
 7.3396  31501.4  177.429
 7.3816  31485.1  177.59
 7.4236  31681.8  177.438
 7.4656  31978.2  177.734
 7.5076  32420.5  179.109
 7.5496  31859.4  178.08
 7.5916  32145.3  178.935
 7.6336  32562.4  179.973
 7.6756  32584.1  179.883
 7.7176  33259.4  182.069
 7.7596  32962.9  182.488
 7.8016  33546.8  186.329
 7.8436  33220.4  182.073
 7.8856  33602  182.727
 7.9276  33995.6  184.179
 7.9696  34335  185.414
 8.0116  35017.9  185.802
 8.0536  35261.5  186.696
 8.0956  35245.4  187.831
 8.1376  35591.3  188.221
 8.1796  35926.7  189.641
 8.2216  36663.3  190.318
 8.2636  36846.1  191.044
 8.3056  36537.2  191
 8.3476  37403.1  192.582
 8.3896  36770  191.029
 8.4316  37167.9  192.223
 8.4736  37285.2  191.998
 8.5156  36811.6  191.048
 8.5576  36847.7  192.11
 8.5996  36654.8  190.487
 8.6416  36685.8  191.828
 8.6836  36176.8  190.316
 8.7256  36855.5  191.549
 8.7676  36686.5  194.021
 8.8096  37153.9  192.55
 8.8516  36925.9  191.527
 8.8936  36460.4  190.271
 8.9356  36786.3  191.461
 8.9776  36721.9  191.365
 9.0196  36635.3  190.819
 9.0616  36562.5  190.121
 9.1036  36112.5  190.116
 9.1456  35662.6  188.256
 9.1876  36048.1  189.224
 9.2296  35584.4  187.432
 9.2716  35728.6  187.863
 9.3136  35797.2  188.038
 9.3556  35583.2  187.444
 9.3976  34841.1  186.006
 9.4396  34688.9  185.5
 9.4816  34639.5  185.233
 9.5236  34281.9  184.155
 9.5656  34267.7  184.479
 9.6076  33271.6  182.291
 9.6496  34089.1  184.406
 9.6916  33428.8  182.551
 9.7336  33690  183.074
 9.7756  33431.8  183.631
 9.8176  33306  182.808
 9.8596  33316.8  181.274
 9.9016  32416.6  178.795
 9.9436  32577.2  179.159
 9.9856  32112.3  178.144
 10.0276  31680.7  178.02
 10.0696  32131.3  178.303
 10.1116  31216.6  176.016
 10.1536  31235.8  176.233
 10.1956  30522.6  173.819
 10.2376  30678.1  173.771
 10.2796  30313.2  172.847
 10.3216  30165.4  172.703
 10.3636  29913.6  172.011
 10.4056  29155.2  170.216
 10.4476  29658.8  171.295
 10.4896  29620.3  170.623
 10.5316  28882.4  169.207
 10.5736  28922.9  169.742
 10.6156  29004.7  169.74
 10.6576  28437.9  166.64
 10.6996  28220.7  166.703
 10.7416  28074.8  166.487
 10.7836  27621.4  165.79
 10.8256  27277.8  165.178
 10.8676  27317.3  164.847
 10.9096  27182.8  164.474
 10.9516  26960.9  162.747
 10.9936  26867.8  162.674
 11.0356  26710.3  162.802
 11.0776  26504.6  161.512
 11.1196  26095.5  161.019
 11.1616  25876.1  160.015
 11.2036  26016.4  160.297
 11.2456  25759.1  160.2
 11.2876  26139.7  161.109
 11.3296  25767.3  159.871
 11.3716  26000.3  160.276
 11.4136  26006.2  161.188
 11.4556  26084.1  161.083
 11.4976  26766  162.157
 11.5396  27139.9  163.461
 11.5816  26921.1  163.253
 11.6236  26259.3  161.464
 11.6656  26354.3  160.902
 11.7076  25404.3  158.801
 11.7496  25059.5  161.718
 11.7916  25060.8  156.982
 11.8336  24552.8  156.262
 11.8756  24346.4  155.166
 11.9176  24512.8  155.366
 11.9596  24469  155.403
 12.0016  24364.2  155.839
 12.0436  24486  155.672
 12.0856  24035.3  154.739
 12.1276  24183.4  155.16
 12.1696  24193.3  154.304
 12.2116  24035.3  153.799
 12.2536  23871.6  154.092
 12.2956  23696.7  152.871
 12.3376  23989.7  154.027
 12.3796  23730.7  153.668
 12.4216  23908.8  153.433
 12.4636  23532  153.155
 12.5056  23833.9  153.401
 12.5476  23853.5  152.979
 12.5896  23778.4  153.379
 12.6316  23898.5  153.922
 12.6736  23582.6  153.387
 12.7156  23752.2  153.775
 12.7576  23694.1  153.845
 12.7996  23890.4  153.126
 12.8416  23650.1  153.398
 12.8836  23962.6  154.236
 12.9256  24220.2  154.096
 12.9676  24130  154.2
 13.0096  24462.9  156.394
 13.0516  24373.6  155.133
 13.0936  24627.2  156.353
 13.1356  24677.5  155.471
 13.1776  24354.5  155.466
 13.2196  24379  155.181
 13.2616  24191.2  154.899
 13.3036  24402.3  155.534
 13.3456  24059.1  154.78
 13.3876  24542.6  155.618
 13.4296  24252.6  154.85
 13.4716  24419.3  155.012
 13.5136  24295.3  154.751
 13.5556  24184.1  155.022
 13.5976  24435.2  155.994
 13.6396  24339.5  155.041
 13.6816  24470.9  155.937
 13.7236  24834.2  156.676
 13.7656  26245.1  161.506
 13.8076  27080.6  162.693
 13.8496  26488.6  161.59
 13.8916  24677.5  157.106
 13.9336  23984  154.156
 13.9756  24081.8  153.847
 14.0176  23566.7  152.875
 14.0596  23684.5  153.186
 14.1016  23638.2  153.46
 14.1436  23598.8  152.471
 14.1856  22926.3  150.567
 14.2276  23048.5  151.458
 14.2696  23019.5  151.208
 14.3116  22490.6  149.366
 14.3536  22273.7  148.807
 14.3956  22232.9  148.405
 14.4376  22546.1  149.227
 14.4796  22464.3  148.955
 14.5216  22037.7  148.313
 14.5636  21931.4  147.533
 14.6056  22186.3  147.943
 14.6476  22073.6  146.81
 14.6896  21634.1  145.885
 14.7316  21267.7  145.682
 14.7736  21071.5  144.15
 14.8156  21066.3  144.159
 14.8576  21056.3  143.98
 14.8996  20575.1  143.513
 14.9416  20089.9  141.817
 14.9836  20105.9  141.864
 15.0256  19596.2  138.974
 15.0676  19593.8  139.275
 15.1096  19624.6  139.125
 15.1516  19183.5  138.103
 15.1936  19175.1  137.506
 15.2356  18663.6  135.932
 15.2776  18921.2  136.461
 15.3196  18429.5  135.656
 15.3616  18388.4  135.261
 15.4036  18368.8  135.062
 15.4456  18691.1  135.886
 15.4876  18257.6  133.988
 15.5296  18008.5  133.354
 15.5716  17984.4  132.872
 15.6136  17813.7  132.561
 15.6556  17820.1  131.835
 15.6976  17661  131.54
 15.7396  17459.3  131.159
 15.7816  17582.3  131.143
 15.8236  17234.1  130.516
 15.8656  17361.4  130.798
 15.9076  17209.2  130.043
 15.9496  17698  134.697
 15.9916  17523.2  134.431
 16.0336  17633  131.728
 16.0756  17476.4  131.449
 16.1176  17337.2  130.989
 16.1596  16826.2  130.221
 16.2016  16815.4  128.949
 16.2436  17019.2  130.114
 16.2856  16688.4  128.372
 16.3276  16434.3  127.812
 16.3696  16672.3  128.564
 16.4116  16569.3  128.599
 16.4536  16513.6  128.203
 16.4956  16746.2  128.838
 16.5376  16487.3  128.024
 16.5796  16445.5  127.229
 16.6216  16494  127.669
 16.6636  16146.2  126.518
 16.7056  16340.6  127.133
 16.7476  16351.9  126.714
 16.7896  16186.2  126.808
 16.8316  16429.1  127.734
 16.8736  16602.8  128.668
 16.9156  16392.4  128.175
 16.9576  16171.5  128.11
 16.9996  16255.5  128.901
 17.0416  16352.6  127.677
 17.0836  16525  128.11
 17.1256  16072.9  126.356
 17.1676  16262.2  127.052
 17.2096  15926.1  125.637
 17.2516  15919.5  125.397
 17.2936  15848.6  125.465
 17.3356  15801.7  125.272
 17.3776  15580.3  124.571
 17.4196  15398.2  123.543
 17.4616  15452.8  123.675
 17.5036  15077.4  122.519
 17.5456  15178.1  123.567
 17.5876  15214.3  122.756
 17.6296  15213.7  122.59
 17.6716  15250.8  123.318
 17.7136  14976.5  122.337
 17.7556  14937.9  122.468
 17.7976  14747.8  121.419
 17.8396  14825.6  121.243
 17.8816  14496.9  120.449
 17.9236  14675.7  120.982
 17.9656  14551.5  120.985
 18.0076  14597.8  120.765
 18.0496  14587.6  119.862
 18.0916  14469.1  119.917
 18.1336  14507.4  120.179
 18.1756  14587.1  120.06
 18.2176  14399.7  119.492
 18.2596  14402.5  119.236
 18.3016  14645.2  120.495
 18.3436  14404.1  119.511
 18.3856  14343.7  119.392
 18.4276  14415.9  119.371
 18.4696  14361  119.223
 18.5116  14252.4  119.046
 18.5536  14319.1  119.691
 18.5956  13965.3  117.767
 18.6376  14028.3  118.44
 18.6796  14167.8  118.341
 18.7216  14159.3  118.794
 18.7636  14126.7  118.664
 18.8056  14110.1  118.506
 18.8476  13774.5  117.715
 18.8896  14022.5  118.108
 18.9316  14032.2  118.134
 18.9736  13954.4  117.503
 19.0156  13787.4  117.214
 19.0576  14021.6  117.06
 19.0996  14019.6  117.762
 19.1416  13936.3  117.801
 19.1836  13798.1  116.826
 19.2256  13601.3  116.206
 19.2676  13730  116.84
 19.3096  13861  117.639
 19.3516  13746.2  117.109
 19.3936  13612.3  116.436
 19.4356  13928.8  117.668
 19.4776  13868.3  117.5
 19.5196  13828.7  117.18
 19.5616  13759  117.149
 19.6036  13722.2  116.486
 19.6456  13877.1  117.259
 19.6876  13782.9  116.504
 19.7296  13879.9  117.379
 19.7716  13744.7  116.973
 19.8136  14143  118.855
 19.8556  14233.6  118.711
 19.8976  13914.7  117.424
 19.9396  14309.9  118.668
 19.9816  14495.6  119.69
 20.0236  14595.7  120.301
 20.0656  14653.6  120.538
 20.1076  14651.7  121.016
 20.1496  14321.8  119.638
 20.1916  14227  118.76
 20.2336  13959.8  117.551
 20.2756  13597.5  116.457
 20.3176  13534.5  115.938
 20.3596  13485.7  115.713
 20.4016  13524.4  115.683
 20.4436  13355  115.504
 20.4856  13422  115.594
 20.5276  13148.3  114.865
 20.5696  13448.8  115.616
 20.6116  13284.9  115.189
 20.6536  13162.1  114.172
 20.6956  13097.8  114.02
 20.7376  13108.7  114.283
 20.7796  13121.1  114.023
 20.8216  13415.8  115.011
 20.8636  13102.2  114.035
 20.9056  12990.3  113.483
 20.9476  13075  113.701
 20.9896  13183.3  114.041
 21.0316  13084.6  113.5
 21.0736  12950.6  113.442
 21.1156  12938.1  113.545
 21.1576  12917.8  113.496
 21.1996  12939.8  113.573
 21.2416  12998.5  113.66
 21.2836  13007  113.663
 21.3256  12979.2  113.631
 21.3676  12953  113.047
 21.4096  12788.4  112.65
 21.4516  12695.3  112.103
 21.4936  12557  111.757
 21.5356  12815  112.852
 21.5776  12867.9  112.915
 21.6196  12678.7  112.123
 21.6616  12632.6  111.997
 21.7036  12725.6  112.176
 21.7456  12791.9  112.552
 21.7876  12652.4  111.7
 21.8296  12577.5  111.204
 21.8716  12707.6  112.021
 21.9136  12768.9  112.489
 21.9556  12528.7  111.104
 21.9976  12501.7  111.013
 22.0396  12518.5  111.338
 22.0816  12527.1  111.894
 22.1236  12669.4  111.999
 22.1656  12460.9  111.209
 22.2076  12368.7  110.255
 22.2496  12228  109.66
 22.2916  12294.1  109.842
 22.3336  12255  110.376
 22.3756  12209.3  109.895
 22.4176  12345.3  110.362
 22.4596  11951.6  109.158
 22.5016  12240.7  109.983
 22.5436  12320.3  110.214
 22.5856  12455.9  111.067
 22.6276  12724.8  112.394
 22.6696  12317.1  110.93
 22.7116  12302.2  110.382
 22.7536  12237.5  110.065
 22.7956  12302.5  109.694
 22.8376  12034.6  109.005
 22.8796  12160.3  109.378
 22.9216  12368.4  110.85
 22.9636  12282  109.624
 23.0056  11946  108.246
 23.0476  12268  110.258
 23.0896  12596.9  111.107
 23.1316  12405  110.691
 23.1736  12473.1  113.932
 23.2156  12768.8  112.629
 23.2576  12744.7  112.667
 23.2996  12494.7  111.32
 23.3416  12743.2  112.965
 23.3836  12727.5  112.12
 23.4256  12731.8  112.264
 23.4676  12560.8  111.198
 23.5096  12464.5  111.423
 23.5516  12514.1  110.944
 23.5936  12610.8  112.286
 23.6356  12686.1  112.283
 23.6776  12425.5  111.332
 23.7196  12282.2  110.269
 23.7616  12600.7  111.606
 23.8036  12717.8  112.183
 23.8456  12497  110.749
 23.8876  12376.3  110.575
 23.9296  12298.5  110.712
 23.9716  12197.8  109.47
 24.0136  12237  110.541
 24.0556  12141.1  109.821
 24.0976  12036.2  109.162
 24.1396  12129.1  112.224
 24.1816  12241.3  111.146
 24.2236  12099.8  110.13
 24.2656  12002.4  109.16
 24.3076  12049.5  109.644
 24.3496  11998.6  109.284
 24.3916  11899.3  108.89
 24.4336  11927.8  109.22
 24.4756  12060.2  109.71
 24.5176  11770.1  108.014
 24.5596  11768  108.111
 24.6016  11641.2  107.836
 24.6436  11815.4  108.147
 24.6856  11734  107.521
 24.7276  11639.1  107.406
 24.7696  11512.8  106.927
 24.8116  11571.3  107.371
 24.8536  11520.3  107.146
 24.8956  11578.2  107.138
 24.9376  11580.4  107.085
 24.9796  11301.2  106.144
 25.0216  11368.5  106.576
 25.0636  11471.7  106.709
 25.1056  11154.3  105.913
 25.1476  11196.3  107.751
 25.1896  11215.4  106.345
 25.2316  11223.9  105.658
 25.2736  11199.7  105.197
 25.3156  11103.6  104.813
 25.3576  11027.7  104.888
 25.3996  11000.5  104.747
 25.4416  11128.2  105.327
 25.4836  10844.6  104.494
 25.5256  10990.6  104.55
 25.5676  11038.2  104.517
 25.6096  10932.4  104.582
 25.6516  10995.4  104.393
 25.6936  11097.2  105.192
 25.7356  10813  103.964
 25.7776  10932.1  104.135
 25.8196  10736.8  103.443
 25.8616  10769.4  103.526
 25.9036  10867.6  103.459
 25.9456  10824.2  103.848
 25.9876  10775.5  103.673
 26.0296  10841.3  103.514
 26.0716  10910  104.261
 26.1136  10879.7  104.047
 26.1556  10868.9  103.386
 26.1976  10739.4  103.693
 26.2396  10727  102.785
 26.2816  10905.6  104.248
 26.3236  10853  104.159
 26.3656  10895.1  104.086
 26.4076  10815.7  103.916
 26.4496  10951.8  104.15
 26.4916  10995.6  104.256
 26.5336  11417.5  106.577
 26.5756  11621.2  107.406
 26.6176  10787.7  103.503
 26.6596  10764.5  103.699
 26.7016  10756.5  103.428
 26.7436  10763.7  103.586
 26.7856  10499  102.289
 26.8276  10609.2  102.794
 26.8696  10658.9  102.893
 26.9116  10583.6  102.482
 26.9536  10456.5  101.905
 26.9956  10371  101.528
 27.0376  10469.8  102.236
 27.0796  10462  101.917
 27.1216  10513.3  102.229
 27.1636  10173.7  100.73
 27.2056  10271.5  101.098
 27.2476  10346  101.456
 27.2896  10292.6  101.308
 27.3316  10337.3  101.235
 27.3736  10272.3  101.199
 27.4156  10284.2  101.091
 27.4576  10330.5  101.548
 27.4996  10353  101.265
 27.5416  10208.5  100.86
 27.5836  10205.7  100.685
 27.6256  10196.4  100.813
 27.6676  10225.3  100.948
 27.7096  10263.8  101.021
 27.7516  10111.8  100.417
 27.7936  10524.1  102.588
 27.8356  10240.6  100.806
 27.8776  10352.4  101.419
 27.9196  10187.9  100.471
 27.9616  10115.5  100.317
 28.0036  10068.8  100.039
 28.0456  9999.11  99.8354
 28.0876  9941.51  99.6289
 28.1296  9996.44  99.7415
 28.1716  10074.1  100.147
 28.2136  9950.09  99.4978
 28.2556  9979.19  99.7608
 28.2976  9874.7  99.2281
 28.3396  9942.97  99.3263
 28.3816  9923.07  99.2353
 28.4236  9772.46  98.6287
 28.4656  9762.63  98.6212
 28.5076  9905.49  98.9808
 28.5496  9810.62  98.7614
 28.5916  9940.14  99.2202
 28.6336  9826.38  98.9999
 28.6756  9849.99  98.3147
 28.7176  9869.69  98.9663
 28.7596  9645.7  97.7325
 28.8016  9749.44  98.2952
 28.8436  9716.8  98.3661
 28.8856  9770.11  98.49
 28.9276  9730.74  98.537
 28.9696  9725.2  98.1644
 29.0116  9586.99  97.6485
 29.0536  9588.3  97.8619
 29.0956  9624.26  97.7382
 29.1376  9657.87  97.8929
 29.1796  9743.77  98.3805
 29.2216  9606.4  97.5226
 29.2636  9640.32  97.7691
 29.3056  9674.15  97.7153
 29.3476  9591.45  97.8218
 29.3896  9619.4  98.0823
 29.4316  9573.33  97.1771
 29.4736  9305.65  95.8695
 29.5156  9465.05  96.6129
 29.5576  9428.81  97.1604
 29.5996  9339.35  95.965
 29.6416  9329.87  96.0363
 29.6836  9426.69  96.4602
 29.7256  9251.5  96.1144
 29.7676  9338.85  96.2289
 29.8096  9329.84  96.1296
 29.8516  9258.83  96.0898
 29.8936  9299.75  96.3951
 29.9356  9291.09  96.1087
 29.9776  9192.42  95.7442
 30.0196  9329.2  95.854
 30.0616  9258.98  95.8594
 30.1036  9363.21  96.2284
 30.1456  9253.54  95.8806
 30.1876  9246.98  95.8375
 30.2296  9185.39  95.4603
 30.2716  9327.52  95.8398
 30.3136  9301.59  96.5545
 30.3556  9403.83  97.0956
 30.3976  9324.16  98.1579
 30.4396  9627.69  97.0956
 30.4816  9617.57  96.6514
 30.5236  9559.96  96.3518
 30.5656  9224.18  95.2938
 30.6076  9495.33  96.1068
 30.6496  9449.91  96.281
 30.6916  9305.3  95.6324
 30.7336  9334.38  95.9292
 30.7756  9441.83  96.5516
 30.8176  9388.93  96.2075
 30.8596  9422.77  96.1344
 30.9016  9402.26  96.392
 30.9436  9423.17  96.2486
 30.9856  9516.34  96.8305
 31.0276  9245.31  95.0806
 31.0696  9338.43  96.1131
 31.1116  9310.83  95.9383
 31.1536  9199.33  95.2312
 31.1956  9104.46  94.8439
 31.2376  9015.07  94.394
 31.2796  9339.59  95.6234
 31.3216  9453.96  96.1182
 31.3636  9262.37  95.8512
 31.4056  9175.21  96.6969
 31.4476  9374.31  95.6499
 31.4896  9286.02  95.6993
 31.5316  9255.26  94.9465
 31.5736  9425.62  95.6446
 31.6156  9318.54  95.099
 31.6576  9474.93  95.9813
 31.6996  9364.3  95.0853
 31.7416  9201.21  95.3401
 31.7836  9434.01  95.5364
 31.8256  9313.34  95.1902
 31.8676  9284.36  95.0271
 31.9096  9165.29  94.7856
 31.9516  9112.88  94.6828
 31.9936  9062.04  94.2316
 32.0356  9196.37  94.9816
 32.0776  9214.57  94.9766
 32.1196  9249.17  95.2577
 32.1616  9189.73  94.4038
 32.2036  9189.84  94.9087
 32.2456  9084.57  94.741
 32.2876  9064.98  94.1465
 32.3296  9032.2  93.9194
 32.3716  8886.84  93.2844
 32.4136  8980.17  93.9764
 32.4556  9087.85  93.9163
 32.4976  8892.61  92.8145
 32.5396  8912.48  92.9823
 32.5816  8983.6  93.479
 32.6236  8975.45  93.4974
 32.6656  9002.55  94.1879
 32.7076  8929.86  93.4626
 32.7496  8818.91  92.5559
 32.7916  8954.5  93.2261
 32.8336  8875.9  92.9053
 32.8756  9015.99  93.3614
 32.9176  8773  92.572
 32.9596  8839.69  92.9958
 33.0016  8839.34  92.7591
 33.0436  8861.74  93.0512
 33.0856  8933.67  93.5256
 33.1276  8716.23  92.1116
 33.1696  8855.48  92.6796
 33.2116  8885.18  93.0656
 33.2536  8921.4  93.2445
 33.2956  8960.75  93.5382
 33.3376  8821.34  92.5474
 33.3796  8772.67  92.512
 33.4216  8772.63  92.0954
 33.4636  8902.37  92.9376
 33.5056  8726.15  92.2597
 33.5476  8739.27  92.3073
 33.5896  8839.65  92.6312
 33.6316  8791.6  92.6805
 33.6736  8651.79  92.1906
 33.7156  8592.17  91.8979
 33.7576  8587.93  91.5219
 33.7996  8882.79  92.8405
 33.8416  8587.06  91.4719
 33.8836  8576.21  91.1877
 33.9256  8660.22  91.6982
 33.9676  8754.83  92.0833
 34.0096  8707.59  92.1489
 34.0516  8573.06  91.0742
 34.0936  8600.18  91.4937
 34.1356  8783.56  92.2016
 34.1776  8536.04  90.8959
 34.2196  8592.3  91.3775
 34.2616  8517.9  91.1135
 34.3036  8718.16  92.4299
 34.3456  8507.67  91.0606
 34.3876  8717.15  92.1457
 34.4296  8554.31  90.9766
 34.4716  8620.82  91.4663
 34.5136  8539.89  91.2269
 34.5556  8434.91  90.9261
 34.5976  8573.52  91.4844
 34.6396  8444.57  90.4998
 34.6816  8657.75  91.7532
 34.7236  8543.39  90.9237
 34.7656  8489.25  90.8385
 34.8076  8464.78  91.0394
 34.8496  8452.47  90.8193
 34.8916  8686.77  91.9335
 34.9336  8537.54  91.1212
 34.9756  8555.62  91.1386
 35.0176  8500.66  91.3741
 35.0596  8581.24  91.6301
 35.1016  8457.84  90.7222
 35.1436  8669.51  91.5389
 35.1856  8506.51  90.7863
 35.2276  8461.58  90.7255
 35.2696  8497.99  91.1173
 35.3116  8412.41  90.7568
 35.3536  8361.96  90.1909
 35.3956  8447.43  90.3672
 35.4376  8491.1  91.1643
 35.4796  8408.18  90.7463
 35.5216  8372.28  90.5285
 35.5636  8243.82  90.5722
 35.6056  8381.02  90.3301
 35.6476  8384.16  90.2506
 35.6896  8435.83  90.6279
 35.7316  8295.13  89.8431
 35.7736  8318.92  90.1577
 35.8156  8367.28  90.4206
 35.8576  8314.2  90.3794
 35.8996  8380.17  90.7132
 35.9416  8339.65  89.9935
 35.9836  8419.54  90.764
 36.0256  8529.97  91.3801
 36.0676  8442.28  90.6585
 36.1096  8433.22  90.7626
 36.1516  8406.76  90.5063
 36.1936  8425.6  90.4408
 36.2356  8301.62  90.4255
 36.2776  8280.08  89.7952
 36.3196  8232.1  89.1989
 36.3616  8328.82  89.851
 36.4036  8292.73  89.7249
 36.4456  8411.96  90.5813
 36.4876  8184.41  89.2844
 36.5296  8265.52  89.7718
 36.5716  8264.92  90.536
 36.6136  8131.66  88.5996
 36.6556  8072.85  88.4701
 36.6976  8025.04  88.6995
 36.7396  7954.74  88.047
 36.7816  7988.42  88.6042
 36.8236  8030.17  88.759
 36.8656  7900.27  88.0962
 36.9076  7889.15  87.9292
 36.9496  8012.76  88.6002
 36.9916  8035.59  88.3585
 37.0336  8107.53  89.0608
 37.0756  8141  89.0447
 37.1176  7945.01  88.2307
 37.1596  7950.96  88.2672
 37.2016  8037.76  88.9743
 37.2436  8112.1  88.6981
 37.2856  7962.51  88.14
 37.3276  8022.67  87.8284
 37.3696  7923.45  88.1539
 37.4116  8016.3  88.5736
 37.4536  8061.5  88.6901
 37.4956  7845.75  87.5401
 37.5376  7990.95  89.9298
 37.5796  8069.08  90.2953
 37.6216  8055.56  88.489
 37.6636  8095.45  88.6027
 37.7056  8002.58  88.2754
 37.7476  8110.86  88.4067
 37.7896  7898.78  87.7499
 37.8316  8053.61  88.7626
 37.8736  8108.68  88.589
 37.9156  8082.35  88.4373
 37.9576  7989.72  87.8451
 37.9996  7939.37  87.286
 38.0416  7987.57  88.3426
 38.0836  8111.49  88.94
 38.1256  7910.58  87.8041
 38.1676  7839.84  87.5147
 38.2096  8130.98  88.739
 38.2516  8037.24  88.4564
 38.2936  8132.31  88.7718
 38.3356  8122.03  88.6448
 38.3776  7941.2  87.9103
 38.4196  8002.05  88.0959
 38.4616  7892  87.7321
 38.5036  8066.68  88.5441
 38.5456  7819.55  88.0005
 38.5876  7875.93  88.3347
 38.6296  7945.31  87.7088
 38.6716  7954.62  87.5629
 38.7136  7908.42  87.2469
 38.7556  7874.66  87.5674
 38.7976  8102.54  88.7482
 38.8396  7739.34  87.1914
 38.8816  7854.46  87.6349
 38.9236  7817.86  87.2268
 38.9656  7867.41  87.4117
 39.0076  7802.22  86.4704
 39.0496  8057.19  88.4251
 39.0916  8147.35  88.5563
 39.1336  7895.22  87.5865
 39.1756  7960.83  88.0079
 39.2176  7765.98  87.4414
 39.2596  7903.75  88.1525
 39.3016  7959.17  88.045
 39.3436  7900.23  88.1263
 39.3856  7889.01  87.5048
 39.4276  7995.24  88.6107
 39.4696  8022.31  88.3789
 39.5116  7896.12  88.1932
 39.5536  7954.83  88.9381
 39.5956  7913.28  87.8074
 39.6376  7903.26  87.7503
 39.6796  7924.21  87.6161
 39.7216  7931.54  87.7527
 39.7636  7889.98  88.0829
 39.8056  7899.03  87.9209
 39.8476  7741.46  87.2866
 39.8896  7913.92  87.8945
 39.9316  7905.64  88.0954
 39.9736  7863.25  87.4303
 40.0156  7836.99  87.1176
 40.0576  7891.53  87.7723
 40.0996  8005.55  87.5873
 40.1416  7829.36  87.4068
 40.1836  7950.51  87.9681
 40.2256  7790.31  87.1038
 40.2676  7847.79  87.5373
 40.3096  7969.98  88.1518
 40.3516  7938.07  88.0759
 40.3936  7973.39  87.8234
 40.4356  7862.03  87.4224
 40.4776  7891.29  87.9799
 40.5196  7934.83  88.3517
 40.5616  8007.29  88.4002
 40.6036  7780.66  87.3941
 40.6456  7830.38  87.2651
 40.6876  8008.57  88.2617
 40.7296  7886.11  87.7149
 40.7716  7970.32  88.3053
 40.8136  7833.78  87.4848
 40.8556  7981.06  88.4449
 40.8976  7998.13  88.4606
 40.9396  7908.33  88.3121
 40.9816  7948.97  87.8245
 41.0236  7860.52  87.1195
 41.0656  7830.26  87.4759
 41.1076  7933.55  87.8316
 41.1496  7997.26  88.0936
 41.1916  7862.18  87.6571
 41.2336  7961.73  88.2174
 41.2756  7887.16  87.4029
 41.3176  7988.49  88.5757
 41.3596  7850.62  87.5463
 41.4016  7844.08  87.7626
 41.4436  7958.65  88.1858
 41.4856  7908.25  88.0714
 41.5276  7810.44  87.548
 41.5696  7946.72  87.9323
 41.6116  7886.76  87.9906
 41.6536  8014.35  88.5564
 41.6956  7925.88  88.1325
 41.7376  7859.33  87.784
 41.7796  7772.63  87.1777
 41.8216  7834.24  87.7565
 41.8636  7832.45  87.6905
 41.9056  7867.68  87.6828
 41.9476  7844.4  87.7895
 41.9896  7942.24  87.9962
 42.0316  7921.3  87.9592
 42.0736  7958.77  88.278
 42.1156  7801.43  87.2332
 42.1576  7832.25  87.5154
 42.1996  7965.12  88.3809
 42.2416  7814.26  87.1322
 42.2836  7850.39  87.4543
 42.3256  7869.04  87.6648
 42.3676  7967.49  88.0113
 42.4096  7875.2  87.4739
 42.4516  7964.07  88.0399
 42.4936  7737.05  86.8552
 42.5356  7748.63  87.0569
 42.5776  7919.52  87.9467
 42.6196  7931.53  88.0724
 42.6616  7712.75  87.0169
 42.7036  7754.01  86.6327
 42.7456  7862.54  87.5974
 42.7876  7894.8  87.8617
 42.8296  7832.2  87.3468
 42.8716  7731.8  86.9556
 42.9136  7744.12  86.8156
 42.9556  7884.25  87.7233
 42.9976  7775.9  87.0899
 43.0396  7860.34  87.2902
 43.0816  7790.91  87.2896
 43.1236  7806.2  87.4283
 43.1656  7802.6  87.2368
 43.2076  7704.8  86.7913
 43.2496  7803.5  87.1619
 43.2916  7679.04  86.824
 43.3336  7830.49  87.5019
 43.3756  7737.2  86.7549
 43.4176  7588.5  85.984
 43.4596  7769.12  86.8622
 43.5016  7680.23  86.7691
 43.5436  7659.3  86.5493
 43.5856  7658.22  86.5641
 43.6276  7718.96  86.8093
 43.6696  7659.03  86.7181
 43.7116  7845.36  87.2712
 43.7536  7751.41  87.2448
 43.7956  7648.35  87.8614
 43.8376  7548.29  85.8228
 43.8796  7545.63  85.8869
 43.9216  7698.11  86.6691
 43.9636  7654.45  86.526
 44.0056  7532.67  86.0702
 44.0476  7502.22  85.5268
 44.0896  7417.35  85.3813
 44.1316  7557.27  85.7087
 44.1736  7439.73  85.1616
 44.2156  7567.45  85.7491
 44.2576  7598.43  86.2414
 44.2996  7555.96  85.9737
 44.3416  7497  85.3999
 44.3836  7331.2  84.7722
 44.4256  7412.3  84.8829
 44.4676  7439.64  85.2022
 44.5096  7543.91  85.9395
 44.5516  7410.62  85.1442
 44.5936  7348.92  84.7414
 44.6356  7524.89  85.4875
 44.6776  7454.92  85.4038
 44.7196  7487.31  85.8948
 44.7616  7590.03  87.8189
 44.8036  7525.61  85.8701
 44.8456  7584.03  86.4101
 44.8876  7623.62  86.4795
 44.9296  7720.68  86.469
 44.9716  7592.68  86.1781
 45.0136  7519.93  85.7087
 45.0556  7698.91  86.6971
 45.0976  7487.08  85.6441
 45.1396  7644.81  86.2956
 45.1816  7404.08  84.8655
 45.2236  7571.73  85.7344
 45.2656  7466.6  85.6349
 45.3076  7599.51  86.1527
 45.3496  7434.65  85.5365
 45.3916  7490.6  86.1289
 45.4336  7544.78  86.2907
 45.4756  7561.72  86.23
 45.5176  7679.04  86.5201
 45.5596  7709.23  86.8053
 45.6016  7547.68  86.3174
 45.6436  7390.42  84.5866
 45.6856  7405.56  85.337
 45.7276  7341.68  86.276
 45.7696  7479.99  86.7597
 45.8116  7554.18  86.6096
 45.8536  7573.06  86.6232
 45.8956  7550.81  85.8413
 45.9376  7631.69  85.7568
 45.9796  7519.24  85.8096
 46.0216  7444.22  85.7256
 46.0636  7661.36  86.0897
 46.1056  7546.81  85.4382
 46.1476  7567.3  86.1572
 46.1896  7556.66  86.2424
 46.2316  7500.19  85.7768
 46.2736  7354.45  85.3269
 46.3156  7404.61  85.2007
 46.3576  7464.31  85.7472
 46.3996  7549.84  86.3944
 46.4416  7493.43  85.6506
 46.4836  7442.57  85.7121
 46.5256  7508.1  86.031
 46.5676  7384.63  85.434
 46.6096  7366.83  85.2545
 46.6516  7399.56  84.4919
 46.6936  7511.44  85.6327
 46.7356  7525.72  85.802
 46.7776  7427.37  86.0994
 46.8196  7400.76  85.5308
 46.8616  7228.19  84.4741
 46.9036  7227.91  84.136
 46.9456  7417.14  84.8608
 46.9876  7357.69  84.608
 47.0296  7390.78  85.493
 47.0716  7313.11  84.8681
 47.1136  7353.94  84.7853
 47.1556  7393.12  84.8706
 47.1976  7600.68  86.1298
 47.2396  7387.27  85.3253
 47.2816  7207.88  83.9844
 47.3236  7288.03  84.8194
 47.3656  7286.67  84.7429
 47.4076  7333.27  84.8126
 47.4496  7357.49  85.0475
 47.4916  7418.81  85.5965
 47.5336  7474.26  85.7255
 47.5756  7509.4  86.0483
 47.6176  7256.32  84.4798
 47.6596  7347.78  84.7264
 47.7016  7529  85.5717
 47.7436  7393.88  85.1478
 47.7856  7409.74  85.2583
 47.8276  7307.75  84.7189
 47.8696  7355.38  85.083
 47.9116  7445.02  85.3093
 47.9536  7378.65  84.8697
 47.9956  7283.72  85.0372
 48.0376  7296.1  84.8837
 48.0796  7426  85.7605
 48.1216  7247.68  84.5488
 48.1636  7384.89  84.9106
 48.2056  7443.68  85.5179
 48.2476  7393.42  85.5469
 48.2896  7473.2  85.9096
 48.3316  7438.73  85.6477
 48.3736  7403.3  85.4726
 48.4156  7379.46  85.1825
 48.4576  7342.25  85.2664
 48.4996  7416.13  85.1419
 48.5416  7415.67  85.4711
 48.5836  7393.38  85.0091
 48.6256  7482.6  85.7375
 48.6676  7395.7  85.7621
 48.7096  7331.86  84.6447
 48.7516  7344.17  84.869
 48.7936  7181.38  83.9847
 48.8356  7345.51  84.9915
 48.8776  7265.87  85.1053
 48.9196  7452.12  85.5445
 48.9616  7338.13  85.2697
 49.0036  7431.45  86.1734
 49.0456  7292.16  85.3403
 49.0876  7419.59  85.5969
 49.1296  7235.17  84.6991
 49.1716  7164.67  84.1594
 49.2136  7392.43  85.4108
 49.2556  7341.53  85.1475
 49.2976  7302.48  84.9957
 49.3396  7189.19  84.3816
 49.3816  7465.14  85.4118
 49.4236  7328.59  85.0568
 49.4656  7269.87  84.7292
 49.5076  7299.03  84.6472
 49.5496  7290.04  84.6597
 49.5916  7281.16  84.5231
 49.6336  7213.42  84.3396
 49.6756  7338.53  85.3019
 49.7176  7296.19  84.992
 49.7596  7226.41  84.3525
 49.8016  7316.9  84.7909
 49.8436  7284.95  84.9131
 49.8856  7313.3  85.0719
 49.9276  7258.87  84.8594
 49.9696  7262.89  84.8753
 50.0116  7246.64  84.8883
 50.0536  7195.39  84.5593
 50.0956  7280.63  85.1182
 50.1376  7255.62  84.6747
 50.1796  7232.33  84.8094
 50.2216  7184.77  84.5252
 50.2636  7176.29  84.0909
 50.3056  7184.56  84.3171
 50.3476  7171.85  84.2621
 50.3896  7157.42  84.1506
 50.4316  7240.48  84.465
 50.4736  7114.95  83.9543
 50.5156  7135.48  84.0648
 50.5576  7296.43  84.765
 50.5996  7185.91  84.4042
 50.6416  7220.01  84.5285
 50.6836  7180.81  84.3638
 50.7256  7288.14  84.9171
 50.7676  7297.91  85.2985
 50.8096  7127.36  83.8145
 50.8516  7188.85  84.6118
 50.8936  7077.11  83.7242
 50.9356  7150.74  84.267
 50.9776  7079.07  84.0061
 51.0196  6929.57  83.2317
 51.0616  7072.7  83.4096
 51.1036  7150.63  84.2314
 51.1456  7027.17  83.4145
 51.1876  7211.11  83.818
 51.2296  7124.68  83.968
 51.2716  6973.09  82.7647
 51.3136  6967.11  83.1995
 51.3556  6956.73  82.7508
 51.3976  6928.97  82.7324
 51.4396  6828.1  82.4477
 51.4816  6929.33  82.9069
 51.5236  7044.93  83.6851
 51.5656  6914.1  82.4965
 51.6076  7010.17  83.153
 51.6496  6977.63  83.1532
 51.6916  6949.15  83.3421
 51.7336  6892.21  83.0957
 51.7756  6842.76  82.4933
 51.8176  6848.06  82.6318
 51.8596  6983.72  83.4631
 51.9016  7210.52  84.4039
 51.9436  7048.74  84.9618
 51.9856  7120.78  85.8188
 52.0276  7114.52  84.2508
 52.0696  7097.46  84.2187
 52.1116  6941.59  83.4036
 52.1536  7098.81  84.2197
 52.1956  7006.07  83.1299
 52.2376  7149.09  84.1475
 52.2796  7157.72  84.0177
 52.3216  6868.57  82.9867
 52.3636  6979.46  83.2158
 52.4056  6945.22  82.8754
 52.4476  6866.11  82.7765
 52.4896  6906.63  83.0725
 52.5316  7067.86  84.0871
 52.5736  6911.38  82.8583
 52.6156  7032.37  83.9914
 52.6576  6860.87  82.3835
 52.6996  6700.68  82.3977
 52.7416  6802.77  82.8811
 52.7836  6942.32  83.6194
 52.8256  6939.53  82.8031
 52.8676  6848.4  82.8382
 52.9096  6990.63  83.7711
 52.9516  6913.6  83.7054
 52.9936  6975.22  84.4519
 53.0356  6981.09  83.4751
 53.0776  7040.2  84.1091
 53.1196  7008.39  84.0343
 53.1616  6807.34  82.8727
 53.2036  6947.25  83.6864
 53.2456  6954.35  83.8357
 53.2876  6756.4  82.3207
 53.3296  6982.22  84.0194
 53.3716  6937.55  83.5002
 53.4136  6946.79  83.7062
 53.4556  6917  83.5574
 53.4976  6821.38  82.8197
 53.5396  6880.62  83.5743
 53.5816  6999.87  83.9286
 53.6236  6799.35  83.0719
 53.6656  7009.44  83.9502
 53.7076  6979.42  83.723
 53.7496  6817.37  82.8657
 53.7916  6833.28  83.1091
 53.8336  6983.04  83.893
 53.8756  6809.98  83.4256
 53.9176  6827.73  82.8617
 53.9596  6654.85  82.5544
 54.0016  6629.08  81.7296
 54.0436  6497.49  81.1373
 54.0856  6756.47  82.149
 54.1276  6682.6  81.8947
 54.1696  6664.22  81.9495
 54.2116  6796.91  82.5023
 54.2536  6618.2  81.2284
 54.2956  6661.34  81.5409
 54.3376  6548.8  81.3354
 54.3796  6686.14  82.0744
 54.4216  6754.34  82.5665
 54.4636  6655.89  81.9123
 54.5056  6636.62  81.6145
 54.5476  6563.99  81.4916
 54.5896  6618.68  81.6705
 54.6316  6602.86  81.4176
 54.6736  6640.91  81.7324
 54.7156  6709.47  82.1769
 54.7576  6489.23  80.8058
 54.7996  6551.89  81.3409
 54.8416  6622.81  81.8416
 54.8836  6606.01  81.8187
 54.9256  6580.54  81.4394
 54.9676  6447.28  80.4574
 55.0096  6605.73  81.4702
 55.0516  6405.79  80.4694
 55.0936  6581.85  81.2397
 55.1356  6356.21  79.8726
 55.1776  6633.78  81.8418
 55.2196  6536.62  81.0296
 55.2616  6659.35  82.0186
 55.3036  6389.59  80.4907
 55.3456  6368.24  80.5055
 55.3876  6473.2  80.8886
 55.4296  6400.96  80.4402
 55.4716  6451.1  80.7857
 55.5136  6470.08  80.6615
 55.5556  6618.29  81.6317
 55.5976  6452.33  80.685
 55.6396  6546.41  81.215
 55.6816  6553.46  81.1289
 55.7236  6401.88  80.225
 55.7656  6469.05  80.3676
 55.8076  6353.95  79.6667
 55.8496  6340.45  79.8962
 55.8916  6316.57  79.9516
 55.9336  6534.99  81.149
 55.9756  6472.81  80.6234
 56.0176  6359.87  80.0811
 56.0596  6339.67  79.9327
 56.1016  6265.75  79.4976
 56.1436  6353.47  80.3138
 56.1856  6211.24  79.1504
 56.2276  6509.31  81.0892
 56.2696  6353.78  80.0867
 56.3116  6492.3  81.328
 56.3536  6460.39  80.7881
 56.3956  6352.44  80.0852
 56.4376  6370.46  80.2582
 56.4796  6248.24  79.292
 56.5216  6427.48  80.8187
 56.5636  6294.87  79.5407
 56.6056  6468.77  80.8835
 56.6476  6316.76  79.5263
 56.6896  6444.37  80.7836
 56.7316  6253.83  79.4932
 56.7736  6315.78  79.8754
 56.8156  6299.85  79.8248
 56.8576  6213.29  79.2069
 56.8996  6308.66  79.7097
 56.9416  6252.95  79.6875
 56.9836  6393.61  80.0907
 57.0256  6235.38  79.3881
 57.0676  6428.24  80.737
 57.1096  6380.46  80.2327
 57.1516  6254.8  79.4959
 57.1936  6295.22  79.4927
 57.2356  6100.46  78.5844
 57.2776  6345.31  80.1127
 57.3196  6153.9  79.22
 57.3616  6286.7  79.5846
 57.4036  6290.77  79.6653
 57.4456  6357.18  80.064
 57.4876  6309.2  79.632
 57.5296  6218.04  79.3744
 57.5716  6212.2  79.3473
 57.6136  6097.43  78.4452
 57.6556  6145.62  78.8643
 57.6976  6251.85  79.3842
 57.7396  6253.86  79.7564
 57.7816  6073.31  78.9653
 57.8236  6137.97  79.1619
 57.8656  6237.82  79.4791
 57.9076  6267.25  79.6669
 57.9496  6146.95  79.2647
 57.9916  6211.25  79.2019
 58.0336  6133.6  78.976
 58.0756  6245.18  79.331
 58.1176  6198.12  79.0252
 58.1596  6172.94  79.4448
 58.2016  5958.95  77.2835
 58.2436  6079.18  78.4669
 58.2856  5961.91  77.6324
 58.3276  5911.19  77.6604
 58.3696  5983.97  77.9014
 58.4116  5945.27  77.514
 58.4536  5977.52  77.6103
 58.4956  5992.91  77.8901
 58.5376  5910.56  76.9292
 58.5796  5830.8  76.8213
 58.6216  5933.68  77.3202
 58.6636  5974.05  77.7869
 58.7056  5936.82  77.4066
 58.7476  5841.45  77.2197
 58.7896  5976.64  77.7549
 58.8316  5941.34  77.5209
 58.8736  6040.78  78.1771
 58.9156  5875.16  77.1395
 58.9576  5829.49  77.1494
 58.9996  6083.22  78.0655
 59.0416  5935.59  77.4631
 59.0836  6007.81  77.8547
 59.1256  5869.26  77.646
 59.1676  5888.78  78.0856
 59.2096  5982.01  78.001
 59.2516  5992.84  77.6543
 59.2936  5994.92  77.9946
 59.3356  5874.39  77.086
 59.3776  6047.78  78.3845
 59.4196  5952.74  77.7025
 59.4616  5845.05  76.8588
 59.5036  5875.85  77.0954
 59.5456  6017.29  77.7122
 59.5876  5910.57  77.2091
 59.6296  5942.63  77.4868
 59.6716  5897.29  77.2479
 59.7136  5980.07  77.7765
 59.7556  5852.91  77.0795
 59.7976  5934.26  77.3578
 59.8396  5910.63  77.099
 59.8816  5876.59  77.4136
 59.9236  5885.02  77.1184
 59.9656  5849.89  77.1439
 60.0076  5904.04  76.8653
 60.0496  5928.15  77.5212
 60.0916  6084.02  77.9498
 60.1336  5823.73  77.3513
 60.1756  6017.89  79.8122
 60.1996  0.0000000E+00  0.0000000E+00